frame_seq,absolute_seq_u64,segment_id,sample_seq,PPG_G,PPG_R,PPG_IR,ACC_X,ACC_Y,ACC_Z,GYRO_X,GYRO_Y,GYRO_Z,Uh1,Uh2,Uh3,Uh4,Uc1,Uc2,Uc3,Uc4,UD1,UD2,parser_valid
54284,148016,1,148012,4955.0,43369.0,28774.0,0.004148,-0.002379,-0.0018909999999999999,0.21000000000000002,-2.5725000000000002,-3.9550000000000005,0.76434375,-0.16084375,-0.07075000000000001,1.02934375,0.74009375,-0.57228125,-0.56928125,1.0085625,0.01674396836883022,0.02029083573618988,True
54285,148017,1,148013,4956.0,43369.0,28775.0,0.008479,-0.001647,-0.00366,0.14,-3.1500000000000004,-3.9725000000000006,0.77596875,-0.15778125,-0.06634375,1.0261875,0.7398125,-0.57184375,-0.57153125,1.0140625,0.016851096084313982,0.020559870480192397,True
54286,148018,1,148014,4956.0,43369.0,28774.0,0.011163,-0.000305,-0.000793,0.15750000000000003,-3.3775000000000004,-4.025,0.7692187500000001,-0.15659375,-0.06996875,1.0296875,0.74515625,-0.574375,-0.573375,1.009125,0.01700068669091279,0.020485840874523747,True
54287,148019,1,148015,4958.0,43369.0,28774.0,0.009455,0.002379,0.000915,0.1925,-3.08,-4.1475,0.7769375000000001,-0.1605,-0.07446875,1.0279375,0.74003125,-0.57228125,-0.56975,1.0098125,0.01675795770895305,0.020158172142573694,True
54288,148020,1,148016,4958.0,43367.0,28774.0,0.00732,0.002013,0.00183,0.35000000000000003,-2.5900000000000003,-4.0425,0.77271875,-0.1594375,-0.07165625,1.0300625,0.74115625,-0.57209375,-0.565375,1.00978125,0.016793695083472483,0.020098156449881183,True
54289,148021,1,148017,4958.0,43369.0,28775.0,-0.002257,0.001586,-6.1e-05,0.43750000000000006,-1.435,-3.7450000000000006,0.77278125,-0.1598125,-0.074,1.030375,0.7397812500000001,-0.56965625,-0.5715,1.0049375,0.016680890681976878,0.020247034165598355,True
54290,148022,1,148018,4959.0,43368.0,28775.0,-0.005124,0.0011589999999999999,-0.00061,0.56,-1.05,-3.6400000000000006,0.7691875,-0.1571875,-0.07053125,1.0253125,0.7305625,-0.574625,-0.5733125,1.0209375,0.01698652573538762,0.020460458881967986,True
54291,148023,1,148019,4961.0,43369.0,28778.0,-0.008296,0.00122,-0.000244,0.6300000000000001,-0.56,-3.6050000000000004,0.76296875,-0.15625,-0.07028125,1.0250625,0.7589375,-0.57484375,-0.57740625,1.0250625,0.01703342467843768,0.020633788400677963,True
54292,148024,1,148020,4962.0,43369.0,28778.0,-0.0077469999999999995,0.0,0.000305,0.5950000000000001,-0.385,-3.6400000000000006,0.76978125,-0.15609375,-0.07003125,1.02425,0.75696875,-0.58096875,-0.57875,1.0260625,0.017284713402517953,0.020697502924274018,True
54293,148025,1,148021,4963.0,43368.0,28776.0,-0.000732,-0.0018909999999999999,0.000305,0.4025,-0.5775,-3.5875000000000004,0.769875,-0.153375,-0.0704375,1.02565625,0.75709375,-0.57996875,-0.5775625,1.02346875,0.01735534143020422,0.020633657222924363,True
54294,148026,1,148022,4963.0,43369.0,28778.0,0.0011589999999999999,-0.002257,0.000122,0.17500000000000002,-1.225,-3.8500000000000005,0.764375,-0.14921875,-0.06915625,1.0250625,0.756125,-0.5740000000000001,-0.5725625,0.999375,0.017285800032554734,0.020486518245705954,True
54295,148027,1,148023,4965.0,43368.0,28776.0,0.0048189999999999995,-0.0013419999999999999,-0.000305,0.1925,-1.5050000000000001,-4.0425,0.77590625,-0.161,-0.07253125,1.0314375,0.7331562500000001,-0.57025,-0.56825,0.99609375,0.016656322178244014,0.020177210424022877,True
54296,148028,1,148024,4962.0,43366.0,28773.0,0.002745,-0.001769,-0.00061,0.22750000000000004,-1.4000000000000001,-4.1825,0.7644375,-0.15871875,-0.0743125,1.0315,0.7344375,-0.5703125,-0.5675,1.0035625,0.016751669316375197,0.02007479393507683,True
54297,148029,1,148025,4963.0,43364.0,28767.0,0.0011589999999999999,-0.000305,-0.0015249999999999999,0.28,-1.4000000000000001,-4.095000000000001,0.77409375,-0.15646875,-0.06525,1.025125,0.7331562500000001,-0.5650937500000001,-0.5719062500000001,1.0250625,0.016634375759302773,0.020619330256479388,True
54298,148030,1,148026,4959.0,43364.0,28764.0,0.0006709999999999999,0.0017079999999999999,0.00183,0.29750000000000004,-1.3650000000000002,-4.025,0.76775,-0.15653125,-0.07037500000000001,1.0166875,0.7554375,-0.57825,-0.57884375,1.01940625,0.01715820898558685,0.020687252629611595,True
54299,148031,1,148027,4958.0,43362.0,28761.0,-0.00042699999999999997,0.00122,0.002074,0.31500000000000006,-1.3825,-3.99,0.77434375,-0.15903125,-0.0739375,1.03171875,0.74371875,-0.5705625,-0.56859375,0.9956875000000001,0.01674895517756258,0.02013368184737883,True
54300,148032,1,148028,4956.0,43365.0,28760.0,-0.0023179999999999997,0.00183,0.00061,0.24500000000000002,-1.2950000000000002,-3.8850000000000002,0.7755625,-0.15965625,-0.0699375,1.0329375,0.73334375,-0.5700937500000001,-0.566875,1.003625,0.016704759215662335,0.02022794922024067,True
54301,148033,1,148029,4952.0,43367.0,28761.0,-0.001403,6.1e-05,0.002379,0.28,-1.1900000000000002,-3.8500000000000005,0.77753125,-0.16,-0.0740625,1.0306250000000001,0.73234375,-0.5699062500000001,-0.5681875,1.0038125,0.016683264715346646,0.02011239127835539,True
54302,148034,1,148030,4951.0,43365.0,28759.0,-0.00061,-0.000244,-0.000244,0.35000000000000003,-1.3125000000000002,-3.8150000000000004,0.7775,-0.1601875,-0.07390625,1.0300625,0.7335625,-0.56996875,-0.56703125,1.00459375,0.01667813476563742,0.02007263291123139,True
54303,148035,1,148031,4947.0,43362.0,28758.0,0.002806,-0.00042699999999999997,-0.000793,0.1925,-1.4000000000000001,-3.9200000000000004,0.76871875,-0.1511875,-0.0710625,1.025,0.738125,-0.57303125,-0.5706875,1.0143125,0.017166939874379557,0.02033418885816687,True
54304,148036,1,148032,4942.0,43365.0,28755.0,0.0021349999999999997,-0.001098,-6.1e-05,0.31500000000000006,-1.2775,-3.9725000000000006,0.76946875,-0.15296875000000001,-0.067,1.0205,0.74559375,-0.5733125,-0.5651875000000001,1.01503125,0.01710570156139918,0.020280223792307712,True
54305,148037,1,148033,4940.0,43365.0,28757.0,0.000549,-0.00183,-0.0011589999999999999,0.2625,-1.2075,-4.0425,0.76896875,-0.15596875000000002,-0.07171875,1.01809375,0.7450625,-0.57553125,-0.57315625,1.0150937500000001,0.017072367458994403,0.02040590532606083,True
54306,148038,1,148034,4937.0,43362.0,28756.0,0.000122,-0.000793,-0.0008539999999999999,0.29750000000000004,-1.0325000000000002,-4.0425,0.76875,-0.15603125,-0.069375,1.0251875,0.7483125,-0.5749375,-0.5730625,1.0145,0.017046075905584702,0.02049754685644087,True
54307,148039,1,148035,4933.0,43364.0,28755.0,-0.001037,-0.000244,6.1e-05,0.42000000000000004,-0.9625000000000001,-4.130000000000001,0.76959375,-0.15771875,-0.07162500000000001,1.02875,0.746,-0.57425,-0.5710625,1.0113125,0.016949906914758336,0.02032624759307824,True
54308,148040,1,148036,4934.0,43362.0,28755.0,-0.0026839999999999998,0.000793,-6.1e-05,0.42000000000000004,-0.9275000000000001,-4.112500000000001,0.7731250000000001,-0.16003125,-0.0718125,1.0211875,0.741125,-0.57209375,-0.5710625,1.00965625,0.016769531493424323,0.02031861666543724,True
54309,148041,1,148037,4931.0,43361.0,28753.0,-0.0013419999999999999,0.000488,-0.001281,0.43750000000000006,-0.9800000000000001,-4.095000000000001,0.77709375,-0.1589375,-0.07178125,1.02953125,0.740375,-0.5719375,-0.57065625,1.00921875,0.016807791408390158,0.020303690504806928,True
54310,148042,1,148038,4929.0,43361.0,28752.0,-0.0026839999999999998,-0.000122,-0.000488,0.45500000000000007,-0.9100000000000001,-4.095000000000001,0.7751875,-0.1599375,-0.07371875,1.03046875,0.7398750000000001,-0.5711875,-0.57025,1.01009375,0.016737082812949108,0.020208636460760473,True
54311,148043,1,148039,4930.0,43361.0,28752.0,-0.00183,0.000915,0.0008539999999999999,0.42000000000000004,-1.0325000000000002,-4.0600000000000005,0.7731250000000001,-0.15646875,-0.07100000000000001,1.02128125,0.74390625,-0.57415625,-0.572625,1.01634375,0.016997023041228528,0.020413976935716067,True
54312,148044,1,148040,4928.0,43361.0,28750.0,0.000366,0.000488,0.000244,0.31500000000000006,-1.1375000000000002,-4.0425,0.76978125,-0.1561875,-0.0705625,1.02615625,0.7470625,-0.5750000000000001,-0.57221875,1.01359375,0.017042217700915567,0.02041558619935369,True
54313,148045,1,148041,4927.0,43359.0,28751.0,0.0037819999999999998,-0.000976,0.000366,0.17500000000000002,-1.4875,-3.99,0.76796875,-0.15578125,-0.07059375,1.0266250000000001,0.735,-0.572625,-0.5711875,1.00103125,0.016963745224614794,0.020373201335914266,True
54314,148046,1,148042,4926.0,43362.0,28750.0,0.004697,-0.0008539999999999999,-0.000732,0.24500000000000002,-1.61,-4.0075,0.76303125,-0.15884375,-0.074,1.02590625,0.74025,-0.57203125,-0.57096875,1.00915625,0.01681535790819084,0.02022585088347402,True
54315,148047,1,148043,4927.0,43359.0,28751.0,0.003355,-0.000305,-0.001464,0.28,-1.5925000000000002,-3.9725000000000006,0.77915625,-0.16121875,-0.07421875,1.03165625,0.74053125,-0.56540625,-0.5695625,1.00978125,0.016453523946912137,0.02016086977535721,True
54316,148048,1,148044,4925.0,43359.0,28753.0,0.002928,0.000122,-0.000976,0.21000000000000002,-1.435,-3.99,0.7715,-0.149875,-0.07059375,1.0233125,0.7469375,-0.57309375,-0.57378125,1.0147187500000001,0.0172228517217129,0.020476600441781827,True
54317,148049,1,148045,4926.0,43361.0,28753.0,-0.000244,0.000976,-0.000976,0.29750000000000004,-1.12,-3.8675,0.76878125,-0.15575,-0.06921875,1.0361875,0.7398750000000001,-0.571625,-0.5706875,1.009375,0.016925010047158056,0.02040922745853164,True
54318,148050,1,148046,4926.0,43363.0,28753.0,-0.00366,-0.000244,0.000732,0.29750000000000004,-0.5950000000000001,-3.7275000000000005,0.7827500000000001,-0.161,-0.0739375,1.034875,0.7391562500000001,-0.57171875,-0.57046875,1.0094375,0.016715100566581247,0.02020845654399654,True
54319,148051,1,148047,4927.0,43361.0,28753.0,-0.005246,-0.00042699999999999997,0.001098,0.35000000000000003,-0.525,-3.8500000000000005,0.7798125,-0.15790625,-0.07096875,1.01978125,0.7410625000000001,-0.5741875,-0.569375,1.01809375,0.016939776747450955,0.02028567067741853,True
54320,148052,1,148048,4925.0,43364.0,28754.0,-0.0055509999999999995,0.000305,0.001281,0.47250000000000003,-0.28,-3.8500000000000005,0.7614062500000001,-0.15559375,-0.07028125,1.02346875,0.74846875,-0.57371875,-0.57096875,1.002125,0.017015129222149174,0.020377198192480715,True
54321,148053,1,148049,4926.0,43365.0,28758.0,-0.005612,0.0017079999999999999,0.000915,0.6125,-0.385,-3.8325000000000005,0.75596875,-0.1511875,-0.07334375,1.0366250000000001,0.740375,-0.57221875,-0.57046875,1.00978125,0.017134441715809644,0.020232621732135248,True
54322,148054,1,148050,4925.0,43363.0,28755.0,-0.002928,0.000244,-0.00042699999999999997,0.43750000000000006,-0.5425000000000001,-3.8150000000000004,0.7805,-0.16003125,-0.07490625000000001,1.03321875,0.74046875,-0.57175,-0.57165625,1.0124375,0.016755776450598753,0.02021638244267722,True
54323,148055,1,148051,4925.0,43360.0,28757.0,0.004514,-0.000793,-0.00061,0.10500000000000001,-1.2775,-3.8325000000000005,0.7731875,-0.15784375,-0.069625,1.01759375,0.74575,-0.57384375,-0.572875,1.01565625,0.01692856861271448,0.020479899075708477,True
54324,148056,1,148052,4924.0,43361.0,28756.0,0.0050019999999999995,-0.001403,-0.001098,0.15750000000000003,-1.4175000000000002,-3.7800000000000002,0.767375,-0.1549375,-0.0690625,1.02340625,0.73153125,-0.57521875,-0.566625,1.014625,0.017101831494378862,0.020253596088188754,True
54325,148057,1,148053,4925.0,43363.0,28756.0,0.0053679999999999995,6.1e-05,-0.00042699999999999997,0.1925,-1.2950000000000002,-3.7450000000000006,0.76653125,-0.1523125,-0.0689375,1.0229062500000001,0.737125,-0.57234375,-0.5705625,1.00940625,0.017093658393900667,0.02041569052397559,True
54326,148058,1,148054,4924.0,43362.0,28755.0,0.003111,0.000305,-0.000305,0.31500000000000006,-1.1025,-3.6925000000000003,0.779875,-0.1609375,-0.07434375,1.03584375,0.7407812500000001,-0.5728125000000001,-0.57065625,1.011125,0.016761410603690564,0.020199399436065125,True
54327,148059,1,148055,4924.0,43360.0,28757.0,0.001647,0.000305,-0.000366,0.42000000000000004,-0.9275000000000001,-3.6575,0.7821875,-0.16265625,-0.07187500000000001,1.0333125,0.7404375,-0.5715625,-0.57059375,1.00953125,0.01664144272469445,0.020297382923438714,True
54328,148060,1,148056,4925.0,43364.0,28756.0,-0.0032329999999999998,0.00042699999999999997,0.000244,0.56,-0.56,-3.5700000000000003,0.77709375,-0.1583125,-0.06909375,1.022875,0.73946875,-0.571875,-0.57059375,1.0093125,0.016830726185934126,0.020410577176223105,True
54329,148061,1,148057,4923.0,43366.0,28760.0,-0.003538,0.0,0.001037,0.56,-0.4025,-3.5000000000000004,0.76825,-0.15553125,-0.06978125,1.0249062500000001,0.74021875,-0.5720000000000001,-0.5696875,1.00603125,0.016948915432199254,0.020346463503046183,True
54330,148062,1,148058,4925.0,43366.0,28759.0,-0.005978,0.0008539999999999999,0.001098,0.47250000000000003,-0.525,-3.6400000000000006,0.7728125,-0.15862500000000002,-0.07375,1.03221875,0.74053125,-0.57253125,-0.570375,1.01,0.016844265891410762,0.02021234922136923,True
54331,148063,1,148059,4923.0,43366.0,28760.0,-0.0040869999999999995,0.000183,0.000122,0.5775,-0.6825000000000001,-3.5875000000000004,0.77840625,-0.1598125,-0.0714375,1.02640625,0.7378750000000001,-0.571625,-0.56946875,1.0149062500000001,0.01675967706653508,0.02027033042788115,True
54332,148064,1,148060,4926.0,43367.0,28760.0,-0.0013419999999999999,-6.1e-05,0.00042699999999999997,0.45500000000000007,-0.8925000000000001,-3.6400000000000006,0.76959375,-0.15709375,-0.07071875,1.02546875,0.748375,-0.57659375,-0.5689375,1.01653125,0.017069086313069727,0.020278400317474046,True
54333,148065,1,148061,4925.0,43367.0,28761.0,0.002013,0.000793,-0.0013419999999999999,0.29750000000000004,-1.3125000000000002,-3.7800000000000002,0.76415625,-0.155,-0.069875,1.0255625,0.75665625,-0.57846875,-0.57821875,1.021875,0.017229256806325657,0.02068269288229034,True
54334,148066,1,148062,4924.0,43368.0,28765.0,0.002257,-0.000305,-0.0008539999999999999,0.29750000000000004,-1.33,-3.8675,0.7684375,-0.15675,-0.07,1.0250625,0.75709375,-0.57196875,-0.5680000000000001,1.02771875,0.01689806601272029,0.02027027027027027,True
54335,148067,1,148063,4926.0,43367.0,28763.0,0.0023179999999999997,-0.000488,-0.000305,0.31500000000000006,-1.4000000000000001,-3.9200000000000004,0.76628125,-0.15525,-0.06953125,1.02675,0.7680625,-0.5801875,-0.57396875,1.0227187500000001,0.017287805473412274,0.020527311039247577,True
54336,148068,1,148064,4925.0,43367.0,28762.0,0.001586,-0.000122,0.00042699999999999997,0.42000000000000004,-1.4525000000000001,-3.9375000000000004,0.77178125,-0.1556875,-0.07021875,1.02525,0.7493125,-0.5658125,-0.57346875,1.03290625,0.01669494953606766,0.020479404235513147,True
54337,148069,1,148065,4927.0,43368.0,28763.0,0.001098,0.000122,0.000122,0.35000000000000003,-1.3125000000000002,-3.9375000000000004,0.7742187500000001,-0.1578125,-0.0738125,1.03340625,0.75321875,-0.5740000000000001,-0.57003125,0.998,0.016936090990477742,0.020196097634185957,True
54338,148070,1,148066,4928.0,43369.0,28766.0,0.0,0.000305,-0.000183,0.525,-1.2075,-3.7800000000000002,0.7600625,-0.15181250000000002,-0.07146875,1.0258125,0.72690625,-0.56675,-0.563625,1.0194375,0.01689020729237689,0.020035977995918764,True
54339,148071,1,148067,4926.0,43368.0,28765.0,-0.000305,0.00042699999999999997,0.000183,0.525,-1.2775,-3.8325000000000005,0.7641875,-0.15596875000000002,-0.07062500000000001,1.03134375,0.76471875,-0.58415625,-0.5746875,1.0070000000000001,0.0174172135763252,0.020511451061178295,True
54340,148072,1,148068,4929.0,43369.0,28769.0,-0.001098,6.1e-05,-0.000183,0.4025,-1.2425000000000002,-3.9550000000000005,0.77759375,-0.1604375,-0.07100000000000001,1.03009375,0.7278125,-0.5680000000000001,-0.56446875,0.99925,0.01658916069684142,0.020088720624173887,True
54341,148073,1,148069,4928.0,43370.0,28770.0,-0.0015249999999999999,-0.001037,0.0,0.3325,-1.2600000000000002,-3.9025000000000003,0.776375,-0.15825,-0.06696875000000001,1.02525,0.72753125,-0.56275,-0.55759375,1.01959375,0.016468025770730067,0.019978545332846383,True
54342,148074,1,148070,4929.0,43371.0,28768.0,6.1e-05,-0.000488,-0.00042699999999999997,0.2625,-1.3650000000000002,-3.8150000000000004,0.7695,-0.15578125,-0.07084375,1.0313125,0.76025,-0.58078125,-0.57421875,1.00271875,0.017289930522448305,0.020483865840089016,True
54343,148075,1,148071,4930.0,43371.0,28768.0,-0.00042699999999999997,0.0006709999999999999,0.000305,0.4025,-1.33,-3.8675,0.7766875,-0.15990625,-0.06753125,1.03084375,0.72828125,-0.5643125,-0.56534375,0.99825,0.01646316175142292,0.02026482938998157,True
54344,148076,1,148072,4930.0,43373.0,28769.0,-0.0011589999999999999,0.0008539999999999999,0.0013419999999999999,0.49000000000000005,-1.2600000000000002,-3.8850000000000002,0.77925,-0.1585625,-0.07190625,1.0265625,0.71709375,-0.56646875,-0.5638125,1.018,0.01660418736412819,0.020025647484485563,True
54345,148077,1,148073,4933.0,43373.0,28770.0,-0.00061,0.000122,6.1e-05,0.36750000000000005,-1.225,-3.9200000000000004,0.76459375,-0.15609375,-0.07046875,1.026375,0.752375,-0.58015625,-0.5758125000000001,1.02975,0.01725222963137185,0.020562646708018304,True
54346,148078,1,148074,4933.0,43373.0,28771.0,-0.000244,-0.000488,-0.0008539999999999999,0.35000000000000003,-1.4175000000000002,-3.8675,0.7644375,-0.148,-0.06996875,1.02571875,0.75934375,-0.574875,-0.57403125,1.023875,0.01737038336919313,0.02051199881989244,True
54347,148079,1,148075,4934.0,43370.0,28772.0,0.0006709999999999999,-0.000366,-0.0006709999999999999,0.35000000000000003,-1.5750000000000002,-3.9025000000000003,0.76959375,-0.15571875000000002,-0.07009375,1.02625,0.755625,-0.57428125,-0.56971875,1.006375,0.01703254291516664,0.020334990607086215,True
54348,148080,1,148076,4936.0,43375.0,28773.0,0.0011589999999999999,6.1e-05,-0.000305,0.3325,-1.5925000000000002,-3.9375000000000004,0.77359375,-0.15762500000000002,-0.07221875,1.03328125,0.735375,-0.57040625,-0.57021875,1.01584375,0.016799935898495776,0.02026843981598658,True
54349,148081,1,148077,4937.0,43375.0,28774.0,-0.000366,0.0,0.000488,0.31500000000000006,-1.3125000000000002,-3.9025000000000003,0.77490625,-0.15912500000000002,-0.073375,1.031125,0.7453125,-0.5740000000000001,-0.57240625,1.0174375,0.016882680882233256,0.020308603273234586,True
54350,148082,1,148078,4937.0,43375.0,28773.0,-0.000915,-0.000793,0.000488,0.36750000000000005,-1.2600000000000002,-3.8675,0.77525,-0.15181250000000002,-0.0734375,1.03171875,0.74653125,-0.572375,-0.56678125,1.01296875,0.01711525646177872,0.02008174147763049,True
54351,148083,1,148079,4937.0,43373.0,28776.0,-0.000549,0.000976,0.000549,0.45500000000000007,-1.3125000000000002,-3.9550000000000005,0.7708125,-0.15837500000000002,-0.07165625,1.0286875,0.74803125,-0.57396875,-0.570625,1.01746875,0.016911950781250993,0.02030753185969018,True
54352,148084,1,148080,4938.0,43376.0,28777.0,-0.00061,-0.000915,-0.001281,0.43750000000000006,-1.5225000000000002,-3.99,0.7740312500000001,-0.1569375,-0.07150000000000001,1.029375,0.74709375,-0.57440625,-0.56653125,1.013875,0.016987948589805707,0.020150636854765567,True
54353,148085,1,148081,4939.0,43377.0,28777.0,0.000915,-0.00042699999999999997,0.000488,0.3325,-1.5050000000000001,-3.99,0.76946875,-0.15603125,-0.0698125,1.02509375,0.746125,-0.57446875,-0.56721875,1.015625,0.017027326379130778,0.020246746490178096,True
54354,148086,1,148082,4939.0,43374.0,28778.0,0.0021349999999999997,-0.000122,0.000976,0.4025,-1.4700000000000002,-3.9550000000000005,0.769375,-0.15646875,-0.070125,1.025125,0.7459375,-0.57453125,-0.5740000000000001,1.00934375,0.017012023372775423,0.020504394888906978,True
54355,148087,1,148083,4943.0,43374.0,28778.0,0.000915,-0.000244,-0.000549,0.36750000000000005,-1.4700000000000002,-4.0075,0.763375,-0.155625,-0.0705625,1.028125,0.74828125,-0.57421875,-0.57196875,1.01728125,0.01703385789222699,0.020405619716572367,True
54356,148088,1,148084,4943.0,43378.0,28778.0,0.000549,-0.000183,-0.000976,0.29750000000000004,-1.4525000000000001,-4.130000000000001,0.77625,-0.15709375,-0.07153125,1.03178125,0.7316875,-0.5720000000000001,-0.5696875,1.00925,0.016885326794725704,0.02027523752591481,True
54357,148089,1,148085,4943.0,43376.0,28779.0,-0.000244,0.00042699999999999997,-0.00061,0.29750000000000004,-1.3125000000000002,-3.9550000000000005,0.7710625,-0.1546875,-0.07037500000000001,1.0260625,0.73790625,-0.57125,-0.5699375,1.0129062500000001,0.01695324820674569,0.020332265802466935,True
54358,148090,1,148086,4945.0,43375.0,28780.0,-0.0021349999999999997,-0.00042699999999999997,0.00061,0.45500000000000007,-1.1375000000000002,-3.9725000000000006,0.76965625,-0.16028125000000001,-0.076375,1.039125,0.742625,-0.5740625,-0.57221875,1.00953125,0.01683812963363302,0.020179038573795865,True
54359,148091,1,148087,4946.0,43379.0,28782.0,-0.0011589999999999999,-0.000488,0.00061,0.4025,-1.0675000000000001,-4.0075,0.7729375,-0.15253125,-0.06946875,1.0155,0.740375,-0.5715625,-0.5619375,1.007125,0.017053504432206944,0.020050077482690446,True
54360,148092,1,148088,4947.0,43382.0,28783.0,-6.1e-05,0.000244,0.001281,0.2625,-1.1025,-4.0075,0.762875,-0.15503125,-0.07240625,1.0319375,0.7401875,-0.5714375,-0.5743125,1.01740625,0.016946759830392503,0.020424020000559526,True
54361,148093,1,148089,4948.0,43382.0,28783.0,0.001098,0.000488,0.002013,0.47250000000000003,-1.05,-4.0075,0.78315625,-0.16340625,-0.07521875,1.03896875,0.74771875,-0.574625,-0.570875,1.0129375,0.016733469991912393,0.020172511153957684,True
54362,148094,1,148090,4950.0,43380.0,28782.0,-0.000244,0.001037,-0.0028669999999999998,0.43750000000000006,-0.9100000000000001,-4.025,0.7810625,-0.1525625,-0.0666875,1.0209062500000001,0.7419687500000001,-0.57103125,-0.569125,1.00996875,0.017030980333802636,0.020449954973976486,True
54363,148095,1,148091,4952.0,43381.0,28783.0,-0.001098,0.000488,-0.0017079999999999999,0.4025,-0.805,-3.99,0.76390625,-0.15378125,-0.0679375,1.01959375,0.74053125,-0.57221875,-0.57059375,1.00984375,0.017028885517308037,0.020457635461088523,True
54364,148096,1,148092,4951.0,43383.0,28786.0,-0.0013419999999999999,-0.000244,-0.000183,0.45500000000000007,-0.7875000000000001,-4.0425,0.76328125,-0.14915625,-0.068625,1.02059375,0.7408750000000001,-0.5715,-0.5711875,1.01353125,0.01718835846407423,0.02045332566852945,True
54365,148097,1,148093,4954.0,43383.0,28788.0,-0.0011589999999999999,-0.00061,6.1e-05,0.4025,-0.8225000000000001,-4.112500000000001,0.7565937500000001,-0.14996875,-0.06775,1.0195,0.74725,-0.5730000000000001,-0.5710000000000001,1.0095,0.01721528710373174,0.02048146188596313,True
54366,148098,1,148094,4954.0,43381.0,28786.0,-0.0011589999999999999,-0.001464,-0.000549,0.36750000000000005,-0.8750000000000001,-4.1475,0.763375,-0.15290625,-0.0673125,1.02746875,0.740125,-0.57184375,-0.56996875,1.0095625,0.01704949389481609,0.02045815585337283,True
54367,148099,1,148095,4953.0,43380.0,28785.0,-0.001769,0.0,0.000122,0.5075000000000001,-1.1025,-4.0425,0.771,-0.15709375,-0.0746875,1.04303125,0.7405,-0.5709062500000001,-0.56940625,1.0069062500000001,0.016841564400987448,0.020135559848948322,True
54368,148100,1,148096,4955.0,43378.0,28782.0,-0.000915,-0.001281,0.000122,0.45500000000000007,-1.2775,-4.0425,0.78925,-0.16540625,-0.0735625,1.0260625,0.7440625,-0.569625,-0.57228125,1.01590625,0.016451970675173108,0.020295989001835147,True
54369,148101,1,148097,4954.0,43377.0,28777.0,0.0011589999999999999,-0.000183,0.000122,0.35000000000000003,-1.5575,-4.1475,0.77409375,-0.166,-0.0751875,1.0303437500000001,0.74703125,-0.57446875,-0.57071875,1.015875,0.016621671628201523,0.02016755207863018,True
54370,148102,1,148098,4952.0,43379.0,28775.0,0.002379,0.0006709999999999999,-0.000244,0.24500000000000002,-1.6625,-4.077500000000001,0.7833125,-0.162125,-0.0729375,1.0380625,0.74303125,-0.57015625,-0.56884375,1.01540625,0.016606782873023043,0.020184354422458323,True
54371,148103,1,148099,4951.0,43377.0,28772.0,0.003172,-0.000183,0.000488,0.28,-1.7675,-4.0425,0.78259375,-0.1596875,-0.0743125,1.03284375,0.74809375,-0.573125,-0.57309375,1.00946875,0.0168247831726734,0.02029786135496268,True
54372,148104,1,148100,4948.0,43375.0,28769.0,0.001586,0.0008539999999999999,-0.000305,0.31500000000000006,-1.435,-3.99,0.77165625,-0.156125,-0.07159375,1.02378125,0.74815625,-0.5740000000000001,-0.57321875,1.0155,0.017004761129649222,0.020413483683329032,True
54373,148105,1,148101,4945.0,43375.0,28767.0,-6.1e-05,0.00042699999999999997,0.000183,0.3325,-1.3825,-3.99,0.76715625,-0.1558125,-0.0701875,1.02371875,0.7481875,-0.56640625,-0.5719375,1.01,0.01671362696772142,0.020419635203776668,True
54374,148106,1,148102,4942.0,43375.0,28766.0,-6.1e-05,0.0015249999999999999,0.000122,0.28,-1.3650000000000002,-4.0075,0.7693125000000001,-0.14934375,-0.0701875,1.02615625,0.740625,-0.5640937500000001,-0.57025,1.0104375,0.016884400630493443,0.02035235701712437,True
54375,148107,1,148103,4940.0,43376.0,28767.0,-0.001281,-0.000122,-0.000183,0.31500000000000006,-1.2775,-3.9725000000000006,0.771875,-0.155625,-0.07009375,1.03090625,0.7403125,-0.56784375,-0.5699375,1.01009375,0.016778792400126686,0.020343712718031943,True
54376,148108,1,148104,4937.0,43372.0,28768.0,-0.0018909999999999999,0.000183,6.1e-05,0.4025,-1.1900000000000002,-4.0075,0.77346875,-0.1569375,-0.06840625,1.021625,0.74034375,-0.5714375,-0.56959375,1.01034375,0.016869179916722415,0.020398688928261178,True
54377,148109,1,148105,4934.0,43373.0,28765.0,-0.001464,-0.0013419999999999999,0.0011589999999999999,0.31500000000000006,-1.0150000000000001,-4.1475,0.7706875,-0.15546875000000002,-0.070125,1.02578125,0.7409375,-0.5713125,-0.57025,1.01121875,0.016923953492512862,0.020354900743785678,True
54378,148110,1,148106,4931.0,43372.0,28766.0,-0.001464,-6.1e-05,0.0,0.385,-1.1025,-4.025,0.7695,-0.1560625,-0.07103125,1.02840625,0.72840625,-0.57540625,-0.5730625,1.016375,0.017063553120307013,0.020430145815158368,True
54379,148111,1,148107,4930.0,43374.0,28765.0,0.0011589999999999999,-0.000122,-0.0011589999999999999,0.385,-1.1900000000000002,-3.99,0.77075,-0.15678125,-0.07125000000000001,1.022875,0.7405625,-0.57175,-0.5680625,1.01784375,0.016888042162239155,0.020221883593791738,True
54380,148112,1,148108,4928.0,43371.0,28765.0,0.000976,0.0,-0.00122,0.24500000000000002,-1.1725,-4.095000000000001,0.7702187500000001,-0.15584375,-0.07021875,1.02540625,0.7493125,-0.5749062500000001,-0.5736875,1.00834375,0.017052455693498322,0.020488123729904193,True
54381,148113,1,148109,4928.0,43371.0,28765.0,0.001098,-0.000915,-0.001281,0.29750000000000004,-1.2600000000000002,-4.095000000000001,0.76946875,-0.15659375,-0.07090625,1.02615625,0.7478750000000001,-0.57159375,-0.5673125,1.01634375,0.016889421346549815,0.020205964734644866,True
54382,148114,1,148110,4927.0,43372.0,28767.0,-6.1e-05,-6.1e-05,0.000976,0.385,-1.1025,-3.9725000000000006,0.77009375,-0.1554375,-0.07078125,1.02703125,0.74875,-0.57496875,-0.5734375,1.0170000000000001,0.017071486611758155,0.020455268010427928,True
54383,148115,1,148111,4924.0,43370.0,28763.0,-0.000976,0.000732,0.001281,0.385,-1.0675000000000001,-3.99,0.7761875,-0.15575,-0.0714375,1.025625,0.74903125,-0.57484375,-0.57221875,1.01896875,0.017053770687758697,0.020379976879377242,True
54384,148116,1,148112,4925.0,43369.0,28764.0,-0.0008539999999999999,0.0011589999999999999,0.0006709999999999999,0.2625,-1.1025,-4.112500000000001,0.77059375,-0.15509375,-0.07025,1.02315625,0.7484375,-0.57378125,-0.57221875,1.0103125,0.017037976196683204,0.02042830381363099,True
54385,148117,1,148113,4924.0,43369.0,28765.0,0.000915,0.000915,-0.001403,0.29750000000000004,-1.1900000000000002,-4.025,0.76953125,-0.1479375,-0.0710625,1.0313125,0.73221875,-0.5719375,-0.56675,1.010375,0.0172554565548606,0.020177170362380044,True
54386,148118,1,148114,4922.0,43371.0,28764.0,0.00061,0.000732,-0.000183,0.31500000000000006,-1.2775,-4.0075,0.775875,-0.15971875,-0.07465625000000001,1.02784375,0.7398125,-0.571375,-0.5700625,1.01634375,0.016753488561384942,0.020163003248363738,True
54387,148119,1,148115,4924.0,43370.0,28763.0,0.00061,-0.000549,0.000732,0.24500000000000002,-1.3650000000000002,-4.0600000000000005,0.76428125,-0.15603125,-0.07021875,1.025,0.747125,-0.57271875,-0.57415625,1.01321875,0.016957321826670077,0.020506807838010715,True
54388,148120,1,148116,4924.0,43368.0,28764.0,0.000549,-0.000305,0.000244,0.43750000000000006,-1.2425000000000002,-3.99,0.768875,-0.15503125,-0.07096875,1.02640625,0.7408750000000001,-0.57159375,-0.5704375,1.00975,0.016953011035354595,0.02032803648693679,True
54389,148121,1,148117,4923.0,43369.0,28764.0,-0.000244,-6.1e-05,0.001647,0.4025,-1.1025,-4.0075,0.7700312500000001,-0.1560625,-0.06965625,1.03146875,0.7405625,-0.5716875,-0.57028125,1.0103125,0.016914792685687543,0.02037522464257506,True
54390,148122,1,148118,4923.0,43371.0,28766.0,-0.001647,0.0008539999999999999,0.001037,0.3325,-0.9450000000000001,-3.99,0.776875,-0.15915625,-0.07171875,1.0326875,0.7399687500000001,-0.571125,-0.570375,1.00984375,0.016766377200881116,0.02029501991727843,True
54391,148123,1,148119,4925.0,43369.0,28765.0,-0.001952,0.0006709999999999999,0.0,0.43750000000000006,-0.805,-3.99,0.769375,-0.15509375,-0.07115625,1.02571875,0.7398750000000001,-0.570375,-0.57121875,1.01646875,0.01690170581442082,0.02035155460084779,True
54392,148124,1,148120,4924.0,43371.0,28764.0,-0.000366,0.000488,-0.000732,0.385,-0.9625000000000001,-3.9025000000000003,0.77025,-0.148,-0.067375,1.0290625,0.747125,-0.57175,-0.5675625,1.00953125,0.017245413940806004,0.02035967141632386,True
54393,148125,1,148121,4925.0,43367.0,28761.0,-0.000305,0.0,0.000183,0.29750000000000004,-1.0850000000000002,-3.9025000000000003,0.77465625,-0.15759375,-0.07075000000000001,1.03059375,0.740625,-0.57046875,-0.56940625,1.01459375,0.016803708720453288,0.02029582013199851,True
54394,148126,1,148122,4923.0,43367.0,28765.0,0.002989,-0.000488,0.0008539999999999999,0.29750000000000004,-1.1900000000000002,-3.9550000000000005,0.7738125,-0.1576875,-0.07137500000000001,1.02940625,0.745,-0.57021875,-0.5703125,1.0098125,0.016789889182407057,0.02030651828298887,True
54395,148127,1,148123,4926.0,43368.0,28763.0,0.0035989999999999998,-0.002196,-0.0008539999999999999,0.29750000000000004,-1.33,-4.0075,0.77390625,-0.15615625,-0.06971875,1.028875,0.7411875,-0.5699375,-0.5700937500000001,1.01028125,0.01684095655513979,0.020365205159219222,True
54396,148128,1,148124,4924.0,43367.0,28762.0,0.00183,-0.002745,-0.0006709999999999999,0.17500000000000002,-1.2075,-4.025,0.7741875,-0.15753125,-0.0716875,1.02903125,0.7399375,-0.5710000000000001,-0.56975,1.010375,0.01682751007285011,0.020271370282562907,True
54397,148129,1,148125,4925.0,43366.0,28763.0,-0.0013419999999999999,0.0006709999999999999,-0.00061,0.4025,-1.0325000000000002,-4.340000000000001,0.7726875,-0.1575625,-0.07137500000000001,1.029625,0.7415625,-0.57134375,-0.5700937500000001,1.0090625,0.016839992725265585,0.02029779597401821,True
54398,148130,1,148126,4925.0,43367.0,28763.0,-0.004392,0.001952,0.001037,0.5775,-0.6475000000000001,-4.322500000000001,0.7723125000000001,-0.1555625,-0.0708125,1.02403125,0.7398125,-0.5704375,-0.5744375,1.02115625,0.01688512872430538,0.02049385667525452,True
54399,148131,1,148127,4925.0,43367.0,28763.0,-0.006161,0.001769,0.0023179999999999997,0.6475000000000001,-0.47250000000000003,-4.515000000000001,0.7693125000000001,-0.15528125,-0.06978125,1.03065625,0.74946875,-0.57015625,-0.568875,1.007875,0.01688532200522738,0.020314066069366223,True
54400,148132,1,148128,4926.0,43365.0,28763.0,-0.004331,0.000915,0.0011589999999999999,0.47250000000000003,-0.6300000000000001,-4.515000000000001,0.776625,-0.1555,-0.07453125000000001,1.03334375,0.7374375,-0.5710625,-0.56815625,1.0088125000000001,0.016912679295004035,0.02009206531320396,True
54401,148133,1,148129,4926.0,43366.0,28762.0,-0.003172,0.000122,-0.001037,0.3325,-0.8400000000000001,-4.62,0.7712187500000001,-0.1558125,-0.07221875,1.0190625,0.75190625,-0.57521875,-0.5730000000000001,1.02046875,0.01706622652138142,0.02037932893826558,True
54402,148134,1,148130,4926.0,43367.0,28762.0,0.002013,0.0006709999999999999,0.000305,0.29750000000000004,-1.4875,-4.7250000000000005,0.7660625,-0.15459375,-0.0656875,1.03303125,0.746375,-0.5703125,-0.568875,1.00359375,0.016919554848966616,0.020480689490259527,True
54403,148135,1,148131,4925.0,43366.0,28763.0,0.003111,-0.000549,-0.000366,0.15750000000000003,-1.6975000000000002,-4.7075000000000005,0.79878125,-0.164875,-0.07040625,1.0146875,0.7485625,-0.57703125,-0.57228125,1.0165625,0.016769977049201173,0.020424436579326553,True
54404,148136,1,148132,4927.0,43365.0,28761.0,0.004514,-0.00061,-6.1e-05,0.10500000000000001,-1.7500000000000002,-4.62,0.75675,-0.1509375,-0.07028125,1.04471875,0.738125,-0.570375,-0.56834375,1.0081875,0.017070862776819646,0.020272530581146725,True
54405,148137,1,148133,4926.0,43365.0,28762.0,0.003965,-0.00122,0.000305,0.14,-1.8375000000000001,-4.532500000000001,0.79028125,-0.1586875,-0.0695,1.0150625,0.7448125,-0.576375,-0.5757187500000001,1.0090937500000001,0.01699548855353973,0.020598329397792284,True
54406,148138,1,148134,4925.0,43365.0,28761.0,0.0042699999999999995,-0.000793,-0.000915,0.14,-1.8200000000000003,-4.6025,0.76596875,-0.16375,-0.07403125,1.017625,0.73825,-0.56984375,-0.5711875,1.02140625,0.01652813726176016,0.020233301707538554,True
54407,148139,1,148135,4926.0,43363.0,28762.0,0.0006709999999999999,0.0006709999999999999,-0.000976,0.36750000000000005,-1.4175000000000002,-4.7075000000000005,0.75746875,-0.15834375,-0.07918750000000001,1.02721875,0.73840625,-0.5705625,-0.5679375,1.01559375,0.016776935814961497,0.019893814855235607,True
54408,148140,1,148136,4927.0,43366.0,28761.0,-0.002074,0.0008539999999999999,0.000549,0.525,-1.225,-4.69,0.75040625,-0.15221875,-0.06509375,1.0233125,0.7499375,-0.5720625,-0.5700000000000001,1.00034375,0.017086223429555413,0.02054970492470493,True
54409,148141,1,148137,4928.0,43364.0,28762.0,-0.005063,0.000488,0.0006709999999999999,0.5075000000000001,-1.155,-4.48,0.76959375,-0.1506875,-0.0743125,1.03340625,0.73790625,-0.57034375,-0.5660000000000001,1.00778125,0.017079787497885537,0.02001495970039893,True
54410,148142,1,148138,4927.0,43366.0,28761.0,-0.005307,0.000732,0.001281,0.5425000000000001,-1.155,-4.550000000000001,0.7898437500000001,-0.1688125,-0.07875,1.029875,0.73734375,-0.57303125,-0.56965625,1.0123125,0.016449690145573716,0.01998018389044413,True
54411,148143,1,148139,4929.0,43367.0,28764.0,-0.004026,6.1e-05,0.00122,0.56,-1.3650000000000002,-4.62,0.76409375,-0.152125,-0.0649375,1.024875,0.7427812500000001,-0.571875,-0.5700625,1.00934375,0.01708253847132138,0.020558555762729545,True
54412,148144,1,148140,4930.0,43363.0,28764.0,0.0008539999999999999,0.0,-0.000793,0.31500000000000006,-1.7500000000000002,-4.777500000000001,0.77925,-0.1631875,-0.07843750000000001,1.02121875,0.7411875,-0.57084375,-0.57146875,1.0155,0.01659105621881625,0.020065192480608222,True
54413,148145,1,148141,4929.0,43361.0,28764.0,0.002806,-0.0008539999999999999,0.001098,0.1925,-1.8375000000000001,-4.585000000000001,0.7565937500000001,-0.1514375,-0.0691875,1.0396875,0.74234375,-0.56934375,-0.56484375,1.01021875,0.01700925569084441,0.02017746398244442,True
54414,148146,1,148142,4930.0,43362.0,28763.0,0.004026,-0.000976,6.1e-05,0.21000000000000002,-1.9425000000000001,-4.550000000000001,0.773375,-0.15375,-0.06509375,1.02553125,0.743625,-0.57259375,-0.5710625,1.00953125,0.01704515828737046,0.02059205823923976,True
54415,148147,1,148143,4930.0,43360.0,28766.0,0.004575,-0.0006709999999999999,-6.1e-05,0.1925,-1.9075000000000002,-4.6725,0.7711250000000001,-0.15712500000000001,-0.07009375,1.0225312500000001,0.7302500000000001,-0.5715,-0.56934375,1.0109375,0.01686404981380868,0.020320038055554497,True
54416,148148,1,148144,4930.0,43364.0,28766.0,0.002928,-0.0006709999999999999,0.0,0.14,-1.995,-4.550000000000001,0.77346875,-0.15615625,-0.06984375,1.03146875,0.74071875,-0.5714375,-0.57159375,1.00809375,0.016900974963308515,0.02041992086899125,True
54417,148149,1,148145,4932.0,43362.0,28763.0,-0.000488,0.000183,-0.002013,0.5075000000000001,-1.4700000000000002,-4.585000000000001,0.77540625,-0.15078125,-0.07090625,1.02628125,0.7409375,-0.57021875,-0.57078125,1.0175,0.01707097133597966,0.020344285959568338,True
54418,148150,1,148146,4934.0,43364.0,28766.0,-0.002989,0.00122,-0.000244,0.525,-1.3650000000000002,-4.585000000000001,0.7704375,-0.15603125,-0.07084375,1.0335,0.73759375,-0.5650625,-0.57025,1.00959375,0.016650934635317943,0.020325647887180637,True
54419,148151,1,148147,4934.0,43363.0,28766.0,-0.0055509999999999995,-0.000122,0.0015249999999999999,0.5950000000000001,-1.0675000000000001,-4.48,0.77709375,-0.1481875,-0.07100000000000001,1.0259375,0.74034375,-0.57125,-0.5710625,1.01603125,0.01721778501297248,0.020351684018548245,True
54420,148152,1,148148,4935.0,43364.0,28768.0,-0.005612,0.00061,0.00061,0.6300000000000001,-1.3475000000000001,-4.48,0.770375,-0.15553125,-0.0700625,1.02609375,0.74675,-0.5745625,-0.571625,1.0074375,0.01705142258382016,0.02041226414614418,True
54421,148153,1,148149,4936.0,43362.0,28767.0,-0.001037,0.000549,-0.000366,0.525,-1.715,-4.48,0.77353125,-0.15765625,-0.07128125,1.0335625,0.7410625000000001,-0.571375,-0.56871875,1.01040625,0.016837427697880155,0.020246782303208224,True
54422,148154,1,148150,4937.0,43365.0,28767.0,0.001037,0.000732,0.000732,0.42000000000000004,-2.0300000000000002,-4.62,0.7784375,-0.1564375,-0.0684375,1.026,0.7399687500000001,-0.5710937500000001,-0.5729375,1.01821875,0.016875775015102863,0.020530715955306523,True
54423,148155,1,148151,4938.0,43366.0,28768.0,0.002562,-6.1e-05,0.000732,0.385,-2.205,-4.62,0.7770625,-0.15790625,-0.07103125,1.0266875,0.73959375,-0.56825,-0.56753125,1.01771875,0.01670219694117408,0.02020960083239947,True
54424,148156,1,148152,4938.0,43365.0,28767.0,0.003477,-0.000366,0.00061,0.36750000000000005,-2.5025000000000004,-4.532500000000001,0.7775,-0.15809375,-0.07034375,1.0195625,0.74115625,-0.571125,-0.57221875,1.01696875,0.016809619014188402,0.0204244885293478,True
54425,148157,1,148153,4938.0,43366.0,28769.0,0.003904,6.1e-05,0.0006709999999999999,0.385,-2.6250000000000004,-4.48,0.775875,-0.1565625,-0.069625,1.02540625,0.74034375,-0.5700000000000001,-0.5693125,1.00796875,0.01682692307692308,0.020337870666914268,True
54426,148158,1,148154,4940.0,43366.0,28770.0,0.002257,-0.0008539999999999999,-0.001647,0.28,-2.7125000000000004,-4.655,0.7691875,-0.15140625,-0.07334375,1.027875,0.747125,-0.57215625,-0.5693125,1.01003125,0.017123039415802187,0.020186513155384386,True
54427,148159,1,148155,4941.0,43365.0,28769.0,0.0025009999999999998,-0.001281,0.001586,0.35000000000000003,-2.5025000000000004,-4.69,0.76965625,-0.15553125,-0.07037500000000001,1.02565625,0.7475625,-0.574125,-0.57084375,1.00946875,0.017033922876195998,0.020368399029846093,True
54428,148160,1,148156,4942.0,43363.0,28768.0,-0.00042699999999999997,-0.0015249999999999999,0.000244,0.35000000000000003,-2.6950000000000003,-4.6025,0.77796875,-0.15809375,-0.0725625,1.0304375000000001,0.7329687500000001,-0.56984375,-0.5699062500000001,1.00784375,0.016758348330969747,0.020241988102823964,True
54429,148161,1,148157,4943.0,43364.0,28768.0,-0.0008539999999999999,-0.000793,-0.001281,0.15750000000000003,-2.555,-4.550000000000001,0.7700625,-0.1529375,-0.0671875,1.02596875,0.74684375,-0.5739062500000001,-0.57278125,1.01584375,0.017130721738632827,0.020575357134227534,True
54430,148162,1,148158,4942.0,43363.0,28771.0,-0.000305,-0.0008539999999999999,0.0,0.31500000000000006,-2.1875,-4.532500000000001,0.7596875000000001,-0.1574375,-0.0691875,1.0326250000000001,0.7398125,-0.565375,-0.5693125,1.0101875,0.016606198765538892,0.02035567743297661,True
54431,148163,1,148159,4944.0,43365.0,28769.0,-0.0042699999999999995,0.001403,0.001647,0.49000000000000005,-1.7325000000000002,-4.3925,0.7758125,-0.14840625,-0.07,1.02178125,0.7405625,-0.572875,-0.5713125,1.01046875,0.017273874139676373,0.02040234928435345,True
54432,148164,1,148160,4944.0,43366.0,28772.0,-0.0017079999999999999,0.0006709999999999999,0.000793,0.35000000000000003,-1.8725000000000003,-4.2875000000000005,0.77015625,-0.15875,-0.07378125,1.03075,0.74040625,-0.5706875,-0.57071875,1.01053125,0.016765403898446066,0.020224784836625914,True
54433,148165,1,148161,4945.0,43362.0,28771.0,0.0011589999999999999,0.0013419999999999999,-0.00042699999999999997,0.31500000000000006,-2.1700000000000004,-4.4625,0.75821875,-0.15540625,-0.0701875,1.0285312500000001,0.7440625,-0.57215625,-0.570625,1.01021875,0.016960253539003118,0.02036730852389795,True
54434,148166,1,148162,4947.0,43363.0,28771.0,0.001281,0.00122,-0.001281,0.36750000000000005,-2.3275,-4.340000000000001,0.7768125,-0.15771875,-0.067,1.02578125,0.7409375,-0.57146875,-0.5715,1.0155625,0.016838635256592054,0.02053191705838064,True
54435,148167,1,148163,4947.0,43364.0,28771.0,0.0015249999999999999,-0.000122,-0.0017079999999999999,0.36750000000000005,-2.2575000000000003,-4.235,0.76409375,-0.1580625,-0.07271875,1.0313125,0.7424375,-0.57121875,-0.56759375,1.010375,0.016814642130846685,0.02014340537522117,True
54436,148168,1,148164,4949.0,43363.0,28772.0,0.001037,-0.0008539999999999999,0.000183,0.4025,-2.1175,-4.165,0.7699375,-0.1553125,-0.07290625,1.0319375,0.7436875000000001,-0.57146875,-0.5703125,1.00415625,0.016936563875531455,0.020244197138314785,True
54437,148169,1,148165,4948.0,43363.0,28770.0,0.000183,-0.000488,0.000732,0.2625,-2.1700000000000004,-4.1475,0.76990625,-0.15425,-0.06975,1.02621875,0.7406875,-0.57121875,-0.5719375,1.00171875,0.016969803339527065,0.02043744006755674,True
54438,148170,1,148166,4949.0,43362.0,28768.0,-0.000366,-0.000732,0.000305,0.22750000000000004,-2.1350000000000002,-4.2175,0.7762187500000001,-0.15762500000000002,-0.0739375,1.0258125,0.74059375,-0.5705,-0.5699062500000001,1.0144375,0.016803687348649805,0.02018602533332825,True
54439,148171,1,148167,4947.0,43360.0,28765.0,-0.000244,0.000183,0.0,0.3325,-2.24,-4.2175,0.77084375,-0.15559375,-0.0719375,1.03209375,0.751625,-0.57415625,-0.57040625,1.008375,0.01703262955365965,0.020287362973495808,True
54440,148172,1,148168,4946.0,43359.0,28761.0,0.0,-0.000305,-0.00042699999999999997,0.31500000000000006,-2.2225,-4.1475,0.7753125000000001,-0.1571875,-0.07,1.02559375,0.741,-0.57078125,-0.56875,1.02296875,0.01683274722898768,0.02030017807173747,True
54441,148173,1,148169,4942.0,43359.0,28757.0,0.0,-0.001281,0.000915,0.31500000000000006,-2.3625000000000003,-4.0075,0.767375,-0.1551875,-0.07215625,1.03259375,0.75721875,-0.57921875,-0.5710937500000001,1.00621875,0.017251616266281855,0.020305872627261457,True
54442,148174,1,148170,4938.0,43357.0,28757.0,-0.000244,-0.000244,0.00061,0.385,-2.3625000000000003,-4.0600000000000005,0.77075,-0.15575,-0.06603125,1.0190000000000001,0.73646875,-0.56759375,-0.56896875,1.022,0.016763699131096224,0.020470435903012823,True
54443,148175,1,148171,4936.0,43357.0,28754.0,0.00042699999999999997,0.00061,0.000366,0.2625,-2.415,-4.077500000000001,0.7738125,-0.15615625,-0.07100000000000001,1.01815625,0.7499375,-0.57021875,-0.5669062500000001,1.00409375,0.01685221056487338,0.020185946286989234,True
54444,148176,1,148172,4932.0,43356.0,28752.0,0.001281,0.0011589999999999999,0.000732,0.29750000000000004,-2.555,-4.095000000000001,0.7709375,-0.1555,-0.07096875,1.02321875,0.7342500000000001,-0.5700937500000001,-0.57203125,1.0186250000000001,0.01687391811437431,0.02039157833156345,True
54445,148177,1,148173,4927.0,43354.0,28749.0,0.001098,0.000793,-0.0006709999999999999,0.14,-2.4850000000000003,-4.077500000000001,0.77025,-0.15040625,-0.069875,1.0316875,0.756375,-0.57615625,-0.5749375,1.01178125,0.01732370170782911,0.020551934262294663,True
54446,148178,1,148174,4924.0,43353.0,28749.0,-0.00042699999999999997,0.00042699999999999997,0.000366,0.12250000000000001,-2.0475000000000003,-4.025,0.7772187500000001,-0.15296875000000001,-0.07228125,1.03209375,0.736125,-0.5689062500000001,-0.5668125,0.99646875,0.016929426803441852,0.02013005350205689,True
54447,148179,1,148175,4920.0,43352.0,28748.0,-0.0034159999999999998,-0.000793,-0.004392,0.45500000000000007,-2.0125,-3.8500000000000005,0.77253125,-0.15625,-0.07071875,1.0265312500000001,0.73353125,-0.5676875,-0.5721875,1.02515625,0.01674709921314328,0.020407981584871105,True
54448,148180,1,148176,4920.0,43352.0,28746.0,-0.00061,0.00122,-0.0032329999999999998,0.47250000000000003,-1.8375000000000001,-3.6925000000000003,0.76990625,-0.1565625,-0.07334375,1.02778125,0.7565937500000001,-0.5755,-0.56825,1.00534375,0.01704695733555777,0.020144139285459894,True
54449,148181,1,148177,4917.0,43349.0,28744.0,0.001952,-0.0008539999999999999,0.0053679999999999995,0.45500000000000007,-1.8900000000000001,-3.7275000000000005,0.77025,-0.15525,-0.07140625,1.03196875,0.73990625,-0.5777187500000001,-0.5765,1.00459375,0.01718909530608898,0.020551899171973226,True
54450,148182,1,148178,4915.0,43349.0,28744.0,0.000122,-0.001586,0.002623,0.10500000000000001,-1.9425000000000001,-4.0075,0.77078125,-0.155875,-0.0691875,1.0265312500000001,0.73359375,-0.5680937500000001,-0.56821875,1.01934375,0.01677862166249671,0.020312064748283797,True
54451,148183,1,148179,4914.0,43349.0,28745.0,-0.000122,-0.0025009999999999998,-0.001098,0.1925,-1.8375000000000001,-3.7625,0.76859375,-0.1546875,-0.06971875,1.0261875,0.750625,-0.574375,-0.5743125,1.0155,0.01707825733106132,0.02053338216481132,True
54452,148184,1,148180,4910.0,43350.0,28743.0,-0.000366,-0.00042699999999999997,-0.001037,0.47250000000000003,-2.0125,-3.9200000000000004,0.7604062500000001,-0.15178125,-0.07128125,1.031625,0.75084375,-0.57478125,-0.5700000000000001,1.00625,0.01721276766197054,0.020297873422873425,True
54453,148185,1,148181,4909.0,43346.0,28742.0,0.000549,0.00366,-0.0017079999999999999,0.5425000000000001,-1.7500000000000002,-4.1475,0.77740625,-0.15596875000000002,-0.0675,1.02665625,0.73390625,-0.5689062500000001,-0.56528125,1.01390625,0.016807321245731078,0.020263608828008026,True
54454,148186,1,148182,4908.0,43347.0,28741.0,-0.002196,0.002623,0.001464,0.5075000000000001,-1.5575,-4.1825,0.7703125000000001,-0.154375,-0.06965625,1.0325625,0.74534375,-0.570625,-0.5709062500000001,1.008625,0.016940961005265435,0.020400142953620203,True
54455,148187,1,148183,4906.0,43345.0,28742.0,-0.00122,0.00061,0.004026,0.31500000000000006,-1.435,-4.0425,0.77765625,-0.1585,-0.07340625,1.0269062500000001,0.739625,-0.57021875,-0.5689062500000001,1.01015625,0.016756820693751458,0.020167767948563033,True
54456,148188,1,148184,4906.0,43347.0,28741.0,-0.00122,0.001037,-0.001586,0.31500000000000006,-1.4700000000000002,-4.0425,0.7645625,-0.15696875,-0.07196875,1.0327187500000001,0.740625,-0.57034375,-0.5693125,1.01021875,0.01682414394385508,0.020242477277294592,True
54457,148189,1,148185,4904.0,43346.0,28740.0,0.001403,0.0018909999999999999,-0.000305,0.56,-1.5750000000000002,-4.0600000000000005,0.7725,-0.15371875000000002,-0.0698125,1.02046875,0.74346875,-0.57375,-0.57271875,1.01228125,0.01709268019736507,0.02046604020973463,True
54458,148190,1,148186,4905.0,43344.0,28740.0,0.002928,0.000549,-0.000305,0.45500000000000007,-1.9425000000000001,-4.1825,0.7706875,-0.154625,-0.07040625,1.02715625,0.74703125,-0.57378125,-0.570875,1.012,0.01705705140514344,0.020368373124685223,True
54459,148191,1,148187,4903.0,43344.0,28741.0,0.00244,-0.000488,-0.002257,0.36750000000000005,-1.9775000000000003,-4.095000000000001,0.77446875,-0.15590625,-0.07128125,1.02628125,0.73046875,-0.5709062500000001,-0.56859375,1.01975,0.016889893916712983,0.02024179751842736,True
54460,148192,1,148188,4905.0,43347.0,28740.0,0.0025009999999999998,-0.002196,-0.001098,0.21000000000000002,-1.995,-4.095000000000001,0.76996875,-0.15465625,-0.06759375000000001,1.032125,0.7465937500000001,-0.57303125,-0.56996875,1.0099375,0.01702577902349756,0.0204467089523669,True
54461,148193,1,148189,4903.0,43343.0,28740.0,-0.000305,-0.0011589999999999999,0.000366,0.31500000000000006,-1.8200000000000003,-4.1825,0.7720312500000001,-0.15515625,-0.07034375,1.0265,0.74040625,-0.5730625,-0.5713125,1.0144375,0.01700668160511129,0.020388359392686083,True
54462,148194,1,148190,4904.0,43346.0,28742.0,-0.000244,0.000183,0.00042699999999999997,0.42000000000000004,-1.7325000000000002,-4.2525,0.77034375,-0.15471875000000002,-0.06984375,1.02646875,0.738375,-0.57128125,-0.57028125,1.0110937500000001,0.01695322664543592,0.02036759347229694,True
54463,148195,1,148191,4906.0,43346.0,28743.0,-0.000732,-0.000122,0.000549,0.43750000000000006,-1.5575,-4.130000000000001,0.76978125,-0.15525,-0.06953125,1.026375,0.7434375,-0.570625,-0.57053125,0.99971875,0.01690534937552464,0.020390279514204645,True
54464,148196,1,148192,4905.0,43347.0,28742.0,-0.001037,-0.000305,-0.000244,0.43750000000000006,-1.6625,-4.077500000000001,0.76284375,-0.15459375,-0.06921875,1.02628125,0.73446875,-0.573125,-0.570375,1.009625,0.017032072640333698,0.020396768466089753,True
54465,148197,1,148193,4905.0,43342.0,28740.0,-0.00183,0.0,-0.000549,0.4025,-1.5925000000000002,-4.0075,0.7786875,-0.1609375,-0.0744375,1.037,0.74021875,-0.56978125,-0.56903125,1.0008125,0.01664010541404393,0.02013077947466895,True
54466,148198,1,148194,4903.0,43341.0,28742.0,-0.0013419999999999999,0.0018909999999999999,6.1e-05,0.385,-1.6625,-3.9025000000000003,0.78165625,-0.15809375,-0.07003125,1.02478125,0.74075,-0.5698125,-0.56946875,1.017625,0.016757097759700038,0.020327566097659316,True
54467,148199,1,148195,4905.0,43345.0,28742.0,-0.000122,0.002196,0.000976,0.49000000000000005,-1.6275000000000002,-3.9200000000000004,0.76803125,-0.15978125,-0.07371875,1.0360625,0.7409687500000001,-0.5720625,-0.56628125,1.00446875,0.016778455207005924,0.02005034848324876,True
54468,148200,1,148196,4907.0,43347.0,28744.0,0.001098,0.00061,0.002562,0.42000000000000004,-1.6275000000000002,-3.9375000000000004,0.76875,-0.15446875000000002,-0.07003125,1.03659375,0.74821875,-0.57365625,-0.5696875,1.0110000000000001,0.017058409857100526,0.020336288363455985,True
54469,148201,1,148197,4907.0,43344.0,28743.0,0.0034159999999999998,-0.000366,-0.0008539999999999999,0.1925,-1.715,-3.9725000000000006,0.77296875,-0.153875,-0.06815625,1.037375,0.7455625,-0.57409375,-0.56959375,1.0108125000000001,0.01710007108603954,0.02040886410667657,True
54470,148202,1,148198,4905.0,43345.0,28743.0,0.0013419999999999999,-0.000244,-0.000976,0.14,-1.6800000000000002,-4.0075,0.76678125,-0.15334375,-0.07228125,1.02946875,0.7508125,-0.5724375,-0.56775,1.01140625,0.0170554406741293,0.020167445126232558,True
54471,148203,1,148199,4906.0,43345.0,28743.0,6.1e-05,-0.000366,0.000793,0.31500000000000006,-1.2775,-3.9725000000000006,0.7679375,-0.15328125,-0.0725,1.03103125,0.7469375,-0.57121875,-0.56896875,1.0096875,0.01700922954829011,0.020207146463971957,True
54472,148204,1,148200,4905.0,43348.0,28745.0,-0.002257,-0.0018909999999999999,0.00183,0.385,-1.1725,-4.0600000000000005,0.76746875,-0.1545625,-0.073375,1.015125,0.7485937500000001,-0.57034375,-0.5686875,1.01653125,0.016922077046642867,0.02016031584918812,True
54473,148205,1,148201,4904.0,43348.0,28744.0,-0.003965,-0.002074,-0.001952,0.29750000000000004,-1.2950000000000002,-4.2,0.76765625,-0.15637500000000001,-0.07100000000000001,1.03828125,0.745,-0.571375,-0.56903125,1.01040625,0.016889571706915057,0.02027069138104499,True
54474,148206,1,148202,4905.0,43348.0,28747.0,-0.000549,-0.000122,-0.0026839999999999998,0.28,-1.4525000000000001,-4.2,0.77190625,-0.15415625,-0.06825,1.02209375,0.74625,-0.57115625,-0.5690000000000001,1.01,0.01697111832089709,0.02038137490333347,True
54475,148207,1,148203,4906.0,43349.0,28747.0,0.001769,0.000976,0.0006709999999999999,0.35000000000000003,-1.6800000000000002,-4.2175,0.78340625,-0.15709375,-0.06746875000000001,1.0265,0.7409375,-0.57021875,-0.56915625,1.0154375,0.016814054616424608,0.020419402884460067,True
54476,148208,1,148204,4905.0,43348.0,28747.0,0.001037,0.001281,0.00061,0.28,-1.8725000000000003,-4.375,0.76803125,-0.155625,-0.06965625,1.02396875,0.7455,-0.5733125,-0.5715,1.008125,0.016997606651524902,0.020423814174958796,True
54477,148209,1,148205,4906.0,43347.0,28747.0,0.000305,0.000488,-6.1e-05,0.3325,-1.6800000000000002,-4.165,0.7671875,-0.15375,-0.0680625,1.02378125,0.74515625,-0.57053125,-0.5690625,1.01046875,0.016962647073412385,0.020391498454611363,True
54478,148210,1,148206,4905.0,43349.0,28748.0,-0.000488,0.000244,-0.00042699999999999997,0.43750000000000006,-1.61,-4.0075,0.77696875,-0.1525,-0.0706875,1.0355625,0.7418125,-0.569625,-0.5690000000000001,1.0095,0.016977263592749182,0.02028216451626033,True
54479,148211,1,148207,4908.0,43349.0,28748.0,-0.000366,0.001586,0.000366,0.45500000000000007,-1.5050000000000001,-3.99,0.77590625,-0.1560625,-0.07021875,1.01815625,0.74434375,-0.570875,-0.5699375,1.0131875000000001,0.016882284411930792,0.02033862520000305,True
54480,148212,1,148208,4906.0,43348.0,28748.0,-0.0013419999999999999,-0.000305,0.0006709999999999999,0.43750000000000006,-1.5750000000000002,-3.9200000000000004,0.76959375,-0.15156250000000002,-0.07015625,1.02903125,0.74528125,-0.57171875,-0.572125,1.01053125,0.017099180333081096,0.02042838175371483,True
54481,148213,1,148209,4907.0,43350.0,28749.0,-0.002013,-0.0018909999999999999,-0.000732,0.31500000000000006,-1.4875,-3.8325000000000005,0.77790625,-0.1565,-0.07309375,1.03296875,0.74153125,-0.5703125,-0.5690625,1.0101875,0.016841971383147854,0.020186718561198663,True
54482,148214,1,148210,4907.0,43350.0,28750.0,-0.0023179999999999997,-0.00183,-0.000305,0.49000000000000005,-1.4700000000000002,-3.9200000000000004,0.77740625,-0.15878125,-0.07365625,1.03146875,0.7415625,-0.5700000000000001,-0.5695,1.0105625,0.016736619861619863,0.02018127149514642,True
54483,148215,1,148211,4909.0,43351.0,28750.0,0.000976,-0.000183,0.000122,0.49000000000000005,-1.54,-3.9725000000000006,0.7734375,-0.15478125,-0.06471875,1.02615625,0.74,-0.567375,-0.57965625,1.03846875,0.016794376688596156,0.020949743754044566,True
54484,148216,1,148212,4908.0,43348.0,28751.0,0.002379,0.000183,0.0,0.2625,-1.7675,-4.077500000000001,0.76971875,-0.15446875000000002,-0.069125,1.01996875,0.77034375,-0.5813125,-0.57715625,1.0250625,0.017364563019163438,0.020670871960624004,True
54485,148217,1,148213,4909.0,43349.0,28751.0,0.001403,-0.0018909999999999999,-0.00122,0.24500000000000002,-1.6275000000000002,-4.130000000000001,0.77490625,-0.15628125,-0.0703125,1.03159375,0.7479375,-0.5748125000000001,-0.5699062500000001,1.00159375,0.017030903084204612,0.020333563543816945,True
54486,148218,1,148214,4911.0,43351.0,28755.0,0.000183,0.000793,-0.000183,0.43750000000000006,-1.3825,-4.077500000000001,0.77575,-0.1565625,-0.07340625,1.02584375,0.7341875,-0.57315625,-0.5645625,0.9996875000000001,0.01695320478011448,0.019994504278266708,True
54487,148219,1,148215,4911.0,43350.0,28754.0,-0.00061,0.001281,0.00042699999999999997,0.45500000000000007,-1.3125000000000002,-4.095000000000001,0.76996875,-0.1545625,-0.06978125,1.02609375,0.72471875,-0.5725,-0.57265625,1.032125,0.01700834265947706,0.020464820525863986,True
54488,148220,1,148216,4911.0,43351.0,28756.0,-0.002196,0.001403,0.000122,0.45500000000000007,-1.155,-4.1475,0.7708125,-0.1575625,-0.0674375,1.03259375,0.7664062500000001,-0.57415625,-0.56740625,0.999375,0.016952514900689622,0.02035089683104011,True
54489,148221,1,148217,4912.0,43353.0,28758.0,-0.002745,0.0006709999999999999,0.000793,0.49000000000000005,-1.12,-4.095000000000001,0.76475,-0.154625,-0.07015625,1.02621875,0.728,-0.57478125,-0.5743125,1.0303125,0.017097049439656762,0.020515579021793587,True
54490,148222,1,148218,4914.0,43352.0,28757.0,-0.00183,-0.00061,-0.000793,0.4025,-1.2775,-4.095000000000001,0.76946875,-0.1543125,-0.07121875,1.03196875,0.76609375,-0.5731875,-0.571625,0.9979375,0.0170460181447767,0.020365207836274567,True
54491,148223,1,148219,4912.0,43352.0,28757.0,-0.0015249999999999999,-0.000488,-0.000549,0.36750000000000005,-1.3825,-3.99,0.7761875,-0.1566875,-0.0729375,1.03303125,0.7344375,-0.5689375,-0.5613125,0.993375,0.016779317379923327,0.01988391296271321,True
54492,148224,1,148220,4914.0,43353.0,28756.0,0.0017079999999999999,0.000122,0.001037,0.36750000000000005,-1.6450000000000002,-4.077500000000001,0.77575,-0.15825,-0.0733125,1.027875,0.7274375000000001,-0.56584375,-0.55865625,0.99303125,0.016591888890443666,0.019762634610759697,True
54493,148225,1,148221,4915.0,43353.0,28758.0,0.002562,0.000488,0.00061,0.31500000000000006,-1.8025000000000002,-4.1475,0.77696875,-0.158,-0.0721875,1.0304375000000001,0.72928125,-0.5656875,-0.563875,0.998375,0.016595810721763842,0.020016691177593113,True
54494,148226,1,148222,4916.0,43353.0,28760.0,0.003721,-0.000488,-0.000244,0.22750000000000004,-1.9600000000000002,-4.1825,0.7701875,-0.15515625,-0.0704375,1.0263125,0.7426875000000001,-0.57184375,-0.5718125000000001,1.0179375,0.01695792567458435,0.020404477691663977,True
54495,148227,1,148223,4918.0,43354.0,28759.0,0.003111,0.0006709999999999999,-0.000244,0.29750000000000004,-1.8200000000000003,-4.165,0.77,-0.1545625,-0.06940625,1.0265312500000001,0.75496875,-0.57721875,-0.569625,1.0149375,0.017197074017986678,0.020359234217046458,True
54496,148228,1,148224,4920.0,43354.0,28759.0,0.000976,0.00061,0.0,0.31500000000000006,-1.7500000000000002,-4.1475,0.7710312500000001,-0.15403125,-0.06940625,1.0308125000000001,0.74625,-0.5758125000000001,-0.5688125,1.00590625,0.01716245393717909,0.020326837123283842,True
54497,148229,1,148225,4920.0,43355.0,28761.0,-0.000305,0.00042699999999999997,0.000915,0.43750000000000006,-1.3825,-4.095000000000001,0.77671875,-0.15840625,-0.07265625,1.0318125,0.73703125,-0.5689375,-0.56978125,1.017625,0.016709361159797813,0.020233187871788644,True
54498,148230,1,148226,4922.0,43355.0,28760.0,-0.002928,-0.00042699999999999997,0.000549,0.35000000000000003,-1.1900000000000002,-4.1825,0.77253125,-0.15578125,-0.069625,1.0265625,0.74240625,-0.57259375,-0.569875,1.0188125000000001,0.0169624950561029,0.020360298943319817,True
54499,148231,1,148227,4922.0,43356.0,28763.0,-0.005307,-0.001037,-0.001403,0.2625,-1.1375000000000002,-4.130000000000001,0.7704375,-0.15271875000000001,-0.06871875,1.02659375,0.7371875,-0.57228125,-0.5700937500000001,1.019875,0.01707462549900612,0.020405905044623612,True
54500,148232,1,148228,4923.0,43359.0,28764.0,-0.002989,-0.000976,6.1e-05,0.4025,-1.2950000000000002,-3.99,0.77053125,-0.15453125,-0.06925,1.01940625,0.7495,-0.57378125,-0.5730625,1.01115625,0.017060866446835486,0.020502633727481057,True
54501,148233,1,148229,4924.0,43359.0,28766.0,0.0008539999999999999,0.000549,0.001098,0.36750000000000005,-1.5050000000000001,-4.1475,0.770875,-0.15446875000000002,-0.069,1.0260625,0.74125,-0.57015625,-0.56259375,1.0110937500000001,0.016918390578000497,0.020095343147545238,True
54502,148234,1,148230,4924.0,43358.0,28765.0,0.002562,0.002257,0.00183,0.36750000000000005,-1.5225000000000002,-4.2175,0.7755625,-0.15596875000000002,-0.07025,1.02615625,0.7426875000000001,-0.5723125,-0.571125,1.01784375,0.01694361285695028,0.020384699520270236,True
54503,148235,1,148231,4927.0,43359.0,28765.0,0.003111,0.0006709999999999999,-0.000122,0.31500000000000006,-1.6275000000000002,-4.112500000000001,0.7709375,-0.15459375,-0.0694375,1.02234375,0.74740625,-0.56975,-0.56896875,1.0105625,0.01689704819951363,0.020331795570377776,True
54504,148236,1,148232,4927.0,43362.0,28766.0,0.002806,-0.000366,-0.00183,0.22750000000000004,-1.6275000000000002,-4.0425,0.7704375,-0.15403125,-0.06896875,1.01515625,0.74025,-0.5715625,-0.57296875,1.0165,0.016992458253316207,0.020510342284140982,True
54505,148237,1,148233,4928.0,43357.0,28767.0,0.0035989999999999998,0.000244,-0.0017079999999999999,0.4025,-1.8200000000000003,-3.9725000000000006,0.7696875,-0.15425,-0.06765625,1.02603125,0.74684375,-0.5740625,-0.5719375,1.01440625,0.017083561173493394,0.02052264905850424,True
54506,148238,1,148234,4930.0,43358.0,28768.0,0.001464,0.000915,-0.000732,0.3325,-1.6625,-4.0075,0.7701875,-0.1545,-0.0700625,1.0362500000000001,0.74184375,-0.56559375,-0.56796875,1.0108125000000001,0.016734533436628212,0.020266480109390403,True
54507,148239,1,148235,4932.0,43362.0,28770.0,-0.000549,-0.000305,0.001769,0.28,-1.2950000000000002,-3.9725000000000006,0.78371875,-0.1591875,-0.07471875,1.04228125,0.7406875,-0.5733125,-0.570875,1.01659375,0.016852632301811162,0.020192860449617687,True
54508,148240,1,148236,4933.0,43359.0,28767.0,-0.0035989999999999998,-0.0008539999999999999,0.002562,0.3325,-0.9975,-3.8675,0.7761250000000001,-0.14971875,-0.073875,1.02184375,0.7475625,-0.57340625,-0.5709062500000001,1.018875,0.0172417081982682,0.020228445989858432,True
54509,148241,1,148237,4933.0,43359.0,28765.0,-0.006161,-0.0013419999999999999,0.002745,0.47250000000000003,-0.8925000000000001,-3.8675,0.75325,-0.15296875000000001,-0.06690625,1.02475,0.746,-0.570375,-0.5690000000000001,1.00303125,0.016988192080910448,0.02043606780902764,True
54510,148242,1,148238,4933.0,43358.0,28765.0,-0.0034159999999999998,0.000183,-0.0015249999999999999,0.4025,-1.12,-3.8850000000000002,0.78025,-0.1556875,-0.07471875,1.03659375,0.74059375,-0.569375,-0.568875,1.012625,0.01683752639210399,0.020113100416685747,True
54511,148243,1,148239,4932.0,43355.0,28759.0,-0.001464,0.000305,-0.001037,0.49000000000000005,-1.3475000000000001,-4.0075,0.779,-0.159,-0.07278125,1.0379375,0.7411875,-0.56928125,-0.5689062500000001,1.01040625,0.016698952070484354,0.020193206606419444,True
54512,148244,1,148240,4930.0,43358.0,28759.0,0.0,-0.000732,-0.000976,0.12250000000000001,-1.6625,-4.0075,0.7876562500000001,-0.16284375,-0.07565625000000001,1.04146875,0.74225,-0.5675625,-0.5706875,1.0169062500000001,0.016473703893090736,0.02014722827759704,True
54513,148245,1,148241,4926.0,43353.0,28754.0,0.003538,-0.000488,0.00061,0.12250000000000001,-1.9775000000000003,-3.9725000000000006,0.7806875,-0.16303125000000002,-0.07721875,1.0425,0.7466875000000001,-0.5710625,-0.5696875,1.01715625,0.016606170368090513,0.020043753100237843,True
54514,148246,1,148242,4922.0,43354.0,28750.0,0.004697,-0.000183,0.000366,0.15750000000000003,-2.1700000000000004,-4.0600000000000005,0.78365625,-0.16359375,-0.0743125,1.03646875,0.7424375,-0.57340625,-0.5699062500000001,1.01378125,0.01667707341142419,0.02017076275982942,True
54515,148247,1,148243,4920.0,43351.0,28747.0,0.0040869999999999995,0.0008539999999999999,-0.000549,0.2625,-2.0300000000000002,-4.1825,0.788,-0.1625,-0.07575,1.04334375,0.74846875,-0.57196875,-0.56859375,1.01415625,0.016664059529214566,0.020059908801251598,True
54516,148248,1,148244,4916.0,43350.0,28745.0,0.0025009999999999998,0.0011589999999999999,-0.00061,0.24500000000000002,-1.8900000000000001,-4.077500000000001,0.7771250000000001,-0.16325,-0.07621875,1.0347187500000001,0.7476875000000001,-0.57340625,-0.57228125,1.01696875,0.01669106211109825,0.020187889555431486,True
54517,148249,1,148245,4911.0,43347.0,28744.0,0.000549,0.0008539999999999999,-0.000549,0.36750000000000005,-1.6975000000000002,-4.112500000000001,0.7897500000000001,-0.16190625,-0.07440625000000001,1.04325,0.749125,-0.57240625,-0.5715625,1.00878125,0.01670573064044145,0.020232992916099656,True
54518,148250,1,148246,4908.0,43350.0,28741.0,-0.003294,-0.00042699999999999997,0.000244,0.3325,-1.4525000000000001,-4.0600000000000005,0.78690625,-0.1621875,-0.07603125,1.03334375,0.74809375,-0.57215625,-0.56984375,1.01034375,0.01668428060724219,0.020098316661049175,True
54519,148251,1,148247,4905.0,43346.0,28738.0,-0.0030499999999999998,-0.0006709999999999999,0.000122,0.36750000000000005,-1.1900000000000002,-3.9725000000000006,0.7754375,-0.15003125,-0.066375,1.0204375,0.7406875,-0.56940625,-0.56903125,1.00978125,0.017068992051853103,0.020458936491441846,True
54520,148252,1,148248,4900.0,43347.0,28740.0,-0.0037819999999999998,-0.000305,0.000122,0.3325,-1.0675000000000001,-4.0075,0.7663125000000001,-0.15709375,-0.072125,1.0340625,0.743375,-0.5725,-0.570875,1.0174375,0.016905331162885336,0.02029842242085396,True
54521,148253,1,148249,4899.0,43347.0,28736.0,-0.003721,0.0,0.000183,0.35000000000000003,-1.0675000000000001,-4.112500000000001,0.7775,-0.1586875,-0.07128125,1.02953125,0.7479687500000001,-0.57209375,-0.5675625,1.0105625,0.016824217513007004,0.02020067110849926,True
54522,148254,1,148250,4895.0,43346.0,28734.0,-0.0015249999999999999,0.00042699999999999997,-0.00042699999999999997,0.385,-1.2775,-4.1475,0.7735625,-0.15415625,-0.069375,1.0273125,0.7407812500000001,-0.56984375,-0.56903125,1.0109375,0.016918605760364268,0.02033683155496821,True
54523,148255,1,148251,4893.0,43344.0,28736.0,0.000244,6.1e-05,-6.1e-05,0.4025,-1.5225000000000002,-4.2525,0.7635000000000001,-0.14709375,-0.0694375,1.02571875,0.7411875,-0.5718125000000001,-0.57253125,1.0171875,0.01728479533204968,0.020473826846796665,True
54524,148256,1,148252,4890.0,43342.0,28732.0,0.002745,-0.000183,-6.1e-05,0.35000000000000003,-1.8550000000000002,-4.2,0.77090625,-0.158,-0.07,1.02721875,0.7490625,-0.5706875,-0.5700937500000001,1.0186875,0.01679592807486563,0.020353758316449238,True
54525,148257,1,148253,4889.0,43342.0,28730.0,0.004331,0.000183,-0.001952,0.14,-2.0125,-4.41,0.7700312500000001,-0.1550625,-0.0699375,1.0259375,0.74934375,-0.57225,-0.57165625,1.01078125,0.016977993468241616,0.02041859713872564,True
54526,148258,1,148254,4885.0,43339.0,28726.0,0.0042699999999999995,0.000183,-0.002623,0.17500000000000002,-1.9250000000000003,-4.305000000000001,0.7758125,-0.15159375,-0.069375,1.03015625,0.7351562500000001,-0.569875,-0.56759375,1.0106875,0.01702415050951623,0.020279509465594283,True
54527,148259,1,148255,4885.0,43336.0,28729.0,0.002623,0.000366,0.000915,0.22750000000000004,-1.5925000000000002,-4.322500000000001,0.7764375,-0.15434375,-0.07159375,1.03284375,0.73965625,-0.56925,-0.5649375,1.014875,0.016887216744507872,0.020083248736130512,True
54528,148260,1,148256,4883.0,43335.0,28729.0,-0.00122,-0.000244,0.0030499999999999998,0.21000000000000002,-1.3475000000000001,-4.2175,0.777375,-0.15603125,-0.07040625,1.02996875,0.7475625,-0.57084375,-0.5718125000000001,1.0171875,0.016882305883370405,0.020405749474117958,True
54529,148261,1,148257,4883.0,43337.0,28727.0,-0.003538,-0.000488,0.000305,0.35000000000000003,-1.1375000000000002,-4.2,0.77096875,-0.15275,-0.07034375,1.02678125,0.746625,-0.567375,-0.571875,1.01921875,0.016877057479685965,0.020410784687778204,True
54530,148262,1,148258,4881.0,43336.0,28728.0,-0.003477,-0.0008539999999999999,-0.000244,0.525,-1.1025,-3.9025000000000003,0.77178125,-0.15475,-0.069625,1.03175,0.749125,-0.5725625,-0.57209375,1.0185,0.017003212424426633,0.02044875602023128,True
54531,148263,1,148259,4880.0,43334.0,28728.0,-0.002806,0.0006709999999999999,-0.0006709999999999999,0.5425000000000001,-1.2425000000000002,-3.9725000000000006,0.77728125,-0.15812500000000002,-0.07146875,1.02615625,0.74740625,-0.572625,-0.57165625,1.01815625,0.016868364694451653,0.020356279402207574,True
54532,148264,1,148260,4881.0,43333.0,28725.0,-0.00042699999999999997,0.001037,0.0,0.35000000000000003,-1.3475000000000001,-4.0075,0.76996875,-0.15471875000000002,-0.06571875,1.0284375000000001,0.74825,-0.5701875,-0.569125,1.0106875,0.016909465994103624,0.020489384542591565,True
54533,148265,1,148261,4878.0,43330.0,28723.0,-0.000549,0.000305,0.0011589999999999999,0.35000000000000003,-1.4875,-4.0075,0.77528125,-0.15803125,-0.0715625,1.024,0.74153125,-0.5700937500000001,-0.56840625,1.01125,0.01677089652944446,0.020222872617144224,True
54534,148266,1,148262,4879.0,43331.0,28724.0,6.1e-05,-0.000183,0.0017079999999999999,0.22750000000000004,-1.54,-4.025,0.76978125,-0.15415625,-0.06971875,1.02578125,0.73875,-0.56765625,-0.5693125,1.00996875,0.01683107235758397,0.02033405493132948,True
54535,148267,1,148263,4878.0,43334.0,28726.0,0.004209,0.001403,-0.001769,0.2625,-1.8725000000000003,-4.095000000000001,0.7704375,-0.158,-0.07309375,1.0341875,0.741125,-0.56778125,-0.56825,1.01259375,0.0166796197764094,0.02015431502040235,True
54536,148268,1,148264,4880.0,43330.0,28722.0,0.0050019999999999995,0.000183,-0.000488,0.31500000000000006,-1.8725000000000003,-4.095000000000001,0.76909375,-0.15640625,-0.07334375,1.033875,0.7414375,-0.56825,-0.5699062500000001,1.0147187500000001,0.016763251350828817,0.020210191074701397,True
54537,148269,1,148265,4878.0,43329.0,28723.0,0.003355,0.000183,-0.001281,0.24500000000000002,-1.7500000000000002,-4.1825,0.76634375,-0.15503125,-0.0695,1.02675,0.74803125,-0.57046875,-0.5710000000000001,1.01740625,0.016908000585051923,0.020410239713483377,True
54538,148270,1,148266,4878.0,43329.0,28722.0,0.000732,-0.000732,-0.0013419999999999999,0.1925,-1.5575,-4.095000000000001,0.76946875,-0.15446875000000002,-0.0655,1.02675,0.7469375,-0.56975,-0.5628125,1.00784375,0.016902135756367075,0.020246561748578265,True
54539,148271,1,148267,4879.0,43327.0,28722.0,-0.002562,-0.000793,0.000305,0.36750000000000005,-1.2775,-4.0425,0.76990625,-0.15428125,-0.06996875,1.02496875,0.7409687500000001,-0.57015625,-0.568375,1.01053125,0.016926021787101984,0.020286496359649343,True
54540,148272,1,148268,4879.0,43331.0,28723.0,-0.004514,-0.000488,0.001037,0.45500000000000007,-1.1725,-3.9375000000000004,0.76928125,-0.1534375,-0.0723125,1.0309375,0.7411875,-0.570875,-0.5696875,1.0108125000000001,0.016989118214145813,0.020243440214695447,True
54541,148273,1,148269,4878.0,43330.0,28722.0,-0.002562,0.000122,0.000122,0.43750000000000006,-1.1375000000000002,-3.9025000000000003,0.77565625,-0.1565625,-0.0706875,1.031125,0.7332500000000001,-0.56915625,-0.56728125,1.011125,0.016793159105738524,0.020213622539124062,True
54542,148274,1,148270,4878.0,43331.0,28722.0,-0.0023179999999999997,-0.000488,0.000366,0.4025,-1.3650000000000002,-3.8675,0.7750312500000001,-0.15490625,-0.06978125,1.0287187500000001,0.74503125,-0.57234375,-0.5690937500000001,1.01475,0.016988102732365527,0.020322788666146875,True
54543,148275,1,148271,4879.0,43331.0,28721.0,-0.000305,-6.1e-05,0.000366,0.3325,-1.61,-3.8675,0.7701250000000001,-0.1544375,-0.07078125,1.0261875,0.74615625,-0.5730000000000001,-0.56975,1.01778125,0.01703343100150572,0.020308255069750404,True
54544,148276,1,148272,4877.0,43329.0,28720.0,0.003904,0.001098,-0.000305,0.2625,-1.8375000000000001,-3.8325000000000005,0.77009375,-0.15378125,-0.06925,1.02709375,0.7495937500000001,-0.57325,-0.56915625,1.0106875,0.01707013724273346,0.020346903447284643,True
54545,148277,1,148273,4877.0,43328.0,28719.0,0.0037819999999999998,0.000793,-6.1e-05,0.3325,-1.9775000000000003,-4.0600000000000005,0.76978125,-0.154125,-0.06909375,1.02953125,0.74115625,-0.56971875,-0.5686875,1.0100625,0.016914876162349234,0.02033457220700129,True
54546,148278,1,148274,4878.0,43327.0,28718.0,0.002928,0.00061,0.00042699999999999997,0.31500000000000006,-1.8900000000000001,-4.130000000000001,0.77346875,-0.156125,-0.06975,1.02678125,0.74075,-0.5691875,-0.57371875,1.0210000000000001,0.016812216521201604,0.02050844461626306,True
54547,148279,1,148275,4878.0,43325.0,28717.0,0.0015249999999999999,0.000549,6.1e-05,0.45500000000000007,-1.7325000000000002,-4.0600000000000005,0.76984375,-0.1456875,-0.07134375,1.0301875,0.74103125,-0.56984375,-0.5683125,1.0088125000000001,0.017263286421998512,0.020228037639947797,True
54548,148280,1,148276,4878.0,43325.0,28719.0,-0.001037,-0.000244,-0.000183,0.4025,-1.4875,-4.0425,0.7751875,-0.15578125,-0.06978125,1.0256875,0.73840625,-0.57071875,-0.57075,1.02196875,0.016887479125941324,0.02038882614490807,True
54549,148281,1,148277,4879.0,43326.0,28718.0,-0.003843,-0.000366,-6.1e-05,0.42000000000000004,-1.2425000000000002,-3.9200000000000004,0.7702187500000001,-0.15159375,-0.0715625,1.03996875,0.754,-0.56725,-0.5676875,1.0075625,0.016919119966622233,0.020194208347855288,True
54550,148282,1,148278,4879.0,43327.0,28720.0,-0.003843,-0.000122,0.000366,0.43750000000000006,-1.3125000000000002,-3.8675,0.7831250000000001,-0.15440625,-0.07059375,1.02659375,0.73828125,-0.57184375,-0.57028125,1.011875,0.0169884484146616,0.02033706879118447,True
54551,148283,1,148279,4879.0,43327.0,28719.0,-0.001403,-0.001586,0.000183,0.385,-1.3825,-3.7975000000000003,0.75990625,-0.15240625,-0.07484375,1.057,0.73803125,-0.56959375,-0.5669062500000001,1.00815625,0.016979828980688786,0.020029485804709337,True
54552,148284,1,148280,4881.0,43324.0,28718.0,0.00042699999999999997,-0.000732,-0.000183,0.29750000000000004,-1.6800000000000002,-3.9200000000000004,0.7765625,-0.15059375,-0.07025,1.039875,0.75296875,-0.57265625,-0.56840625,1.00878125,0.0171761040282326,0.02027629488583534,True
54553,148285,1,148281,4880.0,43327.0,28720.0,0.00244,-0.000183,-0.000732,0.21000000000000002,-1.8900000000000001,-3.9025000000000003,0.7625937500000001,-0.150125,-0.06378125,1.0421875,0.75503125,-0.56971875,-0.5623125,1.00853125,0.017077678188725708,0.02029659259485441,True
54554,148286,1,148282,4880.0,43327.0,28720.0,0.003538,0.000183,-0.00042699999999999997,0.22750000000000004,-2.0825,-3.9725000000000006,0.795875,-0.160125,-0.068,1.01475,0.7426875000000001,-0.5656875,-0.5740625,1.0085625,0.016509307952403126,0.020593359360097666,True
54555,148287,1,148283,4881.0,43327.0,28721.0,0.002806,0.000305,-0.000244,0.28,-2.0825,-3.9025000000000003,0.78121875,-0.1673125,-0.07150000000000001,1.01553125,0.7387812500000001,-0.568875,-0.573625,1.0187187500000001,0.016344358461671527,0.020433493226986253,True
54556,148288,1,148284,4882.0,43327.0,28721.0,0.0017079999999999999,0.000122,0.000305,0.3325,-1.9600000000000002,-3.9725000000000006,0.7689375,-0.1621875,-0.0758125,1.00478125,0.7379687500000001,-0.56828125,-0.569625,1.0226250000000001,0.016529188422572293,0.020098495601784727,True
54557,148289,1,148285,4882.0,43326.0,28721.0,0.00061,0.000732,0.000366,0.17500000000000002,-1.9425000000000001,-3.8500000000000005,0.75725,-0.16259375,-0.08034375,1.0359375,0.73765625,-0.569125,-0.568375,1.02,0.016546427681083473,0.0198642055080973,True
54558,148290,1,148286,4884.0,43327.0,28719.0,-0.00183,0.0008539999999999999,0.000488,0.385,-1.6975000000000002,-3.7450000000000006,0.76209375,-0.14975,-0.07028125,1.04325,0.7533125,-0.57021875,-0.56696875,1.00228125,0.01711294287927331,0.02021769576273019,True
54559,148291,1,148287,4884.0,43328.0,28717.0,-0.002074,0.00122,0.0008539999999999999,0.56,-1.4175000000000002,-3.5525,0.7924375,-0.16046875,-0.06653125,1.0155,0.74175,-0.57053125,-0.57078125,1.0169062500000001,0.016689199587412263,0.020522342975968662,True
54560,148292,1,148288,4888.0,43326.0,28721.0,-0.0017079999999999999,-0.000366,0.000244,0.4025,-1.33,-3.5700000000000003,0.7568125,-0.14640625000000002,-0.06671875000000001,1.027375,0.73265625,-0.5690625,-0.56684375,1.009375,0.017202782971470727,0.020357722998095754,True
54561,148293,1,148289,4886.0,43326.0,28722.0,-0.0013419999999999999,-0.001403,0.00061,0.1925,-1.3475000000000001,-3.5175000000000005,0.7801250000000001,-0.16303125000000002,-0.07384375,1.01621875,0.741,-0.56875,-0.57121875,1.017125,0.01651360976850674,0.020242178666859983,True
54562,148294,1,148290,4889.0,43327.0,28720.0,-0.0006709999999999999,-0.000366,-0.001403,0.1925,-1.33,-3.5700000000000003,0.75725,-0.14975,-0.06884375,1.0416875,0.74171875,-0.5690000000000001,-0.5638125,1.01053125,0.017064186576580247,0.02015032275629038,True
54563,148295,1,148291,4888.0,43325.0,28721.0,0.00061,-0.002013,-0.0013419999999999999,0.29750000000000004,-1.3650000000000002,-3.5700000000000003,0.78290625,-0.15771875,-0.066875,1.01896875,0.7428750000000001,-0.57184375,-0.57075,1.00865625,0.016853639645987087,0.020507107027665006,True
54564,148296,1,148292,4887.0,43324.0,28721.0,0.002196,6.1e-05,-0.00042699999999999997,0.31500000000000006,-1.6275000000000002,-3.7800000000000002,0.7686875,-0.15540625,-0.067,1.02521875,0.7415625,-0.56975,-0.5681875,1.011125,0.01686397907996622,0.020399856521772307,True
54565,148297,1,148293,4890.0,43326.0,28723.0,0.000183,0.0008539999999999999,-0.000183,0.4025,-1.54,-3.8850000000000002,0.7671875,-0.15375,-0.07200000000000001,1.02503125,0.7479375,-0.57234375,-0.56840625,1.01040625,0.01703515766582095,0.020205065194247186,True
54566,148298,1,148294,4890.0,43325.0,28721.0,0.000366,0.000122,6.1e-05,0.3325,-1.4000000000000001,-3.99,0.7706875,-0.154875,-0.0695625,1.02659375,0.74103125,-0.5700000000000001,-0.57028125,1.010375,0.016895604395604398,0.02037904022771412,True
54567,148299,1,148295,4889.0,43329.0,28722.0,-0.001281,0.000793,0.0,0.28,-1.3125000000000002,-4.0425,0.77728125,-0.14996875,-0.07087500000000001,1.02615625,0.74146875,-0.56996875,-0.568125,1.0175,0.01709403883551948,0.02023963977715027,True
54568,148300,1,148296,4892.0,43324.0,28725.0,-0.001586,0.00042699999999999997,0.000244,0.385,-1.3475000000000001,-3.9725000000000006,0.77046875,-0.15375,-0.07153125,1.03259375,0.7487812500000001,-0.5700000000000001,-0.5690625,1.01115625,0.016941391941391944,0.020250314801388943,True
54569,148301,1,148297,4893.0,43328.0,28726.0,-0.001098,0.000366,0.00122,0.45500000000000007,-1.3125000000000002,-4.165,0.7669375,-0.15459375,-0.06890625,1.01528125,0.74059375,-0.5724375,-0.5709062500000001,1.017125,0.017004570669881654,0.020430666858288957,True
54570,148302,1,148298,4894.0,43328.0,28725.0,-0.00122,0.000549,-0.000366,0.47250000000000003,-1.3475000000000001,-4.2875000000000005,0.77125,-0.156125,-0.07303125,1.0259375,0.74065625,-0.569375,-0.568125,1.016125,0.016819719671338808,0.020151873616728995,True
54571,148303,1,148299,4895.0,43330.0,28726.0,-0.000183,-0.0006709999999999999,-0.001037,0.4025,-1.4875,-4.305000000000001,0.7704375,-0.15384375,-0.069875,1.02675,0.7480625,-0.57246875,-0.57096875,1.0150000000000001,0.01703634275656572,0.020393731932120098,True
54572,148304,1,148300,4896.0,43331.0,28727.0,0.000915,-0.00183,-0.000488,0.17500000000000002,-1.5575,-4.2,0.7724375,-0.15571875000000002,-0.0708125,1.0307187500000001,0.7426875000000001,-0.57021875,-0.56875,1.01134375,0.016870016674149474,0.02026710760620707,True
54573,148305,1,148301,4898.0,43330.0,28725.0,0.001769,-0.001098,0.000244,0.12250000000000001,-1.6800000000000002,-4.0425,0.77190625,-0.1489375,-0.0698125,1.01946875,0.73234375,-0.571375,-0.571125,1.0073750000000001,0.01719226132033718,0.020402504972808534,True
54574,148306,1,148302,4899.0,43332.0,28725.0,0.004209,0.000183,-0.000244,0.24500000000000002,-1.9425000000000001,-4.0075,0.779875,-0.1573125,-0.0725625,1.02715625,0.74165625,-0.565125,-0.5690000000000001,1.0109375,0.016601279252598963,0.020205848833896378,True
54575,148307,1,148303,4900.0,43331.0,28725.0,0.004392,0.000305,-6.1e-05,0.21000000000000002,-1.6800000000000002,-3.9550000000000005,0.77084375,-0.14990625,-0.06934375,1.02971875,0.7500625,-0.5709062500000001,-0.5689062500000001,1.002125,0.01713408515406305,0.02033311922462971,True
54576,148308,1,148304,4900.0,43330.0,28728.0,0.0028669999999999998,0.001037,0.000244,0.28,-1.61,-3.6750000000000003,0.76471875,-0.15609375,-0.0699375,1.0261875,0.7411875,-0.56475,-0.56971875,1.0129062500000001,0.016635880682685553,0.020341350061241548,True
54577,148309,1,148305,4901.0,43330.0,28729.0,-0.000366,0.000366,-0.000793,0.35000000000000003,-1.33,-3.6225000000000005,0.76965625,-0.1511875,-0.06946875,1.0264375000000001,0.749625,-0.5706875,-0.5721875,1.0165625,0.017073189344010014,0.020458852106675484,True
54578,148310,1,148306,4903.0,43331.0,28728.0,-0.002257,0.000732,-0.001281,0.385,-1.12,-3.4125000000000005,0.7700312500000001,-0.149875,-0.06853125,1.030875,0.74853125,-0.5708125000000001,-0.56946875,1.01121875,0.017131606860782488,0.020388617478756026,True
54579,148311,1,148307,4905.0,43331.0,28727.0,-0.004148,0.001281,6.1e-05,0.56,-0.9275000000000001,-3.325,0.7788437500000001,-0.15737500000000001,-0.07290625,1.03128125,0.74159375,-0.5699062500000001,-0.56825,1.0110937500000001,0.016790102729838458,0.020161946821609194,True
54580,148312,1,148308,4905.0,43334.0,28732.0,-0.004026,-0.000915,0.0006709999999999999,0.47250000000000003,-0.9450000000000001,-3.2725000000000004,0.7706875,-0.154,-0.06909375,1.0265625,0.74746875,-0.57178125,-0.57121875,1.0183125,0.017002481250723327,0.020435494271117505,True
54581,148313,1,148309,4907.0,43335.0,28731.0,-0.004026,-0.0015249999999999999,0.00183,0.35000000000000003,-0.9800000000000001,-3.325,0.7708125,-0.153875,-0.0688125,1.02928125,0.74340625,-0.56415625,-0.56828125,1.0045625,0.01670243609527602,0.0203298205893015,True
54582,148314,1,148310,4907.0,43333.0,28730.0,-0.0032329999999999998,-0.000549,0.002379,0.43750000000000006,-0.9625000000000001,-3.3950000000000005,0.7771875,-0.15515625,-0.0711875,1.0348125,0.7409687500000001,-0.56925,-0.56459375,1.01134375,0.016854146951982663,0.020086074087832206,True
54583,148315,1,148311,4907.0,43333.0,28726.0,-0.002379,0.0,-0.000183,0.5425000000000001,-1.1025,-3.4475000000000002,0.7774375,-0.15584375,-0.07112500000000001,1.02659375,0.74159375,-0.56740625,-0.56246875,1.01321875,0.016752378977735998,0.0200038422440741,True
54584,148316,1,148312,4907.0,43331.0,28724.0,0.0018909999999999999,-0.00122,-0.001586,0.2625,-1.7500000000000002,-3.7625,0.771,-0.1549375,-0.069375,1.02575,0.745625,-0.5719062500000001,-0.57021875,1.0141875,0.016969328539579626,0.020384179526281184,True
54585,148317,1,148313,4903.0,43331.0,28722.0,0.003294,-0.000122,-0.0008539999999999999,0.12250000000000001,-1.995,-3.6225000000000005,0.77065625,-0.1540625,-0.06959375,1.02578125,0.74584375,-0.57203125,-0.5695,1.01125,0.017009938891397104,0.02034661877531085,True
54586,148318,1,148314,4901.0,43328.0,28719.0,0.004941,0.000732,-0.001586,0.12250000000000001,-2.0125,-3.6050000000000004,0.7704062500000001,-0.15296875000000001,-0.06784375000000001,1.03228125,0.74215625,-0.57034375,-0.56875,1.00096875,0.016986941829008805,0.020387941999491222,True
54587,148319,1,148315,4897.0,43329.0,28714.0,0.004331,0.001037,-0.001098,0.2625,-2.0300000000000002,-3.6575,0.77609375,-0.15703125,-0.069875,1.03215625,0.73484375,-0.5696875,-0.5686875,1.01121875,0.01679533978606769,0.02030277360156093,True
54588,148320,1,148316,4892.0,43328.0,28713.0,0.0035989999999999998,0.0013419999999999999,0.0008539999999999999,0.29750000000000004,-1.8200000000000003,-3.7275000000000005,0.77796875,-0.1553125,-0.0695625,1.02596875,0.73321875,-0.568875,-0.5675625,1.02353125,0.01683278131375572,0.020270631243942086,True
54589,148321,1,148317,4889.0,43326.0,28713.0,-0.0030499999999999998,0.000915,0.001586,0.35000000000000003,-1.3475000000000001,-3.7275000000000005,0.7713125000000001,-0.15434375,-0.0715625,1.0247187500000001,0.7550625,-0.56746875,-0.56971875,1.0105,0.016815936725268044,0.020275211738026103,True
54590,148322,1,148318,4885.0,43326.0,28709.0,-0.003355,0.0,0.000244,0.385,-1.0850000000000002,-3.6925000000000003,0.7782187500000001,-0.1576875,-0.069875,1.026375,0.73853125,-0.56953125,-0.5669062500000001,1.0236875,0.01676237718210436,0.02023173959887603,True
54591,148323,1,148319,4883.0,43327.0,28708.0,-0.003111,-0.0008539999999999999,-0.000305,0.43750000000000006,-1.155,-3.7450000000000006,0.7706875,-0.153625,-0.06221875,1.03284375,0.76021875,-0.57553125,-0.56965625,1.012125,0.017167736709659126,0.02065301585161575,True
54592,148324,1,148320,4879.0,43324.0,28707.0,-0.0021349999999999997,-0.000122,-0.0011589999999999999,0.43750000000000006,-1.33,-3.8150000000000004,0.77878125,-0.1554375,-0.06975,1.02571875,0.73571875,-0.5670625,-0.564875,1.02540625,0.016755157438949002,0.020155811906227897,True
54593,148325,1,148321,4875.0,43324.0,28705.0,-0.000976,-0.000122,-0.0008539999999999999,0.385,-1.2775,-3.9200000000000004,0.7698125,-0.15371875000000002,-0.07146875,1.03278125,0.76053125,-0.57496875,-0.56815625,0.9988750000000001,0.017141425663054,0.020216718541913377,True
54594,148326,1,148322,4874.0,43321.0,28703.0,0.00061,-0.000366,0.000366,0.43750000000000006,-1.4700000000000002,-4.165,0.77575,-0.1570625,-0.06984375,1.0279375,0.73440625,-0.56665625,-0.5643125,1.02015625,0.016672751302896582,0.020129557869775515,True
54595,148327,1,148323,4871.0,43319.0,28701.0,0.00042699999999999997,-0.001098,-0.000305,0.385,-1.4875,-4.1475,0.770625,-0.1558125,-0.0718125,1.0303437500000001,0.759375,-0.564625,-0.56559375,1.00496875,0.01664232610919157,0.02010052169001614,True
54596,148328,1,148324,4869.0,43320.0,28699.0,0.0008539999999999999,0.0006709999999999999,-0.000488,0.36750000000000005,-1.5575,-4.130000000000001,0.77028125,-0.1538125,-0.06909375,1.02484375,0.73853125,-0.571625,-0.5740000000000001,1.02215625,0.017003861160993627,0.020546359973956218,True
54597,148329,1,148325,4866.0,43317.0,28697.0,0.002623,-0.000244,-0.00042699999999999997,0.2625,-1.715,-4.112500000000001,0.77828125,-0.15815625,-0.0701875,1.0265625,0.7370625000000001,-0.5671875000000001,-0.56271875,1.0195625,0.01664949437130319,0.020051984269860195,True
54598,148330,1,148326,4865.0,43316.0,28694.0,0.0023179999999999997,0.000366,-0.000793,0.29750000000000004,-1.7675,-4.112500000000001,0.7702187500000001,-0.1536875,-0.06834375,1.03340625,0.76125,-0.5788125000000001,-0.57509375,1.009875,0.017296401117832687,0.02062047067470495,True
54599,148331,1,148327,4863.0,43316.0,28694.0,-0.000122,-0.000549,0.0011589999999999999,0.36750000000000005,-1.3650000000000002,-4.077500000000001,0.765375,-0.15621875,-0.07153125,1.0335,0.7341875,-0.5669062500000001,-0.5654375,0.99971875,0.016717102911564214,0.020105737990621986,True
54600,148332,1,148328,4861.0,43314.0,28693.0,-0.0017079999999999999,0.000488,0.001403,0.24500000000000002,-1.1900000000000002,-4.0425,0.7716875,-0.15453125,-0.06921875,1.02459375,0.72040625,-0.56975,-0.5674375,1.0161875,0.016899591977940352,0.020279638444180435,True
54601,148333,1,148329,4861.0,43315.0,28693.0,-0.001098,-0.000244,0.000488,0.2625,-1.1025,-3.99,0.76996875,-0.15465625,-0.06875,1.0265312500000001,0.74990625,-0.5760000000000001,-0.57365625,1.0238125,0.01714452107747396,0.02054664738789125,True
54602,148334,1,148330,4861.0,43314.0,28692.0,-0.001586,0.0006709999999999999,6.1e-05,0.35000000000000003,-1.155,-3.8850000000000002,0.7704375,-0.15371875000000002,-0.06915625,1.0331875,0.754375,-0.573625,-0.5690625,1.0091875000000001,0.017087680389034993,0.020346981086478165,True
54603,148335,1,148331,4858.0,43315.0,28691.0,0.0008539999999999999,-0.001037,-0.000915,0.3325,-1.3650000000000002,-3.8500000000000005,0.7763125,-0.1569375,-0.0696875,1.0263125,0.7365625,-0.56778125,-0.56834375,1.0173125,0.016722867475059435,0.02029669785941513,True
54604,148336,1,148332,4858.0,43314.0,28690.0,0.001952,-0.00042699999999999997,-0.000366,0.17500000000000002,-1.4175000000000002,-3.9200000000000004,0.7706875,-0.1543125,-0.06534375,1.02203125,0.7476875000000001,-0.572875,-0.56878125,1.0110625,0.017033517649033745,0.020490943155757876,True
54605,148337,1,148333,4858.0,43312.0,28691.0,0.000488,-0.0006709999999999999,0.000244,0.31500000000000006,-1.1725,-3.9550000000000005,0.776375,-0.1560625,-0.07037500000000001,1.02696875,0.74228125,-0.5695,-0.56765625,1.0169062500000001,0.016827265512118682,0.02024129794635986,True
54606,148338,1,148334,4858.0,43312.0,28691.0,-0.00122,-0.000549,0.00061,0.29750000000000004,-1.05,-3.9550000000000005,0.77078125,-0.15421875000000002,-0.06728125,1.032,0.7356875,-0.5701875,-0.56903125,1.0104375,0.016929815859158582,0.020422050625215436,True
54607,148339,1,148335,4859.0,43311.0,28691.0,-0.0021349999999999997,-0.0008539999999999999,0.0017079999999999999,0.3325,-1.0325000000000002,-3.9025000000000003,0.776375,-0.15659375,-0.0721875,1.029375,0.7415,-0.56940625,-0.5678125,1.01159375,0.016801891580102795,0.02017375376826895,True
54608,148340,1,148336,4858.0,43310.0,28692.0,-0.000549,0.0013419999999999999,-0.000793,0.36750000000000005,-0.9450000000000001,-4.1825,0.7706875,-0.15328125,-0.06871875,1.0226250000000001,0.743625,-0.5720000000000001,-0.57075,1.0125,0.01704048307016116,0.020432068618174044,True
54609,148341,1,148337,4860.0,43312.0,28690.0,-0.001403,0.000732,0.001037,0.29750000000000004,-0.8925000000000001,-4.1475,0.77640625,-0.15578125,-0.07171875,1.0305625,0.7419375,-0.56353125,-0.5624375,1.0025625,0.016599811967182042,0.01997842233695251,True
54610,148342,1,148338,4858.0,43307.0,28690.0,-0.000915,0.000305,0.000366,0.2625,-1.0325000000000002,-4.0425,0.7746875,-0.15734375,-0.07059375,1.02284375,0.74146875,-0.5690000000000001,-0.56684375,1.01878125,0.01675510806300623,0.020199990078090514,True
54611,148343,1,148339,4859.0,43310.0,28689.0,0.000244,0.00061,-0.00061,0.24500000000000002,-1.1900000000000002,-4.025,0.771,-0.1539375,-0.069375,1.03265625,0.75009375,-0.572125,-0.56903125,1.0106875,0.01701877635735615,0.02033683155496821,True
54612,148344,1,148340,4859.0,43310.0,28690.0,0.003355,0.0,6.1e-05,0.28,-1.2775,-3.99,0.77928125,-0.1568125,-0.06934375,1.0265,0.741,-0.5685625,-0.56765625,1.01528125,0.016759222278470706,0.02028327386744513,True
54613,148345,1,148341,4861.0,43309.0,28687.0,0.00366,6.1e-05,-0.001281,0.17500000000000002,-1.3475000000000001,-3.9375000000000004,0.771,-0.1538125,-0.0674375,1.0348125,0.7478750000000001,-0.569875,-0.564125,1.01140625,0.016933846834792605,0.02022003633347412,True
54614,148346,1,148342,4860.0,43308.0,28688.0,0.002806,0.000122,-0.00183,0.15750000000000003,-1.2425000000000002,-3.9025000000000003,0.7809375000000001,-0.15765625,-0.07428125000000001,1.031125,0.74153125,-0.568375,-0.5683125,1.00303125,0.01671737548779681,0.020108473058538308,True
54615,148347,1,148343,4861.0,43310.0,28685.0,6.1e-05,-0.000305,-0.000305,0.24500000000000002,-1.0150000000000001,-3.8850000000000002,0.776375,-0.14765625000000002,-0.0679375,1.02440625,0.74584375,-0.57228125,-0.57140625,1.018,0.01728065032626956,0.02049002588120084,True
54616,148348,1,148344,4861.0,43310.0,28688.0,-0.001464,-0.0013419999999999999,0.001647,0.4025,-0.6825000000000001,-3.9550000000000005,0.76890625,-0.1529375,-0.0715625,1.03696875,0.7509375,-0.5694375,-0.56775,1.01078125,0.016951955045775877,0.020196700959591335,True
54617,148349,1,148345,4863.0,43308.0,28686.0,-0.004575,-0.000488,0.000976,0.385,-0.56,-3.9200000000000004,0.7761250000000001,-0.15453125,-0.068375,1.02178125,0.7415,-0.5711875,-0.569625,1.0146875,0.016957106773940002,0.020401206774625178,True
54618,148350,1,148346,4861.0,43308.0,28689.0,-0.005429,0.0006709999999999999,-0.000122,0.49000000000000005,-0.42000000000000004,-3.7100000000000004,0.77925,-0.1561875,-0.074875,1.02678125,0.74184375,-0.56884375,-0.5671875000000001,1.01809375,0.016795916576253206,0.02003943267824207,True
54619,148351,1,148347,4862.0,43311.0,28687.0,-0.0046359999999999995,0.001037,-0.001037,0.49000000000000005,-0.5775,-3.6575,0.76884375,-0.153,-0.068625,1.0248125000000001,0.7386875,-0.5719375,-0.57140625,1.0144375,0.017049428845405452,0.02046204620462046,True
54620,148352,1,148348,4861.0,43308.0,28687.0,-0.0013419999999999999,0.000915,0.000305,0.43750000000000006,-0.9100000000000001,-3.6750000000000003,0.7683125000000001,-0.1523125,-0.0675,1.02415625,0.74234375,-0.56921875,-0.56853125,1.010125,0.0169686408933943,0.020393211336147743,True
54621,148353,1,148349,4865.0,43308.0,28688.0,0.0017079999999999999,0.00042699999999999997,0.00061,0.35000000000000003,-1.2600000000000002,-3.7100000000000004,0.76746875,-0.149,-0.0728125,1.0266250000000001,0.7408125,-0.561375,-0.56775,1.01103125,0.016789573059325873,0.020145821249402163,True
54622,148354,1,148350,4863.0,43311.0,28687.0,0.003843,-0.000122,0.001769,0.14,-1.54,-3.6575,0.7804375,-0.15590625,-0.0664375,1.02421875,0.7415,-0.57003125,-0.571625,1.00390625,0.016854882917578706,0.020559792036546218,True
54623,148355,1,148351,4865.0,43310.0,28687.0,0.006344,-0.000793,0.0,0.22750000000000004,-1.5750000000000002,-3.7275000000000005,0.78028125,-0.15840625,-0.07087500000000001,1.0214375,0.7420625000000001,-0.5685625,-0.56821875,1.01621875,0.01669435279333091,0.02024337845005552,True
54624,148356,1,148352,4865.0,43311.0,28688.0,0.0055509999999999995,0.0008539999999999999,-0.00061,0.17500000000000002,-1.3825,-3.7625,0.76771875,-0.1538125,-0.07071875,1.0368125,0.74134375,-0.5688125,-0.567625,1.0110000000000001,0.016891333270584407,0.020226059702555702,True
54625,148357,1,148353,4865.0,43311.0,28689.0,0.002623,0.000183,-0.000976,0.3325,-1.0850000000000002,-3.7800000000000002,0.78334375,-0.16053125000000001,-0.07425,1.0351875,0.742,-0.56840625,-0.5633125,1.0064375,0.016601605975153557,0.01991028286596118,True
54626,148358,1,148354,4866.0,43310.0,28687.0,-0.0015249999999999999,-0.000549,-0.000793,0.3325,-0.7525000000000001,-3.8325000000000005,0.77671875,-0.15375,-0.068375,1.024125,0.74553125,-0.5691875,-0.5669062500000001,1.01384375,0.016908882314484352,0.02029279734805843,True
54627,148359,1,148355,4865.0,43311.0,28689.0,-0.004209,0.000183,-0.000976,0.35000000000000003,-0.43750000000000006,-3.7100000000000004,0.775375,-0.15125,-0.07015625,1.02575,0.74134375,-0.5689375,-0.56803125,1.01503125,0.017000633421774953,0.02026515657415569,True
54628,148360,1,148356,4867.0,43312.0,28690.0,-0.006954,0.00042699999999999997,0.0011589999999999999,0.7000000000000001,-0.22750000000000004,-3.7275000000000005,0.76825,-0.15640625,-0.06571875,1.033125,0.7417812500000001,-0.5694375,-0.5685,1.011125,0.01681077354742045,0.02046446669515843,True
54629,148361,1,148357,4867.0,43311.0,28689.0,-0.005978,-0.000305,0.001952,0.5950000000000001,-0.665,-3.6750000000000003,0.7781875,-0.154125,-0.0655,1.02703125,0.7418750000000001,-0.56959375,-0.5700625,1.01425,0.01690987462908295,0.020535662048071716,True
54630,148362,1,148358,4867.0,43310.0,28690.0,-0.00244,-0.000244,0.001098,0.49000000000000005,-0.9275000000000001,-3.6925000000000003,0.7714375,-0.15671875,-0.07115625,1.02821875,0.7413125,-0.56971875,-0.5685625,1.01028125,0.01680930922337074,0.02024563911706271,True
54631,148363,1,148359,4869.0,43311.0,28690.0,0.002379,-0.001098,-0.001037,0.29750000000000004,-1.2950000000000002,-3.7975000000000003,0.7710312500000001,-0.15375,-0.06878125,1.034,0.750375,-0.57253125,-0.5699375,1.0110000000000001,0.017042658151060448,0.020397131657335307,True
54632,148364,1,148360,4871.0,43311.0,28692.0,0.0035989999999999998,-0.0011589999999999999,-0.00122,0.10500000000000001,-1.5750000000000002,-3.8500000000000005,0.77078125,-0.15415625,-0.0703125,1.0270625,0.74190625,-0.57875,-0.5704375,1.02509375,0.017274830900676396,0.020354745413059903,True
54633,148365,1,148361,4870.0,43314.0,28691.0,0.005795,-0.000549,-0.000488,0.2625,-1.6800000000000002,-3.7450000000000006,0.77496875,-0.15646875,-0.0709375,1.032,0.74590625,-0.5735,-0.56759375,1.00265625,0.016970771359391214,0.02021590942336386,True
54634,148366,1,148362,4872.0,43313.0,28693.0,0.0046359999999999995,0.001464,0.000183,0.3325,-1.4875,-3.7450000000000006,0.7765,-0.152,-0.0694375,1.0270625,0.728125,-0.56490625,-0.56125,1.0260625,0.016808785907741864,0.020023919792355845,True
54635,148367,1,148363,4873.0,43312.0,28692.0,0.00042699999999999997,0.00122,0.00061,0.385,-1.1900000000000002,-3.6750000000000003,0.77125,-0.15303125,-0.07175000000000001,1.0289375,0.763625,-0.58134375,-0.5695625,1.0001875,0.017424291542239227,0.020261349790009486,True
54636,148368,1,148364,4876.0,43315.0,28694.0,-0.000793,0.002013,0.000244,0.5075000000000001,-0.9100000000000001,-3.5875000000000004,0.76121875,-0.14921875,-0.07075000000000001,1.03190625,0.74165625,-0.57521875,-0.57115625,1.00040625,0.017334535425040723,0.020365596348360694,True
54637,148369,1,148365,4877.0,43316.0,28694.0,-0.0030499999999999998,0.000244,0.000244,0.525,-0.7525000000000001,-3.5525,0.76121875,-0.1535,-0.07037500000000001,1.033375,0.7479375,-0.57834375,-0.572625,1.0030625,0.017285287988536662,0.020439411743759576,True
54638,148370,1,148366,4876.0,43317.0,28695.0,-0.0046359999999999995,-0.001037,0.000183,0.43750000000000006,-0.805,-3.6575,0.77853125,-0.1496875,-0.06884375,1.02684375,0.72840625,-0.56459375,-0.5690625,1.0335,0.016890417737928192,0.020359700334516225,True
54639,148371,1,148367,4877.0,43318.0,28697.0,-0.002989,-0.000366,0.00122,0.45500000000000007,-0.805,-3.7100000000000004,0.776375,-0.15496875000000002,-0.07021875,1.02978125,0.74825,-0.5683125,-0.5630625,0.99,0.01682426296067343,0.020064426005511324,True
54640,148372,1,148368,4880.0,43318.0,28698.0,-0.001464,6.1e-05,0.00061,0.47250000000000003,-1.1025,-3.7450000000000006,0.7615625,-0.15421875000000002,-0.0693125,1.034875,0.7396875,-0.579875,-0.57225,1.0053750000000001,0.017317266666327637,0.02046770238785622,True
54641,148373,1,148369,4882.0,43319.0,28700.0,-0.000793,-0.000915,0.000488,0.2625,-1.2950000000000002,-3.7275000000000005,0.7695625,-0.15434375,-0.06909375,1.02678125,0.7288125,-0.564125,-0.564625,1.02978125,0.016682102456326044,0.020172555046128325,True
54642,148374,1,148370,4881.0,43319.0,28698.0,0.0011589999999999999,-0.000183,-0.000305,0.21000000000000002,-1.435,-3.6575,0.76978125,-0.15440625,-0.063875,1.027125,0.76753125,-0.56971875,-0.56215625,1.0034375,0.01690342914486964,0.02028654345035363,True
54643,148375,1,148371,4883.0,43321.0,28700.0,0.003538,-0.00061,-0.000183,0.29750000000000004,-1.7675,-3.7450000000000006,0.771625,-0.153125,-0.0671875,1.02615625,0.75621875,-0.576375,-0.569625,0.9998125,0.017221823804364964,0.020449538810624914,True
54644,148376,1,148372,4883.0,43321.0,28703.0,0.004148,0.0011589999999999999,-0.000183,0.3325,-1.61,-3.8500000000000005,0.77153125,-0.1535625,-0.06925,1.02615625,0.7371562500000001,-0.5764375,-0.56934375,1.00259375,0.01720652149035026,0.02035437963213812,True
54645,148377,1,148373,4885.0,43320.0,28703.0,0.0017079999999999999,0.001098,-0.000976,0.35000000000000003,-1.61,-3.8500000000000005,0.77209375,-0.15321875000000001,-0.06921875,1.03365625,0.7366875,-0.571125,-0.56896875,1.0046875,0.01700802262818654,0.020340699077978194,True
54646,148378,1,148374,4887.0,43323.0,28704.0,-0.001281,0.000122,-0.001037,0.42000000000000004,-1.2950000000000002,-3.7975000000000003,0.77665625,-0.15296875000000001,-0.069375,1.03484375,0.7398125,-0.570625,-0.56725,1.00990625,0.016998193981634577,0.020265801015579683,True
54647,148379,1,148375,4888.0,43325.0,28706.0,-0.000915,-0.000549,0.000366,0.35000000000000003,-1.2950000000000002,-3.8500000000000005,0.77709375,-0.15365625,-0.0686875,1.0323437500000001,0.733375,-0.5719062500000001,-0.569125,0.99990625,0.017021471421249625,0.020368551993609867,True
54648,148380,1,148376,4889.0,43324.0,28706.0,-0.00244,0.000122,0.000732,0.43750000000000006,-1.225,-3.7800000000000002,0.777875,-0.1540625,-0.06953125,1.0265625,0.741,-0.57215625,-0.570875,1.01325,0.017014939419490303,0.02040398439209023,True
54649,148381,1,148377,4891.0,43325.0,28708.0,-0.0008539999999999999,-6.1e-05,0.00061,0.42000000000000004,-1.2075,-3.7800000000000002,0.77059375,-0.15321875000000001,-0.07209375,1.0269062500000001,0.74225,-0.56878125,-0.56834375,1.01484375,0.016914249663890022,0.020198756784327393,True
54650,148382,1,148378,4892.0,43324.0,28708.0,-0.000244,-0.001037,0.002074,0.29750000000000004,-1.33,-3.7800000000000002,0.77146875,-0.1551875,-0.07050000000000001,1.0270625,0.74996875,-0.56925,-0.5676875,1.0174375,0.016852875036885536,0.02023745621153802,True
54651,148383,1,148379,4896.0,43327.0,28711.0,0.000976,0.000488,-0.000122,0.3325,-1.2600000000000002,-3.6575,0.76528125,-0.15365625,-0.067875,1.0284375000000001,0.74509375,-0.56865625,-0.5685625,1.01134375,0.01689144069488945,0.020379193939409356,True
54652,148384,1,148380,4895.0,43327.0,28713.0,0.002074,0.000732,0.000183,0.31500000000000006,-1.3125000000000002,-3.7800000000000002,0.7744375,-0.15309375,-0.0684375,1.02959375,0.746375,-0.5711875,-0.56825,1.0109375,0.01701561025489712,0.020343838083705598,True
54653,148385,1,148381,4897.0,43329.0,28713.0,0.0006709999999999999,0.000488,-0.0021349999999999997,0.45500000000000007,-1.2075,-3.9375000000000004,0.7764375,-0.15181250000000002,-0.0705625,1.03209375,0.74203125,-0.5640000000000001,-0.5684375,1.0125625,0.016780145741735874,0.020264821480812528,True
54654,148386,1,148382,4897.0,43330.0,28713.0,-0.00122,0.000549,-0.0015249999999999999,0.43750000000000006,-1.0325000000000002,-3.9725000000000006,0.773875,-0.155,-0.07153125,1.03078125,0.7475625,-0.5695,-0.5686875,1.017125,0.016870510185392457,0.020235360558027368,True
54655,148387,1,148383,4901.0,43331.0,28715.0,-0.0018909999999999999,-0.001769,0.000976,0.5425000000000001,-0.8925000000000001,-3.9725000000000006,0.77125,-0.15365625,-0.068125,1.02165625,0.749625,-0.570625,-0.56978125,1.0176875,0.016970213415409663,0.020417611573159612,True
54656,148388,1,148384,4900.0,43333.0,28715.0,-0.003355,-0.001281,0.000976,0.47250000000000003,-0.8575,-3.9200000000000004,0.770625,-0.14965625,-0.06909375,1.02696875,0.74821875,-0.57059375,-0.56875,1.0115,0.017131759382086564,0.020337064360213684,True
54657,148389,1,148385,4901.0,43332.0,28715.0,-0.002379,0.000122,0.001647,0.43750000000000006,-0.9275000000000001,-4.025,0.774875,-0.15790625,-0.07409375,1.0464375000000001,0.7419375,-0.56815625,-0.56784375,1.0111875000000001,0.016698444760176092,0.020097408833447173,True
54658,148390,1,148386,4901.0,43332.0,28715.0,-0.0015249999999999999,-0.000122,0.000183,0.31500000000000006,-1.225,-3.99,0.79203125,-0.1618125,-0.07690625,1.02171875,0.743,-0.567875,-0.5693125,1.01878125,0.016528189760001626,0.020041515203162483,True
54659,148391,1,148387,4902.0,43332.0,28710.0,0.0018909999999999999,0.000366,-0.000549,0.22750000000000004,-1.5225000000000002,-3.99,0.7645625,-0.15146875,-0.06565625,1.02034375,0.74921875,-0.56440625,-0.56871875,1.01175,0.01681040021067067,0.02047573197116761,True
54660,148392,1,148388,4899.0,43331.0,28708.0,0.0034159999999999998,-0.000183,-0.0011589999999999999,0.24500000000000002,-1.6975000000000002,-3.9200000000000004,0.765375,-0.15603125,-0.06909375,1.02353125,0.74071875,-0.5685625,-0.56528125,1.01175,0.0167910210456961,0.020198730678078435,True
54661,148393,1,148389,4896.0,43331.0,28708.0,0.004026,-0.000549,-0.000305,0.08750000000000001,-1.7675,-3.9200000000000004,0.7684062500000001,-0.15078125,-0.06609375,1.023875,0.7417812500000001,-0.5684375,-0.5670000000000001,1.0109375,0.01699970744985309,0.020389394309439497,True
54662,148394,1,148390,4895.0,43331.0,28705.0,0.0028669999999999998,0.000183,0.000488,0.1925,-1.7325000000000002,-3.9200000000000004,0.7710625,-0.15078125,-0.059187500000000004,1.03378125,0.7416875,-0.56803125,-0.56259375,1.0124375,0.016983452835684584,0.020494832716923473,True
54663,148395,1,148391,4889.0,43331.0,28704.0,0.000732,-0.001098,0.000244,0.35000000000000003,-1.5925000000000002,-3.9025000000000003,0.7885625,-0.162125,-0.07778125,1.0261875,0.7414375,-0.57140625,-0.56971875,1.01846875,0.01665681018968949,0.020022105462643932,True
54664,148396,1,148392,4887.0,43329.0,28703.0,-0.000915,0.000732,0.000244,0.29750000000000004,-1.2425000000000002,-3.9550000000000005,0.77034375,-0.151375,-0.0668125,1.02159375,0.7465937500000001,-0.56175,-0.5688125,1.0044375,0.01670788929941881,0.02043240795622499,True
54665,148397,1,148393,4884.0,43330.0,28701.0,-0.002928,0.00061,-0.001098,0.43750000000000006,-1.1375000000000002,-3.9375000000000004,0.7716875,-0.15234375,-0.065875,1.032875,0.741125,-0.567625,-0.5669375,1.0010000000000001,0.016903597722612587,0.02039580635559479,True
54666,148398,1,148394,4882.0,43327.0,28703.0,-0.003172,0.000732,0.000732,0.43750000000000006,-1.155,-3.9550000000000005,0.78640625,-0.1626875,-0.06903125,1.04603125,0.7410625000000001,-0.56903125,-0.56753125,1.01834375,0.016538859260069524,0.02029100909355717,True
54667,148399,1,148395,4878.0,43327.0,28697.0,-0.003111,0.0011589999999999999,0.000183,0.3325,-1.1375000000000002,-3.9375000000000004,0.78878125,-0.15687500000000001,-0.0685625,1.0073125,0.74865625,-0.5716875,-0.57159375,1.01028125,0.01688172617367041,0.02047206441381117,True
54668,148400,1,148396,4877.0,43329.0,28698.0,-0.001281,0.000122,0.0017079999999999999,0.29750000000000004,-1.2950000000000002,-4.025,0.7850312500000001,-0.160375,-0.06725,1.021375,0.7408750000000001,-0.5724375,-0.5715625,1.01121875,0.016769296900236295,0.02052423406122423,True
54669,148401,1,148397,4875.0,43330.0,28697.0,0.000732,-0.001098,0.00061,0.3325,-1.4700000000000002,-4.025,0.7701875,-0.15253125,-0.06721875000000001,1.02121875,0.74240625,-0.570375,-0.5708125000000001,1.01496875,0.01700599807695243,0.020495608356459524,True
54670,148402,1,148398,4872.0,43330.0,28696.0,0.001769,6.1e-05,-0.00122,0.31500000000000006,-1.6450000000000002,-4.0600000000000005,0.7656875,-0.15421875000000002,-0.07315625,1.023875,0.74,-0.5688125,-0.56203125,1.01809375,0.01687479807988278,0.01990368772940959,True
54671,148403,1,148399,4873.0,43325.0,28694.0,0.003111,-0.000976,-0.0023179999999999997,0.21000000000000002,-1.8725000000000003,-4.025,0.768375,-0.1541875,-0.07103125,1.0275625,0.7366875,-0.56896875,-0.56678125,1.01928125,0.016882322340045306,0.020179688781980752,True
54672,148404,1,148400,4871.0,43328.0,28696.0,0.002745,-0.0015249999999999999,-0.000549,0.17500000000000002,-1.8725000000000003,-3.99,0.75928125,-0.15653125,-0.07325,1.02721875,0.7495937500000001,-0.568625,-0.5674375,1.0179375,0.01677317106675689,0.020115549291618226,True
54673,148405,1,148401,4869.0,43326.0,28693.0,0.001281,0.000305,0.001586,0.24500000000000002,-1.5050000000000001,-4.0425,0.77046875,-0.1558125,-0.07121875,1.0334375,0.74565625,-0.5686875,-0.56740625,1.01434375,0.01680492700312135,0.020196983554175565,True
54674,148406,1,148402,4869.0,43328.0,28697.0,-0.0011589999999999999,0.000305,0.001281,0.47250000000000003,-1.12,-3.9200000000000004,0.77228125,-0.15325,-0.06884375,1.03209375,0.74896875,-0.5718125000000001,-0.56759375,1.0116875,0.017034254188615514,0.020301133479952632,True
54675,148407,1,148403,4866.0,43328.0,28693.0,-0.0015249999999999999,0.000915,0.001037,0.42000000000000004,-0.9100000000000001,-3.7800000000000002,0.769625,-0.15375,-0.06815625,1.03203125,0.741375,-0.57228125,-0.56434375,1.01134375,0.01703265747863764,0.020199501564131955,True
54676,148408,1,148404,4867.0,43325.0,28696.0,-0.001769,0.001281,0.000244,0.45500000000000007,-0.9275000000000001,-3.6400000000000006,0.777625,-0.15340625,-0.06725,1.0224375,0.74225,-0.57065625,-0.5705,1.0110937500000001,0.016981638412689935,0.020481878675647627,True
54677,148409,1,148405,4866.0,43330.0,28697.0,-0.0013419999999999999,6.1e-05,-0.0013419999999999999,0.3325,-0.9800000000000001,-3.6750000000000003,0.7760625,-0.1556875,-0.06990625,1.02709375,0.7430625000000001,-0.56353125,-0.570625,1.0169375,0.01660362860083483,0.02037875511917178,True
54678,148410,1,148406,4867.0,43328.0,28697.0,-0.000183,0.000793,-6.1e-05,0.4025,-1.155,-3.6050000000000004,0.7635625,-0.15328125,-0.07140625,1.032875,0.74825,-0.56928125,-0.5670625,1.0110937500000001,0.016931712237206773,0.020175641674701646,True
54679,148411,1,148407,4866.0,43328.0,28697.0,-0.000549,-0.000793,0.000549,0.4025,-1.2600000000000002,-3.7275000000000005,0.77978125,-0.15471875000000002,-0.06365625,1.02646875,0.7419375,-0.5699375,-0.56978125,1.00434375,0.016899463012472048,0.02059949149933926,True
54680,148412,1,148408,4866.0,43330.0,28701.0,-0.0008539999999999999,-0.001037,0.0023179999999999997,0.31500000000000006,-1.2075,-3.7975000000000003,0.77865625,-0.1556875,-0.069,1.027,0.73071875,-0.5633125,-0.57115625,1.01253125,0.01659487090757812,0.020436818067932804,True
54681,148413,1,148409,4867.0,43331.0,28702.0,-0.000305,-0.000976,0.000366,0.29750000000000004,-1.1025,-3.7450000000000006,0.7779375000000001,-0.1564375,-0.070125,1.02728125,0.7416875,-0.56875,-0.57034375,1.02009375,0.016781989315695748,0.020358638653559743,True
54682,148414,1,148410,4867.0,43332.0,28704.0,0.000366,0.000244,-6.1e-05,0.28,-0.9975,-3.8150000000000004,0.77171875,-0.15490625,-0.06996875,1.02134375,0.73003125,-0.568625,-0.570375,1.019375,0.016839312334328845,0.020366243901446354,True
54683,148415,1,148411,4868.0,43331.0,28704.0,0.00122,-0.0008539999999999999,-0.00061,0.29750000000000004,-0.9100000000000001,-3.7800000000000002,0.77065625,-0.15334375,-0.0715625,1.03328125,0.7489375,-0.56865625,-0.5680625,1.0114375,0.016904160153244033,0.020209163828038945,True
54684,148416,1,148412,4868.0,43331.0,28706.0,0.000732,-0.000549,-0.000488,0.28,-0.9800000000000001,-3.7625,0.77934375,-0.15815625,-0.07040625,1.0265,0.7410625000000001,-0.56840625,-0.569375,1.0185625,0.016698274842308913,0.02030856503268805,True
54685,148417,1,148413,4870.0,43331.0,28705.0,-0.0008539999999999999,-0.000183,-0.000976,0.36750000000000005,-0.9450000000000001,-3.7800000000000002,0.77046875,-0.15284375,-0.069125,1.02159375,0.74890625,-0.5679062500000001,-0.56884375,1.01140625,0.016894500319904145,0.020339530630129877,True
54686,148418,1,148414,4870.0,43334.0,28706.0,-0.0011589999999999999,0.000244,-0.000549,0.45500000000000007,-0.8925000000000001,-3.8325000000000005,0.7780312500000001,-0.15659375,-0.07078125,1.01784375,0.742625,-0.56846875,-0.56965625,1.0189375,0.016764374051598148,0.020304516877398312,True
54687,148419,1,148415,4870.0,43336.0,28707.0,-0.0023179999999999997,0.000915,0.0008539999999999999,0.43750000000000006,-0.8750000000000001,-3.7100000000000004,0.7708125,-0.1533125,-0.06803125,1.02065625,0.74809375,-0.56875,-0.56821875,1.01146875,0.016909183413889594,0.020359127582255023,True
54688,148420,1,148416,4868.0,43335.0,28709.0,-0.000793,0.00122,0.000732,0.36750000000000005,-1.0325000000000002,-3.8150000000000004,0.77859375,-0.15628125,-0.07087500000000001,1.03025,0.7426875000000001,-0.568125,-0.56696875,1.0158125,0.016763336640464015,0.02019352713183225,True
54689,148421,1,148417,4871.0,43334.0,28706.0,0.001586,-0.000244,-0.00042699999999999997,0.385,-1.0850000000000002,-3.8325000000000005,0.77415625,-0.15440625,-0.06884375,1.02721875,0.74853125,-0.568875,-0.57096875,1.0175625,0.016869667414564162,0.02043570219428162,True
54690,148422,1,148418,4870.0,43334.0,28708.0,0.001098,-0.000122,-0.000244,0.29750000000000004,-1.12,-3.8325000000000005,0.7704062500000001,-0.15309375,-0.064,1.0309375,0.7458125,-0.56878125,-0.56825,1.01071875,0.016919337421346447,0.0205244573789342,True
54691,148423,1,148419,4870.0,43337.0,28708.0,0.000976,-0.00122,0.00042699999999999997,0.24500000000000002,-1.2075,-3.9025000000000003,0.7750625,-0.1528125,-0.0691875,1.02915625,0.7398750000000001,-0.56965625,-0.56696875,1.0113125,0.016965794952869963,0.020262216924910606,True
54692,148424,1,148420,4871.0,43338.0,28708.0,-0.001281,-0.000549,-0.00061,0.42000000000000004,-0.9975,-3.9025000000000003,0.7674375,-0.15571875000000002,-0.0698125,1.027125,0.73459375,-0.56803125,-0.5700000000000001,1.0170937500000001,0.016782480281158058,0.020357651607651607,True
54693,148425,1,148421,4872.0,43337.0,28708.0,-0.00061,0.000183,-0.000183,0.47250000000000003,-0.9800000000000001,-3.99,0.77109375,-0.15496875000000002,-0.069875,1.02790625,0.74171875,-0.56884375,-0.56846875,1.0189375,0.016845522085262965,0.020294050682340546,True
54694,148426,1,148422,4872.0,43338.0,28711.0,-0.000976,-0.000183,-0.00122,0.35000000000000003,-1.05,-4.0425,0.77109375,-0.150875,-0.06909375,1.0303125,0.74703125,-0.5689062500000001,-0.5679062500000001,1.01121875,0.017014646307260833,0.020303419221977863,True
54695,148427,1,148423,4874.0,43337.0,28710.0,-0.0006709999999999999,-0.000183,0.000244,0.35000000000000003,-1.1725,-4.077500000000001,0.7705,-0.15353125,-0.06925,1.02678125,0.74740625,-0.57253125,-0.5701875,1.01115625,0.0170515603678396,0.020388021051935396,True
54696,148428,1,148424,4874.0,43341.0,28713.0,-0.0021349999999999997,0.000183,0.000366,0.42000000000000004,-1.0675000000000001,-4.025,0.77465625,-0.1553125,-0.0690625,1.027625,0.741125,-0.568625,-0.56696875,1.0170000000000001,0.01682277701743586,0.020267305057731225,True
54697,148429,1,148425,4875.0,43339.0,28711.0,-0.000122,-0.000122,0.000732,0.385,-1.2775,-4.2175,0.77540625,-0.15509375,-0.06909375,1.02078125,0.74009375,-0.5636875,-0.56628125,1.02115625,0.016634055859894813,0.020238614666190063,True
54698,148430,1,148426,4876.0,43340.0,28714.0,0.0011589999999999999,0.00122,0.001098,0.4025,-1.4525000000000001,-4.2525,0.7609375,-0.15259375,-0.072625,1.039875,0.7428125,-0.568625,-0.56634375,1.0095625,0.01693343644587355,0.020097363898524786,True
54699,148431,1,148427,4877.0,43339.0,28712.0,0.002562,0.0006709999999999999,0.000122,0.4025,-1.6450000000000002,-4.305000000000001,0.7810625,-0.155875,-0.069875,1.02646875,0.7385,-0.5680000000000001,-0.5690625,1.0224375,0.01677486974926734,0.020317726815990637,True
54700,148432,1,148428,4877.0,43342.0,28714.0,0.0021349999999999997,-0.000366,-0.0017079999999999999,0.36750000000000005,-1.6450000000000002,-4.305000000000001,0.77228125,-0.152125,-0.08103125,1.0206875,0.74209375,-0.5674375,-0.5658125,1.0230000000000001,0.016904998740711157,0.01973397989584102,True
54701,148433,1,148429,4879.0,43342.0,28717.0,0.0017079999999999999,0.0,-0.000244,0.2625,-1.4875,-4.375,0.76490625,-0.15153125,-0.06615625,1.03496875,0.75425,-0.57165625,-0.5666875,1.0095625,0.01709795203569153,0.020374389099059448,True
54702,148434,1,148430,4879.0,43341.0,28716.0,-0.0013419999999999999,-0.000183,-0.000305,0.43750000000000006,-1.3650000000000002,-4.4275,0.7916562500000001,-0.15737500000000001,-0.065875,1.014875,0.74546875,-0.5734375,-0.57340625,1.009875,0.016931391873847523,0.02065367921876927,True
54703,148435,1,148431,4880.0,43343.0,28718.0,-0.00042699999999999997,-0.000366,0.001098,0.385,-1.1900000000000002,-4.340000000000001,0.7594062500000001,-0.15696875,-0.078375,1.02571875,0.7379375,-0.56775,-0.5654375,1.0160625,0.01672034476091624,0.019827145354117958,True
54704,148436,1,148432,4881.0,43344.0,28721.0,-0.001281,-0.00061,-0.000793,0.42000000000000004,-1.2775,-4.322500000000001,0.757625,-0.14903125,-0.06871875,1.04878125,0.73825,-0.567625,-0.5645,1.01221875,0.017038429640634782,0.020182834985446478,True
54705,148437,1,148433,4882.0,43344.0,28719.0,-0.00061,0.000366,0.000122,0.36750000000000005,-1.3125000000000002,-4.41,0.77825,-0.15821875,-0.067625,1.01553125,0.7465937500000001,-0.5726875,-0.572375,1.01903125,0.016867050053031442,0.020541359962152617,True
54706,148438,1,148434,4883.0,43347.0,28722.0,0.000305,0.000732,-0.000549,0.35000000000000003,-1.3650000000000002,-4.340000000000001,0.75825,-0.1484375,-0.06615625,1.03340625,0.73940625,-0.5675,-0.56603125,1.00896875,0.017057596418031954,0.0203482196579881,True
54707,148439,1,148435,4884.0,43348.0,28721.0,0.000488,0.000183,-6.1e-05,0.36750000000000005,-1.5575,-4.2175,0.79421875,-0.16568750000000002,-0.0723125,1.02125,0.74009375,-0.5713125,-0.5720000000000001,1.01303125,0.01650807216749207,0.020335646264040375,True
54708,148440,1,148436,4885.0,43347.0,28724.0,0.000305,0.000122,-0.000122,0.4025,-1.5050000000000001,-4.112500000000001,0.7580625,-0.149,-0.06375,1.03403125,0.7443125,-0.5685,-0.56634375,1.00884375,0.017074709485723587,0.020458630519651508,True
54709,148441,1,148437,4886.0,43346.0,28724.0,0.0017079999999999999,-0.000488,-0.000122,0.29750000000000004,-1.5750000000000002,-4.2175,0.78771875,-0.1624375,-0.08040625,1.02521875,0.7398125,-0.567375,-0.56725,1.01715625,0.016482733706796107,0.019816778434704738,True
54710,148442,1,148438,4889.0,43346.0,28726.0,0.000549,0.0006709999999999999,-0.000732,0.24500000000000002,-1.5925000000000002,-4.2,0.7488750000000001,-0.14909375,-0.058750000000000004,1.03540625,0.7465937500000001,-0.56834375,-0.5675625,1.01146875,0.017064642381519918,0.02071074409600057,True
54711,148443,1,148439,4889.0,43347.0,28726.0,0.0,6.1e-05,-0.000305,0.35000000000000003,-1.61,-4.2700000000000005,0.78178125,-0.16415625,-0.079625,1.0286250000000001,0.74240625,-0.5670937500000001,-0.567125,1.01971875,0.01640151269419078,0.019843591791876336,True
54712,148444,1,148440,4892.0,43348.0,28727.0,-0.001403,-0.000183,0.000122,0.31500000000000006,-1.435,-4.0600000000000005,0.76165625,-0.14925,-0.06340625,1.02484375,0.7484375,-0.5691875,-0.5683125,1.010875,0.0170920385543885,0.020551116402479818,True
54713,148445,1,148441,4891.0,43351.0,28729.0,-0.0015249999999999999,0.000549,0.00042699999999999997,0.47250000000000003,-1.54,-4.112500000000001,0.76875,-0.15278125,-0.07162500000000001,1.02921875,0.74184375,-0.56884375,-0.56271875,1.01615625,0.016934557614254844,0.01999346061803521,True
54714,148446,1,148442,4892.0,43351.0,28730.0,-0.000915,-6.1e-05,0.001586,0.45500000000000007,-1.6275000000000002,-4.130000000000001,0.76725,-0.152625,-0.06896875,1.01675,0.75075,-0.5705625,-0.5698125,1.011125,0.017009683844234333,0.020384516568858636,True
54715,148447,1,148443,4895.0,43350.0,28730.0,-0.00061,-0.00042699999999999997,-0.000183,0.4025,-1.7500000000000002,-4.2175,0.77475,-0.1530625,-0.0685625,1.0345,0.73490625,-0.56875,-0.5675,1.01209375,0.0169193589417451,0.020308842983616567,True
54716,148448,1,148444,4895.0,43353.0,28731.0,0.00042699999999999997,-0.000488,6.1e-05,0.31500000000000006,-1.7500000000000002,-4.0425,0.77925,-0.15540625,-0.0715625,1.03646875,0.7411875,-0.5679062500000001,-0.56771875,1.00603125,0.01679019757737801,0.020195454655308608,True
54717,148449,1,148445,4895.0,43352.0,28734.0,0.000976,-0.000549,-0.0006709999999999999,0.31500000000000006,-1.8200000000000003,-4.077500000000001,0.77890625,-0.153125,-0.07037500000000001,1.03384375,0.7415,-0.5675625,-0.56696875,1.013875,0.016869296658958328,0.020213879663114727,True
54718,148450,1,148446,4897.0,43352.0,28734.0,0.000549,0.000305,-0.000244,0.3325,-2.0300000000000002,-4.235,0.7784375,-0.15646875,-0.07034375,1.032,0.74215625,-0.56040625,-0.5670625,1.01171875,0.016446694565567296,0.020218890638634558,True
54719,148451,1,148447,4897.0,43353.0,28735.0,-6.1e-05,-0.00061,-6.1e-05,0.31500000000000006,-1.9425000000000001,-4.2700000000000005,0.7728125,-0.14959375,-0.07084375,1.02796875,0.73990625,-0.57053125,-0.56675,1.01665625,0.017131802960100837,0.020186074674102192,True
54720,148452,1,148448,4901.0,43355.0,28737.0,0.000122,0.000549,0.000305,0.43750000000000006,-2.0300000000000002,-4.130000000000001,0.77128125,-0.15315625,-0.06871875,1.02715625,0.74715625,-0.5709062500000001,-0.56921875,1.01859375,0.017001814900498433,0.020371018105734433,True
54721,148453,1,148449,4900.0,43355.0,28737.0,6.1e-05,-0.000122,-0.00042699999999999997,0.43750000000000006,-1.9600000000000002,-4.095000000000001,0.77171875,-0.15303125,-0.06815625,1.02734375,0.748125,-0.57078125,-0.5683125,1.01865625,0.01700190139456799,0.02035777793041341,True
54722,148454,1,148450,4901.0,43358.0,28739.0,0.001098,0.000244,0.000366,0.31500000000000006,-2.24,-4.112500000000001,0.77190625,-0.146375,-0.06515625,1.01903125,0.7438750000000001,-0.5710625,-0.5713125,1.012125,0.017284051106866052,0.02059947957602997,True
54723,148455,1,148451,4902.0,43359.0,28739.0,0.003843,0.000732,0.0011589999999999999,0.36750000000000005,-2.0650000000000004,-3.8850000000000002,0.777,-0.15425,-0.0713125,1.0331875,0.7394375,-0.56759375,-0.56659375,1.01115625,0.016824755171637434,0.020160762010402847,True
54724,148456,1,148452,4904.0,43356.0,28738.0,0.002623,0.000915,0.001403,0.35000000000000003,-1.995,-3.7975000000000003,0.7783125,-0.153625,-0.069,1.0267187500000001,0.742125,-0.56759375,-0.56734375,1.01971875,0.016850195188529603,0.02028480388727414,True
54725,148457,1,148453,4905.0,43358.0,28740.0,0.000915,0.000793,-0.00042699999999999997,0.29750000000000004,-1.8025000000000002,-3.8150000000000004,0.7714375,-0.14815625,-0.06853125,1.0273125,0.7508125,-0.5685,-0.56759375,1.01503125,0.017109052241691597,0.020313853488398717,True
54726,148458,1,148454,4906.0,43356.0,28741.0,-0.000976,0.00061,-0.001403,0.42000000000000004,-1.4875,-3.8325000000000005,0.77096875,-0.1528125,-0.0689375,1.02715625,0.74865625,-0.5709375,-0.569875,1.018125,0.01701705521004235,0.020388280363656714,True
54727,148459,1,148455,4909.0,43361.0,28743.0,-0.003355,-0.000366,-0.001037,0.5425000000000001,-1.33,-3.8150000000000004,0.77134375,-0.1526875,-0.06946875,1.02728125,0.74809375,-0.57121875,-0.57071875,1.01765625,0.017033393998822303,0.020400298627812834,True
54728,148460,1,148456,4910.0,43360.0,28745.0,-0.0035989999999999998,-0.0006709999999999999,-0.00061,0.43750000000000006,-1.3125000000000002,-3.9375000000000004,0.76903125,-0.1528125,-0.06865625,1.02628125,0.75,-0.5711875,-0.5695,1.017625,0.01702705658812786,0.020384775839964182,True
54729,148461,1,148457,4911.0,43362.0,28744.0,-0.004026,-0.001037,0.000732,0.45500000000000007,-1.4525000000000001,-3.9200000000000004,0.773375,-0.15465625,-0.07100000000000001,1.03409375,0.749,-0.5675,-0.56725,1.00275,0.016804467284013434,0.020199656046159014,True
54730,148462,1,148458,4912.0,43364.0,28743.0,-0.002379,-0.0013419999999999999,0.000732,0.45500000000000007,-1.7325000000000002,-3.9550000000000005,0.7720312500000001,-0.15721875,-0.07165625,1.027875,0.74153125,-0.565625,-0.568125,1.0121875,0.01662511130899377,0.0202078404436643,True
54731,148463,1,148459,4911.0,43364.0,28743.0,0.001464,-6.1e-05,0.000244,0.3325,-1.8900000000000001,-4.0075,0.771625,-0.1526875,-0.069125,1.028,0.73271875,-0.5690937500000001,-0.56803125,1.01521875,0.016948376453649213,0.020307131854531486,True
54732,148464,1,148460,4912.0,43361.0,28740.0,0.003172,0.000122,6.1e-05,0.3325,-2.5025000000000004,-3.9550000000000005,0.77015625,-0.15209375,-0.06978125,1.03415625,0.74709375,-0.56853125,-0.5679375,1.0109062500000001,0.016950036441433593,0.020276681752385603,True
54733,148465,1,148461,4911.0,43359.0,28735.0,0.004514,0.0,-0.000122,0.22750000000000004,-2.765,-3.99,0.777375,-0.1553125,-0.07134375,1.0343125,0.74209375,-0.56871875,-0.5634375,1.012125,0.01682652865241498,0.020033586504331898,True
