frame_seq,absolute_seq_u64,segment_id,sample_seq,PPG_G,PPG_R,PPG_IR,ACC_X,ACC_Y,ACC_Z,GYRO_X,GYRO_Y,GYRO_Z,Uh1,Uh2,Uh3,Uh4,Uc1,Uc2,Uc3,Uc4,UD1,UD2,parser_valid
29694,23252,0,23253,5266.0,44787.0,29974.0,0.002013,0.002074,0.001281,0.5425000000000001,-1.9775000000000003,-3.9550000000000005,0.86771875,0.043687500000000004,0.2975625,1.1364375,0.844,-0.4240625,-0.26678125,1.11953125,0.019151195670253463,0.023255813953488372,True
29695,23253,0,23254,5266.0,44788.0,29974.0,-6.1e-05,0.0017079999999999999,0.000244,0.43750000000000006,-1.6975000000000002,-3.8850000000000002,0.87621875,0.038875,0.2921875,1.14265625,0.840125,-0.42403125,-0.26653125,1.12425,0.01895290115140186,0.023024252796740363,True
29696,23254,0,23255,5267.0,44789.0,29975.0,-0.001098,-0.000305,-0.001952,0.49000000000000005,-1.6800000000000002,-3.9550000000000005,0.8686875000000001,0.039625,0.29878125,1.13903125,0.83109375,-0.42096875,-0.26571875,1.12084375,0.01886058471779503,0.023263271358900092,True
29697,23255,0,23256,5266.0,44788.0,29974.0,-0.0015249999999999999,0.000366,-0.002989,0.47250000000000003,-1.6975000000000002,-3.9025000000000003,0.87059375,0.03578125,0.29796875,1.13403125,0.83965625,-0.4263125,-0.26746875000000003,1.12459375,0.01891786777066739,0.023300225739448004,True
29698,23256,0,23257,5268.0,44789.0,29976.0,6.1e-05,6.1e-05,-0.001647,0.45500000000000007,-1.7325000000000002,-3.9375000000000004,0.8668125,0.03809375,0.29878125,1.13540625,0.84109375,-0.42525,-0.2650625,1.1200625,0.018969867248032263,0.023236855458336446,True
29699,23257,0,23258,5269.0,44788.0,29975.0,-0.001586,-0.001464,0.000488,0.4025,-1.6450000000000002,-3.9200000000000004,0.8725937500000001,0.03865625,0.2951875,1.13603125,0.839125,-0.424,-0.26540625,1.124,0.01894268956763839,0.02310259075097908,True
29700,23258,0,23259,5267.0,44789.0,29974.0,-0.001647,-0.00042699999999999997,0.00042699999999999997,0.24500000000000002,-1.5050000000000001,-4.0425,0.86946875,0.0385,0.29712500000000003,1.13671875,0.84521875,-0.42562500000000003,-0.26496875000000003,1.113875,0.019001560860776336,0.023164824805307033,True
29701,23259,0,23260,5267.0,44787.0,29974.0,-0.000244,-0.001647,0.000305,0.22750000000000004,-1.6800000000000002,-4.130000000000001,0.8703125,0.045875,0.29696875,1.1313125,0.8367187500000001,-0.42434375,-0.26565625,1.11853125,0.019252052575619356,0.023186061576224624,True
29702,23260,0,23261,5268.0,44788.0,29971.0,0.001037,0.000366,0.000122,0.21000000000000002,-1.715,-4.130000000000001,0.8790625,0.0375,0.29821875000000003,1.13715625,0.83325,-0.43109375,-0.26909375,1.1203750000000001,0.01918021987861268,0.02337592436882816,True
29703,23261,0,23262,5269.0,44788.0,29972.0,0.0025009999999999998,-0.000488,0.000122,0.24500000000000002,-1.7850000000000001,-4.025,0.8704375,0.04115625,0.29675,1.14515625,0.84021875,-0.4204375,-0.274875,1.1456875,0.01890194432429804,0.023548010030947638,True
29704,23262,0,23263,5269.0,44787.0,29972.0,0.0011589999999999999,-0.000549,0.0,0.1925,-1.7500000000000002,-3.9375000000000004,0.87509375,0.04128125,0.29812500000000003,1.1365,0.8476875,-0.42146875,-0.2609375,1.1148125,0.018948491785531943,0.02304373027629291,True
29705,23263,0,23264,5267.0,44787.0,29969.0,0.000122,0.000793,0.000488,0.3325,-1.6625,-3.8850000000000002,0.870625,0.03703125,0.29584375,1.13690625,0.8314375,-0.437,-0.270625,1.1173125,0.01939809510169006,0.023339685319187294,True
29706,23264,0,23265,5265.0,44785.0,29968.0,6.1e-05,0.000793,0.000732,0.36750000000000005,-1.5225000000000002,-3.8500000000000005,0.86946875,0.03840625,0.29615625,1.144375,0.82684375,-0.41590625000000003,-0.2679375,1.13878125,0.018607234781629293,0.023244404267977043,True
29707,23265,0,23266,5267.0,44786.0,29968.0,-0.000915,0.000793,0.000793,0.3325,-1.5050000000000001,-3.8150000000000004,0.86946875,0.04409375,0.2949375,1.14196875,0.84546875,-0.42115625,-0.26865625,1.135125,0.019051104511073263,0.02322311314620067,True
29708,23266,0,23267,5265.0,44787.0,29966.0,-0.000366,0.000122,-0.00042699999999999997,0.31500000000000006,-1.5575,-3.7975000000000003,0.87059375,0.03871875,0.2954375,1.1400937500000001,0.8307187500000001,-0.4204375,-0.26746875000000003,1.13840625,0.018802130387713164,0.02319591943432502,True
29709,23267,0,23268,5263.0,44785.0,29968.0,-0.0018909999999999999,0.00122,0.0006709999999999999,0.47250000000000003,-1.435,-3.8325000000000005,0.8698125,0.0371875,0.29628125,1.13678125,0.8269375,-0.4234375,-0.27171875,1.1055625,0.018859957776213934,0.023401721396429744,True
29710,23268,0,23269,5262.0,44786.0,29966.0,-0.001586,0.000183,0.0006709999999999999,0.43750000000000006,-1.4175000000000002,-3.7975000000000003,0.870375,0.037,0.2989375,1.13565625,0.8319062500000001,-0.43643750000000003,-0.2668125,1.11003125,0.019374243892956982,0.023313733519801993,True
29711,23269,0,23270,5262.0,44787.0,29966.0,-0.00042699999999999997,0.000366,0.000305,0.4025,-1.435,-3.7800000000000002,0.8780625,0.0383125,0.29796875,1.1441875,0.8569687500000001,-0.42696875,-0.26109375,1.1398125000000001,0.019047850544288265,0.02304358186654301,True
29712,23270,0,23271,5260.0,44783.0,29963.0,0.000793,-0.000732,0.000122,0.2625,-1.4700000000000002,-3.9200000000000004,0.8636875,0.037125,0.29471875000000003,1.1379062500000001,0.83859375,-0.42128125,-0.27621875,1.12665625,0.01877076985876816,0.023518386692738136,True
29713,23271,0,23272,5258.0,44785.0,29964.0,-0.000122,-0.001098,0.00061,0.24500000000000002,-1.435,-3.9025000000000003,0.8705625,0.04015625,0.2964375,1.13728125,0.8264375,-0.4251875,-0.2715625,1.119875,0.019051798476470243,0.023401872046762546,True
29714,23272,0,23273,5260.0,44786.0,29965.0,-0.00042699999999999997,-0.000549,-0.0013419999999999999,0.385,-1.5925000000000002,-3.8850000000000002,0.87040625,0.03665625,0.2986875,1.13221875,0.827125,-0.42790625,-0.26184375,1.1093125,0.019017696205543607,0.02310340697004942,True
29715,23273,0,23274,5260.0,44782.0,29963.0,0.001403,-0.000488,-0.001281,0.36750000000000005,-1.6625,-3.9200000000000004,0.876375,0.039281250000000004,0.2986875,1.14184375,0.8396875,-0.42759375,-0.2618125,1.11609375,0.019112607028680423,0.02310214869560961,True
29716,23274,0,23275,5259.0,44787.0,29965.0,0.0008539999999999999,-0.000488,-0.00042699999999999997,0.29750000000000004,-1.5050000000000001,-3.99,0.8755000000000001,0.0393125,0.2975625,1.1420625,0.84578125,-0.42509375,-0.2650625,1.120625,0.019013488945155022,0.023186628923787027,True
29717,23275,0,23276,5257.0,44783.0,29965.0,0.001098,-0.0006709999999999999,0.0006709999999999999,0.3325,-1.3475000000000001,-4.0600000000000005,0.86971875,0.0386875,0.2980625,1.14103125,0.8405312500000001,-0.4270625,-0.261625,1.1202812500000001,0.019066967221294005,0.023068838134296447,True
29718,23276,0,23277,5258.0,44784.0,29965.0,-0.000549,-0.000122,0.001281,0.29750000000000004,-1.2075,-3.99,0.8699687500000001,0.036375,0.2976875,1.1426875,0.8481562500000001,-0.4240625,-0.26678125,1.1203125,0.01885179830341492,0.02326096502806692,True
29719,23277,0,23278,5257.0,44784.0,29964.0,0.000122,-0.000305,-0.000488,0.525,-1.2775,-4.0075,0.87046875,0.03675,0.29625,1.13653125,0.8455312500000001,-0.42334375,-0.265125,1.11975,0.018838278440068225,0.023135054939960126,True
29720,23278,0,23279,5257.0,44784.0,29965.0,0.000122,0.001464,-0.00042699999999999997,0.56,-1.5575,-4.077500000000001,0.875625,0.0384375,0.3015625,1.14215625,0.82828125,-0.42184375,-0.26384375,1.1195,0.0188471130481293,0.023302418851094027,True
29721,23279,0,23280,5257.0,44784.0,29965.0,0.0011589999999999999,0.002074,-0.0008539999999999999,0.5950000000000001,-1.5925000000000002,-4.0425,0.86975,0.03628125,0.30028125,1.14271875,0.8474375000000001,-0.42415625,-0.26628125,1.11734375,0.018851725942426362,0.023347726590781194,True
29722,23280,0,23281,5258.0,44786.0,29967.0,0.000976,0.001098,0.00042699999999999997,0.5775,-1.5225000000000002,-3.9725000000000006,0.8704375,0.038875,0.29603125,1.1361875000000001,0.84440625,-0.42378125,-0.265,1.1246875,0.018942859226599076,0.023121007624150012,True
29723,23281,0,23282,5258.0,44783.0,29966.0,0.00042699999999999997,0.0015249999999999999,0.00042699999999999997,0.56,-1.4875,-4.0600000000000005,0.8708125,0.03715625,0.29871875000000003,1.1410625,0.83946875,-0.42396875,-0.267125,1.11978125,0.0188800192433918,0.02331729654831382,True
29724,23282,0,23283,5258.0,44782.0,29966.0,-0.001037,-0.001464,0.000732,0.3325,-1.2950000000000002,-4.0425,0.86959375,0.03875,0.2976875,1.13640625,0.84184375,-0.42684375,-0.26440625,1.1260937500000001,0.019060741320703786,0.023165361814695137,True
29725,23283,0,23284,5257.0,44787.0,29968.0,-0.00122,-0.0013419999999999999,-0.000366,0.28,-1.435,-3.9375000000000004,0.87046875,0.035937500000000004,0.29915625,1.1394375,0.84328125,-0.42471875000000003,-0.2664375,1.11996875,0.018860247879005775,0.023307654862812065,True
29726,23284,0,23285,5259.0,44787.0,29969.0,-0.000122,-0.001037,-0.000305,0.31500000000000006,-1.5050000000000001,-3.8675,0.8845625,0.03865625,0.295625,1.135125,0.839375,-0.42690625,-0.259875,1.1193125,0.019059413223891177,0.022897892095486892,True
29727,23285,0,23286,5257.0,44786.0,29968.0,0.000732,-0.001586,-0.0011589999999999999,0.385,-1.5225000000000002,-3.9375000000000004,0.86809375,0.029875000000000002,0.2996875,1.133875,0.8456875,-0.42425,-0.26540625,1.1278125,0.018593201428907746,0.023288039943695563,True
29728,23286,0,23287,5255.0,44785.0,29966.0,0.001281,0.000305,-0.001647,0.36750000000000005,-1.4700000000000002,-3.9200000000000004,0.88328125,0.039843750000000004,0.29534375,1.1339375,0.8399375,-0.424,-0.26446875000000003,1.12025,0.01899130977726826,0.023071286075447256,True
29729,23287,0,23288,5258.0,44786.0,29969.0,0.000549,0.000305,0.000549,0.49000000000000005,-1.6625,-4.0600000000000005,0.8650625000000001,0.03265625,0.3019375,1.1345,0.8466875,-0.423875,-0.264875,1.1278125,0.0186920073084226,0.02335938264672701,True
29730,23288,0,23289,5257.0,44785.0,29966.0,0.000732,0.0008539999999999999,0.001647,0.5950000000000001,-1.5225000000000002,-4.0075,0.8858125,0.035312500000000004,0.30209375,1.13715625,0.8355312500000001,-0.42428125,-0.2679375,1.122875,0.01881708392135388,0.02348906865282639,True
29731,23289,0,23290,5257.0,44781.0,29965.0,0.000793,0.001098,0.001037,0.4025,-1.435,-4.025,0.88796875,0.0378125,0.30209375,1.1436250000000001,0.8396250000000001,-0.42462500000000003,-0.2669375,1.12040625,0.018933248719274095,0.02344882826685485,True
29732,23290,0,23291,5258.0,44783.0,29966.0,-6.1e-05,0.000732,0.001586,0.4025,-1.435,-3.8850000000000002,0.87775,0.04021875,0.29528125,1.1322812500000001,0.8389375,-0.42684375,-0.2623125,1.1158125,0.019120869842220202,0.022981888061989145,True
29733,23291,0,23292,5257.0,44783.0,29967.0,-0.0017079999999999999,0.000732,0.001037,0.45500000000000007,-1.33,-3.9025000000000003,0.86421875,0.03065625,0.2961875,1.13146875,0.8469375,-0.42384375,-0.26465625,1.1250625,0.01860886454450889,0.02311360788389491,True
29734,23292,0,23293,5257.0,44785.0,29965.0,-0.0011589999999999999,-0.000305,-0.001098,0.49000000000000005,-1.2425000000000002,-3.8675,0.8638750000000001,0.03425,0.2973125,1.13153125,0.8454375000000001,-0.42428125,-0.2644375,1.12778125,0.01877358212946389,0.023151165156826733,True
29735,23293,0,23294,5258.0,44784.0,29967.0,-0.000122,0.000183,0.000732,0.43750000000000006,-1.4175000000000002,-3.9200000000000004,0.85165625,0.03265625,0.30625,1.13453125,0.84390625,-0.42403125,-0.25946875,1.1276875,0.018698285116221347,0.023319502822995664,True
29736,23294,0,23295,5256.0,44780.0,29965.0,0.000183,-0.001037,-0.00061,0.43750000000000006,-1.3825,-3.99,0.88009375,0.0425625,0.296625,1.14996875,0.8390625,-0.4258125,-0.26415625,1.11996875,0.019175411258069715,0.023111508359166623,True
29737,23295,0,23296,5257.0,44782.0,29963.0,-0.000305,-0.000305,-0.000915,0.24500000000000002,-1.435,-4.025,0.86365625,0.038125,0.29603125,1.140125,0.8326250000000001,-0.42362500000000003,-0.26396875000000003,1.11790625,0.0189058749469008,0.023079489005688736,True
29738,23296,0,23297,5258.0,44783.0,29966.0,0.0006709999999999999,-0.000915,0.000244,0.28,-1.5050000000000001,-4.0075,0.86365625,0.03828125,0.29925,1.13959375,0.84571875,-0.42365625,-0.26359375,1.1244375,0.018913527740139234,0.02319704804652032,True
29739,23297,0,23298,5257.0,44783.0,29965.0,0.0008539999999999999,-0.000549,-0.0011589999999999999,0.4025,-1.6800000000000002,-4.0075,0.86803125,0.0395625,0.299,1.1448125,0.845875,-0.42684375,-0.26296875000000003,1.11975,0.01909400390707457,0.023161582401164327,True
29740,23298,0,23299,5258.0,44783.0,29966.0,0.001098,-0.000488,-0.00061,0.47250000000000003,-1.5575,-3.9200000000000004,0.876375,0.03875,0.2989375,1.1373125,0.8444375000000001,-0.42662500000000003,-0.263625,1.119375,0.01905195662519894,0.023185426744767118,True
29741,23299,0,23300,5258.0,44783.0,29967.0,0.000488,-0.000305,0.0011589999999999999,0.5075000000000001,-1.4700000000000002,-3.9200000000000004,0.87884375,0.039125,0.3005,1.13303125,0.84009375,-0.42734375,-0.258,1.1191875,0.019096171682604666,0.023023332508863056,True
29742,23300,0,23301,5258.0,44784.0,29968.0,0.000549,0.0011589999999999999,0.000488,0.6300000000000001,-1.5050000000000001,-3.9550000000000005,0.875375,0.03840625,0.2996875,1.143875,0.842,-0.42725,-0.2584375,1.1203750000000001,0.019062982939135595,0.023007458745024283,True
29743,23301,0,23302,5256.0,44783.0,29967.0,-0.000305,0.001464,0.000549,0.5775,-1.33,-3.9725000000000006,0.8724375,0.0390625,0.29990625,1.142875,0.8463125,-0.426,-0.2629375,1.1203125,0.019039650372553837,0.023197675466954486,True
29744,23302,0,23303,5259.0,44785.0,29971.0,0.000366,0.000366,-0.000244,0.5075000000000001,-1.2425000000000002,-3.9725000000000006,0.87271875,0.0415625,0.29990625,1.14384375,0.83534375,-0.425,-0.26340625,1.12059375,0.019101842374616172,0.023216546522605415,True
29745,23303,0,23304,5260.0,44785.0,29972.0,-0.0017079999999999999,0.000305,0.000183,0.56,-1.2775,-4.0075,0.8777812500000001,0.03875,0.3004375,1.139375,0.8349062500000001,-0.4275625,-0.2651875,1.1214375,0.019089604212454682,0.023310143389578177,True
29746,23304,0,23305,5259.0,44786.0,29971.0,-0.002257,-0.000549,-0.00042699999999999997,0.49000000000000005,-1.4175000000000002,-3.9200000000000004,0.87684375,0.03840625,0.3048125,1.14384375,0.840875,-0.42571875000000003,-0.26328125,1.1196875,0.01900148792960289,0.023413723154200344,True
29747,23305,0,23306,5259.0,44786.0,29973.0,-0.000305,-0.000244,0.0008539999999999999,0.5075000000000001,-1.3475000000000001,-3.9025000000000003,0.87515625,0.041625,0.299875,1.14259375,0.8445312500000001,-0.42303125,-0.26246875000000003,1.1188125,0.019025330854457307,0.023177515684590012,True
29748,23306,0,23307,5261.0,44784.0,29970.0,-6.1e-05,-0.0011589999999999999,6.1e-05,0.42000000000000004,-1.4000000000000001,-4.0600000000000005,0.87271875,0.03865625,0.3001875,1.1368125,0.84475,-0.42728125,-0.26609375,1.10809375,0.0190744723177083,0.023336316748549614,True
29749,23307,0,23308,5260.0,44783.0,29973.0,-0.000122,-0.0018909999999999999,-0.000549,0.29750000000000004,-1.4525000000000001,-4.0075,0.8770625,0.0376875,0.3010625,1.13684375,0.837,-0.42496875,-0.26471875,1.1260937500000001,0.018941938257341678,0.02331703308945215,True
29750,23308,0,23309,5260.0,44786.0,29973.0,0.00061,0.000366,-0.001037,0.36750000000000005,-1.5575,-4.0600000000000005,0.8704375,0.035125,0.29703125,1.141375,0.8399375,-0.42434375,-0.263625,1.127,0.018811917925123375,0.02310686263903271,True
29751,23309,0,23310,5260.0,44784.0,29973.0,0.000732,-0.00042699999999999997,-0.000793,0.45500000000000007,-1.435,-4.077500000000001,0.86165625,0.03846875,0.29790625,1.1440937500000001,0.8481562500000001,-0.4234375,-0.263125,1.12075,0.018912417631629454,0.023122794363875224,True
29752,23310,0,23311,5261.0,44784.0,29972.0,0.001403,0.000549,0.0008539999999999999,0.385,-1.4525000000000001,-4.130000000000001,0.8716875000000001,0.0386875,0.30059375,1.1374375,0.84690625,-0.42615625,-0.26471875,1.122,0.019030573015351118,0.02329771491787845,True
29753,23311,0,23312,5263.0,44787.0,29974.0,0.000244,0.000122,0.000183,0.49000000000000005,-1.4000000000000001,-4.025,0.8703125,0.035437500000000004,0.29803125,1.13678125,0.82765625,-0.42365625,-0.26378125,1.125375,0.018797093494140542,0.023154367170203534,True
29754,23312,0,23313,5262.0,44784.0,29972.0,-0.001647,0.00122,0.000183,0.56,-1.4875,-4.0075,0.8700625000000001,0.03734375,0.30034375,1.1365625,0.8395312500000001,-0.42459375,-0.26434375,1.12690625,0.018912801773826843,0.02327231701867066,True
29755,23313,0,23314,5264.0,44784.0,29973.0,-0.0017079999999999999,0.001098,-0.000366,0.56,-1.5750000000000002,-4.1475,0.8590625000000001,0.03809375,0.29978125,1.13959375,0.83809375,-0.4244375,-0.2623125,1.12575,0.018937232433704973,0.023167360901810166,True
29756,23314,0,23315,5262.0,44785.0,29971.0,0.000549,0.000732,0.001037,0.6300000000000001,-1.6275000000000002,-4.077500000000001,0.87040625,0.0388125,0.3083125,1.1391875,0.84765625,-0.42621875000000004,-0.26228125,1.11971875,0.019038200499207434,0.02351772877911058,True
29757,23315,0,23316,5262.0,44786.0,29974.0,0.0013419999999999999,0.000488,0.000915,0.42000000000000004,-1.6975000000000002,-3.9725000000000006,0.8681875,0.0370625,0.30190625,1.137625,0.8395625,-0.4268125,-0.26075,1.1201875000000001,0.01899040245222335,0.023192038580835298,True
29758,23316,0,23317,5262.0,44784.0,29975.0,0.000915,0.000549,0.000122,0.3325,-1.6625,-4.077500000000001,0.87,0.03709375,0.30012500000000003,1.13740625,0.840125,-0.42365625,-0.26065625,1.12621875,0.018864906846205714,0.023114842575620766,True
29759,23317,0,23318,5265.0,44786.0,29976.0,0.0008539999999999999,0.000305,0.000549,0.45500000000000007,-1.5925000000000002,-4.095000000000001,0.8700625000000001,0.03615625,0.30034375,1.14084375,0.83859375,-0.42440625,-0.26206250000000003,1.12528125,0.018856650814183046,0.023180479812876586,True
29760,23318,0,23319,5265.0,44784.0,29976.0,-0.000305,0.000549,-0.000549,0.5425000000000001,-1.5225000000000002,-4.165,0.87034375,0.03878125,0.30228125,1.14084375,0.8493437500000001,-0.42653125000000003,-0.2619375,1.120125,0.01904947105414323,0.023255304734009805,True
29761,23319,0,23320,5264.0,44787.0,29975.0,-0.000305,0.00042699999999999997,-0.0008539999999999999,0.43750000000000006,-1.5925000000000002,-4.0425,0.8746875000000001,0.03771875,0.3028125,1.1369375,0.83984375,-0.42475,-0.2643125,1.1204687500000001,0.01893443126337015,0.023372803165142224,True
29762,23320,0,23321,5265.0,44786.0,29976.0,-0.002745,-0.0018909999999999999,-0.001464,0.28,-1.6975000000000002,-3.9550000000000005,0.874625,0.0391875,0.302375,1.14046875,0.837,-0.42609375,-0.2608125,1.11040625,0.01904853288299526,0.023213876287119403,True
29763,23321,0,23322,5267.0,44785.0,29977.0,-0.001769,-0.003111,-0.000366,-0.035,-1.6975000000000002,-4.0075,0.8726875000000001,0.0396875,0.30196875,1.14221875,0.8503125,-0.42615625,-0.259625,1.117875,0.01907151273545137,0.02314931702365556,True
29764,23322,0,23323,5267.0,44786.0,29976.0,-6.1e-05,-0.002196,0.00122,0.31500000000000006,-1.7500000000000002,-4.095000000000001,0.8615625,0.039593750000000004,0.3015625,1.14375,0.844375,-0.4278125,-0.25975,1.11784375,0.01913418362778083,0.023137604468306556,True
29765,23323,0,23324,5268.0,44784.0,29976.0,0.0015249999999999999,0.0011589999999999999,0.00061,0.6125,-1.7675,-4.0425,0.8709687500000001,0.039718750000000004,0.29934375,1.1633125,0.8503125,-0.4270625,-0.26053125,1.11765625,0.01910918474130895,0.02307760676098138,True
29766,23324,0,23325,5267.0,44786.0,29976.0,0.002379,0.001403,0.001403,0.56,-1.6975000000000002,-4.0425,0.8680625000000001,0.0395625,0.2985625,1.1593437500000001,0.8479375,-0.4294375,-0.25946875,1.1180625,0.019198149773198833,0.023002616246491383,True
29767,23325,0,23326,5270.0,44788.0,29978.0,0.0046359999999999995,0.0032329999999999998,0.00183,0.5775,-1.61,-4.025,0.86284375,0.039718750000000004,0.29321875000000003,1.15515625,0.849875,-0.42675,-0.25821875,1.11690625,0.019096635860276136,0.02273198645304491,True
29768,23326,0,23327,5269.0,44788.0,29977.0,0.0028669999999999998,0.001647,-0.0013419999999999999,0.5425000000000001,-1.3125000000000002,-4.1825,0.8615,0.04240625,0.30321875,1.16028125,0.837375,-0.429,-0.2581875,1.11740625,0.01929699332760244,0.02314295946471681,True
29769,23327,0,23328,5270.0,44787.0,29979.0,0.001037,0.001403,-0.00183,0.5775,-1.155,-4.130000000000001,0.8758125,0.043000000000000003,0.3050625,1.1596875,0.8400625,-0.4275,-0.2615,1.11790625,0.019261078702282265,0.023352327762092204,True
29770,23328,0,23329,5272.0,44789.0,29978.0,-0.0017079999999999999,-0.000183,-0.0013419999999999999,0.6300000000000001,-0.9100000000000001,-3.99,0.8729687500000001,0.043000000000000003,0.3011875,1.1561875,0.83903125,-0.42934375,-0.2559375,1.116875,0.019335097775600295,0.022968603048222725,True
29771,23329,0,23330,5272.0,44790.0,29980.0,-0.004331,-0.001281,-0.0006709999999999999,0.525,-0.6825000000000001,-4.095000000000001,0.8581562500000001,0.0394375,0.2991875,1.1328125,0.85178125,-0.42725,-0.25878125,1.118875,0.019105200135095028,0.02300069175981378,True
29772,23330,0,23331,5271.0,44787.0,29978.0,-0.0044529999999999995,-0.0008539999999999999,0.001464,0.36750000000000005,-0.6125,-4.025,0.8574375,0.0405625,0.29762500000000003,1.14259375,0.8501875,-0.42178125,-0.2595,1.1263750000000001,0.018931614580734155,0.02296523011603702,True
29773,23331,0,23332,5272.0,44787.0,29977.0,-0.002562,-0.0006709999999999999,-0.0060999999999999995,-0.052500000000000005,-1.0850000000000002,-4.1825,0.85878125,0.03696875,0.29140625000000003,1.1576875,0.8491562500000001,-0.42265625,-0.25956250000000003,1.11784375,0.01881961549534564,0.022711405038734724,True
29774,23332,0,23333,5271.0,44788.0,29975.0,-0.0059169999999999995,-0.00042699999999999997,-0.0008539999999999999,0.47250000000000003,-0.7175,-4.165,0.858375,0.045,0.2986875,1.148125,0.84646875,-0.426,-0.25984375,1.1095625,0.019282731515598135,0.023022870870716135,True
29775,23333,0,23334,5272.0,44786.0,29973.0,-0.0075639999999999995,0.002074,0.000976,0.8400000000000001,-0.8400000000000001,-4.1825,0.86834375,0.04234375,0.2926875,1.13565625,0.8424375000000001,-0.4266875,-0.26059375,1.12025,0.019201590473534327,0.022805758824431074,True
29776,23334,0,23335,5270.0,44783.0,29973.0,-0.002013,0.002623,0.0028669999999999998,0.6475000000000001,-1.4175000000000002,-4.0600000000000005,0.8585625,0.03625,0.29640625,1.14134375,0.84590625,-0.42396875,-0.25990625,1.12221875,0.018842914299094,0.022931354073142802,True
29777,23335,0,23336,5272.0,44785.0,29970.0,0.0075639999999999995,-0.000122,0.0008539999999999999,0.24500000000000002,-2.1350000000000002,-3.9025000000000003,0.85784375,0.039375,0.29721875000000003,1.1355625,0.8479375,-0.42315625,-0.2596875,1.121375,0.018938225889620634,0.022956035604333323,True
29778,23336,0,23337,5271.0,44784.0,29970.0,0.008845,-0.001281,-0.00122,-0.17500000000000002,-2.3275,-4.0075,0.8613125,0.03903125,0.29921875000000003,1.1355625,0.848375,-0.424,-0.26103125,1.12003125,0.01895804331804782,0.02309258803662767,True
29779,23337,0,23338,5268.0,44786.0,29973.0,0.0035989999999999998,-0.001464,-0.001098,0.07,-1.9775000000000003,-3.9725000000000006,0.8697812500000001,0.035375000000000004,0.3021875,1.13996875,0.8390625,-0.42421875000000003,-0.262,1.1208125,0.01881713207305761,0.02325395680488006,True
29780,23338,0,23339,5269.0,44784.0,29970.0,0.000488,-0.000305,-0.000732,0.31500000000000006,-1.6800000000000002,-3.7450000000000006,0.8775937500000001,0.03890625,0.3024375,1.14565625,0.844,-0.4240625,-0.26103125,1.12071875,0.018955435853474416,0.023225259643486918,True
29781,23339,0,23340,5269.0,44784.0,29967.0,-0.000305,0.000976,0.00042699999999999997,0.56,-1.3475000000000001,-3.6575,0.8761875,0.03828125,0.30315625,1.13665625,0.84721875,-0.4229375,-0.26046875,1.11984375,0.018884655050196153,0.023232238659856894,True
29782,23340,0,23341,5266.0,44784.0,29968.0,-0.004392,0.001586,0.000915,0.525,-1.1025,-3.6575,0.8780625,0.0391875,0.3038125,1.1405,0.841,-0.42446875,-0.2596875,1.1204375,0.01898326857160404,0.0232278342414757,True
29783,23341,0,23342,5265.0,44785.0,29965.0,-0.006893,-0.000366,0.001098,0.35000000000000003,-1.0850000000000002,-3.6400000000000006,0.8765000000000001,0.0395625,0.3039375,1.1380000000000001,0.8435,-0.42465625,-0.2598125,1.12015625,0.01900615285015526,0.023238019667299572,True
29784,23342,0,23343,5262.0,44784.0,29963.0,-0.005063,-0.000915,-0.00061,0.29750000000000004,-1.4525000000000001,-3.6400000000000006,0.87634375,0.04309375,0.3043125,1.13725,0.8446875,-0.42221875000000003,-0.25925,1.12003125,0.019052834828940348,0.023230829477415827,True
29785,23343,0,23344,5262.0,44785.0,29967.0,-0.001098,-0.00061,-0.00042699999999999997,0.29750000000000004,-1.9075000000000002,-3.5700000000000003,0.87746875,0.0350625,0.30834375,1.1376875,0.8397187500000001,-0.427375,-0.26025,1.1208125,0.01893111724039116,0.02343725847837512,True
29786,23344,0,23345,5261.0,44783.0,29963.0,0.0028669999999999998,-0.000549,0.001464,0.22750000000000004,-2.1700000000000004,-3.6575,0.87734375,0.04296875,0.3031875,1.1440625,0.84003125,-0.42225,-0.25956250000000003,1.1225,0.019048971736838335,0.023197038281296295,True
29787,23345,0,23346,5260.0,44784.0,29964.0,0.004697,-0.0011589999999999999,0.000793,0.21000000000000002,-2.3275,-3.7275000000000005,0.872,0.039468750000000004,0.303375,1.13690625,0.84846875,-0.42571875000000003,-0.25996875,1.1205625000000001,0.019044987161329695,0.023221124305858806,True
29788,23346,0,23347,5259.0,44785.0,29962.0,0.003965,0.000793,-0.002623,0.28,-2.1,-3.9725000000000006,0.8795000000000001,0.03890625,0.307375,1.1378125000000001,0.84090625,-0.42559375,-0.25896875,1.11103125,0.019016937919881682,0.02334574712702905,True
29789,23347,0,23348,5257.0,44784.0,29963.0,0.003355,0.0015249999999999999,-0.001403,0.5425000000000001,-1.8900000000000001,-3.9725000000000006,0.87728125,0.0394375,0.3075625,1.1366875,0.8398125000000001,-0.4258125,-0.2594375,1.12075,0.019047472832275283,0.023372347359661573,True
29790,23348,0,23349,5259.0,44784.0,29963.0,0.000732,0.00183,-0.0008539999999999999,0.665,-1.6975000000000002,-3.9025000000000003,0.87103125,0.0440625,0.30162500000000003,1.13753125,0.83984375,-0.423875,-0.2621875,1.1284375,0.01915901960683962,0.023238320946946767,True
29791,23349,0,23350,5258.0,44786.0,29963.0,0.000183,0.0013419999999999999,0.0008539999999999999,0.5950000000000001,-1.4000000000000001,-3.8675,0.8706875000000001,0.03890625,0.3019375,1.14184375,0.84028125,-0.42409375,-0.25975,1.1262812500000001,0.018956691074771197,0.02315306217087975,True
29792,23350,0,23351,5256.0,44782.0,29962.0,-0.000183,0.0006709999999999999,0.002013,0.385,-1.2775,-3.8500000000000005,0.87084375,0.0386875,0.3015,1.13875,0.843875,-0.4205,-0.2593125,1.1280000000000001,0.018803361929526422,0.023117411097284803,True
29793,23351,0,23352,5256.0,44784.0,29962.0,-0.002074,-0.0013419999999999999,-0.0008539999999999999,0.29750000000000004,-1.2425000000000002,-3.7975000000000003,0.8699687500000001,0.03890625,0.3010625,1.1415,0.8400625,-0.42421875000000003,-0.25965625000000003,1.1265,0.018961711927838017,0.02311321909188223,True
29794,23352,0,23353,5255.0,44784.0,29963.0,-0.00122,-0.0021349999999999997,-0.0015249999999999999,0.08750000000000001,-1.3650000000000002,-3.6400000000000006,0.87021875,0.03840625,0.30275,1.1425,0.8426250000000001,-0.423875,-0.25978125,1.1201875000000001,0.01892743268625474,0.023187812132477496,True
29795,23353,0,23354,5255.0,44781.0,29964.0,-0.001403,-0.002623,-0.0006709999999999999,0.24500000000000002,-1.4000000000000001,-3.5875000000000004,0.8767812500000001,0.038625,0.30403125000000003,1.1443125,0.8464375000000001,-0.4256875,-0.25928125,1.1204375,0.01900918858476348,0.02322049421806345,True
29796,23354,0,23355,5254.0,44783.0,29963.0,0.0,-0.002379,-0.000366,0.14,-1.5050000000000001,-3.6400000000000006,0.870375,0.039125,0.30440625,1.13459375,0.846375,-0.42553125,-0.25909375,1.120625,0.019023383575331655,0.02322840275103022,True
29797,23355,0,23356,5254.0,44784.0,29965.0,-0.001098,-0.00244,-0.000793,0.1925,-1.4700000000000002,-3.7800000000000002,0.87684375,0.037,0.3040625,1.13490625,0.8394375000000001,-0.42512500000000003,-0.26209375,1.11990625,0.018920066939268478,0.0233350120494032,True
29798,23356,0,23357,5252.0,44783.0,29964.0,-0.002623,0.000488,0.001769,0.525,-1.4525000000000001,-3.8675,0.87028125,0.0370625,0.3023125,1.13759375,0.839375,-0.42440625,-0.26075,1.124125,0.01889375509384184,0.02320878373504529,True
29799,23357,0,23358,5253.0,44784.0,29964.0,-0.00042699999999999997,0.002928,0.001037,0.6125,-1.5925000000000002,-3.9550000000000005,0.8701875,0.03896875,0.30246875,1.136375,0.83959375,-0.4239375,-0.26121875,1.1262812500000001,0.018952973901116478,0.023234096597063988,True
29800,23358,0,23359,5252.0,44782.0,29961.0,0.0018909999999999999,0.002989,0.000244,0.665,-1.8725000000000003,-4.0075,0.8703125,0.03784375,0.3031875,1.14071875,0.83996875,-0.4240625,-0.2584375,1.13034375,0.018911933671967963,0.023151738441521637,True
29801,23359,0,23360,5252.0,44784.0,29963.0,0.0042699999999999995,0.003843,-0.000793,0.665,-1.9250000000000003,-3.9725000000000006,0.8697812500000001,0.0383125,0.31,1.13940625,0.84015625,-0.423875,-0.2578125,1.13459375,0.018923594229007478,0.023407407407407408,True
29802,23360,0,23361,5252.0,44784.0,29965.0,0.002623,0.002623,-6.1e-05,0.5775,-1.9075000000000002,-3.8850000000000002,0.870625,0.04109375,0.30665625,1.1400937500000001,0.8498125,-0.42271875000000003,-0.25725,1.118,0.0189910265416294,0.023246915870512943,True
29803,23361,0,23362,5251.0,44785.0,29965.0,0.001464,0.001037,0.000549,0.3325,-1.61,-3.7800000000000002,0.87890625,0.036000000000000004,0.303,1.1377187500000001,0.852875,-0.43034375,-0.26025,1.11396875,0.019088710120994515,0.023216990756484375,True
29804,23362,0,23363,5251.0,44784.0,29963.0,-0.0008539999999999999,-0.001281,0.000549,0.17500000000000002,-1.4000000000000001,-3.6050000000000004,0.87053125,0.03578125,0.303375,1.12825,0.8335625,-0.42584375,-0.26315625,1.115625,0.018899040079219373,0.023349445725965676,True
29805,23363,0,23364,5250.0,44783.0,29964.0,-0.002745,-0.002989,-0.000122,0.035,-1.2425000000000002,-3.6925000000000003,0.87021875,0.0364375,0.3058125,1.129125,0.83228125,-0.43125,-0.259875,1.11459375,0.01914300332565874,0.02331782418499683,True
29806,23364,0,23365,5250.0,44782.0,29964.0,-0.003355,-0.004209,-0.000549,-0.07,-1.2600000000000002,-3.6925000000000003,0.8748125,0.03903125,0.311125,1.14475,0.84884375,-0.42878125,-0.253375,1.12059375,0.01915005481495316,0.023275111195864496,True
29807,23365,0,23366,5249.0,44782.0,29964.0,-0.003294,-0.0037819999999999998,-0.000488,0.12250000000000001,-1.3825,-3.8675,0.87828125,0.03896875,0.306,1.125625,0.848,-0.42359375,-0.25565625000000003,1.1150625,0.01893916614953522,0.023155681471203234,True
29808,23366,0,23367,5249.0,44783.0,29965.0,-0.00183,-0.00183,-0.000122,0.1925,-1.5225000000000002,-3.99,0.876625,0.0364375,0.3055,1.137125,0.84184375,-0.4306875,-0.2608125,1.1105,0.01912041975896094,0.023342684833824092,True
29809,23367,0,23368,5249.0,44783.0,29964.0,-0.000915,-0.001403,6.1e-05,0.42000000000000004,-1.6800000000000002,-4.0600000000000005,0.87053125,0.036625,0.30453125000000003,1.131125,0.82428125,-0.42959375,-0.26009375,1.1155625,0.019084179408427538,0.02327381772793026,True
29810,23368,0,23369,5250.0,44781.0,29966.0,0.001403,0.001464,-0.000183,0.5425000000000001,-1.9075000000000002,-4.130000000000001,0.8708125,0.03596875,0.30590625,1.1370625,0.8336875,-0.43121875,-0.26328125,1.10528125,0.019122562193095667,0.023458801558424832,True
29811,23369,0,23370,5249.0,44783.0,29964.0,0.004331,0.003904,0.001098,0.5950000000000001,-2.1,-4.1825,0.8701875,0.03925,0.3041875,1.14215625,0.8326875,-0.42503125,-0.263125,1.1359375,0.01900841989710863,0.023381674866695863,True
29812,23370,0,23371,5251.0,44782.0,29965.0,0.0055509999999999995,0.0042699999999999995,0.000488,0.5075000000000001,-2.24,-4.112500000000001,0.87040625,0.0395625,0.30415625,1.14546875,0.8320000000000001,-0.42128125,-0.25625,1.133125,0.018870580346803056,0.02310358155114661,True
29813,23371,0,23372,5250.0,44784.0,29966.0,0.003538,0.003355,0.000122,0.5775,-2.205,-4.0075,0.86203125,0.0389375,0.30596875,1.14325,0.8438125,-0.42171875000000003,-0.2545625,1.1195625,0.018862564699710174,0.02311034264171947,True
29814,23372,0,23373,5250.0,44784.0,29966.0,0.002196,0.001037,-6.1e-05,0.5075000000000001,-1.995,-3.8675,0.87165625,0.03896875,0.306125,1.144375,0.8442500000000001,-0.42296875,-0.25459375,1.1229375,0.01891406015085697,0.023118043360342816,True
29815,23373,0,23374,5249.0,44783.0,29965.0,-6.1e-05,-0.000976,-0.000488,0.2625,-1.7850000000000001,-3.7975000000000003,0.86671875,0.039125,0.306875,1.139,0.845875,-0.42281250000000004,-0.25675,1.12875,0.018914181157473165,0.02323580034423408,True
29816,23374,0,23375,5249.0,44782.0,29966.0,-0.0018909999999999999,-0.0037819999999999998,0.00042699999999999997,0.21000000000000002,-1.5575,-3.6925000000000003,0.86275,0.03721875,0.3068125,1.13753125,0.83378125,-0.42496875,-0.25734375,1.1269375,0.018922746830535863,0.02325713218290852,True
29817,23375,0,23376,5248.0,44784.0,29966.0,-0.0044529999999999995,-0.0030499999999999998,-0.000366,0.28,-1.33,-3.8675,0.87025,0.03628125,0.30503125000000003,1.13684375,0.83696875,-0.42415625,-0.2591875,1.12825,0.018851725942426362,0.02325794093474895,True
29818,23376,0,23377,5249.0,44782.0,29966.0,-0.005246,-0.001037,0.000244,0.385,-1.2600000000000002,-3.9200000000000004,0.87025,0.03884375,0.3073125,1.14059375,0.840125,-0.4180625,-0.25640625,1.1284687500000001,0.01871181425635224,0.023239994589058302,True
29819,23377,0,23378,5250.0,44786.0,29966.0,-0.0037819999999999998,-0.0013419999999999999,0.000305,0.42000000000000004,-1.3825,-3.9550000000000005,0.8711875,0.0385,0.30815625,1.14184375,0.846125,-0.4235625,-0.25390625,1.1203750000000001,0.018918718348316304,0.023174102109840555,True
29820,23378,0,23379,5249.0,44783.0,29967.0,-0.0023179999999999997,-0.0013419999999999999,-0.001281,0.42000000000000004,-1.7500000000000002,-3.9550000000000005,0.87065625,0.03803125,0.30584375,1.13721875,0.84565625,-0.4246875,-0.25725,1.1280937500000001,0.018944715259918882,0.02321342072988488,True
29821,23379,0,23380,5249.0,44782.0,29965.0,0.000488,-0.00042699999999999997,-0.000549,0.42000000000000004,-1.8900000000000001,-4.0425,0.87321875,0.037875,0.30853125,1.145125,0.83940625,-0.4271875,-0.25540625,1.1200625,0.019038724781557437,0.023249971333710397,True
29822,23380,0,23381,5250.0,44783.0,29965.0,0.005673,0.002074,0.0006709999999999999,0.42000000000000004,-2.1175,-4.0600000000000005,0.86909375,0.03703125,0.3063125,1.1378125000000001,0.8465,-0.42375,-0.26,1.1203750000000001,0.018866113925994167,0.023343466611706512,True
29823,23381,0,23382,5249.0,44781.0,29965.0,0.005124,0.0026839999999999998,0.000305,0.45500000000000007,-2.1700000000000004,-4.0075,0.8738125,0.03559375,0.30859375,1.1435625,0.8401875,-0.4239375,-0.2566875,1.12103125,0.018814789793824192,0.023304140353046964,True
29824,23382,0,23383,5250.0,44783.0,29967.0,0.0055509999999999995,0.0021349999999999997,0.00042699999999999997,0.43750000000000006,-1.9600000000000002,-4.0075,0.87128125,0.03734375,0.30878125,1.13690625,0.84775,-0.420875,-0.2568125,1.11909375,0.018763404259675383,0.023316903241099796,True
29825,23383,0,23384,5252.0,44783.0,29967.0,0.002562,0.000244,0.000793,0.2625,-1.8200000000000003,-4.025,0.88165625,0.04084375,0.31165625,1.14853125,0.83275,-0.42540625,-0.25471875,1.12175,0.01908873061220834,0.02335112626280196,True
29826,23384,0,23385,5252.0,44780.0,29966.0,-6.1e-05,-0.000244,-0.0015249999999999999,0.28,-1.6450000000000002,-3.9375000000000004,0.8707812500000001,0.039406250000000004,0.30465625,1.14396875,0.83984375,-0.41665625,-0.25490625,1.12728125,0.018678335613624412,0.023070074740033263,True
29827,23385,0,23386,5252.0,44782.0,29966.0,-0.003965,-0.001037,0.00042699999999999997,0.22750000000000004,-1.4175000000000002,-3.8325000000000005,0.86775,0.03853125,0.30475,1.1343125,0.84646875,-0.423875,-0.25303125,1.1241875000000001,0.01893255062925109,0.022998413858061558,True
29828,23386,0,23387,5251.0,44781.0,29967.0,-0.003904,-0.001281,0.000244,0.35000000000000003,-1.5050000000000001,-3.6750000000000003,0.8779375,0.03678125,0.31043750000000003,1.1373125,0.840125,-0.42462500000000003,-0.2559375,1.121,0.018891026986084743,0.023349952975431274,True
29829,23387,0,23388,5252.0,44780.0,29967.0,-0.0040869999999999995,-0.00183,0.0006709999999999999,0.29750000000000004,-1.5575,-3.7800000000000002,0.8790625,0.040125,0.3045625,1.1455625,0.8320000000000001,-0.4264375,-0.25490625,1.12475,0.01910071822794462,0.02306620954265696,True
29830,23388,0,23389,5253.0,44783.0,29966.0,-0.003538,-0.000793,0.0006709999999999999,0.31500000000000006,-1.8375000000000001,-3.7800000000000002,0.86821875,0.0370625,0.30796875,1.135125,0.8400625,-0.4235,-0.2549375,1.12753125,0.018857350502589718,0.02320790354541214,True
29831,23389,0,23390,5254.0,44783.0,29966.0,0.000305,-0.000976,-0.000244,0.42000000000000004,-2.0300000000000002,-3.8675,0.8688125,0.0371875,0.31128125,1.1501875,0.8359375,-0.42409375,-0.256625,1.121125,0.018886319988842982,0.023412418256867972,True
29832,23390,0,23391,5255.0,44781.0,29967.0,0.003355,0.000915,6.1e-05,0.385,-2.3275,-3.8675,0.86840625,0.03459375,0.31584375000000003,1.1476250000000001,0.8461875,-0.42390625,-0.25565625000000003,1.12096875,0.018772590891352605,0.02356151464671256,True
29833,23391,0,23392,5255.0,44781.0,29969.0,0.003843,0.0017079999999999999,0.000366,0.29750000000000004,-2.2225,-3.8500000000000005,0.86790625,0.0380625,0.30693750000000003,1.135125,0.846,-0.42331250000000004,-0.2539375,1.123875,0.01889076266784041,0.023125111128863098,True
29834,23392,0,23393,5251.0,44780.0,29968.0,0.0023179999999999997,0.0021349999999999997,-6.1e-05,0.47250000000000003,-2.1350000000000002,-3.7975000000000003,0.8839375,0.04,0.3141875,1.13784375,0.83978125,-0.42521875000000003,-0.25315625,1.1200625,0.019046656439873237,0.023392573904685087,True
29835,23393,0,23394,5254.0,44779.0,29968.0,0.002379,0.0017079999999999999,-0.000488,0.6475000000000001,-2.0825,-3.7625,0.8687812500000001,0.04234375,0.3075625,1.135625,0.8445,-0.4239375,-0.2531875,1.124625,0.01909115800840876,0.02312067228276696,True
29836,23394,0,23395,5255.0,44780.0,29968.0,0.000488,0.000183,0.0,0.47250000000000003,-1.9075000000000002,-3.8325000000000005,0.87625,0.0365,0.31165625,1.1365625,0.8275,-0.42421875000000003,-0.25325000000000003,1.1204375,0.018863192911748712,0.023291981487017204,True
29837,23395,0,23396,5256.0,44779.0,29968.0,0.000732,-0.001769,-0.000305,0.052500000000000005,-1.8725000000000003,-3.7975000000000003,0.8767812500000001,0.04140625,0.31009375,1.13725,0.8397187500000001,-0.42565625,-0.24834375,1.12396875,0.01912179943988199,0.023029923435492372,True
29838,23396,0,23397,5255.0,44780.0,29970.0,-0.0008539999999999999,-0.00183,-0.0011589999999999999,0.07,-1.8025000000000002,-3.8675,0.869125,0.03671875,0.31178125,1.1370625,0.8393125,-0.42434375,-0.25290625,1.1164375,0.018877170445981792,0.023283292079686328,True
29839,23397,0,23398,5256.0,44781.0,29968.0,-0.001037,-0.0013419999999999999,-0.000122,0.35000000000000003,-1.7325000000000002,-3.8500000000000005,0.8748750000000001,0.03603125,0.311,1.13815625,0.8400625,-0.4159375,-0.25446875,1.121,0.018511218338431612,0.02331400270311012,True
29840,23398,0,23399,5257.0,44779.0,29968.0,-0.001403,-0.000915,0.000366,0.42000000000000004,-1.5750000000000002,-3.7975000000000003,0.87028125,0.035562500000000004,0.31071875,1.1380000000000001,0.83940625,-0.4236875,-0.25415625000000003,1.12790625,0.018803466921200985,0.023289822749451447,True
29841,23399,0,23400,5256.0,44780.0,29967.0,-0.001769,-0.000122,0.000976,0.385,-1.5575,-3.7275000000000005,0.8708750000000001,0.04028125,0.30940625,1.14071875,0.832375,-0.424375,-0.254375,1.134125,0.019024284142378257,0.02324451774164455,True
29842,23400,0,23401,5257.0,44780.0,29972.0,-6.1e-05,-0.000183,6.1e-05,0.35000000000000003,-1.6450000000000002,-3.7800000000000002,0.8707812500000001,0.03890625,0.3095,1.13646875,0.8399375,-0.41581250000000003,-0.25796875,1.11965625,0.018623945035619847,0.02339308603487256,True
29843,23401,0,23402,5257.0,44780.0,29971.0,0.00042699999999999997,0.001769,-0.000366,0.5425000000000001,-1.8550000000000002,-3.8325000000000005,0.8713125,0.0366875,0.3113125,1.1390625,0.83196875,-0.43793750000000004,-0.249125,1.1051875,0.019421647182787008,0.023111658668096273,True
29844,23402,0,23403,5257.0,44782.0,29971.0,0.000366,0.001769,-0.000793,0.6125,-1.9075000000000002,-3.8150000000000004,0.8791875,0.039406250000000004,0.3116875,1.14375,0.86475,-0.42390625,-0.24928125,1.13371875,0.018969631444601537,0.023133417614181865,True
29845,23403,0,23404,5259.0,44781.0,29969.0,0.00122,0.0025009999999999998,-0.001281,0.6125,-1.7850000000000001,-3.7625,0.8592500000000001,0.0428125,0.3083125,1.14334375,0.85103125,-0.42015625,-0.25528125,1.1382812500000001,0.018958467966395588,0.023235918981562007,True
29846,23404,0,23405,5259.0,44782.0,29971.0,0.002074,0.000976,-6.1e-05,0.5425000000000001,-1.6450000000000002,-3.7975000000000003,0.8705625,0.04221875,0.309375,1.13821875,0.82721875,-0.42190625,-0.255875,1.11196875,0.0190044542489389,0.023303632625085675,True
29847,23405,0,23406,5259.0,44781.0,29968.0,-0.002013,-0.000305,0.001098,0.45500000000000007,-1.2600000000000002,-3.9375000000000004,0.87215625,0.03646875,0.30921875,1.13575,0.81796875,-0.42821875,-0.25921875,1.10621875,0.01902256995303843,0.0234318139367122,True
29848,23406,0,23407,5259.0,44779.0,29968.0,-0.0025009999999999998,-0.0006709999999999999,0.000122,0.3325,-1.155,-3.9375000000000004,0.8635625,0.036000000000000004,0.3145625,1.1370625,0.827375,-0.42384375,-0.258875,1.10940625,0.018827656887544574,0.023638256102148186,True
29849,23407,0,23408,5258.0,44779.0,29966.0,-0.001952,-0.001769,-6.1e-05,0.1925,-1.2425000000000002,-3.8850000000000002,0.87015625,0.035562500000000004,0.311375,1.1374375,0.82328125,-0.428875,-0.25896875,1.12975,0.019011825145447754,0.023510634597771186,True
29850,23408,0,23409,5257.0,44780.0,29963.0,-0.00061,-0.00183,-0.001403,0.15750000000000003,-1.3825,-3.9025000000000003,0.8678750000000001,0.04128125,0.31046875,1.14296875,0.82815625,-0.4176875,-0.2524375,1.13321875,0.018796569085422196,0.02321029587232211,True
29851,23409,0,23410,5256.0,44780.0,29963.0,-0.0008539999999999999,-0.0021349999999999997,-0.001281,0.22750000000000004,-1.4525000000000001,-3.99,0.87046875,0.039375,0.30803125,1.14534375,0.84978125,-0.41975,-0.25553125,1.12884375,0.018801380030508092,0.023234391124704802,True
29852,23410,0,23411,5255.0,44779.0,29960.0,0.000732,-0.000183,0.001281,0.21000000000000002,-1.3650000000000002,-4.095000000000001,0.8706875000000001,0.039125,0.3143125,1.14453125,0.8483125,-0.41996875,-0.24996875000000002,1.1341875000000001,0.018799931920469803,0.023269359883195728,True
29853,23411,0,23412,5252.0,44778.0,29960.0,0.001037,0.00244,0.00061,0.5425000000000001,-1.54,-4.165,0.8759687500000001,0.039156250000000004,0.3105625,1.14365625,0.857625,-0.42712500000000003,-0.24853125,1.11703125,0.019088666799715482,0.02305680885311353,True
29854,23412,0,23413,5252.0,44778.0,29961.0,0.002745,0.0030499999999999998,0.00061,0.6125,-1.6800000000000002,-4.2700000000000005,0.8774375,0.0395625,0.31090625,1.1400625,0.85540625,-0.42425,-0.24740625,1.11765625,0.018989835921266775,0.02302565867225489,True
29855,23413,0,23414,5250.0,44777.0,29959.0,0.0032329999999999998,0.0023179999999999997,0.000793,0.36750000000000005,-1.6975000000000002,-4.1825,0.87440625,0.0391875,0.30953125,1.14296875,0.8476875,-0.421125,-0.249125,1.11790625,0.018848947376502927,0.023038202409365285,True
29856,23414,0,23415,5250.0,44778.0,29958.0,0.0023179999999999997,6.1e-05,0.000183,0.1925,-1.8375000000000001,-4.112500000000001,0.871,0.03890625,0.3146875,1.1355625,0.84259375,-0.42353125,-0.2529375,1.12709375,0.018934096599974668,0.023404381428022893,True
29857,23415,0,23416,5248.0,44778.0,29958.0,-0.001769,-0.002379,-0.000244,0.10500000000000001,-1.5050000000000001,-3.99,0.8710625000000001,0.03740625,0.3105625,1.13703125,0.8396875,-0.42381250000000004,-0.256,1.12525,0.0188839784943485,0.023357622856200532,True
29858,23416,0,23417,5247.0,44777.0,29959.0,-0.003904,-0.0021349999999999997,0.000183,0.17500000000000002,-1.3475000000000001,-3.8325000000000005,0.876625,0.039156250000000004,0.3144375,1.133125,0.83928125,-0.42675,-0.252875,1.12084375,0.019073607827484216,0.023391556671116313,True
29859,23417,0,23418,5247.0,44775.0,29957.0,-0.002196,-0.0015249999999999999,-0.000122,0.28,-1.4700000000000002,-3.9025000000000003,0.87028125,0.0385625,0.3090625,1.13759375,0.8466250000000001,-0.42390625,-0.2534375,1.11834375,0.01893508537357737,0.02319258867943977,True
29860,23418,0,23419,5245.0,44774.0,29955.0,-0.001464,0.0015249999999999999,-0.00042699999999999997,0.42000000000000004,-1.4700000000000002,-4.0075,0.8700625000000001,0.037875,0.31240625,1.13703125,0.83940625,-0.42412500000000003,-0.253625,1.12015625,0.018915723695321737,0.023338006174334763,True
29861,23419,0,23420,5244.0,44773.0,29954.0,0.000488,0.003538,0.001098,0.6825000000000001,-1.4700000000000002,-4.0600000000000005,0.8758750000000001,0.039218750000000004,0.31146875,1.14303125,0.8396875,-0.425875,-0.25265625,1.12125,0.019041027189404678,0.023260338751554276,True
29862,23420,0,23421,5243.0,44776.0,29954.0,0.002623,0.0028669999999999998,0.000366,0.7525000000000001,-1.8200000000000003,-3.99,0.875,0.041625,0.3115,1.14159375,0.843875,-0.42603125000000003,-0.25159375,1.121125,0.01914581395616613,0.02321883484461717,True
29863,23421,0,23422,5241.0,44774.0,29954.0,0.00244,0.001586,-0.000976,0.49000000000000005,-1.9250000000000003,-3.99,0.87084375,0.04034375,0.30921875,1.13671875,0.84540625,-0.4236875,-0.251625,1.1280937500000001,0.018999229743665857,0.02312602763732327,True
29864,23422,0,23423,5240.0,44772.0,29953.0,0.001647,-0.000793,-0.001037,0.2625,-1.9250000000000003,-4.077500000000001,0.8705,0.035750000000000004,0.31234375000000003,1.13728125,0.8454375000000001,-0.42340625,-0.2541875,1.1243125,0.018799844923350933,0.023358079919189215,True
29865,23423,0,23424,5240.0,44775.0,29955.0,0.001098,-0.0034159999999999998,-0.000122,-0.035,-1.8200000000000003,-3.9375000000000004,0.881,0.0395,0.31153125,1.15209375,0.830125,-0.42662500000000003,-0.25465625000000003,1.12059375,0.019082660826045348,0.02334345596013137,True
29866,23424,0,23425,5239.0,44772.0,29954.0,-0.0017079999999999999,-0.0057339999999999995,0.000366,-0.14,-1.3475000000000001,-3.8325000000000005,0.870375,0.03828125,0.30665625,1.1340937500000001,0.8454375000000001,-0.42353125,-0.25315625,1.1285625,0.01890850652482941,0.023082047310852585,True
29867,23425,0,23426,5238.0,44770.0,29954.0,-0.0023179999999999997,-0.0032329999999999998,-0.000732,-0.0175,-1.435,-3.8850000000000002,0.8784375,0.0375625,0.3125,1.1570625,0.8405625,-0.42353125,-0.25471875,1.1138125,0.018879077938412366,0.023385913308106285,True
29868,23426,0,23427,5237.0,44772.0,29953.0,-0.0018909999999999999,-6.1e-05,-0.001403,0.385,-1.61,-3.99,0.86440625,0.039656250000000004,0.31053125,1.14196875,0.84303125,-0.42571875000000003,-0.252875,1.12078125,0.019052663496340307,0.02323049329203239,True
29869,23427,0,23428,5236.0,44772.0,29952.0,0.00061,0.003111,-0.000732,0.77,-1.5750000000000002,-4.025,0.8641875,0.036625,0.30628125,1.1324375,0.8420625,-0.42328125,-0.25090625,1.1275,0.018830649546731155,0.02297594548657331,True
29870,23428,0,23429,5236.0,44769.0,29954.0,0.0032329999999999998,0.0055509999999999995,0.00061,0.9625000000000001,-1.6275000000000002,-4.2,0.86359375,0.0324375,0.3163125,1.13178125,0.84909375,-0.42275,-0.25265625,1.1264375,0.018637847908200347,0.023460059143006244,True
29871,23429,0,23430,5235.0,44774.0,29953.0,0.0025009999999999998,0.004209,0.002257,0.7175,-1.3825,-4.0075,0.86959375,0.03403125,0.31675000000000003,1.1339062500000001,0.8405312500000001,-0.423875,-0.2556875,1.1275,0.01874830468138246,0.02360013501987936,True
29872,23430,0,23431,5237.0,44771.0,29954.0,0.000305,0.00061,0.002074,0.29750000000000004,-1.2075,-3.8675,0.88784375,0.04075,0.31421875,1.1454375,0.839,-0.4236875,-0.25415625000000003,1.11984375,0.019015863186097513,0.02343412791364367,True
29873,23431,0,23432,5235.0,44772.0,29955.0,-0.001586,-0.0013419999999999999,-0.0008539999999999999,0.24500000000000002,-1.1725,-3.8675,0.8854062500000001,0.04196875,0.31359375,1.1465,0.83265625,-0.42390625,-0.2533125,1.1206875,0.01907454914178603,0.023374384426869524,True
29874,23432,0,23433,5235.0,44773.0,29953.0,-0.00042699999999999997,-6.1e-05,-0.001403,0.24500000000000002,-1.1725,-3.7975000000000003,0.88484375,0.04065625,0.31190625,1.1561875,0.839375,-0.4230625,-0.25065625,1.1213125,0.01898692066156732,0.0231978258320329,True
29875,23433,0,23434,5233.0,44773.0,29954.0,0.000793,-0.001464,-0.000305,0.35000000000000003,-1.3125000000000002,-3.7625,0.8717812500000001,0.039875,0.3125625,1.15234375,0.84009375,-0.4266875,-0.2515,1.11440625,0.01910052273768189,0.02325887058532462,True
29876,23434,0,23435,5233.0,44772.0,29955.0,-0.003111,-0.0018909999999999999,-0.000488,0.1925,-1.05,-3.7275000000000005,0.86471875,0.04003125,0.30434375,1.1481875,0.8428125,-0.427,-0.24678125,1.1198125,0.01911946821140541,0.02272982109738793,True
29877,23435,0,23436,5233.0,44774.0,29953.0,-0.003355,-0.0028669999999999998,-0.0017079999999999999,0.10500000000000001,-0.9625000000000001,-3.7800000000000002,0.86784375,0.039156250000000004,0.31096875,1.14846875,0.84459375,-0.42528125,-0.2510625,1.12146875,0.019014622400714422,0.023175530969003936,True
29878,23436,0,23437,5232.0,44772.0,29954.0,-0.002928,-0.003904,-0.000366,0.07,-1.0150000000000001,-3.7100000000000004,0.8818125,0.037,0.31434375000000003,1.13434375,0.83909375,-0.42228125,-0.25459375,1.12259375,0.018805829205656207,0.02345689669611556,True
29879,23437,0,23438,5232.0,44773.0,29954.0,-0.001647,-0.0030499999999999998,-0.0006709999999999999,0.10500000000000001,-1.1725,-3.7100000000000004,0.86909375,0.03734375,0.31353125,1.13559375,0.84009375,-0.42509375,-0.25353125,1.125625,0.018932885365076646,0.023380615967004803,True
29880,23438,0,23439,5231.0,44773.0,29954.0,0.0,-0.0013419999999999999,-0.00042699999999999997,0.2625,-1.3650000000000002,-3.7625,0.87515625,0.0383125,0.3151875,1.1301875000000001,0.83978125,-0.42434375,-0.2550625,1.1204375,0.018942422966840206,0.023510555786034358,True
29881,23439,0,23440,5231.0,44769.0,29952.0,0.0034159999999999998,0.00244,0.001037,0.5425000000000001,-1.4700000000000002,-3.8675,0.8714375,0.0396875,0.311125,1.136125,0.8389375,-0.42728125,-0.2515625,1.12003125,0.019116689459658963,0.023202113265897818,True
29882,23440,0,23441,5233.0,44772.0,29954.0,0.00183,0.003477,0.00061,0.56,-1.3475000000000001,-3.9550000000000005,0.87203125,0.0386875,0.3113125,1.1429375,0.84709375,-0.4220625,-0.252,1.11396875,0.01886613794391854,0.023227465776018474,True
29883,23441,0,23442,5232.0,44773.0,29955.0,0.0018909999999999999,0.003965,-0.000305,0.6475000000000001,-1.435,-3.9025000000000003,0.8709687500000001,0.039406250000000004,0.311625,1.1300000000000001,0.84809375,-0.42462500000000003,-0.2474375,1.1184687500000001,0.01899850048874855,0.023056560100422983,True
29884,23442,0,23443,5232.0,44771.0,29955.0,0.001098,0.001952,0.000366,0.56,-1.3475000000000001,-3.7975000000000003,0.8794062500000001,0.036125,0.313375,1.13778125,0.840125,-0.42415625,-0.25359375,1.12434375,0.018845328587348848,0.023376690310070027,True
29885,23443,0,23444,5230.0,44774.0,29957.0,-0.000915,0.0011589999999999999,0.000549,0.42000000000000004,-1.2075,-3.8150000000000004,0.87065625,0.0389375,0.31021875,1.14125,0.8452500000000001,-0.42378125,-0.25203125,1.12715625,0.01894541820791979,0.02318362508295052,True
29886,23444,0,23445,5230.0,44773.0,29954.0,-0.002013,0.0,0.000122,0.36750000000000005,-1.2600000000000002,-3.8500000000000005,0.87121875,0.03884375,0.309125,1.14275,0.848625,-0.42362500000000003,-0.25165625,1.12096875,0.018935303420356316,0.023123420694205164,True
29887,23445,0,23446,5229.0,44772.0,29959.0,-0.001647,0.000244,0.000549,0.4025,-1.1900000000000002,-4.025,0.87025,0.0395,0.3115625,1.13896875,0.849,-0.42659375,-0.252,1.1209375,0.01908140589598171,0.023237774204189345,True
29888,23446,0,23447,5230.0,44774.0,29956.0,-0.001647,0.000366,0.000122,0.42000000000000004,-1.225,-3.99,0.87015625,0.0386875,0.31028125,1.1378125000000001,0.846125,-0.4216875,-0.25178125,1.12621875,0.018851072433057704,0.023176132680975754,True
29889,23447,0,23448,5231.0,44773.0,29958.0,0.000732,6.1e-05,0.00042699999999999997,0.4025,-1.3125000000000002,-4.077500000000001,0.871,0.042125,0.31171875,1.1381875000000001,0.8403437500000001,-0.423875,-0.25303125,1.1210625,0.01907969149039618,0.023285749075180034,True
29890,23448,0,23449,5229.0,44771.0,29954.0,0.002257,-0.000183,0.000305,0.43750000000000006,-1.3650000000000002,-4.077500000000001,0.8780625,0.039968750000000004,0.31215625,1.138375,0.84003125,-0.4266875,-0.2548125,1.1128125,0.019104360752967425,0.023375515683743176,True
29891,23449,0,23450,5231.0,44769.0,29954.0,0.00122,-0.002379,-0.0017079999999999999,0.17500000000000002,-1.5050000000000001,-4.112500000000001,0.8795937500000001,0.039125,0.3110625,1.1445625,0.8405625,-0.42646875,-0.2538125,1.1206875,0.019061033944990514,0.02329015283679628,True
29892,23450,0,23451,5230.0,44772.0,29959.0,-0.000244,-0.002623,-0.0011589999999999999,0.07,-1.33,-4.130000000000001,0.87028125,0.039218750000000004,0.30675,1.14359375,0.8475,-0.42340625,-0.25296875,1.12196875,0.018941870567296484,0.023078360252288703,True
29893,23451,0,23452,5230.0,44772.0,29959.0,-0.003172,-0.002806,-0.000244,0.2625,-1.1025,-4.112500000000001,0.87109375,0.039656250000000004,0.3110625,1.1439375,0.8476250000000001,-0.42109375,-0.25240625,1.12,0.01886688633673502,0.023233519354393956,True
29894,23452,0,23453,5230.0,44773.0,29957.0,-0.0040869999999999995,-0.001037,0.0,0.4025,-0.9800000000000001,-4.095000000000001,0.87625,0.03925,0.310375,1.1348125,0.8407187500000001,-0.42490625,-0.25221875,1.12096875,0.019003399450100242,0.023197619805404402,True
29895,23453,0,23454,5231.0,44771.0,29956.0,-0.0021349999999999997,-6.1e-05,-0.00042699999999999997,0.5775,-0.9450000000000001,-4.077500000000001,0.8628125,0.04553125,0.31003125,1.1333125,0.845375,-0.42609375,-0.25184375000000003,1.1209375,0.0193082448969148,0.023168341582276607,True
29896,23454,0,23455,5232.0,44773.0,29958.0,0.002013,0.0025009999999999998,-0.0006709999999999999,0.525,-1.3650000000000002,-4.2525,0.87046875,0.03728125,0.3095,1.1374375,0.84428125,-0.42409375,-0.25415625000000003,1.12571875,0.018890158411711794,0.02323957362977737,True
29897,23455,0,23456,5232.0,44770.0,29956.0,0.003721,0.00183,0.000183,0.45500000000000007,-1.5050000000000001,-4.2875000000000005,0.86353125,0.03896875,0.3108125,1.14178125,0.8401875,-0.4259375,-0.25253125,1.111,0.01903330220180904,0.02322824550530164,True
29898,23456,0,23457,5230.0,44771.0,29957.0,0.0044529999999999995,0.00183,0.0,0.47250000000000003,-1.5925000000000002,-4.2175,0.87528125,0.039593750000000004,0.310125,1.142625,0.8443437500000001,-0.42562500000000003,-0.252125,1.12175,0.019046339653540086,0.023183535463387226,True
29899,23457,0,23458,5230.0,44772.0,29959.0,0.004392,0.0021349999999999997,-0.000244,0.42000000000000004,-1.61,-4.2700000000000005,0.8745937500000001,0.03903125,0.3106875,1.14121875,0.84040625,-0.42703125000000003,-0.25365625,1.12071875,0.01907978481830452,0.02326839896561988,True
29900,23458,0,23459,5230.0,44771.0,29958.0,0.002013,0.000366,-0.0008539999999999999,0.4025,-1.33,-4.305000000000001,0.87115625,0.03865625,0.3093125,1.1399062500000001,0.8444375000000001,-0.42084375,-0.25421875,1.12365625,0.01881589369736662,0.023234360001803813,True
29901,23459,0,23460,5232.0,44771.0,29961.0,-0.0021349999999999997,-0.0021349999999999997,0.001586,0.385,-0.9450000000000001,-4.077500000000001,0.8709687500000001,0.039125,0.30971875,1.1375625,0.846375,-0.42203125,-0.2531875,1.1286875,0.018882796655171754,0.023209578122463284,True
29902,23460,0,23461,5231.0,44770.0,29960.0,-0.0042699999999999995,-0.0015249999999999999,0.00122,0.28,-0.8925000000000001,-3.9375000000000004,0.871125,0.03759375,0.30871875,1.12965625,0.84059375,-0.42365625,-0.25459375,1.12878125,0.018885378801546143,0.023224981865548663,True
29903,23461,0,23462,5232.0,44771.0,29961.0,-0.0048189999999999995,-0.002013,0.00042699999999999997,0.3325,-0.9800000000000001,-4.0075,0.87115625,0.038875,0.3113125,1.1382812500000001,0.83975,-0.42278125,-0.259125,1.11903125,0.018902689471535925,0.02351434769390899,True
29904,23462,0,23463,5233.0,44770.0,29957.0,-0.003355,-0.0021349999999999997,-0.00042699999999999997,0.31500000000000006,-1.0150000000000001,-4.0075,0.8759687500000001,0.0364375,0.31043750000000003,1.1295,0.836375,-0.42909375,-0.25615625000000003,1.11871875,0.01905642733881604,0.023358760726980392,True
29905,23463,0,23464,5232.0,44771.0,29959.0,-0.001098,0.000366,6.1e-05,0.31500000000000006,-1.1725,-3.99,0.878375,0.0399375,0.31109375,1.12840625,0.83746875,-0.4283125,-0.24925,1.119375,0.019168331828078585,0.023107673433198965,True
29906,23464,0,23465,5233.0,44771.0,29960.0,0.002196,0.002196,-0.000488,0.5075000000000001,-1.6625,-4.0425,0.88275,0.0404375,0.31071875,1.15471875,0.83403125,-0.42846875,-0.25228125,1.1178125,0.019195073371105178,0.023214311024864927,True
29907,23465,0,23466,5232.0,44769.0,29961.0,0.004209,0.00183,-0.00061,0.56,-1.7850000000000001,-4.025,0.86765625,0.039406250000000004,0.31384375000000003,1.1615312500000001,0.848125,-0.42790625,-0.2525,1.1181875000000001,0.019130272370355115,0.023351974023296567,True
29908,23466,0,23467,5235.0,44770.0,29960.0,0.004148,0.001464,-0.000244,0.45500000000000007,-1.8025000000000002,-3.99,0.87325,0.04884375,0.3078125,1.15584375,0.8383125,-0.42828125,-0.25271875,1.118,0.019531664758444683,0.023112099545540638,True
29909,23467,0,23468,5236.0,44771.0,29960.0,0.004941,0.002013,0.001281,0.4025,-1.61,-4.0075,0.86046875,0.04209375,0.30746875,1.16028125,0.84884375,-0.42896875,-0.252375,1.1189375,0.019282946604121387,0.023084079394286125,True
29910,23468,0,23469,5234.0,44769.0,29961.0,0.002806,-0.000183,0.00366,0.31500000000000006,-1.2950000000000002,-3.9725000000000006,0.86284375,0.0410625,0.30515625,1.1556875,0.8484375000000001,-0.4261875,-0.25225000000000003,1.11175,0.019129059743768852,0.022983692234741112,True
29911,23469,0,23470,5234.0,44771.0,29961.0,-0.004941,-0.002562,-0.002196,0.2625,-0.7525000000000001,-3.9025000000000003,0.880125,0.04296875,0.31246875,1.148125,0.8394375000000001,-0.4295625,-0.255875,1.117875,0.01934259977025786,0.023431179044252168,True
29912,23470,0,23471,5235.0,44770.0,29960.0,-0.0053679999999999995,-0.0015249999999999999,-0.0015249999999999999,0.22750000000000004,-0.6825000000000001,-3.8500000000000005,0.891375,0.0361875,0.31596875,1.1268125,0.83678125,-0.4256875,-0.2589375,1.13225,0.018909396101952095,0.023698739897408946,True
29913,23471,0,23472,5236.0,44772.0,29962.0,-0.004697,-0.0021349999999999997,-0.00042699999999999997,0.2625,-0.6475000000000001,-3.8150000000000004,0.86815625,0.02865625,0.30609375,1.12940625,0.8373125,-0.42334375,-0.253875,1.1313125,0.01850688442281782,0.023087805556844008,True
29914,23472,0,23473,5237.0,44771.0,29962.0,-0.0034159999999999998,-0.00122,0.000488,0.42000000000000004,-0.7350000000000001,-3.7975000000000003,0.85809375,0.04015625,0.30375,1.153875,0.8505312500000001,-0.4241875,-0.25309375,1.1174375,0.01901163549452771,0.022959699729029417,True
29915,23473,0,23474,5237.0,44773.0,29963.0,-0.00183,-0.00042699999999999997,0.000244,0.36750000000000005,-0.8225000000000001,-3.8675,0.8735937500000001,0.0428125,0.312125,1.14675,0.8337187500000001,-0.42653125000000003,-0.256,1.11996875,0.019214506767103907,0.023422039907651713,True
29916,23474,0,23475,5238.0,44771.0,29963.0,0.001586,-0.000122,0.000366,0.29750000000000004,-1.4175000000000002,-3.9375000000000004,0.8960625,0.03709375,0.31334375000000003,1.1261875000000001,0.83840625,-0.42462500000000003,-0.25471875,1.12684375,0.018903821450687575,0.023420700353410616,True
29917,23475,0,23476,5239.0,44770.0,29961.0,0.0040869999999999995,0.000976,0.00042699999999999997,0.4025,-1.7675,-3.8675,0.86246875,0.035312500000000004,0.30359375,1.14621875,0.844375,-0.42362500000000003,-0.2543125,1.12390625,0.018790720050770517,0.023002352674395533,True
29918,23476,0,23477,5236.0,44769.0,29962.0,0.0055509999999999995,0.0018909999999999999,-0.000976,0.47250000000000003,-1.8025000000000002,-3.8325000000000005,0.857625,0.0409375,0.31075,1.15346875,0.8485,-0.42009375,-0.25334375,1.12075,0.018879176088339136,0.02325839091774717,True
29919,23477,0,23478,5239.0,44773.0,29963.0,0.0042699999999999995,0.0026839999999999998,-0.001098,0.6125,-1.8725000000000003,-3.7800000000000002,0.87503125,0.03690625,0.31171875,1.131625,0.84003125,-0.42478125,-0.25575000000000003,1.1230625,0.01890242108104858,0.023395225874277233,True
29920,23478,0,23479,5241.0,44770.0,29964.0,0.001281,0.002562,-0.000732,0.5775,-1.6975000000000002,-3.7800000000000002,0.8648750000000001,0.04065625,0.3108125,1.146625,0.8404375000000001,-0.423,-0.25421875,1.12128125,0.0189844101871187,0.023296204912805117,True
29921,23479,0,23480,5240.0,44772.0,29962.0,0.000122,0.00042699999999999997,0.001403,0.42000000000000004,-1.4000000000000001,-3.7275000000000005,0.8779375,0.038375,0.31121875,1.1381875000000001,0.8446250000000001,-0.42671875000000004,-0.2555625,1.12159375,0.019040369472465474,0.02336706270984233,True
29922,23480,0,23481,5238.0,44771.0,29961.0,-0.000183,-0.00042699999999999997,0.001037,0.35000000000000003,-1.3475000000000001,-3.5875000000000004,0.87140625,0.0365625,0.30793750000000003,1.1375,0.8401875,-0.42371875000000003,-0.257375,1.1283125,0.01884566616211956,0.02330476813752519,True
29923,23481,0,23482,5240.0,44772.0,29962.0,-0.002379,-0.000549,0.000366,0.36750000000000005,-1.3125000000000002,-3.5525,0.871625,0.03646875,0.31125,1.1374375,0.84,-0.424,-0.25425000000000003,1.1147500000000001,0.01885312602358336,0.02331550140696992,True
29924,23482,0,23483,5240.0,44772.0,29960.0,-0.002379,-0.0017079999999999999,0.00061,0.2625,-1.1375000000000002,-3.5000000000000004,0.8670625000000001,0.04334375,0.31075,1.138125,0.8399375,-0.42765625,-0.25484375,1.12078125,0.01928142410305942,0.02331879585907454,True
29925,23483,0,23484,5240.0,44772.0,29957.0,-0.0021349999999999997,-0.0023179999999999997,-0.000366,0.21000000000000002,-1.33,-3.535,0.87846875,0.0388125,0.3105625,1.14003125,0.8327187500000001,-0.42212500000000003,-0.25353125,1.12121875,0.01887376712714393,0.023258211111010896,True
29926,23484,0,23485,5238.0,44771.0,29957.0,-6.1e-05,-0.000244,-0.000244,0.2625,-1.4875,-3.5875000000000004,0.87125,0.035812500000000004,0.31021875,1.138125,0.8471875,-0.42375,-0.25625,1.1211875,0.01881621372639337,0.02335351713475908,True
29927,23485,0,23486,5237.0,44769.0,29956.0,0.000549,-6.1e-05,0.000244,0.43750000000000006,-1.5225000000000002,-3.6750000000000003,0.8773125,0.0385,0.30815625,1.14296875,0.8481875,-0.42312500000000003,-0.254375,1.13003125,0.018901143895386035,0.02319298064782127,True
29928,23486,0,23487,5237.0,44772.0,29956.0,-0.000244,0.000549,-0.000122,0.49000000000000005,-1.4700000000000002,-3.7450000000000006,0.87084375,0.0394375,0.30909375,1.133125,0.846375,-0.4235,-0.2573125,1.1260937500000001,0.01895459291256372,0.023349917679462637,True
29929,23487,0,23488,5235.0,44773.0,29955.0,0.00042699999999999997,0.001098,-0.000183,0.47250000000000003,-1.4000000000000001,-3.7275000000000005,0.87675,0.0396875,0.3096875,1.14253125,0.84040625,-0.4246875,-0.2530625,1.12571875,0.019012525748794123,0.023203255259000802,True
29930,23488,0,23489,5232.0,44771.0,29952.0,0.0013419999999999999,0.001037,-0.000549,0.4025,-1.2075,-3.7975000000000003,0.87146875,0.036375,0.31093750000000003,1.13734375,0.84009375,-0.42121875000000003,-0.25678125,1.1269375,0.018737547650032823,0.023404537648621458,True
29931,23489,0,23490,5232.0,44770.0,29951.0,0.0,0.000305,0.00042699999999999997,0.36750000000000005,-1.3125000000000002,-3.7800000000000002,0.87103125,0.03875,0.30690625,1.1459062500000001,0.83115625,-0.42425,-0.2543125,1.12834375,0.01895656980255279,0.023138926324957673,True
29932,23490,0,23491,5229.0,44772.0,29952.0,-0.000366,-0.000244,6.1e-05,0.28,-1.2950000000000002,-3.6575,0.86971875,0.04259375,0.31028125,1.14615625,0.8441875,-0.4234375,-0.25325000000000003,1.12096875,0.019081312775894057,0.023235288054178307,True
29933,23491,0,23492,5229.0,44771.0,29949.0,0.000183,-0.000915,-0.00061,0.385,-1.4175000000000002,-3.6400000000000006,0.87603125,0.03890625,0.310375,1.1389375,0.845875,-0.42546875,-0.25321875,1.1208125,0.01901191763208229,0.02323789497012639,True
29934,23492,0,23493,5225.0,44771.0,29949.0,0.000915,-0.0018909999999999999,-0.0008539999999999999,0.28,-1.5050000000000001,-3.5700000000000003,0.879375,0.0395,0.3110625,1.1380000000000001,0.8421875,-0.42390625,-0.2555,1.12090625,0.018973469896937552,0.023358104347467587,True
29935,23493,0,23494,5225.0,44770.0,29950.0,0.0008539999999999999,-0.001769,-0.000244,0.2625,-1.435,-3.5000000000000004,0.8709687500000001,0.03865625,0.30803125,1.14328125,0.83059375,-0.4189375,-0.25375000000000003,1.1262812500000001,0.018739298136948017,0.023162655259495953,True
29936,23494,0,23495,5227.0,44769.0,29951.0,-0.000244,-0.000732,-0.000488,0.31500000000000006,-1.54,-3.5175000000000005,0.87725,0.03890625,0.30990625,1.13775,0.846125,-0.4251875,-0.2536875,1.12153125,0.0190006217966597,0.02323744585230596,True
29937,23495,0,23496,5223.0,44766.0,29949.0,-0.0006709999999999999,-0.000183,-0.000549,0.4025,-1.6975000000000002,-3.5175000000000005,0.857125,0.03559375,0.3105,1.13865625,0.84040625,-0.42403125,-0.251875,1.121125,0.018818556007211138,0.02318892869108059,True
29938,23496,0,23497,5223.0,44766.0,29949.0,0.00042699999999999997,0.000549,-0.000305,0.47250000000000003,-1.8375000000000001,-3.5000000000000004,0.87,0.03615625,0.31053125,1.1380000000000001,0.83534375,-0.42575,-0.254,1.120875,0.01891062710459249,0.023275799868062996,True
29939,23497,0,23498,5221.0,44767.0,29950.0,0.001464,0.00183,0.0006709999999999999,0.5775,-1.8025000000000002,-3.5525,0.8777812500000001,0.0368125,0.31134375000000003,1.13734375,0.8405312500000001,-0.42221875000000003,-0.25503125,1.1208125,0.01879564075233746,0.02335082540864589,True
29940,23498,0,23499,5221.0,44767.0,29947.0,0.00061,0.001403,0.003111,0.43750000000000006,-1.435,-3.7625,0.858125,0.035187500000000003,0.3085625,1.138125,0.84040625,-0.42425,-0.25315625,1.126875,0.01881071066665302,0.023160645328378655,True
29941,23499,0,23500,5220.0,44765.0,29949.0,-0.0015249999999999999,0.0021349999999999997,-0.000366,0.49000000000000005,-1.2950000000000002,-3.7800000000000002,0.8705625,0.0389375,0.311375,1.1385,0.840375,-0.42325,-0.25290625,1.1210625,0.01892407849078235,0.023266541509844828,True
29942,23500,0,23501,5219.0,44765.0,29949.0,-0.002806,0.0017079999999999999,-0.0021349999999999997,0.47250000000000003,-1.2775,-3.8325000000000005,0.87434375,0.036125,0.31021875,1.14515625,0.8395312500000001,-0.42359375,-0.25515625000000003,1.1286875,0.01882273160558118,0.02330947672208873,True
29943,23501,0,23502,5220.0,44767.0,29948.0,-0.00183,0.000549,-0.000366,0.43750000000000006,-1.3650000000000002,-3.6750000000000003,0.87528125,0.03615625,0.3181875,1.138625,0.85490625,-0.42853125000000003,-0.254125,1.1211875,0.019022326608358824,0.02359650162601207,True
29944,23502,0,23503,5219.0,44766.0,29948.0,-0.000366,-0.000366,0.000732,0.29750000000000004,-1.4525000000000001,-3.6575,0.870625,0.0391875,0.308625,1.1444375,0.8329375,-0.42428125,-0.25525000000000003,1.12875,0.018975737515305593,0.023247544346069408,True
29945,23503,0,23504,5218.0,44766.0,29950.0,0.000366,-0.001403,-0.00183,0.14,-1.6625,-3.7800000000000002,0.87696875,0.03628125,0.31184375000000003,1.14021875,0.8603125,-0.42765625,-0.2546875,1.12525,0.018992305084528937,0.02335759840237068,True
29946,23504,0,23505,5217.0,44766.0,29948.0,-0.000366,-0.002379,-0.000915,0.12250000000000001,-1.6275000000000002,-3.9375000000000004,0.8708125,0.0390625,0.31240625,1.138125,0.83146875,-0.42175,-0.248875,1.11490625,0.01886893854862981,0.023146692372326548,True
29947,23505,0,23506,5217.0,44766.0,29949.0,0.0006709999999999999,-0.00042699999999999997,0.0008539999999999999,0.22750000000000004,-1.5050000000000001,-4.0075,0.87090625,0.03821875,0.31115625,1.14540625,0.8339375,-0.42465625,-0.25834375,1.1285,0.018951136722753264,0.023476458486577426,True
29948,23506,0,23507,5217.0,44766.0,29951.0,0.0,-0.000976,0.000915,0.36750000000000005,-1.5225000000000002,-3.9200000000000004,0.86765625,0.039281250000000004,0.311875,1.14640625,0.8414375000000001,-0.421875,-0.2494375,1.12465625,0.01888291746641075,0.023147444141745556,True
29949,23507,0,23508,5218.0,44767.0,29950.0,0.001464,0.000244,0.000183,0.49000000000000005,-1.5050000000000001,-3.9725000000000006,0.87721875,0.03796875,0.31321875,1.13853125,0.8565625,-0.42590625,-0.2495625,1.11640625,0.018991107034155588,0.023207892925903303,True
29950,23508,0,23509,5217.0,44764.0,29950.0,0.002806,0.001098,0.0,0.49000000000000005,-1.6450000000000002,-3.9550000000000005,0.86903125,0.039531250000000004,0.31753125,1.13915625,0.833875,-0.42096875,-0.248,1.11815625,0.018856745803747035,0.023322799818541736,True
29951,23509,0,23510,5217.0,44766.0,29950.0,0.001098,0.001403,-0.001464,0.47250000000000003,-1.5050000000000001,-3.99,0.8795937500000001,0.03671875,0.315125,1.1385625,0.850875,-0.4271875,-0.25228125,1.12634375,0.0189913902286131,0.023395994964391237,True
29952,23510,0,23511,5216.0,44765.0,29948.0,0.00183,0.000122,-0.000305,0.43750000000000006,-1.4525000000000001,-3.9025000000000003,0.871625,0.03884375,0.30996875,1.1413125,0.83265625,-0.42225,-0.2540625,1.1385,0.018880068380267994,0.023255124785796194,True
29953,23511,0,23512,5216.0,44765.0,29949.0,0.000488,-0.00042699999999999997,0.000793,0.43750000000000006,-1.2600000000000002,-3.8675,0.8703125,0.0383125,0.3090625,1.13775,0.83525,-0.423,-0.25796875,1.12490625,0.01888844531793801,0.02337505072431096,True
29954,23512,0,23513,5216.0,44764.0,29949.0,-0.001281,-0.000976,-0.000915,0.2625,-1.1900000000000002,-3.8500000000000005,0.8704375,0.03775,0.31459375,1.1380000000000001,0.83234375,-0.4263125,-0.256875,1.1160625,0.018998467329032983,0.023559042539486225,True
29955,23513,0,23514,5214.0,44764.0,29950.0,-0.001037,-0.00061,0.00122,0.49000000000000005,-0.9975,-3.6925000000000003,0.8775625,0.039468750000000004,0.31253125,1.14153125,0.8378125000000001,-0.4264375,-0.2485,1.115875,0.019073851845976313,0.023136740416933005,True
29956,23514,0,23515,5215.0,44765.0,29949.0,-0.002196,-6.1e-05,0.002623,0.47250000000000003,-1.0325000000000002,-3.7450000000000006,0.8710625000000001,0.04046875,0.31171875,1.13725,0.849375,-0.42340625,-0.24890625,1.12378125,0.018993050979529115,0.023119599466470776,True
29957,23515,0,23516,5213.0,44765.0,29949.0,0.000122,-0.00042699999999999997,0.003477,0.43750000000000006,-1.2075,-3.7800000000000002,0.8709375,0.0399375,0.31309375,1.1330625,0.84646875,-0.42296875,-0.24740625,1.1243750000000001,0.01895372568087162,0.023115874507196002,True
29958,23516,0,23517,5214.0,44764.0,29949.0,-0.000793,-0.000122,-0.002928,0.42000000000000004,-1.2600000000000002,-3.7800000000000002,0.8709687500000001,0.0389375,0.311625,1.13896875,0.848,-0.4235,-0.24734375,1.12884375,0.018934120826253405,0.02305278284348157,True
29959,23517,0,23518,5213.0,44764.0,29949.0,-0.001769,-0.000122,-0.007991,0.45500000000000007,-1.4700000000000002,-3.8850000000000002,0.87153125,0.0393125,0.309375,1.137,0.84421875,-0.4236875,-0.2518125,1.12715625,0.018957006389800884,0.023140023039515085,True
29960,23518,0,23519,5213.0,44762.0,29949.0,0.0050019999999999995,-0.000732,0.006527,0.4025,-1.4175000000000002,-3.8675,0.87146875,0.03734375,0.3108125,1.13853125,0.84784375,-0.42353125,-0.25359375,1.12725,0.01887012141211153,0.023271035864530384,True
29961,23519,0,23520,5213.0,44767.0,29949.0,0.002623,0.001281,0.005795,0.385,-1.2950000000000002,-3.9550000000000005,0.87028125,0.039093750000000003,0.3126875,1.144125,0.83934375,-0.42346875,-0.25165625,1.121375,0.018939263080720258,0.023270317877773814,True
29962,23520,0,23521,5214.0,44762.0,29950.0,6.1e-05,0.00061,-0.0011589999999999999,0.22750000000000004,-1.155,-3.9550000000000005,0.8731875,0.039593750000000004,0.3118125,1.1440000000000001,0.8478125,-0.42290625,-0.25125000000000003,1.12675,0.01893714021033021,0.023217875367249112,True
29963,23521,0,23522,5214.0,44763.0,29950.0,-0.00244,0.000366,-0.0023179999999999997,0.47250000000000003,-0.9450000000000001,-3.8675,0.871625,0.039156250000000004,0.3106875,1.1413125,0.8386250000000001,-0.423,-0.2516875,1.12940625,0.018922992670843058,0.02318910797444508,True
29964,23522,0,23523,5214.0,44766.0,29951.0,-0.001769,0.002196,-0.000122,0.7175,-0.9450000000000001,-3.8500000000000005,0.87134375,0.043187500000000004,0.31196875,1.13815625,0.8426875,-0.42303125,-0.25165625,1.12778125,0.019089307352051152,0.023240680726702947,True
29965,23523,0,23524,5214.0,44763.0,29950.0,-0.002562,0.0008539999999999999,-0.000183,0.5775,-1.1900000000000002,-3.6575,0.8708125,0.03715625,0.31365625,1.1321875000000001,0.8397187500000001,-0.42425,-0.25359375,1.11540625,0.018891317031229208,0.02338828652970243,True
29966,23524,0,23525,5215.0,44763.0,29947.0,-0.0006709999999999999,-0.0008539999999999999,0.0042699999999999995,0.29750000000000004,-1.2775,-3.6225000000000005,0.8758750000000001,0.03528125,0.31621875,1.13825,0.8385625,-0.42521875000000003,-0.2534375,1.124625,0.0188534647207612,0.023487649946528195,True
29967,23525,0,23526,5214.0,44764.0,29948.0,0.0032329999999999998,-0.003355,0.008845,0.08750000000000001,-1.3650000000000002,-3.7625,0.8639687500000001,0.03634375,0.3174375,1.13696875,0.84046875,-0.426,-0.252375,1.121875,0.01892834479652829,0.02349512161180091,True
29968,23526,0,23527,5216.0,44764.0,29950.0,-0.0030499999999999998,-0.002013,-0.008662,0.0,-1.6800000000000002,-3.8675,0.877,0.03553125,0.31490625,1.13584375,0.84096875,-0.42271875000000003,-0.25259375,1.12165625,0.01876326729594755,0.023399559067780122,True
29969,23527,0,23528,5217.0,44763.0,29948.0,0.004148,-0.0015249999999999999,-0.004331,0.12250000000000001,-1.715,-3.8325000000000005,0.87421875,0.033625,0.31190625,1.138625,0.84059375,-0.42312500000000003,-0.24346875,1.12215625,0.01870153798909845,0.022908231727359556,True
29970,23528,0,23529,5216.0,44764.0,29949.0,0.00061,0.000793,0.000305,0.6475000000000001,-1.3650000000000002,-3.9375000000000004,0.869,0.0385,0.3101875,1.1500000000000001,0.84265625,-0.42340625,-0.25075000000000003,1.12803125,0.018912441830262722,0.02313072791563148,True
29971,23529,0,23530,5216.0,44765.0,29949.0,-0.003294,0.001952,-0.001769,0.525,-1.225,-3.9550000000000005,0.86834375,0.039218750000000004,0.3123125,1.13784375,0.84859375,-0.4236875,-0.2508125,1.1296875,0.018953167903085887,0.02322087146564677,True
29972,23530,0,23531,5216.0,44763.0,29951.0,-0.003965,0.002379,-0.000122,0.525,-1.0325000000000002,-3.8850000000000002,0.86809375,0.035750000000000004,0.31528125,1.1373125,0.843375,-0.42425,-0.24781250000000002,1.12075,0.01883374105653193,0.023222455633884503,True
29973,23531,0,23532,5218.0,44764.0,29950.0,-0.0013419999999999999,0.0021349999999999997,0.0046359999999999995,0.7175,-1.05,-4.0425,0.87903125,0.0399375,0.31415625,1.1360937500000001,0.83884375,-0.42340625,-0.2485,1.12740625,0.018971299304330246,0.02320375487143535,True
29974,23532,0,23533,5217.0,44765.0,29950.0,-0.000183,0.001037,-6.1e-05,0.7000000000000001,-1.225,-4.0075,0.88190625,0.04071875,0.3165,1.14765625,0.840375,-0.4264375,-0.2493125,1.121375,0.01912502590686833,0.023333135733229555,True
29975,23533,0,23534,5217.0,44762.0,29950.0,0.00122,-0.000549,0.000305,0.22750000000000004,-1.5050000000000001,-3.8850000000000002,0.87309375,0.039468750000000004,0.315375,1.14965625,0.846,-0.42578125,-0.24928125,1.1209375,0.019047497201343355,0.02328548397697355,True
29976,23534,0,23535,5217.0,44762.0,29949.0,0.00042699999999999997,-0.00122,-0.001464,0.3325,-1.6800000000000002,-3.9550000000000005,0.8803125,0.04015625,0.31515625,1.1382812500000001,0.8441875,-0.42178125,-0.24975,1.12059375,0.018914979839973794,0.023295343250961352,True
29977,23535,0,23536,5216.0,44763.0,29950.0,6.1e-05,-0.0017079999999999999,-0.001464,0.3325,-1.5750000000000002,-3.8675,0.88109375,0.0403125,0.319,1.1479375,0.8408125,-0.42346875,-0.24890625,1.12103125,0.018989163854949965,0.023419870741592727,True
29978,23536,0,23537,5216.0,44764.0,29951.0,0.001281,-0.000915,0.001281,0.21000000000000002,-1.5575,-3.7975000000000003,0.8705,0.04040625,0.31553125,1.14421875,0.8379375,-0.42271875000000003,-0.248875,1.1215,0.018962876522500182,0.02327556433030398,True
29979,23537,0,23538,5217.0,44762.0,29952.0,0.000366,-0.000549,0.00061,0.3325,-1.54,-3.9200000000000004,0.8799375,0.04046875,0.31659375,1.14265625,0.84059375,-0.42521875000000003,-0.24871875000000002,1.12159375,0.019065847670248603,0.023313087418278543,True
29980,23538,0,23539,5218.0,44764.0,29951.0,0.000549,6.1e-05,-0.000976,0.36750000000000005,-1.5050000000000001,-4.095000000000001,0.869375,0.04046875,0.31178125,1.14221875,0.8436875,-0.41771875,-0.24825,1.1244687500000001,0.018764549821018807,0.023095738867753342,True
29981,23539,0,23540,5218.0,44763.0,29949.0,0.001281,-6.1e-05,0.000915,0.3325,-1.4525000000000001,-4.0600000000000005,0.870625,0.039656250000000004,0.3134375,1.13128125,0.8415625,-0.42381250000000004,-0.24871875000000002,1.12728125,0.018976101704023484,0.023182925902012867,True
29982,23540,0,23541,5220.0,44764.0,29954.0,-0.000915,0.001098,-0.000793,0.4025,-1.3125000000000002,-4.1825,0.87175,0.0421875,0.31478125,1.1385625,0.842,-0.42265625,-0.2485,1.12878125,0.019033300278302037,0.023229529661628553,True
29983,23541,0,23542,5219.0,44764.0,29952.0,-0.002257,0.000915,-0.00042699999999999997,0.525,-1.1900000000000002,-4.1825,0.8619687500000001,0.0385625,0.31765625000000003,1.138625,0.8345,-0.42362500000000003,-0.24809375,1.12871875,0.018923787930743285,0.023331730973697673,True
29984,23542,0,23543,5220.0,44764.0,29952.0,-0.000305,0.0008539999999999999,0.000183,0.6125,-1.225,-4.0425,0.87175,0.035437500000000004,0.31396875,1.1305625,0.8411875,-0.4246875,-0.25928125,1.1165,0.01883852147545388,0.02363013125131232,True
29985,23543,0,23544,5220.0,44763.0,29953.0,0.001769,0.000122,-0.001037,0.31500000000000006,-1.715,-3.99,0.87128125,0.037125,0.31690625,1.138375,0.83728125,-0.42746875,-0.25109375,1.1131875,0.019019316113135957,0.02342162402468961,True
29986,23544,0,23545,5220.0,44767.0,29954.0,0.004148,0.000122,0.000549,0.21000000000000002,-1.7675,-3.9550000000000005,0.87303125,0.036125,0.32140625,1.13675,0.8330625,-0.43284375,-0.24884375,1.1106562500000001,0.019194194290216425,0.023516585198005577,True
29987,23545,0,23546,5220.0,44764.0,29952.0,0.001464,-0.001952,0.0008539999999999999,0.17500000000000002,-1.6625,-3.8675,0.86371875,0.03678125,0.314,1.13840625,0.83475,-0.43534375000000003,-0.2480625,1.111375,0.01932139792385773,0.023179687036850884,True
29988,23546,0,23547,5222.0,44763.0,29951.0,-0.000915,-0.0017079999999999999,0.000305,0.17500000000000002,-1.54,-3.9375000000000004,0.8717812500000001,0.0363125,0.31715625000000003,1.138375,0.8279375,-0.428375,-0.2509375,1.11153125,0.019022448279920383,0.023425640761310776,True
29989,23547,0,23548,5219.0,44762.0,29953.0,0.000549,0.00042699999999999997,0.00183,0.29750000000000004,-1.5750000000000002,-3.9200000000000004,0.8631875,0.03809375,0.31690625,1.136625,0.8346250000000001,-0.42625,-0.242625,1.1099375,0.019010030192927692,0.023080472927333572,True
29990,23548,0,23549,5221.0,44764.0,29953.0,0.000366,0.00122,0.001464,0.7175,-1.3475000000000001,-3.9550000000000005,0.87934375,0.039281250000000004,0.3175,1.13825,0.84778125,-0.43275,-0.241125,1.112,0.019319611996193635,0.023044516292045028,True
29991,23549,0,23550,5222.0,44764.0,29953.0,-0.002074,0.001647,-0.00061,0.7525000000000001,-1.2425000000000002,-3.9375000000000004,0.87865625,0.039968750000000004,0.3175625,1.1448125,0.85553125,-0.42846875,-0.24171875,1.1323125,0.01917588469395979,0.023071022965316768,True
29992,23550,0,23551,5223.0,44763.0,29952.0,-0.0035989999999999998,0.002074,-0.001098,0.7000000000000001,-1.225,-3.9550000000000005,0.8795625,0.0420625,0.31821875,1.1313125,0.86759375,-0.42440625,-0.24059375,1.109625,0.019098468360924842,0.023052756288199416,True
29993,23551,0,23552,5223.0,44763.0,29953.0,-0.0025009999999999998,0.0013419999999999999,-0.000549,0.6300000000000001,-1.33,-4.025,0.875375,0.0395625,0.31953125,1.14421875,0.8284375,-0.433875,-0.24128125,1.11753125,0.019376275764691437,0.023134606385543252,True
29994,23552,0,23553,5222.0,44763.0,29953.0,0.002074,-0.0018909999999999999,-0.001037,0.1925,-1.5750000000000002,-3.9375000000000004,0.8708750000000001,0.039281250000000004,0.31490625,1.13803125,0.85540625,-0.41621875,-0.2495625,1.1398125000000001,0.018655632334552214,0.023277481810238844,True
29995,23553,0,23554,5221.0,44764.0,29953.0,0.002806,-0.003111,0.000549,0.08750000000000001,-1.4875,-4.130000000000001,0.87025,0.03903125,0.31559375,1.137875,0.82665625,-0.42034375,-0.2490625,1.1371875,0.018811160264687102,0.023285694034563188,True
29996,23554,0,23555,5223.0,44764.0,29955.0,0.002196,-0.002196,-0.000305,0.07,-1.4875,-4.2,0.871375,0.03775,0.31765625000000003,1.13778125,0.8274375,-0.4279375,-0.24415625,1.11184375,0.01906372570340824,0.02317311001491339,True
29997,23555,0,23556,5223.0,44764.0,29953.0,0.000183,-0.001037,-0.000183,0.10500000000000001,-1.5575,-4.2,0.87946875,0.039406250000000004,0.3153125,1.1425625,0.84103125,-0.4265625,-0.243375,1.1240625,0.01907631292778098,0.02304495558064832,True
29998,23556,0,23557,5223.0,44765.0,29954.0,0.00122,0.000244,0.000549,0.31500000000000006,-1.5575,-4.1475,0.8714375,0.03815625,0.31678125,1.1349375,0.8453437500000001,-0.42240625,-0.24790625,1.12971875,0.018858195023268846,0.02328809317299303,True
29999,23557,0,23558,5225.0,44764.0,29953.0,0.00042699999999999997,0.000549,0.000488,0.4025,-1.5050000000000001,-4.077500000000001,0.87746875,0.03896875,0.3176875,1.14415625,0.8404375000000001,-0.4270625,-0.24628125,1.1216875,0.01907848109038899,0.02326001023352808,True
30000,23558,0,23559,5223.0,44763.0,29951.0,0.00061,0.001281,-0.0011589999999999999,0.35000000000000003,-1.4525000000000001,-3.9725000000000006,0.87615625,0.038875,0.3148125,1.138125,0.841125,-0.42528125,-0.243375,1.1280937500000001,0.019003107691953392,0.02302433138950332,True
30001,23559,0,23560,5222.0,44763.0,29948.0,-0.000976,0.000549,0.000549,0.45500000000000007,-1.4700000000000002,-3.9375000000000004,0.8719375,0.03659375,0.320625,1.14225,0.84009375,-0.4240625,-0.247875,1.1215,0.01886075463490154,0.023445353458808247,True
30002,23560,0,23561,5222.0,44762.0,29946.0,-0.001769,6.1e-05,0.000976,0.42000000000000004,-1.54,-3.8500000000000005,0.8715625,0.03865625,0.31790625,1.13825,0.84559375,-0.4234375,-0.247375,1.12171875,0.018920094683641482,0.023313090592280605,True
30003,23561,0,23562,5223.0,44765.0,29947.0,-0.001281,0.000793,0.00061,0.47250000000000003,-1.4525000000000001,-3.7975000000000003,0.87590625,0.039218750000000004,0.3171875,1.14359375,0.8403125,-0.42653125000000003,-0.24606250000000002,1.1208125,0.019067381906712606,0.02323057609869644,True
30004,23562,0,23563,5219.0,44764.0,29947.0,-0.001586,-0.000183,-0.000244,0.525,-1.4175000000000002,-3.8150000000000004,0.86909375,0.03884375,0.3181875,1.13853125,0.8456875,-0.42340625,-0.24678125,1.12696875,0.018926516443626695,0.02330077316963463,True
30005,23563,0,23564,5219.0,44762.0,29945.0,-0.0015249999999999999,0.00042699999999999997,-0.000122,0.47250000000000003,-1.5225000000000002,-3.8850000000000002,0.87153125,0.03771875,0.318875,1.13846875,0.8405625,-0.424375,-0.2495625,1.12696875,0.01891936845876302,0.023441144556731696,True
30006,23564,0,23565,5218.0,44762.0,29946.0,0.00061,0.000549,6.1e-05,0.47250000000000003,-1.4525000000000001,-3.8675,0.87665625,0.03859375,0.318375,1.1409375,0.84040625,-0.4245625,-0.2476875,1.121625,0.018962724511442118,0.023345009704533678,True
30007,23565,0,23566,5216.0,44760.0,29944.0,0.0008539999999999999,-0.000183,0.000122,0.45500000000000007,-1.4875,-3.9025000000000003,0.8803125,0.039906250000000004,0.318,1.14675,0.8407187500000001,-0.42625,-0.24521875,1.121875,0.019084233150811116,0.023230095624523907,True
30008,23566,0,23567,5215.0,44762.0,29945.0,0.000793,-0.000183,-0.000549,0.29750000000000004,-1.4175000000000002,-3.9550000000000005,0.867625,0.0383125,0.3125,1.13825,0.84709375,-0.42478125,-0.24584375,1.12521875,0.018959995803442455,0.023028431419302536,True
30009,23567,0,23568,5213.0,44763.0,29945.0,0.0006709999999999999,-0.000488,-0.001098,0.2625,-1.4175000000000002,-3.9375000000000004,0.86840625,0.035312500000000004,0.314875,1.1345,0.83596875,-0.4234375,-0.2454375,1.12121875,0.018783187256093663,0.023110018121966246,True
30010,23568,0,23569,5213.0,44763.0,29943.0,0.000305,-0.001098,-0.0013419999999999999,0.42000000000000004,-1.3825,-4.077500000000001,0.8675,0.03215625,0.32096875,1.1455625,0.84584375,-0.42403125,-0.2491875,1.1215625,0.018677813475201806,0.023512385724263958,True
30011,23569,0,23570,5212.0,44762.0,29943.0,-0.000183,-0.000366,-0.000244,0.49000000000000005,-1.3825,-4.1825,0.87915625,0.04175,0.319125,1.15475,0.8399375,-0.42728125,-0.24853125,1.122125,0.019201123743560287,0.02340992302368829,True
30012,23570,0,23571,5211.0,44762.0,29942.0,-0.000976,-0.000366,0.0,0.4025,-1.225,-4.2,0.8659375,0.04146875,0.31278125,1.15159375,0.8415312500000001,-0.4270625,-0.2455,1.12128125,0.019180826593455515,0.0230261801158978,True
30013,23571,0,23572,5210.0,44761.0,29944.0,-0.0006709999999999999,0.000793,0.001952,0.4025,-1.1375000000000002,-4.095000000000001,0.865375,0.0408125,0.3176875,1.15496875,0.84521875,-0.4266875,-0.24531250000000002,1.12234375,0.019138902890537247,0.023220983437520142,True
30014,23572,0,23573,5210.0,44762.0,29943.0,0.0006709999999999999,0.0011589999999999999,0.0017079999999999999,0.45500000000000007,-1.2950000000000002,-4.0600000000000005,0.86465625,0.0385625,0.32053125,1.12715625,0.84575,-0.42590625,-0.24575,1.12921875,0.019015415241757917,0.023355897425321962,True
30015,23573,0,23574,5210.0,44761.0,29943.0,0.0008539999999999999,0.00061,-0.000244,0.5425000000000001,-1.5050000000000001,-3.99,0.89046875,0.04190625,0.31803125,1.15275,0.8405625,-0.42459375,-0.24734375,1.1211875,0.01909960119602808,0.023316987041106307,True
30016,23574,0,23575,5209.0,44759.0,29943.0,0.000915,0.00042699999999999997,-0.002196,0.525,-1.6275000000000002,-4.095000000000001,0.86584375,0.031843750000000004,0.325125,1.1557187500000001,0.8421875,-0.42396875,-0.24734375,1.121875,0.018662507500956414,0.023609544859939557,True
30017,23575,0,23576,5209.0,44758.0,29942.0,0.002379,0.0011589999999999999,-0.001403,0.525,-1.5575,-4.1475,0.8646875,0.035500000000000004,0.31553125,1.1328125,0.84484375,-0.42490625,-0.24565625,1.126625,0.01884986764278778,0.023145898556571343,True
30018,23576,0,23577,5209.0,44760.0,29945.0,0.00042699999999999997,0.0,0.000488,0.385,-1.5750000000000002,-3.9725000000000006,0.8824062500000001,0.04359375,0.31625000000000003,1.137125,0.83440625,-0.42446875,-0.24696875000000001,1.12128125,0.019163671676584573,0.023228419016294567,True
30019,23577,0,23578,5209.0,44759.0,29943.0,-0.000183,-0.001647,0.000305,0.22750000000000004,-1.3825,-4.0425,0.8644375,0.03209375,0.32346875,1.13709375,0.8466250000000001,-0.42378125,-0.24690625,1.1264687500000001,0.018665209753301402,0.02352361963704133,True
30020,23578,0,23579,5208.0,44758.0,29943.0,-0.000366,-0.001098,-0.000244,0.17500000000000002,-1.3650000000000002,-4.0600000000000005,0.88453125,0.04246875,0.31646875,1.1400625,0.8405625,-0.4259375,-0.24575,1.12140625,0.019176592505405373,0.023188342286792528,True
30021,23579,0,23580,5211.0,44762.0,29946.0,-0.000244,-0.000366,-0.001464,0.42000000000000004,-1.2950000000000002,-4.165,0.8664375,0.03709375,0.32125,1.137375,0.8408125,-0.42381250000000004,-0.24884375,1.1266875,0.01887118360411586,0.023510141591802702,True
30022,23580,0,23581,5208.0,44758.0,29944.0,-0.000793,6.1e-05,-0.000549,0.6125,-1.1900000000000002,-4.0425,0.87665625,0.043812500000000004,0.318,1.14365625,0.840375,-0.42440625,-0.24621875000000001,1.1225625000000001,0.019170118004403894,0.02327038107746182,True
30023,23581,0,23582,5210.0,44763.0,29947.0,-0.000183,0.00183,0.0006709999999999999,0.6475000000000001,-1.0850000000000002,-4.0075,0.8710625000000001,0.039,0.3161875,1.13890625,0.84859375,-0.42328125,-0.24540625,1.12921875,0.018927892827668272,0.023162892970704504,True
30024,23582,0,23583,5211.0,44762.0,29943.0,-0.00042699999999999997,0.002989,0.001647,0.665,-0.9100000000000001,-4.077500000000001,0.8715625,0.03609375,0.31875000000000003,1.13825,0.8414375000000001,-0.42381250000000004,-0.2495625,1.12903125,0.018830239955371423,0.02343598982455869,True
30025,23583,0,23584,5211.0,44758.0,29944.0,-0.00244,0.000366,0.001403,0.56,-0.8925000000000001,-4.1475,0.8708750000000001,0.03859375,0.31853125,1.14034375,0.83325,-0.4199375,-0.2489375,1.1214375,0.018776921521605042,0.023401798532409923,True
30026,23584,0,23585,5208.0,44760.0,29945.0,-0.00183,-0.001586,-0.000793,0.4025,-0.9975,-4.095000000000001,0.88034375,0.039593750000000004,0.31709375,1.1435,0.8425625,-0.42640625,-0.2459375,1.12178125,0.019077714307646054,0.02322167373400183,True
30027,23585,0,23586,5210.0,44759.0,29948.0,0.000488,-0.002562,-0.0030499999999999998,0.052500000000000005,-1.3475000000000001,-4.095000000000001,0.8715937500000001,0.04503125,0.31621875,1.14253125,0.8403437500000001,-0.42359375,-0.24631250000000002,1.1264687500000001,0.01918738924323944,0.023200692888867124,True
30028,23586,0,23587,5209.0,44760.0,29947.0,0.0026839999999999998,-0.0026839999999999998,-0.00366,-0.035,-1.4875,-4.0600000000000005,0.87071875,0.03728125,0.31953125,1.1383125,0.84865625,-0.42325,-0.2456875,1.12709375,0.018856264010727482,0.023312135405523148,True
30029,23587,0,23588,5208.0,44760.0,29947.0,0.0026839999999999998,-0.000915,0.00122,0.17500000000000002,-1.1375000000000002,-4.2700000000000005,0.87853125,0.03890625,0.31915625000000003,1.14053125,0.8408125,-0.42628125,-0.2490625,1.1147500000000001,0.019044548584324517,0.02343260693068031,True
30030,23588,0,23589,5208.0,44762.0,29949.0,-0.001464,0.00061,0.0018909999999999999,0.47250000000000003,-0.8225000000000001,-4.235,0.875375,0.039968750000000004,0.3153125,1.1389375,0.842875,-0.42340625,-0.24609375,1.13025,0.018972578814636064,0.023154502980505882,True
30031,23589,0,23590,5208.0,44760.0,29947.0,-0.0040869999999999995,0.0025009999999999998,0.001647,0.6825000000000001,-0.7000000000000001,-4.2,0.87309375,0.044,0.3168125,1.1438125000000001,0.8401875,-0.42325,-0.246125,1.12109375,0.01913136048642175,0.023217627559042938,True
30032,23590,0,23591,5208.0,44758.0,29948.0,-0.003355,0.002623,0.0017079999999999999,0.8400000000000001,-0.8400000000000001,-4.2175,0.8717812500000001,0.0375,0.31859375,1.13546875,0.8486875,-0.42278125,-0.24821875000000002,1.12125,0.018846389577354135,0.023375428349762806,True
30033,23591,0,23592,5208.0,44759.0,29947.0,-0.002257,0.003843,0.002013,0.8400000000000001,-0.9450000000000001,-4.2525,0.87628125,0.039218750000000004,0.3159375,1.13909375,0.8401875,-0.42678125,-0.245625,1.12971875,0.019077421426533632,0.02316139509705359,True
30034,23592,0,23593,5209.0,44761.0,29946.0,-0.00183,0.002379,-0.00122,0.6475000000000001,-1.12,-4.235,0.87715625,0.0394375,0.31903125,1.144625,0.8389375,-0.4254375,-0.24653125,1.12115625,0.019032412418406017,0.023325501457038312,True
30035,23593,0,23594,5209.0,44761.0,29948.0,-0.000305,0.00042699999999999997,-0.001464,0.525,-1.0850000000000002,-4.375,0.8717812500000001,0.0403125,0.31765625000000003,1.14565625,0.84265625,-0.42565625,-0.24496875,1.12234375,0.019077020704407893,0.02320584554269636,True
30036,23594,0,23595,5207.0,44760.0,29949.0,-0.00122,-0.00061,-0.000183,0.42000000000000004,-1.0675000000000001,-4.4975000000000005,0.8788125,0.039906250000000004,0.31796875,1.1430625,0.84059375,-0.42603125000000003,-0.24506250000000002,1.12203125,0.019075448452150815,0.02322251180008301,True
30037,23595,0,23596,5209.0,44759.0,29948.0,-0.0008539999999999999,-0.0011589999999999999,-0.00061,0.4025,-1.1375000000000002,-4.7075000000000005,0.87425,0.039281250000000004,0.3168125,1.1455,0.8433437500000001,-0.4260625,-0.24540625,1.11346875,0.019051115995465908,0.023188671049799384,True
30038,23596,0,23597,5209.0,44758.0,29948.0,0.000305,-0.001403,0.000488,0.24500000000000002,-1.1375000000000002,-4.777500000000001,0.8710625000000001,0.039125,0.31984375,1.14334375,0.84796875,-0.42375,-0.246,1.12225,0.018951839909923746,0.023337612389672524,True
30039,23597,0,23598,5211.0,44758.0,29948.0,0.001037,-0.000122,0.000122,0.35000000000000003,-1.2425000000000002,-4.970000000000001,0.871375,0.0383125,0.31675000000000003,1.1433125,0.84715625,-0.4230625,-0.24596875,1.12196875,0.018890956037966162,0.023208755063663936,True
30040,23598,0,23599,5210.0,44758.0,29950.0,0.0025009999999999998,-0.000305,0.0015249999999999999,0.45500000000000007,-1.12,-5.040000000000001,0.87734375,0.0374375,0.31803125,1.1383125,0.8405625,-0.42709375,-0.2496875,1.1204687500000001,0.0190170494596804,0.023411384167321747,True
30041,23599,0,23600,5210.0,44762.0,29951.0,0.0013419999999999999,-0.0011589999999999999,0.00122,0.525,-1.0850000000000002,-5.11,0.873375,0.0384375,0.31734375,1.13825,0.8404375000000001,-0.42312500000000003,-0.24959375,1.12665625,0.018898584845305426,0.02337925764220277,True
30042,23600,0,23601,5212.0,44760.0,29952.0,0.001037,-0.000732,-0.0011589999999999999,0.42000000000000004,-1.05,-5.0925,0.8709687500000001,0.038,0.3173125,1.13834375,0.839875,-0.42384375,-0.2441875,1.1288125,0.018909544080259685,0.023160190458022156,True
30043,23601,0,23602,5211.0,44760.0,29950.0,0.0025009999999999998,-0.0013419999999999999,-0.00122,0.47250000000000003,-1.0325000000000002,-5.075,0.8709687500000001,0.0378125,0.31515625,1.13859375,0.841125,-0.4236875,-0.2426875,1.1299062500000001,0.018895590602360925,0.023010804804541575,True
30044,23602,0,23603,5210.0,44761.0,29951.0,0.001281,-0.00122,-0.000793,0.43750000000000006,-0.665,-5.040000000000001,0.8717812500000001,0.04040625,0.314625,1.13953125,0.8455625,-0.42309375,-0.24696875000000001,1.117125,0.01897793968055337,0.023161400329680386,True
30045,23603,0,23604,5211.0,44760.0,29951.0,0.001098,-0.0008539999999999999,-0.0013419999999999999,0.45500000000000007,-0.45500000000000007,-5.040000000000001,0.875,0.03771875,0.3151875,1.138625,0.8320000000000001,-0.42596875,-0.24853125,1.12125,0.018983382184176424,0.023247542054737853,True
30046,23604,0,23605,5212.0,44761.0,29952.0,0.000183,-0.00122,-0.000549,0.45500000000000007,-0.385,-5.005000000000001,0.8715625,0.03734375,0.3134375,1.13871875,0.83946875,-0.42453125,-0.25309375,1.11915625,0.018910291267104667,0.023359133306446726,True
30047,23605,0,23606,5214.0,44761.0,29953.0,-0.0011589999999999999,-0.000549,-0.000488,0.5775,-0.22750000000000004,-5.040000000000001,0.87628125,0.0401875,0.31328125,1.1495625,0.83784375,-0.42440625,-0.2488125,1.11759375,0.019021700885768714,0.023180258827107517,True
30048,23606,0,23607,5210.0,44761.0,29953.0,-0.00244,0.00122,0.0006709999999999999,0.7875000000000001,-0.1925,-4.970000000000001,0.871125,0.0395,0.3061875,1.13015625,0.853875,-0.42328125,-0.251125,1.13278125,0.018948365097339246,0.022980892639001285,True
30049,23607,0,23608,5212.0,44762.0,29953.0,-0.001098,0.0008539999999999999,0.0011589999999999999,0.805,-0.07,-4.952500000000001,0.8760625,0.0326875,0.3159375,1.1319062500000001,0.83715625,-0.42234375,-0.254375,1.11909375,0.018631760106971717,0.023513799056871183,True
30050,23608,0,23609,5213.0,44759.0,29954.0,0.000122,0.001281,0.00042699999999999997,0.6825000000000001,-0.15750000000000003,-5.005000000000001,0.8950625,0.0416875,0.3105,1.162125,0.8379375,-0.42884375,-0.2545625,1.1081875,0.01926129843947281,0.023297163162600852,True
30051,23609,0,23610,5213.0,44758.0,29951.0,-0.000549,0.0008539999999999999,0.000305,0.56,-0.10500000000000001,-5.005000000000001,0.8661562500000001,0.04196875,0.29912500000000003,1.13259375,0.84325,-0.42653125000000003,-0.24625,1.121,0.019179964408577253,0.02249316904675981,True
30052,23610,0,23611,5215.0,44761.0,29955.0,-0.000732,0.000122,-0.000366,0.525,0.0175,-4.9175,0.85975,0.03121875,0.3155,1.1270625,0.8500625,-0.42171875000000003,-0.253125,1.123125,0.018546503816403177,0.02344543228965339,True
30053,23611,0,23612,5217.0,44763.0,29956.0,-0.0008539999999999999,-0.000244,-0.0011589999999999999,0.35000000000000003,0.08750000000000001,-4.9350000000000005,0.86571875,0.03215625,0.3008125,1.1254375,0.8440625,-0.4225,-0.253625,1.133875,0.01861628621148531,0.02285998484762587,True
30054,23612,0,23613,5217.0,44762.0,29957.0,0.000366,-0.0011589999999999999,-0.000122,0.28,0.15750000000000003,-4.952500000000001,0.87340625,0.03778125,0.31275000000000003,1.141375,0.8411875,-0.42421875000000003,-0.2595,1.1183750000000001,0.018915651089146914,0.02358869721140172,True
30055,23613,0,23614,5217.0,44764.0,29956.0,-0.000244,0.00042699999999999997,0.000366,0.35000000000000003,0.22750000000000004,-5.022500000000001,0.89078125,0.04228125,0.30743750000000003,1.15034375,0.83759375,-0.429375,-0.2535,1.1187500000000001,0.019306930693069307,0.023128105221926737,True
30056,23614,0,23615,5218.0,44763.0,29958.0,-0.0008539999999999999,0.0013419999999999999,0.001647,0.56,0.3325,-4.9350000000000005,0.8483437500000001,0.03365625,0.3045,1.1284687500000001,0.85028125,-0.42290625,-0.25478125,1.129625,0.018694028275197592,0.02305859798261425,True
30057,23615,0,23616,5219.0,44763.0,29956.0,-0.0030499999999999998,0.002013,0.0011589999999999999,0.8400000000000001,0.36750000000000005,-5.075,0.87228125,0.031781250000000004,0.31178125,1.15653125,0.82921875,-0.4230625,-0.2566875,1.12084375,0.01862353462019761,0.02343554741347103,True
30058,23616,0,23617,5219.0,44761.0,29957.0,-0.0051849999999999995,0.001952,-0.002562,0.7525000000000001,-0.17500000000000002,-4.987500000000001,0.868125,0.0423125,0.30203125000000003,1.1524375,0.839375,-0.42771875000000004,-0.25490625,1.1206875,0.019241716953205056,0.022961849213496758,True
30059,23617,0,23618,5218.0,44761.0,29958.0,0.001281,0.001952,0.0008539999999999999,0.6125,-0.08750000000000001,-4.987500000000001,0.8583125,0.03553125,0.30825,1.1275625,0.848875,-0.42375,-0.25665625000000003,1.12925,0.018804698295716262,0.023288710701830556,True
30060,23618,0,23619,5221.0,44761.0,29956.0,0.006161,-0.001403,0.006893,0.4025,0.10500000000000001,-4.865,0.88853125,0.03690625,0.30803125,1.131875,0.8407187500000001,-0.42390625,-0.25996875,1.12653125,0.01886727271564105,0.023413055715498402,True
30061,23619,0,23620,5221.0,44762.0,29958.0,0.001769,-0.0021349999999999997,0.0013419999999999999,0.22750000000000004,0.17500000000000002,-4.777500000000001,0.86671875,0.03646875,0.30521875,1.14028125,0.83834375,-0.42278125,-0.2594375,1.1285625,0.018804164656717793,0.02327573547408096,True
30062,23620,0,23621,5222.0,44760.0,29956.0,0.000122,-0.002379,0.000305,0.2625,0.17500000000000002,-4.9,0.86915625,0.0400625,0.30921875,1.1440625,0.8468125,-0.4234375,-0.25759375,1.1206562500000001,0.018977672573731688,0.023366394286325285,True
30063,23621,0,23622,5222.0,44762.0,29959.0,-0.002257,0.00061,-0.0017079999999999999,0.8925000000000001,0.12250000000000001,-4.987500000000001,0.87465625,0.0399375,0.3053125,1.143875,0.8479375,-0.4261875,-0.2586875,1.125,0.019083002617580006,0.023249402920087908,True
30064,23622,0,23623,5224.0,44761.0,29957.0,-0.002562,0.001403,-0.000549,0.9975,0.07,-4.8825,0.8715625,0.03925,0.30334375,1.13671875,0.8459375,-0.42365625,-0.25903125,1.1280000000000001,0.01895319215361132,0.023182088114091535,True
30065,23623,0,23624,5223.0,44761.0,29959.0,-0.0021349999999999997,0.001403,-0.000122,0.8575,-0.24500000000000002,-4.7075000000000005,0.8709687500000001,0.039906250000000004,0.30115625,1.144125,0.8433125,-0.42281250000000004,-0.2588125,1.1280625,0.018946169692782112,0.023083106396902156,True
30066,23624,0,23625,5224.0,44761.0,29958.0,0.000732,0.0006709999999999999,0.000183,0.7525000000000001,-0.6300000000000001,-4.795000000000001,0.8678750000000001,0.0395625,0.30221875,1.14103125,0.84584375,-0.42353125,-0.25740625,1.1224687500000001,0.018960966178877187,0.023070273640653567,True
30067,23625,0,23626,5225.0,44760.0,29961.0,0.003294,-0.0013419999999999999,-0.0008539999999999999,0.56,-0.7175,-4.812500000000001,0.8719375,0.0396875,0.3009375,1.13825,0.8400625,-0.42281250000000004,-0.26053125,1.12978125,0.018937212902895604,0.02314329988136595,True
30068,23626,0,23627,5226.0,44764.0,29962.0,0.00122,-0.00122,-0.001037,0.385,-0.9275000000000001,-4.987500000000001,0.870375,0.036375,0.30328125,1.1340000000000001,0.8410625,-0.41878125,-0.2631875,1.12175,0.01863959733862639,0.02334683973406215,True
30069,23627,0,23628,5227.0,44766.0,29960.0,-0.000732,-0.001037,0.0008539999999999999,0.35000000000000003,-0.8575,-4.83,0.87771875,0.03590625,0.30265625,1.13884375,0.8407187500000001,-0.42759375,-0.2574375,1.12203125,0.018974443604376712,0.02308956789026046,True
30070,23628,0,23629,5227.0,44765.0,29959.0,0.0,0.000183,0.000732,0.43750000000000006,-0.9450000000000001,-4.777500000000001,0.8787812500000001,0.0374375,0.30203125000000003,1.137125,0.8401875,-0.42078125,-0.25953125,1.12128125,0.018763476291324625,0.023148118329780178,True
30071,23629,0,23630,5227.0,44764.0,29957.0,0.000488,0.000915,6.1e-05,0.49000000000000005,-1.0150000000000001,-4.7250000000000005,0.87853125,0.0395625,0.3013125,1.13803125,0.8405625,-0.42540625,-0.26078125,1.1222812500000001,0.01903627498519088,0.023168823139197138,True
30072,23630,0,23631,5228.0,44764.0,29955.0,-0.000122,0.001281,0.000488,0.45500000000000007,-0.9975,-4.62,0.8783125,0.04025,0.30134375,1.14325,0.84015625,-0.4276875,-0.26234375,1.1221875000000001,0.019156029403110713,0.02323301927498245,True
30073,23631,0,23632,5226.0,44762.0,29954.0,-0.000976,6.1e-05,0.001037,0.43750000000000006,-1.0675000000000001,-4.550000000000001,0.87725,0.04490625,0.3009375,1.145875,0.84678125,-0.42446875,-0.26256250000000003,1.1214375,0.01921740877168516,0.02322508185192723,True
30074,23632,0,23633,5227.0,44765.0,29954.0,0.0,0.000122,-0.000366,0.35000000000000003,-1.0325000000000002,-4.3925,0.8751875,0.039375,0.30015625,1.14346875,0.84628125,-0.424,-0.2626875,1.1222812500000001,0.01897211758925647,0.023197914493190423,True
30075,23633,0,23634,5225.0,44763.0,29952.0,-0.000549,-0.00061,-0.00061,0.21000000000000002,-1.12,-4.357500000000001,0.87584375,0.044,0.2974375,1.13815625,0.848625,-0.42415625,-0.26415625,1.12659375,0.01916775528325569,0.023144993966151203,True
30076,23634,0,23635,5225.0,44763.0,29952.0,0.000244,-0.001281,-0.000122,0.35000000000000003,-1.155,-4.305000000000001,0.87171875,0.0365625,0.299,1.138625,0.8399375,-0.4246875,-0.2649375,1.12053125,0.01888458143016159,0.02324083876169061,True
30077,23635,0,23636,5224.0,44764.0,29952.0,-0.00061,-0.0011589999999999999,-0.000244,0.21000000000000002,-1.0675000000000001,-4.2700000000000005,0.87771875,0.03796875,0.29903125,1.138375,0.8405312500000001,-0.426,-0.26440625,1.11290625,0.018994872267256203,0.023220741286426493,True
30078,23636,0,23637,5223.0,44763.0,29951.0,-0.001952,-6.1e-05,-0.000488,0.29750000000000004,-1.05,-4.077500000000001,0.8749375,0.03703125,0.29962500000000003,1.1395,0.8396875,-0.4241875,-0.26471875,1.12140625,0.018883688556681773,0.023257790696626146,True
30079,23637,0,23638,5222.0,44762.0,29947.0,-0.001281,0.000122,6.1e-05,0.385,-1.0850000000000002,-4.2525,0.8787812500000001,0.0375625,0.2989375,1.13659375,0.84028125,-0.42675,-0.26615625,1.1211875,0.019008361734573778,0.02328732017457441,True
30080,23638,0,23639,5221.0,44761.0,29947.0,0.001098,0.000793,0.00042699999999999997,0.525,-1.05,-4.1825,0.8745,0.035812500000000004,0.29875,1.1385625,0.84046875,-0.423,-0.2653125,1.1222812500000001,0.018786082790811943,0.02324563098043761,True
30081,23639,0,23640,5218.0,44759.0,29948.0,0.001281,0.001952,0.00061,0.56,-1.0325000000000002,-4.322500000000001,0.8780625,0.03690625,0.29940625,1.13915625,0.83984375,-0.4266875,-0.2655625,1.1224687500000001,0.018978985586973265,0.023282738654832335,True
30082,23640,0,23641,5217.0,44760.0,29950.0,0.0,0.0032329999999999998,-0.000183,0.5075000000000001,-0.9800000000000001,-4.340000000000001,0.87953125,0.03659375,0.2995,1.13821875,0.84075,-0.42653125000000003,-0.26415625,1.12196875,0.018959916791296348,0.023229995891573603,True
30083,23641,0,23642,5218.0,44763.0,29948.0,-0.001403,0.0021349999999999997,0.001464,0.665,-1.0150000000000001,-4.2525,0.87909375,0.03690625,0.2999375,1.1389375,0.8407187500000001,-0.42712500000000003,-0.266,1.1218125,0.018996556082633547,0.023322240995631748,True
30084,23642,0,23643,5218.0,44762.0,29949.0,-0.000122,0.0018909999999999999,0.000549,0.6825000000000001,-1.155,-4.2,0.87721875,0.04321875,0.29971875000000003,1.139,0.84046875,-0.42875,-0.2675,1.1218125,0.019320216957478382,0.02337359637375091,True
30085,23643,0,23644,5216.0,44762.0,29948.0,-0.000915,0.000549,-0.000366,0.525,-1.2600000000000002,-4.1475,0.8793125,0.0380625,0.2985,1.1419062500000001,0.8376875,-0.431,-0.2636875,1.1160625,0.019199480168638206,0.02316991182811764,True
30086,23644,0,23645,5215.0,44760.0,29947.0,-0.000793,-0.0015249999999999999,-0.000915,0.21000000000000002,-1.3650000000000002,-4.112500000000001,0.87925,0.03975,0.29909375,1.1460937500000001,0.8629375,-0.42512500000000003,-0.26115625,1.11925,0.019032655922948193,0.02309246905740529,True
30087,23645,0,23646,5217.0,44763.0,29949.0,0.0017079999999999999,-0.003111,0.00061,0.14,-1.2775,-4.0425,0.8727812500000001,0.0390625,0.2975625,1.14640625,0.853375,-0.420625,-0.263125,1.133125,0.018823740178639983,0.023108626774168622,True
30088,23646,0,23647,5215.0,44762.0,29949.0,-0.001769,-0.002989,-0.00122,0.14,-1.1375000000000002,-4.1475,0.87175,0.0393125,0.2964375,1.14628125,0.8485,-0.42090625,-0.2613125,1.13340625,0.018845277291869543,0.022989275621424027,True
30089,23647,0,23648,5214.0,44762.0,29949.0,-0.00061,-0.001037,-0.000122,0.3325,-1.1725,-4.095000000000001,0.87071875,0.042375,0.29684375,1.13890625,0.85046875,-0.4215,-0.262125,1.1303125,0.01899453350531294,0.023038738362777374,True
30090,23648,0,23649,5214.0,44761.0,29950.0,-0.0006709999999999999,6.1e-05,-0.0006709999999999999,0.6475000000000001,-1.4175000000000002,-4.130000000000001,0.87671875,0.0398125,0.297375,1.13840625,0.8569687500000001,-0.42459375,-0.26246875000000003,1.10896875,0.019013878173511075,0.023074475881602115,True
30091,23649,0,23650,5215.0,44763.0,29949.0,0.0011589999999999999,0.0026839999999999998,-0.000244,0.8750000000000001,-1.6800000000000002,-4.112500000000001,0.8734375,0.03590625,0.298,1.13821875,0.8348125000000001,-0.42765625,-0.26946875,1.13084375,0.01897695363221758,0.023382001305652805,True
30092,23650,0,23651,5215.0,44763.0,29950.0,0.00244,0.0032329999999999998,0.000793,0.9100000000000001,-1.7500000000000002,-4.095000000000001,0.8718125,0.038875,0.29459375,1.143125,0.8261875,-0.42181250000000003,-0.26884375,1.13753125,0.01886377188425306,0.02321649542945366,True
30093,23651,0,23652,5214.0,44763.0,29952.0,0.000244,0.000976,-6.1e-05,0.56,-1.6800000000000002,-3.9200000000000004,0.871125,0.0386875,0.29703125,1.145,0.8351875,-0.4175625,-0.26759375,1.1360000000000001,0.018685321272342396,0.02326662485851116,True
30094,23652,0,23653,5216.0,44764.0,29950.0,0.000305,0.000549,-0.000122,0.47250000000000003,-1.8025000000000002,-3.9725000000000006,0.8725,0.039406250000000004,0.29665625,1.143,0.8384375000000001,-0.42178125,-0.2671875,1.13434375,0.01888426954933928,0.02323482068121821,True
30095,23653,0,23654,5215.0,44763.0,29952.0,0.000732,-0.000732,0.000976,0.4025,-1.7675,-3.9550000000000005,0.864375,0.039593750000000004,0.298,1.1457187500000001,0.83609375,-0.42225,-0.2651875,1.11375,0.018910778081462604,0.02320969083795458,True
30096,23654,0,23655,5215.0,44765.0,29952.0,0.001403,-0.000366,0.0008539999999999999,0.385,-1.7325000000000002,-3.8150000000000004,0.8715937500000001,0.03834375,0.29778125,1.1421875000000001,0.84721875,-0.42225,-0.262375,1.12,0.01885959524613826,0.02308744506669277,True
30097,23655,0,23656,5215.0,44765.0,29950.0,0.00183,-0.001769,-0.00122,0.22750000000000004,-1.8200000000000003,-3.7100000000000004,0.87734375,0.038875,0.301,1.13884375,0.848125,-0.42381250000000004,-0.26475,1.11209375,0.018944114478441892,0.02331571518354815,True
30098,23656,0,23657,5214.0,44763.0,29951.0,-0.0017079999999999999,-0.001464,-0.0011589999999999999,0.3325,-1.54,-3.6225000000000005,0.8785625,0.0366875,0.29809375,1.1384375,0.8405312500000001,-0.42675,-0.26753125,1.12178125,0.018972540350230792,0.023307892103775492,True
30099,23657,0,23658,5215.0,44762.0,29952.0,-0.0028669999999999998,-0.00122,-0.00183,0.42000000000000004,-1.5050000000000001,-3.7100000000000004,0.87709375,0.039625,0.298,1.1353125,0.84084375,-0.42762500000000003,-0.26465625,1.1260937500000001,0.019127934050076505,0.02318830500638145,True
30100,23658,0,23659,5216.0,44763.0,29953.0,-0.003111,-0.000488,-0.000488,0.4025,-1.435,-3.6925000000000003,0.8714375,0.039281250000000004,0.29640625,1.1433125,0.8466250000000001,-0.42315625,-0.26459375,1.1264375,0.018934387319411265,0.023120106842917983,True
30101,23659,0,23660,5216.0,44762.0,29951.0,-0.001464,-0.000122,0.002257,0.525,-1.5225000000000002,-3.6400000000000006,0.87153125,0.039718750000000004,0.29696875,1.13871875,0.84778125,-0.42371875000000003,-0.264625,1.12765625,0.01897489504951002,0.023144546845459184,True
30102,23660,0,23661,5216.0,44764.0,29951.0,-0.000305,0.000915,0.002928,0.5775,-1.5750000000000002,-3.6400000000000006,0.86840625,0.039906250000000004,0.29690625,1.14203125,0.8403125,-0.42421875000000003,-0.264625,1.13003125,0.019002654895563444,0.023141971079297538,True
30103,23661,0,23662,5217.0,44763.0,29949.0,0.0018909999999999999,0.002928,-0.00061,0.6825000000000001,-1.7500000000000002,-3.7275000000000005,0.87125,0.0396875,0.2974375,1.144125,0.846375,-0.422875,-0.2645,1.1205625000000001,0.018939723517399157,0.02315883286282429,True
30104,23662,0,23663,5218.0,44763.0,29952.0,0.001403,0.0017079999999999999,0.000183,0.7175,-1.6450000000000002,-3.7100000000000004,0.8759687500000001,0.04075,0.29940625,1.14525,0.8462500000000001,-0.42596875,-0.2639375,1.1214375,0.019107481663342422,0.023217326124418184,True
30105,23663,0,23664,5217.0,44762.0,29953.0,0.002257,0.00183,-6.1e-05,0.56,-1.7675,-3.5875000000000004,0.87353125,0.04028125,0.29962500000000003,1.14196875,0.8478125,-0.4261875,-0.262875,1.1127500000000001,0.01909707562835993,0.023183567487364956,True
30106,23664,0,23665,5216.0,44762.0,29950.0,0.000976,-0.000488,0.000915,0.49000000000000005,-1.7325000000000002,-3.5000000000000004,0.87996875,0.039625,0.2995,1.14628125,0.8377187500000001,-0.4265625,-0.2633125,1.1216875,0.019085268342608586,0.023196028984088627,True
30107,23665,0,23666,5218.0,44763.0,29950.0,-0.001403,-0.0008539999999999999,-0.00061,0.4025,-1.4875,-3.5175000000000005,0.87146875,0.04059375,0.30096875,1.13853125,0.839,-0.4221875,-0.2635,1.12909375,0.01894921370168008,0.023264110701259097,True
30108,23666,0,23667,5219.0,44765.0,29953.0,-6.1e-05,-0.002562,-0.001037,0.22750000000000004,-1.4700000000000002,-3.5000000000000004,0.871625,0.039593750000000004,0.29996875,1.14459375,0.8401875,-0.4204375,-0.26365625,1.113,0.018837961031615426,0.023229186656483398,True
30109,23667,0,23668,5219.0,44765.0,29952.0,-0.000793,-0.002623,-0.001403,0.22750000000000004,-1.54,-3.4825000000000004,0.87009375,0.0411875,0.29628125,1.136375,0.841375,-0.42365625,-0.2633125,1.12878125,0.01903252098055548,0.023063369851086903,True
30110,23668,0,23669,5221.0,44764.0,29952.0,0.000915,-0.001769,-0.000732,0.22750000000000004,-1.6800000000000002,-3.5875000000000004,0.8730625,0.03603125,0.3006875,1.14875,0.83890625,-0.42309375,-0.26446875000000003,1.11403125,0.018798805945704565,0.023291515500416634,True
30111,23669,0,23670,5219.0,44764.0,29954.0,-0.000549,-0.00122,-0.00042699999999999997,0.36750000000000005,-1.6975000000000002,-3.6575,0.8750625,0.04028125,0.29959375,1.1453125,0.8448125,-0.42684375,-0.259625,1.1255,0.01912342850271026,0.02305141773625932,True
30112,23670,0,23671,5220.0,44765.0,29952.0,0.000793,0.000976,0.000732,0.56,-1.6800000000000002,-3.4825000000000004,0.8695,0.03853125,0.29990625,1.1374375,0.84640625,-0.41790625000000003,-0.26396875000000003,1.12071875,0.01869273701548428,0.023239190826933456,True
30113,23671,0,23672,5221.0,44766.0,29955.0,0.00122,0.002623,0.001403,0.665,-1.7325000000000002,-3.5175000000000005,0.86440625,0.03540625,0.30240625,1.14271875,0.8410625,-0.4236875,-0.2655,1.11975,0.018797069443342654,0.023403855267766997,True
30114,23672,0,23673,5221.0,44765.0,29954.0,0.000549,0.002562,0.000549,0.6125,-1.7325000000000002,-3.3425000000000002,0.87971875,0.0403125,0.3058125,1.1309375,0.831125,-0.42596875,-0.26190625,1.12278125,0.019089570398308154,0.023399593756158382,True
30115,23673,0,23674,5223.0,44765.0,29955.0,0.000915,0.0018909999999999999,0.0006709999999999999,0.6125,-1.6800000000000002,-3.3075,0.8833125000000001,0.0391875,0.30290625,1.1385625,0.840375,-0.42540625,-0.262,1.12196875,0.019020922118746744,0.023283581320583627,True
30116,23674,0,23675,5221.0,44768.0,29954.0,-0.000488,0.0013419999999999999,0.00042699999999999997,0.42000000000000004,-1.6800000000000002,-3.3950000000000005,0.8815937500000001,0.039875,0.30125,1.1499375,0.8321875,-0.4249375,-0.26078125,1.12184375,0.019030243168483032,0.02316624696494471,True
30117,23675,0,23676,5220.0,44765.0,29953.0,-0.0023179999999999997,-0.0017079999999999999,-0.000305,0.42000000000000004,-1.4875,-3.535,0.86890625,0.039968750000000004,0.2994375,1.14325,0.84540625,-0.42184375,-0.26115625,1.12659375,0.01890981306438012,0.02310663779678679,True
30118,23676,0,23677,5222.0,44767.0,29953.0,-0.003538,-0.0017079999999999999,-0.0008539999999999999,0.31500000000000006,-1.54,-3.4825000000000004,0.86890625,0.0395,0.30415625,1.13734375,0.8445625,-0.4230625,-0.2605,1.12453125,0.01893957811392408,0.02327471610230622,True
30119,23677,0,23678,5223.0,44764.0,29953.0,-0.003721,-0.000732,-0.000183,0.42000000000000004,-1.5750000000000002,-3.4650000000000003,0.8696875000000001,0.0385,0.3026875,1.13715625,0.84403125,-0.42265625,-0.25990625,1.11415625,0.018882313425674164,0.023190268923648456,True
30120,23678,0,23679,5223.0,44764.0,29954.0,-0.0013419999999999999,-0.000122,0.000366,0.35000000000000003,-1.8200000000000003,-3.6750000000000003,0.8781875,0.039,0.3045625,1.13884375,0.84040625,-0.4254375,-0.2615,1.12384375,0.019014500763804128,0.02333171897862869,True
30121,23679,0,23680,5223.0,44763.0,29956.0,0.000183,-0.001098,0.000488,0.3325,-1.8900000000000001,-3.7275000000000005,0.8592500000000001,0.03590625,0.30378125,1.13834375,0.84103125,-0.42271875000000003,-0.26153125,1.1211875,0.018778621851836215,0.023300775790893246,True
30122,23680,0,23681,5224.0,44768.0,29956.0,0.0026839999999999998,0.001952,0.000488,0.5950000000000001,-1.9250000000000003,-3.7800000000000002,0.87740625,0.0394375,0.30490625,1.13915625,0.82821875,-0.4236875,-0.26156250000000003,1.1226562500000001,0.01896212437208755,0.02334840346741889,True
30123,23681,0,23682,5224.0,44767.0,29956.0,0.0013419999999999999,0.001403,-0.000793,0.6300000000000001,-1.9425000000000001,-3.9025000000000003,0.8680625000000001,0.0381875,0.30484375,1.1415,0.8404375000000001,-0.42665625,-0.2576875,1.12271875,0.01903018347015875,0.023189813538491665,True
30124,23682,0,23683,5223.0,44767.0,29957.0,0.001098,0.001769,0.000549,0.7875000000000001,-2.0125,-3.99,0.8715937500000001,0.0398125,0.30503125000000003,1.1385625,0.8511562500000001,-0.41925,-0.25921875,1.116875,0.01879920554480584,0.023259199144655063,True
30125,23683,0,23684,5226.0,44768.0,29957.0,0.0026839999999999998,0.0008539999999999999,-0.000183,0.6300000000000001,-2.205,-3.9200000000000004,0.872625,0.03715625,0.30709375,1.13915625,0.84878125,-0.43109375,-0.2509375,1.11396875,0.019166149693973487,0.02301070834890404,True
30126,23684,0,23685,5226.0,44766.0,29955.0,0.0032329999999999998,-0.000183,-0.000793,0.4025,-2.24,-3.9025000000000003,0.872,0.036375,0.3039375,1.13915625,0.8314375,-0.42903125000000003,-0.26637500000000003,1.12090625,0.019051359230628517,0.02350217121428314,True
30127,23685,0,23686,5225.0,44765.0,29955.0,0.000915,-0.0032329999999999998,-0.001098,0.12250000000000001,-1.9600000000000002,-3.9200000000000004,0.87165625,0.0376875,0.30734375,1.13921875,0.826625,-0.42553125,-0.26475,1.11096875,0.01896453122181324,0.02357715410214406,True
30128,23686,0,23687,5227.0,44768.0,29957.0,-0.0006709999999999999,-0.002074,-0.000122,0.12250000000000001,-1.9425000000000001,-3.8675,0.865,0.0405625,0.30259375,1.1443125,0.8210937500000001,-0.42134375,-0.26078125,1.14153125,0.018914039076985682,0.023221634711371876,True
30129,23687,0,23688,5227.0,44768.0,29961.0,-0.002928,-0.0023179999999999997,-0.000183,0.2625,-1.9600000000000002,-3.8850000000000002,0.8719375,0.0394375,0.30440625,1.14440625,0.82940625,-0.42065625,-0.25859375,1.1414375,0.018840351597840456,0.023208270265047824,True
30130,23688,0,23689,5229.0,44768.0,29958.0,-0.001769,-0.0008539999999999999,0.000244,0.3325,-2.0475000000000003,-3.8850000000000002,0.87015625,0.04096875,0.30546875,1.13875,0.8631875,-0.4248125,-0.25259375,1.11125,0.019070003096236663,0.02301042543130052,True
30131,23689,0,23690,5228.0,44768.0,29959.0,-0.00042699999999999997,0.000122,0.000793,0.5075000000000001,-2.1700000000000004,-3.8850000000000002,0.87915625,0.0374375,0.30609375,1.1396875,0.8415,-0.4305,-0.25840625,1.111875,0.019153824113300997,0.023270283883550676,True
30132,23690,0,23691,5230.0,44768.0,29959.0,-0.000244,0.0018909999999999999,-0.000183,0.665,-2.3625000000000003,-3.8325000000000005,0.87103125,0.036125,0.3070625,1.13940625,0.81584375,-0.43153125000000003,-0.25496875,1.11121875,0.019141503871150118,0.023171798561892602,True
30133,23691,0,23692,5231.0,44767.0,29958.0,-0.000732,0.001647,-0.000183,0.6125,-2.45,-3.7975000000000003,0.8795625,0.0386875,0.3073125,1.14315625,0.84796875,-0.43296875,-0.2506875,1.1140625,0.019304090911997748,0.02300965694271554,True
30134,23692,0,23693,5232.0,44769.0,29960.0,0.001647,0.00122,0.0,0.49000000000000005,-2.5375,-3.7800000000000002,0.8755625,0.0395625,0.3055,1.14459375,0.86053125,-0.41925,-0.25628125,1.14415625,0.018788967720138824,0.02316023813419462,True
30135,23693,0,23694,5230.0,44769.0,29960.0,0.002623,-6.1e-05,-0.000183,0.22750000000000004,-2.5725000000000002,-3.8150000000000004,0.8710625000000001,0.04003125,0.30596875,1.13928125,0.8443437500000001,-0.42078125,-0.25940625,1.1253125,0.018869687062120503,0.02330539314003202,True
30136,23694,0,23695,5232.0,44771.0,29960.0,0.0032329999999999998,-0.000244,-0.000244,0.4025,-2.4850000000000003,-3.7800000000000002,0.8718125,0.035750000000000004,0.30875,1.1382812500000001,0.828375,-0.42475,-0.25559375,1.11509375,0.01885382654888996,0.023266540321240335,True
30137,23695,0,23696,5232.0,44768.0,29960.0,0.000732,0.0,-0.000793,0.3325,-2.1350000000000002,-3.8325000000000005,0.8789375,0.03796875,0.30884375000000003,1.14184375,0.83003125,-0.4273125,-0.25515625000000003,1.12275,0.019047582496027754,0.023252787744873837,True
30138,23696,0,23697,5233.0,44770.0,29958.0,-0.000793,0.000244,0.001403,0.2625,-1.9250000000000003,-3.8675,0.86940625,0.0399375,0.3073125,1.138625,0.841125,-0.4269375,-0.25478125,1.127875,0.019113120504770605,0.023174554501496487,True
30139,23697,0,23698,5235.0,44771.0,29960.0,-0.0026839999999999998,-0.000488,0.001464,0.43750000000000006,-1.715,-3.7975000000000003,0.8710625000000001,0.0418125,0.3095625,1.139,0.8405,-0.42371875000000003,-0.2565,1.12103125,0.019060621143125473,0.02333652835322491,True
30140,23698,0,23699,5235.0,44771.0,29963.0,-0.003172,-0.000122,0.000305,0.49000000000000005,-1.715,-3.7800000000000002,0.87271875,0.04015625,0.31540625,1.1439062500000001,0.8403437500000001,-0.42659375,-0.25346875,1.12234375,0.019108272106093387,0.023455407796049793,True
30141,23699,0,23700,5236.0,44768.0,29962.0,-0.003355,-0.0015249999999999999,-0.000732,0.35000000000000003,-1.6625,-3.7800000000000002,0.874375,0.039656250000000004,0.30815625,1.13909375,0.8420625,-0.426875,-0.2535,1.115375,0.01909909679400251,0.023157740119982683,True
30142,23700,0,23701,5238.0,44768.0,29962.0,-0.000549,0.000305,-0.000305,0.47250000000000003,-2.1,-3.7800000000000002,0.87203125,0.0374375,0.310875,1.13140625,0.84609375,-0.42353125,-0.254625,1.1270625,0.018873959923383317,0.023315140926730468,True
30143,23701,0,23702,5238.0,44772.0,29962.0,0.0013419999999999999,0.001037,-0.000549,0.49000000000000005,-2.1350000000000002,-3.8150000000000004,0.8748125,0.039531250000000004,0.31096875,1.1405625,0.84103125,-0.4231875,-0.2541875,1.12109375,0.01894587878834407,0.02330138867772833,True
