frame_seq,absolute_seq_u64,segment_id,sample_seq,PPG_G,PPG_R,PPG_IR,ACC_X,ACC_Y,ACC_Z,GYRO_X,GYRO_Y,GYRO_Z,Uh1,Uh2,Uh3,Uh4,Uc1,Uc2,Uc3,Uc4,UD1,UD2,parser_valid
63804,223072,1,223068,5074.0,45618.0,29087.0,0.000732,-0.001586,-0.000244,0.24500000000000002,-2.555,-4.130000000000001,0.996375,0.08787500000000001,0.028375,1.2661875,0.96915625,-0.3331875,-0.5198125,1.2432812500000001,0.017304042061895918,0.022356920551492798,True
63805,223073,1,223069,5073.0,45618.0,29088.0,0.0026839999999999998,0.000976,-0.001952,0.45500000000000007,-2.555,-4.165,1.01840625,0.106125,0.02740625,1.25734375,0.9785625,-0.33175,-0.5200625,1.23890625,0.017996033988512954,0.02232737987515325,True
63806,223074,1,223070,5075.0,45620.0,29090.0,0.0017079999999999999,0.002013,0.000488,0.47250000000000003,-2.2225,-4.235,1.010375,0.09834375000000001,0.026375,1.263875,0.96465625,-0.33121875,-0.51653125,1.238875,0.01765478763779558,0.022144496889216332,True
63807,223075,1,223071,5075.0,45620.0,29090.0,-0.000732,0.001769,0.002074,0.43750000000000006,-1.8550000000000002,-4.1825,1.01534375,0.09725,0.0236875,1.2610000000000001,0.978375,-0.3288125,-0.5195625,1.2431875000000001,0.01751267144666432,0.022155778676719865,True
63808,223076,1,223072,5077.0,45622.0,29091.0,-0.002623,-0.000183,0.001647,0.4025,-1.8025000000000002,-4.0600000000000005,1.01528125,0.0969375,0.0245625,1.264375,0.96346875,-0.3320625,-0.51690625,1.24253125,0.017631057786408364,0.022085525166944748,True
63809,223077,1,223073,5077.0,45623.0,29094.0,-0.00122,-0.0018909999999999999,0.0015249999999999999,0.385,-1.9250000000000003,-4.0425,1.0095,0.0945,0.026000000000000002,1.27025,0.9705625,-0.33440625,-0.51828125,1.24471875,0.017625507094507394,0.022198996921939624,True
63810,223078,1,223074,5079.0,45624.0,29097.0,0.003111,0.000366,-0.0032329999999999998,0.35000000000000003,-2.31,-4.077500000000001,1.00946875,0.0991875,0.023625,1.26440625,0.97346875,-0.3311875,-0.5221875,1.2389375,0.017688203668645437,0.02225790419390603,True
63811,223079,1,223075,5080.0,45624.0,29094.0,0.0034159999999999998,0.001403,-0.0034159999999999998,0.45500000000000007,-2.0650000000000004,-3.9725000000000006,1.01815625,0.09653125,0.0266875,1.2705312500000001,0.97375,-0.334,-0.5176875,1.23815625,0.017692580340264653,0.02220335828980608,True
63812,223080,1,223076,5080.0,45623.0,29095.0,0.002806,0.00042699999999999997,-0.001464,0.43750000000000006,-1.6800000000000002,-4.025,1.0101875,0.0978125,0.02209375,1.26371875,0.97484375,-0.3310625,-0.51925,1.23578125,0.017626644952311473,0.022078316017007046,True
63813,223081,1,223077,5081.0,45621.0,29093.0,0.000732,-0.001952,-0.000488,0.14,-1.435,-3.9550000000000005,1.0163125,0.09775,0.0234375,1.26496875,0.97740625,-0.3316875,-0.51928125,1.2375625000000001,0.01764931018450734,0.022134366193951954,True
63814,223082,1,223078,5083.0,45618.0,29088.0,-0.001281,-0.0030499999999999998,0.001647,0.035,-1.1900000000000002,-4.0075,1.00934375,0.09503125,0.025,1.267875,0.97428125,-0.3343125,-0.518375,1.23903125,0.01764355372686202,0.02216194996609686,True
63815,223083,1,223079,5083.0,45613.0,29083.0,-0.0042699999999999995,-0.002013,0.00366,0.0,-1.0325000000000002,-3.7975000000000003,1.015125,0.09690625,0.02475,1.2703125,0.9788125,-0.3346875,-0.5175625,1.23940625,0.017735742445839912,0.022119348120352506,True
63816,223084,1,223080,5083.0,45611.0,29075.0,-0.00488,-0.0021349999999999997,0.003111,0.08750000000000001,-1.1900000000000002,-3.7625,1.01009375,0.0966875,0.021531250000000002,1.26396875,0.9735,-0.33071875,-0.52165625,1.239,0.01756652791031913,0.022151338166646068,True
63817,223085,1,223081,5084.0,45604.0,29066.0,-0.00061,-0.001586,0.00183,0.035,-1.435,-3.5700000000000003,1.00934375,0.09740625,0.022,1.26334375,0.97984375,-0.33209375,-0.5180625,1.239,0.017651584134636997,0.022027127959234137,True
63818,223086,1,223082,5079.0,45602.0,29055.0,0.0044529999999999995,0.0,0.000793,0.12250000000000001,-1.7675,-3.535,1.01765625,0.10237500000000001,0.022875,1.2640625,0.9791562500000001,-0.3315625,-0.5200312500000001,1.238125,0.017834345821399672,0.022141335974031437,True
63819,223087,1,223083,5077.0,45597.0,29045.0,0.008479,0.001403,-0.005124,0.1925,-2.0825,-3.6925000000000003,1.01775,0.09721875,0.0228125,1.26325,0.9735,-0.33475,-0.51975,1.24525,0.01775110695610187,0.022127570631837606,True
63820,223088,1,223084,5072.0,45593.0,29037.0,-0.002074,0.006771,-0.003294,0.6300000000000001,-1.435,-3.6050000000000004,1.0145,0.09721875,0.02896875,1.26446875,0.9743437500000001,-0.33240625,-0.5175625,1.2390625,0.017656494618159685,0.022291418651425893,True
63821,223089,1,223085,5065.0,45592.0,29029.0,-0.006161,0.006039,0.000244,0.8225000000000001,-1.2425000000000002,-3.4475000000000002,1.0163125,0.097375,0.021562500000000002,1.2646875,0.9784375000000001,-0.33159375,-0.5190625,1.23890625,0.017630113111682215,0.022049170925682825,True
63822,223090,1,223086,5061.0,45589.0,29024.0,-0.006039,0.001769,0.001952,0.42000000000000004,-1.33,-3.4825000000000004,1.0154375,0.0975,0.02371875,1.26365625,0.9745625,-0.33228125000000003,-0.52159375,1.23896875,0.017663006833771495,0.022238052940584254,True
63823,223091,1,223087,5055.0,45588.0,29021.0,-0.002379,-0.003965,0.003477,-0.0175,-1.5225000000000002,-3.6400000000000006,1.0154375,0.097125,0.02265625,1.26371875,0.9796875,-0.3325,-0.5186875,1.23953125,0.017656426589951712,0.02207882253077372,True
63824,223092,1,223088,5052.0,45589.0,29023.0,-0.002196,-0.005063,0.003477,-0.15750000000000003,-1.5575,-3.7275000000000005,1.01675,0.09771875000000001,0.0224375,1.26459375,0.976875,-0.33287500000000003,-0.5196875,1.23753125,0.01769596687608842,0.02210978422950945,True
63825,223093,1,223089,5048.0,45589.0,29023.0,-0.002989,0.000915,0.0026839999999999998,0.31500000000000006,-1.4525000000000001,-3.9375000000000004,1.0185,0.09603125,0.0261875,1.2686250000000001,0.9771875,-0.3323125,-0.51978125,1.2453750000000001,0.01760390632826206,0.022266460880437097,True
63826,223094,1,223090,5044.0,45589.0,29022.0,0.000793,0.0032329999999999998,0.001037,0.36750000000000005,-1.7675,-3.8150000000000004,1.0093125,0.09709375,0.024375,1.2654375,0.97390625,-0.33115625,-0.5188125,1.2396562500000001,0.01760088980563758,0.02215390733136036,True
63827,223095,1,223091,5041.0,45589.0,29022.0,0.004514,0.001769,-0.0021349999999999997,0.22750000000000004,-2.1525000000000003,-3.9550000000000005,1.0173125,0.10321875,0.028125,1.264125,0.9782500000000001,-0.33125,-0.5131875,1.244625,0.017856408939121497,0.02208250151066645,True
63828,223096,1,223092,5039.0,45588.0,29024.0,0.0055509999999999995,-0.0008539999999999999,-0.0046359999999999995,0.15750000000000003,-2.3625000000000003,-3.9200000000000004,1.01215625,0.096125,0.02625,1.2673125,0.96784375,-0.3338125,-0.51571875,1.25234375,0.017668316462946365,0.022106990030630855,True
63829,223097,1,223093,5036.0,45588.0,29022.0,0.005429,-0.002074,-0.0055509999999999995,0.22750000000000004,-2.3275,-3.9200000000000004,1.0101875,0.094625,0.0265,1.27021875,0.973,-0.3373125,-0.5188125,1.2394687500000001,0.017747953887677616,0.02224057547648362,True
63830,223098,1,223094,5035.0,45587.0,29025.0,0.000793,-0.001098,-0.000793,0.29750000000000004,-1.715,-4.0600000000000005,1.00971875,0.0930625,0.024625,1.2643125,0.9715625,-0.331,-0.52353125,1.23571875,0.017428897291521105,0.02235225606018709,True
63831,223099,1,223095,5032.0,45586.0,29022.0,-0.002379,-0.000244,0.000976,0.29750000000000004,-1.435,-3.99,1.0161875,0.09728125,0.02421875,1.26553125,0.97675,-0.33387500000000003,-0.515875,1.2551875000000001,0.017718355584550344,0.022030368077827118,True
63832,223100,1,223096,5028.0,45588.0,29022.0,-0.003843,0.000549,0.0050019999999999995,0.35000000000000003,-1.3650000000000002,-4.077500000000001,1.010125,0.09443750000000001,0.025937500000000002,1.26484375,0.9664375000000001,-0.32815625,-0.5233125,1.23359375,0.017370562144428846,0.022397055862661296,True
63833,223101,1,223097,5030.0,45585.0,29023.0,-0.0034159999999999998,0.0013419999999999999,0.002806,0.35000000000000003,-1.4175000000000002,-4.165,1.01053125,0.098,0.0245625,1.26415625,0.98171875,-0.330625,-0.520625,1.2414375,0.0176166867887693,0.022233833762393906,True
63834,223102,1,223098,5029.0,45588.0,29028.0,-0.000976,0.0021349999999999997,0.001952,0.385,-1.54,-4.2,1.015125,0.097625,0.0235625,1.26365625,0.9675,-0.330125,-0.51659375,1.2539375,0.017581085177326466,0.02203227150998495,True
63835,223103,1,223099,5027.0,45589.0,29029.0,0.000732,-0.000122,-6.1e-05,0.24500000000000002,-1.5750000000000002,-4.2175,1.01234375,0.0970625,0.02634375,1.26378125,0.9663437500000001,-0.33818750000000003,-0.51571875,1.25325,0.017883418804296745,0.022110814107785436,True
63836,223104,1,223100,5027.0,45589.0,29029.0,0.0011589999999999999,-0.001464,-0.0015249999999999999,0.36750000000000005,-1.5575,-4.2875000000000005,1.01221875,0.09825,0.025468750000000002,1.26365625,0.9646250000000001,-0.337,-0.5149375,1.2573125,0.01788429140814398,0.02204395789301931,True
63837,223105,1,223101,5025.0,45590.0,29031.0,0.000976,-0.000244,-0.0015249999999999999,0.385,-1.6275000000000002,-4.1825,1.0058125,0.0971875,0.022625,1.264625,0.9418125,-0.33678125000000003,-0.517,1.2572812500000001,0.01783180551043495,0.02201023779418363,True
63838,223106,1,223102,5025.0,45586.0,29030.0,0.001037,-0.000122,-0.001647,0.31500000000000006,-1.5050000000000001,-4.2525,1.01634375,0.09809375000000001,0.0229375,1.26478125,0.95278125,-0.33896875,-0.514,1.2461875,0.017957313824152884,0.021903300155013464,True
63839,223107,1,223103,5027.0,45588.0,29033.0,-0.000183,0.000305,-0.00061,0.35000000000000003,-1.4000000000000001,-4.2,1.01696875,0.09778125,0.0251875,1.27034375,0.973,-0.33046875000000003,-0.52325,1.2334375,0.01760138714960023,0.02236398111995759,True
63840,223108,1,223104,5024.0,45589.0,29030.0,-0.00042699999999999997,-0.000488,0.0,0.36750000000000005,-1.225,-4.2875000000000005,1.009875,0.09393750000000001,0.025875000000000002,1.26965625,0.9917812500000001,-0.3291875,-0.52565625,1.23325,0.01739166176429032,0.022487930368835698,True
63841,223109,1,223105,5025.0,45591.0,29034.0,-0.000122,-0.000488,-0.000183,0.36750000000000005,-1.2950000000000002,-4.2875000000000005,1.00821875,0.09375,0.026000000000000002,1.27025,0.98665625,-0.32921875,-0.51684375,1.2393750000000001,0.01738521710648847,0.02214166536016693,True
63842,223110,1,223106,5024.0,45590.0,29034.0,0.000915,0.00061,6.1e-05,0.29750000000000004,-1.4175000000000002,-4.305000000000001,1.00278125,0.094375,0.026000000000000002,1.26928125,0.96615625,-0.3318125,-0.51746875,1.2375,0.01751564952261571,0.02216659295221902,True
63843,223111,1,223107,5024.0,45587.0,29034.0,0.000793,0.001464,0.000549,0.3325,-1.5225000000000002,-4.165,1.00984375,0.09775,0.021,1.26478125,0.979125,-0.3329375,-0.52178125,1.239625,0.01769977422577936,0.02213465834583285,True
63844,223112,1,223108,5023.0,45589.0,29033.0,0.00042699999999999997,6.1e-05,0.000305,0.4025,-1.6450000000000002,-4.130000000000001,1.01609375,0.09784375000000001,0.02228125,1.26409375,0.98109375,-0.33203125,-0.5183125000000001,1.23915625,0.017667041258628995,0.02204857083863337,True
63845,223113,1,223109,5023.0,45592.0,29034.0,-0.000305,-0.000915,0.0011589999999999999,0.28,-1.8550000000000002,-4.112500000000001,1.01221875,0.0985625,0.024625,1.26315625,0.97009375,-0.33134375,-0.5195625,1.2396875,0.017668824805452843,0.022194013453543476,True
63846,223114,1,223110,5021.0,45590.0,29035.0,0.00183,-0.00183,0.000732,0.24500000000000002,-1.8550000000000002,-4.112500000000001,1.01425,0.0979375,0.024375,1.2643125,0.9751562500000001,-0.32840625,-0.5185625,1.23878125,0.0175245244435196,0.022143936864161592,True
63847,223115,1,223111,5024.0,45591.0,29036.0,0.0008539999999999999,-0.00061,-0.000366,0.28,-1.9600000000000002,-4.130000000000001,1.01359375,0.09878125,0.0268125,1.26378125,0.9792500000000001,-0.33221875,-0.5192187500000001,1.23875,0.01771314011386652,0.0222695207203533,True
63848,223116,1,223112,5022.0,45591.0,29037.0,-0.000183,0.00042699999999999997,0.000122,0.35000000000000003,-1.8900000000000001,-4.165,1.01096875,0.1026875,0.025500000000000002,1.265875,0.96403125,-0.33165625,-0.518625,1.2398437500000001,0.017850973461783964,0.022192312986556138,True
63849,223117,1,223113,5023.0,45591.0,29037.0,0.000976,0.001281,-0.0006709999999999999,0.43750000000000006,-1.7500000000000002,-4.112500000000001,1.0164375,0.09784375000000001,0.02315625,1.26484375,0.9800625000000001,-0.33109375,-0.52234375,1.2394687500000001,0.017629191042839987,0.022245018892209274,True
63850,223118,1,223114,5022.0,45590.0,29038.0,-0.000183,-0.000732,0.000366,0.35000000000000003,-1.6800000000000002,-3.9725000000000006,1.014375,0.09790625,0.02415625,1.26409375,0.974125,-0.33265625,-0.5149375,1.246125,0.01769484168009812,0.0219904191067181,True
63851,223119,1,223115,5023.0,45591.0,29039.0,-0.000183,-0.002379,-6.1e-05,0.24500000000000002,-1.5750000000000002,-4.025,1.00334375,0.09428125,0.0261875,1.27240625,0.9712500000000001,-0.3355,-0.51653125,1.24396875,0.017660670625218304,0.022136848988373918,True
63852,223120,1,223116,5024.0,45592.0,29041.0,0.00042699999999999997,-0.00061,-0.000549,0.24500000000000002,-1.5575,-4.025,1.0175,0.0971875,0.02728125,1.26403125,0.9756875,-0.3314375,-0.52096875,1.24359375,0.017616098514524677,0.022358415182923797,True
63853,223121,1,223117,5024.0,45591.0,29040.0,-0.0006709999999999999,0.000366,0.000549,0.43750000000000006,-1.4000000000000001,-3.9550000000000005,1.00996875,0.094875,0.025625000000000002,1.27221875,0.97328125,-0.33365625,-0.51740625,1.239625,0.017610639584834276,0.022148804994410857,True
63854,223122,1,223118,5025.0,45592.0,29042.0,-0.001281,0.002257,0.00042699999999999997,0.5075000000000001,-1.4525000000000001,-3.8850000000000002,1.00840625,0.09440625,0.027,1.2763125,0.97328125,-0.33353125,-0.51775,1.246125,0.017586329563244133,0.022218596730939833,True
63855,223123,1,223119,5027.0,45593.0,29045.0,6.1e-05,0.000732,-0.00122,0.36750000000000005,-1.54,-3.8325000000000005,1.00665625,0.0936875,0.0271875,1.265375,0.97378125,-0.33453125,-0.52,1.2396875,0.017597164523150615,0.02231596655791191,True
63856,223124,1,223120,5029.0,45596.0,29045.0,0.001464,-0.001098,-0.0006709999999999999,0.2625,-1.6625,-3.9375000000000004,1.01434375,0.0974375,0.0209375,1.261875,0.97396875,-0.33271875,-0.5195625,1.2390625,0.01767810060271214,0.02204362333137062,True
63857,223125,1,223121,5026.0,45594.0,29047.0,0.00122,-0.00122,-0.001037,0.22750000000000004,-1.6275000000000002,-3.99,1.0221875,0.09803125,0.02078125,1.262,0.97809375,-0.33190625,-0.51940625,1.23978125,0.017669700663095398,0.022031018797610564,True
63858,223126,1,223122,5028.0,45591.0,29047.0,6.1e-05,0.000366,0.000976,0.385,-1.4700000000000002,-4.025,1.015375,0.09909375000000001,0.02046875,1.2620625,0.97628125,-0.3316875,-0.521,1.22825,0.01770453652259014,0.02208183801639411,True
63859,223127,1,223123,5029.0,45594.0,29050.0,-0.001647,0.001403,0.000793,0.3325,-1.3825,-4.025,1.01021875,0.097875,0.024125,1.27140625,0.9803125,-0.3315,-0.51678125,1.23934375,0.017646877504469517,0.022062694302499433,True
63860,223128,1,223124,5030.0,45596.0,29050.0,-0.0011589999999999999,-0.000122,0.000549,0.28,-1.4525000000000001,-4.165,1.0069375,0.09115625000000001,0.02678125,1.2745312500000001,0.97215625,-0.33353125,-0.51740625,1.24190625,0.017452769005731547,0.02219596536644246,True
63861,223129,1,223125,5030.0,45597.0,29053.0,-0.000793,0.0,-0.000366,0.385,-1.4175000000000002,-4.0425,1.00803125,0.095625,0.026625,1.27521875,0.9761875,-0.33115625,-0.51875,1.242,0.017540524815790454,0.02224318123884782,True
63862,223130,1,223126,5030.0,45598.0,29051.0,-0.001647,-0.001403,0.000122,0.385,-1.54,-3.9725000000000006,1.00778125,0.1005625,0.025500000000000002,1.27134375,0.974125,-0.33134375,-0.518,1.23953125,0.01775102330712828,0.02216738722571172,True
63863,223131,1,223127,5030.0,45597.0,29056.0,-0.00042699999999999997,-0.0008539999999999999,-0.000122,0.35000000000000003,-1.61,-3.9025000000000003,1.0046875,0.0914375,0.02734375,1.27415625,0.9725625,-0.33228125000000003,-0.51840625,1.24153125,0.01741385222563133,0.022258787721979277,True
63864,223132,1,223128,5033.0,45597.0,29055.0,0.00183,0.0013419999999999999,-6.1e-05,0.43750000000000006,-1.6275000000000002,-4.077500000000001,1.00965625,0.09975,0.02115625,1.26221875,0.973125,-0.3323125,-0.51846875,1.23875,0.017756738082333932,0.022008919296805596,True
63865,223133,1,223129,5033.0,45597.0,29056.0,0.0026839999999999998,-0.000244,-0.000976,0.31500000000000006,-1.8375000000000001,-4.1475,1.0209062500000001,0.09825,0.025656250000000002,1.2623125,0.976375,-0.33140625,-0.5181875,1.23875,0.017658504633286456,0.022181237907573717,True
63866,223134,1,223130,5035.0,45598.0,29056.0,0.001281,-0.00183,-0.0008539999999999999,0.21000000000000002,-1.8025000000000002,-4.0600000000000005,1.0160625,0.0976875,0.02253125,1.25925,0.96434375,-0.33178125,-0.5186875,1.2285625,0.017650526510466637,0.022073724378598978,True
63867,223135,1,223131,5035.0,45599.0,29057.0,0.001647,-0.001281,-0.000732,0.3325,-1.61,-4.077500000000001,0.99484375,0.0979375,0.02503125,1.26403125,0.9776875,-0.33103125,-0.5193125000000001,1.23971875,0.01763052069566513,0.022200612272468896,True
63868,223136,1,223132,5036.0,45602.0,29060.0,-0.0008539999999999999,0.001037,0.00183,0.43750000000000006,-1.435,-4.2,1.01278125,0.09775,0.025718750000000002,1.2678125,0.9783437500000001,-0.331625,-0.51965625,1.2404375,0.017646786846336814,0.02224235912768965,True
63869,223137,1,223133,5038.0,45602.0,29063.0,-0.0037819999999999998,0.000488,0.000732,0.43750000000000006,-1.1725,-4.130000000000001,1.01134375,0.09759375,0.02425,1.26215625,0.982125,-0.3320625,-0.5222187500000001,1.23725,0.017658028373057154,0.022284637274104735,True
63870,223138,1,223134,5039.0,45600.0,29064.0,-0.0021349999999999997,-0.000122,-0.0011589999999999999,0.4025,-1.5050000000000001,-3.9375000000000004,1.006125,0.09725,0.0260625,1.268875,0.9888125,-0.331125,-0.52125,1.23334375,0.01760604986411438,0.022319926594280472,True
63871,223139,1,223135,5038.0,45603.0,29065.0,0.0011589999999999999,-0.001037,-0.003355,0.29750000000000004,-1.7850000000000001,-4.0600000000000005,1.00959375,0.09496875,0.025781250000000002,1.26440625,1.00040625,-0.32506250000000003,-0.52834375,1.2263125,0.017267427370433273,0.022591211442884316,True
63872,223140,1,223136,5039.0,45603.0,29065.0,0.0046359999999999995,-0.001098,-0.003111,0.36750000000000005,-1.8025000000000002,-4.0425,1.017125,0.0973125,0.02528125,1.26484375,0.9829687500000001,-0.33584375,-0.5069375,1.25225,0.017799105486120653,0.02171706481072962,True
63873,223141,1,223137,5042.0,45604.0,29068.0,0.003294,0.001647,-0.0006709999999999999,0.31500000000000006,-1.6625,-3.9725000000000006,1.01753125,0.09771875000000001,0.02221875,1.2646875,0.96,-0.3368125,-0.512375,1.25028125,0.017854895746926596,0.021809137221505466,True
63874,223142,1,223138,5042.0,45602.0,29066.0,-0.000244,0.0006709999999999999,0.002623,0.3325,-1.3125000000000002,-3.7800000000000002,1.0178125,0.09871875000000001,0.025375,1.26478125,0.96059375,-0.33746875,-0.5104375,1.26,0.01792246779977889,0.021860584903880237,True
63875,223143,1,223139,5043.0,45597.0,29064.0,-0.001647,6.1e-05,0.001952,0.29750000000000004,-1.225,-3.8150000000000004,1.01453125,0.0976875,0.02253125,1.2645,0.9609375,-0.33484375,-0.51628125,1.23703125,0.01777415357351534,0.021977741832277277,True
63876,223144,1,223140,5045.0,45595.0,29059.0,-0.0017079999999999999,-0.000915,0.001037,0.22750000000000004,-1.225,-3.7800000000000002,1.01134375,0.09796875000000001,0.02471875,1.265125,0.9845,-0.3291875,-0.52328125,1.23275,0.017557357803255864,0.02234611243142677,True
63877,223145,1,223141,5045.0,45592.0,29050.0,-0.003904,-0.0013419999999999999,0.000915,0.14,-1.3825,-3.8150000000000004,1.01159375,0.09734375,0.0313125,1.2644375,0.96703125,-0.3359375,-0.51475,1.2456562500000001,0.017804173354735154,0.022274854934274266,True
63878,223146,1,223142,5042.0,45589.0,29043.0,-0.0028669999999999998,-0.001586,-0.0006709999999999999,0.07,-1.435,-3.7450000000000006,1.0149375,0.0983125,0.0223125,1.26440625,0.96521875,-0.3296875,-0.511625,1.2470625,0.017591676835142254,0.021783031520758007,True
63879,223147,1,223143,5041.0,45583.0,29033.0,0.00042699999999999997,-0.000244,0.000549,0.2625,-1.6800000000000002,-3.7625,1.00365625,0.10075,0.02228125,1.2641875,0.9641875,-0.33475,-0.52209375,1.23446875,0.017896218370848274,0.02219936868155885,True
63880,223148,1,223144,5039.0,45581.0,29022.0,0.002623,0.001098,0.0006709999999999999,0.1925,-1.6625,-3.7800000000000002,1.01028125,0.094125,0.0260625,1.2645,0.99459375,-0.3273125,-0.518,1.2549375,0.01732363572836087,0.02219032955379721,True
63881,223149,1,223145,5033.0,45574.0,29012.0,0.002257,0.00183,-0.000732,0.29750000000000004,-1.715,-3.9025000000000003,1.01515625,0.0973125,0.02409375,1.26984375,0.96121875,-0.33590625,-0.52215625,1.2278125,0.017801627995669977,0.022275773567016564,True
63882,223150,1,223146,5026.0,45570.0,29008.0,0.0021349999999999997,0.002196,0.000732,0.3325,-1.6625,-3.8325000000000005,1.00946875,0.09315625,0.025906250000000002,1.2728125000000001,0.9871562500000001,-0.33446875,-0.516625,1.2334687500000001,0.017572810172812998,0.022129116466887266,True
63883,223151,1,223147,5021.0,45570.0,29005.0,0.000305,0.0011589999999999999,-0.000305,0.31500000000000006,-1.61,-3.8325000000000005,1.00425,0.10159375,0.02896875,1.25540625,0.9661875,-0.33584375,-0.514125,1.23540625,0.017975029117287128,0.022154319193526183,True
63884,223152,1,223148,5014.0,45570.0,29000.0,-0.00183,-0.0011589999999999999,0.000122,0.28,-1.5050000000000001,-3.8850000000000002,1.01534375,0.10546875,0.02625,1.27159375,0.97765625,-0.33128125,-0.5182187500000001,1.24740625,0.01795014391196518,0.02220670088441886,True
63885,223153,1,223149,5009.0,45568.0,28999.0,-0.001037,-0.000549,-0.000488,0.31500000000000006,-1.4525000000000001,-3.9200000000000004,1.0093125,0.094125,0.025843750000000002,1.2648125000000001,0.9735625,-0.334125,-0.5163125000000001,1.24621875,0.017598742506665023,0.022114102600054558,True
63886,223154,1,223150,5006.0,45568.0,28997.0,-0.00042699999999999997,0.000122,-0.0008539999999999999,0.28,-1.435,-3.99,1.016375,0.09784375000000001,0.025781250000000002,1.27046875,0.9683437500000001,-0.33171875,-0.5198125,1.23325,0.01765442484411423,0.02225113874749246,True
63887,223155,1,223151,5003.0,45567.0,28998.0,0.000183,0.000122,-0.000976,0.28,-1.4000000000000001,-4.0425,1.0090000000000001,0.0965,0.02646875,1.26653125,0.9725,-0.33487500000000003,-0.517,1.2445,0.01772661663558987,0.02216701676387813,True
63888,223156,1,223152,5001.0,45568.0,28997.0,-6.1e-05,0.0,-0.000366,0.3325,-1.2775,-3.9550000000000005,1.01340625,0.09659375,0.02525,1.2649375,0.9716250000000001,-0.3314375,-0.51678125,1.2435625000000001,0.017591695928364282,0.022108581239635605,True
63889,223157,1,223153,4999.0,45565.0,28998.0,0.0017079999999999999,-0.001037,0.000244,0.35000000000000003,-1.6275000000000002,-3.9725000000000006,1.0099375,0.0990625,0.03309375,1.26834375,0.97375,-0.3359375,-0.51796875,1.23809375,0.017874799357945424,0.022475862728228657,True
63890,223158,1,223154,4994.0,45569.0,28997.0,0.0026839999999999998,-0.001769,-0.000732,0.28,-1.5750000000000002,-3.9725000000000006,1.009875,0.0973125,0.0325625,1.26396875,0.97278125,-0.33587500000000003,-0.51771875,1.244375,0.01780036674251491,0.02244422719793211,True
63891,223159,1,223155,4994.0,45567.0,28996.0,0.0011589999999999999,-0.001037,0.00122,0.28,-1.4175000000000002,-3.8675,1.01053125,0.09771875000000001,0.02440625,1.2650937500000001,0.9751562500000001,-0.3309375,-0.51825,1.23853125,0.017617744897828125,0.02213274805502024,True
63892,223160,1,223156,4992.0,45565.0,28998.0,-0.000244,-0.001586,0.000732,0.29750000000000004,-1.2425000000000002,-3.8500000000000005,1.00303125,0.09778125,0.0234375,1.2654375,0.98065625,-0.33190625,-0.51990625,1.239,0.01765942608791697,0.02215929149402845,True
63893,223161,1,223157,4991.0,45570.0,28999.0,-0.001464,-0.000122,-0.00061,0.385,-1.3125000000000002,-3.7800000000000002,1.012375,0.09790625,0.025593750000000002,1.25571875,0.9733437500000001,-0.3319375,-0.518875,1.239625,0.017665825008797594,0.022206106519976954,True
63894,223162,1,223158,4991.0,45566.0,28999.0,0.001281,0.001464,-0.00061,0.35000000000000003,-1.4875,-3.7450000000000006,1.01078125,0.09740625,0.0260625,1.2843437500000001,0.9729375,-0.3335625,-0.51675,1.2473125,0.017710877722898158,0.022140475389274678,True
63895,223163,1,223159,4989.0,45568.0,29001.0,0.001037,0.000122,-0.00061,0.28,-1.5225000000000002,-3.7100000000000004,0.9941875,0.097125,0.021625000000000002,1.26021875,0.9636250000000001,-0.33146875000000003,-0.51990625,1.2385,0.017614791544386322,0.022085371961811644,True
63896,223164,1,223160,4987.0,45568.0,29003.0,0.00183,-0.000915,-0.000244,0.22750000000000004,-1.4000000000000001,-3.6575,1.02665625,0.09940625,0.0205625,1.2755,0.97565625,-0.3315,-0.520625,1.24515625,0.017709810328175413,0.022070705783396632,True
63897,223165,1,223161,4986.0,45570.0,29005.0,0.000793,-0.0011589999999999999,0.0013419999999999999,0.2625,-1.3125000000000002,-3.535,1.00296875,0.091125,0.03590625,1.27728125,0.9726875,-0.33278125000000003,-0.51740625,1.2450625,0.017421200052912162,0.02256814992409729,True
63898,223166,1,223162,4987.0,45570.0,29007.0,-0.000488,0.0008539999999999999,0.001464,0.36750000000000005,-1.05,-3.4475000000000002,1.00275,0.09456250000000001,0.02784375,1.2799375,0.9741875,-0.33471875,-0.51684375,1.2454375,0.017640690833955086,0.022216868759870445,True
63899,223167,1,223163,4987.0,45571.0,29006.0,-0.003111,0.002074,0.001281,0.5075000000000001,-0.8400000000000001,-3.5000000000000004,1.003625,0.09178125000000001,0.0279375,1.28115625,0.97396875,-0.3289375,-0.5174375,1.2475,0.017292935624500662,0.022244371990343605,True
63900,223168,1,223164,4986.0,45573.0,29011.0,-0.002989,0.000183,0.000793,0.56,-0.8400000000000001,-3.4475000000000002,1.00365625,0.09121875,0.03015625,1.26425,0.9731562500000001,-0.335125,-0.5175625,1.24240625,0.017519686050513402,0.022339853319431734,True
63901,223169,1,223165,4986.0,45574.0,29009.0,-0.002013,-0.000305,-0.000366,0.42000000000000004,-0.8750000000000001,-3.4475000000000002,1.0223125,0.0985,0.022375,1.25775,0.981125,-0.3314375,-0.519875,1.23978125,0.017670041073405546,0.02211471306440184,True
63902,223170,1,223166,4987.0,45574.0,29011.0,-0.0008539999999999999,0.000366,-0.001098,0.4025,-0.9800000000000001,-3.4475000000000002,1.028125,0.099625,0.02009375,1.25871875,0.9814375000000001,-0.33121875,-0.5201250000000001,1.23921875,0.017707446323460472,0.022031647473249018,True
63903,223171,1,223167,4986.0,45572.0,29010.0,-0.000732,-0.000732,-0.0015249999999999999,0.49000000000000005,-1.05,-3.5175000000000005,1.02615625,0.09734375,0.029656250000000002,1.2828125000000001,0.980125,-0.33153125,-0.51896875,1.2438437500000001,0.0176263053727866,0.022375533228737445,True
63904,223172,1,223168,4988.0,45573.0,29013.0,0.00042699999999999997,-0.000366,-0.001647,0.47250000000000003,-1.2425000000000002,-3.7625,1.0020625,0.09125,0.02296875,1.2595,0.9605,-0.3340625,-0.51875,1.2384375,0.01747807214681067,0.022094060667856234,True
63905,223173,1,223169,4989.0,45573.0,29011.0,0.001281,-0.001098,-0.002013,0.42000000000000004,-1.1725,-3.7625,1.02240625,0.0985625,0.03065625,1.2606875,0.97840625,-0.32971875,-0.5161250000000001,1.2400625,0.01760321417607838,0.02230292307613867,True
63906,223174,1,223170,4990.0,45574.0,29012.0,0.00061,-0.000915,-0.000976,0.35000000000000003,-1.0675000000000001,-3.8675,1.00390625,0.09446875,0.0265625,1.26415625,0.9726875,-0.3310625,-0.51765625,1.241875,0.017489217743779168,0.022197013631757728,True
63907,223175,1,223171,4988.0,45576.0,29015.0,-0.000976,-0.000305,-0.000122,0.36750000000000005,-1.155,-3.8500000000000005,1.01884375,0.099,0.02775,1.2619375,0.975875,-0.33121875,-0.52078125,1.23909375,0.017681759159721498,0.022370056011164003,True
63908,223176,1,223172,4989.0,45576.0,29016.0,0.000244,-0.001281,0.0013419999999999999,0.31500000000000006,-1.2775,-3.7800000000000002,1.01575,0.1041875,0.027625,1.265625,0.97965625,-0.33203125,-0.51728125,1.24640625,0.01792775726440841,0.022225394587746146,True
63909,223177,1,223173,4991.0,45576.0,29016.0,0.002806,-0.0011589999999999999,0.002989,0.14,-1.1725,-3.7450000000000006,1.009375,0.09515625,0.02628125,1.26553125,0.9731875,-0.33384375,-0.51703125,1.24534375,0.017629767183821914,0.022160615388537308,True
63910,223178,1,223174,4990.0,45575.0,29016.0,0.00183,-0.000244,0.001403,0.1925,-1.1900000000000002,-3.7100000000000004,1.0092812500000001,0.09578125,0.025781250000000002,1.2645,0.97309375,-0.333,-0.51825,1.24734375,0.01762138864915958,0.02218882872961977,True
63911,223179,1,223175,4991.0,45577.0,29020.0,0.000366,0.000732,0.002257,0.385,-1.33,-3.5700000000000003,1.0003125,0.0969375,0.0235,1.25815625,0.97428125,-0.3330625,-0.5179375,1.2392812500000001,0.017671429562144098,0.022083321649710545,True
63912,223180,1,223176,4991.0,45575.0,29023.0,-0.00042699999999999997,0.001403,0.00122,0.45500000000000007,-1.155,-3.6225000000000005,1.0164375,0.0978125,0.02328125,1.2643125,0.97765625,-0.3314375,-0.5158125,1.23875,0.017641785447325094,0.02198963424116578,True
63913,223181,1,223177,4992.0,45579.0,29023.0,-0.001464,0.002013,-0.00061,0.42000000000000004,-1.1725,-3.5175000000000005,1.01721875,0.0970625,0.02353125,1.263875,0.9771875,-0.3281875,-0.5199375,1.23890625,0.017479723879964344,0.02216436114488465,True
63914,223182,1,223178,4991.0,45578.0,29027.0,-0.000915,-0.000183,-0.00061,0.3325,-1.0850000000000002,-3.3950000000000005,1.00984375,0.0963125,0.025406250000000002,1.27221875,0.9789375,-0.33037500000000003,-0.5171875,1.244625,0.017537234835057,0.02213115798865592,True
63915,223183,1,223179,4995.0,45580.0,29026.0,-0.002257,0.000183,-0.001464,0.385,-1.0850000000000002,-3.4125000000000005,1.010125,0.09453125,0.025968750000000002,1.264875,0.96746875,-0.32971875,-0.51734375,1.24659375,0.01743752175515798,0.022160332927583154,True
63916,223184,1,223180,4995.0,45581.0,29030.0,-0.0017079999999999999,6.1e-05,-0.002013,0.43750000000000006,-1.1375000000000002,-3.2900000000000005,1.01440625,0.09771875000000001,0.0229375,1.26428125,0.974375,-0.3316875,-0.518875,1.23921875,0.017648025851063558,0.02209777161472539,True
63917,223185,1,223181,4996.0,45584.0,29034.0,-0.00042699999999999997,0.000183,-0.0011589999999999999,0.45500000000000007,-0.9625000000000001,-3.325,1.0108125000000001,0.098625,0.025406250000000002,1.26428125,0.97703125,-0.3311875,-0.521625,1.2395625000000001,0.017665085191587958,0.022308115795751707,True
63918,223186,1,223182,4997.0,45583.0,29032.0,-0.001464,0.000366,-0.000793,0.43750000000000006,-0.9450000000000001,-3.5175000000000005,1.0140625,0.0980625,0.025562500000000002,1.2698125,0.9804375000000001,-0.33140625,-0.5194375,1.24103125,0.017650798543549038,0.022227263574052223,True
63919,223187,1,223183,4998.0,45582.0,29034.0,-0.000549,-0.0006709999999999999,6.1e-05,0.35000000000000003,-0.8750000000000001,-3.5875000000000004,1.00975,0.09796875000000001,0.025562500000000002,1.25615625,0.9736250000000001,-0.33040625,-0.51825,1.24003125,0.01760656996839089,0.022179906804115305,True
63920,223188,1,223184,4999.0,45583.0,29036.0,-0.000976,-0.001098,-0.000244,0.36750000000000005,-0.8575,-3.6400000000000006,1.01853125,0.09775,0.021781250000000002,1.2592812500000001,0.9802500000000001,-0.33087500000000003,-0.518625,1.2396875,0.017616505777124748,0.02204064257273807,True
63921,223189,1,223185,5000.0,45586.0,29036.0,-0.0025009999999999998,-0.0006709999999999999,-0.00042699999999999997,0.4025,-0.9625000000000001,-3.5875000000000004,1.0161875,0.09775,0.02309375,1.26421875,0.9784375000000001,-0.33159375,-0.51996875,1.239,0.017645525172390323,0.022147764768256483,True
63922,223190,1,223186,5003.0,45587.0,29036.0,0.0008539999999999999,-0.001037,0.001281,0.29750000000000004,-0.9625000000000001,-3.5525,1.0158125,0.0976875,0.025593750000000002,1.26475,0.97975,-0.33178125,-0.5166875,1.23990625,0.017650526510466637,0.02211886291734966,True
63923,223191,1,223187,5004.0,45588.0,29042.0,0.00244,-0.0008539999999999999,0.000732,0.28,-1.1025,-3.5700000000000003,1.01146875,0.0983125,0.0253125,1.2667187500000001,0.9809687500000001,-0.331125,-0.52025,1.2403125,0.01764971821072803,0.02224946727704652,True
63924,223192,1,223188,5005.0,45588.0,29043.0,0.001647,0.000732,-0.000183,0.43750000000000006,-1.1900000000000002,-3.4650000000000003,1.01009375,0.0960625,0.02646875,1.27009375,0.96678125,-0.33375,-0.51696875,1.245125,0.017663224944778344,0.022165770391170403,True
63925,223193,1,223189,5008.0,45589.0,29042.0,0.000915,0.001098,0.000976,0.47250000000000003,-1.05,-3.6050000000000004,1.0093125,0.09728125,0.023625,1.2645,0.971375,-0.33228125000000003,-0.51984375,1.24,0.017654016719044787,0.02216444588885278,True
63926,223194,1,223190,5009.0,45590.0,29046.0,0.00042699999999999997,0.0006709999999999999,0.0008539999999999999,0.35000000000000003,-0.9975,-3.5875000000000004,1.00959375,0.09615625,0.02534375,1.26978125,0.9775625,-0.3325,-0.51675,1.24490625,0.01761661358265694,0.022111158697625092,True
63927,223195,1,223191,5011.0,45591.0,29046.0,-0.0015249999999999999,0.001647,0.000488,0.42000000000000004,-1.155,-3.6925000000000003,1.0118125,0.09765625,0.0238125,1.2649375,0.9726250000000001,-0.33159375,-0.51875,1.23996875,0.017641672157213295,0.022128473107315833,True
63928,223196,1,223192,5013.0,45594.0,29049.0,-0.00244,-0.0015249999999999999,0.000122,0.43750000000000006,-1.3125000000000002,-3.6400000000000006,1.010625,0.09625,0.031531250000000004,1.26796875,0.980625,-0.33090625,-0.51840625,1.2453125,0.01755611754083348,0.022429577778939037,True
63929,223197,1,223193,5013.0,45594.0,29049.0,-0.000305,-0.0025009999999999998,-0.000305,0.28,-1.2950000000000002,-3.6050000000000004,1.00953125,0.095625,0.026375,1.265375,0.9730625,-0.33421875,-0.5165,1.23996875,0.017664168897963902,0.02214325046397324,True
63930,223198,1,223194,5017.0,45593.0,29050.0,-0.000915,-0.001403,6.1e-05,0.24500000000000002,-1.2950000000000002,-3.6400000000000006,1.0129062500000001,0.09740625,0.029,1.2639375,0.9762500000000001,-0.33140625,-0.5213125,1.24015625,0.01762382722946809,0.022442212259233676,True
63931,223199,1,223195,5016.0,45593.0,29052.0,-0.000549,-0.000244,-6.1e-05,0.42000000000000004,-1.33,-3.535,1.0138125,0.09765625,0.02409375,1.26521875,0.9733125,-0.331,-0.51575,1.23859375,0.017617699642431466,0.022020282879373465,True
63932,223200,1,223196,5018.0,45596.0,29054.0,-0.000488,0.000122,-0.000244,0.385,-1.3475000000000001,-3.5000000000000004,1.01421875,0.09753125,0.025562500000000002,1.2639375,0.9853437500000001,-0.33187500000000003,-0.5205,1.2381875,0.017647889856412628,0.022269631532799088,True
63933,223201,1,223197,5020.0,45595.0,29055.0,0.0025009999999999998,-0.000122,0.000793,0.31500000000000006,-1.4875,-3.3950000000000005,1.0105,0.09625,0.0265,1.2695,0.983,-0.32990625,-0.5181875,1.2389375,0.017515737447611413,0.02221565113652875,True
63934,223202,1,223198,5021.0,45598.0,29058.0,0.0017079999999999999,0.002013,0.000244,0.43750000000000006,-1.5225000000000002,-3.3075,1.00365625,0.09778125,0.02634375,1.2799375,0.97503125,-0.33,-0.5140625,1.2453750000000001,0.017582459926017265,0.022044744725603926,True
63935,223203,1,223199,5022.0,45601.0,29059.0,0.003721,0.00183,-0.000549,0.47250000000000003,-1.4000000000000001,-3.3600000000000003,1.00815625,0.10146875,0.01715625,1.2610625,0.96765625,-0.33465625,-0.5200625,1.23715625,0.017921970851755918,0.02190935483953191,True
63936,223204,1,223200,5025.0,45600.0,29063.0,0.001586,0.001403,-0.002196,0.56,-1.2075,-3.3425000000000002,1.032375,0.10146875,0.0145625,1.25440625,0.9846875,-0.33053125,-0.52196875,1.2383125,0.01775546927278869,0.021879615599787437,True
63937,223205,1,223201,5027.0,45597.0,29061.0,-0.001403,0.001586,-0.0017079999999999999,0.42000000000000004,-0.9275000000000001,-3.4125000000000005,1.031,0.092875,0.02734375,1.28728125,0.98265625,-0.3341875,-0.50928125,1.2474375,0.017549897649140743,0.021894766905904268,True
63938,223206,1,223202,5027.0,45596.0,29059.0,-0.003721,-0.002257,-0.0006709999999999999,0.42000000000000004,-0.7525000000000001,-3.5175000000000005,0.9973125,0.09140625000000001,0.031656250000000004,1.26278125,0.9705625,-0.3349375,-0.51253125,1.2403125,0.01751982103919519,0.02220037965275414,True
63939,223207,1,223203,5030.0,45593.0,29054.0,-0.00488,-0.002257,6.1e-05,0.24500000000000002,-0.77,-3.6050000000000004,1.01609375,0.100875,0.023,1.26978125,0.98071875,-0.328125,-0.524,1.23971875,0.017633911368015415,0.022304681128690263,True
63940,223208,1,223204,5030.0,45589.0,29045.0,-0.0030499999999999998,-0.0018909999999999999,0.000244,0.1925,-0.9450000000000001,-3.5175000000000005,1.0021875,0.09134375,0.02909375,1.283375,0.961875,-0.33559375,-0.51565625,1.25059375,0.01754374700637826,0.02222049430147317,True
63941,223209,1,223205,5030.0,45587.0,29040.0,-0.0023179999999999997,-0.001464,0.001586,0.15750000000000003,-1.155,-3.6575,0.9965937500000001,0.092125,0.02275,1.25403125,0.97059375,-0.3355625,-0.5165625,1.2356562500000001,0.01757458862929509,0.021997884083463988,True
63942,223210,1,223206,5029.0,45582.0,29031.0,-0.000305,-0.00042699999999999997,0.002379,0.17500000000000002,-1.155,-3.5875000000000004,1.03590625,0.10884375,0.017718750000000002,1.2555625000000001,0.9841562500000001,-0.32921875,-0.5211875,1.237125,0.018005613106668296,0.021977167704459667,True
63943,223211,1,223207,5026.0,45579.0,29022.0,0.001952,0.001586,0.001098,0.1925,-1.5750000000000002,-3.6400000000000006,1.01175,0.08453125,0.031531250000000004,1.28065625,0.967125,-0.3341875,-0.51528125,1.246875,0.01720701584961487,0.022304965397857715,True
63944,223212,1,223208,5024.0,45574.0,29013.0,0.0032329999999999998,0.000549,0.000366,0.1925,-1.7675,-3.6750000000000003,1.0199375,0.10287500000000001,0.01940625,1.254125,0.9735,-0.3310625,-0.51990625,1.23846875,0.01783471231476225,0.02199488425858072,True
63945,223213,1,223209,5019.0,45571.0,29007.0,0.004758,0.000366,-0.00042699999999999997,0.1925,-1.8025000000000002,-3.7450000000000006,1.01390625,0.09353125,0.03065625,1.28628125,0.97778125,-0.33459375,-0.5171250000000001,1.2425625,0.01759326678712276,0.022342801205279986,True
63946,223214,1,223210,5015.0,45569.0,29002.0,0.004209,-0.000305,-0.000488,0.22750000000000004,-1.6800000000000002,-3.7275000000000005,1.0168125000000001,0.098375,0.028875,1.2560625,0.97346875,-0.33171875,-0.5201875,1.2391875,0.017676258484616916,0.02239226351756079,True
63947,223215,1,223211,5009.0,45566.0,29000.0,0.0021349999999999997,-6.1e-05,-0.001952,0.22750000000000004,-1.4525000000000001,-3.8325000000000005,1.021125,0.0984375,0.031468750000000004,1.2665,0.9820625000000001,-0.33153125,-0.5180625,1.2459375,0.01767125733198563,0.022413322830872138,True
63948,223216,1,223212,5005.0,45567.0,28996.0,0.00061,-0.001098,-0.003965,0.385,-0.8925000000000001,-3.8500000000000005,1.00134375,0.09540625,0.02771875,1.26925,0.974,-0.33409375,-0.51690625,1.24525,0.017650133364839195,0.02221426286197917,True
63949,223217,1,223213,5002.0,45569.0,28998.0,-0.000793,-0.001464,-0.003843,0.45500000000000007,-0.5075000000000001,-3.8675,1.00996875,0.09440625,0.0269375,1.268125,0.97365625,-0.33171875,-0.509375,1.246375,0.017513148346743897,0.021881932933826342,True
63950,223218,1,223214,5001.0,45570.0,28998.0,-0.004148,0.000183,-0.000976,0.45500000000000007,-0.1925,-3.7625,1.012125,0.0978125,0.0229375,1.2641875,0.9733437500000001,-0.33571875,-0.5190625,1.23421875,0.017814606359222492,0.022105249741909996,True
63951,223219,1,223215,4998.0,45569.0,28999.0,-0.0064659999999999995,0.002562,0.0023179999999999997,0.4025,0.08750000000000001,-3.8850000000000002,1.00965625,0.09553125,0.02684375,1.26421875,0.981875,-0.33065625,-0.5175,1.246125,0.017516481907470127,0.022202253492403384,True
63952,223220,1,223216,4996.0,45569.0,29000.0,-0.006222,0.0044529999999999995,0.004941,0.6125,0.08750000000000001,-3.8675,1.01846875,0.0971875,0.0225625,1.26434375,0.9734375000000001,-0.3318125,-0.51896875,1.2394687500000001,0.017631238938735038,0.02208621641152832,True
63953,223221,1,223217,4994.0,45568.0,28999.0,-0.000366,0.001098,0.004026,0.29750000000000004,-0.56,-3.7625,1.0100625,0.09534375,0.025906250000000002,1.26659375,0.9821875,-0.33003125,-0.51734375,1.24684375,0.017483536935448858,0.022157783711785665,True
63954,223222,1,223218,4992.0,45571.0,29001.0,0.000122,-0.001586,0.0021349999999999997,0.07,-0.8575,-3.7275000000000005,1.0126875,0.09859375000000001,0.02215625,1.25675,0.97365625,-0.33509375,-0.51671875,1.23971875,0.017821484661426464,0.02197989892101691,True
63955,223223,1,223219,4991.0,45571.0,29002.0,-0.000244,-0.002745,-0.000915,0.21000000000000002,-1.2425000000000002,-3.6750000000000003,1.0148125000000001,0.09459375,0.02628125,1.260375,0.982,-0.3310625,-0.51809375,1.2439375,0.017494355209518694,0.022202990393574137,True
63956,223224,1,223220,4992.0,45573.0,29002.0,0.003843,-0.002196,-0.000488,0.36750000000000005,-1.6800000000000002,-3.7275000000000005,1.00953125,0.09778125,0.02390625,1.25784375,0.9733437500000001,-0.33375,-0.516625,1.2441875,0.017733857296964094,0.022047539169849032,True
63957,223225,1,223221,4991.0,45575.0,29006.0,0.004331,-0.002379,-0.0030499999999999998,0.17500000000000002,-1.995,-3.8150000000000004,1.0169375,0.09765625,0.025718750000000002,1.2706250000000001,0.972125,-0.33346875,-0.5190625,1.2337500000000001,0.01771736715506292,0.02221868189291495,True
63958,223226,1,223222,4991.0,45575.0,29005.0,0.006039,-0.0040869999999999995,-0.0046359999999999995,0.24500000000000002,-2.0825,-3.7450000000000006,1.00946875,0.09565625,0.023125,1.26409375,0.9756875,-0.3336875,-0.5129375,1.2453125,0.01764400689373528,0.02186855410535763,True
63959,223227,1,223223,4991.0,45576.0,29010.0,0.003477,-0.004026,-0.004758,0.24500000000000002,-1.9425000000000001,-3.8850000000000002,1.01759375,0.09709375,0.025812500000000002,1.26778125,0.979375,-0.324125,-0.51784375,1.245,0.017316912735812696,0.022173901405991302,True
63960,223228,1,223224,4990.0,45575.0,29012.0,-0.0013419999999999999,0.000549,-0.003294,0.45500000000000007,-1.5750000000000002,-3.9725000000000006,1.01540625,0.09765625,0.029781250000000002,1.2669375,0.97309375,-0.33134375,-0.51925,1.2395625000000001,0.017631578609381162,0.02239184518286652,True
63961,223229,1,223225,4990.0,45578.0,29011.0,-0.004941,0.005429,0.003294,0.665,-1.155,-3.8150000000000004,1.01025,0.09625,0.025968750000000002,1.27059375,0.9806875,-0.33103125,-0.51846875,1.23940625,0.01756116481910318,0.022205199906702982,True
63962,223230,1,223226,4991.0,45577.0,29011.0,-0.007076,0.008418,0.007076,0.805,-0.7350000000000001,-3.9200000000000004,1.00825,0.09771875000000001,0.024625,1.2641875,0.972875,-0.3338125,-0.51665625,1.24075,0.01773381174857002,0.022078102514489512,True
63963,223231,1,223227,4991.0,45579.0,29013.0,-0.0055509999999999995,0.0032329999999999998,0.006161,0.49000000000000005,-1.0150000000000001,-3.8150000000000004,1.0170625,0.0981875,0.025531250000000002,1.26425,0.9805,-0.331125,-0.51965625,1.23246875,0.017644580758185247,0.022234712201562777,True
63964,223232,1,223228,4992.0,45578.0,29015.0,-0.002562,0.000366,0.002013,0.36750000000000005,-1.435,-3.8150000000000004,1.00403125,0.09834375000000001,0.025656250000000002,1.269875,0.981,-0.33090625,-0.51834375,1.24059375,0.01764217064458912,0.022187469330998348,True
63965,223233,1,223229,4992.0,45579.0,29017.0,0.001403,-0.001769,-0.002257,0.43750000000000006,-1.9775000000000003,-4.0075,1.0095,0.09525,0.026375,1.26590625,0.97671875,-0.33090625,-0.5169375,1.24259375,0.01751501755098004,0.02216070012822768,True
63966,223234,1,223230,4993.0,45578.0,29016.0,0.005246,-0.002257,-0.0066489999999999995,0.56,-2.3275,-3.99,1.015375,0.0971875,0.02371875,1.2634375,0.97409375,-0.33240625,-0.516875,1.24309375,0.01765521032265356,0.02204986361434726,True
63967,223235,1,223231,4992.0,45578.0,29020.0,0.007869,-0.003538,-0.007625,0.4025,-2.5200000000000005,-4.077500000000001,1.0185,0.10028125,0.0251875,1.2699375,0.96828125,-0.3313125,-0.51859375,1.2400625,0.01773820257333015,0.02217832129952396,True
63968,223236,1,223232,4992.0,45581.0,29018.0,0.004941,-0.0053679999999999995,-0.005856,0.15750000000000003,-2.3275,-4.165,1.00871875,0.09434375,0.0265625,1.27128125,0.9796875,-0.3305625,-0.51365625,1.244875,0.017463889295613284,0.022037461262026145,True
63969,223237,1,223233,4993.0,45578.0,29018.0,0.000915,-0.005124,-0.002196,0.14,-2.0125,-4.112500000000001,1.009375,0.09740625,0.025562500000000002,1.2666250000000001,0.96859375,-0.33375,-0.51678125,1.2334687500000001,0.01771844660194175,0.022121327611062322,True
63970,223238,1,223234,4992.0,45577.0,29020.0,-0.002928,-0.002928,0.000488,0.24500000000000002,-1.8550000000000002,-4.095000000000001,1.01003125,0.10125,0.02665625,1.2714375,0.97390625,-0.33084375,-0.51765625,1.24046875,0.017759094359397216,0.022200837406715825,True
63971,223239,1,223235,4994.0,45578.0,29019.0,-0.0050019999999999995,0.000244,0.003904,0.31500000000000006,-1.715,-3.9550000000000005,1.0093125,0.09518750000000001,0.025875000000000002,1.267625,0.9730625,-0.33046875000000003,-0.51784375,1.240375,0.01749478213402691,0.02217645056980184,True
63972,223240,1,223236,4995.0,45579.0,29019.0,-0.0055509999999999995,0.00366,0.005856,0.42000000000000004,-1.9075000000000002,-3.7800000000000002,1.0123125,0.09815625,0.0236875,1.26478125,0.9968125,-0.33137500000000003,-0.5218125,1.23415625,0.017653389913229317,0.02224550081687477,True
63973,223241,1,223237,4995.0,45582.0,29022.0,-0.000915,0.0044529999999999995,0.007686,0.43750000000000006,-2.1175,-3.4475000000000002,1.0169375,0.0975625,0.02284375,1.26403125,0.96965625,-0.34015625,-0.5138125,1.2539375,0.01798339934650173,0.021891994564289013,True
63974,223242,1,223238,4995.0,45582.0,29022.0,0.001769,0.002928,0.003355,0.31500000000000006,-2.6775,-3.3075,1.00996875,0.09740625,0.025906250000000002,1.25721875,0.96621875,-0.33890625,-0.513875,1.2494375,0.017926545076363074,0.022019417574740838,True
63975,223243,1,223239,4994.0,45586.0,29024.0,0.004392,0.002623,-0.0025009999999999998,0.2625,-3.115,-3.3775000000000004,1.01496875,0.09803125,0.02321875,1.2649062500000001,0.9605,-0.33234375,-0.518875,1.23371875,0.017687363141908597,0.022109242369399082,True
63976,223244,1,223240,4996.0,45584.0,29022.0,0.0064659999999999995,0.001403,-0.004026,0.29750000000000004,-3.2025,-3.3775000000000004,1.010625,0.09759375,0.025875000000000002,1.270875,0.9869375,-0.32746875000000003,-0.5248125,1.2340625,0.017472532977768185,0.022454300109328054,True
63977,223245,1,223241,4997.0,45582.0,29026.0,0.005124,0.000244,-0.0060999999999999995,0.43750000000000006,-3.0625000000000004,-3.3425000000000002,0.99828125,0.09556250000000001,0.02615625,1.2710625,0.979125,-0.32871875,-0.51896875,1.24415625,0.017439522991731737,0.022232786605268624,True
63978,223246,1,223242,4998.0,45583.0,29024.0,0.000183,-0.002562,-0.002562,0.36750000000000005,-2.1875,-3.6575,1.0095,0.09775,0.02653125,1.26434375,0.9540000000000001,-0.33459375,-0.51509375,1.2553125,0.017766631094879075,0.02209353166352872,True
63979,223247,1,223243,4998.0,45584.0,29029.0,-0.0035989999999999998,-0.001037,0.000488,0.36750000000000005,-1.6975000000000002,-3.7450000000000006,1.01046875,0.09790625,0.02721875,1.27125,0.9527187500000001,-0.333625,-0.51609375,1.2470625,0.017733948394454177,0.022161462814605203,True
63980,223248,1,223244,5000.0,45586.0,29030.0,-0.006954,-0.000244,0.0021349999999999997,0.56,-1.4525000000000001,-3.9725000000000006,1.01015625,0.09959375000000001,0.027,1.26625,0.97375,-0.329625,-0.51971875,1.23684375,0.017641815276643186,0.022297105263493287,True
63981,223249,1,223245,5000.0,45587.0,29029.0,-0.008296,0.00042699999999999997,0.002928,0.6125,-1.4175000000000002,-4.0425,1.0104375,0.0963125,0.0265625,1.259875,0.9755312500000001,-0.32665625,-0.51775,1.239,0.017387048415254357,0.022200752516034306,True
63982,223250,1,223246,5002.0,45585.0,29030.0,-0.008173999999999999,-0.0006709999999999999,0.00244,0.5950000000000001,-1.5925000000000002,-4.0425,1.00234375,0.09584375,0.02690625,1.2703125,0.96840625,-0.32971875,-0.5190625,1.23440625,0.01749146812475997,0.022267113597838416,True
63983,223251,1,223247,5002.0,45589.0,29033.0,6.1e-05,-0.001037,-0.000976,0.29750000000000004,-2.2750000000000004,-4.2175,1.002125,0.09796875000000001,0.03040625,1.26346875,0.9868750000000001,-0.32921875,-0.51909375,1.2345625,0.017558619715234383,0.02241110563068833,True
63984,223252,1,223248,5003.0,45588.0,29033.0,0.005429,6.1e-05,-0.001647,0.3325,-2.5375,-4.1825,1.016375,0.09796875000000001,0.02425,1.2665,0.9755,-0.3300625,-0.5188125,1.23640625,0.017592690113311462,0.022148809205176638,True
63985,223253,1,223249,5004.0,45588.0,29034.0,0.008296,-0.000122,-0.002074,0.21000000000000002,-2.7825,-4.2175,1.0031875000000001,0.094625,0.027,1.2686250000000001,0.97778125,-0.32965625,-0.5156875,1.24778125,0.01743885099075331,0.02213633617250179,True
63986,223254,1,223250,5005.0,45591.0,29037.0,0.008905999999999999,-0.000305,-0.0006709999999999999,0.12250000000000001,-2.6950000000000003,-4.357500000000001,1.011875,0.100125,0.02378125,1.26453125,0.97378125,-0.33309375,-0.5095625,1.24,0.01780368556710961,0.021760639342297522,True
63987,223255,1,223251,5006.0,45591.0,29037.0,0.0057339999999999995,0.00122,0.001769,0.22750000000000004,-2.415,-4.305000000000001,1.01378125,0.09509375,0.026375,1.27084375,0.9801875,-0.33075,-0.5196875,1.2419375,0.017502286201617295,0.022270369473509806,True
63988,223256,1,223252,5008.0,45591.0,29038.0,0.0023179999999999997,0.001769,0.0018909999999999999,0.3325,-2.1875,-4.235,1.00978125,0.09359375,0.02725,1.26378125,0.96865625,-0.33221875,-0.516875,1.24509375,0.017499945417020386,0.02219389706069799,True
63989,223257,1,223253,5010.0,45591.0,29042.0,-0.00122,-0.000366,0.001464,0.24500000000000002,-2.0125,-4.2700000000000005,1.0173125,0.09784375000000001,0.0245625,1.2653125,0.9725312500000001,-0.331625,-0.51765625,1.2405,0.017650639856565273,0.022115439765984974,True
63990,223258,1,223254,5011.0,45594.0,29043.0,-0.003843,-0.00183,0.001403,0.22750000000000004,-1.8550000000000002,-4.1475,1.016375,0.09834375000000001,0.025843750000000002,1.27028125,0.98278125,-0.32725,-0.51740625,1.23859375,0.01749452774152442,0.02215772722695738,True
63991,223259,1,223255,5012.0,45591.0,29042.0,-0.006222,-0.001586,-0.000122,0.31500000000000006,-1.7325000000000002,-3.9375000000000004,1.0093125,0.09821875000000001,0.027125,1.25659375,0.9758125,-0.33271875,-0.5170625,1.24625,0.01771020757801674,0.022196276572692995,True
63992,223260,1,223256,5013.0,45595.0,29044.0,-0.005063,-0.001464,-0.0008539999999999999,0.47250000000000003,-1.9425000000000001,-3.8150000000000004,1.0130625,0.0985625,0.0261875,1.26703125,0.9741875,-0.3294375,-0.51959375,1.2405,0.01759185760048912,0.022258984205233825,True
63993,223261,1,223257,5015.0,45598.0,29047.0,-0.000366,-0.000976,0.00122,0.24500000000000002,-2.31,-3.6925000000000003,1.0094375,0.09493750000000001,0.026375,1.2709375,0.98109375,-0.33078125,-0.51928125,1.2403125,0.017497126196882807,0.02225416986886596,True
63994,223262,1,223258,5017.0,45596.0,29050.0,0.0021349999999999997,-0.0013419999999999999,0.001037,0.21000000000000002,-2.45,-3.5525,1.0105,0.09646875,0.02809375,1.25440625,0.97378125,-0.33228125000000003,-0.5161875,1.2468125,0.01762062486434559,0.022200892777476108,True
63995,223263,1,223259,5020.0,45597.0,29052.0,0.0059169999999999995,0.000793,0.000366,0.24500000000000002,-2.5200000000000005,-3.6575,1.01115625,0.09446875,0.02675,1.2590937500000001,0.9733437500000001,-0.3329375,-0.51675,1.23878125,0.01756492614177799,0.022168517442156897,True
63996,223264,1,223260,5021.0,45598.0,29052.0,0.0075639999999999995,0.002257,-0.0021349999999999997,0.385,-2.4850000000000003,-3.6400000000000006,1.00859375,0.0970625,0.02228125,1.2630000000000001,0.9736875,-0.33325,-0.51671875,1.2416875,0.017684135904575016,0.021984997482585228,True
63997,223265,1,223261,5022.0,45599.0,29055.0,0.003477,0.00488,-0.001037,0.6825000000000001,-1.7850000000000001,-3.7100000000000004,1.0160625,0.0991875,0.0235,1.2631875000000001,0.9785312500000001,-0.33121875,-0.51709375,1.23678125,0.01768946530884319,0.02204966687782886,True
63998,223266,1,223262,5023.0,45598.0,29053.0,-0.001769,0.00183,-0.000549,0.6125,-1.435,-3.7275000000000005,1.01903125,0.0989375,0.026875,1.25609375,0.9834375000000001,-0.33187500000000003,-0.5154062500000001,1.239625,0.017705684416018084,0.022120018916676122,True
63999,223267,1,223263,5025.0,45595.0,29049.0,-0.006344,-0.002257,-0.000305,0.35000000000000003,-1.2425000000000002,-3.6575,1.02078125,0.09875,0.025,1.2630000000000001,0.98159375,-0.3310625,-0.51940625,1.24321875,0.01766517594535791,0.022203076389747407,True
64000,223268,1,223264,5025.0,45593.0,29046.0,-0.008296,-0.0035989999999999998,-0.0006709999999999999,0.28,-1.1025,-3.6400000000000006,1.0166875,0.097,0.0275625,1.27578125,0.973125,-0.3328125,-0.51696875,1.2460625,0.017663905477428885,0.022210382349979543,True
64001,223269,1,223265,5027.0,45590.0,29039.0,-0.007076,-0.0032329999999999998,-0.000976,0.24500000000000002,-1.1025,-3.7275000000000005,1.00753125,0.0945,0.02696875,1.262,0.974125,-0.33053125,-0.51834375,1.23990625,0.01746904930405085,0.0222410006793383,True
64002,223270,1,223266,5026.0,45587.0,29030.0,-0.000976,-0.000366,0.000244,0.29750000000000004,-1.61,-3.9200000000000004,0.9986875000000001,0.09203125,0.02746875,1.26225,0.975125,-0.33196875000000003,-0.5164375,1.23390625,0.017425634742359267,0.022185370529466203,True
64003,223271,1,223267,5024.0,45584.0,29023.0,0.002562,-0.000732,0.00183,0.29750000000000004,-1.6625,-3.9550000000000005,1.0112812500000001,0.0979375,0.0279375,1.27425,0.978125,-0.33171875,-0.51640625,1.2471875000000001,0.017658277839497055,0.022203244001147187,True
64004,223272,1,223268,5021.0,45578.0,29013.0,0.003172,-0.000366,6.1e-05,0.24500000000000002,-1.8550000000000002,-4.025,1.0075,0.09309375,0.02740625,1.2696875,0.973,-0.33375,-0.51665625,1.2400625,0.017541223609184774,0.02219154579858336,True
64005,223273,1,223269,5016.0,45576.0,29006.0,0.005612,0.00183,0.001586,0.22750000000000004,-1.9075000000000002,-4.130000000000001,1.0092812500000001,0.09890625,0.0275,1.25834375,0.97803125,-0.33090625,-0.519,1.240375,0.01766528938888168,0.022288837228271952,True
64006,223274,1,223270,5009.0,45571.0,28997.0,0.004758,0.0013419999999999999,0.0008539999999999999,0.15750000000000003,-1.995,-4.025,1.02125,0.0989375,0.02115625,1.262875,0.97628125,-0.3226875,-0.51746875,1.2395,0.01733463869895134,0.02196902973517607,True
64007,223275,1,223271,5004.0,45569.0,28993.0,0.00183,0.000122,0.000488,0.15750000000000003,-1.9250000000000003,-4.112500000000001,1.01734375,0.09821875000000001,0.02259375,1.2633750000000001,0.97671875,-0.33103125,-0.51809375,1.2405625,0.017642080008425456,0.022052591262320304,True
64008,223276,1,223272,5001.0,45566.0,28991.0,-0.000732,0.0,0.000366,0.28,-1.8200000000000003,-4.112500000000001,1.01121875,0.0979375,0.025406250000000002,1.26296875,0.97790625,-0.3314375,-0.518625,1.23859375,0.017646922833885175,0.022188489362678372,True
64009,223277,1,223273,4997.0,45568.0,28990.0,-0.001403,0.000549,-0.000366,0.36750000000000005,-1.715,-4.095000000000001,1.0103125,0.09803125,0.0249375,1.26434375,0.977125,-0.3310625,-0.517625,1.24059375,0.01763563551735564,0.022129488480225962,True
64010,223278,1,223274,4992.0,45564.0,28990.0,-0.0032329999999999998,-6.1e-05,-0.000732,0.29750000000000004,-1.6800000000000002,-4.130000000000001,1.01125,0.0986875,0.02359375,1.26428125,0.9805,-0.3311875,-0.5173125000000001,1.2392812500000001,0.017667653911261013,0.02206221624005486,True
64011,223279,1,223275,4991.0,45567.0,28990.0,-0.003111,0.000305,-0.0008539999999999999,0.35000000000000003,-1.7325000000000002,-3.9725000000000006,1.01415625,0.09556250000000001,0.02603125,1.26928125,0.96240625,-0.33475,-0.5142187500000001,1.2405625,0.017683045850070373,0.02203823036375573,True
64012,223280,1,223276,4987.0,45567.0,28992.0,0.000549,-0.001952,-0.001403,0.24500000000000002,-2.1525000000000003,-4.0075,0.998625,0.0964375,0.0270625,1.2729062500000001,0.968,-0.33075,-0.52040625,1.23009375,0.017557514667653075,0.022327066869049117,True
64013,223281,1,223277,4986.0,45565.0,28991.0,0.00183,-0.00183,-0.0006709999999999999,0.15750000000000003,-2.205,-3.99,1.00584375,0.09859375000000001,0.0260625,1.26715625,0.98021875,-0.32715625,-0.5210312500000001,1.2476875,0.017501018023839097,0.022311204794863596,True
64014,223282,1,223278,4984.0,45568.0,28992.0,0.002257,-0.00061,-0.000183,0.28,-2.0650000000000004,-3.99,1.011625,0.097375,0.025593750000000002,1.266375,0.9666250000000001,-0.33875,-0.5104062500000001,1.23440625,0.017918956396692515,0.021868262587446917,True
64015,223283,1,223279,4982.0,45569.0,28992.0,0.000366,-0.000183,0.00061,0.36750000000000005,-1.9075000000000002,-3.99,1.00996875,0.09903125,0.02775,1.27078125,0.9939375,-0.3269375,-0.5225,1.22915625,0.017510167484090424,0.022438576817208684,True
64016,223284,1,223280,4980.0,45570.0,28995.0,-0.00042699999999999997,-6.1e-05,0.001586,0.1925,-1.6625,-4.0075,1.01015625,0.09446875,0.025718750000000002,1.26975,0.99715625,-0.326625,-0.52153125,1.228875,0.017309994707445032,0.022317121815139503,True
64017,223285,1,223281,4979.0,45572.0,28994.0,-0.000549,-6.1e-05,-0.000305,0.2625,-1.8550000000000002,-3.9725000000000006,1.01059375,0.0970625,0.02628125,1.27196875,0.983,-0.319375,-0.5205625,1.24221875,0.01712369252910488,0.02230143578476228,True
64018,223286,1,223282,4980.0,45571.0,28996.0,0.001403,0.000305,0.00042699999999999997,0.29750000000000004,-1.9075000000000002,-3.9550000000000005,1.01025,0.09456250000000001,0.02671875,1.27140625,0.9687187500000001,-0.3264375,-0.51990625,1.2414375,0.01730627429519838,0.02229311133683474,True
64019,223287,1,223283,4978.0,45571.0,28999.0,0.0028669999999999998,0.0018909999999999999,0.000244,0.35000000000000003,-1.8550000000000002,-3.9375000000000004,1.00953125,0.09490625,0.02690625,1.26984375,0.9775312500000001,-0.32571875,-0.51571875,1.229875,0.017291369859318135,0.02213375857071292,True
64020,223288,1,223284,4980.0,45571.0,28999.0,0.002074,0.001281,6.1e-05,0.35000000000000003,-1.6275000000000002,-3.9375000000000004,1.0090000000000001,0.09925,0.026000000000000002,1.2667187500000001,0.98078125,-0.326625,-0.528875,1.228375,0.017506538617666857,0.022621298367740062,True
64021,223289,1,223285,4979.0,45573.0,29002.0,0.001281,0.000488,0.000976,0.42000000000000004,-1.4525000000000001,-3.9725000000000006,1.0175,0.09925,0.02434375,1.2580625,0.97621875,-0.32646875000000003,-0.51890625,1.2613750000000001,0.017500228018092433,0.02215637167746828,True
64022,223290,1,223286,4979.0,45571.0,29002.0,-0.002074,0.001037,0.000732,0.45500000000000007,-1.0150000000000001,-4.0425,1.0104375,0.09421875,0.024875,1.2641875,0.96415625,-0.33237500000000003,-0.51825,1.23459375,0.01753194047025825,0.022151866466815537,True
64023,223291,1,223287,4978.0,45573.0,29004.0,-0.0035989999999999998,0.000793,0.00122,0.525,-1.0325000000000002,-4.130000000000001,1.00753125,0.09753125,0.026625,1.271375,0.965375,-0.33784375,-0.511125,1.2499375,0.017888807425678374,0.021939017486957455,True
64024,223292,1,223288,4980.0,45575.0,29006.0,-0.004209,-0.000122,-0.000549,0.49000000000000005,-0.9100000000000001,-4.1825,1.0071875000000001,0.0981875,0.025625000000000002,1.26434375,0.97028125,-0.3274375,-0.51709375,1.23725,0.01749567746294693,0.022136341098748704,True
64025,223293,1,223289,4978.0,45575.0,29009.0,-0.003721,-0.001586,-0.001769,0.49000000000000005,-1.0325000000000002,-4.2875000000000005,1.01453125,0.0945,0.0268125,1.2723125,0.96996875,-0.33515625,-0.51228125,1.24390625,0.01765578349224694,0.021992802077530016,True
64026,223294,1,223290,4979.0,45573.0,29009.0,-0.0011589999999999999,0.0,-0.0040869999999999995,0.5425000000000001,-1.1900000000000002,-4.322500000000001,1.00975,0.09675,0.02615625,1.26565625,0.974375,-0.3339375,-0.517375,1.23959375,0.017699046855857173,0.02216922692580262,True
64027,223295,1,223291,4981.0,45575.0,29006.0,0.002013,-0.00061,-0.003355,0.5075000000000001,-1.2075,-4.3925,1.009625,0.0980625,0.02240625,1.2650625,0.97709375,-0.3308125,-0.52,1.23971875,0.017626826066741503,0.022120972675367046,True
64028,223296,1,223292,4983.0,45576.0,29008.0,0.003294,-0.000488,-0.0011589999999999999,0.29750000000000004,-1.2600000000000002,-4.515000000000001,1.016125,0.0979375,0.02621875,1.25796875,0.97896875,-0.33153125,-0.518625,1.2376875,0.017650707864923215,0.02222162743628568,True
64029,223297,1,223293,4982.0,45575.0,29008.0,0.003355,-0.002074,0.001403,0.3325,-1.1725,-4.4625,1.0143125,0.0975625,0.026375,1.2645,0.97396875,-0.33128125,-0.5170625,1.24196875,0.01762520212535047,0.022165685632200022,True
64030,223298,1,223294,4982.0,45577.0,29011.0,0.001769,-0.001952,0.001952,0.28,-1.0850000000000002,-4.3925,1.01365625,0.0985,0.025906250000000002,1.265125,0.97465625,-0.3315,-0.5158125,1.24446875,0.017672564371288252,0.022096707992035756,True
64031,223299,1,223295,4981.0,45576.0,29010.0,0.0017079999999999999,-6.1e-05,0.0021349999999999997,0.36750000000000005,-1.0325000000000002,-4.322500000000001,1.00971875,0.096625,0.0263125,1.26875,0.97409375,-0.33275,-0.51659375,1.2452812500000001,0.01764597096505738,0.022144440436388108,True
64032,223300,1,223296,4981.0,45572.0,29012.0,-0.00061,0.000976,-0.000122,0.47250000000000003,-1.1725,-4.2700000000000005,1.010125,0.09821875000000001,0.0321875,1.2654375,0.9746250000000001,-0.3304375,-0.5188125,1.2395625000000001,0.017618106949371545,0.022472540217842934,True
64033,223301,1,223297,4983.0,45575.0,29010.0,-0.0013419999999999999,0.001098,-6.1e-05,0.525,-1.2775,-4.112500000000001,1.01584375,0.09684375,0.02375,1.2654375,0.9806875,-0.3314375,-0.51925,1.23903125,0.01760197070148445,0.02214586498363531,True
64034,223302,1,223298,4984.0,45575.0,29010.0,0.000183,0.00061,0.0015249999999999999,0.47250000000000003,-1.435,-3.9725000000000006,1.01365625,0.09465625,0.0288125,1.2755,0.9761875,-0.3314375,-0.516375,1.2454687500000001,0.017512066436682995,0.02223768807582687,True
64035,223303,1,223299,4984.0,45577.0,29012.0,0.0018909999999999999,-0.0011589999999999999,0.000549,0.31500000000000006,-1.3650000000000002,-3.9725000000000006,1.0105625,0.09734375,0.02059375,1.2650000000000001,0.9653125,-0.32606250000000003,-0.5179375,1.240375,0.017405457623896184,0.021964785985770625,True
64036,223304,1,223300,4984.0,45575.0,29014.0,-0.00042699999999999997,-0.001281,0.00042699999999999997,0.3325,-1.3650000000000002,-3.9200000000000004,1.01996875,0.095875,0.0285,1.27878125,0.98003125,-0.3305,-0.51590625,1.243875,0.017524300774747745,0.02220624619985239,True
64037,223305,1,223301,4986.0,45578.0,29014.0,-0.0030499999999999998,0.0015249999999999999,-0.000305,0.45500000000000007,-1.4175000000000002,-3.8325000000000005,1.006,0.09296875,0.026125,1.264625,0.9741875,-0.33487500000000003,-0.5169375,1.24496875,0.017581505966231592,0.022150503096073887,True
64038,223306,1,223302,4985.0,45577.0,29016.0,-0.001769,0.0006709999999999999,0.000305,0.43750000000000006,-1.5925000000000002,-3.7625,1.00640625,0.09375,0.02825,1.27909375,0.973125,-0.33221875,-0.51665625,1.24753125,0.017506366944033826,0.02222596117690397,True
64039,223307,1,223303,4987.0,45577.0,29019.0,0.0,0.000244,0.0008539999999999999,0.2625,-1.6625,-3.7100000000000004,1.00315625,0.09625,0.0275,1.27625,0.973375,-0.33437500000000003,-0.51628125,1.24665625,0.017696160267111852,0.022180413271282732,True
64040,223308,1,223304,4987.0,45579.0,29018.0,0.000305,-0.0015249999999999999,-0.000732,0.1925,-1.7850000000000001,-3.6925000000000003,1.00009375,0.098625,0.02475,1.258875,0.963125,-0.33340625,-0.51203125,1.2414375,0.017754655700946104,0.021898684957004536,True
64041,223309,1,223305,4990.0,45580.0,29019.0,0.000488,-0.000549,0.001403,0.24500000000000002,-1.6975000000000002,-3.8150000000000004,1.0255625,0.09890625,0.036125,1.28159375,0.98059375,-0.331125,-0.518375,1.2425,0.01767412111030624,0.022615691292754925,True
64042,223310,1,223306,4991.0,45581.0,29022.0,-0.001586,0.001098,-0.0021349999999999997,0.29750000000000004,-1.7325000000000002,-3.7275000000000005,1.00390625,0.09406250000000001,0.02271875,1.2593125,0.97378125,-0.33246875,-0.51571875,1.2394687500000001,0.01752930433744007,0.02196294979114165,True
64043,223311,1,223307,4992.0,45583.0,29024.0,0.0006709999999999999,0.002196,-0.0021349999999999997,0.45500000000000007,-1.8375000000000001,-3.6575,1.02478125,0.10128125,0.0235625,1.26078125,0.98021875,-0.33015625,-0.51925,1.23971875,0.01773262348037736,0.02213821793080947,True
64044,223312,1,223308,4993.0,45581.0,29024.0,0.003294,0.00061,0.0034159999999999998,0.47250000000000003,-1.6975000000000002,-3.6575,1.00584375,0.089,0.03325,1.260875,0.980375,-0.3316875,-0.51659375,1.246375,0.01728969682024726,0.022427412046177906,True
64045,223313,1,223309,4994.0,45584.0,29026.0,-0.000488,-0.000549,-0.000915,0.2625,-1.8375000000000001,-3.6925000000000003,1.0038125,0.09421875,0.0274375,1.2689062500000001,0.974125,-0.33187500000000003,-0.5171875,1.2475625000000001,0.01751175156045311,0.02221400803008094,True
64046,223314,1,223310,4996.0,45587.0,29026.0,-0.000244,-0.001769,-0.001952,0.07,-1.8725000000000003,-3.43,1.003875,0.091375,0.03346875,1.26984375,0.97403125,-0.33365625,-0.5161250000000001,1.23921875,0.017466805877148033,0.022417643489744,True
64047,223315,1,223311,4996.0,45586.0,29031.0,-0.001037,0.002013,0.000488,0.525,-1.9075000000000002,-3.7800000000000002,1.01684375,0.09940625,0.02321875,1.26096875,0.9746875,-0.3303125,-0.51975,1.24021875,0.01766186726948123,0.02214413890843096,True
64048,223316,1,223312,4999.0,45587.0,29031.0,-0.000488,0.0015249999999999999,-0.000732,0.31500000000000006,-1.9250000000000003,-3.7100000000000004,1.0135625,0.09593750000000001,0.0278125,1.27015625,0.9755625,-0.3323125,-0.5165,1.24721875,0.017600053426898903,0.02220188444516958,True
64049,223317,1,223313,4999.0,45587.0,29032.0,0.001647,-0.001037,0.002806,0.36750000000000005,-1.8375000000000001,-3.5525,1.0105625,0.097875,0.02475,1.2638125,0.96759375,-0.33028125,-0.51828125,1.24040625,0.017597669570712425,0.02214801455546563,True
64050,223318,1,223314,5000.0,45588.0,29032.0,0.0013419999999999999,-6.1e-05,0.002196,0.31500000000000006,-1.7500000000000002,-3.7275000000000005,1.009625,0.096875,0.025718750000000002,1.2650625,0.97278125,-0.332625,-0.51484375,1.24034375,0.017651198750648564,0.02205041588323401,True
64051,223319,1,223315,5002.0,45590.0,29038.0,-0.0015249999999999999,-0.0013419999999999999,-0.0006709999999999999,0.2625,-1.9425000000000001,-3.8325000000000005,1.0091875000000001,0.09615625,0.0263125,1.264125,0.9663125,-0.3338125,-0.5159375,1.2404375,0.0176696006842331,0.02211826490420772,True
64052,223320,1,223316,5005.0,45591.0,29038.0,0.000305,-0.000183,0.0011589999999999999,0.29750000000000004,-1.8375000000000001,-3.7100000000000004,1.01078125,0.09775,0.02734375,1.26496875,0.9743437500000001,-0.3313125,-0.515875,1.2393125,0.017634169961032724,0.022157836503897983,True
64053,223321,1,223317,5004.0,45593.0,29041.0,-0.0008539999999999999,-0.000366,0.000244,0.29750000000000004,-1.61,-3.8325000000000005,1.0173125,0.09725,0.02678125,1.26534375,0.98140625,-0.3318125,-0.51640625,1.23875,0.01763380759242658,0.02215608170549058,True
64054,223322,1,223318,5007.0,45593.0,29043.0,-0.002562,-0.000793,0.00061,0.43750000000000006,-1.5050000000000001,-3.8850000000000002,1.0149375,0.09746875,0.027,1.271125,0.98178125,-0.33103125,-0.5164375,1.24721875,0.017611255174397922,0.0221662507042469,True
64055,223323,1,223319,5008.0,45596.0,29043.0,-0.001098,0.0008539999999999999,0.000976,0.5425000000000001,-1.4700000000000002,-3.9550000000000005,1.01178125,0.10065625,0.0314375,1.2696875,0.9762500000000001,-0.3311875,-0.51753125,1.2420625,0.017748568580962194,0.022390865719810187,True
64056,223324,1,223320,5010.0,45594.0,29047.0,0.000549,-0.00122,-0.0023179999999999997,0.56,-1.9075000000000002,-3.8325000000000005,1.009125,0.1019375,0.02434375,1.26496875,0.9735312500000001,-0.333,-0.518375,1.23959375,0.017874388690256034,0.022135184326041186,True
64057,223325,1,223321,5011.0,45595.0,29050.0,0.005856,0.000549,-0.003843,0.35000000000000003,-2.0650000000000004,-3.7625,1.0119375,0.09753125,0.02384375,1.270125,0.980875,-0.33128125,-0.51840625,1.24503125,0.017623917770462665,0.022116037823624854,True
64058,223326,1,223322,5013.0,45595.0,29051.0,0.007503,0.0013419999999999999,-0.0028669999999999998,0.42000000000000004,-1.7675,-3.8150000000000004,1.0103125,0.097375,0.02240625,1.2656875,0.97396875,-0.32978125,-0.5201250000000001,1.24003125,0.01755692932915293,0.022125957759187607,True
64059,223327,1,223323,5015.0,45596.0,29051.0,0.0034159999999999998,0.002379,-0.002562,0.5075000000000001,-1.4875,-3.99,1.0101875,0.095375,0.03053125,1.271375,0.9743125,-0.3320625,-0.5151875,1.246125,0.017566842103911247,0.02226043549534345,True
64060,223328,1,223324,5016.0,45596.0,29047.0,-0.00061,0.001098,-0.000305,0.45500000000000007,-1.0675000000000001,-3.8850000000000002,1.0188125000000001,0.0974375,0.0275,1.2729375,0.98165625,-0.33075,-0.51596875,1.247,0.017598614921447143,0.022167949206575815,True
64061,223329,1,223325,5017.0,45594.0,29046.0,-0.0059169999999999995,-0.0006709999999999999,0.0040869999999999995,0.385,-0.5950000000000001,-3.9550000000000005,1.00990625,0.09734375,0.0223125,1.26503125,0.9733125,-0.3311875,-0.519375,1.23971875,0.017612426438290366,0.022092222986923607,True
64062,223330,1,223326,5019.0,45588.0,29039.0,-0.00549,-0.0025009999999999998,0.001098,0.28,-0.8925000000000001,-3.9725000000000006,1.017125,0.0961875,0.02709375,1.27246875,0.9711875,-0.325875,-0.51603125,1.24821875,0.0173503522483775,0.022153871255160846,True
64063,223331,1,223327,5018.0,45584.0,29032.0,-0.004392,-0.0026839999999999998,-6.1e-05,0.22750000000000004,-0.9800000000000001,-3.8500000000000005,1.009875,0.09468750000000001,0.0310625,1.26503125,0.97265625,-0.3280625,-0.51603125,1.24684375,0.01737705170726193,0.02231575512451674,True
64064,223332,1,223328,5019.0,45581.0,29022.0,-0.002745,-0.001647,0.000183,0.31500000000000006,-1.1025,-3.9550000000000005,1.01025,0.09790625,0.0263125,1.26428125,0.97403125,-0.332125,-0.51653125,1.2401875,0.01767339474049225,0.022141947588935524,True
64065,223333,1,223329,5014.0,45578.0,29011.0,-0.0011589999999999999,-0.000366,-0.001281,0.3325,-1.4000000000000001,-4.025,1.01559375,0.09796875000000001,0.0249375,1.2644375,0.97796875,-0.3309375,-0.51396875,1.23571875,0.017628019882094555,0.021983639430069844,True
64066,223334,1,223330,5011.0,45573.0,29001.0,0.004575,0.00061,-0.000366,0.22750000000000004,-1.6800000000000002,-4.095000000000001,1.0105625,0.09946875000000001,0.02646875,1.27003125,0.97115625,-0.33025,-0.51734375,1.2435,0.017661912639615293,0.022180726653963076,True
64067,223335,1,223331,5005.0,45569.0,28994.0,0.004148,0.000488,0.000915,0.14,-1.8025000000000002,-4.165,1.01015625,0.09628125,0.0265,1.268375,0.97421875,-0.332125,-0.51703125,1.2455625000000001,0.01760661060223881,0.022169537757553745,True
64068,223336,1,223332,5000.0,45567.0,28989.0,0.0025009999999999998,-0.00042699999999999997,0.00122,0.14,-1.7500000000000002,-4.1825,1.01015625,0.09565625,0.02696875,1.26796875,0.97421875,-0.3343125,-0.5165625,1.24584375,0.01766923762485585,0.02216996163307968,True
64069,223337,1,223333,4994.0,45565.0,28984.0,0.001464,0.00042699999999999997,0.0017079999999999999,0.12250000000000001,-1.6275000000000002,-4.1475,1.01,0.098,0.027,1.26465625,0.97475,-0.3355625,-0.51675,1.244375,0.017816004869416927,0.02217871455229588,True
64070,223338,1,223334,4989.0,45564.0,28984.0,-0.0008539999999999999,0.0008539999999999999,0.000793,0.15750000000000003,-1.5925000000000002,-4.130000000000001,1.0130625,0.10178125,0.02453125,1.26225,0.9751875,-0.33171875,-0.51975,1.2384375,0.01781625065019297,0.022197667186655657,True
64071,223339,1,223335,4987.0,45562.0,28979.0,-0.000976,0.000488,-0.000976,0.36750000000000005,-1.8200000000000003,-4.0600000000000005,1.014,0.09815625,0.025562500000000002,1.2654375,0.98090625,-0.33125,-0.5195,1.23859375,0.017648343180066785,0.022229755908562573,True
64072,223340,1,223336,4982.0,45559.0,28979.0,-0.000122,0.000244,-0.000366,0.28,-1.7500000000000002,-4.077500000000001,1.0144375,0.0984375,0.0328125,1.2673125,0.98053125,-0.3305625,-0.52059375,1.23725,0.017632144756209396,0.02256903954456649,True
64073,223341,1,223337,4979.0,45562.0,28980.0,0.000122,-0.000915,0.000305,0.29750000000000004,-1.7325000000000002,-4.077500000000001,1.00575,0.09453125,0.026875,1.26875,0.9635625,-0.33290625,-0.5135,1.25003125,0.017566232968986184,0.022043975768454113,True
64074,223342,1,223338,4976.0,45560.0,28979.0,-0.000122,-0.002379,-0.001586,0.21000000000000002,-1.8550000000000002,-3.9375000000000004,1.01278125,0.0983125,0.015,1.2645,0.97115625,-0.33121875,-0.5209375,1.238375,0.017653503279608632,0.02185632176583787,True
64075,223343,1,223339,4974.0,45560.0,28980.0,0.00042699999999999997,-0.0017079999999999999,-0.0013419999999999999,0.3325,-1.9075000000000002,-3.8675,1.0016875,0.08753125,0.030625,1.2535,0.9792500000000001,-0.33446875,-0.515,1.24265625,0.017341656575099878,0.02225678156230879,True
64076,223344,1,223340,4974.0,45560.0,28979.0,0.0008539999999999999,0.000549,-0.000732,0.28,-1.8550000000000002,-4.0600000000000005,1.0083125,0.09915625,0.02290625,1.24459375,0.97190625,-0.33037500000000003,-0.5221250000000001,1.23778125,0.017654115483217995,0.022226101938555492,True
64077,223345,1,223341,4969.0,45560.0,28977.0,0.0,-0.000122,0.000732,0.29750000000000004,-1.8025000000000002,-4.0075,1.01815625,0.10125,0.0243125,1.26103125,0.9741562500000001,-0.3299375,-0.52196875,1.23734375,0.017722507507468937,0.022277218259647277,True
64078,223346,1,223342,4968.0,45561.0,28980.0,-0.0017079999999999999,-0.000183,0.002623,0.22750000000000004,-1.5925000000000002,-3.8850000000000002,1.004375,0.089875,0.033125,1.27009375,0.97796875,-0.3325,-0.5143125000000001,1.24078125,0.01735847118051988,0.02233134214961158,True
64079,223347,1,223343,4967.0,45558.0,28982.0,-0.001647,-0.000366,0.000549,0.35000000000000003,-1.6975000000000002,-3.9025000000000003,1.02265625,0.0975,0.02446875,1.2825312500000001,0.9800625000000001,-0.3308125,-0.51940625,1.24003125,0.01760370723336921,0.02218140987814499,True
64080,223348,1,223344,4967.0,45561.0,28984.0,6.1e-05,0.0015249999999999999,0.000732,0.35000000000000003,-1.7675,-3.8675,0.9976875000000001,0.0871875,0.02809375,1.27140625,0.9708125,-0.33071875,-0.5134375,1.247875,0.017176074997784438,0.022091199979603026,True
64081,223349,1,223345,4964.0,45561.0,28984.0,0.00366,0.001647,-0.000793,0.49000000000000005,-1.995,-3.9550000000000005,1.017625,0.1009375,0.029687500000000002,1.25034375,0.9755,-0.32971875,-0.5176875,1.2377500000000001,0.017700831416310556,0.022325718932505356,True
64082,223350,1,223346,4967.0,45560.0,28985.0,0.001769,0.000305,-0.0006709999999999999,0.385,-1.8025000000000002,-3.9725000000000006,1.0362500000000001,0.107875,0.0268125,1.267375,0.9821562500000001,-0.3306875,-0.51846875,1.238875,0.018025076356761396,0.022239612740905773,True
64083,223351,1,223347,4964.0,45566.0,28986.0,-0.00122,0.000366,-0.001281,0.2625,-1.6275000000000002,-3.9550000000000005,0.9970625000000001,0.09246875,0.02103125,1.257125,0.97059375,-0.33453125,-0.5161875,1.2398437500000001,0.017547081372278332,0.021912817806602272,True
64084,223352,1,223348,4966.0,45561.0,28987.0,-0.00183,6.1e-05,0.0011589999999999999,0.36750000000000005,-1.4875,-3.8850000000000002,0.9979687500000001,0.09381250000000001,0.01578125,1.2572812500000001,0.9746250000000001,-0.3278125,-0.5176875,1.2405,0.01733098691055762,0.02175852636999309,True
64085,223353,1,223349,4965.0,45562.0,28991.0,-0.00244,-0.000183,0.001769,0.49000000000000005,-1.1725,-3.9200000000000004,1.00234375,0.089,0.019875,1.25821875,0.97590625,-0.33371875,-0.51625,1.2340312500000001,0.01737172827313951,0.021868148676897976,True
64086,223354,1,223350,4965.0,45563.0,28990.0,-0.001647,0.000122,0.000488,0.31500000000000006,-1.3475000000000001,-4.0425,1.0004375,0.09571875,0.02671875,1.26053125,0.97371875,-0.3345625,-0.51646875,1.24025,0.01768189791782778,0.02215602522284128,True
64087,223355,1,223351,4966.0,45566.0,28994.0,0.0,0.001037,0.000244,0.43750000000000006,-1.4175000000000002,-4.095000000000001,0.99934375,0.09834375000000001,0.03,1.27190625,0.9722500000000001,-0.33240625,-0.51571875,1.2459375,0.01770272925638006,0.022259953116814085,True
64088,223356,1,223352,4967.0,45565.0,28993.0,0.001037,0.001647,-0.00042699999999999997,0.5075000000000001,-1.4875,-4.112500000000001,1.017125,0.098,0.03040625,1.27128125,0.9815625,-0.331125,-0.51596875,1.24053125,0.017636874579371072,0.02228649438949868,True
64089,223357,1,223353,4966.0,45564.0,28992.0,0.002623,0.00061,-0.0015249999999999999,0.43750000000000006,-1.5925000000000002,-4.165,1.01646875,0.09771875000000001,0.02365625,1.26575,0.98009375,-0.3309375,-0.5158125,1.2453750000000001,0.017617744897828125,0.022004930491290063,True
64090,223358,1,223354,4966.0,45562.0,28995.0,0.002379,-0.002013,-0.001586,0.43750000000000006,-1.5925000000000002,-4.112500000000001,1.0096875,0.097125,0.025812500000000002,1.2653125,0.97365625,-0.33415625,-0.5190625,1.24015625,0.017723287611420675,0.022222505448566802,True
64091,223359,1,223355,4968.0,45565.0,28994.0,0.0013419999999999999,-0.001647,-0.002074,0.35000000000000003,-1.5575,-4.0075,1.01865625,0.09790625,0.02434375,1.2643125,0.9825,-0.3226875,-0.5162187500000001,1.24396875,0.01729224001253973,0.02204917917857949,True
64092,223360,1,223356,4968.0,45566.0,28994.0,0.000488,-0.0006709999999999999,-0.000793,0.385,-1.4000000000000001,-3.99,1.00403125,0.09456250000000001,0.027,1.27003125,0.96015625,-0.33178125,-0.5158125,1.23925,0.017522093660939847,0.022141322054898244,True
64093,223361,1,223357,4968.0,45567.0,28996.0,-0.000732,-0.000305,-0.0008539999999999999,0.49000000000000005,-1.3475000000000001,-4.025,1.01021875,0.09740625,0.02340625,1.2655625,0.9755,-0.33065625,-0.51890625,1.24,0.017593545180270263,0.02211813587728857,True
64094,223362,1,223358,4968.0,45569.0,28997.0,-0.001769,0.000732,0.000366,0.28,-1.2950000000000002,-3.9375000000000004,1.015625,0.09518750000000001,0.02678125,1.264875,0.97278125,-0.33521875,-0.51671875,1.24009375,0.017686557676823842,0.022168545699044657,True
64095,223363,1,223359,4968.0,45571.0,28996.0,-0.001647,0.00042699999999999997,0.0006709999999999999,0.2625,-1.1725,-3.9025000000000003,1.0166875,0.09771875000000001,0.0273125,1.2734375,0.9806875,-0.33153125,-0.51171875,1.247,0.01764171747308341,0.02199075697211155,True
64096,223364,1,223360,4970.0,45569.0,28998.0,0.0,0.00061,0.002623,0.5075000000000001,-1.3475000000000001,-3.7800000000000002,1.01028125,0.0978125,0.026000000000000002,1.2645625,0.9744375000000001,-0.33103125,-0.51371875,1.2436875,0.017625383223327205,0.022017008333343958,True
64097,223365,1,223361,4969.0,45568.0,28998.0,-0.000183,0.00122,0.0017079999999999999,0.45500000000000007,-1.5050000000000001,-3.8150000000000004,1.0120625,0.09456250000000001,0.02640625,1.2707187500000001,0.9732500000000001,-0.33096875000000003,-0.51634375,1.24015625,0.017489285131731553,0.022138292949983616,True
64098,223366,1,223362,4973.0,45570.0,29000.0,0.001037,-0.000122,0.00122,0.36750000000000005,-1.5750000000000002,-3.8850000000000002,0.99940625,0.09790625,0.02484375,1.26584375,0.980875,-0.33071875,-0.51553125,1.23590625,0.017616618908966677,0.02204214930076215,True
64099,223367,1,223363,4973.0,45570.0,29002.0,0.00122,-6.1e-05,-6.1e-05,0.36750000000000005,-1.6275000000000002,-3.8500000000000005,1.00975,0.09521875,0.02371875,1.2650000000000001,0.96815625,-0.33075,-0.51690625,1.2399375000000001,0.017507423733341555,0.022051110139559307,True
64100,223368,1,223364,4972.0,45571.0,29006.0,0.000488,-0.001464,-0.001403,0.1925,-1.6975000000000002,-3.8500000000000005,1.01534375,0.0975625,0.035,1.26971875,0.97346875,-0.33353125,-0.51603125,1.239125,0.017716037412366936,0.022476364317735975,True
64101,223369,1,223365,4975.0,45573.0,29005.0,-0.00061,6.1e-05,-0.001586,0.49000000000000005,-1.6800000000000002,-3.7625,1.0065625,0.098125,0.02628125,1.2655625,0.9735312500000001,-0.3306875,-0.5185625,1.2397500000000001,0.01762434785289154,0.02222168408119359,True
64102,223370,1,223366,4975.0,45573.0,29007.0,-0.001037,-0.000915,-0.0008539999999999999,0.42000000000000004,-1.4700000000000002,-3.8500000000000005,1.009375,0.09459375,0.02675,1.2658125,0.9736250000000001,-0.3326875,-0.5161875,1.240375,0.017559969485491485,0.022146082052929318,True
64103,223371,1,223367,4976.0,45572.0,29009.0,-6.1e-05,-0.000122,-0.000244,0.3325,-1.4700000000000002,-3.8850000000000002,1.0171875,0.0980625,0.0240625,1.26515625,0.9783437500000001,-0.33125,-0.517875,1.23996875,0.01764449011045466,0.022103771228134575,True
64104,223372,1,223368,4977.0,45575.0,29011.0,0.00122,-0.000305,0.00061,0.29750000000000004,-1.5575,-3.8675,1.0176875,0.09765625,0.02703125,1.26925,0.9741562500000001,-0.33203125,-0.515875,1.244875,0.01765933536683256,0.022145089661290893,True
64105,223373,1,223369,4978.0,45575.0,29013.0,6.1e-05,-0.000244,0.002257,0.31500000000000006,-1.54,-3.8850000000000002,1.00203125,0.10503125,0.024,1.26440625,0.97284375,-0.3264375,-0.51928125,1.239875,0.017736618853459327,0.02215730732319081,True
64106,223374,1,223370,4980.0,45576.0,29012.0,-0.000976,0.001037,0.0008539999999999999,0.1925,-1.4525000000000001,-3.8675,1.0154375,0.09725,0.0275625,1.2710625,0.97475,-0.33403125,-0.51584375,1.2459375,0.01772337865309514,0.02216551286349262,True
64107,223375,1,223371,4981.0,45579.0,29015.0,0.000976,0.000183,0.00061,0.28,-1.6275000000000002,-3.7450000000000006,1.01015625,0.10003125,0.02603125,1.26475,0.9733125,-0.3309375,-0.5191250000000001,1.23940625,0.017712788502292607,0.022233919440436803,True
64108,223376,1,223372,4982.0,45577.0,29017.0,0.000183,0.0,-0.0011589999999999999,0.28,-1.5925000000000002,-3.8150000000000004,1.0159375,0.0979375,0.02425,1.2706875,0.9801875,-0.3311875,-0.5144062500000001,1.24790625,0.01763682927518437,0.021973049010722015,True
64109,223377,1,223373,4984.0,45579.0,29019.0,-0.000183,-0.000488,-0.002257,0.3325,-1.6800000000000002,-3.7625,0.998625,0.09493750000000001,0.02746875,1.26540625,0.9749375,-0.3299375,-0.52065625,1.235625,0.01746305349119783,0.022353602383704558,True
64110,223378,1,223374,4984.0,45581.0,29021.0,-0.001037,-0.000976,-0.000915,0.36750000000000005,-1.7325000000000002,-3.7275000000000005,1.01678125,0.097,0.02709375,1.2706875,0.9644375000000001,-0.3395625,-0.51471875,1.2358437500000001,0.017936333079117586,0.022101518093084385,True
64111,223379,1,223375,4988.0,45579.0,29022.0,0.000122,-0.001281,-0.00042699999999999997,0.4025,-1.7675,-3.7100000000000004,1.010375,0.09496875,0.02534375,1.2650000000000001,0.98521875,-0.32921875,-0.52334375,1.23678125,0.01743531119345951,0.02237408999333543,True
64112,223380,1,223376,4988.0,45584.0,29024.0,-0.000549,0.000183,-0.000122,0.4025,-1.8725000000000003,-3.5700000000000003,1.0169062500000001,0.09759375,0.02684375,1.27175,0.9697187500000001,-0.34015625,-0.51253125,1.2481875,0.01798468323308319,0.022004051499169428,True
64113,223381,1,223377,4989.0,45585.0,29026.0,-0.000915,0.0018909999999999999,0.00061,0.47250000000000003,-1.8200000000000003,-3.6400000000000006,1.01015625,0.09428125,0.025812500000000002,1.2706250000000001,0.9698125,-0.32778125,-0.52396875,1.2345,0.01734899272822095,0.02241811900857197,True
64114,223382,1,223378,4989.0,45585.0,29025.0,0.0,0.0026839999999999998,0.001281,0.5075000000000001,-1.8550000000000002,-3.7100000000000004,1.00934375,0.098375,0.0263125,1.26525,0.98909375,-0.32325,-0.517,1.23065625,0.017334237817725837,0.022160643635028756,True
64115,223383,1,223379,4992.0,45586.0,29028.0,6.1e-05,-0.00061,0.001098,0.4025,-1.9425000000000001,-3.7100000000000004,1.01625,0.10409375,0.02359375,1.2655,0.98153125,-0.3300625,-0.510875,1.249625,0.017844436281246708,0.021805372105238998,True
64116,223384,1,223380,4994.0,45584.0,29030.0,0.001403,-0.002196,0.0008539999999999999,0.15750000000000003,-2.0300000000000002,-3.7100000000000004,1.01665625,0.0984375,0.0283125,1.27034375,0.96665625,-0.33768750000000003,-0.51375,1.2545,0.017919738676897713,0.02211258987303044,True
64117,223385,1,223381,4995.0,45586.0,29031.0,0.00042699999999999997,-0.001098,0.000793,0.3325,-1.8200000000000003,-3.7625,1.011125,0.09434375,0.02621875,1.2705312500000001,0.97590625,-0.3291875,-0.524,1.2353125,0.01740835981472871,0.022435930109280702,True
64118,223386,1,223382,4997.0,45588.0,29033.0,0.0,0.00061,0.000488,0.4025,-1.7500000000000002,-3.7975000000000003,0.9990625000000001,0.0978125,0.025875000000000002,1.2650625,0.9929375,-0.32596875000000003,-0.5136875,1.25590625,0.01742094032740217,0.02201066241054105,True
64119,223387,1,223383,5000.0,45588.0,29035.0,-0.000244,-0.000122,0.000122,0.385,-1.6625,-3.7100000000000004,0.99621875,0.095875,0.02646875,1.2706250000000001,0.9668125000000001,-0.32775,-0.51746875,1.23325,0.01741324207951824,0.022185711973223176,True
64120,223388,1,223384,5001.0,45589.0,29037.0,-0.000244,-0.0011589999999999999,-0.0037819999999999998,0.31500000000000006,-1.8550000000000002,-3.6050000000000004,1.01040625,0.09803125,0.025906250000000002,1.26565625,0.98971875,-0.32875,-0.5224375,1.2360625,0.01754225967219853,0.022360899074572015,True
64121,223389,1,223385,5002.0,45589.0,29038.0,0.004575,0.000305,-0.002806,0.35000000000000003,-1.995,-3.6225000000000005,1.01565625,0.099,0.02315625,1.2650625,0.97409375,-0.33178125,-0.51453125,1.2409375,0.01770446830726789,0.02193341959169625,True
64122,223390,1,223386,5004.0,45590.0,29040.0,0.004026,0.002257,-0.0008539999999999999,0.525,-1.8375000000000001,-3.7450000000000006,1.01846875,0.09853125,0.02353125,1.26525,0.974875,-0.33134375,-0.5161250000000001,1.23009375,0.017667540453864167,0.022012298028338494,True
64123,223391,1,223387,5006.0,45593.0,29041.0,0.0025009999999999998,0.002989,0.0015249999999999999,0.47250000000000003,-1.33,-3.6400000000000006,1.0174375,0.0975625,0.02403125,1.2549375,0.97496875,-0.33071875,-0.5154375,1.24078125,0.017602490678578907,0.022005267089359508,True
64124,223392,1,223388,5006.0,45588.0,29038.0,-0.002013,0.00061,0.0034159999999999998,0.45500000000000007,-0.9450000000000001,-3.6400000000000006,1.01609375,0.09846875000000001,0.02425,1.2584375,0.9781562500000001,-0.3319375,-0.5169375,1.24153125,0.017688942773258397,0.02207402535492045,True
64125,223393,1,223389,5007.0,45585.0,29031.0,-0.0044529999999999995,-0.000244,0.0028669999999999998,0.3325,-0.8925000000000001,-3.7625,1.0144375,0.098,0.02609375,1.2651875000000001,0.97584375,-0.3320625,-0.5160625,1.24309375,0.017674724450506406,0.02211432810631805,True
64126,223394,1,223390,5009.0,45580.0,29026.0,0.0,-0.0021349999999999997,0.003904,0.10500000000000001,-1.0675000000000001,-3.7975000000000003,1.01375,0.0973125,0.027,1.27015625,0.97409375,-0.33396875,-0.51640625,1.247625,0.017723424174283117,0.02216500430196616,True
64127,223395,1,223391,5010.0,45579.0,29019.0,0.002562,-0.004758,0.013115,-0.24500000000000002,-1.2425000000000002,-4.0425,1.009875,0.096375,0.0333125,1.2654375,0.972875,-0.33046875000000003,-0.51890625,1.240375,0.017543589249590597,0.022522160832520823,True
64128,223396,1,223392,5008.0,45583.0,29008.0,-0.008784,-0.0051849999999999995,0.003904,-0.7350000000000001,-2.1175,-4.83,1.015875,0.09815625,0.02825,1.2708125000000001,0.9803125,-0.33187500000000003,-0.515625,1.2490625,0.017673576327348388,0.02218483110261313,True
64129,223397,1,223393,5003.0,45588.0,29002.0,0.000122,0.000915,-0.006893,-0.7350000000000001,-4.2,-5.5125,1.01053125,0.099,0.02440625,1.26715625,0.97446875,-0.3305625,-0.5171875,1.24734375,0.017655263827131,0.02209037027595437,True
64130,223398,1,223394,4995.0,45587.0,28992.0,0.011041,0.007137,-0.012749,0.385,-4.69,-4.777500000000001,1.01075,0.09534375,0.02634375,1.26725,0.97409375,-0.33403125,-0.51646875,1.23275,0.01764504185881655,0.022140729382162754,True
64131,223399,1,223395,4990.0,45586.0,28986.0,-0.005856,0.0062829999999999995,-0.010309,0.6125,-3.4475000000000002,-4.375,1.01025,0.09834375000000001,0.0275625,1.27015625,0.9800625000000001,-0.33128125,-0.51590625,1.24578125,0.0176573109975456,0.022168005720775673,True
64132,223400,1,223396,4984.0,45587.0,28980.0,-0.013969,-0.004331,0.0042699999999999995,0.45500000000000007,-2.6775,-3.8150000000000004,1.008875,0.0984375,0.02471875,1.26459375,0.97421875,-0.33065625,-0.52025,1.23996875,0.017635929980310334,0.022225252597343013,True
64133,223401,1,223397,4978.0,45586.0,28978.0,-0.000122,-0.0075639999999999995,0.003538,0.31500000000000006,-2.7825,-3.8675,1.0209062500000001,0.09709375,0.028625,1.25484375,0.98171875,-0.33271875,-0.51603125,1.2484375,0.01766397353357812,0.022216330385857214,True
64134,223402,1,223398,4974.0,45585.0,28976.0,0.0055509999999999995,0.00042699999999999997,-0.004941,-0.22750000000000004,-2.6950000000000003,-4.795000000000001,1.00896875,0.09184375,0.02809375,1.2743125,0.973,-0.33209375,-0.5161250000000001,1.24678125,0.017422976598551042,0.02219840003263159,True
64135,223403,1,223399,4971.0,45586.0,28976.0,-0.0018909999999999999,-0.00042699999999999997,0.004148,0.6125,-1.54,-3.5700000000000003,1.0071875000000001,0.09381250000000001,0.02778125,1.27421875,0.97340625,-0.33396875,-0.51665625,1.243875,0.017579592313728108,0.022206841522281407,True
64136,223404,1,223400,4964.0,45585.0,28974.0,-0.000915,0.003477,0.000549,0.6475000000000001,-1.6625,-3.99,1.00984375,0.09871875000000001,0.0220625,1.26628125,0.97675,-0.32725,-0.51634375,1.241,0.017509942554131686,0.021961115225429973,True
64137,223405,1,223401,4963.0,45585.0,28972.0,6.1e-05,0.0030499999999999998,0.005978,0.2625,-1.5575,-4.4625,0.996625,0.09481250000000001,0.02746875,1.2690937500000001,0.972375,-0.33365625,-0.51653125,1.2398437500000001,0.01760807112576845,0.022189109644130428,True
64138,223406,1,223402,4960.0,45581.0,28973.0,0.0011589999999999999,-0.0018909999999999999,0.002562,0.08750000000000001,-1.4175000000000002,-4.0600000000000005,1.01815625,0.09903125,0.028375,1.27171875,0.97440625,-0.33040625,-0.51828125,1.24721875,0.017650239605020983,0.02229586341824022,True
64139,223407,1,223403,4959.0,45582.0,28976.0,-0.001586,-0.005856,0.0017079999999999999,0.15750000000000003,-1.2075,-3.6400000000000006,1.00725,0.09371875,0.02621875,1.2634375,0.97309375,-0.33371875,-0.5168125,1.23934375,0.017565646434538496,0.022149341395827863,True
64140,223408,1,223404,4956.0,45580.0,28974.0,0.008357,0.00183,0.000366,0.2625,-1.6800000000000002,-4.2875000000000005,1.0213125,0.099,0.02028125,1.26334375,0.9819687500000001,-0.33037500000000003,-0.516875,1.2403125,0.017647693469582778,0.021909654064802307,True
64141,223409,1,223405,4953.0,45580.0,28975.0,0.005673,0.002074,-0.001403,0.24500000000000002,-1.33,-4.095000000000001,1.0239375,0.09875,0.0238125,1.2660625,0.97959375,-0.33046875000000003,-0.51578125,1.231375,0.01764120348071798,0.022010057297276626,True
64142,223410,1,223406,4951.0,45579.0,28974.0,-0.0026839999999999998,-0.001403,0.001037,0.24500000000000002,-0.9450000000000001,-3.5000000000000004,1.0110000000000001,0.096375,0.02865625,1.26484375,0.97340625,-0.3343125,-0.5152187500000001,1.243625,0.017698774107548755,0.02218519873496948,True
64143,223411,1,223407,4951.0,45580.0,28975.0,-0.004941,-0.000732,0.000915,0.36750000000000005,-0.8925000000000001,-3.3775000000000004,1.0173125,0.09821875000000001,0.0243125,1.26325,0.9679375,-0.33115625,-0.515125,1.23971875,0.0176471268191375,0.02200427287235941,True
64144,223412,1,223408,4949.0,45579.0,28977.0,-0.000915,0.001586,-0.000244,0.47250000000000003,-1.1025,-3.4650000000000003,1.01084375,0.09684375,0.02446875,1.2630937500000001,0.9739375,-0.33240625,-0.5158125,1.241125,0.017641083072086224,0.02203807236655934,True
64145,223413,1,223409,4950.0,45578.0,28979.0,0.002623,0.001037,-0.000488,0.47250000000000003,-1.4000000000000001,-3.5000000000000004,1.01496875,0.09796875000000001,0.02496875,1.263625,0.9746250000000001,-0.33253125,-0.51584375,1.2406875,0.017692364003436756,0.02205971393499357,True
64146,223414,1,223410,4948.0,45577.0,28979.0,0.000366,-0.00061,0.000793,0.43750000000000006,-1.12,-3.5175000000000005,1.01421875,0.09828125,0.02653125,1.26928125,0.97796875,-0.323625,-0.51696875,1.2336875,0.017345533406307654,0.022168319645959493,True
64147,223415,1,223411,4946.0,45579.0,28980.0,-0.002745,-0.000915,0.0035989999999999998,0.3325,-0.9450000000000001,-3.4475000000000002,1.009875,0.09443750000000001,0.02671875,1.269125,0.97496875,-0.32853125,-0.51603125,1.24665625,0.01738570839536398,0.02213857514152092,True
64148,223416,1,223412,4947.0,45577.0,28981.0,-0.003294,-0.000793,0.002989,0.29750000000000004,-0.805,-3.5525,0.99646875,0.09493750000000001,0.0275625,1.2615625,0.97496875,-0.33271875,-0.51615625,1.25084375,0.017575358281737424,0.022177977022805113,True
64149,223417,1,223413,4948.0,45573.0,28982.0,-0.0018909999999999999,0.000549,0.0023179999999999997,0.43750000000000006,-0.9625000000000001,-3.5875000000000004,1.005125,0.09721875,0.029343750000000002,1.2650625,0.970875,-0.33490625,-0.5104062500000001,1.24315625,0.017757413797310193,0.022021258827564318,True
64150,223418,1,223414,4950.0,45575.0,28986.0,-0.000793,0.0006709999999999999,0.000183,0.5425000000000001,-1.225,-3.6400000000000006,1.01625,0.09859375000000001,0.025906250000000002,1.26584375,0.9742500000000001,-0.33240625,-0.51328125,1.23559375,0.017713003620429036,0.021995729355897636,True
64151,223419,1,223415,4949.0,45576.0,28986.0,0.000549,0.0006709999999999999,-0.0011589999999999999,0.5075000000000001,-1.3650000000000002,-3.5700000000000003,1.0068125,0.09840625,0.0265625,1.2731875,0.97271875,-0.3310625,-0.5204375,1.2291875,0.017651047914574218,0.022307921708166912,True
64152,223420,1,223416,4951.0,45576.0,28986.0,0.003294,0.00061,-0.00183,0.31500000000000006,-1.5925000000000002,-3.6050000000000004,1.00975,0.097375,0.02334375,1.26546875,0.981,-0.33475,-0.5104375,1.2432812500000001,0.017757527815161444,0.021777712046143607,True
64153,223421,1,223417,4953.0,45574.0,28988.0,0.003965,-0.001403,-0.00244,0.31500000000000006,-1.5925000000000002,-3.5175000000000005,1.009375,0.09496875,0.02740625,1.26521875,0.9863125,-0.3261875,-0.5201875,1.2594375,0.01731287527073447,0.022332363894036294,True
64154,223422,1,223418,4950.0,45574.0,28987.0,0.002745,-0.002074,-0.00244,0.24500000000000002,-1.4700000000000002,-3.5700000000000003,1.018125,0.09628125,0.02778125,1.26746875,0.96134375,-0.32984375,-0.52509375,1.24996875,0.01751449801234338,0.022543236965200185,True
64155,223423,1,223419,4951.0,45573.0,28991.0,-0.00042699999999999997,-0.000122,-0.001037,0.43750000000000006,-1.2425000000000002,-3.535,1.01621875,0.09778125,0.0305625,1.27128125,0.9480000000000001,-0.3443125,-0.5162187500000001,1.228875,0.018160042515063837,0.022302837789779473,True
64156,223424,1,223420,4952.0,45574.0,28992.0,-0.002379,0.000732,0.000915,0.49000000000000005,-1.155,-3.6050000000000004,1.01040625,0.0965625,0.0238125,1.2653125,0.976375,-0.33521875,-0.51096875,1.23396875,0.01774306014816489,0.021818038097739405,True
64157,223425,1,223421,4953.0,45574.0,28991.0,-0.003355,0.000732,6.1e-05,0.4025,-1.0675000000000001,-3.4650000000000003,1.01221875,0.09703125,0.02659375,1.27353125,0.9843125,-0.32759375,-0.51325,1.22925,0.01745445950650175,0.022022528632474274,True
64158,223426,1,223422,4954.0,45573.0,28992.0,-0.000915,0.0,0.00122,0.29750000000000004,-1.155,-3.4825000000000004,1.00934375,0.09406250000000001,0.02828125,1.2710625,0.9927812500000001,-0.32584375,-0.51853125,1.25425,0.01726173424097571,0.022302008812212195,True
64159,223427,1,223423,4955.0,45574.0,28996.0,-0.001403,-6.1e-05,0.001037,0.385,-1.155,-3.5525,1.016,0.09809375000000001,0.02396875,1.2553125,0.9396875,-0.3395625,-0.51159375,1.244125,0.017981270205657967,0.02184935445089122,True
64160,223428,1,223424,4955.0,45575.0,28995.0,0.000488,-0.000122,0.0008539999999999999,0.45500000000000007,-1.4525000000000001,-3.4650000000000003,1.01659375,0.10228125,0.02428125,1.25859375,0.97571875,-0.33178125,-0.5174375,1.238875,0.017839322799271015,0.022095243436431725,True
64161,223429,1,223425,4955.0,45576.0,28994.0,0.00183,0.00061,0.001281,0.35000000000000003,-1.61,-3.4825000000000004,1.016875,0.09784375000000001,0.02465625,1.26465625,0.97321875,-0.33409375,-0.5143125000000001,1.23159375,0.017750301467462704,0.021985880697245747,True
64162,223430,1,223426,4956.0,45575.0,28996.0,0.0025009999999999998,0.000976,-0.0008539999999999999,0.29750000000000004,-1.5750000000000002,-3.5525,1.01215625,0.095125,0.02653125,1.27240625,0.97678125,-0.32759375,-0.51753125,1.241,0.017376101982959167,0.02219075381009252,True
64163,223431,1,223427,4956.0,45576.0,28997.0,0.001464,0.00042699999999999997,-0.001586,0.2625,-1.5575,-3.6575,1.0100625,0.09815625,0.02440625,1.265625,0.96896875,-0.3348125,-0.5131875,1.24040625,0.017792154757715926,0.021930797453411557,True
64164,223432,1,223428,4958.0,45577.0,28998.0,0.000488,0.000488,-0.001464,0.42000000000000004,-1.5050000000000001,-3.6575,1.00734375,0.09615625,0.027375,1.2650625,0.97978125,-0.33396875,-0.513125,1.2434687500000001,0.017675908291778338,0.022049412304632726,True
64165,223433,1,223429,4960.0,45575.0,28999.0,-0.0008539999999999999,0.000122,-0.00061,0.385,-1.5575,-3.6575,1.0156875,0.0983125,0.02925,1.270875,0.97978125,-0.33103125,-0.516375,1.24865625,0.0176459331126789,0.022255533291524545,True
64166,223434,1,223430,4962.0,45578.0,29003.0,-0.000183,-0.000122,0.000183,0.3325,-1.6275000000000002,-3.6750000000000003,1.00940625,0.09771875000000001,0.027875,1.27034375,0.9738125,-0.33078125,-0.5191875,1.2366875,0.01761143613092983,0.022311608000876865,True
64167,223435,1,223431,4964.0,45579.0,29003.0,0.000366,-0.0011589999999999999,0.000122,0.21000000000000002,-1.6800000000000002,-3.5525,1.0105625,0.098875,0.027625,1.270125,0.9742500000000001,-0.33096875000000003,-0.5195625,1.24515625,0.017666528382681023,0.022316364739379018,True
64168,223436,1,223432,4965.0,45578.0,29005.0,-0.00061,-0.00122,0.000183,0.17500000000000002,-1.7500000000000002,-3.5000000000000004,1.01228125,0.098125,0.02534375,1.26590625,0.97346875,-0.3309375,-0.5179375,1.24009375,0.017634441747261073,0.022158521694575658,True
64169,223437,1,223433,4965.0,45578.0,29009.0,-0.0013419999999999999,-0.000305,0.0018909999999999999,0.35000000000000003,-1.6625,-3.5000000000000004,1.01009375,0.09578125,0.027125,1.270375,0.97571875,-0.33059375,-0.5123125000000001,1.24675,0.01752423325057573,0.022006797604265205,True
64170,223438,1,223434,4966.0,45579.0,29009.0,0.0011589999999999999,0.000915,0.00042699999999999997,0.385,-1.6975000000000002,-3.5000000000000004,1.0096875,0.09653125,0.027875,1.25834375,0.97378125,-0.3348125,-0.5165625,1.240375,0.017725377995002015,0.022206926440034164,True
64171,223439,1,223435,4968.0,45582.0,29010.0,0.00122,0.0011589999999999999,0.0006709999999999999,0.45500000000000007,-1.5750000000000002,-3.5525,1.01534375,0.09846875000000001,0.025687500000000002,1.2654375,0.982375,-0.33128125,-0.51659375,1.24034375,0.01766244841709682,0.022118947498569207,True
64172,223440,1,223436,4971.0,45582.0,29011.0,-0.000488,6.1e-05,-0.001037,0.35000000000000003,-1.5750000000000002,-3.5525,1.00965625,0.09878125,0.0246875,1.2653125,0.98028125,-0.33046875000000003,-0.51646875,1.24075,0.01764248787849597,0.022073172752499277,True
64173,223441,1,223437,4971.0,45583.0,29014.0,-0.000976,-0.000488,-0.001403,0.28,-1.5925000000000002,-3.5700000000000003,1.02434375,0.0985625,0.0194375,1.2572812500000001,0.97371875,-0.3311875,-0.51840625,1.2377500000000001,0.017662516471914906,0.021936325898017944,True
64174,223442,1,223438,4975.0,45582.0,29015.0,-0.0017079999999999999,0.000366,-0.00122,0.42000000000000004,-1.5575,-3.535,1.02746875,0.09925,0.02759375,1.268375,0.9798125,-0.33059375,-0.5170625,1.23809375,0.017666800671479712,0.0222153959105011,True
64175,223443,1,223439,4976.0,45586.0,29018.0,0.000305,-0.00042699999999999997,-0.001769,0.4025,-1.9075000000000002,-3.6575,1.00496875,0.093625,0.025906250000000002,1.25871875,0.97378125,-0.3329375,-0.5160625,1.2459375,0.01753025092017764,0.02210668005924687,True
64176,223444,1,223440,4975.0,45585.0,29018.0,-0.000244,-0.001037,0.0,0.31500000000000006,-1.8725000000000003,-3.5875000000000004,1.0050937500000001,0.09596875,0.02703125,1.27809375,0.97375,-0.33353125,-0.51459375,1.24821875,0.01765054136974057,0.022093982283512243,True
64177,223445,1,223441,4979.0,45585.0,29018.0,0.0,-0.0008539999999999999,0.001952,0.29750000000000004,-1.8900000000000001,-3.6050000000000004,1.0033125,0.08834375,0.03071875,1.2595625,0.974125,-0.33409375,-0.51525,1.23978125,0.017359902708519812,0.022270576477906607,True
64178,223446,1,223442,4981.0,45586.0,29019.0,-6.1e-05,-0.000122,0.001769,0.31500000000000006,-1.9250000000000003,-3.5875000000000004,1.0254375,0.1001875,0.0194375,1.26209375,0.98090625,-0.32609375,-0.51825,1.24075,0.01752362111158928,0.02193009288999011,True
64179,223447,1,223443,4984.0,45589.0,29022.0,0.000793,0.000488,0.002013,0.35000000000000003,-2.0650000000000004,-3.5700000000000003,1.00525,0.094125,0.029468750000000002,1.28175,0.97396875,-0.33321875,-0.5154375,1.24715625,0.017562154616310267,0.02222706610885488,True
64180,223448,1,223444,4984.0,45589.0,29024.0,0.00061,-0.00061,6.1e-05,0.22750000000000004,-2.45,-3.4475000000000002,1.00275,0.0903125,0.029781250000000002,1.28,0.97359375,-0.33403125,-0.516625,1.24396875,0.017438284090310768,0.022287172479898844,True
64181,223449,1,223445,4986.0,45590.0,29026.0,0.00183,-0.00183,-0.001098,0.21000000000000002,-2.5375,-3.3425000000000002,1.003625,0.0890625,0.027625,1.2638125,0.9735,-0.332125,-0.514375,1.2464375,0.01730993491115141,0.022109476582617343,True
64182,223450,1,223446,4988.0,45591.0,29028.0,0.002013,-0.000549,-0.001586,0.24500000000000002,-2.345,-3.4650000000000003,1.0269375,0.09965625,0.02440625,1.2625625,0.97496875,-0.33075,-0.51803125,1.2405625,0.017689806109552727,0.02212402351840546,True
64183,223451,1,223447,4989.0,45592.0,29028.0,0.0011589999999999999,0.001037,-0.000976,0.35000000000000003,-2.1525000000000003,-3.4825000000000004,1.01378125,0.1009375,0.03053125,1.27725,0.98175,-0.33103125,-0.5154375,1.24696875,0.017753820031775266,0.02227040614714708,True
64184,223452,1,223448,4991.0,45593.0,29030.0,-0.000366,0.000122,0.00042699999999999997,0.31500000000000006,-1.9075000000000002,-3.3775000000000004,0.99821875,0.09534375,0.029875000000000002,1.25971875,0.9733437500000001,-0.33271875,-0.5165,1.2398437500000001,0.017592053908895816,0.02228601146166867,True
64185,223453,1,223449,4992.0,45593.0,29032.0,-0.001037,0.000244,6.1e-05,0.3325,-1.7850000000000001,-3.3600000000000003,1.018,0.097375,0.029718750000000002,1.269625,0.97259375,-0.3314375,-0.51603125,1.247,0.0176238045943648,0.022260944050640337,True
64186,223454,1,223450,4995.0,45594.0,29033.0,-0.0011589999999999999,0.00122,-0.000366,0.47250000000000003,-1.7675,-3.3600000000000003,1.00715625,0.0989375,0.02428125,1.26390625,0.97390625,-0.32634375,-0.51915625,1.240875,0.017482333324341025,0.022163792850742978,True
64187,223455,1,223451,4999.0,45595.0,29038.0,0.0006709999999999999,0.001769,-0.00122,0.5075000000000001,-1.715,-3.325,1.01728125,0.09740625,0.02725,1.2649062500000001,0.97971875,-0.33121875,-0.51490625,1.24096875,0.01761625689218712,0.02211537113261447,True
64188,223456,1,223452,4999.0,45597.0,29039.0,0.000793,0.0032329999999999998,-0.0008539999999999999,0.5425000000000001,-1.5225000000000002,-3.4125000000000005,1.01503125,0.09753125,0.02778125,1.27009375,0.97371875,-0.3229375,-0.51590625,1.24628125,0.017286923094712553,0.022176928499226905,True
64189,223457,1,223453,5000.0,45597.0,29040.0,-0.001098,-0.0011589999999999999,-0.000366,0.45500000000000007,-1.155,-3.3775000000000004,1.0071875000000001,0.09415625,0.0274375,1.27359375,0.96915625,-0.33334375,-0.51584375,1.245625,0.017568485629929097,0.022160414119950494,True
64190,223458,1,223454,5002.0,45596.0,29041.0,-0.0008539999999999999,-0.0018909999999999999,0.000183,0.31500000000000006,-1.225,-3.3425000000000002,1.01078125,0.09503125,0.0271875,1.26953125,0.96903125,-0.3348125,-0.51575,1.24265625,0.01766373790634302,0.022146477264615605,True
64191,223459,1,223455,5005.0,45595.0,29038.0,-0.0008539999999999999,-0.0040869999999999995,0.000366,0.2625,-1.155,-3.43,1.009375,0.09593750000000001,0.0308125,1.26559375,0.96984375,-0.331,-0.513125,1.23934375,0.017547059307056842,0.022189643303332403,True
64192,223460,1,223456,5007.0,45591.0,29032.0,-0.001952,-0.002745,-0.001403,0.17500000000000002,-1.225,-3.5000000000000004,1.0155625,0.09784375000000001,0.02440625,1.26478125,0.982,-0.33,-0.51603125,1.23959375,0.01758502877106453,0.022044249107408036,True
64193,223461,1,223457,5007.0,45587.0,29025.0,-0.002745,-0.001098,-0.004331,0.15750000000000003,-1.4175000000000002,-3.43,1.01546875,0.10128125,0.0239375,1.26459375,0.9814375000000001,-0.3316875,-0.5175625,1.23925,0.01779443986365516,0.022086208610664296,True
64194,223462,1,223458,5007.0,45587.0,29019.0,0.0008539999999999999,0.0015249999999999999,0.003477,0.2625,-1.435,-3.4825000000000004,1.0140625,0.09690625,0.029125,1.265375,0.9724375000000001,-0.33265625,-0.5154375,1.24275,0.017653744646148117,0.022213044331760343,True
64195,223463,1,223459,5005.0,45584.0,29013.0,0.000793,6.1e-05,0.000793,0.052500000000000005,-1.6275000000000002,-3.43,1.01021875,0.097375,0.02684375,1.2731875,0.97396875,-0.33471875,-0.5159375,1.2477500000000001,0.017756266445446384,0.02213993448139603,True
64196,223464,1,223460,5003.0,45580.0,29001.0,0.001281,0.00042699999999999997,0.001647,0.21000000000000002,-1.6275000000000002,-3.3775000000000004,1.0090937500000001,0.09496875,0.02696875,1.27,0.9738125,-0.3336875,-0.51390625,1.24684375,0.01761575388029455,0.02206400703682221,True
64197,223465,1,223461,4999.0,45574.0,28993.0,0.001403,0.002379,0.0018909999999999999,0.21000000000000002,-1.8200000000000003,-3.5000000000000004,1.00971875,0.09696875,0.025,1.26540625,0.97390625,-0.33065625,-0.516,1.2397500000000001,0.01757556374995023,0.02206722140642846,True
64198,223466,1,223462,4994.0,45571.0,28987.0,0.001464,0.001403,-0.00061,0.17500000000000002,-1.9075000000000002,-3.5175000000000005,1.01878125,0.09759375,0.024375,1.26678125,0.98190625,-0.3304375,-0.51484375,1.2286875,0.01759241896081811,0.02199560215430702,True
64199,223467,1,223463,4989.0,45567.0,28982.0,0.000488,-0.000122,0.001281,0.1925,-1.9250000000000003,-3.4125000000000005,1.008875,0.09496875,0.0264375,1.27025,0.973375,-0.334125,-0.5152187500000001,1.2435625000000001,0.01763341603612211,0.02209469372978775,True
64200,223468,1,223464,4986.0,45569.0,28982.0,-0.001037,-0.000488,-0.000488,0.14,-1.8025000000000002,-3.4475000000000002,1.0141875,0.09784375000000001,0.023,1.26565625,0.97990625,-0.3315625,-0.51490625,1.24046875,0.017648116515328598,0.02194200722264643,True
64201,223469,1,223465,4983.0,45566.0,28980.0,-0.00183,-0.00042699999999999997,-0.002379,0.3325,-1.6800000000000002,-3.3425000000000002,1.01246875,0.09578125,0.0274375,1.27234375,0.973875,-0.33337500000000003,-0.51653125,1.24725,0.017636528019643802,0.022187834993990026,True
64202,223470,1,223466,4979.0,45566.0,28980.0,-0.001464,-0.000305,0.00061,0.47250000000000003,-1.5050000000000001,-3.4125000000000005,1.01390625,0.0980625,0.02428125,1.26540625,0.9765625,-0.33065625,-0.51834375,1.24065625,0.017620517325750307,0.022131388870832682,True
64203,223471,1,223467,4976.0,45569.0,28981.0,-0.0011589999999999999,-0.0006709999999999999,0.0,0.35000000000000003,-1.4175000000000002,-3.4650000000000003,1.0161875,0.09771875000000001,0.02609375,1.26765625,0.97778125,-0.33109375,-0.51546875,1.24521875,0.017624053583698843,0.022090644299836204,True
64204,223472,1,223468,4974.0,45569.0,28981.0,0.0015249999999999999,-0.002196,-0.0017079999999999999,0.08750000000000001,-1.5050000000000001,-3.535,1.00965625,0.09465625,0.02725,1.26865625,0.974,-0.33196875000000003,-0.51665625,1.24378125,0.017533517504620337,0.022185172580375844,True
64205,223473,1,223469,4975.0,45570.0,28981.0,0.0026839999999999998,0.000244,0.000793,0.28,-1.33,-3.43,1.01,0.09721875,0.02640625,1.26853125,0.9685625,-0.3328125,-0.51528125,1.2452812500000001,0.01767289539587748,0.022095912116039867,True
64206,223474,1,223470,4973.0,45573.0,28984.0,-0.0008539999999999999,0.001098,0.0011589999999999999,0.42000000000000004,-1.0325000000000002,-3.43,1.01034375,0.09846875000000001,0.027375,1.26521875,0.9738125,-0.3299375,-0.51771875,1.24021875,0.017608193609210874,0.022232645522944506,True
64207,223475,1,223471,4974.0,45573.0,28984.0,-0.0018909999999999999,0.002074,-0.000488,0.5775,-0.9100000000000001,-3.4125000000000005,1.01371875,0.0978125,0.02821875,1.269125,0.97603125,-0.33403125,-0.51596875,1.2471875000000001,0.017746494428456033,0.022197266832459962,True
64208,223476,1,223472,4970.0,45572.0,28986.0,-0.003111,0.001769,-0.0008539999999999999,0.5425000000000001,-0.9450000000000001,-3.5700000000000003,1.00534375,0.097125,0.027375,1.2653125,0.9738125,-0.33209375,-0.51728125,1.24159375,0.01764002532663265,0.022215197698562113,True
64209,223477,1,223473,4971.0,45575.0,28987.0,0.0008539999999999999,-0.000122,-0.0025009999999999998,0.3325,-1.225,-3.4475000000000002,1.01325,0.09825,0.02534375,1.2652812500000001,0.984625,-0.33075,-0.51528125,1.24125,0.01763200887765482,0.022052571801516655,True
64210,223478,1,223474,4969.0,45577.0,28989.0,0.002257,-0.000488,-0.002196,0.31500000000000006,-1.2600000000000002,-3.535,1.0108125000000001,0.09659375,0.02765625,1.266875,0.9726875,-0.33575,-0.5155625,1.24003125,0.017765786959514297,0.02215811894995271,True
64211,223479,1,223475,4970.0,45576.0,28992.0,0.001647,-0.0006709999999999999,-0.0008539999999999999,0.43750000000000006,-1.2600000000000002,-3.5000000000000004,1.01496875,0.0985,0.02309375,1.26546875,0.98378125,-0.32971875,-0.51825,1.238375,0.017600645301335427,0.022079216501993414,True
64212,223480,1,223476,4970.0,45578.0,28998.0,0.000122,0.000488,0.000305,0.385,-1.12,-3.5525,1.0103125,0.09415625,0.02721875,1.28246875,0.97090625,-0.3323125,-0.5143125000000001,1.24753125,0.01752684830099893,0.022090411468810314,True
64213,223481,1,223477,4972.0,45578.0,28996.0,-0.000488,0.000976,0.00244,0.385,-1.0325000000000002,-3.535,1.01140625,0.10115625,0.02221875,1.26178125,0.97184375,-0.3296875,-0.520625,1.23509375,0.017708560786076685,0.02213825096220019,True
64214,223482,1,223478,4973.0,45582.0,28998.0,-0.001586,0.000488,0.002196,0.385,-0.9275000000000001,-3.7100000000000004,1.0010937500000001,0.08359375000000001,0.031656250000000004,1.2789375,0.9745312500000001,-0.33487500000000003,-0.515,1.251625,0.017196256401563602,0.02229884764429941,True
64215,223483,1,223479,4972.0,45581.0,29000.0,-0.00183,0.000732,0.0006709999999999999,0.4025,-0.9625000000000001,-3.7625,1.0170937500000001,0.10184375,0.0235,1.2618125,0.97109375,-0.322375,-0.51909375,1.23340625,0.01744150190925023,0.022129437389993258,True
64216,223484,1,223480,4973.0,45581.0,29002.0,-0.001647,0.0,-0.000244,0.525,-1.0150000000000001,-3.7975000000000003,1.004625,0.088875,0.033,1.28478125,0.9819375,-0.33259375,-0.515,1.2395625000000001,0.01732116001813411,0.022353661023862943,True
64217,223485,1,223481,4972.0,45580.0,29005.0,-0.001952,0.00042699999999999997,-0.0026839999999999998,0.49000000000000005,-1.2425000000000002,-3.6925000000000003,1.0008125,0.10334375,0.01946875,1.25434375,0.9712500000000001,-0.33437500000000003,-0.522875,1.22871875,0.017987671760626687,0.022115830627526343,True
64218,223486,1,223482,4974.0,45583.0,29004.0,-0.000915,-0.000976,-0.0021349999999999997,0.525,-1.2950000000000002,-3.6050000000000004,1.032125,0.09884375000000001,0.02403125,1.28190625,0.987375,-0.33071875,-0.51759375,1.24140625,0.017655150446387862,0.022091278839302897,True
64219,223487,1,223483,4974.0,45582.0,29005.0,0.00183,-0.001037,-0.0017079999999999999,0.3325,-1.4875,-3.6575,0.9968125,0.0883125,0.02421875,1.2566875,0.9707187500000001,-0.33021875,-0.51,1.24209375,0.017202116195523316,0.021795950632394936,True
64220,223488,1,223484,4976.0,45585.0,29007.0,0.002379,-0.0008539999999999999,0.000305,0.31500000000000006,-1.54,-3.7625,1.030125,0.10075,0.017968750000000002,1.25646875,0.980375,-0.32946875000000003,-0.5185625,1.2379375000000001,0.017683030995076704,0.021882655233152432,True
64221,223489,1,223485,4976.0,45582.0,29007.0,0.0018909999999999999,-0.000488,0.00061,0.35000000000000003,-1.33,-3.8325000000000005,1.01590625,0.08315625,0.0305,1.27315625,0.9783125,-0.33434375,-0.5146875,1.24465625,0.01715682182717584,0.022239218835646994,True
64222,223490,1,223486,4977.0,45586.0,29009.0,0.001037,0.000183,0.002806,0.3325,-1.2600000000000002,-3.7275000000000005,1.03059375,0.10025,0.031656250000000004,1.2789375,0.977125,-0.3290625,-0.518875,1.23896875,0.0176460765802217,0.022453365009609944,True
64223,223491,1,223487,4977.0,45585.0,29007.0,0.000366,0.001037,0.0013419999999999999,0.36750000000000005,-1.2425000000000002,-3.6925000000000003,1.03353125,0.09771875000000001,0.03225,1.27796875,0.9708125,-0.32478125,-0.51546875,1.2474687500000001,0.01736911817038437,0.022341761260428684,True
64224,223492,1,223488,4977.0,45583.0,29006.0,-0.000488,0.000305,0.001281,0.3325,-1.2775,-3.6925000000000003,1.01721875,0.101375,0.0204375,1.25765625,0.9740625,-0.33084375,-0.51834375,1.2413125,0.017764231871325874,0.021974618493551385,True
64225,223493,1,223489,4980.0,45586.0,29010.0,0.000122,-0.000244,-0.000488,0.43750000000000006,-1.3650000000000002,-3.5875000000000004,1.02165625,0.10075,0.02675,1.26159375,0.98321875,-0.33028125,-0.51334375,1.235,0.017715835076916757,0.022032642935544036,True
64226,223494,1,223490,4980.0,45587.0,29010.0,-0.001281,-0.000488,-0.000915,0.4025,-1.54,-3.6925000000000003,1.01075,0.0964375,0.0345625,1.27228125,0.972875,-0.3298125,-0.5160625,1.2445625,0.017519658238221113,0.022459764899033032,True
64227,223495,1,223491,4981.0,45587.0,29014.0,-0.002013,-0.000183,-0.0006709999999999999,0.43750000000000006,-1.4875,-3.6400000000000006,1.001125,0.09559375,0.02721875,1.26815625,0.973375,-0.33021875,-0.5166875,1.2405625,0.017501383952826154,0.02218514430222272,True
64228,223496,1,223492,4982.0,45590.0,29012.0,-0.00061,0.0008539999999999999,-0.000915,0.42000000000000004,-1.5050000000000001,-3.7625,1.0092812500000001,0.0965,0.0281875,1.2727187500000001,0.98065625,-0.33009375,-0.517625,1.24046875,0.017533584308527375,0.022262046181063627,True
64229,223497,1,223493,4982.0,45592.0,29015.0,0.000488,0.000793,0.000183,0.43750000000000006,-1.6275000000000002,-3.7100000000000004,1.01075,0.096625,0.02796875,1.27278125,0.9772500000000001,-0.33115625,-0.51475,1.2351875,0.017581624383345942,0.022138457459284718,True
64230,223498,1,223494,4985.0,45592.0,29016.0,0.00061,-0.000244,0.0,0.45500000000000007,-1.61,-3.7800000000000002,1.0103125,0.0986875,0.029906250000000002,1.26525,0.97671875,-0.33037500000000003,-0.516875,1.24046875,0.017634849442312337,0.022302240803528182,True
64231,223499,1,223495,4985.0,45594.0,29019.0,0.000244,-0.0015249999999999999,-0.00042699999999999997,0.29750000000000004,-1.6275000000000002,-3.7100000000000004,1.0089375,0.098375,0.03109375,1.27140625,0.9790625000000001,-0.331625,-0.5151875,1.24690625,0.017672473581193202,0.022283380455482955,True
64232,223500,1,223496,4986.0,45592.0,29019.0,0.0013419999999999999,0.0006709999999999999,0.0,0.4025,-1.6975000000000002,-3.6750000000000003,1.010625,0.09590625,0.0260625,1.2650625,0.9746875,-0.33009375,-0.51884375,1.240375,0.017509180374613232,0.022223978241225184,True
64233,223501,1,223497,4988.0,45596.0,29022.0,0.002013,0.000122,0.002196,0.31500000000000006,-1.8200000000000003,-3.8500000000000005,1.0121875,0.09815625,0.02628125,1.26521875,0.98,-0.33087500000000003,-0.5152187500000001,1.2464375,0.017633202669447772,0.022088320137873544,True
64234,223502,1,223498,4990.0,45598.0,29024.0,-0.000183,-0.000549,0.00183,0.35000000000000003,-1.5225000000000002,-3.8675,1.00571875,0.094,0.02803125,1.27175,0.97409375,-0.32746875000000003,-0.516,1.24090625,0.017324809018611935,0.02219086514929026,True
64235,223503,1,223499,4991.0,45597.0,29025.0,-0.000244,0.0013419999999999999,0.000122,0.36750000000000005,-1.54,-3.8850000000000002,1.01059375,0.098,0.02528125,1.265625,0.98040625,-0.33034375,-0.51434375,1.24678125,0.01760533079192521,0.02201262271195818,True
64236,223504,1,223500,4992.0,45598.0,29026.0,-0.000183,0.000244,0.0006709999999999999,0.45500000000000007,-1.6275000000000002,-3.8500000000000005,1.01015625,0.09481250000000001,0.02740625,1.26215625,0.9743125,-0.3325625,-0.5165,1.2411875,0.0175639125554491,0.022185313972222787,True
64237,223505,1,223501,4994.0,45603.0,29028.0,-0.000915,-0.0013419999999999999,-0.00042699999999999997,0.43750000000000006,-1.5575,-3.8850000000000002,1.01425,0.1009375,0.02459375,1.26546875,0.98109375,-0.3293125,-0.51765625,1.24040625,0.017684429019521206,0.022116714357637672,True
64238,223506,1,223502,4996.0,45602.0,29031.0,-0.006771,-0.000366,-0.00976,0.47250000000000003,-1.6975000000000002,-4.0075,1.01771875,0.09784375000000001,0.02828125,1.27303125,0.97859375,-0.33353125,-0.51628125,1.24721875,0.017727595537536295,0.02221227984974271,True
64239,223507,1,223503,4995.0,45601.0,29033.0,0.00488,0.002074,0.006039,0.5425000000000001,-1.6275000000000002,-4.095000000000001,1.01025,0.09459375,0.0269375,1.27334375,0.97403125,-0.32603125,-0.5162187500000001,1.241875,0.017291147728834725,0.022154976488778476,True
64240,223508,1,223504,5000.0,45603.0,29034.0,-0.001952,-0.000793,-0.001647,0.29750000000000004,-1.7675,-4.2525,1.00975,0.09834375000000001,0.02390625,1.2652812500000001,0.9806875,-0.33065625,-0.5173125000000001,1.238875,0.017632076816670325,0.02207496233528859,True
64241,223509,1,223505,4999.0,45605.0,29036.0,-0.000488,-0.002562,-0.0011589999999999999,0.0175,-1.7325000000000002,-3.8850000000000002,1.01503125,0.09531250000000001,0.0273125,1.27303125,0.97359375,-0.3335,-0.5159375,1.24540625,0.01762231080609037,0.022159054696562187,True
64242,223510,1,223506,5001.0,45605.0,29036.0,0.001769,-0.000915,0.0053679999999999995,0.385,-1.6450000000000002,-3.8325000000000005,1.000625,0.09568750000000001,0.02684375,1.26515625,0.97384375,-0.33021875,-0.51634375,1.24003125,0.017505237185752802,0.02215613818842787,True
64243,223511,1,223507,5003.0,45605.0,29039.0,0.00183,0.001403,-0.001403,0.47250000000000003,-1.8025000000000002,-4.165,1.016,0.0986875,0.026375,1.2658125,0.97765625,-0.331125,-0.5154375,1.24390625,0.017665130568356373,0.022100870115004067,True
64244,223512,1,223508,5004.0,45604.0,29039.0,0.0013419999999999999,-0.001952,0.001647,0.385,-1.9075000000000002,-3.7450000000000006,1.00953125,0.09740625,0.02728125,1.26553125,0.9703125,-0.3275,-0.5185,1.241625,0.017466087760764568,0.022259977160103594,True
64245,223513,1,223509,5006.0,45606.0,29043.0,0.000244,-0.002806,0.000976,0.22750000000000004,-1.8375000000000001,-3.8850000000000002,1.0158125,0.09809375000000001,0.025406250000000002,1.2651875000000001,0.9798125,-0.330125,-0.5154375,1.24321875,0.017600351416196997,0.022061354197737647,True
64246,223514,1,223510,5007.0,45605.0,29044.0,-0.00122,-0.002074,-0.00488,0.10500000000000001,-1.9250000000000003,-4.0425,1.0150937500000001,0.0976875,0.0239375,1.2654375,0.97371875,-0.33321875,-0.51459375,1.24015625,0.017708559415305466,0.02196778194621316,True
64247,223515,1,223511,5007.0,45608.0,29044.0,-0.0018909999999999999,-0.000488,-0.0035989999999999998,0.36750000000000005,-1.9775000000000003,-3.8675,1.0167187500000001,0.09753125,0.0323125,1.26571875,0.9743125,-0.331625,-0.5158125,1.2476875,0.017637796489137082,0.022358018931658903,True
64248,223516,1,223512,5011.0,45608.0,29043.0,-0.0017079999999999999,0.002379,0.001281,0.28,-1.715,-3.8325000000000005,1.0145,0.097875,0.0274375,1.2658125,0.97446875,-0.33646875,-0.516375,1.2625625,0.01784744345869817,0.022181603112205617,True
64249,223517,1,223513,5012.0,45610.0,29047.0,-0.001403,-0.000183,0.001586,0.2625,-1.8725000000000003,-3.6575,1.00246875,0.09540625,0.027125,1.262875,0.97121875,-0.33575,-0.516375,1.23815625,0.017716990435881368,0.022168856529564424,True
64250,223518,1,223514,5014.0,45610.0,29050.0,0.003294,0.00042699999999999997,0.002928,0.17500000000000002,-2.0300000000000002,-3.6225000000000005,1.00653125,0.09518750000000001,0.0275625,1.27353125,0.981875,-0.32828125,-0.51446875,1.2350625,0.017406439265001513,0.0221106667873437,True
64251,223519,1,223515,5016.0,45610.0,29052.0,0.0030499999999999998,0.001586,0.0037819999999999998,0.36750000000000005,-2.1,-3.7800000000000002,1.010375,0.09909375000000001,0.02503125,1.26596875,0.99203125,-0.32884375,-0.51484375,1.24453125,0.0175897179659432,0.0220223716498295,True
64252,223520,1,223516,5018.0,45614.0,29053.0,0.0018909999999999999,0.002196,0.00042699999999999997,0.5075000000000001,-2.1350000000000002,-3.9550000000000005,1.01825,0.10434375,0.025687500000000002,1.26596875,0.96334375,-0.33828125000000003,-0.513,1.2490937500000001,0.018186370494013417,0.02197558438379635,True
