frame_seq,absolute_seq_u64,segment_id,sample_seq,PPG_G,PPG_R,PPG_IR,ACC_X,ACC_Y,ACC_Z,GYRO_X,GYRO_Y,GYRO_Z,Uh1,Uh2,Uh3,Uh4,Uc1,Uc2,Uc3,Uc4,UD1,UD2,parser_valid
37502,160,0,161,5418.0,44705.0,30032.0,0.0006709999999999999,-0.000305,0.001403,0.42000000000000004,-1.5925000000000002,-3.4475000000000002,0.9765,0.10078125,0.11046875,1.234125,0.9466875,-0.32928125,-0.38275000000000003,1.21646875,0.01767674497165838,0.02022818385949083,True
37503,161,0,162,5419.0,44704.0,30029.0,0.00042699999999999997,-0.00042699999999999997,0.000305,0.17500000000000002,-1.4000000000000001,-3.5700000000000003,0.97909375,0.09653125,0.109,1.2412812500000001,0.94425,-0.338875,-0.3845,1.2263125,0.017889333422354155,0.0202382661116693,True
37504,162,0,163,5419.0,44705.0,30030.0,0.00042699999999999997,-0.001037,0.000488,0.15750000000000003,-1.3475000000000001,-3.5875000000000004,0.9841875,0.0963125,0.11006250000000001,1.238625,0.96115625,-0.33509375,-0.38071875,1.22359375,0.017727741443363046,0.020129892602120274,True
37505,163,0,164,5419.0,44705.0,30028.0,0.001586,-0.000793,-0.00061,0.1925,-1.2075,-3.43,0.9825625,0.09665625,0.10784375,1.24059375,0.9609062500000001,-0.34146875,-0.38259375,1.2325625,0.017999119301295243,0.020114246459115942,True
37506,164,0,165,5419.0,44705.0,30027.0,-0.000793,-0.0008539999999999999,-0.001098,0.28,-1.61,-3.4125000000000005,0.97765625,0.097375,0.10884375,1.23828125,0.95828125,-0.3399375,-0.3795625,1.2324375,0.017966870292908516,0.020033429640093012,True
37507,165,0,166,5418.0,44704.0,30030.0,-0.00122,0.000122,-0.001037,0.4025,-1.7325000000000002,-3.4650000000000003,0.97921875,0.10262500000000001,0.11159375,1.232625,0.9658125000000001,-0.33865625,-0.3796875,1.21890625,0.018130879760463358,0.02015125296417356,True
37508,166,0,167,5418.0,44704.0,30030.0,-0.000244,0.00183,-0.002074,0.29750000000000004,-1.9075000000000002,-3.535,0.9783125,0.09725,0.1144375,1.23953125,0.960875,-0.34178125,-0.3823125,1.22971875,0.018036118453738877,0.0203733751669371,True
37509,167,0,168,5418.0,44706.0,30029.0,-0.000244,0.000976,-0.0008539999999999999,0.3325,-1.8375000000000001,-3.5525,0.98528125,0.098,0.114125,1.23259375,0.95965625,-0.337625,-0.37140625,1.20978125,0.017899240373701216,0.01992216801195048,True
37510,168,0,169,5417.0,44705.0,30030.0,-0.0008539999999999999,0.00042699999999999997,0.0018909999999999999,0.35000000000000003,-1.8550000000000002,-3.5525,0.9766875,0.09959375000000001,0.11134375,1.23278125,0.94171875,-0.3314375,-0.37525000000000003,1.2099375,0.017714993205806273,0.019962615768043406,True
37511,169,0,170,5417.0,44705.0,30030.0,-0.001647,-0.000122,0.001403,0.31500000000000006,-1.5575,-3.5875000000000004,0.97728125,0.10040625,0.11043750000000001,1.23325,0.9418125,-0.33140625,-0.37209375,1.2091875,0.01774712466526673,0.019798514438259945,True
37512,170,0,171,5417.0,44704.0,30029.0,0.000183,-6.1e-05,0.000183,0.31500000000000006,-1.54,-3.5175000000000005,0.97790625,0.10053125,0.111,1.23321875,0.940875,-0.33065625,-0.378,1.2122187500000001,0.01772198396827048,0.020059069652965788,True
37513,171,0,172,5417.0,44703.0,30030.0,0.00061,-0.001037,0.00042699999999999997,0.3325,-1.5925000000000002,-3.535,0.97709375,0.10015625,0.111625,1.23284375,0.94471875,-0.33128125,-0.37646875,1.21346875,0.017731803581038298,0.020023152451070256,True
37514,172,0,173,5417.0,44702.0,30026.0,-0.000183,-0.0021349999999999997,-0.0011589999999999999,0.3325,-1.995,-3.43,0.97875,0.09665625,0.10821875,1.23940625,0.9465,-0.33990625,-0.3761875,1.2195625,0.01793607976612482,0.019872108794699746,True
37515,173,0,174,5414.0,44704.0,30028.0,0.0006709999999999999,0.001403,0.000732,0.5075000000000001,-2.0300000000000002,-3.7975000000000003,0.98265625,0.09690625,0.1123125,1.23240625,0.95359375,-0.33034375,-0.38040625,1.21921875,0.017560376638739435,0.02020962017398705,True
37516,174,0,175,5414.0,44702.0,30028.0,0.000488,0.0021349999999999997,-6.1e-05,0.4025,-2.0825,-3.6400000000000006,0.963125,0.09996875000000001,0.11190625,1.23340625,0.948375,-0.3329375,-0.377375,1.2149375,0.017790957215913616,0.020071121275362914,True
37517,175,0,176,5415.0,44706.0,30030.0,0.000488,0.0011589999999999999,0.00042699999999999997,0.1925,-1.995,-3.5525,0.9764375000000001,0.09990625,0.11071875,1.2370625,0.9485625,-0.33403125,-0.37890625,1.2158437500000001,0.017832536481188252,0.02008396090370133,True
37518,176,0,177,5414.0,44701.0,30029.0,0.000915,0.000305,-0.000122,0.21000000000000002,-2.0125,-3.5875000000000004,0.97909375,0.09853125,0.111,1.2285,0.94915625,-0.33384375,-0.37715625,1.20928125,0.01776846290467366,0.02002515162120274,True
37519,177,0,178,5414.0,44702.0,30028.0,0.001464,-0.000244,-0.000305,0.21000000000000002,-1.8725000000000003,-3.7975000000000003,0.981375,0.09884375000000001,0.10996875,1.2376875,0.9503125,-0.3334375,-0.37921875,1.22128125,0.01776490682830981,0.020065757849602954,True
37520,178,0,179,5416.0,44703.0,30029.0,-0.0011589999999999999,-0.003721,-0.000244,0.49000000000000005,-1.8550000000000002,-3.7800000000000002,0.98059375,0.09903125,0.109125,1.2368125,0.93759375,-0.33346875,-0.37853125,1.22190625,0.017773873689915252,0.020003512311677924,True
37521,179,0,180,5414.0,44703.0,30029.0,-0.002928,-0.0018909999999999999,-0.00042699999999999997,0.525,-1.9250000000000003,-3.8500000000000005,0.9824375000000001,0.0968125,0.109125,1.23840625,0.95275,-0.33437500000000003,-0.3745,1.22009375,0.01771927571593682,0.0198414326447722,True
37522,180,0,181,5415.0,44702.0,30030.0,-0.002196,0.001464,-0.001769,0.47250000000000003,-1.8375000000000001,-3.8150000000000004,0.98278125,0.09815625,0.10878125,1.23840625,0.95609375,-0.3368125,-0.373625,1.221125,0.01787287262865669,0.019792142120837585,True
37523,181,0,182,5416.0,44701.0,30030.0,-0.00122,0.000915,-0.000244,0.45500000000000007,-1.7500000000000002,-3.6575,0.98265625,0.098125,0.10921875,1.239125,0.95484375,-0.3369375,-0.38025000000000003,1.2218125,0.017876632998708238,0.020076445073368813,True
37524,182,0,183,5414.0,44703.0,30030.0,-0.000793,-0.00061,0.0006709999999999999,0.3325,-1.6275000000000002,-3.7275000000000005,0.98475,0.096375,0.10859375,1.241,0.95496875,-0.33646875,-0.3801875,1.21921875,0.017785807565035495,0.020048297413627354,True
37525,183,0,184,5413.0,44702.0,30030.0,0.00244,0.001586,0.0011589999999999999,0.24500000000000002,-1.7850000000000001,-3.5525,0.9887812500000001,0.09521875,0.10709375,1.24315625,0.95665625,-0.3369375,-0.37909375,1.22328125,0.017757215754858228,0.019942804477709512,True
37526,184,0,185,5414.0,44700.0,30029.0,0.005124,0.002806,0.001464,0.22750000000000004,-1.8725000000000003,-3.535,0.9853437500000001,0.09709375,0.1084375,1.239625,0.95596875,-0.33465625,-0.38090625,1.22140625,0.0177421861054643,0.020070777721808434,True
37527,185,0,186,5414.0,44702.0,30028.0,0.005673,0.0011589999999999999,0.000976,0.1925,-1.8550000000000002,-3.4475000000000002,0.98346875,0.096375,0.1075,1.243625,0.95665625,-0.33618750000000003,-0.38121875,1.2213125,0.01777445624956662,0.02004488598421685,True
37528,186,0,187,5415.0,44699.0,30029.0,0.003172,-0.000305,0.001464,0.24500000000000002,-1.7675,-3.4475000000000002,0.98678125,0.09609375,0.10915625,1.24515625,0.95703125,-0.33515625,-0.38003125,1.21278125,0.017721275161321392,0.02006508912903875,True
37529,187,0,188,5415.0,44704.0,30029.0,0.000793,-0.0006709999999999999,0.0013419999999999999,0.35000000000000003,-1.6800000000000002,-3.4650000000000003,0.9879375,0.10103125,0.11321875,1.2318125,0.95603125,-0.33521875,-0.3806875,1.22059375,0.017926693180023295,0.020258093624308172,True
37530,188,0,189,5415.0,44704.0,30029.0,-0.002989,0.0021349999999999997,-0.002013,0.49000000000000005,-1.0325000000000002,-3.4825000000000004,0.97478125,0.1010625,0.113,1.231125,0.953375,-0.33325,-0.3776875,1.21553125,0.01784852002917818,0.02012854992911038,True
37531,189,0,190,5415.0,44701.0,30028.0,-0.004026,0.001281,-0.000488,0.45500000000000007,-0.805,-3.2725000000000004,0.9741875,0.1005625,0.11253125,1.2296562500000001,0.94315625,-0.32971875,-0.37765625,1.2158437500000001,0.017685418167852844,0.020108065146746828,True
37532,190,0,191,5415.0,44706.0,30031.0,-0.006039,-0.002745,0.001647,0.4025,-0.665,-3.43,0.97396875,0.100625,0.11234375,1.231375,0.9484375,-0.33325,-0.3775,1.215875,0.017830540515549713,0.02009409291354733,True
37533,191,0,192,5415.0,44703.0,30030.0,-0.004148,-0.003538,0.001281,0.3325,-0.7350000000000001,-3.4125000000000005,0.97503125,0.10146875,0.112375,1.2311875,0.9484375,-0.333125,-0.37771875,1.21871875,0.017860170035702363,0.0201041678684557,True
37534,192,0,193,5415.0,44702.0,30032.0,-0.0011589999999999999,-0.001647,-0.001403,0.31500000000000006,-0.9625000000000001,-3.43,0.9831875,0.09834375000000001,0.11078125,1.2356562500000001,0.94778125,-0.3355,-0.37703125,1.22015625,0.017827607815742434,0.020011152916744115,True
37535,193,0,194,5414.0,44702.0,30031.0,0.000976,-0.000915,-0.0032329999999999998,0.43750000000000006,-1.3650000000000002,-3.5700000000000003,0.986,0.09615625,0.11328125,1.23934375,0.9529062500000001,-0.33546875,-0.379625,1.21853125,0.017736457203027987,0.02021795864374452,True
37536,194,0,195,5414.0,44703.0,30033.0,0.002013,0.000122,-0.00061,0.36750000000000005,-1.61,-3.6750000000000003,0.9855625,0.09646875,0.109,1.23803125,0.94215625,-0.333,-0.3800625,1.2195,0.017649642460855628,0.02005993626964656,True
37537,195,0,196,5413.0,44704.0,30032.0,0.002196,0.001037,0.000244,0.28,-1.61,-3.7450000000000006,0.98259375,0.09775,0.11378125,1.2381875,0.9486875,-0.335125,-0.37953125,1.21921875,0.0177880738233315,0.02023469995962289,True
37538,196,0,197,5413.0,44703.0,30031.0,0.0025009999999999998,0.001403,0.002806,0.24500000000000002,-1.61,-3.6750000000000003,0.97728125,0.100375,0.11140625,1.23284375,0.95240625,-0.3321875,-0.3775625,1.21628125,0.017777378215583783,0.020058147733187023,True
37539,197,0,198,5414.0,44701.0,30034.0,0.000366,0.0017079999999999999,0.002928,0.36750000000000005,-1.5050000000000001,-3.6225000000000005,0.9779375,0.10065625,0.111125,1.2300625,0.94846875,-0.33215625,-0.3774375,1.21625,0.01778767551683793,0.020041585585031243,True
37540,198,0,199,5412.0,44701.0,30033.0,6.1e-05,0.0008539999999999999,-0.000488,0.4025,-1.6450000000000002,-3.6750000000000003,0.9645625,0.100125,0.11065625,1.23328125,0.93740625,-0.333125,-0.377625,1.2093125,0.01780494696016233,0.020029894216520273,True
37541,199,0,200,5413.0,44703.0,30033.0,0.000732,-0.0017079999999999999,-0.002257,0.24500000000000002,-1.3650000000000002,-3.6575,0.9793437500000001,0.09890625,0.11609375,1.2390625,0.94946875,-0.3325625,-0.3803125,1.23240625,0.017732154186391177,0.02036094697309561,True
37542,200,0,201,5413.0,44702.0,30033.0,0.0,-0.002257,-6.1e-05,0.17500000000000002,-1.12,-3.5700000000000003,0.98290625,0.09709375,0.107625,1.23528125,0.9733125,-0.34309375000000003,-0.382,1.22659375,0.018082644076412843,0.02008141251743089,True
37543,201,0,202,5411.0,44704.0,30031.0,0.0,-0.0017079999999999999,-6.1e-05,0.24500000000000002,-1.2075,-3.5700000000000003,0.9833437500000001,0.1005,0.11234375,1.2338125,0.95253125,-0.3285,-0.37296875,1.19953125,0.017633639558542455,0.019911915736567795,True
37544,202,0,203,5413.0,44703.0,30034.0,-0.000122,-0.000915,-0.000915,0.1925,-1.0325000000000002,-3.6400000000000006,0.97690625,0.0996875,0.11018750000000001,1.2394687500000001,0.938875,-0.32903125,-0.38434375,1.22734375,0.0176216942464571,0.02028068727500612,True
37545,203,0,204,5413.0,44702.0,30033.0,-0.002257,6.1e-05,-0.000793,0.3325,-0.9800000000000001,-3.6400000000000006,0.9833125,0.096625,0.1120625,1.23253125,0.9629375,-0.33565625,-0.37146875,1.20409375,0.017763287151954243,0.019840053751376804,True
37546,204,0,205,5412.0,44702.0,30033.0,-0.001281,0.0008539999999999999,0.000793,0.3325,-1.1375000000000002,-3.6750000000000003,0.97690625,0.10071875,0.11156250000000001,1.23321875,0.936,-0.32584375,-0.37275,1.21253125,0.017535362982013726,0.01987106502138659,True
37547,205,0,206,5412.0,44701.0,30028.0,0.000122,0.000915,0.000305,0.35000000000000003,-1.1375000000000002,-3.5175000000000005,0.9770625000000001,0.0970625,0.108625,1.23921875,0.94125,-0.3454375,-0.37859375,1.2348125,0.018175890246375732,0.019985514956128263,True
37548,206,0,207,5414.0,44704.0,30031.0,0.000305,0.000488,0.001281,0.4025,-1.3825,-3.5525,0.97603125,0.098375,0.11834375,1.23296875,0.96765625,-0.3333125,-0.37065625,1.20446875,0.01774059738064844,0.02006511416778118,True
37549,207,0,208,5413.0,44704.0,30032.0,-0.002379,0.002379,-0.000488,0.525,-1.6975000000000002,-3.535,0.977375,0.10078125,0.116,1.23209375,0.9363125,-0.32934375,-0.37253125,1.20475,0.017679268475953035,0.02004433782395909,True
37550,208,0,209,5413.0,44705.0,30033.0,0.0018909999999999999,-6.1e-05,-0.000305,0.3325,-1.8900000000000001,-3.6225000000000005,0.9772500000000001,0.100125,0.1083125,1.2405625,0.9350937500000001,-0.3274375,-0.37096875,1.21771875,0.01757532004758002,0.019666072978736227,True
37551,209,0,210,5412.0,44703.0,30034.0,0.00061,-0.001037,-0.000244,0.35000000000000003,-1.9775000000000003,-3.5700000000000003,0.981375,0.09771875000000001,0.1090625,1.240375,0.96875,-0.338,-0.3844375,1.2344375,0.017902816583121046,0.0202383179845752,True
37552,210,0,211,5413.0,44703.0,30032.0,0.002562,-0.002196,0.00061,0.35000000000000003,-1.9600000000000002,-3.6400000000000006,0.9846875,0.0971875,0.10753125000000001,1.2398437500000001,0.96921875,-0.34065625,-0.38471875,1.23084375,0.017988165376601133,0.020186822946235538,True
37553,211,0,212,5413.0,44704.0,30032.0,0.001403,-0.000366,0.000793,0.47250000000000003,-1.7500000000000002,-3.7275000000000005,0.98459375,0.10046875,0.11125,1.23853125,0.96159375,-0.33875,-0.37890625,1.21534375,0.01804606851214627,0.020105752283287936,True
37554,212,0,213,5413.0,44702.0,30033.0,0.001647,0.000488,0.001098,0.385,-1.5750000000000002,-3.6575,0.9830625000000001,0.09746875,0.11146875,1.23834375,0.9518125000000001,-0.3325625,-0.37996875,1.21903125,0.017673076972472584,0.02015742944707425,True
37555,213,0,214,5413.0,44701.0,30033.0,-0.0021349999999999997,-0.001098,-0.0008539999999999999,0.35000000000000003,-1.4525000000000001,-3.6925000000000003,0.982125,0.09971875000000001,0.11,1.23309375,0.9546250000000001,-0.3368125,-0.38159375,1.2168125,0.017937075777692744,0.02016249450469168,True
37556,214,0,215,5412.0,44701.0,30029.0,-0.000976,0.001037,-0.001037,0.36750000000000005,-1.3125000000000002,-3.7275000000000005,0.9826875,0.09840625,0.1090625,1.23271875,0.95540625,-0.33546875,-0.378625,1.21915625,0.017828914842661497,0.020004717247178627,True
37557,215,0,216,5411.0,44702.0,30033.0,-0.000366,-0.000488,0.000305,0.31500000000000006,-1.2425000000000002,-3.8500000000000005,0.9762500000000001,0.10400000000000001,0.11146875,1.233625,0.9566875,-0.33440625,-0.38053125,1.22059375,0.018015900839988646,0.020180036068738246,True
37558,216,0,217,5413.0,44701.0,30032.0,-0.0028669999999999998,-0.000244,-0.000732,0.3325,-1.4700000000000002,-3.9375000000000004,0.980125,0.09765625,0.11409375000000001,1.2378125,0.95596875,-0.33575,-0.37946875,1.2122187500000001,0.017809447006975333,0.020245006364217843,True
37559,217,0,218,5412.0,44701.0,30032.0,6.1e-05,0.0008539999999999999,-0.001037,0.36750000000000005,-1.54,-3.9375000000000004,0.9821562500000001,0.0994375,0.11081250000000001,1.23496875,0.95596875,-0.33625,-0.376375,1.2219375000000001,0.01790281986748164,0.019986052068857653,True
37560,218,0,219,5411.0,44701.0,30030.0,-0.001098,0.00042699999999999997,0.001037,0.525,-1.6625,-3.8500000000000005,0.97528125,0.1009375,0.11121875,1.23971875,0.9511875000000001,-0.33496875,-0.3814375,1.2214375,0.01791275158304857,0.020206201951792218,True
37561,219,0,220,5409.0,44701.0,30032.0,0.0,0.000793,-0.000122,0.3325,-2.0300000000000002,-3.9200000000000004,0.9829375,0.099,0.11040625,1.23809375,0.95540625,-0.3319375,-0.38028125,1.223625,0.01771077621747138,0.02012640850892563,True
37562,220,0,221,5410.0,44702.0,30028.0,0.0023179999999999997,0.0011589999999999999,0.00061,0.1925,-2.205,-4.0425,0.97015625,0.09740625,0.10925,1.23675,0.9570000000000001,-0.336,-0.38009375,1.22259375,0.017809264053254437,0.02007144660795244,True
37563,221,0,222,5408.0,44699.0,30027.0,0.003904,-0.000305,0.000183,0.21000000000000002,-2.0650000000000004,-3.8675,0.97875,0.100625,0.11140625,1.233625,0.95503125,-0.3344375,-0.37875000000000003,1.21028125,0.0178784695557479,0.020105881146490284,True
37564,222,0,223,5409.0,44700.0,30027.0,0.0030499999999999998,-0.0021349999999999997,6.1e-05,0.07,-1.8900000000000001,-3.8500000000000005,0.979,0.09471875,0.109625,1.237125,0.9445,-0.33228125000000003,-0.3785,1.22346875,0.017548703946531935,0.020022765961810615,True
37565,223,0,224,5408.0,44699.0,30027.0,0.000976,0.000305,0.00122,0.24500000000000002,-1.3825,-3.8500000000000005,0.979,0.10803125,0.11375,1.22915625,0.95646875,-0.33440625,-0.380125,1.2235,0.018181561343827736,0.020257279238724165,True
37566,224,0,225,5407.0,44699.0,30026.0,-0.001281,0.00042699999999999997,-0.000488,0.22750000000000004,-1.2950000000000002,-3.8850000000000002,0.97684375,0.1053125,0.115,1.2280625,0.95403125,-0.33446875,-0.37371875,1.22034375,0.018072358781204133,0.020051053965657168,True
37567,225,0,226,5407.0,44700.0,30025.0,-0.002379,-0.000366,-0.00042699999999999997,0.28,-1.33,-3.8500000000000005,0.9705625,0.10187500000000001,0.11528125,1.2238125,0.953875,-0.33371875,-0.37921875,1.20903125,0.01790082948172482,0.02028366885218584,True
37568,226,0,227,5405.0,44699.0,30024.0,-0.001281,6.1e-05,-0.000366,0.22750000000000004,-1.2600000000000002,-3.7975000000000003,0.9713437500000001,0.1016875,0.1133125,1.22846875,0.9504375,-0.33425,-0.37759375,1.21509375,0.017914564862282583,0.020137600742485096,True
37569,227,0,228,5404.0,44703.0,30027.0,-0.0017079999999999999,-0.000976,-0.000915,0.35000000000000003,-1.4000000000000001,-3.8325000000000005,0.9726875,0.09796875000000001,0.10425,1.2473125,0.9480000000000001,-0.33265625,-0.37775000000000003,1.21453125,0.017697410244719994,0.019772128272707697,True
37570,228,0,229,5405.0,44699.0,30026.0,-0.0006709999999999999,0.0006709999999999999,0.001403,0.47250000000000003,-1.435,-3.7800000000000002,0.9939687500000001,0.093375,0.10784375,1.2490937500000001,0.9474375,-0.333,-0.37896875,1.21475,0.0175225003082234,0.019968543583288364,True
37571,229,0,230,5403.0,44699.0,30027.0,0.000244,0.000305,0.002074,0.4025,-1.6450000000000002,-3.8675,0.99265625,0.09703125,0.1043125,1.2477500000000001,0.94821875,-0.33303125,-0.37825000000000003,1.21509375,0.017674020781936077,0.019794796591223733,True
37572,230,0,231,5406.0,44698.0,30026.0,0.00061,-0.001586,-0.00061,0.3325,-1.8375000000000001,-3.7275000000000005,0.9829375,0.09675,0.10928125,1.231875,0.94828125,-0.3329375,-0.37771875,1.21571875,0.017658677666845608,0.019977258946758503,True
37573,231,0,232,5404.0,44699.0,30025.0,0.00122,0.000366,-0.00122,0.2625,-2.0650000000000004,-3.7800000000000002,0.9712500000000001,0.1024375,0.113375,1.2293125,0.94853125,-0.33240625,-0.3773125,1.21553125,0.01787097196768199,0.020128859569733128,True
37574,232,0,233,5402.0,44697.0,30025.0,0.001586,-0.000183,-0.000549,0.42000000000000004,-2.1525000000000003,-3.8500000000000005,0.97321875,0.1016875,0.112625,1.21753125,0.94046875,-0.32978125,-0.378125,1.21609375,0.017734181231078682,0.020130752467632355,True
37575,233,0,234,5402.0,44701.0,30025.0,-0.001281,0.000122,-0.00061,0.42000000000000004,-1.7850000000000001,-3.9025000000000003,0.97603125,0.09940625,0.11353125,1.22853125,0.94871875,-0.33237500000000003,-0.37778125,1.21634375,0.017745133798077666,0.02015411062071123,True
37576,234,0,235,5403.0,44696.0,30025.0,-0.00122,-0.00042699999999999997,-0.000183,0.385,-1.6625,-3.9200000000000004,0.970875,0.10134375,0.11284375,1.2305,0.94803125,-0.33271875,-0.37478125,1.2155,0.017838635479235133,0.020005307739941258,True
37577,235,0,236,5401.0,44696.0,30025.0,-0.00122,0.000366,0.00244,0.45500000000000007,-1.5050000000000001,-3.7975000000000003,0.9765312500000001,0.09840625,0.11,1.2385625,0.9540625,-0.3345625,-0.380375,1.2200312500000001,0.01779233754459321,0.020113513430371762,True
37578,236,0,237,5401.0,44698.0,30027.0,-0.002562,-0.000244,0.002745,0.385,-1.715,-3.7450000000000006,0.9832500000000001,0.09953125,0.11081250000000001,1.23340625,0.9483125,-0.33078125,-0.3775,1.215875,0.017685930245252605,0.02003127884319557,True
37579,237,0,238,5401.0,44698.0,30029.0,0.002196,-0.000183,-0.00061,0.42000000000000004,-2.1350000000000002,-3.7100000000000004,0.97196875,0.097375,0.10943750000000001,1.23759375,0.95559375,-0.33437500000000003,-0.3755,1.21609375,0.017742391164761784,0.019894463703308652,True
37580,238,0,239,5402.0,44701.0,30030.0,0.002928,0.000244,-0.0015249999999999999,0.17500000000000002,-2.2225,-3.6225000000000005,0.9776875,0.10059375,0.11190625,1.23740625,0.948625,-0.33034375,-0.376125,1.222,0.017711936355194323,0.020020870831602644,True
37581,239,0,240,5402.0,44698.0,30028.0,0.001769,-0.00061,-0.0011589999999999999,0.17500000000000002,-1.9250000000000003,-3.535,0.981,0.09946875000000001,0.11203125,1.23328125,0.94625,-0.33337500000000003,-0.3775625,1.21590625,0.01778806885604648,0.020083786063516403,True
37582,240,0,241,5401.0,44700.0,30030.0,0.001281,-0.00061,-0.00042699999999999997,0.22750000000000004,-1.7850000000000001,-3.5700000000000003,0.976625,0.0985,0.1071875,1.22909375,0.95378125,-0.33503125,-0.3818125,1.2153125,0.017815109647742904,0.02005593308536845,True
37583,241,0,242,5400.0,44698.0,30030.0,-0.000305,-0.000183,0.00042699999999999997,0.31500000000000006,-1.7675,-3.6050000000000004,0.9826875,0.10003125,0.11459375000000001,1.232875,0.9462812500000001,-0.3331875,-0.3779375,1.21746875,0.017803616973731864,0.020203975418347016,True
37584,242,0,243,5399.0,44698.0,30029.0,-0.000183,-6.1e-05,-0.000244,0.3325,-1.6450000000000002,-3.6225000000000005,0.9665312500000001,0.1046875,0.11040625,1.2398125,0.95459375,-0.3351875,-0.37953125,1.22215625,0.01807567745265986,0.020096264156022278,True
37585,243,0,244,5399.0,44699.0,30030.0,-0.0011589999999999999,0.0,-0.000183,0.385,-1.6625,-3.5875000000000004,0.98378125,0.098375,0.11103125,1.23371875,0.947375,-0.33303125,-0.378375,1.215375,0.017729244070238886,0.020075425453911513,True
37586,244,0,245,5398.0,44699.0,30033.0,-0.001098,-0.000549,0.000183,0.42000000000000004,-1.5925000000000002,-3.6400000000000006,0.9780625000000001,0.10003125,0.10956250000000001,1.23125,0.948375,-0.3351875,-0.3801875,1.22103125,0.01788433929263952,0.0200880325469195,True
37587,245,0,246,5398.0,44697.0,30032.0,-0.00061,0.000488,0.000244,0.4025,-1.61,-3.5700000000000003,0.9841562500000001,0.0995,0.11118750000000001,1.2337500000000001,0.9504375,-0.33303125,-0.3784375,1.21559375,0.017775477520911007,0.02008434707925805,True
37588,246,0,247,5400.0,44699.0,30032.0,-0.000793,0.00061,-6.1e-05,0.31500000000000006,-1.54,-3.5525,0.9772500000000001,0.10187500000000001,0.10959375,1.238375,0.9480937500000001,-0.33228125000000003,-0.3789375,1.2228125,0.017842809128305635,0.020039070611670422,True
37589,247,0,248,5398.0,44697.0,30032.0,-0.0011589999999999999,0.0006709999999999999,0.000305,0.3325,-1.4000000000000001,-3.5875000000000004,0.9781875,0.099875,0.114,1.2325,0.94734375,-0.33240625,-0.37746875,1.22240625,0.01776565973618002,0.020160778587809697,True
37590,248,0,249,5398.0,44698.0,30032.0,6.1e-05,-0.000549,-0.000244,0.35000000000000003,-1.435,-3.5175000000000005,0.983625,0.0995625,0.11109375,1.23040625,0.95640625,-0.33425,-0.37709375,1.2163125000000001,0.017827239384817693,0.020026484904501794,True
37591,249,0,250,5398.0,44698.0,30033.0,0.00061,-0.000183,0.000549,0.29750000000000004,-1.5750000000000002,-3.535,0.97690625,0.10271875,0.111125,1.24071875,0.95134375,-0.33659375,-0.37821875,1.219875,0.018051519637993712,0.020072990361529184,True
37592,250,0,251,5397.0,44699.0,30034.0,-0.000549,-0.000244,-0.000244,0.22750000000000004,-1.6275000000000002,-3.5700000000000003,0.9781875,0.09978125,0.11131250000000001,1.2383125,0.9395,-0.33275,-0.377375,1.2236875,0.017775682978701544,0.020046764674211234,True
37593,251,0,252,5397.0,44699.0,30032.0,0.000366,0.000122,-0.00042699999999999997,0.24500000000000002,-1.6625,-3.6225000000000005,0.9783125,0.098875,0.11121875,1.23240625,0.954125,-0.33225,-0.37784375000000003,1.215875,0.017718254579827186,0.020061762025199627,True
37594,252,0,253,5396.0,44697.0,30031.0,0.001403,0.001098,0.0006709999999999999,0.28,-1.6975000000000002,-3.6400000000000006,0.97671875,0.10028125,0.10943750000000001,1.2380625,0.94715625,-0.3354375,-0.37959375,1.221125,0.017904701733839797,0.020059040155252793,True
37595,253,0,254,5398.0,44696.0,30030.0,0.001281,-0.000488,0.00042699999999999997,0.28,-1.6450000000000002,-3.5875000000000004,0.98275,0.10040625,0.11325,1.2334375,0.9489375,-0.3319375,-0.3776875,1.219875,0.01776857062862339,0.020138805208656484,True
37596,254,0,255,5395.0,44698.0,30029.0,-0.000976,-0.00061,0.0011589999999999999,0.385,-1.54,-3.6400000000000006,0.9808125,0.099375,0.11221875,1.23675,0.95428125,-0.33387500000000003,-0.37690625,1.21921875,0.017804398189766327,0.02006509747314633,True
37597,255,0,256,5396.0,44694.0,30031.0,-0.000793,0.000549,-0.0008539999999999999,0.31500000000000006,-1.61,-3.6750000000000003,0.981125,0.10034375,0.11134375,1.2326875,0.95628125,-0.3330625,-0.37825000000000003,1.21496875,0.01781141399690236,0.020083219673274335,True
37598,256,0,257,5395.0,44697.0,30030.0,-0.000244,0.000732,6.1e-05,0.35000000000000003,-1.6275000000000002,-3.7275000000000005,0.97,0.1001875,0.11156250000000001,1.2349375,0.9485,-0.33290625,-0.3780625,1.22453125,0.01779868567898666,0.020084656030396185,True
37599,257,0,258,5394.0,44695.0,30030.0,-0.001281,-0.000915,0.000122,0.4025,-1.6275000000000002,-3.8150000000000004,0.9803125,0.09915625,0.11046875,1.23615625,0.95453125,-0.3365625,-0.38215625000000003,1.2268125,0.01790387405780911,0.02020432462776954,True
37600,258,0,259,5394.0,44696.0,30031.0,-0.000183,-6.1e-05,-0.0008539999999999999,0.28,-1.6800000000000002,-3.7275000000000005,0.97809375,0.09984375000000001,0.111625,1.23309375,0.95840625,-0.3355625,-0.37675000000000003,1.22134375,0.017891768476689204,0.02003445906447742,True
37601,259,0,260,5396.0,44694.0,30032.0,0.00183,0.000549,6.1e-05,0.24500000000000002,-1.6450000000000002,-3.7975000000000003,0.97884375,0.09775,0.10815625,1.23815625,0.9569062500000001,-0.33428125000000003,-0.3803125,1.22728125,0.017754017287853942,0.02003537690503352,True
37602,260,0,261,5396.0,44695.0,30032.0,0.000732,-0.000305,0.000549,0.31500000000000006,-1.5225000000000002,-3.7625,0.9785,0.1024375,0.11403125,1.24534375,0.943625,-0.33387500000000003,-0.37903125,1.22525,0.017930251552619552,0.02022486024747189,True
37603,261,0,262,5394.0,44693.0,30030.0,-0.000183,-0.000793,0.0,0.45500000000000007,-1.5575,-3.8500000000000005,0.9954375,0.0916875,0.09875,1.25275,0.953375,-0.33903125,-0.378625,1.2135625,0.01769662668887037,0.019581703233878037,True
37604,262,0,263,5395.0,44695.0,30031.0,-6.1e-05,0.00042699999999999997,-0.000488,0.31500000000000006,-1.5750000000000002,-3.8675,0.9775625,0.0971875,0.10615625000000001,1.23490625,0.9343750000000001,-0.3318125,-0.37640625,1.212875,0.017631238938735038,0.019796293803562615,True
37605,263,0,264,5394.0,44694.0,30029.0,0.00122,0.000793,-0.000244,0.28,-1.4875,-3.8675,0.981375,0.0975625,0.11153125,1.23521875,0.9453125,-0.33215625,-0.37634375000000003,1.21334375,0.01766052895538183,0.020014281263981602,True
37606,264,0,265,5392.0,44694.0,30032.0,-0.0008539999999999999,-0.0006709999999999999,-0.000549,0.28,-1.5925000000000002,-3.9200000000000004,0.97609375,0.09571875,0.108,1.24584375,0.9458125000000001,-0.33215625,-0.37653125,1.21009375,0.017584754741988805,0.01987695644760778,True
37607,265,0,266,5395.0,44691.0,30032.0,-0.0006709999999999999,-0.000244,6.1e-05,0.29750000000000004,-1.6450000000000002,-3.9375000000000004,0.9960625000000001,0.09821875000000001,0.100875,1.24590625,0.9500000000000001,-0.3336875,-0.378125,1.213125,0.017749313580196182,0.01964876297910524,True
37608,266,0,267,5394.0,44691.0,30030.0,-0.00122,0.000305,0.000915,0.43750000000000006,-1.6975000000000002,-3.9025000000000003,0.9986875000000001,0.08965625,0.10690625000000001,1.24325,0.9452812500000001,-0.33271875,-0.37740625,1.20884375,0.017358315128678335,0.019867269513137806,True
37609,267,0,268,5395.0,44690.0,30032.0,0.001464,0.0,-6.1e-05,0.22750000000000004,-1.8200000000000003,-3.9550000000000005,0.992,0.09556250000000001,0.10975,1.235625,0.9452812500000001,-0.3325,-0.377,1.2121875,0.01759221206205692,0.019967592402674653,True
37610,268,0,269,5395.0,44690.0,30031.0,0.001952,-0.000732,6.1e-05,0.2625,-1.7850000000000001,-3.8150000000000004,0.98165625,0.09575,0.10146875,1.2366875,0.94484375,-0.33190625,-0.37709375,1.21309375,0.017575945164592273,0.019631647025191427,True
37611,269,0,270,5393.0,44690.0,30029.0,0.0013419999999999999,-0.000915,0.000122,0.3325,-1.7850000000000001,-3.7975000000000003,1.00078125,0.091625,0.10928125,1.24121875,0.94875,-0.332625,-0.38203125,1.22090625,0.017435439045314676,0.020150597584030247,True
37612,270,0,271,5395.0,44689.0,30031.0,0.001098,0.000244,-0.0013419999999999999,0.36750000000000005,-1.6800000000000002,-3.8150000000000004,0.9965937500000001,0.09821875000000001,0.1085625,1.24446875,0.95584375,-0.3359375,-0.380375,1.2230625,0.017840128410914927,0.02005455207313259,True
37613,271,0,272,5394.0,44688.0,30030.0,-0.000122,0.000793,0.000122,0.385,-1.6450000000000002,-3.8500000000000005,0.99121875,0.09796875000000001,0.11075,1.23940625,0.9565,-0.330125,-0.37940625,1.22225,0.01759521375249819,0.020105339932140472,True
37614,272,0,273,5396.0,44688.0,30031.0,-0.00122,0.0,0.000549,0.3325,-1.7325000000000002,-3.8325000000000005,0.9801562500000001,0.096375,0.11328125,1.2337500000000001,0.95478125,-0.33578125000000003,-0.3806875,1.22025,0.01775805944179417,0.020260657128721247,True
37615,273,0,274,5395.0,44690.0,30030.0,0.000244,-6.1e-05,0.000549,0.29750000000000004,-1.6800000000000002,-3.6575,0.98021875,0.09946875000000001,0.109625,1.23540625,0.95375,-0.3365,-0.374625,1.2160312500000001,0.017914192673556182,0.019866972312394548,True
37616,274,0,275,5394.0,44690.0,30033.0,0.00042699999999999997,0.000244,0.001281,0.24500000000000002,-1.6450000000000002,-3.6225000000000005,0.9783437500000001,0.10109375,0.11065625,1.232375,0.9480000000000001,-0.33275,-0.37871875,1.2154375,0.01782962262793971,0.02007386052640687,True
37617,275,0,276,5395.0,44691.0,30031.0,-0.001403,0.000549,0.0008539999999999999,0.36750000000000005,-1.6450000000000002,-3.6575,0.977,0.1,0.10840625,1.23875,0.94721875,-0.33275,-0.3783125,1.22015625,0.017784672920241235,0.019965235493638045,True
37618,276,0,277,5393.0,44691.0,30031.0,-0.001098,0.00042699999999999997,-0.000915,0.3325,-1.4875,-3.6575,0.9832500000000001,0.0965,0.10940625,1.2375625000000001,0.9431875000000001,-0.33387500000000003,-0.379,1.21771875,0.01768625013484289,0.020033891874153983,True
37619,277,0,278,5394.0,44689.0,30030.0,0.00061,-0.0011589999999999999,0.000244,0.24500000000000002,-1.5925000000000002,-3.7275000000000005,0.98409375,0.09628125,0.1088125,1.23484375,0.95609375,-0.336,-0.38121875,1.2155625,0.01776303624260355,0.02009871840389439,True
37620,278,0,279,5393.0,44688.0,30031.0,0.000915,-0.0011589999999999999,0.000732,0.22750000000000004,-1.6800000000000002,-3.7800000000000002,0.97728125,0.10003125,0.11028125,1.23434375,0.9393125,-0.33337500000000003,-0.37815625,1.21709375,0.01781118525481977,0.02003586715053564,True
37621,279,0,280,5396.0,44690.0,30029.0,0.00183,-0.0006709999999999999,-0.000183,0.31500000000000006,-1.7500000000000002,-3.6400000000000006,0.9771562500000001,0.09946875000000001,0.1141875,1.2338125,0.94834375,-0.33434375,-0.37475,1.21553125,0.017827170703956216,0.020059180094154815,True
37622,280,0,281,5394.0,44690.0,30032.0,0.002196,0.000366,-0.001769,0.31500000000000006,-1.6975000000000002,-3.6750000000000003,0.97684375,0.1003125,0.11084375,1.2336562500000001,0.9480625,-0.3330625,-0.378,1.21553125,0.01781012973603302,0.020052660185413077,True
37623,281,0,282,5395.0,44691.0,30032.0,0.0015249999999999999,-0.000183,6.1e-05,0.29750000000000004,-1.5925000000000002,-3.5700000000000003,0.9830625000000001,0.09796875000000001,0.10921875,1.2394687500000001,0.9499375,-0.336375,-0.37996875,1.221125,0.01784751221165847,0.020065140567499702,True
37624,282,0,283,5395.0,44689.0,30034.0,0.0008539999999999999,-0.000183,0.000732,0.29750000000000004,-1.54,-3.5700000000000003,0.9775312500000001,0.099,0.10803125,1.2403125,0.9525625,-0.3364375,-0.37965625000000003,1.2235625,0.017892409273132112,0.020003871055400958,True
37625,283,0,284,5396.0,44692.0,30031.0,-0.000122,-0.000244,0.00042699999999999997,0.42000000000000004,-1.5050000000000001,-3.4825000000000004,0.98475,0.0975625,0.10753125000000001,1.240625,0.9438125,-0.33496875,-0.380625,1.2180625,0.01777406227406805,0.02002230254556641,True
37626,284,0,285,5396.0,44691.0,30032.0,-0.000915,0.000793,-0.0006709999999999999,0.4025,-1.33,-3.5175000000000005,0.9859687500000001,0.09640625,0.1148125,1.2351875,0.952875,-0.33571875,-0.37925000000000003,1.22159375,0.017756820928085386,0.020265697263041317,True
37627,285,0,286,5392.0,44692.0,30031.0,-0.0023179999999999997,0.001464,-0.0011589999999999999,0.4025,-1.2775,-3.4825000000000004,0.98353125,0.0968125,0.10834375,1.23771875,0.95503125,-0.33484375,-0.3799375,1.2145000000000001,0.017738196901305354,0.020027994329353798,True
37628,286,0,287,5395.0,44692.0,30033.0,-0.001769,-6.1e-05,-0.0011589999999999999,0.43750000000000006,-1.1900000000000002,-3.535,0.9830625000000001,0.0988125,0.115,1.23053125,0.9559375,-0.33609375,-0.376875,1.20546875,0.01787083229000135,0.02017793503063867,True
37629,287,0,288,5395.0,44692.0,30033.0,-0.00183,0.0,0.000732,0.36750000000000005,-1.5050000000000001,-3.5175000000000005,0.97728125,0.100375,0.11140625,1.2328125,0.94871875,-0.33290625,-0.3773125,1.21559375,0.01780639129368281,0.020048098000958883,True
37630,288,0,289,5395.0,44695.0,30033.0,-0.000244,0.0,0.000366,0.2625,-1.4000000000000001,-3.5700000000000003,0.9771562500000001,0.09984375000000001,0.10765625000000001,1.24046875,0.9490625,-0.33315625,-0.37809375,1.22334375,0.017794650046682705,0.019925676100084732,True
37631,289,0,290,5395.0,44690.0,30033.0,-0.000915,0.000122,0.000976,0.21000000000000002,-1.2950000000000002,-3.6575,0.9830625000000001,0.09775,0.11275,1.241125,0.95340625,-0.33490625,-0.379125,1.22071875,0.017779244577940383,0.020176072767172735,True
37632,290,0,291,5396.0,44690.0,30033.0,0.000305,-0.00042699999999999997,0.001281,0.31500000000000006,-1.2950000000000002,-3.5875000000000004,0.98290625,0.1048125,0.11175,1.23359375,0.9547187500000001,-0.3348125,-0.377125,1.21409375,0.018065682651140214,0.020054661901270147,True
37633,291,0,292,5398.0,44688.0,30029.0,0.000793,0.00042699999999999997,0.0011589999999999999,0.28,-1.4000000000000001,-3.6575,0.97690625,0.1008125,0.1121875,1.2335,0.94846875,-0.33287500000000003,-0.3776875,1.2164375,0.017823109681860447,0.02009522027058555,True
37634,292,0,293,5394.0,44690.0,30028.0,0.002806,-0.000976,-0.001769,0.12250000000000001,-1.4000000000000001,-3.5175000000000005,0.97784375,0.0995625,0.11134375,1.22640625,0.94903125,-0.3323125,-0.3776875,1.21525,0.01774903227960762,0.02006060870211746,True
37635,293,0,294,5394.0,44688.0,30028.0,0.0013419999999999999,-0.001769,-0.00061,0.24500000000000002,-1.2075,-3.535,0.9658125000000001,0.0976875,0.10878125,1.23653125,0.9493125,-0.3333125,-0.3805,1.22303125,0.01771234393180131,0.020068548635179755,True
37636,294,0,295,5394.0,44689.0,30027.0,-0.000549,-0.00061,0.000366,0.28,-0.9625000000000001,-3.5700000000000003,0.977,0.1008125,0.11093750000000001,1.23503125,0.94784375,-0.3325,-0.37709375,1.21509375,0.017807972875783416,0.020020075198668833,True
37637,295,0,296,5394.0,44686.0,30027.0,-0.0018909999999999999,0.00061,-0.001037,0.29750000000000004,-1.0325000000000002,-3.6225000000000005,0.97759375,0.0966875,0.1194375,1.2338437500000001,0.9526875,-0.33725,-0.37825000000000003,1.2158125,0.017830178019291414,0.02041522668772369,True
37638,296,0,297,5393.0,44688.0,30027.0,-0.001403,0.001647,0.000366,0.35000000000000003,-1.225,-3.6400000000000006,0.97290625,0.10034375,0.11090625,1.233875,0.94653125,-0.33225,-0.37896875,1.21265625,0.017778616856229904,0.02009416415532343,True
37639,297,0,298,5393.0,44690.0,30028.0,-0.0017079999999999999,0.000366,0.000488,0.43750000000000006,-1.3650000000000002,-3.8325000000000005,0.9773437500000001,0.1044375,0.11509375000000001,1.2415,0.94725,-0.32975,-0.3845,1.232375,0.01784594991728234,0.020488168713732085,True
37640,298,0,299,5392.0,44689.0,30028.0,-0.002745,-0.00061,0.001647,0.28,-1.4525000000000001,-3.8850000000000002,0.98471875,0.09709375,0.110125,1.2336562500000001,0.9644375000000001,-0.3351875,-0.379375,1.2091875,0.01776362931249246,0.02007844745814854,True
37641,299,0,300,5391.0,44687.0,30028.0,0.000122,-0.001464,0.000366,0.29750000000000004,-1.5225000000000002,-3.7975000000000003,0.977125,0.10028125,0.10996875,1.23940625,0.94140625,-0.3325,-0.382,1.23178125,0.01778613993629919,0.020177538758100237,True
37642,300,0,301,5391.0,44688.0,30026.0,0.0013419999999999999,0.000915,-0.000366,0.36750000000000005,-1.6800000000000002,-3.8150000000000004,0.98365625,0.10109375,0.11065625,1.22484375,0.9596875,-0.3300625,-0.37478125,1.2053125,0.017721132035727404,0.01991556334479925,True
37643,301,0,302,5390.0,44686.0,30027.0,0.002623,-0.0006709999999999999,0.000366,0.28,-1.8725000000000003,-3.9200000000000004,0.97659375,0.0974375,0.1095,1.2381875,0.94465625,-0.33965625,-0.38406250000000003,1.22046875,0.017958090513295562,0.020241192377193098,True
37644,302,0,303,5390.0,44687.0,30028.0,0.0,0.0,0.000488,0.31500000000000006,-1.7325000000000002,-3.8850000000000002,0.9671875,0.1,0.11181250000000001,1.23646875,0.941875,-0.33071875,-0.3753125,1.22478125,0.017702672675873995,0.019984359174882376,True
37645,303,0,304,5389.0,44687.0,30029.0,0.000915,-0.000976,-0.0008539999999999999,0.29750000000000004,-1.7325000000000002,-3.9550000000000005,0.9843125,0.10221875,0.1120625,1.233375,0.95896875,-0.3318125,-0.37721875,1.20953125,0.01783801556090406,0.02007124992468634,True
37646,304,0,305,5390.0,44687.0,30027.0,0.000976,-0.000793,-0.001403,0.43750000000000006,-1.8200000000000003,-3.9025000000000003,0.97109375,0.09615625,0.10953125,1.235,0.94821875,-0.340875,-0.37965625000000003,1.218625,0.01795462365260082,0.020065397763760512,True
37647,305,0,306,5389.0,44687.0,30031.0,0.0017079999999999999,0.000793,-0.000549,0.43750000000000006,-1.715,-3.8850000000000002,0.9773125,0.10165625,0.108,1.2399375000000001,0.92990625,-0.33296875,-0.3855,1.22425,0.017861568987549044,0.02023743618133727,True
37648,306,0,307,5387.0,44689.0,30028.0,-0.00183,-0.000488,0.000976,0.35000000000000003,-1.2075,-3.7800000000000002,0.981625,0.100375,0.11221875,1.23290625,0.95515625,-0.33015625,-0.37528125,1.20946875,0.017695375466402933,0.019999769233431924,True
37649,307,0,308,5388.0,44687.0,30029.0,-0.002257,-0.00122,0.000793,0.49000000000000005,-1.0325000000000002,-3.7450000000000006,0.9782500000000001,0.09696875,0.111625,1.24009375,0.95028125,-0.33859375,-0.382,1.2235625,0.017895959991525805,0.02024546796817324,True
37650,308,0,309,5388.0,44687.0,30029.0,-0.002623,-0.000122,0.000366,0.525,-1.155,-3.7275000000000005,0.9849375,0.0970625,0.10934375,1.239125,0.95334375,-0.334,-0.37609375,1.2184375,0.017714411933919618,0.01991449101642875,True
37651,309,0,310,5387.0,44689.0,30031.0,-0.002074,0.0008539999999999999,-0.001586,0.5075000000000001,-1.6800000000000002,-3.8325000000000005,0.9813125,0.10015625,0.11156250000000001,1.22178125,0.9449062500000001,-0.334125,-0.37675000000000003,1.2158437500000001,0.01784659403204348,0.02003189514598952,True
37652,310,0,311,5387.0,44689.0,30032.0,0.0013419999999999999,0.000305,-0.001647,0.385,-1.9425000000000001,-3.7450000000000006,0.97028125,0.1004375,0.11140625,1.23284375,0.94740625,-0.3319375,-0.373875,1.2154375,0.017769854948871212,0.01990989327712561,True
37653,311,0,312,5386.0,44688.0,30032.0,0.000122,-0.000366,0.0017079999999999999,0.45500000000000007,-2.3625000000000003,-3.8675,0.97678125,0.09915625,0.10846875,1.2405625,0.94821875,-0.3334375,-0.3784375,1.22359375,0.017777749239087162,0.019972824345284638,True
37654,312,0,313,5385.0,44687.0,30033.0,-0.000366,-0.000793,0.003355,0.525,-2.3975000000000004,-3.8500000000000005,0.98284375,0.10084375,0.11340625,1.23359375,0.9567187500000001,-0.3345625,-0.37796875,1.20359375,0.01789250371770604,0.020156519398278415,True
37655,313,0,314,5387.0,44687.0,30034.0,-0.001281,0.001464,0.000915,0.665,-2.8875,-3.8500000000000005,0.9771875,0.0995625,0.110125,1.23953125,0.9475625,-0.33346875,-0.3775625,1.22328125,0.017795705760199107,0.020005589156011805,True
37656,314,0,315,5385.0,44688.0,30037.0,0.001464,0.002745,-6.1e-05,0.47250000000000003,-3.0100000000000002,-3.8325000000000005,0.9842500000000001,0.10171875,0.10871875,1.24021875,0.9500937500000001,-0.33503125,-0.37946875,1.22034375,0.017947377815674674,0.020024533963645126,True
37657,315,0,316,5385.0,44690.0,30037.0,0.00549,0.00061,0.000244,0.385,-2.9225000000000003,-3.8325000000000005,0.98109375,0.1005,0.11093750000000001,1.22478125,0.95103125,-0.3325625,-0.3774375,1.21559375,0.01779765283660527,0.02003389404649279,True
37658,316,0,317,5384.0,44689.0,30036.0,0.0048189999999999995,-0.0034159999999999998,-0.00183,0.1925,-2.31,-3.5525,0.97709375,0.1,0.11178125,1.23396875,0.94759375,-0.3324375,-0.3775625,1.21546875,0.0177720583891359,0.02007353073138465,True
37659,317,0,318,5384.0,44688.0,30039.0,0.003721,-0.000122,-0.00183,0.15750000000000003,-1.6450000000000002,-3.43,0.9820625000000001,0.098875,0.10896875,1.24028125,0.94815625,-0.33487500000000003,-0.3815,1.22271875,0.017824213191972426,0.020116430490330784,True
37660,318,0,319,5386.0,44687.0,30038.0,0.002379,0.0011589999999999999,-0.000244,0.1925,-0.8225000000000001,-3.4125000000000005,0.9779375,0.101,0.11096875,1.22284375,0.9561875,-0.3329375,-0.37684375000000003,1.21571875,0.017833338042314045,0.020011306837046945,True
37661,319,0,320,5386.0,44688.0,30039.0,-0.002745,0.000305,-0.000305,0.31500000000000006,-0.29750000000000004,-3.1325000000000003,0.98746875,0.10021875,0.11265625,1.23334375,0.95159375,-0.33553125,-0.37290625,1.2217500000000001,0.017905916888500226,0.019922224088479396,True
37662,320,0,321,5383.0,44687.0,30039.0,-0.006222,0.000305,0.001464,0.42000000000000004,0.21000000000000002,-3.0100000000000002,0.97528125,0.101125,0.11168750000000001,1.2313125,0.94653125,-0.33328125000000003,-0.379375,1.2217500000000001,0.017852349855200893,0.02014253851872741,True
37663,321,0,322,5384.0,44686.0,30041.0,-0.0057339999999999995,0.001464,0.000793,0.42000000000000004,0.052500000000000005,-3.0625000000000004,0.975125,0.10165625,0.1128125,1.23065625,0.95115625,-0.33225,-0.3780625,1.216625,0.017832557613866373,0.02013593163935813,True
37664,322,0,323,5385.0,44689.0,30042.0,-0.004331,0.001464,-0.001098,0.4025,-0.08750000000000001,-3.2025,0.977625,0.10215625,0.11415625,1.2353125,0.95446875,-0.33537500000000003,-0.37890625,1.2239375000000001,0.017979227770272704,0.020224963948085244,True
37665,323,0,324,5384.0,44688.0,30040.0,-0.003172,0.000366,-0.000732,0.4025,-0.385,-3.3600000000000003,0.97403125,0.10228125,0.11284375,1.2418437500000001,0.95653125,-0.32959375,-0.3804375,1.22165625,0.017751015674069774,0.020232666046292237,True
37666,324,0,325,5384.0,44690.0,30043.0,-0.002196,0.000305,-0.001098,0.43750000000000006,-0.6300000000000001,-3.43,0.987625,0.0983125,0.112125,1.2313125,0.95453125,-0.3345625,-0.3769375,1.2160312500000001,0.017788484999473487,0.02006250785193997,True
37667,325,0,326,5383.0,44688.0,30044.0,-0.002013,-0.000122,0.000122,0.47250000000000003,-0.8225000000000001,-3.7275000000000005,0.9746250000000001,0.10178125,0.111375,1.2425625,0.94871875,-0.3325,-0.3794375,1.22225,0.01784778588307819,0.020132232337189894,True
37668,326,0,327,5383.0,44688.0,30043.0,0.0006709999999999999,0.000244,6.1e-05,0.36750000000000005,-1.1725,-4.1475,0.9898125,0.09565625,0.10534375,1.233125,0.9533125,-0.33621875,-0.377125,1.21571875,0.017746183350690007,0.01979186429900983,True
37669,327,0,328,5382.0,44686.0,30043.0,0.0025009999999999998,-0.0013419999999999999,-0.000488,0.36750000000000005,-1.1375000000000002,-4.112500000000001,0.974375,0.1026875,0.12046875,1.2384375,0.9479062500000001,-0.33228125000000003,-0.37740625,1.22103125,0.01787620098300483,0.020423624847290718,True
37670,328,0,329,5381.0,44686.0,30043.0,0.002806,-0.001464,-0.000366,0.3325,-1.2775,-4.2700000000000005,0.983375,0.09659375,0.10696875,1.2423125,0.9520937500000001,-0.32565625,-0.37465625,1.2195,0.017358216183787436,0.019759253015106625,True
37671,329,0,330,5381.0,44685.0,30042.0,0.002745,0.001098,-0.00183,0.31500000000000006,-1.2950000000000002,-4.41,0.9886875,0.0993125,0.11081250000000001,1.2296875,0.94953125,-0.33337500000000003,-0.3748125,1.21634375,0.01778164763416501,0.01992323017869368,True
37672,330,0,331,5380.0,44687.0,30043.0,0.0023179999999999997,0.0013419999999999999,-0.000488,0.2625,-1.3125000000000002,-4.4975000000000005,0.9746250000000001,0.10134375,0.112625,1.22359375,0.9486875,-0.3318125,-0.3770625,1.21571875,0.017802054409222494,0.02008804383218856,True
37673,331,0,332,5381.0,44686.0,30041.0,-0.000549,-0.002196,-0.000488,0.45500000000000007,-1.7325000000000002,-4.585000000000001,0.9745312500000001,0.10071875,0.11334375000000001,1.2265625,0.95025,-0.3319375,-0.3768125,1.2161250000000001,0.017781413831101614,0.020107479187445036,True
37674,332,0,333,5381.0,44686.0,30040.0,-0.000183,0.000976,0.000122,0.5425000000000001,-2.1525000000000003,-4.515000000000001,0.976375,0.100875,0.1124375,1.23640625,0.94084375,-0.33390625,-0.3766875,1.22146875,0.0178673019256824,0.020065277532068295,True
37675,333,0,334,5379.0,44685.0,30040.0,0.0017079999999999999,0.001952,0.000976,0.56,-2.2225,-4.48,0.978,0.10046875,0.11228125,1.23678125,0.95475,-0.33290625,-0.37809375,1.21996875,0.017810244101030884,0.020115395610044367,True
37676,334,0,335,5379.0,44686.0,30042.0,0.000915,-0.000305,-0.000244,0.5075000000000001,-2.4325,-4.305000000000001,0.983625,0.097875,0.10846875,1.240125,0.95621875,-0.3331875,-0.37321875,1.228,0.017715003428958907,0.019762982679503504,True
37677,335,0,336,5379.0,44682.0,30041.0,0.002928,0.000366,0.000244,0.385,-2.5025000000000004,-4.235,0.979625,0.10237500000000001,0.11209375,1.23396875,0.9513125,-0.3299375,-0.3774375,1.206,0.01776874683710141,0.020081325200813252,True
37678,336,0,337,5379.0,44683.0,30041.0,0.0037819999999999998,-0.000183,-0.000549,0.29750000000000004,-2.2225,-3.9375000000000004,0.97790625,0.1009375,0.11221875,1.23259375,0.93175,-0.3309375,-0.37521875,1.20834375,0.017750035320258414,0.01999725643487815,True
37679,337,0,338,5379.0,44683.0,30040.0,0.001098,-0.000244,0.000732,0.31500000000000006,-2.1175,-3.8325000000000005,0.97740625,0.1003125,0.1121875,1.22609375,0.928875,-0.3264375,-0.38125000000000003,1.213625,0.017542642649586482,0.020238400410151243,True
37680,338,0,339,5380.0,44683.0,30043.0,-0.00244,-0.000488,0.000549,0.29750000000000004,-1.9075000000000002,-3.7450000000000006,0.97784375,0.09965625,0.111375,1.2385,0.94559375,-0.33515625,-0.38459375,1.2279375000000001,0.017867668303958393,0.0203394305061982,True
37681,339,0,340,5379.0,44682.0,30041.0,-0.00244,-0.000976,0.0006709999999999999,0.385,-1.7500000000000002,-3.5525,0.983375,0.09715625,0.109875,1.2393125,0.974375,-0.33559375,-0.38321875,1.2344375,0.01778259468191525,0.02022266851048941,True
37682,340,0,341,5379.0,44684.0,30044.0,-0.001403,0.001037,0.00042699999999999997,0.36750000000000005,-1.7500000000000002,-3.5000000000000004,0.97696875,0.1001875,0.11156250000000001,1.23665625,0.96665625,-0.33559375,-0.37965625000000003,1.228375,0.017907155028835078,0.020148715181330747,True
37683,341,0,342,5380.0,44682.0,30043.0,-0.001952,0.000183,-0.000183,0.24500000000000002,-1.5575,-3.1325000000000003,0.984625,0.09775,0.11009375,1.24084375,0.97378125,-0.33821875,-0.3828125,1.22590625,0.017912927584316334,0.020215315603973084,True
37684,342,0,343,5379.0,44684.0,30043.0,-0.001403,-0.0008539999999999999,0.000488,0.31500000000000006,-1.5750000000000002,-3.0100000000000002,0.9850625000000001,0.1010625,0.11084375,1.23528125,0.9685625,-0.34078125,-0.38003125,1.2168125,0.018152406262637935,0.020134305611277672,True
37685,343,0,344,5378.0,44684.0,30044.0,-0.000305,0.000976,-0.00061,0.29750000000000004,-1.5925000000000002,-3.115,0.9775625,0.10053125,0.11159375,1.22446875,0.9196875,-0.32306250000000003,-0.3738125,1.2113125,0.017415313141591445,0.019915072785597246,True
37686,344,0,345,5378.0,44685.0,30044.0,0.000915,-0.000244,-0.000732,0.12250000000000001,-1.5225000000000002,-3.0625000000000004,0.9778125,0.1,0.1090625,1.2405,0.9534375,-0.33784375,-0.38306250000000003,1.22290625,0.01799024410286963,0.02018306765198178,True
37687,345,0,346,5379.0,44684.0,30045.0,0.0011589999999999999,-0.00042699999999999997,-0.000488,0.17500000000000002,-1.5225000000000002,-3.0100000000000002,0.98359375,0.10253125,0.111625,1.2325,0.96609375,-0.33487500000000003,-0.37121875,1.20509375,0.017974460522192946,0.01981204776638427,True
37688,346,0,347,5379.0,44683.0,30042.0,-0.000244,-0.000793,0.000183,0.29750000000000004,-1.3125000000000002,-2.8350000000000004,0.977625,0.09853125,0.1083125,1.2406875,0.9446875,-0.336875,-0.380625,1.2311875,0.01789080356454968,0.020054346432874466,True
37689,347,0,348,5377.0,44684.0,30045.0,-6.1e-05,0.00042699999999999997,-0.0006709999999999999,0.28,-1.2075,-2.87,0.9839687500000001,0.09728125,0.11209375,1.233875,0.95615625,-0.335625,-0.374,1.21265625,0.017788992475023756,0.01994312587183064,True
37690,348,0,349,5379.0,44685.0,30044.0,-0.0006709999999999999,0.000305,0.000305,0.1925,-1.225,-2.87,0.97740625,0.09978125,0.11031250000000001,1.2390625,0.9449375,-0.3310625,-0.37343750000000003,1.21521875,0.017707560037708996,0.019847426117058784,True
37691,349,0,350,5379.0,44684.0,30044.0,-0.000244,-0.000488,0.001464,0.31500000000000006,-1.225,-2.9050000000000002,0.9821562500000001,0.09946875000000001,0.110625,1.23359375,0.94878125,-0.33640625,-0.37975000000000003,1.2238125,0.017910409430315948,0.020114029061003496,True
37692,350,0,351,5379.0,44684.0,30044.0,-0.001952,0.000915,0.000183,0.3325,-1.1375000000000002,-3.0275000000000003,0.97771875,0.09946875000000001,0.10940625,1.23753125,0.9536250000000001,-0.3323125,-0.37746875,1.2175,0.017745179378244463,0.01997233613518631,True
37693,351,0,352,5380.0,44683.0,30043.0,-0.003721,0.001037,-0.00042699999999999997,0.36750000000000005,-0.8925000000000001,-3.1500000000000004,0.9795625,0.1010625,0.111375,1.23303125,0.95565625,-0.3304375,-0.37640625,1.21546875,0.017734987297289662,0.020010384016306754,True
37694,352,0,353,5379.0,44685.0,30042.0,-0.003538,-0.000122,-0.000305,0.525,-0.9975,-3.2900000000000005,0.9820625000000001,0.09840625,0.1105,1.23371875,0.94796875,-0.3323125,-0.38025000000000003,1.2225625,0.01770151316279536,0.020128997856871854,True
37695,353,0,354,5380.0,44683.0,30046.0,-0.002257,-0.000366,6.1e-05,0.35000000000000003,-1.3650000000000002,-3.43,0.97775,0.10075,0.11171875,1.23390625,0.9538125000000001,-0.33203125,-0.37740625,1.21609375,0.01778648258147375,0.020064685922030777,True
37696,354,0,355,5380.0,44684.0,30046.0,0.0006709999999999999,-0.000183,-0.0011589999999999999,0.2625,-1.6450000000000002,-3.6575,0.98059375,0.09909375000000001,0.1115,1.2374687500000001,0.9479375,-0.33309375,-0.38140625,1.2236875,0.017761305012849015,0.020216481565742336,True
37697,355,0,356,5380.0,44683.0,30044.0,0.002623,0.000183,0.000305,0.24500000000000002,-1.6450000000000002,-3.7625,0.9835,0.09703125,0.10934375,1.2335625000000001,0.9546250000000001,-0.3295,-0.37143750000000003,1.22246875,0.017531443309562467,0.019727242186678567,True
37698,356,0,357,5379.0,44682.0,30044.0,0.002379,-0.0006709999999999999,0.000366,0.28,-1.8550000000000002,-3.5700000000000003,0.97890625,0.10115625,0.11140625,1.2336562500000001,0.95603125,-0.33484375,-0.37959375,1.2162187500000001,0.017916696095490646,0.02013979416699673,True
37699,357,0,358,5379.0,44682.0,30043.0,0.0021349999999999997,6.1e-05,0.000305,0.385,-1.8550000000000002,-3.6050000000000004,0.9771562500000001,0.09965625,0.10771875,1.24340625,0.94821875,-0.3255,-0.377625,1.2169375,0.01747780107294814,0.019909394372913686,True
37700,358,0,359,5379.0,44683.0,30041.0,0.002379,-0.000915,0.0013419999999999999,0.3325,-1.9075000000000002,-3.7275000000000005,0.97809375,0.1020625,0.11178125,1.22825,0.95365625,-0.33584375,-0.380125,1.2163125000000001,0.017994290828728714,0.02017652698663358,True
37701,359,0,360,5379.0,44683.0,30040.0,0.001647,0.000732,0.0,0.22750000000000004,-1.9425000000000001,-3.7625,0.9771562500000001,0.09456250000000001,0.1075,1.2281875,0.94934375,-0.33287500000000003,-0.37796875,1.22034375,0.017566255528785647,0.01991424121421109,True
37702,360,0,361,5381.0,44683.0,30042.0,-0.002379,0.000549,-0.000732,0.385,-1.8025000000000002,-3.8150000000000004,0.9705,0.10046875,0.10540625,1.24875,0.95665625,-0.3328125,-0.37565625,1.21634375,0.01780645989854235,0.019735366099117847,True
37703,361,0,362,5381.0,44682.0,30040.0,-0.005307,0.001403,6.1e-05,0.42000000000000004,-1.54,-3.99,0.98865625,0.104875,0.114875,1.22909375,0.9491875000000001,-0.3363125,-0.38128125,1.22265625,0.0181287736176136,0.020349884196508336,True
37704,362,0,363,5381.0,44683.0,30042.0,-0.004514,0.0013419999999999999,-0.000915,0.36750000000000005,-1.7850000000000001,-3.9725000000000006,0.9706875,0.1018125,0.10671875,1.24853125,0.9494375,-0.33053125,-0.37740625,1.21575,0.017769597612053788,0.01985957796473938,True
37705,363,0,364,5383.0,44683.0,30041.0,-0.0018909999999999999,-0.00061,-0.002745,0.45500000000000007,-2.1175,-4.0075,0.9928125,0.09546875,0.1079375,1.23015625,0.94771875,-0.33271875,-0.38165625000000003,1.22190625,0.01759719102494455,0.02008041393824507,True
37706,364,0,365,5380.0,44682.0,30039.0,0.0026839999999999998,0.00042699999999999997,-6.1e-05,0.43750000000000006,-2.45,-4.0075,0.9715,0.10212500000000001,0.116125,1.229,0.95115625,-0.33440625,-0.37928125,1.216375,0.01793884944285419,0.020320789809994914,True
37707,365,0,366,5382.0,44680.0,30036.0,0.002806,-0.00183,0.0015249999999999999,0.2625,-2.7825,-4.095000000000001,0.9783125,0.09653125,0.1070625,1.2435625000000001,0.94784375,-0.33253125,-0.3755625,1.2180312500000001,0.017633286713645956,0.019799543087467213,True
37708,366,0,367,5383.0,44680.0,30037.0,0.002745,-0.001952,0.001037,0.2625,-2.7300000000000004,-3.9200000000000004,0.9708125,0.1021875,0.11465625,1.2285,0.95603125,-0.3341875,-0.37778125,1.21590625,0.017932589695053514,0.02020025920119371,True
37709,367,0,368,5382.0,44679.0,30036.0,0.003294,0.000793,0.001952,0.2625,-2.5900000000000003,-4.025,0.98084375,0.09515625,0.106875,1.24221875,0.9441875000000001,-0.33215625,-0.3780625,1.22140625,0.01756163718536042,0.019892372496788865,True
37710,368,0,369,5382.0,44678.0,30033.0,0.001952,0.001098,0.000488,0.2625,-2.6950000000000003,-3.9375000000000004,0.9688125,0.10237500000000001,0.11346875000000001,1.22996875,0.95484375,-0.33453125,-0.37759375,1.2166875,0.01795416749603508,0.0201440103168509,True
37711,369,0,370,5381.0,44679.0,30034.0,0.00042699999999999997,-0.000549,-0.001037,0.21000000000000002,-2.7125000000000004,-3.9725000000000006,0.9785312500000001,0.09865625,0.11034375,1.2420625,0.94871875,-0.3321875,-0.377625,1.2155625,0.017706741327716633,0.0200170750842217,True
37712,370,0,371,5382.0,44679.0,30032.0,0.00122,-0.000305,-0.00061,0.15750000000000003,-2.0825,-3.7625,0.982875,0.0973125,0.111625,1.23728125,0.948875,-0.33425,-0.37828125,1.22071875,0.01773477711456075,0.020096012716236917,True
37713,371,0,372,5382.0,44677.0,30032.0,-0.001403,-0.000244,0.000122,0.28,-1.8375000000000001,-3.7625,0.9755,0.09784375000000001,0.11109375,1.2336562500000001,0.9557187500000001,-0.33475,-0.37971875,1.2230625,0.01777679039234017,0.020132000087162615,True
37714,372,0,373,5380.0,44679.0,30032.0,-0.004148,0.000976,0.000305,0.45500000000000007,-1.7675,-3.8850000000000002,0.97396875,0.100625,0.111875,1.23471875,0.9524375,-0.332125,-0.37715625,1.2119375000000001,0.01778512974103166,0.02006104588183866,True
37715,373,0,374,5380.0,44677.0,30033.0,-0.0042699999999999995,0.002196,0.000244,0.56,-1.8725000000000003,-3.9200000000000004,0.98409375,0.09875,0.10993750000000001,1.23321875,0.94315625,-0.33459375,-0.3803125,1.222375,0.01780772485671761,0.020108437904559264,True
37716,374,0,375,5380.0,44681.0,30034.0,-0.0035989999999999998,0.000732,0.0,0.5425000000000001,-1.8725000000000003,-4.0600000000000005,0.9773437500000001,0.09678125,0.109,1.2374375,0.94940625,-0.3325,-0.378875,1.2245625,0.017642299393814856,0.020012203188211106,True
37717,375,0,376,5380.0,44679.0,30034.0,0.000244,0.000366,0.000183,0.35000000000000003,-2.2925000000000004,-3.9025000000000003,0.9763437500000001,0.0999375,0.10809375,1.239875,0.95175,-0.33309375,-0.37390625,1.2105000000000001,0.017795980011789503,0.019775246325155614,True
37718,376,0,377,5380.0,44680.0,30035.0,0.002074,-0.000244,0.002562,0.29750000000000004,-2.5025000000000004,-3.9550000000000005,0.9833125,0.1014375,0.11203125,1.2335,0.9560000000000001,-0.33521875,-0.3765625,1.21578125,0.017943387092010425,0.02004358694955452,True
37719,377,0,378,5378.0,44680.0,30035.0,0.003965,-0.001098,-0.000366,0.2625,-2.6250000000000004,-4.0600000000000005,0.98459375,0.0975,0.11221875,1.23415625,0.948625,-0.3351875,-0.38078125,1.2151875,0.017780323245917048,0.020220845055980312,True
37720,378,0,379,5377.0,44676.0,30035.0,0.00366,-0.0011589999999999999,-0.001647,0.22750000000000004,-2.7125000000000004,-3.99,0.9775625,0.097375,0.10984375,1.2391875,0.94871875,-0.3321875,-0.37765625,1.21778125,0.0176540847385793,0.019997820750302854,True
37721,379,0,380,5378.0,44676.0,30035.0,0.004392,-0.001037,-0.001586,0.17500000000000002,-2.4850000000000003,-3.9375000000000004,0.97290625,0.097875,0.11225,1.23475,0.9520937500000001,-0.33537500000000003,-0.37884375000000003,1.216375,0.017803300750450734,0.020144259302699703,True
37722,380,0,381,5376.0,44677.0,30033.0,0.001281,-6.1e-05,-0.0011589999999999999,0.29750000000000004,-1.8550000000000002,-3.9375000000000004,0.97559375,0.1015,0.11093750000000001,1.2376562500000001,0.94828125,-0.33225,-0.378875,1.22253125,0.017826136095100125,0.02009167773328343,True
37723,381,0,382,5375.0,44675.0,30033.0,-0.002562,0.00042699999999999997,0.0023179999999999997,0.385,-1.6275000000000002,-3.7975000000000003,0.9775,0.100625,0.10956250000000001,1.23959375,0.95359375,-0.33234375,-0.37865625,1.2221875,0.017793959942720275,0.020026483207006132,True
37724,382,0,383,5378.0,44677.0,30034.0,-0.004026,0.0013419999999999999,0.002379,0.5425000000000001,-1.3825,-3.6575,0.97821875,0.1005,0.11096875,1.23390625,0.9566250000000001,-0.3318125,-0.377,1.2158437500000001,0.017767377584386693,0.020017588300447146,True
37725,383,0,384,5375.0,44681.0,30034.0,-0.0040869999999999995,0.001952,0.001647,0.49000000000000005,-1.3125000000000002,-3.6400000000000006,0.98565625,0.09746875,0.11156250000000001,1.227,0.94853125,-0.33346875,-0.380125,1.2164062500000001,0.017709661718492146,0.02016755451417907,True
37726,384,0,385,5376.0,44677.0,30036.0,-0.004392,0.00183,-0.000305,0.3325,-1.54,-3.7275000000000005,0.977125,0.10090625,0.1121875,1.23246875,0.95246875,-0.33496875,-0.37978125,1.21596875,0.01791146742278023,0.020179375071300118,True
37727,385,0,386,5378.0,44676.0,30034.0,0.00183,-0.002257,-0.001037,0.24500000000000002,-2.0650000000000004,-3.6750000000000003,0.976375,0.10025,0.11131250000000001,1.2338125,0.9479375,-0.32887500000000003,-0.376875,1.2156875,0.017638505685116965,0.020026664615542394,True
37728,386,0,387,5376.0,44678.0,30031.0,0.0028669999999999998,-0.002745,-0.000305,0.17500000000000002,-2.3275,-3.6925000000000003,0.97709375,0.10021875,0.11171875,1.23353125,0.94796875,-0.3285,-0.37671875,1.21634375,0.017622079043097604,0.020037048669645088,True
37729,387,0,388,5375.0,44676.0,30031.0,0.0042699999999999995,-0.001281,-0.000305,0.15750000000000003,-2.3275,-3.7975000000000003,0.9775625,0.100375,0.11178125,1.234,0.94840625,-0.33203125,-0.3774375,1.2198437500000001,0.01777107079788088,0.02006850596991583,True
37730,388,0,389,5376.0,44677.0,30028.0,0.0037819999999999998,0.0006709999999999999,0.000305,0.21000000000000002,-2.2575000000000003,-3.9200000000000004,0.98265625,0.097375,0.111375,1.238375,0.954875,-0.33440625,-0.37996875,1.22209375,0.01774365257011356,0.020153584077091977,True
37731,389,0,390,5376.0,44677.0,30028.0,0.002196,-6.1e-05,-0.000122,0.3325,-1.7850000000000001,-3.8675,0.98321875,0.0999375,0.111625,1.23315625,0.9529062500000001,-0.32878125,-0.37775000000000003,1.20515625,0.01762187532513574,0.020074658243685328,True
37732,390,0,391,5374.0,44675.0,30029.0,-0.002257,0.000183,0.00042699999999999997,0.385,-1.1725,-3.6400000000000006,0.977,0.1001875,0.11034375,1.23725,0.94884375,-0.33178125,-0.37771875,1.2176875,0.01775327279008807,0.02002084382895754,True
37733,391,0,392,5375.0,44677.0,30027.0,-0.002745,0.000549,-6.1e-05,0.4025,-1.1025,-3.7275000000000005,0.9805,0.099375,0.10975,1.2360625,0.9540000000000001,-0.3315625,-0.38003125,1.21884375,0.0177110491773802,0.020089443076493185,True
37734,392,0,393,5374.0,44676.0,30027.0,-0.0040869999999999995,0.00122,-0.000244,0.4025,-1.1025,-3.6400000000000006,0.9810625000000001,0.0988125,0.1128125,1.23334375,0.9544375,-0.3349375,-0.3795625,1.21696875,0.017824167413620848,0.020196219681956968,True
37735,393,0,394,5375.0,44675.0,30027.0,-0.0040869999999999995,0.001464,-0.00042699999999999997,0.29750000000000004,-1.12,-3.6050000000000004,0.97778125,0.10090625,0.11143750000000001,1.23759375,0.9489062500000001,-0.33234375,-0.37784375000000003,1.21540625,0.017805518631964914,0.020070735337287576,True
37736,394,0,395,5375.0,44675.0,30027.0,-0.0026839999999999998,-6.1e-05,-0.000366,0.29750000000000004,-1.2600000000000002,-3.6575,0.980875,0.09903125,0.11340625,1.2340625,0.95221875,-0.33665625,-0.38084375,1.20503125,0.017902521017035773,0.020272062979772798,True
37737,395,0,396,5377.0,44676.0,30025.0,0.001464,-0.0008539999999999999,0.000366,0.1925,-1.8550000000000002,-3.7625,0.97784375,0.100375,0.109625,1.23990625,0.9470625,-0.3320625,-0.37940625,1.22078125,0.017772332287902023,0.020059194427673975,True
37738,396,0,397,5376.0,44678.0,30025.0,0.002562,-0.0018909999999999999,6.1e-05,0.35000000000000003,-2.1175,-3.8850000000000002,0.984,0.1010625,0.11146875,1.2335625000000001,0.95978125,-0.33296875,-0.377625,1.21409375,0.017837167937019605,0.020063223960496562,True
37739,397,0,398,5376.0,44678.0,30023.0,0.003843,0.000488,-0.000305,0.42000000000000004,-2.205,-3.9725000000000006,0.9774375000000001,0.10028125,0.11,1.25534375,0.94559375,-0.33109375,-0.375875,1.21278125,0.01772937149609232,0.019932617803463466,True
37740,398,0,399,5375.0,44675.0,30024.0,0.0037819999999999998,0.00042699999999999997,0.000549,0.385,-2.1350000000000002,-3.7800000000000002,1.0035,0.092625,0.1143125,1.2158125,0.9490625,-0.338875,-0.3821875,1.2266875,0.017728839151357652,0.02036322622816349,True
37741,399,0,400,5376.0,44677.0,30021.0,0.001281,-0.0006709999999999999,-0.000305,0.385,-2.0650000000000004,-3.9375000000000004,0.97009375,0.10350000000000001,0.11093750000000001,1.2392812500000001,0.9556875,-0.33178125,-0.37053125000000003,1.21134375,0.017889411610586468,0.019756186070010274,True
37742,400,0,401,5375.0,44675.0,30020.0,-0.001281,0.000915,-0.00042699999999999997,0.45500000000000007,-1.5750000000000002,-3.8150000000000004,0.98378125,0.088125,0.10734375,1.243875,0.94525,-0.33121875,-0.37796875,1.2245625,0.017234802510663384,0.019907831738442114,True
37743,401,0,402,5377.0,44677.0,30021.0,-0.0026839999999999998,0.001098,6.1e-05,0.5950000000000001,-1.2950000000000002,-3.6575,0.965375,0.1055,0.11025,1.25265625,0.9610625,-0.33175,-0.37584375000000003,1.21396875,0.017970347385617556,0.019941617405551348,True
37744,402,0,403,5376.0,44674.0,30022.0,-0.0044529999999999995,0.000976,0.0008539999999999999,0.5425000000000001,-1.2950000000000002,-3.7100000000000004,0.9883125,0.10421875,0.11528125,1.23909375,0.9571875,-0.33740625,-0.37543750000000004,1.213625,0.018145935333597846,0.020131689944026646,True
37745,403,0,404,5377.0,44675.0,30020.0,-0.003721,0.0,0.0017079999999999999,0.525,-1.5225000000000002,-3.7450000000000006,1.00240625,0.09246875,0.10228125,1.2524375,0.94546875,-0.33340625,-0.37815625,1.22325,0.017501659883724666,0.01970770451518457,True
37746,404,0,405,5377.0,44674.0,30023.0,-0.0013419999999999999,0.000305,0.000183,0.43750000000000006,-2.1175,-3.8325000000000005,0.9799375,0.1076875,0.11740625,1.2225,0.95740625,-0.33,-0.38084375,1.22525,0.017989621866009043,0.020436126210767416,True
37747,405,0,406,5377.0,44676.0,30019.0,0.0050019999999999995,-0.000305,-0.000976,0.42000000000000004,-2.555,-3.7625,0.9655625,0.10440625,0.1208125,1.2153125,0.95234375,-0.33384375,-0.378625,1.2186875,0.018009896196526702,0.020486696850212018,True
37748,406,0,407,5377.0,44674.0,30019.0,0.004392,-0.000122,-0.001281,0.2625,-2.45,-3.7800000000000002,0.9541875,0.10259375,0.11912500000000001,1.2221875,0.9442812500000001,-0.3321875,-0.376,1.21753125,0.017868564016285015,0.020311987200525107,True
37749,407,0,408,5378.0,44674.0,30019.0,0.002806,-0.00061,-0.000732,0.29750000000000004,-2.0475000000000003,-3.7625,0.9600625,0.10246875,0.1144375,1.223,0.94521875,-0.3320625,-0.37665625,1.21653125,0.01785838130244816,0.020146066998011674,True
37750,408,0,409,5376.0,44676.0,30019.0,-0.0006709999999999999,-0.000183,-6.1e-05,0.45500000000000007,-1.7500000000000002,-3.8850000000000002,0.9649375,0.10290625,0.11721875,1.22859375,0.94775,-0.33184375,-0.3779375,1.22128125,0.017867532130605594,0.02031165474929944,True
37751,409,0,410,5376.0,44676.0,30019.0,-0.003294,0.001281,0.000549,0.5425000000000001,-1.4875,-3.9025000000000003,0.9648125000000001,0.10365625,0.11509375000000001,1.2320625,0.9558125000000001,-0.3320625,-0.3769375,1.21625,0.01790718522114597,0.020184293043373474,True
37752,410,0,411,5376.0,44675.0,30019.0,-0.002623,-0.00061,0.000183,0.385,-1.2950000000000002,-3.7975000000000003,0.97828125,0.095875,0.11115625,1.23740625,0.93940625,-0.33259375,-0.37959375,1.22128125,0.017608839994708744,0.02012953968931496,True
37753,411,0,412,5379.0,44676.0,30019.0,-0.0008539999999999999,-0.001403,0.000549,0.385,-1.4000000000000001,-3.7800000000000002,0.98275,0.09825,0.11065625,1.2393750000000001,0.943625,-0.3341875,-0.37653125,1.22415625,0.017770780306513214,0.019985923961187053,True
37754,412,0,413,5378.0,44677.0,30021.0,-0.000305,-0.002013,-6.1e-05,0.3325,-1.7325000000000002,-3.7975000000000003,0.98409375,0.09878125,0.109625,1.24009375,0.9558125000000001,-0.335,-0.38009375,1.2235625,0.01782540579412369,0.020086828009018627,True
37755,413,0,414,5377.0,44677.0,30018.0,0.0011589999999999999,-0.000183,-0.0032329999999999998,0.29750000000000004,-2.0300000000000002,-3.8150000000000004,0.97675,0.100375,0.11143750000000001,1.2385625,0.9555,-0.3319375,-0.37784375000000003,1.21771875,0.017767286308375565,0.020070735337287576,True
37756,414,0,415,5378.0,44679.0,30014.0,0.003355,0.001037,0.0017079999999999999,0.31500000000000006,-2.0825,-3.9375000000000004,0.98259375,0.0975,0.11253125,1.2338437500000001,0.9553125,-0.33421875,-0.37834375000000003,1.21678125,0.017741220888794713,0.020135699333552963,True
37757,415,0,416,5378.0,44678.0,30015.0,-0.0021349999999999997,-0.0013419999999999999,0.000976,0.385,-2.1,-3.9725000000000006,0.97796875,0.09975,0.11146875,1.22246875,0.94159375,-0.33278125000000003,-0.37796875,1.20359375,0.017775660149823607,0.0200770418987431,True
37758,416,0,417,5378.0,44680.0,30020.0,-0.002989,-0.000183,-0.002013,0.5775,-2.3975000000000004,-3.8675,0.97775,0.09878125,0.1078125,1.23884375,0.9435625,-0.3326875,-0.37975000000000003,1.22159375,0.017732063094140344,0.019998666926445103,True
37759,417,0,418,5379.0,44680.0,30016.0,-0.000549,0.003111,-0.000183,0.6125,-2.2750000000000004,-3.7975000000000003,0.9826875,0.09846875000000001,0.10956250000000001,1.238875,0.955375,-0.33459375,-0.3786875,1.22096875,0.017796167236200523,0.020027739393271272,True
37760,418,0,419,5379.0,44678.0,30014.0,0.0011589999999999999,0.0035989999999999998,-0.001586,0.49000000000000005,-2.31,-3.9550000000000005,0.98403125,0.09803125,0.10971875,1.2393125,0.9549062500000001,-0.33115625,-0.38003125,1.21615625,0.017639420650220845,0.02008816128978506,True
37761,419,0,420,5379.0,44680.0,30017.0,0.001952,-0.00122,-0.000732,0.24500000000000002,-2.3625000000000003,-3.7800000000000002,0.9841875,0.09978125,0.1075625,1.23925,0.95634375,-0.3353125,-0.38025000000000003,1.2201250000000001,0.017879110859989982,0.02000851098737708,True
37762,420,0,421,5380.0,44679.0,30016.0,0.0011589999999999999,-0.0013419999999999999,0.000122,0.24500000000000002,-2.1175,-3.7450000000000006,0.9775312500000001,0.100375,0.11109375,1.23340625,0.94953125,-0.32846875000000003,-0.3779375,1.2158437500000001,0.017627239692181614,0.02006040297707712,True
37763,421,0,422,5381.0,44680.0,30017.0,0.00042699999999999997,0.000732,0.00061,0.31500000000000006,-1.9600000000000002,-3.6400000000000006,0.9772500000000001,0.0980625,0.109125,1.2397500000000001,0.94803125,-0.33378125000000003,-0.38,1.22225,0.017746676752097457,0.020062551271534047,True
37764,422,0,423,5379.0,44679.0,30013.0,-6.1e-05,0.000732,-0.000366,0.3325,-1.8200000000000003,-3.6575,0.98078125,0.10053125,0.11143750000000001,1.23259375,0.95515625,-0.33275,-0.3785625,1.2159375000000001,0.01780650563540907,0.02009962646485001,True
37765,423,0,424,5380.0,44680.0,30014.0,-0.002074,-0.000183,-0.000305,0.36750000000000005,-1.8025000000000002,-3.6400000000000006,0.9775312500000001,0.100375,0.1128125,1.2339375000000001,0.94834375,-0.33096875000000003,-0.37775000000000003,1.2160312500000001,0.017728178209098232,0.020123370696639355,True
37766,424,0,425,5381.0,44678.0,30016.0,0.0008539999999999999,-0.000305,-0.0006709999999999999,0.29750000000000004,-1.7850000000000001,-3.5875000000000004,0.9775,0.100625,0.11181250000000001,1.2325,0.94821875,-0.33178125,-0.37696875,1.21665625,0.01777125338902182,0.02005094460319231,True
37767,425,0,426,5380.0,44679.0,30013.0,0.001281,0.0,0.0013419999999999999,0.2625,-1.8550000000000002,-3.5700000000000003,0.9795,0.09825,0.10928125,1.240875,0.94634375,-0.33465625,-0.37890625,1.221125,0.017789700645555656,0.020024995994231694,True
37768,426,0,427,5382.0,44681.0,30014.0,0.0006709999999999999,0.000122,0.004148,0.31500000000000006,-1.6800000000000002,-3.4825000000000004,0.98375,0.098875,0.11118750000000001,1.23940625,0.95375,-0.333625,-0.37925000000000003,1.22190625,0.01777375956110115,0.020117005240111983,True
37769,427,0,428,5382.0,44676.0,30013.0,-0.000183,0.000915,-0.00122,0.2625,-1.8550000000000002,-3.5000000000000004,0.983125,0.09715625,0.10940625,1.2400625,0.9546250000000001,-0.33237500000000003,-0.37784375000000003,1.22059375,0.01765266440287888,0.019987411725042335,True
37770,428,0,429,5383.0,44679.0,30015.0,-0.002074,0.0011589999999999999,-0.003355,0.4025,-1.8900000000000001,-3.535,0.986,0.0990625,0.1149375,1.23840625,0.9535,-0.3344375,-0.37971875,1.2215625,0.017814260140592935,0.0202896618731502,True
37771,429,0,430,5383.0,44678.0,30011.0,-0.001647,0.000122,6.1e-05,0.42000000000000004,-1.5225000000000002,-3.6225000000000005,0.9717187500000001,0.1005,0.11168750000000001,1.23340625,0.9489062500000001,-0.33137500000000003,-0.37746875,1.21484375,0.017749716158663453,0.020065916400774795,True
37772,430,0,431,5383.0,44681.0,30014.0,-0.001098,-0.0040869999999999995,0.00042699999999999997,0.28,-1.715,-3.4650000000000003,0.9770625000000001,0.09978125,0.11118750000000001,1.22740625,0.9490625,-0.3323125,-0.378375,1.215875,0.01775802238278832,0.02008183482287068,True
37773,431,0,432,5383.0,44678.0,30012.0,-0.000122,-0.00183,0.000793,0.35000000000000003,-1.9425000000000001,-3.4825000000000004,0.9820625000000001,0.09671875,0.10946875,1.2396875,0.94921875,-0.33487500000000003,-0.37965625000000003,1.22475,0.01773560579209879,0.020062834150912198,True
37774,432,0,433,5382.0,44679.0,30012.0,0.002623,0.001098,-0.00061,0.36750000000000005,-2.1,-3.7800000000000002,0.9834375000000001,0.10140625,0.11540625,1.23309375,0.9556875,-0.33190625,-0.3776875,1.21665625,0.017808407428004124,0.020227256994741604,True
37775,433,0,434,5383.0,44680.0,30012.0,0.001647,0.0018909999999999999,-0.0017079999999999999,0.28,-2.0650000000000004,-3.6925000000000003,0.97759375,0.10071875,0.11096875,1.2398437500000001,0.94884375,-0.3288125,-0.37903125,1.220625,0.01765524930573574,0.020099239997487594,True
37776,434,0,435,5383.0,44682.0,30011.0,0.001464,-0.002013,0.0025009999999999998,0.17500000000000002,-1.8025000000000002,-3.43,0.98290625,0.09725,0.10896875,1.23478125,0.9689375,-0.33909375,-0.378375,1.21303125,0.017927690919058974,0.01999082178365047,True
37777,435,0,436,5385.0,44681.0,30011.0,0.000793,0.000244,-6.1e-05,0.22750000000000004,-1.5750000000000002,-3.4125000000000005,0.978125,0.099875,0.11128125,1.23315625,0.9422812500000001,-0.3301875,-0.37484375000000003,1.224,0.01767608654886034,0.019943717587933257,True
37778,436,0,437,5383.0,44680.0,30011.0,-0.000244,0.0032329999999999998,-0.0013419999999999999,0.42000000000000004,-1.4525000000000001,-3.5525,0.9821562500000001,0.09628125,0.10968750000000001,1.2294375,0.9624375000000001,-0.34,-0.38353125,1.227625,0.017924455628594908,0.020227535747103897,True
37779,437,0,438,5385.0,44682.0,30012.0,-0.002562,0.002623,-0.00183,0.5425000000000001,-1.2425000000000002,-3.4825000000000004,0.97946875,0.0975625,0.11528125,1.23415625,0.94821875,-0.33553125,-0.37353125,1.2073125,0.017796765788706585,0.020055054599443813,True
37780,438,0,439,5386.0,44680.0,30011.0,-0.00366,0.0,-0.0006709999999999999,0.385,-1.0150000000000001,-3.43,0.97190625,0.100375,0.11115625,1.23303125,0.941625,-0.3305,-0.37593750000000004,1.213125,0.017709253817225292,0.019982564773149754,True
37781,439,0,440,5386.0,44681.0,30013.0,-0.003721,-0.00061,0.0013419999999999999,0.36750000000000005,-0.9100000000000001,-3.535,0.9846875,0.0979375,0.1085625,1.23334375,0.9615625,-0.33878125000000003,-0.3790625,1.2105937500000001,0.01794332861264366,0.020001794572699422,True
37782,440,0,441,5386.0,44684.0,30012.0,-0.0026839999999999998,-0.002013,0.0032329999999999998,0.31500000000000006,-1.05,-3.5525,0.97675,0.0988125,0.10965625,1.2416875,0.93365625,-0.33353125,-0.38546875,1.2320312500000001,0.01776740685756409,0.020304100162109862,True
37783,441,0,442,5386.0,44685.0,30012.0,-0.002013,-0.000915,0.0008539999999999999,0.49000000000000005,-1.4000000000000001,-3.8150000000000004,0.98353125,0.10034375,0.1128125,1.23271875,0.96690625,-0.33465625,-0.374,1.2105625,0.01787574048842379,0.019972614261097893,True
37784,442,0,443,5386.0,44683.0,30012.0,0.0028669999999999998,0.00061,0.000244,0.35000000000000003,-1.8200000000000003,-3.8850000000000002,0.97690625,0.09996875000000001,0.1126875,1.238625,0.94271875,-0.33440625,-0.384,1.232125,0.017850240336149563,0.020369402066929134,True
37785,443,0,444,5386.0,44682.0,30010.0,0.004209,6.1e-05,-0.0013419999999999999,0.22750000000000004,-2.2575000000000003,-3.9375000000000004,0.98440625,0.10090625,0.11221875,1.23440625,0.956375,-0.329625,-0.3741875,1.2011875,0.01769576185411818,0.01995579339824148,True
37786,444,0,445,5387.0,44683.0,30011.0,0.0037819999999999998,-0.000732,-0.001464,0.35000000000000003,-2.24,-3.9550000000000005,0.9776875,0.09984375000000001,0.111375,1.2251875,0.94240625,-0.33025,-0.3756875,1.2142187500000001,0.017677325551525364,0.019981487701628928,True
37787,445,0,446,5386.0,44681.0,30012.0,0.000244,0.000915,-0.00061,0.43750000000000006,-2.0125,-4.095000000000001,0.977625,0.09990625,0.11109375,1.233125,0.9470000000000001,-0.33325,-0.3758125,1.212,0.017801002743160082,0.019974975193134587,True
37788,446,0,447,5386.0,44682.0,30011.0,-0.001952,0.0017079999999999999,0.001098,0.6475000000000001,-1.7325000000000002,-4.0600000000000005,0.9771562500000001,0.10040625,0.11125,1.232625,0.93459375,-0.33190625,-0.37771875,1.2153125,0.017767309127290427,0.02005801916965672,True
37789,447,0,448,5387.0,44683.0,30014.0,-0.0040869999999999995,0.001586,0.000915,0.6825000000000001,-1.715,-3.99,0.9691875,0.09646875,0.1121875,1.2389375,0.9485,-0.333625,-0.3740625,1.2229375,0.017674873760074792,0.019949485236611664,True
37790,448,0,449,5385.0,44686.0,30015.0,-0.004331,0.001098,0.0008539999999999999,0.6825000000000001,-1.9775000000000003,-4.112500000000001,0.97809375,0.0994375,0.11709375,1.23325,0.948375,-0.33240625,-0.37759375,1.2164062500000001,0.017747679599094318,0.020292712442137567,True
37791,449,0,450,5386.0,44682.0,30016.0,0.0,0.000122,-0.0006709999999999999,0.42000000000000004,-2.31,-4.305000000000001,0.9769375,0.09990625,0.11143750000000001,1.2344375,0.9379375,-0.33215625,-0.37828125,1.2161250000000001,0.017756852108000088,0.020088321443908194,True
37792,450,0,451,5385.0,44683.0,30015.0,0.003965,-0.00122,-0.000732,0.3325,-2.24,-4.130000000000001,0.97790625,0.09971875000000001,0.112,1.2340312500000001,0.94828125,-0.33209375,-0.37696875,1.2161875,0.017746623222672734,0.020058636289633017,True
37793,451,0,452,5384.0,44682.0,30017.0,0.003294,-0.00244,-0.000732,0.29750000000000004,-2.345,-4.1825,0.9774375000000001,0.100875,0.11128125,1.23428125,0.94571875,-0.3309375,-0.37678125,1.216375,0.01774746657419181,0.02002161380514501,True
37794,452,0,453,5384.0,44683.0,30018.0,0.003172,0.0,-0.00061,0.3325,-2.3975000000000004,-4.165,0.98375,0.09975,0.10915625,1.23334375,0.95425,-0.33459375,-0.38134375,1.2182187500000001,0.017848818618556146,0.020117841125963373,True
37795,453,0,454,5383.0,44683.0,30015.0,0.003721,0.00061,6.1e-05,0.4025,-2.0300000000000002,-4.2,0.97884375,0.0999375,0.11168750000000001,1.2333125,0.95028125,-0.332625,-0.37703125,1.21634375,0.01777705857876,0.020048329305891174,True
37796,454,0,455,5382.0,44683.0,30016.0,-0.0015249999999999999,-0.000305,-0.001098,0.35000000000000003,-1.5750000000000002,-4.077500000000001,0.977875,0.1005625,0.11428125,1.2396875,0.9481875000000001,-0.33165625,-0.37696875,1.221375,0.01776363867543953,0.020152218474661664,True
37797,455,0,456,5382.0,44680.0,30016.0,-0.002074,0.0008539999999999999,-0.0011589999999999999,0.29750000000000004,-1.3475000000000001,-3.9725000000000006,0.98584375,0.09625,0.11146875,1.227,0.9479375,-0.33575,-0.377875,1.21590625,0.017751661650041606,0.020073273408777428,True
37798,456,0,457,5383.0,44680.0,30012.0,-0.0025009999999999998,0.0013419999999999999,0.000793,0.31500000000000006,-1.155,-3.9375000000000004,0.97196875,0.09853125,0.10903125,1.24659375,0.9405625,-0.33221875,-0.37934375000000004,1.22090625,0.017702865670645017,0.02003232757239415,True
37799,457,0,458,5382.0,44682.0,30014.0,-0.002074,0.000488,0.0023179999999999997,0.3325,-0.9450000000000001,-3.9200000000000004,0.98909375,0.09490625,0.110375,1.242875,0.9555625,-0.33578125000000003,-0.38096875,1.22415625,0.017697705924275598,0.02015275746580004,True
37800,458,0,459,5384.0,44681.0,30015.0,-0.002257,-0.001769,0.002257,0.36750000000000005,-0.8575,-3.7800000000000002,0.987625,0.09471875,0.10690625000000001,1.234,0.94996875,-0.33278125000000003,-0.38109375,1.2153125,0.017568891759958596,0.020015508943277,True
37801,459,0,460,5382.0,44682.0,30014.0,0.0015249999999999999,-0.000122,0.0006709999999999999,0.17500000000000002,-1.2775,-3.8325000000000005,0.9755625,0.099625,0.110375,1.2311875,0.9481875000000001,-0.3323125,-0.3778125,1.21546875,0.017751600880516392,0.020025894448076502,True
37802,460,0,461,5382.0,44682.0,30012.0,0.003355,6.1e-05,-0.0011589999999999999,0.10500000000000001,-1.4175000000000002,-3.7625,0.9748125,0.099875,0.1128125,1.23040625,0.94815625,-0.33040625,-0.37646875,1.21615625,0.017684918434109582,0.020071867464396376,True
37803,461,0,462,5382.0,44683.0,30012.0,0.006588,-0.0018909999999999999,-0.0032329999999999998,0.052500000000000005,-1.5050000000000001,-3.6400000000000006,0.9745625,0.10615625000000001,0.11190625,1.2305625,0.94828125,-0.3325,-0.37653125,1.2175625,0.018027586561183605,0.020037202791106712,True
37804,462,0,463,5381.0,44683.0,30015.0,0.003111,-0.0013419999999999999,-0.0060999999999999995,0.14,-1.54,-3.5000000000000004,0.97559375,0.100625,0.11590625,1.24325,0.95378125,-0.33490625,-0.377875,1.2201875,0.017897387626056707,0.02025530322064577,True
37805,463,0,464,5381.0,44681.0,30014.0,-0.001464,0.000488,0.000244,0.4025,-1.1900000000000002,-3.5175000000000005,0.98540625,0.10065625,0.1123125,1.23178125,0.9528125000000001,-0.333,-0.37790625,1.2160625,0.017821733859367937,0.020109140833208347,True
37806,464,0,465,5381.0,44682.0,30016.0,-0.008113,0.001586,0.0030499999999999998,0.56,-0.7350000000000001,-3.7275000000000005,0.9851562500000001,0.09575,0.1066875,1.240375,0.95303125,-0.33628125000000003,-0.3811875,1.21571875,0.017752558230317135,0.020010305076403685,True
37807,465,0,466,5381.0,44684.0,30016.0,-0.004697,0.00061,0.0026839999999999998,0.49000000000000005,-0.8750000000000001,-3.4650000000000003,0.9695312500000001,0.10146875,0.11384375000000001,1.239875,0.94815625,-0.3325625,-0.37809375,1.2145625,0.017837465741637363,0.020179490039084782,True
37808,466,0,467,5379.0,44685.0,30018.0,-0.00122,-0.000488,0.000793,0.43750000000000006,-1.12,-3.3775000000000004,0.9883125,0.10003125,0.11196875,1.23215625,0.95315625,-0.3325,-0.37721875,1.21528125,0.017775865611836025,0.02006740412090694,True
37809,467,0,468,5380.0,44684.0,30016.0,0.000305,0.000488,-0.000976,0.3325,-1.3650000000000002,-3.6050000000000004,0.97959375,0.09628125,0.1105,1.23103125,0.94253125,-0.3345,-0.3770625,1.21721875,0.017702490291561363,0.02000087172111078,True
37810,468,0,469,5379.0,44683.0,30014.0,0.002745,0.000244,-0.001647,0.31500000000000006,-1.3825,-3.6575,0.97521875,0.10046875,0.11225,1.238875,0.94946875,-0.3321875,-0.3770625,1.2174375,0.017781231136740173,0.02007266051846895,True
37811,469,0,470,5378.0,44682.0,30015.0,0.003477,-0.0017079999999999999,-0.001037,0.1925,-1.5225000000000002,-3.535,0.98346875,0.1004375,0.11403125,1.23353125,0.9531875,-0.33228125000000003,-0.37178125,1.2163125000000001,0.017783731231530132,0.019933401461987927,True
37812,470,0,471,5378.0,44683.0,30014.0,0.004331,-0.000976,-0.000732,0.10500000000000001,-1.3475000000000001,-3.4825000000000004,0.9775312500000001,0.096125,0.10993750000000001,1.24071875,0.9479062500000001,-0.33453125,-0.37859375,1.2220625,0.017697330824895177,0.020039353172288703,True
37813,471,0,472,5378.0,44682.0,30012.0,0.0035989999999999998,0.000793,0.000244,0.24500000000000002,-1.0150000000000001,-3.4825000000000004,0.982875,0.09896875000000001,0.111375,1.233125,0.94778125,-0.33190625,-0.37775000000000003,1.2165,0.01770823032001449,0.02006440299043185,True
37814,472,0,473,5377.0,44680.0,30014.0,0.0015249999999999999,-0.000732,-0.000122,0.28,-0.7175,-3.4650000000000003,0.97809375,0.10025,0.11171875,1.2341875,0.949625,-0.33184375,-0.383625,1.2368125,0.01775836448892205,0.020314606626373233,True
37815,473,0,474,5378.0,44680.0,30014.0,-0.001098,0.000122,0.002257,0.42000000000000004,-0.24500000000000002,-3.5175000000000005,0.9774375000000001,0.10003125,0.11203125,1.24159375,0.9443125,-0.32990625,-0.37134375000000003,1.20875,0.017671153171829424,0.01983374429241309,True
37816,474,0,475,5379.0,44683.0,30014.0,-0.0042699999999999995,0.001952,6.1e-05,0.43750000000000006,-0.052500000000000005,-3.4825000000000004,0.98446875,0.0968125,0.11053125,1.23471875,0.96278125,-0.3360625,-0.38906250000000003,1.2126875,0.017787388572000913,0.020484335960023064,True
37817,475,0,476,5377.0,44682.0,30017.0,-0.0013419999999999999,0.002013,-0.000366,0.45500000000000007,0.29750000000000004,-3.3600000000000003,0.97784375,0.1001875,0.10921875,1.2413125,0.93059375,-0.32628125,-0.37903125,1.2331875,0.01753119375777997,0.020027456997496567,True
37818,476,0,477,5377.0,44682.0,30017.0,-0.000244,-0.002257,0.0021349999999999997,0.385,0.6300000000000001,-3.2900000000000005,0.978,0.1080625,0.11121875,1.23284375,0.97246875,-0.34128125,-0.3806875,1.21034375,0.018460151928115943,0.02017606148308984,True
37819,477,0,478,5377.0,44679.0,30016.0,-0.00488,-0.003538,0.000976,0.5950000000000001,0.3325,-3.3425000000000002,0.97759375,0.10065625,0.11178125,1.232875,0.94334375,-0.33137500000000003,-0.37409375,1.19753125,0.017756137908359063,0.0199340744719996,True
37820,478,0,479,5376.0,44679.0,30015.0,-0.006954,0.0018909999999999999,-0.003721,0.665,-0.3325,-3.4825000000000004,0.98284375,0.0964375,0.110875,1.234,0.93471875,-0.3343125,-0.38375000000000004,1.21771875,0.01770134249734814,0.02028502588814272,True
37821,479,0,480,5376.0,44682.0,30018.0,0.001098,6.1e-05,-0.0006709999999999999,0.3325,-0.5075000000000001,-3.5175000000000005,0.97809375,0.100875,0.107625,1.24028125,0.940875,-0.3285625,-0.37103125000000003,1.2368125,0.017651577235605266,0.019640377343490542,True
37822,480,0,481,5375.0,44680.0,30016.0,0.003355,-0.0025009999999999998,-0.00061,0.24500000000000002,-0.665,-3.3425000000000002,0.97940625,0.10096875,0.11084375,1.2396562500000001,0.9745625,-0.33240625,-0.37215625,1.207875,0.017810610078894274,0.019817696679997283,True
37823,481,0,482,5376.0,44679.0,30015.0,0.0050019999999999995,-0.001769,0.0011589999999999999,0.22750000000000004,-0.45500000000000007,-3.4475000000000002,0.98584375,0.09634375,0.111,1.22978125,0.9645312500000001,-0.3420625,-0.38196875,1.205875,0.018010234342303574,0.020218578534598443,True
37824,482,0,483,5375.0,44678.0,30015.0,0.00793,-0.000488,0.0017079999999999999,0.28,0.15750000000000003,-3.4475000000000002,0.97040625,0.10053125,0.11028125,1.2375625000000001,0.93575,-0.3279375,-0.37453125,1.22428125,0.017612210241825885,0.019890126092168437,True
37825,483,0,484,5375.0,44678.0,30015.0,0.004758,-0.00122,0.003965,0.47250000000000003,0.43750000000000006,-3.4475000000000002,0.98503125,0.09690625,0.1135625,1.23903125,0.9579375,-0.33918750000000003,-0.38171875,1.23340625,0.01791735036348276,0.020313631499009888,True
37826,484,0,485,5374.0,44679.0,30016.0,-0.008662,0.0023179999999999997,-0.002379,0.7350000000000001,-0.21000000000000002,-3.5700000000000003,0.97809375,0.0995625,0.11096875,1.23178125,0.95828125,-0.3326875,-0.37728125,1.21446875,0.01776417011067931,0.02002889473164691,True
37827,485,0,486,5375.0,44682.0,30018.0,-0.006161,0.002257,-0.001586,0.5950000000000001,-0.35000000000000003,-3.7450000000000006,0.977625,0.0991875,0.111,1.2358125,0.94065625,-0.3320625,-0.37553125,1.21275,0.01772352836920421,0.019959821388508197,True
37828,486,0,487,5377.0,44681.0,30018.0,-0.003355,0.00061,0.000183,0.56,-0.49000000000000005,-3.6750000000000003,0.983625,0.09659375,0.10728125000000001,1.23728125,0.945875,-0.33165625,-0.37815625,1.21684375,0.017600528118590364,0.019912806162278987,True
37829,487,0,488,5376.0,44682.0,30021.0,-0.003965,-0.002196,0.000366,0.45500000000000007,-0.8400000000000001,-3.7450000000000006,0.982625,0.09884375000000001,0.10971875,1.23971875,0.9493125,-0.33309375,-0.37821875,1.2160625,0.01775103093908887,0.020015305671174193,True
37830,488,0,489,5375.0,44683.0,30020.0,0.003904,-0.001098,-0.001037,0.4025,-1.2600000000000002,-3.6925000000000003,0.9845,0.0978125,0.11259375,1.2336875,0.94934375,-0.33578125000000003,-0.37884375000000003,1.21771875,0.017817128841918727,0.02015835964328702,True
37831,489,0,490,5374.0,44681.0,30020.0,0.00488,0.0021349999999999997,-0.003965,0.4025,-1.9250000000000003,-4.0075,0.97340625,0.100375,0.11115625,1.2346875,0.9485,-0.332,-0.377125,1.2155,0.01776980930461943,0.020030305050328948,True
37832,490,0,491,5374.0,44679.0,30021.0,0.005673,0.0017079999999999999,-0.00061,0.42000000000000004,-1.6800000000000002,-3.9550000000000005,0.97846875,0.0990625,0.11184375,1.23853125,0.94825,-0.33240625,-0.3776875,1.21534375,0.017732268053020857,0.020081119261209663,True
37833,491,0,492,5375.0,44681.0,30021.0,0.002623,0.000244,0.000488,0.3325,-1.2950000000000002,-3.9200000000000004,0.981375,0.10346875,0.10940625,1.2395,0.948625,-0.33278125000000003,-0.37690625,1.2178125,0.01792848895972383,0.019949721880724712,True
37834,492,0,493,5376.0,44679.0,30022.0,-0.001098,-0.00244,0.0008539999999999999,0.29750000000000004,-0.8925000000000001,-3.8325000000000005,0.9832500000000001,0.09940625,0.11071875,1.23378125,0.9565625,-0.33496875,-0.37815625,1.2219375000000001,0.0178498277299,0.0200538135446564,True
37835,493,0,494,5373.0,44680.0,30022.0,-0.001464,0.0021349999999999997,0.001647,0.49000000000000005,-0.77,-3.9200000000000004,0.978,0.1011875,0.11165625,1.2336562500000001,0.95459375,-0.33346875,-0.37928125,1.2206875,0.017862486210479134,0.02013748867186148,True
37836,494,0,495,5375.0,44678.0,30022.0,-0.000183,0.000732,0.000305,0.43750000000000006,-1.05,-3.8150000000000004,0.9725625,0.100875,0.11625,1.233875,0.9500625,-0.32765625,-0.37665625,1.2158437500000001,0.017614982947648315,0.020220420920116968,True
37837,495,0,496,5374.0,44677.0,30021.0,0.000549,-0.0015249999999999999,-0.000244,0.2625,-1.0675000000000001,-3.6750000000000003,0.9802500000000001,0.09828125,0.10834375,1.25140625,0.9438125,-0.3316875,-0.37796875,1.21609375,0.017671143853051706,0.019948852383363566,True
37838,496,0,497,5374.0,44679.0,30021.0,0.000793,-0.001403,-0.0008539999999999999,0.1925,-1.05,-3.7100000000000004,0.9899375,0.096625,0.11659375,1.2311875,0.9489375,-0.33421875,-0.38040625,1.2240625,0.01770526329307367,0.0203852222519877,True
37839,497,0,498,5374.0,44681.0,30021.0,-0.001769,-0.00061,-0.000183,0.43750000000000006,-0.9975,-3.7100000000000004,0.9701875,0.1079375,0.113375,1.22903125,0.9545,-0.3321875,-0.37665625,1.2160312500000001,0.018088180522199248,0.020102480216087883,True
37840,498,0,499,5373.0,44680.0,30022.0,-0.00183,0.001647,-0.001403,0.42000000000000004,-1.1025,-3.7800000000000002,0.97475,0.0984375,0.10921875,1.2355625000000001,0.94878125,-0.33209375,-0.37675000000000003,1.2155,0.017693966430652935,0.01993574820269314,True
37841,499,0,500,5375.0,44681.0,30023.0,-0.000549,0.000732,-0.001037,0.35000000000000003,-1.2075,-3.7275000000000005,0.992375,0.0980625,0.10875,1.24134375,0.9491875000000001,-0.33515625,-0.37796875,1.22309375,0.017802176634883943,0.019965517020362904,True
37842,500,0,501,5374.0,44679.0,30025.0,-0.000122,-0.00042699999999999997,-0.000488,0.4025,-1.1900000000000002,-3.7275000000000005,0.98253125,0.10303125,0.11440625,1.2274375,0.9553125,-0.33421875,-0.377625,1.22325,0.017968524261745614,0.02018372380410315,True
37843,501,0,502,5373.0,44682.0,30022.0,0.0,-0.000976,0.0011589999999999999,0.36750000000000005,-1.225,-3.7100000000000004,0.969,0.10121875,0.11534375000000001,1.24878125,0.9476875,-0.33203125,-0.37678125,1.21625,0.017805747310964844,0.020188268293214472,True
37844,502,0,503,5375.0,44682.0,30023.0,0.0017079999999999999,0.000305,0.001586,0.28,-1.2775,-3.6750000000000003,0.9943125,0.0963125,0.113,1.2270625,0.9490000000000001,-0.3329375,-0.37865625,1.2235,0.01764069792231209,0.020167487697358218,True
37845,503,0,504,5373.0,44681.0,30023.0,0.0011589999999999999,-0.000366,-0.0015249999999999999,0.28,-1.3475000000000001,-3.7800000000000002,0.9707187500000001,0.10225000000000001,0.1089375,1.246875,0.94965625,-0.32709375,-0.37784375000000003,1.2159375000000001,0.01764878922292146,0.01996818319913959,True
37846,504,0,505,5374.0,44680.0,30022.0,0.00061,-0.001098,-0.00122,0.31500000000000006,-1.4000000000000001,-3.8150000000000004,0.9965,0.09428125,0.11465625,1.2276562500000001,0.9485625,-0.33337500000000003,-0.38009375,1.22134375,0.017574884289581698,0.020293195139989978,True
37847,505,0,506,5374.0,44680.0,30022.0,0.0008539999999999999,-0.000793,-0.000244,0.22750000000000004,-1.435,-3.9200000000000004,0.9811875,0.09659375,0.11056250000000001,1.2281250000000001,0.94896875,-0.3320625,-0.378,1.211125,0.017616930336259,0.020041123143818198,True
37848,506,0,507,5373.0,44678.0,30022.0,-0.000732,-0.000488,-0.000549,0.36750000000000005,-1.54,-3.8325000000000005,0.97084375,0.09815625,0.11118750000000001,1.2358437500000001,0.9530625,-0.332125,-0.3778125,1.22265625,0.01768366922330047,0.020059223935699727,True
37849,507,0,508,5373.0,44678.0,30021.0,-0.000793,0.001586,0.0,0.45500000000000007,-1.3475000000000001,-3.7275000000000005,0.97021875,0.10190625,0.11321875,1.23271875,0.95746875,-0.3344375,-0.3773125,1.2158437500000001,0.01793112127617497,0.02012244992141771,True
37850,508,0,509,5374.0,44683.0,30024.0,-0.003172,0.000549,0.000488,0.43750000000000006,-1.0325000000000002,-3.8675,0.9738125,0.10440625,0.11071875,1.22990625,0.9489375,-0.33265625,-0.37715625,1.2162187500000001,0.01796197240077314,0.020013614180284054,True
37851,509,0,510,5374.0,44680.0,30024.0,-0.001647,-0.000976,0.000976,0.29750000000000004,-1.1025,-3.7975000000000003,0.98271875,0.0978125,0.1089375,1.23890625,0.9490625,-0.3320625,-0.3774375,1.21753125,0.01766701856860675,0.01995185096874928,True
37852,510,0,511,5374.0,44680.0,30024.0,-0.00042699999999999997,0.0,0.00122,0.28,-1.2950000000000002,-3.6925000000000003,0.9846875,0.098625,0.11146875,1.23353125,0.9557187500000001,-0.33346875,-0.37865625,1.22190625,0.017757178577345246,0.02010467660620138,True
37853,511,0,512,5374.0,44681.0,30024.0,0.000976,0.000549,-0.000732,0.2625,-1.7500000000000002,-3.6225000000000005,0.9782500000000001,0.1006875,0.11128125,1.2340625,0.95425,-0.33403125,-0.37684375000000003,1.2138125,0.017864641724745053,0.020024126380184065,True
37854,512,0,513,5376.0,44678.0,30027.0,0.001769,0.000244,-0.002379,0.3325,-2.0825,-3.7100000000000004,0.9780625000000001,0.09615625,0.110125,1.24053125,0.948375,-0.33121875,-0.378875,1.223125,0.017564882564709176,0.020058349698253097,True
37855,513,0,514,5374.0,44680.0,30026.0,0.001952,0.0008539999999999999,0.00122,0.42000000000000004,-1.7850000000000001,-3.8325000000000005,0.98040625,0.10075,0.112,1.23496875,0.94784375,-0.33487500000000003,-0.37725000000000003,1.21134375,0.017901263104906025,0.020069942261739943,True
37856,514,0,515,5375.0,44681.0,30028.0,0.0021349999999999997,-0.0013419999999999999,0.001647,0.3325,-1.5575,-3.8150000000000004,0.977,0.09715625,0.11118750000000001,1.23059375,0.9489375,-0.33309375,-0.379625,1.2215625,0.017681680941207898,0.020132077503242973,True
37857,515,0,516,5375.0,44682.0,30030.0,0.000305,-0.002074,-0.00061,0.31500000000000006,-1.54,-3.6400000000000006,0.97790625,0.10046875,0.10790625000000001,1.24059375,0.9483125,-0.332125,-0.37725000000000003,1.2162187500000001,0.017778708189276522,0.019902009045318896,True
37858,516,0,517,5376.0,44680.0,30030.0,0.0023179999999999997,-0.000244,-0.00061,0.31500000000000006,-1.3125000000000002,-3.5525,0.98621875,0.100125,0.1164375,1.23396875,0.95709375,-0.335,-0.380625,1.21809375,0.017880624614752417,0.02038760286087826,True
37859,517,0,518,5374.0,44680.0,30030.0,0.0008539999999999999,6.1e-05,0.001769,0.4025,-1.155,-3.5175000000000005,0.977625,0.1008125,0.11175,1.23409375,0.94934375,-0.332,-0.37703125,1.216875,0.01778778974190367,0.02005089319479787,True
37860,518,0,519,5376.0,44682.0,30030.0,-0.003172,-0.000793,0.000244,0.45500000000000007,-0.8400000000000001,-3.5875000000000004,0.97778125,0.09990625,0.1115,1.2338437500000001,0.93953125,-0.332125,-0.37684375000000003,1.21659375,0.017755590602958022,0.02003310006038005,True
37861,519,0,520,5375.0,44680.0,30029.0,-0.004697,0.001037,-0.000183,0.42000000000000004,-0.9625000000000001,-3.4650000000000003,0.9635312500000001,0.0999375,0.11521875000000001,1.23415625,0.9489062500000001,-0.3319375,-0.37653125,1.21578125,0.017749305824906053,0.02017309169039381,True
37862,520,0,521,5377.0,44680.0,30031.0,-0.003172,0.0021349999999999997,-0.000122,0.45500000000000007,-1.05,-3.43,0.9708125,0.1000625,0.111125,1.233375,0.94615625,-0.33215625,-0.37715625,1.21625,0.01776327365150797,0.020030279372722157,True
37863,521,0,522,5376.0,44682.0,30028.0,-0.002379,0.0017079999999999999,-0.000976,0.3325,-1.3475000000000001,-3.535,0.9709375,0.1001875,0.11425,1.2340312500000001,0.9446875,-0.33146875000000003,-0.3766875,1.21625,0.017740657353453027,0.020139631358854646,True
37864,522,0,523,5376.0,44680.0,30027.0,0.001037,6.1e-05,0.000366,0.3325,-1.54,-3.7100000000000004,0.974375,0.09959375000000001,0.11190625,1.24021875,0.9484375,-0.33137500000000003,-0.379125,1.221875,0.017712470010428923,0.020141463239554333,True
37865,523,0,524,5373.0,44678.0,30027.0,0.003904,-0.001281,0.000244,0.28,-2.0125,-3.7100000000000004,0.9841875,0.10400000000000001,0.10809375,1.23709375,0.95434375,-0.33625,-0.378,1.2064062500000001,0.018090297395860086,0.019939853556485355,True
37866,524,0,525,5374.0,44679.0,30025.0,0.004209,0.0,0.00042699999999999997,0.1925,-1.7675,-3.7275000000000005,0.98028125,0.09790625,0.11009375,1.23396875,0.9480000000000001,-0.33237500000000003,-0.3779375,1.21634375,0.01768348753461181,0.020019382279571434,True
37867,525,0,526,5374.0,44680.0,30026.0,0.002379,0.000183,-0.001098,0.29750000000000004,-1.4875,-3.7800000000000002,0.97365625,0.09809375000000001,0.11034375,1.2345625,0.9490937500000001,-0.32584375,-0.37903125,1.21675,0.017427453055970564,0.020073603211776512,True
37868,526,0,527,5373.0,44680.0,30026.0,-0.000183,-0.000793,0.000122,0.385,-1.33,-3.6925000000000003,0.97765625,0.10078125,0.11175,1.2346875,0.94853125,-0.33215625,-0.37709375,1.21596875,0.017792812751644235,0.020053405669000227,True
37869,527,0,528,5374.0,44679.0,30026.0,-0.003111,0.000183,0.0,0.29750000000000004,-1.155,-3.6925000000000003,0.9765625,0.10090625,0.1126875,1.235625,0.9489062500000001,-0.33303125,-0.3765,1.22084375,0.01783326933425115,0.020067995815642115,True
37870,528,0,529,5372.0,44679.0,30025.0,-0.004209,0.001281,0.00061,0.36750000000000005,-1.1375000000000002,-3.6925000000000003,0.9823437500000001,0.09871875000000001,0.11128125,1.23690625,0.9551875,-0.3338125,-0.38040625,1.2235625,0.017774906829745647,0.020167321863227772,True
37871,529,0,530,5371.0,44679.0,30027.0,-0.0023179999999999997,-0.000366,-6.1e-05,0.3325,-1.225,-3.6750000000000003,0.981375,0.10221875,0.1175625,1.23725,0.9559062500000001,-0.3333125,-0.3810625,1.211125,0.0178985598446574,0.02045132364514467,True
37872,530,0,531,5369.0,44680.0,30029.0,0.000122,6.1e-05,-0.001281,0.24500000000000002,-1.2775,-3.5875000000000004,0.9821875,0.10015625,0.110125,1.234625,0.95340625,-0.337,-0.380875,1.21775,0.01796261864650532,0.020138735791886058,True
37873,531,0,532,5370.0,44678.0,30026.0,0.002989,-0.0006709999999999999,-0.001281,0.1925,-1.3650000000000002,-3.6925000000000003,0.979,0.10121875,0.11143750000000001,1.2329375,0.9461875000000001,-0.33278125000000003,-0.37746875,1.21465625,0.017836021108355627,0.020055661029203455,True
37874,532,0,533,5368.0,44678.0,30027.0,0.003538,-0.000732,0.0,0.15750000000000003,-1.4525000000000001,-3.7275000000000005,0.9783437500000001,0.101,0.1115,1.234875,0.9478125000000001,-0.33096875000000003,-0.3770625,1.2135625,0.017753865636772066,0.020041893891029734,True
37875,533,0,534,5368.0,44678.0,30023.0,0.000915,-0.001098,0.000793,0.31500000000000006,-1.54,-3.7450000000000006,0.97740625,0.10059375,0.11153125,1.2284375,0.9455,-0.33084375,-0.3756875,1.2138125,0.01773212242177175,0.01998789777724218,True
37876,534,0,535,5369.0,44678.0,30024.0,0.0013419999999999999,0.001769,0.001281,0.3325,-1.2950000000000002,-3.7100000000000004,0.97303125,0.106125,0.112625,1.2261250000000001,0.952875,-0.3324375,-0.37890625,1.21909375,0.01802377998505082,0.0201621535010415,True
37877,535,0,536,5369.0,44675.0,30023.0,-0.00061,0.000244,0.00122,0.3325,-1.1900000000000002,-3.5525,0.96328125,0.10403125,0.11375,1.2296875,0.9385625,-0.3329375,-0.37540625,1.2135625,0.017957911986581976,0.02006761425771109,True
37878,536,0,537,5366.0,44678.0,30027.0,-0.0026839999999999998,0.00042699999999999997,-0.001586,0.45500000000000007,-1.2425000000000002,-3.4825000000000004,0.9723125,0.09884375000000001,0.113,1.2230625,0.946875,-0.3316875,-0.37584375000000003,1.213375,0.017694261855039854,0.020054434013181594,True
37879,537,0,538,5367.0,44680.0,30027.0,-0.004575,0.000793,-0.000976,0.47250000000000003,-1.155,-3.6050000000000004,0.9666875,0.09790625,0.1085,1.23025,0.941875,-0.32628125,-0.375375,1.21446875,0.017437416580061947,0.019850976651641258,True
37880,538,0,539,5366.0,44677.0,30027.0,-0.001281,-0.000183,-0.000366,0.42000000000000004,-1.12,-3.6400000000000006,0.9699375,0.1003125,0.10965625,1.2370625,0.9462812500000001,-0.33159375,-0.37615625,1.21415625,0.017750840920562387,0.01992982384168956,True
37881,539,0,540,5366.0,44679.0,30029.0,-0.001281,-0.001037,0.001037,0.35000000000000003,-1.1725,-3.6575,0.9774375000000001,0.10515625,0.11378125,1.22259375,0.9440000000000001,-0.327125,-0.3751875,1.21275,0.01776951653760977,0.020060102101778707,True
37882,540,0,541,5365.0,44680.0,30026.0,-0.000976,-0.00061,0.001281,0.35000000000000003,-1.3650000000000002,-3.5875000000000004,0.96459375,0.1044375,0.1074375,1.2473125,0.951375,-0.33575,-0.38203125,1.22753125,0.018088100839300205,0.02007497837162357,True
37883,541,0,542,5364.0,44679.0,30029.0,0.001281,0.00061,0.0008539999999999999,0.28,-1.4875,-3.8150000000000004,1.0050625,0.0905,0.1081875,1.22503125,0.94721875,-0.331,-0.37653125,1.21215625,0.01732357897332621,0.019884648272095726,True
37884,542,0,543,5365.0,44680.0,30029.0,0.0026839999999999998,-0.000244,0.0018909999999999999,0.24500000000000002,-1.5925000000000002,-3.7800000000000002,0.9656250000000001,0.09531250000000001,0.1036875,1.25046875,0.948125,-0.33515625,-0.3805625,1.21596875,0.01768917140197117,0.019862134025824877,True
37885,543,0,544,5365.0,44678.0,30028.0,0.003355,-0.000122,-0.00061,0.24500000000000002,-1.8375000000000001,-3.7625,0.971,0.10337500000000001,0.11375,1.24878125,0.94940625,-0.33075,-0.37996875,1.21284375,0.017842647678349415,0.02025100011664289,True
37886,544,0,545,5364.0,44679.0,30027.0,0.0030499999999999998,0.0,-0.003294,0.385,-1.6800000000000002,-3.7275000000000005,0.99946875,0.099875,0.11671875,1.23428125,0.94871875,-0.33165625,-0.37293750000000003,1.22309375,0.017735383303386917,0.020090161475201748,True
37887,545,0,546,5365.0,44677.0,30028.0,0.0008539999999999999,0.000183,-0.001464,0.31500000000000006,-1.2600000000000002,-3.6750000000000003,0.9815625,0.097,0.11509375000000001,1.2345625,0.9535625,-0.33303125,-0.374875,1.22109375,0.017672736519417406,0.020101385135308385,True
37888,546,0,547,5363.0,44680.0,30028.0,-0.002989,0.000244,-0.000549,0.31500000000000006,-0.9100000000000001,-3.5525,0.9772500000000001,0.101375,0.111375,1.24209375,0.9561875,-0.32734375,-0.37696875,1.2220312500000001,0.017622916599762353,0.02003299733483065,True
37889,547,0,548,5364.0,44679.0,30029.0,-0.005307,0.00042699999999999997,0.001586,0.385,-0.665,-3.6575,0.9811875,0.10115625,0.11156250000000001,1.2345625,0.95709375,-0.33203125,-0.37725000000000003,1.215125,0.01780317868036603,0.020051995200443037,True
37890,548,0,549,5361.0,44683.0,30028.0,-0.0017079999999999999,0.0011589999999999999,0.0006709999999999999,0.35000000000000003,-1.1025,-3.4650000000000003,0.98428125,0.09909375000000001,0.11003125,1.23378125,0.952125,-0.3346875,-0.379125,1.2165625,0.017825634703548175,0.0200645531781801,True
37891,549,0,550,5364.0,44680.0,30027.0,0.000976,-0.000183,0.00042699999999999997,0.3325,-1.1900000000000002,-3.4650000000000003,0.97796875,0.10075,0.11196875,1.23921875,0.9373125,-0.3319375,-0.3774375,1.2155625,0.017782698151349436,0.020076197508454283,True
37892,550,0,551,5363.0,44678.0,30028.0,0.0,-0.000366,-0.000488,0.385,-1.3125000000000002,-3.5525,0.97921875,0.10140625,0.108125,1.2349375,0.94846875,-0.33090625,-0.38134375,1.21709375,0.01776803936351528,0.020075544441638907,True
37893,551,0,552,5363.0,44681.0,30028.0,0.0008539999999999999,-0.001098,0.0,0.31500000000000006,-1.2600000000000002,-3.4475000000000002,0.97765625,0.10053125,0.11246875,1.23734375,0.9479375,-0.330625,-0.37684375000000003,1.2197500000000001,0.01772072234067148,0.02007284064410513,True
37894,552,0,553,5362.0,44679.0,30027.0,0.001769,-0.000793,0.000183,0.21000000000000002,-1.2600000000000002,-3.4825000000000004,0.9833437500000001,0.1008125,0.11771875,1.23309375,0.95575,-0.331625,-0.371125,1.21571875,0.017772651847133107,0.020058316963209536,True
37895,553,0,554,5361.0,44679.0,30025.0,0.001403,-0.000488,6.1e-05,0.36750000000000005,-1.5050000000000001,-3.4125000000000005,0.97759375,0.10115625,0.11196875,1.23371875,0.94928125,-0.32996875000000003,-0.376375,1.21628125,0.01771991589590513,0.020033485290573354,True
37896,554,0,555,5362.0,44682.0,30027.0,0.001281,0.000488,0.0,0.36750000000000005,-1.61,-3.5175000000000005,0.978,0.10103125,0.11109375,1.2337500000000001,0.9419375,-0.33125,-0.37640625,1.2164375,0.017766503981505265,0.01999884622041036,True
37897,555,0,556,5362.0,44681.0,30026.0,-0.001769,0.000305,-0.000244,0.43750000000000006,-1.6975000000000002,-3.5525,0.9795312500000001,0.09734375,0.10946875,1.23971875,0.9519062500000001,-0.3313125,-0.37746875,1.2216875,0.017617473368935606,0.019974899978079146,True
37898,556,0,557,5363.0,44681.0,30027.0,-0.0011589999999999999,0.001586,-0.000244,0.47250000000000003,-1.5750000000000002,-3.5700000000000003,0.98459375,0.096625,0.11103125,1.23409375,0.9543125,-0.33546875,-0.37921875,1.216,0.01775571921128497,0.02010934005011953,True
37899,557,0,558,5362.0,44681.0,30029.0,-0.00183,0.000244,0.000244,0.42000000000000004,-1.4000000000000001,-3.4650000000000003,0.9786875,0.099875,0.11093750000000001,1.234625,0.94925,-0.3324375,-0.37728125,1.21559375,0.017766921213709066,0.02002761280034048,True
37900,558,0,559,5362.0,44681.0,30027.0,-0.0011589999999999999,-0.000976,-0.000122,0.45500000000000007,-1.4525000000000001,-3.5175000000000005,0.977625,0.1005,0.11696875,1.2357500000000001,0.94859375,-0.32771875,-0.37784375000000003,1.2158437500000001,0.01760209226358308,0.020297631942939993,True
37901,559,0,560,5363.0,44680.0,30029.0,-0.000732,0.000305,-0.0006709999999999999,0.35000000000000003,-1.5050000000000001,-3.5875000000000004,0.97996875,0.100875,0.11134375,1.2338437500000001,0.9496875,-0.33253125,-0.377,1.2161250000000001,0.01781180287192686,0.02003297165360791,True
37902,560,0,561,5362.0,44682.0,30029.0,0.000549,-0.000244,-0.000488,0.31500000000000006,-1.5575,-3.5700000000000003,0.97746875,0.10175000000000001,0.1129375,1.23353125,0.9471875000000001,-0.33171875,-0.3798125,1.2195625,0.017814966318398694,0.020211394160640078,True
37903,561,0,562,5360.0,44679.0,30029.0,0.00122,-0.00042699999999999997,-0.000488,0.22750000000000004,-1.5750000000000002,-3.5700000000000003,0.980875,0.10334375,0.10909375,1.240375,0.95096875,-0.3340625,-0.38,1.22278125,0.017975060678832398,0.020061269483182938,True
37904,562,0,563,5361.0,44682.0,30028.0,0.002074,-0.0006709999999999999,-0.000732,0.07,-1.435,-3.6225000000000005,0.9856875,0.09890625,0.1074375,1.24059375,0.9554375,-0.33290625,-0.37996875,1.2211875,0.017746030645229647,0.01999207853783652,True
37905,563,0,564,5360.0,44678.0,30026.0,0.0030499999999999998,-0.000976,0.00061,0.22750000000000004,-1.2075,-3.5175000000000005,0.97871875,0.1019375,0.11096875,1.2395,0.949625,-0.33275,-0.3773125,1.21646875,0.017864298116735674,0.020030150985675718,True
37906,564,0,565,5360.0,44678.0,30024.0,0.002928,-0.00042699999999999997,0.000305,0.17500000000000002,-0.9975,-3.2900000000000005,0.9809687500000001,0.0986875,0.1083125,1.24009375,0.94921875,-0.33225,-0.3784375,1.22121875,0.01771054875730769,0.019966414992757434,True
37907,565,0,566,5361.0,44679.0,30026.0,-0.000915,-0.000549,0.000183,0.3325,-0.8400000000000001,-3.2375000000000003,0.9804375000000001,0.10071875,0.11403125,1.23359375,0.9511875000000001,-0.3323125,-0.37715625,1.21659375,0.017796551396419884,0.0201494995955486,True
37908,566,0,567,5359.0,44681.0,30028.0,-0.0017079999999999999,0.001281,-0.0008539999999999999,0.42000000000000004,-0.7000000000000001,-3.325,0.97721875,0.1011875,0.11109375,1.22675,0.94875,-0.3311875,-0.37659375,1.21678125,0.017770402698183144,0.020006384197956285,True
37909,567,0,568,5360.0,44680.0,30028.0,-0.004697,0.00061,0.000488,0.385,-0.31500000000000006,-3.43,0.97690625,0.10028125,0.111,1.233625,0.94225,-0.33284375,-0.37725000000000003,1.20959375,0.01780001566812346,0.020028920407347016,True
37910,568,0,569,5360.0,44681.0,30029.0,-0.0050019999999999995,0.000244,0.000366,0.42000000000000004,-0.6475000000000001,-3.3425000000000002,0.97759375,0.09740625,0.11025,1.24040625,0.9440937500000001,-0.3398125,-0.38575,1.23221875,0.017963110849765172,0.020339747598495023,True
37911,569,0,570,5358.0,44682.0,30032.0,-0.0030499999999999998,0.00042699999999999997,-0.00061,0.42000000000000004,-0.9625000000000001,-3.4125000000000005,0.98559375,0.099875,0.115625,1.2339375000000001,0.95228125,-0.3355,-0.37378125,1.21075,0.017890530295247686,0.020079209088659563,True
37912,570,0,571,5360.0,44680.0,30029.0,-0.000305,0.000976,0.0,0.35000000000000003,-1.1900000000000002,-3.3950000000000005,0.9778125,0.10115625,0.11246875,1.23459375,0.9355625000000001,-0.329,-0.3736875,1.21109375,0.01768080274569444,0.019945945807338345,True
37913,571,0,572,5360.0,44680.0,30030.0,0.001098,-0.001464,-0.0008539999999999999,0.385,-1.3475000000000001,-3.4125000000000005,0.9778125,0.10140625,0.11159375,1.23471875,0.9415625,-0.32928125,-0.3745,1.2020625,0.017702434181034427,0.019942716773677406,True
37914,572,0,573,5361.0,44679.0,30031.0,0.0040869999999999995,-0.000488,0.000244,0.22750000000000004,-1.4875,-3.4475000000000002,0.9772500000000001,0.100625,0.11221875,1.23459375,0.941125,-0.32975,-0.371,1.21365625,0.017689248759235093,0.01982761273644906,True
37915,573,0,574,5359.0,44680.0,30031.0,0.0032329999999999998,-0.001037,0.0006709999999999999,0.15750000000000003,-1.4175000000000002,-3.43,0.9761562500000001,0.09740625,0.10953125,1.2396875,0.96409375,-0.33725,-0.38371875,1.22846875,0.01785971093693823,0.02022866179917696,True
37916,574,0,575,5359.0,44680.0,30028.0,0.002074,-0.000183,-0.001037,0.3325,-1.435,-3.4650000000000003,0.9851875,0.09925,0.11178125,1.2348125,0.95996875,-0.325,-0.373625,1.2105625,0.017440904419321685,0.019915225987106964,True
37917,575,0,576,5361.0,44681.0,30030.0,0.000549,0.000488,-0.000305,0.35000000000000003,-1.3125000000000002,-3.5175000000000005,0.9781562500000001,0.101125,0.11596875000000001,1.2343125,0.94275,-0.33015625,-0.37465625,1.2104375,0.017726201409002457,0.020128488991511418,True
37918,576,0,577,5360.0,44681.0,30031.0,0.000122,0.000366,0.00061,0.35000000000000003,-1.155,-3.5000000000000004,0.9783437500000001,0.10109375,0.111625,1.23409375,0.942625,-0.32975,-0.37043750000000003,1.21121875,0.01770851529506057,0.01978062560427978,True
37919,577,0,578,5359.0,44680.0,30030.0,-0.004148,0.0,0.001281,0.45500000000000007,-0.5775,-3.43,0.9791562500000001,0.099625,0.11071875,1.24228125,0.9416875,-0.32984375,-0.3796875,1.22825,0.017651932104989373,0.02011536243030187,True
37920,578,0,579,5360.0,44682.0,30030.0,-0.003477,0.001037,-0.0015249999999999999,0.36750000000000005,-0.6125,-3.5000000000000004,0.9855,0.09759375,0.11106250000000001,1.240375,0.96159375,-0.3351875,-0.37853125,1.22296875,0.017784175692091956,0.02008298797738276,True
37921,579,0,580,5360.0,44682.0,30032.0,-0.0034159999999999998,0.001281,-0.000549,0.5075000000000001,-0.7175,-3.4650000000000003,0.98453125,0.0985625,0.11068750000000001,1.2381875,0.9606875,-0.336375,-0.376375,1.2200625,0.017871909846885577,0.019980924152996498,True
37922,580,0,581,5359.0,44682.0,30032.0,-0.0008539999999999999,0.000366,-0.000244,0.5075000000000001,-1.0675000000000001,-3.5700000000000003,0.9839375,0.100125,0.111125,1.2356875,0.9544375,-0.33303125,-0.37709375,1.2160625,0.017801162771284403,0.020027766845668385,True
37923,581,0,582,5359.0,44680.0,30034.0,0.000793,-0.001281,-0.000793,0.35000000000000003,-1.3125000000000002,-3.7275000000000005,0.98028125,0.09825,0.10825,1.2359375000000001,0.94853125,-0.333,-0.38153125,1.2189375,0.01772284551843176,0.020088207134242236,True
37924,582,0,583,5359.0,44682.0,30033.0,0.0023179999999999997,-0.000732,6.1e-05,0.35000000000000003,-1.7500000000000002,-3.7450000000000006,0.978125,0.10065625,0.11134375,1.23353125,0.9486875,-0.33187500000000003,-0.377125,1.21659375,0.01777632221109142,0.020037996687468272,True
37925,583,0,584,5361.0,44681.0,30035.0,0.0040869999999999995,0.001037,-0.000305,0.22750000000000004,-1.5575,-3.5700000000000003,0.977875,0.10187500000000001,0.11275,1.23553125,0.948875,-0.33171875,-0.3760625,1.2180312500000001,0.017820103645575798,0.020052972049936287,True
37926,584,0,585,5361.0,44682.0,30033.0,0.001098,6.1e-05,0.001098,0.3325,-1.225,-3.6925000000000003,0.98375,0.098125,0.11018750000000001,1.24009375,0.9541875,-0.33209375,-0.37809375,1.2234375,0.017681123310648104,0.020029509075130205,True
37927,585,0,586,5362.0,44684.0,30034.0,0.0008539999999999999,0.000244,0.0011589999999999999,0.2625,-1.1725,-3.5525,0.98228125,0.0983125,0.11103125,1.23396875,0.95621875,-0.33,-0.37796875,1.2163125000000001,0.01760429510891903,0.020059095366589966,True
37928,586,0,587,5361.0,44684.0,30035.0,0.0008539999999999999,-0.000793,0.0011589999999999999,0.17500000000000002,-1.0150000000000001,-3.535,0.97865625,0.1015,0.11168750000000001,1.2345625,0.9495,-0.33196875000000003,-0.37671875,1.21665625,0.017814783277658123,0.020035766708757716,True
37929,587,0,588,5361.0,44681.0,30034.0,-0.002928,-0.000122,-0.001098,0.35000000000000003,-0.8750000000000001,-3.5525,0.978375,0.10059375,0.112,1.2345625,0.94996875,-0.33165625,-0.377,1.21215625,0.01776492301053283,0.020059892521639252,True
37930,588,0,589,5362.0,44682.0,30034.0,-0.0030499999999999998,0.0023179999999999997,-0.0021349999999999997,0.525,-0.77,-3.5525,0.97628125,0.101125,0.11234375,1.23378125,0.94928125,-0.33184375,-0.37690625,1.2204375,0.01779432559441781,0.020070225277253956,True
37931,589,0,590,5363.0,44682.0,30037.0,-0.002989,0.002623,-0.0013419999999999999,0.5425000000000001,-0.7175,-3.6575,0.97771875,0.10128125,0.11140625,1.2274375,0.9497187500000001,-0.33159375,-0.37684375000000003,1.212625,0.017790655410724998,0.020029254197438912,True
37932,590,0,591,5363.0,44683.0,30036.0,-0.0023179999999999997,-0.000122,-0.0013419999999999999,0.42000000000000004,-0.5775,-3.6225000000000005,0.9864375,0.1035625,0.10878125,1.24284375,0.956125,-0.3350625,-0.377375,1.2233125,0.01802440408772322,0.019942928637722478,True
37933,591,0,592,5363.0,44683.0,30038.0,-0.0023179999999999997,-0.00061,0.000122,0.3325,-0.7525000000000001,-3.6750000000000003,0.9905,0.09778125,0.1148125,1.2249375,0.95746875,-0.33234375,-0.37728125,1.216,0.017677088751468915,0.020186572282337677,True
37934,592,0,593,5363.0,44684.0,30038.0,0.000732,-6.1e-05,0.001403,0.385,-0.9625000000000001,-3.5525,0.9756250000000001,0.09865625,0.1085625,1.242875,0.94821875,-0.332125,-0.38071875,1.223875,0.017704218188916914,0.020068368575065082,True
37935,593,0,594,5364.0,44681.0,30036.0,0.002013,0.0,6.1e-05,0.35000000000000003,-1.1900000000000002,-3.5700000000000003,0.988625,0.09996875000000001,0.112125,1.23240625,0.95521875,-0.33271875,-0.37746875,1.2161875,0.01778212720269904,0.020083863301024643,True
37936,594,0,595,5364.0,44682.0,30037.0,0.002562,0.000244,0.000915,0.29750000000000004,-1.3475000000000001,-3.5175000000000005,0.97459375,0.10103125,0.108625,1.233125,0.93915625,-0.33203125,-0.379875,1.2168125,0.017798041419168405,0.02003701823737817,True
37937,595,0,596,5362.0,44680.0,30037.0,0.0026839999999999998,-0.001769,0.000305,0.3325,-1.4000000000000001,-3.6225000000000005,0.97503125,0.10178125,0.11475,1.23328125,0.94896875,-0.32965625,-0.3765625,1.2221250000000001,0.0177329879044222,0.020155118261649896,True
37938,596,0,597,5362.0,44681.0,30035.0,0.001952,-0.000366,-0.0011589999999999999,0.22750000000000004,-1.4000000000000001,-3.6925000000000003,0.9779375,0.10159375,0.10971875,1.23671875,0.95440625,-0.33346875,-0.3781875,1.2205625,0.01787918132304914,0.02001404944481619,True
37939,597,0,598,5362.0,44680.0,30036.0,-0.000732,0.00061,-0.00061,0.385,-1.0150000000000001,-3.6225000000000005,0.98578125,0.0966875,0.1064375,1.24434375,0.95553125,-0.33315625,-0.37996875,1.2205625,0.01766494019862302,0.01995106125802561,True
37940,598,0,599,5363.0,44680.0,30036.0,-0.0015249999999999999,0.0006709999999999999,0.000488,0.42000000000000004,-0.8575,-3.5525,0.9835625,0.09556250000000001,0.105375,1.24621875,0.95225,-0.33128125,-0.37321875,1.21571875,0.017543003412530938,0.019636050326754646,True
37941,599,0,600,5362.0,44681.0,30036.0,-0.0023179999999999997,0.00042699999999999997,0.000305,0.43750000000000006,-0.7175,-3.6050000000000004,0.98790625,0.09925,0.11240625,1.231375,0.9493125,-0.32809375,-0.377375,1.216625,0.01756585429139922,0.020091632097385383,True
37942,600,0,601,5362.0,44681.0,30034.0,-0.002257,0.001281,0.000793,0.4025,-0.8400000000000001,-3.535,0.9753125,0.10209375,0.11615625,1.23240625,0.938875,-0.3255,-0.37703125,1.21671875,0.01757800456311278,0.020231647362719773,True
37943,601,0,602,5361.0,44682.0,30038.0,-0.001403,0.000915,0.000183,0.49000000000000005,-0.9100000000000001,-3.4650000000000003,0.976375,0.10221875,0.11303125,1.23353125,0.94921875,-0.33103125,-0.3766875,1.21671875,0.01780647912323897,0.020089634820153475,True
37944,602,0,603,5360.0,44682.0,30038.0,-0.001769,0.0006709999999999999,0.001281,0.385,-1.225,-3.7100000000000004,0.9765,0.10315625,0.11168750000000001,1.234,0.946875,-0.3319375,-0.37615625,1.217125,0.017881590810431763,0.020013153222218947,True
37945,603,0,604,5359.0,44681.0,30038.0,-0.000122,-0.000122,0.002623,0.31500000000000006,-1.225,-3.8325000000000005,0.9781875,0.1009375,0.11215625,1.236,0.9490000000000001,-0.33125,-0.37678125,1.210875,0.017762650911893142,0.02005750861795997,True
37946,604,0,605,5358.0,44680.0,30037.0,0.001281,-0.001281,-0.001098,0.1925,-1.5575,-3.7625,0.9814375000000001,0.10187500000000001,0.11203125,1.23725,0.9539062500000001,-0.331,-0.37725000000000003,1.21671875,0.01779108955653282,0.02007122419468972,True
37947,605,0,606,5356.0,44679.0,30039.0,0.003477,-0.0026839999999999998,-0.002989,0.21000000000000002,-1.7675,-3.8325000000000005,0.97671875,0.1003125,0.112625,1.23421875,0.95025,-0.33090625,-0.37734375000000003,1.20928125,0.01772308624961308,0.020099349421529984,True
37948,606,0,607,5357.0,44679.0,30038.0,0.003721,-0.001281,-0.003721,0.28,-1.9250000000000003,-3.9025000000000003,0.96484375,0.10115625,0.11221875,1.23496875,0.93878125,-0.3289375,-0.37403125,1.20771875,0.017678279209685996,0.01994951081389132,True
37949,607,0,608,5354.0,44679.0,30039.0,0.002196,0.000305,0.000488,0.36750000000000005,-1.4700000000000002,-3.8850000000000002,0.97778125,0.10115625,0.11578125,1.2256875,0.93625,-0.32725,-0.3680625,1.210625,0.017610138836078884,0.019855651223809855,True
37950,608,0,609,5356.0,44680.0,30039.0,6.1e-05,-0.00042699999999999997,0.0037819999999999998,0.45500000000000007,-1.155,-3.7450000000000006,0.96940625,0.100375,0.11128125,1.22790625,0.950125,-0.33565625,-0.38040625,1.226875,0.017917382030739358,0.020167321863227772,True
37951,609,0,610,5354.0,44679.0,30039.0,-0.002379,0.000793,0.0013419999999999999,0.4025,-1.1900000000000002,-3.6400000000000006,0.977875,0.104625,0.11171875,1.2340625,0.95175,-0.33628125000000003,-0.37953125,1.21978125,0.018117240077507736,0.02015010030186696,True
37952,610,0,611,5356.0,44679.0,30039.0,-0.003477,0.0017079999999999999,0.000732,0.5425000000000001,-1.0850000000000002,-3.7100000000000004,0.9823125,0.0976875,0.10953125,1.2414687500000001,0.9587187500000001,-0.3374375,-0.38534375,1.22659375,0.017878833792588065,0.020293952181830527,True
37953,611,0,612,5355.0,44681.0,30040.0,-0.002623,0.0025009999999999998,-0.000732,0.56,-0.9625000000000001,-3.7100000000000004,0.981625,0.10362500000000001,0.112375,1.2345625,0.9435,-0.32703125,-0.3720625,1.1894375,0.017702786894722305,0.01987675437809172,True
37954,612,0,613,5353.0,44681.0,30041.0,-0.0013419999999999999,-0.000793,-0.00042699999999999997,0.45500000000000007,-1.1025,-3.5175000000000005,0.97871875,0.10103125,0.11653125,1.23409375,0.935625,-0.32734375,-0.37225,1.2033125,0.017608786409325925,0.020054826698396745,True
37955,613,0,614,5354.0,44678.0,30040.0,0.0006709999999999999,-0.000915,0.000976,0.42000000000000004,-1.3125000000000002,-3.5875000000000004,0.97775,0.10159375,0.111375,1.2376875,0.9360937500000001,-0.3244375,-0.37503125,1.22328125,0.01751453656430904,0.019955102621663307,True
37956,614,0,615,5351.0,44680.0,30042.0,0.000244,-0.0017079999999999999,0.000976,0.2625,-1.6275000000000002,-3.7275000000000005,0.9851875,0.09878125,0.10865625,1.24215625,0.9646250000000001,-0.34040625,-0.385125,1.2336562500000001,0.018043556688787803,0.020249281067864118,True
37957,615,0,616,5353.0,44680.0,30041.0,0.001464,0.000244,0.000488,0.24500000000000002,-1.9075000000000002,-3.7625,0.9863125,0.09725,0.108125,1.2394687500000001,0.96646875,-0.343125,-0.38115625000000003,1.2275,0.018090323243215488,0.02006800846452883,True
37958,616,0,617,5351.0,44679.0,30040.0,0.0035989999999999998,-0.00042699999999999997,-0.000305,0.1925,-1.8375000000000001,-3.8325000000000005,0.9816875,0.10046875,0.11109375,1.235,0.95934375,-0.33618750000000003,-0.37771875,1.2164062500000001,0.017942672820054496,0.020051609628156858,True
