frame_seq,absolute_seq_u64,segment_id,sample_seq,PPG_G,PPG_R,PPG_IR,ACC_X,ACC_Y,ACC_Z,GYRO_X,GYRO_Y,GYRO_Z,Uh1,Uh2,Uh3,Uh4,Uc1,Uc2,Uc3,Uc4,UD1,UD2,parser_valid
8791,43537,0,43538,3756.0,39022.0,29084.0,-0.0017079999999999999,-0.00061,0.002074,0.29750000000000004,-0.6825000000000001,-4.2,1.1136875,0.21634375,0.290875,1.4004375,1.0824375,-0.25525000000000003,-0.2684375,1.3824375,0.01944295564877707,0.02304691021002073,True
8792,43538,0,43539,3755.0,39021.0,29083.0,-0.000183,-0.001769,6.1e-05,0.10500000000000001,-0.8225000000000001,-4.235,1.11353125,0.21553125,0.29115625,1.3998125000000001,1.08215625,-0.25790625,-0.26825,1.38253125,0.019516832785187302,0.023050951345894327,True
8793,43539,0,43540,3754.0,39020.0,29085.0,0.005063,-0.0006709999999999999,-0.002379,-0.10500000000000001,-0.7525000000000001,-4.077500000000001,1.11315625,0.216,0.29121875,1.4000625,1.08128125,-0.25990625,-0.26846875,1.3820625,0.019616986359953473,0.023062332682196936,True
8794,43540,0,43541,3755.0,39024.0,29085.0,0.0062829999999999995,0.00061,0.002074,0.052500000000000005,-0.4025,-4.095000000000001,1.11396875,0.21603125,0.29171875,1.4080625,1.082125,-0.259375,-0.269,1.3885,0.01959680535875306,0.02310432032634225,True
8795,43541,0,43542,3755.0,39024.0,29090.0,0.006893,0.000793,0.001952,0.12250000000000001,0.035,-4.0425,1.1215,0.2135,0.28759375,1.4035,1.0903125,-0.26325,-0.26584375,1.3826875,0.019649057731342668,0.022807263810886446,True
8796,43542,0,43543,3754.0,39026.0,29087.0,0.0044529999999999995,0.0008539999999999999,-6.1e-05,0.17500000000000002,0.47250000000000003,-4.1475,1.1094375,0.2193125,0.29171875,1.4005,1.081625,-0.25978125,-0.2680625,1.3824375,0.019748477740292897,0.023066581850116796,True
8797,43543,0,43544,3755.0,39028.0,29090.0,0.002989,0.00183,-0.001952,0.29750000000000004,0.8575,-4.130000000000001,1.09953125,0.2164375,0.29134375,1.40115625,1.0818125,-0.25896875,-0.26737500000000003,1.383,0.019597133534375817,0.023023452268735287,True
8798,43544,0,43545,3756.0,39030.0,29091.0,-0.002257,0.002074,0.0023179999999999997,0.43750000000000006,2.1525000000000003,-4.165,1.1145625000000001,0.21428125,0.2914375,1.401,1.0894375,-0.2628125,-0.27121875,1.384875,0.01966357980963666,0.023182035306735477,True
8799,43545,0,43546,3755.0,39031.0,29092.0,-0.0075639999999999995,0.001098,-0.000122,0.5950000000000001,2.8350000000000004,-4.2175,1.11390625,0.21515625,0.29859375,1.406625,1.0821875,-0.26003125,-0.2678125,1.38240625,0.019587258363486237,0.02333981482673809,True
8800,43546,0,43547,3755.0,39033.0,29094.0,-0.013542,0.000915,-0.0034159999999999998,0.665,3.1850000000000005,-4.2875000000000005,1.12084375,0.212375,0.28750000000000003,1.40765625,1.081875,-0.25965625000000003,-0.26796875000000003,1.38478125,0.01945745830590654,0.022888967582010755,True
8801,43547,0,43548,3755.0,39036.0,29097.0,-0.014395999999999999,0.001037,-0.003843,0.8400000000000001,3.115,-4.357500000000001,1.1204375,0.2151875,0.28978125,1.4009375,1.08346875,-0.25940625,-0.26828125,1.3824375,0.019563287951451822,0.022995551034336228,True
8802,43548,0,43549,3753.0,39037.0,29096.0,-0.011041,0.00183,-0.00366,0.7875000000000001,2.7125000000000004,-4.532500000000001,1.11346875,0.21565625,0.29296875,1.40503125,1.0820625,-0.25975,-0.2683125,1.3818125,0.01959650243716444,0.02312815322449799,True
8803,43549,0,43550,3754.0,39037.0,29096.0,-0.001281,-0.00244,-0.0017079999999999999,0.24500000000000002,1.4000000000000001,-4.69,1.1183125,0.21440625,0.29003125,1.4046875,1.08409375,-0.26053125,-0.269125,1.3876875,0.019576549874603427,0.02303981911173147,True
8804,43550,0,43551,3755.0,39038.0,29095.0,0.0018909999999999999,-0.005795,-0.0008539999999999999,-0.07,0.7875000000000001,-4.742500000000001,1.11853125,0.21509375,0.289625,1.40515625,1.08771875,-0.2614375,-0.2690625,1.38084375,0.019641509288145023,0.023020563732117794,True
8805,43551,0,43552,3756.0,39037.0,29096.0,0.00042699999999999997,-0.006039,-0.001464,-0.1925,0.5075000000000001,-4.865,1.11771875,0.21446875,0.2909375,1.40359375,1.08225,-0.25978125,-0.2679375,1.38778125,0.019548816005915143,0.023029357150767347,True
8806,43552,0,43553,3757.0,39036.0,29098.0,0.001403,-0.004148,-0.001952,-0.08750000000000001,0.14,-4.8475,1.11803125,0.2154375,0.2911875,1.40325,1.07834375,-0.2628125,-0.26984375,1.38834375,0.019711235043340505,0.023116393157660935,True
8807,43553,0,43554,3756.0,39036.0,29097.0,0.0021349999999999997,0.0,0.00061,0.35000000000000003,-0.29750000000000004,-4.8825,1.1165625000000001,0.2145,0.29140625000000003,1.40034375,1.08809375,-0.26056250000000003,-0.26296875000000003,1.383,0.019581677053036182,0.02284860544940528,True
8808,43554,0,43555,3755.0,39037.0,29095.0,0.006771,0.005612,0.0055509999999999995,0.47250000000000003,-0.9625000000000001,-4.9175,1.11340625,0.21603125,0.29215625,1.4043125,1.08553125,-0.25971875,-0.27196875,1.3898125000000001,0.019610697259216988,0.023241831176138112,True
8809,43555,0,43556,3756.0,39037.0,29093.0,0.0073809999999999995,0.002257,0.0051849999999999995,0.1925,-1.0150000000000001,-4.760000000000001,1.11809375,0.214,0.29015625,1.403875,1.0910312500000001,-0.26375,-0.27134375,1.3815,0.01968986657050126,0.023134277433650537,True
8810,43556,0,43557,3756.0,39036.0,29095.0,0.00488,-0.00122,0.0050019999999999995,-0.10500000000000001,-0.8400000000000001,-4.48,1.11690625,0.2203125,0.2899375,1.40096875,1.09025,-0.263375,-0.27309375,1.3924375,0.01993488127682155,0.02319569379160825,True
8811,43557,0,43558,3757.0,39035.0,29094.0,0.000915,-0.002013,0.0018909999999999999,-0.035,-0.6475000000000001,-4.357500000000001,1.1226875,0.2129375,0.29159375,1.4195625,1.0923125,-0.2648125,-0.27028125000000003,1.382625,0.01968900439679886,0.02315074119711736,True
8812,43558,0,43559,3758.0,39037.0,29096.0,-0.004026,6.1e-05,0.0,0.1925,-0.7000000000000001,-4.095000000000001,1.13753125,0.20278125,0.281,1.4180625,1.09053125,-0.256375,-0.269,1.3801875000000001,0.0189293020906875,0.022662656063290623,True
8813,43559,0,43560,3756.0,39040.0,29097.0,-0.0070149999999999995,0.0030499999999999998,-0.001281,0.6475000000000001,-0.9275000000000001,-3.7275000000000005,1.1226875,0.2100625,0.28890625000000003,1.401125,1.0845,-0.26637500000000003,-0.26771875,1.3930625,0.01963364944290196,0.022936848977615585,True
8814,43560,0,43561,3757.0,39040.0,29100.0,-0.009089,0.0028669999999999998,-0.000732,0.6475000000000001,-1.3475000000000001,-3.5000000000000004,1.12140625,0.211625,0.29381250000000003,1.4180625,1.09490625,-0.2644375,-0.2724375,1.38721875,0.01961976246100904,0.02332893019088009,True
8815,43561,0,43562,3759.0,39038.0,29099.0,-0.009455,0.001037,-0.002379,0.6125,-1.8900000000000001,-3.2725000000000004,1.1384375,0.21225,0.29253125,1.39271875,1.06896875,-0.259875,-0.26703125,1.37903125,0.019461147264773625,0.02305854779826024,True
8816,43562,0,43563,3759.0,39041.0,29102.0,-0.006222,0.00122,-0.000732,0.525,-2.8875,-3.1675000000000004,1.10378125,0.22187500000000002,0.2961875,1.38996875,1.07871875,-0.259375,-0.26990625,1.393875,0.01983769161406673,0.023324925286845724,True
8817,43563,0,43564,3757.0,39041.0,29103.0,-0.0015249999999999999,-0.000183,-0.00042699999999999997,0.49000000000000005,-4.0425,-3.08,1.105125,0.2194375,0.2969375,1.40796875,1.092,-0.26503125,-0.27378125000000003,1.3909375,0.019965717126368836,0.023511736557319435,True
8818,43564,0,43565,3757.0,39041.0,29103.0,0.006954,-0.000305,-0.001769,0.5075000000000001,-6.4575000000000005,-2.9400000000000004,1.133875,0.21440625,0.2881875,1.39259375,1.0925,-0.2601875,-0.2685,1.3802812500000001,0.019562657955549602,0.022938685950924038,True
8819,43565,0,43566,3757.0,39039.0,29101.0,0.010126,-0.000793,-0.001403,0.4025,-7.07,-3.0450000000000004,1.1027500000000001,0.2188125,0.29603125,1.40421875,1.0785,-0.26165625,-0.2688125,1.38709375,0.01980362531927308,0.023274470063172646,True
8820,43566,0,43567,3757.0,39039.0,29103.0,0.009699,-0.002562,0.0008539999999999999,0.24500000000000002,-7.227500000000001,-2.9575000000000005,1.130125,0.20425000000000001,0.28271875,1.4198125,1.0890312500000001,-0.25875,-0.26934375,1.3811875,0.019085896841345904,0.02274731882686362,True
8821,43567,0,43568,3759.0,39039.0,29100.0,0.009637999999999999,-0.004941,0.0035989999999999998,-0.035,-6.86,-2.9050000000000002,1.1341875000000001,0.203,0.28053125,1.41840625,1.079875,-0.261,-0.26925,1.3826875,0.019125345204237254,0.022653409149438076,True
8822,43568,0,43569,3757.0,39036.0,29102.0,0.009333,-0.007503,0.0018909999999999999,-0.3325,-6.300000000000001,-2.9575000000000005,1.133,0.20775000000000002,0.2869375,1.41196875,1.0843125,-0.260875,-0.27190625,1.3878125000000001,0.019316079902311854,0.023024304075828412,True
8823,43569,0,43570,3757.0,39039.0,29101.0,0.003477,-0.003172,-0.002074,0.0,-4.235,-3.1675000000000004,1.11975,0.21321875,0.28981250000000003,1.40415625,1.09009375,-0.26309375,-0.269625,1.3840000000000001,0.01963115276674064,0.023050933007823564,True
8824,43570,0,43571,3756.0,39039.0,29099.0,-0.000305,0.00122,-0.001098,0.385,-3.0450000000000004,-3.3425000000000002,1.1115625,0.21506250000000002,0.28959375,1.402625,1.08896875,-0.262,-0.27187500000000003,1.38803125,0.019662950292638696,0.023132483584395517,True
8825,43571,0,43572,3756.0,39040.0,29098.0,-0.001464,0.004148,0.00183,0.5950000000000001,-1.7850000000000001,-3.6050000000000004,1.1140625,0.215625,0.29115625,1.4010625,1.08246875,-0.26006250000000003,-0.26821875,1.3825,0.019607843137254905,0.02304969333606324,True
8826,43572,0,43573,3754.0,39040.0,29100.0,-0.002257,0.004575,0.002745,0.56,-0.7875000000000001,-3.7275000000000005,1.10671875,0.21509375,0.29328125,1.40034375,1.082375,-0.261375,-0.2684375,1.37625,0.019638983775651625,0.023146061628401087,True
8827,43573,0,43574,3753.0,39040.0,29101.0,-0.002928,0.002196,0.000793,0.3325,-0.14,-3.7975000000000003,1.1144687500000001,0.2160625,0.29159375,1.40025,1.08209375,-0.260125,-0.267625,1.3826875,0.019628402574182944,0.023043818667875412,True
8828,43574,0,43575,3754.0,39042.0,29101.0,-0.0066489999999999995,0.002928,-0.00244,0.525,0.1925,-3.99,1.1125625000000001,0.21565625,0.28800000000000003,1.4071875,1.08190625,-0.26,-0.264,1.388125,0.019606605523495465,0.022749752720079133,True
8829,43575,0,43576,3751.0,39043.0,29102.0,-0.0050019999999999995,0.003538,-0.00183,0.6825000000000001,0.052500000000000005,-4.025,1.11965625,0.21203125,0.29131250000000003,1.40078125,1.0894062500000001,-0.2639375,-0.27140625,1.38296875,0.019616303001110186,0.023184431268789794,True
8830,43576,0,43577,3749.0,39040.0,29100.0,-0.005856,0.001769,6.1e-05,0.665,-0.525,-3.9375000000000004,1.11078125,0.21556250000000002,0.2909375,1.40103125,1.0816875,-0.26053125,-0.26796875000000003,1.3825625000000001,0.019624209589392237,0.023030615201364967,True
8831,43577,0,43578,3747.0,39040.0,29096.0,-0.004392,0.000122,0.0023179999999999997,0.49000000000000005,-1.155,-3.7975000000000003,1.1135625,0.22165625,0.2920625,1.40459375,1.0809375,-0.259375,-0.266125,1.38696875,0.01982867448151488,0.023002745596999937,True
8832,43578,0,43579,3746.0,39040.0,29096.0,0.00061,-0.0015249999999999999,0.002623,0.052500000000000005,-1.6275000000000002,-3.5700000000000003,1.1204687500000001,0.21265625,0.289,1.4068125,1.0875000000000001,-0.26225,-0.2696875,1.3879375,0.019573875052808373,0.02301997089991373,True
8833,43579,0,43580,3746.0,39041.0,29096.0,0.005612,-0.0026839999999999998,6.1e-05,-0.17500000000000002,-1.6450000000000002,-3.3425000000000002,1.11621875,0.2208125,0.29121875,1.3999375,1.08840625,-0.26046875,-0.26940625,1.38296875,0.019838085362633397,0.023100070690851782,True
8834,43580,0,43581,3745.0,39041.0,29097.0,0.005673,-0.000366,0.000793,0.08750000000000001,-1.3475000000000001,-3.535,1.1125625000000001,0.21659375,0.289625,1.4084375,1.08203125,-0.2596875,-0.26771875,1.38896875,0.019632620989037886,0.02296646651222625,True
8835,43581,0,43582,3746.0,39043.0,29095.0,0.003904,0.001281,0.0013419999999999999,0.2625,-0.9800000000000001,-3.6575,1.12040625,0.21578125,0.29125,1.3995,1.090125,-0.26128125,-0.2690625,1.38265625,0.01966353281527537,0.023087521407141293,True
8836,43582,0,43583,3744.0,39041.0,29098.0,0.000732,0.002196,-0.00061,0.5425000000000001,-0.6475000000000001,-3.6575,1.11578125,0.21628125,0.28821875,1.40678125,1.070875,-0.261875,-0.27087500000000003,1.389125,0.01970813261547181,0.023035582771531726,True
8837,43583,0,43584,3743.0,39041.0,29099.0,-0.003294,0.0035989999999999998,-0.000488,0.7525000000000001,-0.6125,-3.6925000000000003,1.1147500000000001,0.215625,0.29140625000000003,1.40021875,1.0861875,-0.26040625,-0.269,1.38240625,0.019621734487648985,0.02309144381721538,True
8838,43584,0,43585,3744.0,39043.0,29099.0,-0.004575,0.0018909999999999999,-0.001037,0.6475000000000001,-0.665,-3.4650000000000003,1.1209375,0.21534375,0.28928125,1.39996875,1.08221875,-0.262125,-0.27203125,1.3820000000000001,0.019679593193094175,0.023125897219665122,True
8839,43585,0,43586,3743.0,39041.0,29100.0,-0.005246,-0.001769,-0.0023179999999999997,0.5425000000000001,-0.9625000000000001,-3.3075,1.113375,0.21371875,0.2895,1.4008125,1.08134375,-0.25809375,-0.2710625,1.37790625,0.019449693981003765,0.023095919265998344,True
8840,43586,0,43587,3742.0,39039.0,29098.0,-0.0046359999999999995,-0.003111,-0.0028669999999999998,0.31500000000000006,-1.3825,-3.4475000000000002,1.1139375,0.2160625,0.29121875,1.405875,1.0828125,-0.25915625000000003,-0.26390625,1.38709375,0.019589253026885467,0.02287863274282145,True
8841,43587,0,43588,3743.0,39038.0,29101.0,0.00042699999999999997,-0.0037819999999999998,-0.002379,0.12250000000000001,-1.5925000000000002,-3.5875000000000004,1.12134375,0.2155,0.29078125,1.4015,1.086125,-0.26003125,-0.26875,1.381625,0.019601427759908592,0.02305562709245429,True
8842,43588,0,43589,3742.0,39036.0,29098.0,0.005307,-0.003172,-0.0017079999999999999,0.14,-1.5925000000000002,-3.6925000000000003,1.117375,0.21375,0.28915625,1.40425,1.08578125,-0.26215625,-0.2696875,1.3764375,0.01961516713915318,0.023026408972097397,True
8843,43589,0,43590,3743.0,39034.0,29099.0,0.001281,-0.000793,-0.00042699999999999997,0.47250000000000003,-1.5050000000000001,-3.99,1.10996875,0.2164375,0.29128125,1.40065625,1.0815937500000001,-0.25975,-0.268125,1.3831875,0.019628705984191922,0.02305107007648922,True
8844,43590,0,43591,3742.0,39035.0,29098.0,-0.002013,0.001769,0.001769,0.665,-1.3825,-4.165,1.11578125,0.21859375,0.28928125,1.4073125,1.08378125,-0.259375,-0.27065625,1.39328125,0.019702434625789002,0.023070554592029214,True
8845,43591,0,43592,3744.0,39036.0,29098.0,-0.00042699999999999997,0.003172,0.0026839999999999998,0.77,-1.5925000000000002,-4.112500000000001,1.12015625,0.2151875,0.29015625,1.4001875,1.092875,-0.26228125,-0.26584375,1.38278125,0.019679466455776905,0.022912864919440525,True
8846,43592,0,43593,3742.0,39036.0,29095.0,0.000488,0.00122,0.0013419999999999999,0.6300000000000001,-1.9425000000000001,-4.0425,1.11384375,0.2160625,0.291,1.40121875,1.077625,-0.25571875,-0.26871875,1.377125,0.019450310042863603,0.02306338277540919,True
8847,43593,0,43594,3742.0,39034.0,29094.0,0.001037,-0.00061,0.0015249999999999999,0.5075000000000001,-2.3975000000000004,-4.0075,1.11390625,0.21628125,0.29159375,1.39403125,1.065375,-0.255625,-0.26637500000000003,1.376625,0.019455538663712024,0.022993494083891806,True
8848,43594,0,43595,3740.0,39028.0,29096.0,0.00042699999999999997,-0.0008539999999999999,-0.000793,0.31500000000000006,-2.8350000000000004,-3.6225000000000005,1.11946875,0.214375,0.28778125,1.40034375,1.0754375,-0.26359375,-0.27315625,1.39465625,0.019699008931848772,0.02310937622708213,True
8849,43595,0,43596,3740.0,39030.0,29094.0,-0.000976,-0.0006709999999999999,-0.002257,0.36750000000000005,-3.08,-3.4650000000000003,1.107875,0.21596875000000001,0.28909375,1.39565625,1.06703125,-0.257375,-0.2650625,1.385125,0.019513395410674077,0.022837618901661593,True
8850,43596,0,43597,3743.0,39030.0,29094.0,0.0013419999999999999,-0.001769,-0.003538,0.29750000000000004,-3.2375000000000003,-3.43,1.114875,0.21925,0.2919375,1.40303125,1.0883125,-0.26046875,-0.26171875,1.38115625,0.01977368017672783,0.022820157784575752,True
8851,43597,0,43598,3739.0,39030.0,29096.0,0.0017079999999999999,-0.001464,-0.000488,0.1925,-3.325,-3.6400000000000006,1.119625,0.2156875,0.2911875,1.39921875,1.0972187500000001,-0.263875,-0.2680625,1.37615625,0.01976446466197176,0.023044690938965565,True
8852,43598,0,43599,3740.0,39030.0,29093.0,-0.003965,0.003904,0.0035989999999999998,0.14,-3.4825000000000004,-3.9025000000000003,1.11915625,0.21359375,0.290625,1.3995625,1.074375,-0.26321875,-0.27484375,1.3794375,0.019651658953946494,0.02329443418147645,True
8853,43599,0,43600,3741.0,39029.0,29093.0,0.0057339999999999995,0.003172,0.0050019999999999995,0.49000000000000005,-3.4650000000000003,-3.9550000000000005,1.1105625000000001,0.21515625,0.28959375,1.4075312500000001,1.06590625,-0.25825,-0.26975,1.40021875,0.0195152680016077,0.023046951451910304,True
8854,43600,0,43601,3740.0,39029.0,29093.0,0.006893,0.003477,0.00366,0.525,-3.1325000000000003,-3.6575,1.110875,0.21556250000000002,0.29153125,1.39878125,1.09059375,-0.2631875,-0.267,1.37703125,0.019731537746225634,0.023016081509869373,True
8855,43601,0,43602,3739.0,39029.0,29094.0,0.002196,0.002013,0.002623,0.4025,-2.7300000000000004,-3.535,1.12178125,0.21534375,0.290625,1.4008125,1.09275,-0.2671875,-0.27096875,1.379625,0.0198841027622175,0.02313849751052891,True
8856,43602,0,43603,3740.0,39028.0,29094.0,0.001037,-0.0011589999999999999,-0.00042699999999999997,0.17500000000000002,-2.5725000000000002,-3.4125000000000005,1.1141875,0.2160625,0.29075,1.3922812500000001,1.07634375,-0.25956250000000003,-0.26584375,1.37671875,0.019605670959647357,0.02293733346898354,True
8857,43603,0,43604,3740.0,39028.0,29093.0,0.008173999999999999,-0.002745,-0.0053679999999999995,0.035,-1.8900000000000001,-3.1325000000000003,1.11115625,0.216875,0.289125,1.40315625,1.07515625,-0.26025,-0.26853125,1.3855,0.019666944899578532,0.02297857436263268,True
8858,43604,0,43605,3740.0,39031.0,29093.0,0.0057339999999999995,-0.003294,-0.006161,0.0175,-1.2425000000000002,-3.2550000000000003,1.11990625,0.22303125000000001,0.291625,1.39278125,1.084625,-0.2606875,-0.268625,1.3824687500000001,0.019938377673757186,0.023085362273305553,True
8859,43605,0,43606,3740.0,39033.0,29095.0,0.0011589999999999999,-0.000915,-0.0042699999999999995,0.2625,-0.43750000000000006,-3.5175000000000005,1.10571875,0.2145,0.28971875,1.4035,1.0870625,-0.2631875,-0.26987500000000003,1.38178125,0.019687747127206598,0.02305713358639054,True
8860,43606,0,43607,3740.0,39032.0,29097.0,-0.005307,0.0008539999999999999,-0.0021349999999999997,0.525,0.36750000000000005,-3.6575,1.1135625,0.215875,0.2905,1.39978125,1.08153125,-0.25965625000000003,-0.26834375,1.37415625,0.01960173075411982,0.02302768395556454,True
8861,43607,0,43608,3740.0,39034.0,29099.0,-0.006954,0.002562,0.000488,0.6825000000000001,0.7875000000000001,-3.7975000000000003,1.113625,0.21584375,0.28953125,1.40621875,1.081625,-0.26015625,-0.27028125000000003,1.38928125,0.0196206485685763,0.02306576072331259,True
8862,43608,0,43609,3741.0,39034.0,29100.0,-0.010248,0.000305,0.002013,0.5425000000000001,1.1375000000000002,-3.7975000000000003,1.1119375,0.21603125,0.29078125,1.3994375000000001,1.0818125,-0.2601875,-0.26753125,1.3825,0.019629640125411234,0.023006563553925576,True
8863,43609,0,43610,3740.0,39033.0,29098.0,-0.010126,-6.1e-05,0.0037819999999999998,0.665,0.805,-3.7450000000000006,1.113625,0.21256250000000002,0.29059375,1.400375,1.0841875,-0.25496875,-0.2711875,1.3814375,0.01927568964606479,0.02314601417833388,True
8864,43610,0,43611,3741.0,39034.0,29097.0,-0.0066489999999999995,0.001586,0.0026839999999999998,0.5775,0.5075000000000001,-3.7800000000000002,1.11459375,0.2209375,0.2889375,1.4055,1.077875,-0.260125,-0.270625,1.38965625,0.019829349601455062,0.023055133520459403,True
8865,43611,0,43612,3742.0,39035.0,29098.0,-0.0030499999999999998,0.0013419999999999999,-0.0017079999999999999,0.5425000000000001,-0.08750000000000001,-3.6750000000000003,1.116125,0.21556250000000002,0.29090625000000003,1.39978125,1.0898125,-0.26021875,-0.2679375,1.37753125,0.019611581202251115,0.02302806944347867,True
8866,43612,0,43613,3742.0,39034.0,29098.0,0.001952,0.0008539999999999999,-0.003172,0.43750000000000006,-0.9625000000000001,-3.5700000000000003,1.11375,0.21546875000000001,0.2915625,1.400375,1.081375,-0.2596875,-0.26734375,1.3820937500000001,0.019586247761847718,0.023031208349698348,True
8867,43613,0,43614,3741.0,39034.0,29097.0,0.001952,0.000366,-0.002257,0.4025,-2.205,-3.5875000000000004,1.1126562500000001,0.218,0.29115625,1.39946875,1.08153125,-0.26028125,-0.2675625,1.38171875,0.01971457977223574,0.023023274381182696,True
8868,43614,0,43615,3742.0,39033.0,29099.0,0.002806,0.001037,-0.000122,0.43750000000000006,-2.6775,-3.5875000000000004,1.11309375,0.217125,0.29146875,1.3984375,1.082,-0.2556875,-0.26884375,1.38225,0.019492850903525205,0.02308772950915719,True
8869,43615,0,43616,3741.0,39036.0,29100.0,0.004209,0.0011589999999999999,0.003294,0.385,-3.2025,-3.6225000000000005,1.1116875,0.217125,0.293,1.3978125000000001,1.0751875,-0.2596875,-0.26640625,1.38309375,0.019654519457433243,0.02305270274620907,True
8870,43616,0,43617,3743.0,39033.0,29100.0,0.0040869999999999995,-0.001098,0.005307,0.42000000000000004,-3.4475000000000002,-3.3950000000000005,1.10346875,0.22059375,0.29328125,1.39853125,1.087375,-0.26178125,-0.27053125,1.38728125,0.019882093364435062,0.02323033205134313,True
8871,43617,0,43618,3743.0,39033.0,29098.0,0.002379,-0.001037,0.0032329999999999998,0.42000000000000004,-3.5525,-3.3950000000000005,1.11171875,0.21740625,0.292125,1.3993125,1.08328125,-0.26225,-0.26384375,1.38740625,0.01976965244361096,0.022913465637529093,True
8872,43618,0,43619,3743.0,39032.0,29096.0,0.003111,0.0013419999999999999,-0.001098,0.6300000000000001,-3.5000000000000004,-3.22,1.110875,0.216875,0.292375,1.39721875,1.0805,-0.26234375,-0.26837500000000003,1.3822812500000001,0.019751543995002546,0.02310620303172339,True
8873,43619,0,43620,3743.0,39034.0,29098.0,0.000305,0.000183,-0.0037819999999999998,0.5075000000000001,-3.5000000000000004,-2.9400000000000004,1.11009375,0.21665625,0.29234375,1.39746875,1.0812187500000001,-0.26034375,-0.2676875,1.38221875,0.019661716458572436,0.023077240054290297,True
8874,43620,0,43621,3742.0,39031.0,29097.0,0.000122,-0.001464,-0.004392,0.28,-3.5525,-2.9925,1.11040625,0.217625,0.29640625,1.4115312500000001,1.081875,-0.26115625,-0.26940625,1.3873125,0.019734477823990768,0.023313817164356876,True
8875,43621,0,43622,3742.0,39033.0,29096.0,0.0017079999999999999,-0.0028669999999999998,-0.00183,0.07,-3.2900000000000005,-2.9575000000000005,1.1253125,0.2098125,0.28971875,1.3961875000000001,1.0876875,-0.25878125,-0.264875,1.38125,0.019316458859613982,0.022855825550306772,True
8876,43622,0,43623,3740.0,39032.0,29092.0,0.00042699999999999997,-0.002196,-0.002623,0.22750000000000004,-3.2550000000000003,-3.0275000000000003,1.1133125,0.2168125,0.2916875,1.39665625,1.0825625,-0.25753125,-0.268625,1.3830625,0.019554494029560405,0.02308793761492462,True
8877,43623,0,43624,3739.0,39031.0,29092.0,0.000732,0.0011589999999999999,0.002257,0.7350000000000001,-2.975,-3.6400000000000006,1.11071875,0.21581250000000002,0.29140625000000003,1.39765625,1.08203125,-0.25990625,-0.26896875,1.37678125,0.019609257558445843,0.02309018589840164,True
8878,43624,0,43625,3737.0,39027.0,29086.0,0.003172,0.002806,0.003965,0.7175,-2.975,-4.025,1.1094375,0.21653125,0.29190625000000003,1.40046875,1.08178125,-0.2608125,-0.2676875,1.382875,0.019675505509141544,0.02305921196652957,True
8879,43625,0,43626,3735.0,39021.0,29082.0,-0.0006709999999999999,-0.000366,0.003355,0.525,-2.8350000000000004,-3.9025000000000003,1.1142812500000001,0.21528125,0.290625,1.3997187500000001,1.08096875,-0.26071875,-0.26859375,1.3825625000000001,0.019620193651517435,0.023042898808259136,True
8880,43626,0,43627,3733.0,39018.0,29078.0,-0.003172,-0.001037,0.000366,0.36750000000000005,-2.4675000000000002,-3.8850000000000002,1.116625,0.216,0.28959375,1.4004375,1.08246875,-0.26028125,-0.26809375,1.38221875,0.019632140497134593,0.022980276314450945,True
8881,43627,0,43628,3730.0,39014.0,29074.0,-0.00244,-0.00183,-0.0008539999999999999,0.22750000000000004,-2.0650000000000004,-3.9200000000000004,1.1145,0.21509375,0.293625,1.4004375,1.08234375,-0.26003125,-0.26790625,1.3821875000000001,0.019584682109591266,0.023138842066360795,True
8882,43628,0,43629,3731.0,39014.0,29070.0,0.003477,-0.000305,-0.002745,0.2625,-1.9600000000000002,-3.7800000000000002,1.11396875,0.21628125,0.2909375,1.4008125,1.082625,-0.2569375,-0.26796875000000003,1.3825625000000001,0.01950859419083716,0.023030615201364967,True
8883,43629,0,43630,3728.0,39009.0,29069.0,0.0062829999999999995,-0.000549,-0.003904,0.1925,-2.1350000000000002,-4.0075,1.11390625,0.21962500000000001,0.289625,1.40678125,1.08015625,-0.25940625,-0.2656875,1.393,0.019746206690446102,0.022884680271267818,True
8884,43630,0,43631,3729.0,39005.0,29063.0,0.003965,-0.000305,-0.0017079999999999999,0.14,-2.0125,-4.0600000000000005,1.12040625,0.21903125,0.29109375,1.40846875,1.09765625,-0.2633125,-0.27178125000000003,1.3939062500000001,0.01987955065904542,0.023190510585208903,True
8885,43631,0,43632,3728.0,39002.0,29061.0,0.00244,-0.000366,0.00366,0.15750000000000003,-1.54,-4.130000000000001,1.121125,0.21334375,0.28971875,1.408125,1.10334375,-0.26771875,-0.27578125000000003,1.397125,0.01982314468680745,0.023294821871077787,True
8886,43632,0,43633,3725.0,38999.0,29057.0,0.001403,0.001464,0.006161,0.31500000000000006,-0.7875000000000001,-4.2,1.121375,0.21515625,0.2906875,1.3997187500000001,1.102875,-0.26965625,-0.27496875,1.3876875,0.01997607609296073,0.023302038236403498,True
8887,43633,0,43634,3725.0,38997.0,29054.0,-0.001952,0.003172,0.003294,0.7875000000000001,-0.0175,-4.1475,1.1139375,0.21903125,0.2911875,1.3960625,1.08215625,-0.26103125,-0.264,1.371125,0.01978739052982342,0.02288112017804154,True
8888,43634,0,43635,3723.0,38991.0,29050.0,-0.0034159999999999998,0.003355,-6.1e-05,0.7000000000000001,0.36750000000000005,-4.1825,1.1125,0.2126875,0.28759375,1.3945625,1.069625,-0.25565625000000003,-0.2629375,1.3773125,0.019308640639232346,0.022690214241371225,True
8889,43635,0,43636,3722.0,38990.0,29049.0,-0.004148,0.000976,-0.001464,0.525,0.6125,-4.130000000000001,1.1203125,0.216125,0.290875,1.401,1.0789375,-0.25596875,-0.26275,1.3694375,0.01946299300043417,0.022817899867080195,True
8890,43636,0,43637,3721.0,38987.0,29043.0,-0.0044529999999999995,-0.0013419999999999999,-0.0008539999999999999,0.2625,0.7875000000000001,-4.077500000000001,1.1135,0.21621875000000002,0.2895625,1.4075625,1.07,-0.25621875,-0.2621875,1.390125,0.019476964025977875,0.022741148134313938,True
8891,43637,0,43638,3721.0,38985.0,29043.0,-0.0006709999999999999,-0.002379,-6.1e-05,-0.052500000000000005,0.9800000000000001,-3.99,1.11971875,0.215875,0.290875,1.40234375,1.0858125,-0.26415625,-0.2645625,1.38703125,0.019783554188083505,0.02289089284012436,True
8892,43638,0,43639,3721.0,38985.0,29041.0,0.001769,-0.002562,-0.00042699999999999997,-0.0175,1.6275000000000002,-4.077500000000001,1.11471875,0.216,0.29159375,1.40003125,1.082,-0.2560625,-0.26296875000000003,1.3731875,0.019461629438001327,0.022856333275374643,True
8893,43639,0,43640,3721.0,38985.0,29039.0,0.0008539999999999999,0.000793,0.000732,0.21000000000000002,2.0125,-4.0075,1.1135625,0.21634375,0.2909375,1.40059375,1.07034375,-0.2563125,-0.2634375,1.37071875,0.019485907019049165,0.02284816403281687,True
8894,43640,0,43641,3719.0,38983.0,29039.0,-0.000244,0.0023179999999999997,-0.000366,0.4025,2.0825,-3.9375000000000004,1.1144375,0.21584375,0.29134375,1.40090625,1.0683125,-0.25846875,-0.26684375,1.38153125,0.019552450110850467,0.023002064287820704,True
8895,43641,0,43642,3722.0,38985.0,29041.0,-0.003111,0.001647,-0.0021349999999999997,0.6825000000000001,2.1175,-3.99,1.113875,0.21581250000000002,0.29353125,1.400375,1.0834375,-0.26146875,-0.26803125,1.3840625,0.019672397203899704,0.02314001058491302,True
8896,43642,0,43643,3721.0,38985.0,29040.0,-0.005673,0.002196,-0.001647,0.7175,1.9425000000000001,-4.0425,1.11315625,0.215875,0.29075,1.40021875,1.0836875,-0.25934375,-0.26765625,1.3864687500000001,0.019589101621926605,0.023010308216311576,True
8897,43643,0,43644,3721.0,38986.0,29040.0,-0.00732,0.000183,-0.001403,0.5775,1.33,-3.8675,1.11425,0.21871875000000002,0.291375,1.400875,1.08759375,-0.261875,-0.2713125,1.3836875,0.01980859888199078,0.023183233292389936,True
8898,43644,0,43645,3721.0,38985.0,29039.0,-0.0053679999999999995,-0.001037,-0.000488,0.45500000000000007,0.7525000000000001,-3.7800000000000002,1.114125,0.21665625,0.29153125,1.40021875,1.08790625,-0.26246875000000003,-0.26884375,1.3799375,0.0197475782426304,0.02309030482756312,True
8899,43645,0,43646,3720.0,38985.0,29037.0,-0.002196,-0.0018909999999999999,6.1e-05,0.2625,0.29750000000000004,-3.6750000000000003,1.1144687500000001,0.21565625,0.29,1.401375,1.08821875,-0.26156250000000003,-0.27228125000000003,1.38921875,0.019669745095766196,0.023165570809295072,True
8900,43646,0,43647,3720.0,38984.0,29035.0,0.000976,-0.000122,0.0018909999999999999,0.31500000000000006,-0.17500000000000002,-3.6400000000000006,1.1179375,0.213625,0.289625,1.4060625,1.08953125,-0.2609375,-0.26990625,1.3855,0.01956076511882527,0.023054528692297693,True
8901,43647,0,43648,3719.0,38984.0,29036.0,0.0011589999999999999,0.0013419999999999999,0.00244,0.4025,-0.7525000000000001,-3.6575,1.1116875,0.21609375,0.29125,1.4011875,1.07796875,-0.25959375,-0.2685625,1.38221875,0.019608222004954226,0.023067394288392648,True
8902,43648,0,43649,3720.0,38983.0,29036.0,0.0025009999999999998,0.003355,0.0028669999999999998,0.5425000000000001,-1.5050000000000001,-3.535,1.1145625000000001,0.2161875,0.291125,1.400625,1.0824375,-0.25646875,-0.268,1.38053125,0.019485781499007353,0.023039599472556457,True
8903,43649,0,43650,3718.0,38982.0,29034.0,0.004697,0.0011589999999999999,0.002074,0.47250000000000003,-1.8725000000000003,-3.2900000000000005,1.10615625,0.21596875000000001,0.29071875,1.40140625,1.0823125,-0.26040625,-0.2680625,1.382625,0.01963590366505095,0.023025375429126246,True
8904,43650,0,43651,3717.0,38983.0,29034.0,0.0023179999999999997,-0.00244,-0.002989,0.24500000000000002,-2.1525000000000003,-3.2900000000000005,1.110125,0.2206875,0.289125,1.4001875,1.08234375,-0.26009375,-0.26871875,1.38296875,0.019817782031448253,0.02298612282529336,True
8905,43651,0,43652,3717.0,38979.0,29033.0,0.000976,-0.003111,-0.002623,0.15750000000000003,-2.5200000000000005,-3.2550000000000003,1.11115625,0.21581250000000002,0.291,1.39496875,1.08203125,-0.25696875,-0.2686875,1.38203125,0.01949053300404652,0.023062124805884127,True
8906,43652,0,43653,3719.0,38980.0,29031.0,0.002257,-0.0040869999999999995,-0.0040869999999999995,0.052500000000000005,-2.5375,-3.1675000000000004,1.10953125,0.21778125,0.29334375,1.3959375,1.07853125,-0.26159375,-0.26721875,1.38775,0.019758594795529456,0.023099577490725016,True
8907,43653,0,43654,3718.0,38977.0,29027.0,0.000976,-0.0044529999999999995,-0.005795,0.0175,-2.4325,-3.0975,1.1176875,0.21453125,0.28621875,1.40565625,1.09096875,-0.2640625,-0.26909375,1.38778125,0.01972438663146371,0.022881468328416678,True
8908,43654,0,43655,3718.0,38976.0,29027.0,-0.004514,-0.000366,-0.004392,0.43750000000000006,-2.3625000000000003,-3.0625000000000004,1.1295625,0.20734375,0.29034375,1.38575,1.08484375,-0.26021875,-0.26325,1.3824687500000001,0.019272806433371505,0.022816141695774474,True
8909,43655,0,43656,3716.0,38977.0,29027.0,-0.005246,0.006222,0.001769,1.05,-2.31,-3.0975,1.1070625,0.2183125,0.29331250000000003,1.39234375,1.0801875,-0.2621875,-0.27090625,1.38934375,0.01980447970736357,0.023246711275974708,True
8910,43656,0,43657,3718.0,38974.0,29028.0,-0.005856,0.009455,0.006954,1.225,-2.3800000000000003,-3.0100000000000002,1.11684375,0.21506250000000002,0.28775,1.411,1.0891875,-0.262,-0.27125,1.3896875,0.019662950292638696,0.023031364268424576,True
8911,43657,0,43658,3716.0,38974.0,29027.0,-0.0028669999999999998,0.0073809999999999995,0.008418,0.9625000000000001,-2.8525000000000005,-3.0100000000000002,1.1293125,0.2086875,0.28584375,1.40621875,1.0883125,-0.26,-0.26853125,1.37525,0.019319352844187964,0.022843368405329436,True
8912,43658,0,43659,3717.0,38974.0,29024.0,0.003172,-0.0035989999999999998,-0.0013419999999999999,-0.035,-3.8500000000000005,-3.0450000000000004,1.11378125,0.216875,0.2960625,1.3942812500000001,1.0815000000000001,-0.25971875,-0.26809375,1.38253125,0.019645477134808086,0.02324683000699221,True
8913,43659,0,43660,3716.0,38972.0,29023.0,0.006222,-0.008357,-0.003538,-0.3325,-4.0075,-3.325,1.1095625,0.2191875,0.29271875,1.3950625,1.0819375,-0.26009375,-0.27028125000000003,1.38975,0.019755952097258486,0.023197094182829055,True
8914,43660,0,43661,3716.0,38971.0,29019.0,0.005124,-0.010126,-0.004209,-0.2625,-3.9725000000000006,-3.4650000000000003,1.107125,0.217625,0.29265625,1.4036250000000001,1.08975,-0.2625,-0.27137500000000003,1.3868125,0.01978876867594024,0.023238537165694156,True
8915,43661,0,43662,3717.0,38969.0,29020.0,0.0023179999999999997,-0.006344,-0.0050019999999999995,-0.0175,-3.8500000000000005,-3.7975000000000003,1.12471875,0.21425,0.28521875,1.40996875,1.08909375,-0.25884375,-0.2694375,1.38215625,0.019501908453489255,0.022854104055769736,True
8916,43662,0,43663,3717.0,38966.0,29018.0,-0.002074,0.004575,-0.00183,0.36750000000000005,-3.6575,-3.9725000000000006,1.1146562500000001,0.2163125,0.29334375,1.39834375,1.08225,-0.259875,-0.26890625,1.381875,0.01962860484648004,0.023167504716039688,True
8917,43663,0,43664,3717.0,38965.0,29017.0,-0.0013419999999999999,0.007076,0.0017079999999999999,0.8225000000000001,-3.8325000000000005,-4.235,1.1120625,0.2151875,0.2904375,1.40046875,1.08165625,-0.26028125,-0.26834375,1.3823125,0.01959864954162475,0.0230251085840994,True
8918,43664,0,43665,3718.0,38963.0,29019.0,0.002257,0.0073809999999999995,0.003721,0.7000000000000001,-4.0425,-4.0425,1.1139375,0.216375,0.290625,1.39996875,1.0736875000000001,-0.2594375,-0.2639375,1.38865625,0.019613500931338575,0.022855420724686586,True
8919,43665,0,43666,3718.0,38965.0,29019.0,0.00244,0.004209,0.005246,0.45500000000000007,-4.112500000000001,-3.8325000000000005,1.11709375,0.21456250000000002,0.290125,1.4060000000000001,1.087625,-0.26328125,-0.26890625,1.38871875,0.019694110828476673,0.023034876159695086,True
8920,43666,0,43667,3717.0,38965.0,29019.0,0.0023179999999999997,0.0013419999999999999,0.003965,0.28,-4.112500000000001,-3.7450000000000006,1.121625,0.21353125,0.28796875,1.4000937500000001,1.09053125,-0.26309375,-0.27196875,1.38678125,0.019644032410335143,0.023069307058167666,True
8921,43667,0,43668,3717.0,38965.0,29019.0,0.010187,-0.0018909999999999999,-6.1e-05,0.21000000000000002,-4.077500000000001,-3.535,1.1204687500000001,0.21962500000000001,0.2876875,1.4016250000000001,1.08746875,-0.26034375,-0.26903125,1.38259375,0.01978408694229652,0.022939471471486936,True
8922,43668,0,43669,3718.0,38964.0,29020.0,0.010187,-0.002562,0.001647,0.052500000000000005,-3.43,-3.43,1.111875,0.21603125,0.29409375,1.40003125,1.0823125,-0.26034375,-0.26903125,1.38171875,0.01963595425147263,0.023203439568689005,True
8923,43669,0,43670,3718.0,38964.0,29020.0,0.0057339999999999995,-0.003294,0.002379,-0.035,-2.5025000000000004,-3.4475000000000002,1.1139375,0.21309375,0.28853125,1.4056875,1.08384375,-0.2613125,-0.26378125,1.38478125,0.01955402247920429,0.022762837099019755,True
8924,43670,0,43671,3719.0,38963.0,29018.0,0.0035989999999999998,-0.0013419999999999999,0.001952,0.15750000000000003,-1.2075,-3.7100000000000004,1.1070625,0.215625,0.290125,1.40109375,1.08228125,-0.25996875,-0.2681875,1.38334375,0.01960405451882538,0.023005941420223493,True
8925,43671,0,43672,3717.0,38962.0,29018.0,0.000549,0.000122,0.001037,0.47250000000000003,-0.14,-3.8850000000000002,1.1145,0.21246875,0.29046875,1.407,1.08771875,-0.2629375,-0.27109375,1.3880937500000001,0.019593927981721094,0.023137090803746742,True
8926,43672,0,43673,3718.0,38963.0,29018.0,-0.006039,0.000244,-0.003111,0.6300000000000001,2.0300000000000002,-3.9375000000000004,1.1198125,0.22134375,0.2883125,1.40421875,1.08909375,-0.26140625,-0.27025,1.3893125,0.019897857322264657,0.023014287038658442,True
8927,43673,0,43674,3718.0,38965.0,29018.0,-0.009637999999999999,0.000793,-0.0035989999999999998,0.5775,2.8000000000000003,-3.8850000000000002,1.12171875,0.21246875,0.28990625000000003,1.40028125,1.08796875,-0.261125,-0.26946875,1.38225,0.01952068381000469,0.023048506160646798,True
8928,43674,0,43675,3718.0,38966.0,29019.0,-0.011712,6.1e-05,-0.0030499999999999998,0.6475000000000001,3.1500000000000004,-3.9375000000000004,1.1148437500000001,0.21565625,0.28778125,1.40646875,1.0815625,-0.2618125,-0.27203125,1.3793125,0.019679846672625963,0.023064097694748972,True
8929,43675,0,43676,3717.0,38966.0,29020.0,-0.01159,0.00042699999999999997,-0.004392,0.7875000000000001,2.9225000000000003,-3.99,1.109625,0.21381250000000002,0.29109375,1.40496875,1.09,-0.26071875,-0.2725,1.38521875,0.01955965340062318,0.023219435575239467,True
8930,43676,0,43677,3715.0,38967.0,29019.0,-0.010614,0.000793,-0.0059169999999999995,0.8575,2.205,-4.0600000000000005,1.1195625,0.21234375,0.286625,1.4053437500000001,1.08384375,-0.26059375,-0.26934375,1.3819375,0.01949406122840666,0.022908272911170084,True
8931,43677,0,43678,3715.0,38967.0,29016.0,-0.008967,-0.001647,-0.003355,0.385,-0.15750000000000003,-4.0600000000000005,1.11178125,0.21475,0.29125,1.40053125,1.08221875,-0.26040625,-0.26884375,1.38328125,0.0195856674906258,0.02307871589473644,True
8932,43678,0,43679,3713.0,38965.0,29016.0,-0.005612,-0.004209,0.000915,0.10500000000000001,-1.6625,-4.095000000000001,1.11375,0.21584375,0.2915,1.39978125,1.0818125,-0.26025,-0.2684375,1.37775,0.019624437093599612,0.02307266382518446,True
8933,43679,0,43680,3712.0,38964.0,29014.0,-0.000793,-0.0046359999999999995,0.003355,-0.0175,-3.325,-4.0425,1.11375,0.21678125,0.29028125,1.400625,1.0825,-0.26006250000000003,-0.265,1.3823125,0.01965550377291897,0.022884040799505456,True
8934,43680,0,43681,3709.0,38961.0,29012.0,0.0037819999999999998,-0.00122,0.0035989999999999998,0.035,-4.550000000000001,-3.9725000000000006,1.1087500000000001,0.21609375,0.29090625000000003,1.39946875,1.08228125,-0.260125,-0.2684375,1.38434375,0.01962969069615264,0.02304819789077892,True
8935,43681,0,43682,3708.0,38958.0,29011.0,0.008845,0.000915,0.005307,0.21000000000000002,-5.6000000000000005,-3.9375000000000004,1.1181875000000001,0.2145,0.2910625,1.40525,1.0896875,-0.26209375,-0.27096875,1.38290625,0.019643554052296088,0.02315652316102957,True
8936,43682,0,43683,3706.0,38957.0,29008.0,0.015006,0.000976,0.00732,-0.22750000000000004,-5.215000000000001,-3.9200000000000004,1.11325,0.215875,0.2915625,1.39959375,1.073,-0.25871875,-0.2686875,1.382625,0.01956384238141184,0.023085302820764413,True
8937,43683,0,43684,3707.0,38955.0,29005.0,0.014823,0.002074,0.0068319999999999995,-0.21000000000000002,-4.3925,-3.8150000000000004,1.11378125,0.21640625,0.2915,1.4000937500000001,1.08228125,-0.2594375,-0.2675625,1.3850625,0.019614789089812984,0.02303743938024266,True
8938,43684,0,43685,3705.0,38955.0,29005.0,0.009943,0.00366,0.004392,0.035,-3.6225000000000005,-3.9200000000000004,1.1146562500000001,0.21559375,0.29503125,1.4055625,1.089875,-0.26165625,-0.2683125,1.39296875,0.019670957130142337,0.023213140592284694,True
8939,43685,0,43686,3702.0,38955.0,29004.0,0.007137,0.0059169999999999995,0.001952,0.3325,-2.765,-3.99,1.119375,0.21506250000000002,0.28928125,1.40634375,1.0955625,-0.26453125,-0.2709375,1.390875,0.019765218007250812,0.023081875185085043,True
8940,43686,0,43687,3704.0,38955.0,29005.0,0.001647,0.0062829999999999995,-0.00042699999999999997,0.5950000000000001,-1.9075000000000002,-4.0075,1.1078125,0.21531250000000002,0.2901875,1.409,1.09215625,-0.265375,-0.2711875,1.39034375,0.019809605250279465,0.023129276225153796,True
8941,43687,0,43688,3703.0,38956.0,29005.0,-0.005978,-0.0034159999999999998,-0.0051849999999999995,0.10500000000000001,-0.665,-3.9200000000000004,1.1188125,0.2115,0.28459375,1.4175,1.0775000000000001,-0.26228125,-0.26975,1.3865625,0.019527481571832823,0.02284093367257594,True
8942,43688,0,43689,3702.0,38955.0,29006.0,-0.008235,-0.005673,-0.007259,-0.22750000000000004,-0.385,-3.9550000000000005,1.13859375,0.21121875,0.28765625,1.40140625,1.07946875,-0.26009375,-0.26775,1.37978125,0.019427480571875367,0.02288659846916175,True
8943,43689,0,43690,3702.0,38957.0,29002.0,-0.011041,-0.0070149999999999995,-0.007503,-0.052500000000000005,-0.31500000000000006,-3.9375000000000004,1.1016875,0.21315625,0.29265625,1.3895625,1.0785625,-0.25890625,-0.2678125,1.3803125,0.01945934804871922,0.023095149181657806,True
8944,43690,0,43691,3701.0,38954.0,29006.0,-0.010431,-0.0050019999999999995,-0.0077469999999999995,0.21000000000000002,-0.35000000000000003,-3.8850000000000002,1.1006875,0.22371875,0.29762500000000003,1.395,1.08853125,-0.26156250000000003,-0.2729375,1.3953125,0.02000206087303734,0.023506116637098416,True
8945,43691,0,43692,3700.0,38953.0,29004.0,-0.0062829999999999995,-0.003172,-0.006039,0.35000000000000003,-0.6825000000000001,-4.077500000000001,1.110125,0.21040625000000002,0.2891875,1.4131562500000001,1.09096875,-0.26346875000000003,-0.27403125,1.391875,0.019530389693353307,0.023202522242777454,True
8946,43692,0,43693,3702.0,38955.0,29005.0,0.000488,-0.005429,0.0021349999999999997,-0.17500000000000002,-0.77,-4.130000000000001,1.121125,0.20653125,0.29278125,1.41596875,1.089875,-0.26171875,-0.27265625,1.39253125,0.01929995169859926,0.023295246065209694,True
8947,43693,0,43694,3701.0,38954.0,29004.0,-0.003355,-0.00488,0.004026,0.15750000000000003,-1.0150000000000001,-4.6025,1.12571875,0.2060625,0.284125,1.4223125,1.0794062500000001,-0.26034375,-0.27125,1.38159375,0.019225047048230717,0.022882010609259925,True
8948,43694,0,43695,3701.0,38951.0,29006.0,-0.008539999999999999,-0.002562,0.010369999999999999,0.7350000000000001,-1.5050000000000001,-5.390000000000001,1.13259375,0.20790625000000001,0.27996875,1.4141875,1.0824375,-0.2605,-0.26965625,1.3766562500000001,0.01930736176088704,0.02264659187333978,True
8949,43695,0,43696,3700.0,38953.0,29005.0,-0.010309,0.0066489999999999995,0.006588,1.54,-2.6775,-6.965000000000001,1.11884375,0.22740625,0.2941875,1.3911875,1.0783125,-0.2553125,-0.2675625,1.37740625,0.01990156795547367,0.023148183918347793,True
8950,43696,0,43697,3700.0,38954.0,29009.0,-0.0013419999999999999,0.017385,0.0026839999999999998,2.31,-4.130000000000001,-7.945000000000001,1.1010625,0.21890625,0.2963125,1.396625,1.0798125,-0.26125,-0.27015625,1.38996875,0.019791076304807045,0.02334013609821733,True
8951,43697,0,43698,3700.0,38955.0,29015.0,0.010003999999999999,0.011712,-0.001952,1.8025000000000002,-5.3025,-7.175000000000001,1.125375,0.21134375,0.28528125,1.41803125,1.08803125,-0.2639375,-0.27115625,1.3880937500000001,0.019587968770526216,0.022925875235136353,True
8952,43698,0,43699,3702.0,38958.0,29018.0,0.01098,0.0008539999999999999,-0.001098,0.385,-5.040000000000001,-6.4225,1.1355625,0.2063125,0.288375,1.3995625,1.0825,-0.26096875,-0.26821875,1.3819375,0.01926061794214215,0.0229350887155655,True
8953,43699,0,43700,3701.0,38961.0,29021.0,0.012627,-0.010003999999999999,-0.002257,-0.6825000000000001,-4.970000000000001,-5.845000000000001,1.10825,0.2176875,0.2925625,1.39440625,1.08234375,-0.2558125,-0.2688125,1.38240625,0.01952109417072712,0.02313153970759797,True
8954,43700,0,43701,3700.0,38962.0,29025.0,0.012749,-0.012078,-0.0046359999999999995,-0.9100000000000001,-4.655,-5.425000000000001,1.1089375000000001,0.217875,0.292125,1.40671875,1.08221875,-0.25890625,-0.26796875000000003,1.3879062500000001,0.019653864238005376,0.0230795480153237,True
8955,43701,0,43702,3701.0,38961.0,29023.0,0.012383,-0.0077469999999999995,-0.003355,-0.5950000000000001,-4.112500000000001,-5.442500000000001,1.1194375,0.214125,0.29315625,1.4059375,1.0894062500000001,-0.26359375,-0.27009375,1.390125,0.019688705429301876,0.023207574136379264,True
8956,43702,0,43703,3701.0,38963.0,29023.0,0.005795,-0.002196,0.004209,-0.5075000000000001,-1.7325000000000002,-5.232500000000001,1.10778125,0.21659375,0.2910625,1.399375,1.086,-0.26040625,-0.26915625,1.38196875,0.019661665805781797,0.023083569293843906,True
8957,43703,0,43704,3700.0,38960.0,29020.0,0.001586,-0.0026839999999999998,0.0055509999999999995,-0.43750000000000006,-0.24500000000000002,-4.9350000000000005,1.11228125,0.21825,0.2888125,1.4020937500000001,1.0820625,-0.25915625000000003,-0.26959375,1.37721875,0.01967942516549808,0.02300847124810237,True
8958,43704,0,43705,3699.0,38958.0,29017.0,-0.0044529999999999995,-0.001586,0.005246,-0.385,1.225,-4.550000000000001,1.117625,0.21584375,0.291375,1.3995625,1.08928125,-0.2603125,-0.26859375,1.37103125,0.019626962760681668,0.023073802947482278,True
8959,43705,0,43706,3702.0,38958.0,29014.0,-0.009089,0.00244,0.0037819999999999998,-0.052500000000000005,2.3275,-4.515000000000001,1.11253125,0.2139375,0.28759375,1.4071875,1.085,-0.26215625,-0.27075,1.38896875,0.019622895223914815,0.02300480001648074,True
8960,43706,0,43707,3701.0,38956.0,29011.0,-0.013115,0.003965,0.0011589999999999999,0.385,3.1325000000000003,-4.7250000000000005,1.1211875,0.214875,0.29015625,1.40078125,1.0894062500000001,-0.26075,-0.2686875,1.3823750000000001,0.019604711313541415,0.023027357783563702,True
8961,43707,0,43708,3701.0,38956.0,29010.0,-0.015982,0.002257,-0.005063,0.47250000000000003,2.3625000000000003,-5.8100000000000005,1.11384375,0.2169375,0.29121875,1.40053125,1.07028125,-0.2598125,-0.26890625,1.3824375,0.019651841909330503,0.02307994411573451,True
8962,43708,0,43709,3699.0,38957.0,29013.0,-0.012322,0.001403,-0.008296,0.56,0.9800000000000001,-6.125000000000001,1.11546875,0.22025,0.2888125,1.4090625,1.085,-0.2598125,-0.27003125,1.38959375,0.019788384596954325,0.023026082836213903,True
8963,43709,0,43710,3700.0,38960.0,29016.0,-0.010858,0.000366,-0.009577,0.6125,-0.56,-6.055000000000001,1.1208125,0.21431250000000002,0.2899375,1.4013125,1.0910312500000001,-0.26271875,-0.2715,1.3829375,0.019661079820248915,0.023131553468059247,True
8964,43710,0,43711,3700.0,38963.0,29018.0,-0.008418,0.0015249999999999999,-0.008601,0.6125,-2.2575000000000003,-5.915000000000001,1.10715625,0.2163125,0.290375,1.40115625,1.07625,-0.26015625,-0.26790625,1.38203125,0.019639970373232857,0.023004920335886005,True
8965,43711,0,43712,3701.0,38966.0,29023.0,-0.0023179999999999997,0.001281,-0.002989,0.385,-3.8500000000000005,-5.5125,1.11409375,0.22184375,0.28865625,1.4015,1.082125,-0.25915625000000003,-0.270625,1.3882812500000001,0.019827565107504514,0.023043545438158265,True
8966,43712,0,43713,3701.0,38967.0,29026.0,0.009333,-0.0034159999999999998,0.0055509999999999995,-0.5950000000000001,-6.615,-4.567500000000001,1.11440625,0.216375,0.29040625000000003,1.4025625,1.08209375,-0.25953125,-0.268125,1.37184375,0.01961728959622829,0.02301501455097994,True
8967,43713,0,43714,3700.0,38970.0,29027.0,0.014213,-0.006405,0.0048189999999999995,-0.8925000000000001,-7.5075,-4.235,1.12128125,0.21381250000000002,0.28746875,1.39859375,1.0884375,-0.2628125,-0.27146875,1.38296875,0.01964426012029727,0.023028581655158382,True
8968,43714,0,43715,3702.0,38968.0,29028.0,0.019459,-0.00488,0.006893,-1.0150000000000001,-7.630000000000001,-4.0425,1.1145,0.21665625,0.29059375,1.40090625,1.077,-0.25934375,-0.2685625,1.38296875,0.019621305708238706,0.02304035313175224,True
8969,43715,0,43716,3701.0,38971.0,29029.0,0.018422,0.001647,0.003904,-1.05,-6.947500000000001,-4.0600000000000005,1.12084375,0.214625,0.2878125,1.39975,1.08653125,-0.2609375,-0.26984375,1.383,0.019601983641398854,0.022977331693781505,True
8970,43716,0,43717,3701.0,38974.0,29033.0,0.018849,0.0037819999999999998,0.012322,-0.7525000000000001,-5.7575,-4.025,1.10775,0.216625,0.29209375,1.4057187500000001,1.08196875,-0.25975,-0.2676875,1.3804687500000001,0.019636434835478517,0.023066938289855593,True
8971,43717,0,43718,3704.0,38977.0,29034.0,0.004758,0.005795,0.000732,-0.6300000000000001,-2.975,-4.340000000000001,1.11953125,0.2156875,0.29084375,1.399875,1.08646875,-0.26253125,-0.268625,1.38165625,0.019710175540732174,0.02305317050306723,True
8972,43718,0,43719,3704.0,38978.0,29036.0,-0.008479,-0.00061,0.000183,-0.31500000000000006,-1.1900000000000002,-3.99,1.11503125,0.21659375,0.29053125,1.400625,1.0816875,-0.259375,-0.267625,1.383125,0.019619992271029243,0.023000036056268384,True
8973,43719,0,43720,3704.0,38982.0,29038.0,-0.011041,0.001281,-0.0021349999999999997,-0.14,0.15750000000000003,-3.7275000000000005,1.11371875,0.21581250000000002,0.29131250000000003,1.40046875,1.078125,-0.2596875,-0.26825,1.3836875,0.019600417359044716,0.023057389799429295,True
8974,43720,0,43721,3704.0,38985.0,29040.0,-0.007808,0.00042699999999999997,-0.003294,-0.07,0.8575,-3.8850000000000002,1.11365625,0.21603125,0.29109375,1.40128125,1.08209375,-0.25925,-0.26846875,1.3830625,0.019591753660974678,0.023057181965796664,True
8975,43721,0,43722,3704.0,38990.0,29043.0,-0.006588,-0.002623,-0.0068319999999999995,-0.24500000000000002,1.1900000000000002,-3.8850000000000002,1.113625,0.22075,0.2911875,1.40475,1.08290625,-0.25915625000000003,-0.2676875,1.37953125,0.019782479038198207,0.023029594393779794,True
8976,43722,0,43723,3706.0,38989.0,29044.0,-0.008539999999999999,-0.005673,-0.009211,-0.42000000000000004,1.4000000000000001,-4.235,1.1185,0.22228125,0.28828125,1.407375,1.08684375,-0.26390625,-0.27190625,1.391,0.02003747850781446,0.02307966643534642,True
8977,43723,0,43724,3705.0,38992.0,29046.0,-0.010187,-0.005612,-0.004148,-0.385,1.2600000000000002,-4.2875000000000005,1.1205,0.21425,0.28984375,1.40071875,1.0958125,-0.26615625,-0.272375,1.3875625,0.019797377262828757,0.023162906390495366,True
8978,43724,0,43725,3707.0,38996.0,29049.0,-0.009333,-0.0040869999999999995,-0.002623,-0.2625,0.7875000000000001,-4.4275,1.1138125,0.21740625,0.29403125,1.3998125000000001,1.077875,-0.25884375,-0.26603125,1.3760625,0.019632015643779394,0.02308010297316336,True
8979,43725,0,43726,3706.0,38999.0,29052.0,-0.006893,-0.001464,-0.00122,-0.14,-0.29750000000000004,-4.6725,1.11953125,0.213875,0.2886875,1.40728125,1.07625,-0.26340625,-0.27365625,1.39759375,0.01967082630865153,0.02316683338547319,True
8980,43726,0,43727,3705.0,39001.0,29054.0,-0.001098,0.0008539999999999999,0.001586,-0.15750000000000003,-1.33,-4.69,1.12053125,0.2146875,0.28728125,1.40653125,1.098625,-0.26071875,-0.27425,1.397375,0.019595719933070823,0.023132795040011537,True
8981,43727,0,43728,3706.0,39004.0,29055.0,0.00061,0.0015249999999999999,0.003355,0.10500000000000001,-3.7275000000000005,-4.567500000000001,1.1220937500000001,0.21446875,0.28903125,1.40796875,1.09003125,-0.262,-0.2755625,1.3975,0.019638477866622702,0.023257700001802224,True
8982,43728,0,43729,3706.0,39006.0,29056.0,0.00488,0.0046359999999999995,0.0053679999999999995,0.24500000000000002,-4.760000000000001,-4.585000000000001,1.1090625,0.21309375,0.290375,1.40684375,1.0990312500000001,-0.26190625,-0.27040625,1.3843125,0.019578016463566213,0.023105556793059447,True
8983,43729,0,43730,3705.0,39008.0,29059.0,0.008723,0.004697,0.007503,0.12250000000000001,-5.6000000000000005,-4.322500000000001,1.108,0.21615625,0.2915625,1.4006875,1.0838125,-0.258,-0.26575,1.3763125,0.01954638675900734,0.022967042024252288,True
8984,43730,0,43731,3704.0,39011.0,29061.0,0.013542,0.0055509999999999995,0.008052,-0.14,-5.8100000000000005,-4.235,1.11490625,0.21640625,0.2911875,1.408,1.074875,-0.256,-0.26503125,1.3855625,0.01947585133575198,0.022922647173594716,True
8985,43731,0,43732,3704.0,39013.0,29061.0,0.013663999999999999,0.000488,0.003477,-0.47250000000000003,-4.0425,-3.8500000000000005,1.12178125,0.21759375,0.2889375,1.4076875,1.092,-0.26690625,-0.276125,1.3940937500000001,0.019965462222857517,0.023276470194481202,True
8986,43732,0,43733,3702.0,39016.0,29064.0,0.008539999999999999,-0.0017079999999999999,0.000122,-0.6825000000000001,-2.8350000000000004,-3.4650000000000003,1.12,0.21278125,0.28821875,1.407,1.09565625,-0.26687500000000003,-0.27425,1.39346875,0.019765884564864656,0.02317141621265333,True
8987,43733,0,43734,3699.0,39020.0,29064.0,0.0021349999999999997,-0.0013419999999999999,-0.0046359999999999995,-0.47250000000000003,-1.5925000000000002,-3.4125000000000005,1.10403125,0.21575,0.29078125,1.40075,1.0939375,-0.2623125,-0.26965625,1.380125,0.019703913219319056,0.02309210704210118,True
8988,43734,0,43735,3700.0,39023.0,29069.0,-0.0015249999999999999,0.000305,-0.0053679999999999995,-0.29750000000000004,-0.4025,-3.4125000000000005,1.11440625,0.21565625,0.29131250000000003,1.4003125,1.08265625,-0.25928125,-0.26853125,1.38271875,0.019577558589045172,0.02306871166750151,True
8989,43735,0,43736,3698.0,39025.0,29069.0,-0.002989,-0.00244,-0.006161,-0.42000000000000004,0.6125,-3.325,1.1128125,0.21571875000000001,0.29065625,1.40603125,1.0823125,-0.25921875,-0.265625,1.3822812500000001,0.01957760902749599,0.022924661944623313,True
8990,43736,0,43737,3699.0,39027.0,29070.0,-0.00549,-0.010675,-0.006771,-1.0850000000000002,2.5200000000000005,-3.2550000000000003,1.1205,0.21625,0.29096875,1.401,1.09025,-0.26,-0.26928125,1.38328125,0.019631079967023908,0.023084738036895924,True
8991,43737,0,43738,3699.0,39029.0,29073.0,-0.007137,-0.009637999999999999,-0.0046359999999999995,-0.8925000000000001,3.4650000000000003,-3.3600000000000003,1.1024375,0.21634375,0.29278125,1.4069375,1.08275,-0.26,-0.26587500000000003,1.38815625,0.019634944352844186,0.023022299834644332,True
8992,43738,0,43739,3698.0,39032.0,29075.0,-0.010919,-0.003477,-0.001586,-0.385,3.99,-3.7625,1.12078125,0.21321875,0.29121875,1.40015625,1.08925,-0.2640625,-0.26675,1.381625,0.019670294288106124,0.022993138759825688,True
8993,43739,0,43740,3697.0,39036.0,29078.0,-0.012017,0.0040869999999999995,-0.00042699999999999997,0.43750000000000006,4.0600000000000005,-4.0600000000000005,1.1143750000000001,0.215,0.29390625,1.40096875,1.082125,-0.25953125,-0.26837500000000003,1.38225,0.019560610842387978,0.023169299551370873,True
8994,43740,0,43741,3698.0,39039.0,29077.0,-0.012749,0.010492,0.0032329999999999998,0.8750000000000001,3.8325000000000005,-4.515000000000001,1.115625,0.21359375,0.28871875,1.39596875,1.084375,-0.261375,-0.26884375,1.38903125,0.019577157106717983,0.022974415499296293,True
8995,43741,0,43742,3697.0,39041.0,29078.0,-0.0051849999999999995,0.008357,0.0060999999999999995,0.6475000000000001,2.45,-4.742500000000001,1.11390625,0.21453125,0.28865625,1.40140625,1.0891250000000001,-0.26203125,-0.26884375,1.38403125,0.019642316634144143,0.022971840180890366,True
8996,43742,0,43743,3698.0,39041.0,29081.0,-0.003111,0.0028669999999999998,0.003477,0.15750000000000003,1.5750000000000002,-4.655,1.11715625,0.212375,0.28784375,1.40621875,1.082125,-0.26034375,-0.270125,1.385375,0.019485245339938763,0.02298994133734375,True
8997,43743,0,43744,3697.0,39040.0,29078.0,-6.1e-05,0.0,0.002623,-0.17500000000000002,0.5775,-4.655,1.12290625,0.21340625,0.28634375,1.41209375,1.0838125,-0.26056250000000003,-0.26653125,1.3879375,0.019536593597118783,0.022783437579279073,True
8998,43744,0,43745,3698.0,39039.0,29078.0,0.004209,-0.001403,0.000549,-0.21000000000000002,-0.35000000000000003,-4.375,1.12353125,0.2116875,0.29281250000000003,1.4105625,1.08865625,-0.26284375,-0.270625,1.38946875,0.019557940317692563,0.023214791543275052,True
8999,43745,0,43746,3699.0,39041.0,29078.0,0.0064659999999999995,-0.001952,-0.000305,-0.12250000000000001,-1.12,-4.165,1.12453125,0.21440625,0.28746875,1.4094375000000001,1.0899375,-0.26234375,-0.271125,1.38596875,0.019649791665324996,0.023014744887185905,True
9000,43746,0,43747,3700.0,39042.0,29077.0,0.006893,-0.0017079999999999999,-0.0011589999999999999,-0.1925,-2.1875,-3.99,1.1240625,0.21359375,0.29281250000000003,1.3965,1.09015625,-0.25878125,-0.27128125000000003,1.38784375,0.01947233025154551,0.02324120198640111,True
9001,43747,0,43748,3700.0,39040.0,29078.0,0.006039,-0.003111,-0.0006709999999999999,-0.21000000000000002,-2.345,-3.8150000000000004,1.11309375,0.21709375,0.29359375,1.40578125,1.08759375,-0.26209375,-0.2716875,1.3876875,0.019750459500223472,0.023289738301055497,True
9002,43748,0,43749,3700.0,39038.0,29077.0,0.0028669999999999998,-0.0030499999999999998,0.000305,-0.15750000000000003,-2.3625000000000003,-3.7800000000000002,1.1196875,0.21365625,0.28740625000000003,1.40996875,1.089,-0.2625,-0.26987500000000003,1.3880625,0.019625193199381764,0.02296185085419682,True
9003,43749,0,43750,3700.0,39040.0,29076.0,-0.0015249999999999999,-0.0023179999999999997,0.000793,-0.10500000000000001,-2.3625000000000003,-3.535,1.1261875000000001,0.2149375,0.28981250000000003,1.398125,1.0858125,-0.2546875,-0.26878125,1.38265625,0.01936223668105392,0.023016967529014255,True
9004,43750,0,43751,3700.0,39043.0,29080.0,-0.002806,0.000915,0.0013419999999999999,0.21000000000000002,-2.2925000000000004,-3.3425000000000002,1.11071875,0.2179375,0.293375,1.40690625,1.082,-0.259125,-0.27090625,1.3865625,0.019665280590293342,0.023249286375534497,True
9005,43751,0,43752,3700.0,39041.0,29078.0,-0.0011589999999999999,0.00183,0.001037,0.17500000000000002,-2.66,-3.1675000000000004,1.12328125,0.2121875,0.28596875,1.407125,1.07453125,-0.2611875,-0.27165625,1.3853125,0.019511617063262054,0.02297432833822373,True
9006,43752,0,43753,3701.0,39043.0,29079.0,-0.000915,0.0008539999999999999,0.001281,0.08750000000000001,-2.8175000000000003,-3.0975,1.1273125,0.215375,0.2909375,1.399,1.0828125,-0.25928125,-0.26846875,1.38215625,0.019565965088104167,0.023050743570296333,True
9007,43753,0,43754,3701.0,39045.0,29078.0,0.002074,0.000244,0.002745,-0.07,-2.8875,-2.975,1.0986562500000001,0.21678125,0.29015625,1.398625,1.0815937500000001,-0.2614375,-0.26625,1.382625,0.019711064111514416,0.022929222685829084,True
9008,43754,0,43755,3702.0,39046.0,29079.0,0.007503,0.000122,0.0048189999999999995,-0.1925,-2.2750000000000004,-3.0450000000000004,1.11121875,0.213625,0.28840625000000003,1.39578125,1.078875,-0.25978125,-0.27003125,1.3855,0.01951403621992676,0.023009344085619998,True
9009,43755,0,43756,3701.0,39047.0,29080.0,-0.004514,-0.001403,-0.01647,0.0175,-2.3275,-3.1325000000000003,1.11271875,0.22059375,0.2915625,1.4016875,1.08240625,-0.26003125,-0.2675,1.3834375,0.01981139245234896,0.023037498712269497,True
9010,43756,0,43757,3701.0,39048.0,29084.0,0.008418,0.01098,0.012565999999999999,0.47250000000000003,-2.7300000000000004,-3.3950000000000005,1.1186875,0.212875,0.288375,1.40165625,1.0872187500000001,-0.26140625,-0.2699375,1.38375,0.019548794703522183,0.02300428256150227,True
9011,43757,0,43758,3703.0,39051.0,29085.0,0.019032,-0.0077469999999999995,0.025315,-0.7000000000000001,-1.5575,-3.3775000000000004,1.11365625,0.2164375,0.29196875,1.3930625,1.081625,-0.25953125,-0.2675,1.383875,0.01961986590322103,0.02305423920881838,True
9012,43758,0,43759,3703.0,39051.0,29086.0,-0.017811999999999998,-0.025131999999999998,-0.008296,-1.54,-1.6975000000000002,-3.4125000000000005,1.11621875,0.21346875,0.2885625,1.40740625,1.08325,-0.25890625,-0.27253125,1.3851875,0.01947222991555936,0.023116408594591877,True
9013,43759,0,43760,3702.0,39053.0,29088.0,-0.024827,-0.016836,-0.014945,-0.8925000000000001,-2.8175000000000003,-3.43,1.11965625,0.21409375,0.28790625000000003,1.40040625,1.1010625,-0.269625,-0.28021875,1.40178125,0.01993103519316841,0.02339867716389499,True
9014,43760,0,43761,3704.0,39053.0,29091.0,0.010553,0.001281,-0.008784,-0.0175,-2.7825,-3.6575,1.1144375,0.21571875000000001,0.293,1.4069375,1.0813125000000001,-0.25625,-0.26484375,1.3859062500000001,0.019457614017005926,0.022989793618596863,True
9015,43761,0,43762,3702.0,39056.0,29093.0,0.0068319999999999995,0.007442,-0.003355,0.43750000000000006,-1.6800000000000002,-4.235,1.1154375,0.21515625,0.29084375,1.39584375,1.10221875,-0.269625,-0.26737500000000003,1.37703125,0.01997481419675829,0.023002848474546585,True
9016,43762,0,43763,3703.0,39060.0,29094.0,-0.004148,0.004758,0.0060999999999999995,0.31500000000000006,-0.9450000000000001,-3.8850000000000002,1.11503125,0.21581250000000002,0.29046875,1.3888125,1.072875,-0.25906250000000003,-0.27125,1.38403125,0.019575158767986194,0.023143379512798067,True
9017,43763,0,43764,3704.0,39061.0,29095.0,-0.001037,0.002989,0.006222,0.28,-0.8225000000000001,-3.8675,1.11415625,0.215375,0.29128125,1.40115625,1.07715625,-0.2525625,-0.26634375,1.37271875,0.019294352916315545,0.022979357984245156,True
9018,43764,0,43765,3705.0,39062.0,29095.0,-0.002196,0.006222,0.000976,0.5775,-1.4875,-4.130000000000001,1.1134375,0.21534375,0.289625,1.408,1.06925,-0.2558125,-0.26721875,1.391,0.01942446784662439,0.02294633578477138,True
9019,43765,0,43766,3705.0,39063.0,29098.0,-0.001281,0.010735999999999999,0.0059169999999999995,0.9975,-1.9250000000000003,-3.9725000000000006,1.12134375,0.21478125,0.2909375,1.39921875,1.1031875,-0.269625,-0.27368750000000003,1.38478125,0.01995936278372657,0.023260783924980495,True
9020,43766,0,43767,3708.0,39065.0,29098.0,-0.0021349999999999997,0.000305,0.008052,0.29750000000000004,-1.6625,-3.325,1.113625,0.21581250000000002,0.29171875,1.40040625,1.08215625,-0.25928125,-0.264125,1.37203125,0.019583999422901288,0.022908048404795146,True
9021,43767,0,43768,3706.0,39067.0,29099.0,-0.010797,-0.005307,0.002196,-0.10500000000000001,-2.205,-3.0100000000000002,1.11396875,0.22125,0.29096875,1.4005625,1.069125,-0.25665625000000003,-0.26371875,1.37278125,0.019702066314271988,0.022860778502883036,True
9022,43768,0,43769,3707.0,39067.0,29102.0,-0.004514,-0.0057339999999999995,0.003111,-0.21000000000000002,-2.3975000000000004,-2.6775,1.11415625,0.21590625,0.2931875,1.4066875,1.069125,-0.2556875,-0.26275,1.38846875,0.019442604956054124,0.022913210580004326,True
9023,43769,0,43770,3710.0,39067.0,29102.0,0.003843,-0.0044529999999999995,-0.000244,-0.14,-2.205,-2.5900000000000003,1.12196875,0.2116875,0.29,1.40053125,1.10078125,-0.266625,-0.27087500000000003,1.3800625,0.019710713789000325,0.023108973203479478,True
9024,43770,0,43771,3708.0,39067.0,29102.0,6.1e-05,-0.004392,-0.006588,-0.14,-2.345,-2.7125000000000004,1.1145,0.21506250000000002,0.29125,1.40121875,1.07371875,-0.25815625000000003,-0.265375,1.3760625,0.01950761406279589,0.022939064407617855,True
9025,43771,0,43772,3709.0,39069.0,29104.0,0.004392,-0.000732,-0.010369999999999999,0.22750000000000004,-2.1,-2.5900000000000003,1.10909375,0.21628125,0.29181250000000003,1.40115625,1.07753125,-0.25853125,-0.26825,1.3769375,0.019573011041218745,0.0230779928507412,True
9026,43772,0,43773,3711.0,39070.0,29106.0,0.0032329999999999998,0.001586,-0.00976,0.42000000000000004,-1.8900000000000001,-2.9050000000000002,1.11640625,0.2124375,0.289375,1.40759375,1.08815625,-0.26259375,-0.2708125,1.38815625,0.01957874969571215,0.02308070650704421,True
9027,43773,0,43774,3711.0,39074.0,29108.0,-0.002013,0.0035989999999999998,-0.0044529999999999995,0.6825000000000001,-1.6800000000000002,-3.2025,1.11821875,0.21515625,0.29246875,1.400875,1.0816875,-0.25996875,-0.2678125,1.38125,0.01958473256483482,0.023087422898128953,True
9028,43774,0,43775,3712.0,39079.0,29111.0,-0.0023179999999999997,0.002928,0.002806,0.7525000000000001,-1.4525000000000001,-3.5175000000000005,1.11403125,0.216,0.2921875,1.40115625,1.082875,-0.25946875,-0.2636875,1.383125,0.019599305941108047,0.0229097493940276,True
9029,43775,0,43776,3712.0,39079.0,29115.0,0.000122,0.000915,0.005673,0.49000000000000005,-1.2950000000000002,-3.8325000000000005,1.1143125,0.21565625,0.2921875,1.40525,1.08509375,-0.262625,-0.27084375,1.3880625,0.019712675359735397,0.023197844121096944,True
9030,43776,0,43777,3714.0,39081.0,29117.0,0.000366,-0.0032329999999999998,0.0057339999999999995,0.07,-1.0675000000000001,-4.2175,1.11825,0.21365625,0.29115625,1.40103125,1.08625,-0.26028125,-0.2684375,1.372875,0.019535531971625435,0.02305849933684441,True
9031,43777,0,43778,3716.0,39079.0,29114.0,0.000122,-0.0021349999999999997,0.001952,0.28,-0.665,-4.322500000000001,1.11434375,0.214,0.291375,1.4065,1.0896875,-0.26209375,-0.26440625,1.387625,0.019622945773177553,0.022905207087026907,True
9032,43778,0,43779,3716.0,39080.0,29112.0,-0.0023179999999999997,0.000244,-0.000488,0.525,-0.42000000000000004,-4.515000000000001,1.119375,0.21531250000000002,0.29103125,1.400875,1.08271875,-0.260375,-0.26896875,1.3727500000000001,0.019607590566922403,0.02307473406755283,True
9033,43779,0,43780,3717.0,39080.0,29114.0,0.001647,0.000366,0.00042699999999999997,0.5425000000000001,-0.035,-4.812500000000001,1.115,0.2175,0.28790625000000003,1.4089375,1.08659375,-0.2603125,-0.2708125,1.39021875,0.019695232697435366,0.023020191433640716,True
9034,43780,0,43781,3715.0,39081.0,29112.0,0.0034159999999999998,-0.001769,-0.000122,0.3325,0.47250000000000003,-5.005000000000001,1.1205625000000001,0.21478125,0.29103125,1.400875,1.083625,-0.259625,-0.26878125,1.3815,0.019555382657398868,0.02306718636725938,True
9035,43781,0,43782,3716.0,39078.0,29111.0,-0.004575,-0.003477,-0.006344,0.0175,1.1900000000000002,-5.232500000000001,1.100625,0.21634375,0.288125,1.4166875,1.08653125,-0.26203125,-0.27090625,1.38859375,0.019717021838392034,0.023032978012512414,True
9036,43782,0,43783,3715.0,39078.0,29110.0,-0.003904,-0.000122,-0.005307,0.47250000000000003,1.3650000000000002,-5.3375,1.1310625,0.210125,0.28500000000000003,1.399125,1.082875,-0.259625,-0.26803125,1.376875,0.019363448528161502,0.022788467853155584,True
9037,43783,0,43784,3714.0,39078.0,29108.0,-0.000305,0.004697,0.0,0.6300000000000001,1.4175000000000002,-5.425000000000001,1.10784375,0.2169375,0.296,1.39759375,1.08171875,-0.259375,-0.271125,1.388125,0.01963416205075358,0.023366242809099286,True
9038,43784,0,43785,3713.0,39078.0,29106.0,-0.001464,0.004514,0.0025009999999999998,0.7000000000000001,1.4175000000000002,-5.477500000000001,1.10603125,0.21815625,0.288125,1.41646875,1.08971875,-0.260125,-0.2698125,1.3880625,0.01971470674615238,0.022988949749817803,True
9039,43785,0,43786,3714.0,39078.0,29108.0,-0.004392,0.0040869999999999995,0.002928,0.7875000000000001,0.8400000000000001,-5.250000000000001,1.12578125,0.21671875000000002,0.2965,1.3882812500000001,1.06928125,-0.25928125,-0.2683125,1.3879062500000001,0.01962135625926675,0.023273661899647944,True
9040,43786,0,43787,3711.0,39078.0,29109.0,0.002074,0.0013419999999999999,0.0060999999999999995,0.36750000000000005,-0.31500000000000006,-4.865,1.108125,0.21796875000000002,0.29309375,1.396625,1.09028125,-0.26106250000000003,-0.2718125,1.38884375,0.019744858659838167,0.023274168338273046,True
9041,43787,0,43788,3712.0,39077.0,29107.0,0.0055509999999999995,6.1e-05,0.008113,0.1925,-0.43750000000000006,-4.6725,1.10715625,0.216625,0.2935625,1.3950625,1.0893125000000001,-0.262125,-0.26687500000000003,1.38975,0.019732401840316955,0.023094753650810006,True
9042,43788,0,43789,3710.0,39079.0,29106.0,0.003294,-0.00183,0.005856,0.14,-0.4025,-4.2,1.1067500000000001,0.2193125,0.29390625,1.395875,1.09115625,-0.2596875,-0.27125,1.3835,0.019744689621414128,0.023285007982695578,True
9043,43789,0,43790,3710.0,39076.0,29104.0,-0.002806,-0.0021349999999999997,0.000244,0.10500000000000001,-0.6475000000000001,-3.8675,1.109125,0.21459375,0.2905625,1.38596875,1.0819375,-0.259375,-0.26834375,1.38203125,0.019537549916269485,0.02303025932702968,True
9044,43790,0,43791,3708.0,39076.0,29104.0,0.0,-0.001098,-0.00671,0.17500000000000002,-1.0675000000000001,-3.5875000000000004,1.10790625,0.217125,0.28890625000000003,1.4114375000000001,1.08559375,-0.260125,-0.2660625,1.38965625,0.01967219872115251,0.02287016074404325,True
9045,43791,0,43792,3709.0,39077.0,29103.0,0.004026,6.1e-05,-0.00549,0.3325,-1.4000000000000001,-3.1500000000000004,1.128125,0.215125,0.293625,1.4040625,1.0826875,-0.259,-0.26790625,1.38890625,0.019544292839770806,0.023138842066360795,True
9046,43792,0,43793,3708.0,39075.0,29105.0,0.002074,-0.003965,-0.0048189999999999995,0.0175,-1.155,-3.0275000000000003,1.1193125,0.2136875,0.29459375,1.39865625,1.08775,-0.26,-0.26840625,1.38275,0.01952545342126958,0.02319888641224637,True
9047,43793,0,43794,3708.0,39077.0,29106.0,-0.0008539999999999999,-0.00488,-0.00244,0.0,-1.0850000000000002,-3.0100000000000002,1.11159375,0.214125,0.2905,1.4068125,1.08225,-0.2596875,-0.264375,1.38940625,0.019530857518259462,0.02286788759240656,True
9048,43794,0,43795,3708.0,39078.0,29107.0,-0.002928,-0.001952,-0.000488,0.36750000000000005,-1.1025,-3.1675000000000004,1.121375,0.21559375,0.291,1.39784375,1.0730625,-0.2594375,-0.268125,1.3759375,0.019581296969478374,0.023039480800432666,True
9049,43795,0,43796,3707.0,39079.0,29110.0,-0.0030499999999999998,0.005612,0.002623,0.6300000000000001,-0.8575,-3.5175000000000005,1.1141875,0.21625,0.29178125,1.401125,1.0821875,-0.258875,-0.26878125,1.38184375,0.019585615573681797,0.02309809026771792,True
9050,43796,0,43797,3708.0,39082.0,29111.0,-0.0040869999999999995,0.0040869999999999995,0.001403,0.77,-0.9625000000000001,-3.6225000000000005,1.12090625,0.213875,0.29015625,1.4000625,1.0798125,-0.261375,-0.26965625,1.383,0.019588749607143043,0.02306635472020746,True
9051,43797,0,43798,3708.0,39080.0,29111.0,-0.003294,0.00061,-0.000244,0.35000000000000003,-0.9275000000000001,-3.6225000000000005,1.11459375,0.21534375,0.29165625,1.40484375,1.0826875,-0.25971875,-0.2698125,1.38896875,0.019582358101327947,0.023134449431778673,True
9052,43798,0,43799,3709.0,39082.0,29115.0,-0.0023179999999999997,-0.0034159999999999998,-0.0026839999999999998,0.10500000000000001,-1.3475000000000001,-3.5875000000000004,1.118625,0.21525,0.29171875,1.4005,1.07709375,-0.25946875,-0.26565625,1.38265625,0.019568390177546656,0.02296970641377152,True
9053,43799,0,43800,3709.0,39082.0,29115.0,0.002074,-0.003965,-0.002379,-0.0175,-1.5750000000000002,-3.5875000000000004,1.1135625,0.21565625,0.29240625,1.40659375,1.08575,-0.26106250000000003,-0.2709375,1.38946875,0.01964954131749176,0.023210629997296152,True
9054,43800,0,43801,3711.0,39082.0,29116.0,0.003538,-0.001586,0.00122,0.28,-1.435,-3.7800000000000002,1.11946875,0.21403125,0.2915625,1.4065,1.08890625,-0.26134375,-0.27225,1.3905625,0.019593927067621718,0.02322868708092575,True
9055,43801,0,43802,3709.0,39081.0,29116.0,0.000549,0.000366,0.002013,0.385,-1.2950000000000002,-3.8850000000000002,1.12178125,0.214625,0.29078125,1.401375,1.08325,-0.25978125,-0.2688125,1.381875,0.019555256707024102,0.023058143038519087,True
9056,43802,0,43803,3711.0,39083.0,29115.0,-0.0006709999999999999,0.0011589999999999999,0.002745,0.43750000000000006,-1.3475000000000001,-3.8850000000000002,1.1140625,0.21553125,0.291375,1.399875,1.08265625,-0.2578125,-0.26871875,1.38265625,0.01951304347826087,0.023078834765432352,True
9057,43803,0,43804,3712.0,39083.0,29118.0,0.000488,0.0032329999999999998,0.005124,0.45500000000000007,-1.2425000000000002,-3.9725000000000006,1.113875,0.21565625,0.2916875,1.4024375,1.08209375,-0.2589375,-0.2675,1.38834375,0.019563665968470385,0.023042649634284536,True
9058,43804,0,43805,3711.0,39085.0,29118.0,0.0021349999999999997,0.00488,0.003904,0.525,-1.3825,-3.9375000000000004,1.12015625,0.21265625,0.28800000000000003,1.4076875,1.08978125,-0.26103125,-0.272125,1.38565625,0.01952462346381092,0.023076883461996014,True
9059,43805,0,43806,3711.0,39085.0,29119.0,0.000549,0.0032329999999999998,0.0021349999999999997,0.5425000000000001,-1.0325000000000002,-3.8850000000000002,1.1146875,0.2159375,0.2968125,1.40646875,1.08203125,-0.25903125,-0.26825,1.39053125,0.019579048524454166,0.02328402336386019,True
9060,43806,0,43807,3713.0,39085.0,29120.0,-0.001098,0.000915,0.000305,0.45500000000000007,-0.8925000000000001,-3.6400000000000006,1.121375,0.21565625,0.29284375,1.40746875,1.08925,-0.2594375,-0.26953125,1.38796875,0.01958387328642719,0.02317205858683406,True
9061,43807,0,43808,3714.0,39085.0,29118.0,-0.000488,-0.0018909999999999999,-0.003172,0.28,-0.8225000000000001,-3.6750000000000003,1.1164375,0.21596875000000001,0.29228125,1.40678125,1.08271875,-0.25921875,-0.268625,1.3900937500000001,0.019587914388215822,0.023112403360305744,True
9062,43808,0,43809,3712.0,39087.0,29120.0,-6.1e-05,-0.002745,-0.002074,0.10500000000000001,-0.77,-3.7100000000000004,1.11453125,0.21590625,0.28953125,1.39721875,1.07325,-0.25946875,-0.27040625,1.3883125,0.01959544147066287,0.023070792232824697,True
9063,43809,0,43810,3714.0,39087.0,29119.0,0.000793,-0.003294,-0.001952,0.17500000000000002,-0.5425000000000001,-3.6050000000000004,1.11271875,0.2154375,0.29103125,1.40046875,1.0833125000000001,-0.259375,-0.26837500000000003,1.38325,0.019572330284683758,0.023050832616522538,True
9064,43810,0,43811,3714.0,39086.0,29119.0,-0.002257,-0.003111,-0.0021349999999999997,0.31500000000000006,-0.052500000000000005,-3.8500000000000005,1.11478125,0.21684375,0.29034375,1.40346875,1.083,-0.2608125,-0.2695,1.3884375,0.01968838636381201,0.023067790848595972,True
9065,43811,0,43812,3715.0,39088.0,29118.0,-0.003111,-0.001281,-0.002074,0.56,-0.0175,-3.7800000000000002,1.1175,0.21378125,0.288625,1.404125,1.0890625,-0.2599375,-0.26865625,1.38309375,0.019526791855914716,0.022963003977610006,True
9066,43812,0,43813,3714.0,39089.0,29121.0,-0.003904,0.0015249999999999999,-0.001098,0.7525000000000001,-0.052500000000000005,-3.9725000000000006,1.1180625,0.2165,0.29128125,1.40453125,1.0824375,-0.25975,-0.272125,1.38596875,0.01963128226795412,0.023212069400598424,True
9067,43813,0,43814,3714.0,39088.0,29122.0,-0.003477,0.002074,0.0,0.7525000000000001,-0.2625,-4.095000000000001,1.11496875,0.21565625,0.29046875,1.4044375,1.08290625,-0.2589375,-0.26840625,1.38003125,0.019563665968470385,0.023028912333293412,True
9068,43814,0,43815,3714.0,39090.0,29121.0,-0.0035989999999999998,0.002623,-6.1e-05,0.7350000000000001,-0.6475000000000001,-4.165,1.1048125,0.21331250000000002,0.29025,1.40040625,1.0831875,-0.26015625,-0.26978125000000003,1.37584375,0.019516310823430905,0.023075249184621307,True
9069,43815,0,43816,3716.0,39088.0,29121.0,0.000244,0.000488,-0.000183,0.49000000000000005,-1.5750000000000002,-4.0600000000000005,1.11521875,0.21665625,0.29565625,1.3960937500000001,1.08225,-0.2591875,-0.2675,1.38903125,0.019614991227550387,0.02320619140826208,True
9070,43816,0,43817,3715.0,39089.0,29120.0,0.0025009999999999998,-0.00122,0.00042699999999999997,0.29750000000000004,-2.0825,-4.025,1.12003125,0.21459375,0.2884375,1.40621875,1.0819375,-0.264625,-0.2724375,1.39121875,0.019749687044411362,0.02310748559966423,True
9071,43817,0,43818,3715.0,39089.0,29121.0,0.005429,-0.0018909999999999999,6.1e-05,0.15750000000000003,-2.3275,-3.9550000000000005,1.1195625,0.21381250000000002,0.2868125,1.41346875,1.09325,-0.26296875000000003,-0.27096875,1.39015625,0.01965057346908548,0.022981416841880282,True
9072,43818,0,43819,3717.0,39090.0,29123.0,0.004514,-0.0018909999999999999,0.000183,0.15750000000000003,-2.3275,-3.9025000000000003,1.1416250000000001,0.20775000000000002,0.28190625,1.42871875,1.09240625,-0.26225,-0.2680625,1.37415625,0.019371657616255703,0.022662243844147015,True
9073,43819,0,43820,3716.0,39090.0,29122.0,0.0032329999999999998,-0.0017079999999999999,0.001098,0.29750000000000004,-2.2575000000000003,-3.8325000000000005,1.1328125,0.20321875,0.2835625,1.40384375,1.08175,-0.25896875,-0.26715625,1.3775625,0.019052231970907666,0.02269399612902727,True
9074,43820,0,43821,3719.0,39088.0,29122.0,0.0030499999999999998,0.0017079999999999999,0.002562,0.525,-1.9425000000000001,-3.9025000000000003,1.114625,0.21571875000000001,0.29384375,1.39546875,1.078875,-0.258375,-0.26721875,1.38015625,0.019543508169858864,0.023120181417575922,True
9075,43821,0,43822,3720.0,39089.0,29121.0,0.001037,0.0017079999999999999,0.001281,0.5425000000000001,-1.5225000000000002,-3.8150000000000004,1.09628125,0.21987500000000001,0.29528125,1.38921875,1.079,-0.258375,-0.2704375,1.3876875,0.0197148407508747,0.023308963837178464,True
9076,43822,0,43823,3719.0,39089.0,29122.0,-0.0035989999999999998,6.1e-05,6.1e-05,0.5425000000000001,-1.2775,-3.7975000000000003,1.10175,0.21965625,0.28700000000000003,1.41678125,1.0925625,-0.26096875,-0.27325,1.3830625,0.01981062689427849,0.023080963612206854,True
9077,43823,0,43824,3722.0,39088.0,29123.0,-0.00488,0.000976,-0.0015249999999999999,0.5425000000000001,-1.2950000000000002,-3.7100000000000004,1.13625,0.20625000000000002,0.2833125,1.420625,1.082875,-0.26056250000000003,-0.2691875,1.38746875,0.01924161898554496,0.022765492252264315,True
9078,43824,0,43825,3722.0,39088.0,29122.0,-0.00366,0.002196,-0.001769,0.665,-1.33,-3.7625,1.1293125,0.20559375,0.2826875,1.39746875,1.0871250000000001,-0.2605,-0.2694375,1.37915625,0.019212042208528266,0.022749806212031078,True
9079,43825,0,43826,3722.0,39088.0,29123.0,-0.003172,6.1e-05,-0.000488,0.525,-1.6275000000000002,-3.7100000000000004,1.13290625,0.21040625000000002,0.2883125,1.413125,1.07953125,-0.2588125,-0.26740625,1.379875,0.019342197809558898,0.022899800014680186,True
9080,43826,0,43827,3720.0,39087.0,29122.0,-0.002623,-0.0017079999999999999,-0.000488,0.42000000000000004,-1.8900000000000001,-3.9025000000000003,1.1335,0.20971875,0.28803125,1.38953125,1.0805625,-0.25859375,-0.266625,1.3821875000000001,0.019305014331261475,0.022856752844699256,True
9081,43827,0,43828,3723.0,39087.0,29124.0,-0.000549,-0.0023179999999999997,0.0008539999999999999,0.35000000000000003,-2.0825,-3.7450000000000006,1.108375,0.21559375,0.29246875,1.39328125,1.08240625,-0.25915625000000003,-0.26825,1.38234375,0.019569930425754195,0.023105034355588062,True
9082,43828,0,43829,3723.0,39087.0,29127.0,0.0023179999999999997,0.000122,0.0025009999999999998,0.45500000000000007,-2.3800000000000003,-3.8150000000000004,1.11390625,0.21471875,0.29131250000000003,1.39734375,1.08271875,-0.25840625,-0.2683125,1.37621875,0.0195035483833568,0.0230599057927905,True
9083,43829,0,43830,3725.0,39087.0,29124.0,0.004392,0.0026839999999999998,0.001037,0.5425000000000001,-2.5375,-3.8675,1.10690625,0.2161875,0.29259375,1.400125,1.08103125,-0.25915625000000003,-0.2685,1.3820937500000001,0.019594405720520475,0.023120248470239198,True
9084,43830,0,43831,3725.0,39088.0,29122.0,0.0017079999999999999,0.000305,0.000244,0.35000000000000003,-2.4850000000000003,-3.9375000000000004,1.112,0.22334375,0.2914375,1.4006875,1.08184375,-0.25906250000000003,-0.2688125,1.38325,0.01988560975923946,0.023085183916600784,True
9085,43831,0,43832,3726.0,39087.0,29122.0,0.0011589999999999999,-0.002257,-0.000732,0.14,-2.3800000000000003,-3.9025000000000003,1.1143125,0.21715625,0.29209375,1.400375,1.08153125,-0.25884375,-0.2683125,1.38215625,0.019621710123756412,0.023092097977558183,True
9086,43832,0,43833,3726.0,39088.0,29122.0,0.003294,-0.0028669999999999998,-0.002623,0.0,-2.3975000000000004,-3.8500000000000005,1.1141875,0.215875,0.2906875,1.405875,1.0821875,-0.2594375,-0.2705625,1.38621875,0.019592890395748047,0.02312472156341659,True
9087,43833,0,43834,3724.0,39087.0,29118.0,0.0034159999999999998,-0.004209,-0.001281,0.052500000000000005,-2.2750000000000004,-3.7450000000000006,1.11946875,0.21503125,0.289,1.40265625,1.08075,-0.26206250000000003,-0.2669375,1.38878125,0.019664187659231364,0.022909256678969068,True
9088,43834,0,43835,3726.0,39086.0,29116.0,0.000244,-0.002928,-0.0013419999999999999,0.08750000000000001,-2.0825,-3.7100000000000004,1.11571875,0.21584375,0.291375,1.40134375,1.07725,-0.26006250000000003,-0.26853125,1.38284375,0.01961686001427243,0.023071287019069193,True
9089,43835,0,43836,3723.0,39088.0,29119.0,-0.002196,0.0028669999999999998,0.000366,0.6475000000000001,-1.8025000000000002,-3.7625,1.11028125,0.21406250000000002,0.28834375,1.40765625,1.08253125,-0.2589375,-0.27125,1.3897187500000001,0.01949796853221622,0.023055827367770513,True
9090,43836,0,43837,3724.0,39089.0,29117.0,-0.000122,0.004697,0.003477,0.6475000000000001,-1.6800000000000002,-3.7800000000000002,1.11925,0.21409375,0.29031250000000003,1.40125,1.0898125,-0.26365625,-0.26865625,1.3746875,0.01968994264827668,0.02303253811178771,True
9091,43837,0,43838,3723.0,39088.0,29114.0,-0.001952,0.003111,0.002989,0.56,-1.5050000000000001,-3.7100000000000004,1.11590625,0.21381250000000002,0.28878125,1.3980000000000001,1.083375,-0.26006250000000003,-0.271125,1.3906875,0.019533131870538258,0.023068821490557195,True
9092,43838,0,43839,3721.0,39088.0,29116.0,-0.0042699999999999995,0.001098,0.002013,0.36750000000000005,-1.54,-3.6050000000000004,1.12040625,0.21684375,0.293875,1.4053125,1.09046875,-0.26184375,-0.27134375,1.39025,0.019730054522340248,0.02328749309563876,True
9093,43839,0,43840,3721.0,39089.0,29115.0,-0.002989,0.000549,0.001037,0.29750000000000004,-1.6275000000000002,-3.535,1.12,0.21390625,0.288625,1.4037187500000001,1.09,-0.260875,-0.27253125,1.387625,0.019569832085611093,0.02311898352175363,True
9094,43840,0,43841,3719.0,39088.0,29115.0,0.003477,-0.000366,-0.0017079999999999999,0.10500000000000001,-1.9250000000000003,-3.6750000000000003,1.1129375,0.21559375,0.29178125,1.39275,1.07884375,-0.26006250000000003,-0.26825,1.38234375,0.019606555011966682,0.0230767051600342,True
9095,43841,0,43842,3719.0,39087.0,29111.0,0.003965,-0.002745,-0.0021349999999999997,-0.0175,-1.715,-3.7800000000000002,1.10759375,0.216125,0.291375,1.4000937500000001,1.08203125,-0.25946875,-0.2686875,1.38284375,0.01960445856836828,0.02307757681580432,True
9096,43842,0,43843,3720.0,39087.0,29112.0,0.004514,-0.002806,-0.00244,-0.0175,-1.5925000000000002,-3.8325000000000005,1.1116875,0.21671875000000002,0.29221875,1.4056250000000001,1.0846875,-0.2596875,-0.2710625,1.3860937500000001,0.019637773569836793,0.02320793537571748,True
9097,43843,0,43844,3719.0,39086.0,29113.0,0.002196,-0.004209,-0.002074,-0.12250000000000001,-1.3650000000000002,-3.7625,1.1193125,0.2131875,0.291375,1.40775,1.08859375,-0.26115625,-0.27025,1.388125,0.01955157227924782,0.02314047032890061,True
9098,43844,0,43845,3717.0,39085.0,29113.0,0.000549,-0.002257,-0.003111,0.0,-1.2425000000000002,-3.9200000000000004,1.11959375,0.21340625,0.28809375,1.4072500000000001,1.08871875,-0.26203125,-0.26978125000000003,1.38671875,0.019595947886679933,0.022986404131681244,True
9099,43845,0,43846,3718.0,39088.0,29111.0,-0.003172,0.000366,-0.002013,0.3325,-0.8225000000000001,-3.9550000000000005,1.11509375,0.21371875,0.2894375,1.40878125,1.0891875,-0.26206250000000003,-0.2704375,1.38734375,0.01961009085686759,0.02306818737816325,True
9100,43846,0,43847,3719.0,39087.0,29112.0,-0.0068319999999999995,0.001647,-0.000976,0.47250000000000003,-0.7350000000000001,-3.9550000000000005,1.1215,0.21325,0.29478125,1.40075,1.0871250000000001,-0.26056250000000003,-0.27053125,1.38603125,0.019530153103416298,0.023292135395676598,True
9101,43847,0,43848,3718.0,39088.0,29113.0,-0.007625,0.000549,-0.000366,0.45500000000000007,-0.9275000000000001,-3.9550000000000005,1.1147500000000001,0.21915625,0.2920625,1.401125,1.0821875,-0.25925,-0.26840625,1.375,0.019720570504034543,0.02309458413652524,True
9102,43848,0,43849,3716.0,39087.0,29113.0,-0.0059169999999999995,0.000549,0.0021349999999999997,0.36750000000000005,-1.33,-3.8850000000000002,1.1144687500000001,0.216375,0.29159375,1.4016250000000001,1.08234375,-0.2601875,-0.26787500000000003,1.38284375,0.01964380943057427,0.023053882962558524,True
9103,43849,0,43850,3718.0,39085.0,29113.0,-0.00244,0.002074,0.002562,0.2625,-1.8025000000000002,-3.9025000000000003,1.1145625000000001,0.21603125,0.29434375,1.4072500000000001,1.07259375,-0.25925,-0.26775,1.3888125,0.019591753660974678,0.02316216995807193,True
9104,43850,0,43851,3717.0,39085.0,29113.0,0.006588,0.0008539999999999999,0.003294,0.15750000000000003,-2.7475,-3.9375000000000004,1.12221875,0.21303125,0.29040625000000003,1.40078125,1.09290625,-0.26234375,-0.27025,1.38265625,0.01959311948170712,0.023100555206477066,True
9105,43851,0,43852,3719.0,39085.0,29113.0,0.0075639999999999995,-6.1e-05,0.00244,0.07,-2.8875,-3.8150000000000004,1.11403125,0.21659375,0.29140625000000003,1.40159375,1.082125,-0.2531875,-0.26921875,1.38084375,0.019369876639926197,0.023100249158205806,True
9106,43852,0,43853,3718.0,39085.0,29111.0,0.006161,-0.00042699999999999997,0.002196,0.0,-2.6250000000000004,-3.7100000000000004,1.1206562500000001,0.21309375,0.28934375,1.40090625,1.081,-0.26346875000000003,-0.275875,1.39140625,0.019641152916357024,0.023283146333551313,True
9107,43853,0,43854,3719.0,39085.0,29110.0,0.004026,-0.000122,0.001769,0.22750000000000004,-2.415,-3.7275000000000005,1.1145,0.21937500000000001,0.29131250000000003,1.4059375,1.079875,-0.2571875,-0.26621875,1.377375,0.01964623887249913,0.022975612959888942,True
9108,43854,0,43855,3719.0,39084.0,29111.0,0.0011589999999999999,0.000976,0.001647,0.28,-2.0825,-3.8675,1.1206875,0.21409375,0.29153125,1.40134375,1.09009375,-0.2636875,-0.27209375,1.395875,0.019691205221794916,0.023221111693341248,True
9109,43855,0,43856,3719.0,39087.0,29113.0,6.1e-05,6.1e-05,-0.000915,0.29750000000000004,-1.435,-3.7625,1.104125,0.21609375,0.291875,1.40021875,1.07803125,-0.25921875,-0.26546875000000003,1.3758125,0.019593067068575738,0.02296859606307832,True
9110,43856,0,43857,3720.0,39084.0,29114.0,-0.003477,-0.001281,-0.00183,0.45500000000000007,-1.0675000000000001,-3.6575,1.11975,0.2136875,0.29128125,1.40603125,1.089375,-0.26390625,-0.2708125,1.39309375,0.019683300169361644,0.02315924734699343,True
9111,43857,0,43858,3720.0,39087.0,29112.0,-0.0059169999999999995,-0.000915,-0.001281,0.47250000000000003,-0.9800000000000001,-3.7275000000000005,1.12103125,0.21359375,0.2889375,1.40834375,1.09840625,-0.26421875,-0.27284375,1.40025,0.01969206199972954,0.023144434817201836,True
9112,43858,0,43859,3723.0,39087.0,29113.0,-0.005307,0.0011589999999999999,-0.0030499999999999998,0.5775,-0.9625000000000001,-3.7625,1.12040625,0.2144375,0.291125,1.40046875,1.1008437500000001,-0.26790625,-0.2735,1.366,0.019875787594984633,0.023260963602282327,True
9113,43859,0,43860,3723.0,39088.0,29114.0,-0.0037819999999999998,0.000183,-0.0006709999999999999,0.56,-1.1375000000000002,-3.9200000000000004,1.1141875,0.2154375,0.291375,1.400875,1.07575,-0.25815625000000003,-0.264125,1.37309375,0.01952307278093322,0.022893881398978945,True
9114,43860,0,43861,3724.0,39087.0,29113.0,-0.0015249999999999999,-0.000183,-6.1e-05,0.5075000000000001,-1.8725000000000003,-3.9375000000000004,1.1146875,0.21559375,0.2916875,1.399125,1.06153125,-0.2579375,-0.26090625,1.37690625,0.01952067235724389,0.02277712729713054,True
9115,43861,0,43862,3724.0,39086.0,29113.0,0.002196,-0.000976,-0.000366,0.2625,-2.24,-3.8675,1.1145625000000001,0.215375,0.29031250000000003,1.3940625,1.075625,-0.25778125,-0.266,1.3766875,0.0195053391373129,0.022925595483392402,True
9116,43862,0,43863,3725.0,39086.0,29113.0,0.003965,-0.000793,-0.0006709999999999999,0.24500000000000002,-2.6250000000000004,-3.8850000000000002,1.11625,0.21615625,0.29096875,1.40015625,1.08275,-0.25996875,-0.26959375,1.3843750000000001,0.01962595273334802,0.023097316987434127,True
9117,43863,0,43864,3723.0,39083.0,29112.0,0.004209,-0.001281,-0.00061,0.15750000000000003,-2.765,-3.6400000000000006,1.1144687500000001,0.2155,0.29165625,1.40103125,1.08053125,-0.25890625,-0.2670625,1.3826875,0.01955596205002029,0.023023748754098274,True
9118,43864,0,43865,3724.0,39083.0,29112.0,0.0046359999999999995,-0.001037,0.000976,0.49000000000000005,-2.5900000000000003,-3.4650000000000003,1.11365625,0.216,0.29231250000000003,1.4000625,1.084,-0.254625,-0.2698125,1.387,0.019403515824301547,0.023161489195682908,True
9119,43865,0,43866,3724.0,39084.0,29109.0,0.004331,-0.000976,-0.000122,0.5775,-2.555,-3.3600000000000003,1.11440625,0.2154375,0.29175,1.4026875,1.084,-0.260375,-0.2678125,1.3866875,0.019612743001705457,0.02305780547793502,True
9120,43866,0,43867,3725.0,39084.0,29111.0,0.00183,-0.000366,0.001281,0.6475000000000001,-2.1875,-3.3075,1.11434375,0.21653125,0.29234375,1.4001875,1.08659375,-0.2591875,-0.2678125,1.37584375,0.019609838540552937,0.02308227204244305,True
9121,43867,0,43868,3725.0,39084.0,29111.0,-0.0008539999999999999,-0.000244,0.0008539999999999999,0.6825000000000001,-1.8200000000000003,-3.3775000000000004,1.1141875,0.21571875000000001,0.2916875,1.40065625,1.08184375,-0.259875,-0.26875,1.38303125,0.019604130276846026,0.02309296935359258,True
9122,43868,0,43869,3728.0,39084.0,29110.0,-0.003294,0.001769,0.000366,0.7175,-1.6975000000000002,-3.4475000000000002,1.11415625,0.21425,0.2890625,1.40578125,1.08203125,-0.2604375,-0.2684375,1.38928125,0.01956632068156232,0.022972224726045917,True
9123,43869,0,43870,3728.0,39085.0,29110.0,-0.00366,0.001098,-0.000244,0.7000000000000001,-1.6450000000000002,-3.2550000000000003,1.11746875,0.21290625,0.28909375,1.4055312500000001,1.0881875,-0.2611875,-0.27040625,1.3890625,0.019541242571081897,0.023052766164554827,True
9124,43870,0,43871,3729.0,39084.0,29112.0,-0.003294,0.001037,-0.000915,0.6300000000000001,-1.7500000000000002,-3.43,1.11678125,0.21334375,0.29196875,1.39628125,1.0874062500000001,-0.2611875,-0.271625,1.38959375,0.019559275488885284,0.023220272643467422,True
9125,43871,0,43872,3729.0,39085.0,29109.0,-0.00183,-6.1e-05,0.000305,0.45500000000000007,-1.8725000000000003,-3.3600000000000003,1.1143750000000001,0.21603125,0.29225,1.40109375,1.07790625,-0.2611875,-0.2675,1.38271875,0.01967004912682036,0.02306582878335222,True
9126,43872,0,43873,3730.0,39081.0,29110.0,0.001586,0.00061,-0.0006709999999999999,0.28,-1.995,-3.5175000000000005,1.11509375,0.21540625,0.29146875,1.40103125,1.0819375,-0.26046875,-0.268,1.38240625,0.01961524341940013,0.02305376421625185,True
9127,43873,0,43874,3731.0,39083.0,29110.0,0.0021349999999999997,6.1e-05,0.001037,0.21000000000000002,-2.0300000000000002,-3.6750000000000003,1.1115625,0.2160625,0.29040625000000003,1.40559375,1.082,-0.25971875,-0.268625,1.38221875,0.0196119854027574,0.023035143111733776,True
9128,43874,0,43875,3733.0,39084.0,29109.0,-0.001586,0.001403,0.001281,0.42000000000000004,-1.7500000000000002,-3.6925000000000003,1.11909375,0.21265625,0.2885,1.409875,1.0821875,-0.2594375,-0.27037500000000003,1.3884375,0.019460210072884006,0.02302704428753161,True
9129,43875,0,43876,3733.0,39083.0,29110.0,0.001586,0.001037,0.00042699999999999997,0.4025,-1.6975000000000002,-3.7100000000000004,1.123875,0.22234375,0.29331250000000003,1.39946875,1.090375,-0.26128125,-0.27103125,1.3830625,0.019934025537089062,0.023251741723994527,True
9130,43876,0,43877,3731.0,39083.0,29111.0,0.002745,0.00042699999999999997,-0.000366,0.36750000000000005,-1.6975000000000002,-3.9375000000000004,1.11125,0.21381250000000002,0.2895625,1.41015625,1.08253125,-0.2598125,-0.26928125,1.3841875000000001,0.019523028053081617,0.023026794417325403,True
9131,43877,0,43878,3734.0,39084.0,29112.0,0.0034159999999999998,0.0006709999999999999,0.000122,0.1925,-1.3650000000000002,-4.0075,1.12615625,0.20978125,0.28853125,1.39903125,1.0894375,-0.26356250000000003,-0.2701875,1.3871875,0.01950841926036212,0.023020784244044266,True
9132,43878,0,43879,3735.0,39082.0,29109.0,0.00183,-0.002562,-0.001586,0.10500000000000001,-0.9275000000000001,-4.0075,1.110875,0.22153125,0.29296875,1.398125,1.08440625,-0.25996875,-0.267625,1.3820000000000001,0.019847511139106478,0.023100478518190387,True
9133,43879,0,43880,3736.0,39085.0,29111.0,-0.001952,-0.002562,-0.0037819999999999998,0.12250000000000001,-0.5425000000000001,-4.0600000000000005,1.11159375,0.2170625,0.29028125,1.3996875,1.082,-0.25928125,-0.26578125,1.3816875,0.019635526093750202,0.02291549957823839,True
9134,43880,0,43881,3735.0,39084.0,29112.0,0.00061,-0.0018909999999999999,-0.002257,0.14,-0.47250000000000003,-4.112500000000001,1.105375,0.2136875,0.2905,1.40315625,1.082375,-0.26006250000000003,-0.26796875000000003,1.3816875,0.019527979369385384,0.02301258732253807,True
9135,43881,0,43882,3738.0,39084.0,29113.0,0.0,-0.0006709999999999999,-0.000366,0.14,-0.2625,-4.0425,1.127625,0.21203125,0.289875,1.41015625,1.0824375,-0.26059375,-0.27025,1.38759375,0.019481180257593652,0.02307866626837383,True
9136,43882,0,43883,3737.0,39085.0,29113.0,-0.002196,0.001281,0.000915,0.22750000000000004,-0.24500000000000002,-4.112500000000001,1.1275,0.2129375,0.28703125,1.4093125,1.0865625,-0.26084375,-0.2693125,1.3866875,0.01952863861134261,0.022923754020638204,True
9137,43883,0,43884,3737.0,39084.0,29112.0,-0.003721,0.000976,0.001586,0.42000000000000004,-0.36750000000000005,-4.0425,1.1229375,0.21065625000000002,0.2909375,1.40328125,1.08496875,-0.25909375,-0.2688125,1.382875,0.019363872568405403,0.023064581342824252,True
9138,43884,0,43885,3738.0,39083.0,29111.0,-0.001769,0.002806,-0.000305,0.5425000000000001,-0.805,-3.9725000000000006,1.1145,0.2151875,0.2925625,1.399875,1.082625,-0.259625,-0.26903125,1.383,0.019572128588137696,0.02314034475521144,True
9139,43885,0,43886,3738.0,39085.0,29111.0,-0.002562,0.000915,-0.000488,0.525,-1.155,-3.7450000000000006,1.11290625,0.21540625,0.290375,1.40684375,1.08325,-0.255625,-0.26915625,1.3783125,0.019419464557190343,0.023055241156148557,True
9140,43886,0,43887,3738.0,39083.0,29109.0,-0.00366,0.000122,-0.001586,0.385,-1.5925000000000002,-3.7100000000000004,1.1128125,0.21290625,0.29409375,1.40653125,1.0871875,-0.25471875,-0.268,1.38346875,0.019279753553110155,0.02316193134992583,True
9141,43887,0,43888,3738.0,39083.0,29108.0,-0.0011589999999999999,-0.002013,-0.0008539999999999999,0.22750000000000004,-2.0825,-3.6575,1.11290625,0.2163125,0.29040625000000003,1.402875,1.08828125,-0.26246875000000003,-0.26915625,1.3985,0.019733410269719566,0.02305652879877107,True
9142,43888,0,43889,3736.0,39082.0,29108.0,0.004209,-0.002562,-0.000366,0.052500000000000005,-2.7125000000000004,-3.5700000000000003,1.1198125,0.2134375,0.28915625,1.40578125,1.10528125,-0.26021875,-0.28003125,1.40446875,0.01952398924679935,0.023442618097948287,True
9143,43889,0,43890,3736.0,39083.0,29106.0,0.003721,-0.000732,0.00122,0.07,-3.0450000000000004,-3.325,1.11515625,0.2149375,0.288875,1.40484375,1.110125,-0.269625,-0.27775,1.4000937500000001,0.019965800872489788,0.02333927155523061,True
9144,43890,0,43891,3735.0,39083.0,29103.0,0.001037,0.0011589999999999999,0.002196,0.31500000000000006,-2.87,-3.22,1.1142812500000001,0.21506250000000002,0.291875,1.39359375,1.1035,-0.26884375,-0.27121875,1.38925,0.01993940275790848,0.023200060771567145,True
9145,43891,0,43892,3735.0,39084.0,29103.0,-0.000244,0.00366,0.0030499999999999998,0.385,-2.7300000000000004,-3.3075,1.113125,0.21621875000000002,0.29140625000000003,1.39975,1.08165625,-0.26059375,-0.26303125,1.37746875,0.019653785266487964,0.02285112252822903,True
9146,43892,0,43893,3733.0,39083.0,29102.0,6.1e-05,0.004026,0.002074,0.43750000000000006,-2.7125000000000004,-3.2550000000000003,1.1143125,0.21575,0.291375,1.4008125,1.07284375,-0.253625,-0.26728125,1.3716875,0.019352777162176787,0.023020965729319186,True
9147,43893,0,43894,3733.0,39085.0,29102.0,0.0011589999999999999,0.003111,0.0021349999999999997,0.22750000000000004,-2.66,-3.2550000000000003,1.1144375,0.2151875,0.29090625000000003,1.393375,1.07225,-0.26003125,-0.26634375,1.38253125,0.019588546490433727,0.02296390448190202,True
9148,43894,0,43895,3731.0,39085.0,29104.0,-0.000915,-0.00042699999999999997,0.000976,0.08750000000000001,-2.1525000000000003,-3.3425000000000002,1.1146875,0.21525,0.29071875,1.4020937500000001,1.09409375,-0.2634375,-0.276125,1.4048125,0.01972875854874232,0.02334984475487748,True
9149,43895,0,43896,3732.0,39084.0,29102.0,0.00042699999999999997,-0.00122,-0.0006709999999999999,0.12250000000000001,-2.0300000000000002,-3.3425000000000002,1.11978125,0.2134375,0.2890625,1.4066875,1.1067500000000001,-0.27037500000000003,-0.27953125,1.4039062500000001,0.019934282020776357,0.023418646107510828,True
9150,43896,0,43897,3731.0,39082.0,29102.0,0.001403,-0.0008539999999999999,0.000244,0.15750000000000003,-1.9075000000000002,-3.5525,1.1186562500000001,0.21503125,0.29565625,1.40721875,1.103375,-0.2670625,-0.27225,1.4045625,0.019866176633451204,0.02339734676430904,True
9151,43897,0,43898,3732.0,39082.0,29102.0,0.00183,-0.001098,-0.0013419999999999999,0.22750000000000004,-1.7675,-3.6400000000000006,1.12025,0.211625,0.28784375,1.40740625,1.10709375,-0.26965625,-0.27553125,1.40271875,0.019830575474261196,0.02320752506703638,True
9152,43898,0,43899,3730.0,39082.0,29100.0,0.001647,-0.001037,-0.001281,0.24500000000000002,-1.4175000000000002,-3.7625,1.1206875,0.21356250000000002,0.28890625000000003,1.4060625,1.10215625,-0.2675625,-0.268,1.383875,0.01982584777519374,0.0229481724905225,True
9153,43899,0,43900,3732.0,39082.0,29101.0,-0.0021349999999999997,-0.0006709999999999999,-0.0015249999999999999,0.36750000000000005,-0.7350000000000001,-3.9200000000000004,1.117875,0.21553125,0.29146875,1.40053125,1.07903125,-0.25384375,-0.26584375,1.38384375,0.01935260261582249,0.02296695329211456,True
9154,43900,0,43901,3732.0,39081.0,29100.0,-0.002562,-0.000549,-0.0017079999999999999,0.45500000000000007,-0.6125,-3.9725000000000006,1.1148125,0.21346875,0.29128125,1.40421875,1.0859375,-0.26153125,-0.27087500000000003,1.38775,0.019578319072502893,0.023161762812424356,True
9155,43901,0,43902,3731.0,39080.0,29100.0,-0.0028669999999999998,-0.00042699999999999997,-0.000366,0.385,-0.5950000000000001,-3.9725000000000006,1.1104687500000001,0.21556250000000002,0.29153125,1.40059375,1.0893125000000001,-0.26246875000000003,-0.26759375,1.3825625000000001,0.019702498328823197,0.02303998516540191,True
9156,43902,0,43903,3731.0,39080.0,29099.0,-0.001464,-0.001647,-0.001769,0.43750000000000006,-0.6825000000000001,-4.077500000000001,1.1145,0.215875,0.291625,1.40053125,1.0819375,-0.25915625000000003,-0.268,1.3829375,0.01958152398643296,0.0230602027361134,True
9157,43903,0,43904,3732.0,39079.0,29101.0,-0.00122,-0.000183,-0.002196,0.4025,-0.7525000000000001,-4.2525,1.11434375,0.2223125,0.29215625,1.40025,1.08271875,-0.26171875,-0.2715,1.38596875,0.019950410561906298,0.023222967266135177,True
9158,43904,0,43905,3733.0,39078.0,29100.0,-0.000976,-0.001464,-0.0013419999999999999,0.31500000000000006,-0.9800000000000001,-4.1475,1.115,0.2151875,0.29128125,1.4005,1.08546875,-0.25928125,-0.26803125,1.3840625,0.019558236087476828,0.023047296018295676,True
9159,43905,0,43906,3732.0,39078.0,29102.0,0.000244,-0.001403,-0.0006709999999999999,0.12250000000000001,-1.1375000000000002,-4.2175,1.1139375,0.21590625,0.29121875,1.401,1.08196875,-0.25884375,-0.268125,1.3780000000000001,0.019570182523641507,0.023048494681809986,True
9160,43906,0,43907,3734.0,39078.0,29098.0,0.002074,-0.001464,0.00042699999999999997,0.22750000000000004,-1.33,-4.2175,1.11471875,0.21775,0.292,1.40125,1.08040625,-0.25890625,-0.26837500000000003,1.3819375,0.019648711491269316,0.023090750822830127,True
9161,43907,0,43908,3734.0,39075.0,29100.0,0.00183,-0.00061,0.000976,0.29750000000000004,-1.4700000000000002,-4.077500000000001,1.1147500000000001,0.21884375,0.29840625,1.40065625,1.08259375,-0.25959375,-0.26928125,1.389375,0.019721579220591853,0.02339119540262446,True
9162,43908,0,43909,3733.0,39077.0,29098.0,0.002013,0.000305,0.001952,0.31500000000000006,-1.5050000000000001,-4.0600000000000005,1.1147500000000001,0.216,0.291625,1.40096875,1.090375,-0.261625,-0.2679375,1.3826875,0.019686438975130477,0.02305768671111832,True
9163,43909,0,43910,3735.0,39076.0,29099.0,0.003843,0.001403,0.002623,0.3325,-1.1725,-3.8675,1.11390625,0.2154375,0.294375,1.397,1.07828125,-0.25921875,-0.26834375,1.382875,0.019566015496686184,0.023187356986403323,True
9164,43910,0,43911,3735.0,39078.0,29100.0,0.002806,0.0006709999999999999,0.000976,0.28,-1.225,-3.7975000000000003,1.11215625,0.217375,0.29281250000000003,1.39625,1.07828125,-0.2593125,-0.268125,1.38871875,0.019649670616180902,0.02311416724613047,True
9165,43911,0,43912,3737.0,39078.0,29100.0,0.001037,0.00122,0.000183,0.15750000000000003,-1.0325000000000002,-3.7275000000000005,1.108,0.21765625,0.29903125,1.39603125,1.085,-0.26296875000000003,-0.26953125,1.38296875,0.01980899390145734,0.023427007886689204,True
9166,43912,0,43913,3735.0,39080.0,29099.0,-0.002806,0.00122,-0.000915,0.385,-0.7175,-3.6750000000000003,1.0985,0.21725,0.29340625,1.392375,1.0825625,-0.25925,-0.26787500000000003,1.3746562500000001,0.019641992229768025,0.023128570177652553,True
9167,43913,0,43914,3736.0,39082.0,29102.0,-0.0050019999999999995,0.0017079999999999999,-6.1e-05,0.525,-0.42000000000000004,-3.6050000000000004,1.10984375,0.21409375,0.2978125,1.394625,1.08284375,-0.25909375,-0.26821875,1.3756875,0.01950557200843498,0.023323971809838744,True
9168,43914,0,43915,3737.0,39083.0,29101.0,-0.00549,0.001037,-0.000549,0.42000000000000004,-0.5775,-3.7975000000000003,1.1084687500000001,0.21740625,0.294,1.39503125,1.08246875,-0.255875,-0.2684375,1.38984375,0.019512025437136364,0.02317567828583937,True
9169,43915,0,43916,3736.0,39081.0,29102.0,-0.003843,0.000183,0.0,0.29750000000000004,-0.8575,-3.9025000000000003,1.10690625,0.21715625,0.29403125,1.39528125,1.08890625,-0.261625,-0.27034375,1.38846875,0.019734096541348736,0.023253687949928607,True
9170,43916,0,43917,3740.0,39082.0,29102.0,-0.002745,-0.000976,-0.000488,0.21000000000000002,-1.0850000000000002,-3.8500000000000005,1.107875,0.22159375,0.29378125,1.39490625,1.07515625,-0.260625,-0.27165625,1.3885625,0.01987660045856197,0.02329620583679781,True
9171,43917,0,43918,3739.0,39081.0,29100.0,0.000366,-0.000488,-0.0006709999999999999,0.17500000000000002,-1.2950000000000002,-3.8325000000000005,1.0956875,0.2166875,0.29334375,1.4059375,1.0884375,-0.26278125,-0.27071875,1.386625,0.01976149168801495,0.023240453066516623,True
9172,43918,0,43919,3740.0,39081.0,29102.0,0.002623,0.00061,0.0,0.24500000000000002,-1.61,-3.9025000000000003,1.11928125,0.20771875,0.28496875,1.41384375,1.09034375,-0.26040625,-0.269625,1.3825625000000001,0.019295843407403784,0.022851352256163825,True
9173,43919,0,43920,3740.0,39081.0,29102.0,0.005124,-0.000244,0.00122,0.21000000000000002,-1.8900000000000001,-4.0075,1.11746875,0.21328125,0.292125,1.395,1.082625,-0.26009375,-0.268625,1.3823125,0.019512496731386293,0.023105965006258083,True
9174,43920,0,43921,3739.0,39083.0,29102.0,0.005307,-0.001952,-0.000244,0.1925,-1.7850000000000001,-3.9725000000000006,1.1076875,0.2174375,0.2930625,1.395875,1.08846875,-0.25728125,-0.27015625,1.38309375,0.019570154837529455,0.023206226783150603,True
9175,43921,0,43922,3742.0,39080.0,29101.0,0.004026,-0.002623,0.0,0.14,-1.4700000000000002,-3.8675,1.11103125,0.21653125,0.29246875,1.4006875,1.08315625,-0.2556875,-0.2681875,1.379,0.019468372108603395,0.023102518471970767,True
9176,43922,0,43923,3742.0,39084.0,29101.0,0.001037,-0.001037,0.000366,0.2625,-1.1725,-3.9025000000000003,1.1145625000000001,0.21521875000000001,0.29071875,1.401125,1.08228125,-0.25965625000000003,-0.26771875,1.385,0.01957467967007983,0.023011536673590304,True
9177,43923,0,43924,3744.0,39082.0,29103.0,-0.0035989999999999998,0.0023179999999999997,0.0,0.5075000000000001,-0.8575,-3.8325000000000005,1.1147500000000001,0.21490625,0.2880625,1.4059375,1.08875,-0.259,-0.27125,1.3843750000000001,0.019535275567830496,0.023044239583869804,True
9178,43924,0,43925,3742.0,39084.0,29103.0,-0.003721,0.002257,-0.000732,0.6125,-0.8575,-3.9375000000000004,1.1224687500000001,0.21278125,0.290375,1.40065625,1.08753125,-0.26021875,-0.2688125,1.3825,0.01949693878996866,0.023041403447325654,True
9179,43925,0,43926,3743.0,39084.0,29105.0,-0.003965,0.0018909999999999999,-0.001464,0.5425000000000001,-0.9800000000000001,-3.7975000000000003,1.11340625,0.22003125,0.29153125,1.4039062500000001,1.08275,-0.25796875,-0.268,1.3875,0.019704865025023995,0.023056339624196474,True
9180,43926,0,43927,3745.0,39083.0,29104.0,-0.0015249999999999999,-0.000305,0.00122,0.385,-1.1725,-3.8150000000000004,1.12084375,0.21281250000000002,0.2883125,1.4036875,1.0895,-0.26246875000000003,-0.2701875,1.386125,0.01958915454553651,0.02301177112867381,True
9181,43927,0,43928,3745.0,39084.0,29103.0,0.000732,-0.000915,0.001464,0.24500000000000002,-1.2425000000000002,-3.7275000000000005,1.1163125,0.2156875,0.290875,1.400875,1.08190625,-0.25946875,-0.2685,1.382125,0.01958642437295747,0.023049426210931864,True
9182,43928,0,43929,3746.0,39081.0,29104.0,-0.0011589999999999999,-6.1e-05,6.1e-05,0.36750000000000005,-1.1900000000000002,-3.7800000000000002,1.11496875,0.21584375,0.29065625,1.4044375,1.08384375,-0.2613125,-0.2705625,1.3891875,0.019667371664249412,0.023123433995400806,True
9183,43929,0,43930,3746.0,39083.0,29107.0,-0.000793,0.000366,-0.0023179999999999997,0.43750000000000006,-1.4700000000000002,-3.7975000000000003,1.1214375,0.21456250000000002,0.28953125,1.3925,1.08528125,-0.262875,-0.26965625,1.37453125,0.01967769689288677,0.023040602398313736,True
9184,43930,0,43931,3745.0,39082.0,29106.0,0.001037,-0.000976,-0.004392,0.4025,-1.6450000000000002,-3.9025000000000003,1.1140625,0.21553125,0.29153125,1.3949375,1.0821875,-0.25834375,-0.2675625,1.3834375,0.019534515830249125,0.023038727107429924,True
9185,43931,0,43932,3749.0,39081.0,29107.0,0.0040869999999999995,-0.0011589999999999999,-0.0034159999999999998,0.15750000000000003,-1.7500000000000002,-3.7975000000000003,1.11490625,0.21446875,0.2894375,1.4074375000000001,1.08309375,-0.26096875,-0.2705625,1.390125,0.019596806083846098,0.023073218842785372,True
9186,43932,0,43933,3749.0,39083.0,29106.0,0.004514,-0.002196,-0.000732,0.035,-1.6800000000000002,-3.6575,1.12159375,0.2139375,0.28840625000000003,1.407,1.09009375,-0.26196875000000003,-0.26953125,1.3822812500000001,0.01961531872799894,0.02298921615966522,True
9187,43933,0,43934,3750.0,39082.0,29108.0,-0.0013419999999999999,-0.001403,0.001098,0.2625,-1.4700000000000002,-3.6750000000000003,1.12003125,0.21428125,0.2905,1.40184375,1.0818125,-0.26025,-0.2699375,1.38040625,0.01956003132696489,0.023091839441284095,True
9188,43934,0,43935,3750.0,39083.0,29108.0,-0.0018909999999999999,0.000915,0.0011589999999999999,0.5075000000000001,-1.5225000000000002,-3.7100000000000004,1.1154375,0.21571875000000001,0.291625,1.39453125,1.08190625,-0.2591875,-0.2694375,1.38159375,0.019576346075069497,0.02311806773436756,True
9189,43935,0,43936,3752.0,39084.0,29108.0,-0.00061,0.0042699999999999995,0.00244,0.7350000000000001,-1.6975000000000002,-3.7625,1.1143750000000001,0.215375,0.290375,1.400625,1.08240625,-0.2601875,-0.26403125,1.3821875000000001,0.01960258963373634,0.022848892844217716,True
9190,43936,0,43937,3754.0,39086.0,29110.0,-0.001586,0.005673,0.003904,0.805,-1.61,-3.6575,1.113625,0.217375,0.29153125,1.40065625,1.081875,-0.259125,-0.26796875000000003,1.38159375,0.019642093439066744,0.023055081608344335,True
9191,43937,0,43938,3753.0,39084.0,29107.0,-0.002074,0.0040869999999999995,0.003904,0.5950000000000001,-1.5225000000000002,-3.5875000000000004,1.119375,0.214,0.290375,1.40025,1.08959375,-0.26246875000000003,-0.2685625,1.3835,0.01963809845195576,0.023031339412872102,True
9192,43938,0,43939,3755.0,39085.0,29106.0,0.000305,-0.001647,-0.000976,0.31500000000000006,-1.7325000000000002,-3.5525,1.11434375,0.215375,0.28953125,1.3996250000000001,1.080125,-0.2615,-0.2699375,1.3884375,0.019655627228324712,0.023051923804912968,True
9193,43939,0,43940,3755.0,39085.0,29107.0,0.002379,-0.0025009999999999998,-0.003904,0.17500000000000002,-1.715,-3.5525,1.11890625,0.213625,0.2916875,1.401125,1.08803125,-0.25875,-0.26937500000000003,1.3791875,0.01947235533570361,0.023118127269449666,True
9194,43940,0,43941,3753.0,39083.0,29102.0,0.002928,-0.0035989999999999998,-0.004148,0.22750000000000004,-1.5925000000000002,-3.6225000000000005,1.114875,0.21556250000000002,0.29509375,1.40084375,1.08253125,-0.2596875,-0.2694375,1.3830625,0.0195901121974469,0.023260994409120522,True
9195,43941,0,43942,3754.0,39084.0,29100.0,0.001769,-0.003111,-0.002745,0.12250000000000001,-1.5225000000000002,-3.6925000000000003,1.1144375,0.2154375,0.29190625000000003,1.40128125,1.0796875000000001,-0.25940625,-0.26837500000000003,1.3820000000000001,0.019573593232521922,0.02308688777060681,True
9196,43942,0,43943,3753.0,39084.0,29101.0,0.00061,-0.001647,-0.0026839999999999998,0.1925,-1.4000000000000001,-3.6575,1.1150625,0.2139375,0.289875,1.40465625,1.08853125,-0.26175,-0.2683125,1.39315625,0.019606479334755324,0.02300067217281795,True
9197,43943,0,43944,3752.0,39085.0,29102.0,-0.002379,0.0015249999999999999,0.002013,0.45500000000000007,-1.0850000000000002,-3.7275000000000005,1.12015625,0.21481250000000002,0.29040625000000003,1.4049375,1.09428125,-0.2645625,-0.2744375,1.39215625,0.019756177347108567,0.023269076780872887,True
9198,43944,0,43945,3751.0,39084.0,29102.0,-0.003721,0.0026839999999999998,0.0040869999999999995,0.5950000000000001,-1.12,-3.8150000000000004,1.12115625,0.21384375,0.2905,1.4035,1.09240625,-0.26178125,-0.271125,1.38296875,0.019603878012872614,0.023139636090210074,True
9199,43945,0,43946,3753.0,39084.0,29100.0,-0.004331,0.002257,0.0037819999999999998,0.385,-1.2600000000000002,-3.8325000000000005,1.1175,0.21115625000000002,0.2863125,1.4059062500000001,1.0719375,-0.26075,-0.269125,1.38334375,0.019451428748080746,0.022886589442347016,True
9200,43946,0,43947,3753.0,39086.0,29100.0,-0.002806,0.000976,0.0037819999999999998,0.28,-1.5050000000000001,-3.7975000000000003,1.1397187500000001,0.21153125,0.27878125,1.42065625,1.0848125,-0.25421875,-0.26753125,1.3823125,0.01920284486590606,0.02251207567724879,True
9201,43947,0,43948,3751.0,39083.0,29099.0,0.002013,0.001098,0.001098,0.1925,-1.6975000000000002,-3.8675,1.1418125000000001,0.20603125,0.28265625,1.4179375,1.0840625,-0.2616875,-0.2618125,1.38403125,0.019278079894483845,0.02244138808673095,True
9202,43948,0,43949,3751.0,39083.0,29097.0,0.004941,-0.000549,-0.001281,0.15750000000000003,-1.6275000000000002,-3.8500000000000005,1.1314375,0.2084375,0.28121875,1.40253125,1.08446875,-0.255125,-0.2690625,1.3760625,0.019111940260048133,0.022674186528630846,True
9203,43949,0,43950,3749.0,39082.0,29095.0,0.003477,-0.00122,-0.0006709999999999999,0.14,-1.3125000000000002,-3.8500000000000005,1.10365625,0.22578125000000002,0.295875,1.38925,1.07871875,-0.25778125,-0.2686875,1.3785625000000001,0.019934325197198323,0.023263000934846605,True
9204,43950,0,43951,3751.0,39082.0,29095.0,0.001403,-0.0018909999999999999,-0.002074,0.0,-1.1725,-3.9375000000000004,1.1223125,0.20746875,0.2861875,1.41425,1.09171875,-0.26521875,-0.2696875,1.3813125,0.0194800428081861,0.022904085600607756,True
9205,43951,0,43952,3751.0,39080.0,29096.0,0.00061,-0.002989,-0.0032329999999999998,0.035,-0.9800000000000001,-3.8150000000000004,1.1146875,0.2165625,0.29309375,1.390125,1.07996875,-0.25896875,-0.2661875,1.37934375,0.01960228626783651,0.023047759356512015,True
9206,43952,0,43953,3752.0,39081.0,29097.0,-0.002074,-0.000732,-0.002989,0.3325,-0.9275000000000001,-3.9550000000000005,1.10759375,0.2171875,0.29459375,1.38075,1.0793125000000001,-0.25856250000000003,-0.26765625,1.3804375,0.01961163197530769,0.023168698048456983,True
9207,43953,0,43954,3751.0,39082.0,29096.0,-0.0048189999999999995,0.001647,0.000305,0.5075000000000001,-0.805,-3.8325000000000005,1.0926875,0.21890625,0.2951875,1.38925,1.0770625,-0.2609375,-0.26915625,1.38703125,0.019778450441167,0.02325353812001601,True
9208,43954,0,43955,3751.0,39079.0,29093.0,-0.0028669999999999998,0.000549,0.00183,0.5075000000000001,-0.9975,-3.8850000000000002,1.09415625,0.2198125,0.2969375,1.402875,1.08771875,-0.261125,-0.26959375,1.38878125,0.019823379995775135,0.023343252294859698,True
9209,43955,0,43956,3750.0,39075.0,29092.0,-0.000915,0.00122,0.000732,0.42000000000000004,-1.3125000000000002,-3.8325000000000005,1.117625,0.22209375,0.29571875000000003,1.38859375,1.08859375,-0.25540625,-0.27,1.3899062500000001,0.019686332814978107,0.023309384013185004,True
9210,43956,0,43957,3752.0,39076.0,29093.0,-0.001281,-0.000183,0.0028669999999999998,0.385,-1.6450000000000002,-3.7275000000000005,1.10134375,0.21928125,0.29553125,1.39034375,1.0840625,-0.26009375,-0.263875,1.37675,0.01975981646814535,0.023055107644595108,True
9211,43957,0,43958,3752.0,39075.0,29092.0,0.000122,-0.0006709999999999999,0.0017079999999999999,0.35000000000000003,-1.9250000000000003,-3.7975000000000003,1.11053125,0.21506250000000002,0.29209375,1.403,1.082625,-0.26275,-0.26975,1.389875,0.01969325406229714,0.02314996034157748,True
9212,43958,0,43959,3753.0,39076.0,29092.0,0.003538,0.001281,-0.00122,0.49000000000000005,-2.3275,-3.99,1.11859375,0.21378125,0.2911875,1.401125,1.088,-0.25875,-0.26903125,1.3760937500000001,0.019478796310609572,0.02308368818800709,True
9213,43959,0,43960,3752.0,39072.0,29090.0,0.002745,0.000244,0.0008539999999999999,0.47250000000000003,-2.1875,-3.8850000000000002,1.10409375,0.215875,0.29296875,1.3974375,1.08265625,-0.25953125,-0.26890625,1.3784375,0.019596679140286358,0.023152052845397595,True
9214,43960,0,43961,3754.0,39073.0,29089.0,0.0013419999999999999,-0.000488,-0.000305,0.3325,-2.0650000000000004,-3.8675,1.11825,0.2136875,0.288875,1.4063125,1.08178125,-0.262125,-0.27021875,1.38840625,0.019611328356440333,0.02303620563782516,True
9215,43961,0,43962,3753.0,39073.0,29091.0,0.000244,-0.000793,-0.000793,0.22750000000000004,-1.9775000000000003,-3.7275000000000005,1.1143750000000001,0.2156875,0.29131250000000003,1.3959375,1.0823125,-0.259375,-0.2689375,1.3815,0.01958263557902873,0.02308506501366201,True
9216,43962,0,43963,3755.0,39071.0,29090.0,0.000549,-0.0023179999999999997,0.000183,0.21000000000000002,-1.7675,-3.7800000000000002,1.1163750000000001,0.2156875,0.28978125,1.40721875,1.086375,-0.26134375,-0.27103125,1.38834375,0.01966219410250102,0.023106249348181278,True
9217,43963,0,43964,3754.0,39074.0,29091.0,0.0006709999999999999,-0.00183,-0.00183,0.21000000000000002,-1.4175000000000002,-3.7625,1.1225,0.21240625,0.29109375,1.4073437500000001,1.0893125000000001,-0.26175,-0.2703125,1.39103125,0.01954336558574711,0.023131397669477888,True
9218,43964,0,43965,3755.0,39073.0,29090.0,-0.0017079999999999999,-0.000976,-0.001098,0.36750000000000005,-1.3475000000000001,-3.7800000000000002,1.11440625,0.21531250000000002,0.29175,1.40034375,1.08553125,-0.2598125,-0.26828125,1.38346875,0.019584858704081082,0.02307667544441368,True
9219,43965,0,43966,3755.0,39075.0,29092.0,-0.0013419999999999999,-0.000244,-0.000488,0.43750000000000006,-1.2775,-3.9375000000000004,1.1165,0.21340625,0.28940625000000003,1.40040625,1.0819375,-0.26103125,-0.272625,1.38159375,0.01955553723628298,0.023154943068580344,True
9220,43966,0,43967,3757.0,39077.0,29091.0,-0.000488,0.0011589999999999999,-0.000793,0.5075000000000001,-1.4000000000000001,-3.9550000000000005,1.11453125,0.21575,0.28890625000000003,1.40625,1.08146875,-0.2525,-0.27071875,1.38240625,0.019307287908463044,0.023057619585328516,True
9221,43967,0,43968,3758.0,39074.0,29092.0,-0.000122,0.0021349999999999997,0.000122,0.5425000000000001,-1.2950000000000002,-3.9725000000000006,1.12203125,0.21496875000000001,0.2910625,1.398625,1.09046875,-0.2601875,-0.26937500000000003,1.37159375,0.019585844091270937,0.023092374649120548,True
9222,43968,0,43969,3758.0,39073.0,29093.0,-0.001098,0.001952,0.000732,0.45500000000000007,-1.1725,-3.9200000000000004,1.10909375,0.21334375,0.28825,1.40703125,1.08190625,-0.26190625,-0.26725,1.38775,0.019588320682757565,0.022890933253664918,True
9223,43969,0,43970,3759.0,39076.0,29093.0,-0.00042699999999999997,0.000976,0.001281,0.5425000000000001,-1.3475000000000001,-3.8850000000000002,1.114625,0.215625,0.2919375,1.3936250000000001,1.0735625,-0.26056250000000003,-0.2681875,1.3820625,0.019628048607694074,0.023080627673574716,True
9224,43970,0,43971,3760.0,39076.0,29094.0,0.000183,0.00061,0.00042699999999999997,0.5075000000000001,-1.4700000000000002,-3.8675,1.1144687500000001,0.213125,0.28790625000000003,1.3948125,1.08240625,-0.261625,-0.26503125,1.3879375,0.01956793908074995,0.022787421714117927,True
9225,43971,0,43972,3761.0,39076.0,29092.0,0.0006709999999999999,0.000976,0.000793,0.525,-1.2425000000000002,-3.8500000000000005,1.10928125,0.21578125,0.2921875,1.4008125,1.08415625,-0.25940625,-0.269625,1.3825,0.019587762993993306,0.023148791957024472,True
9226,43972,0,43973,3761.0,39076.0,29094.0,0.000122,-0.000488,0.000366,0.3325,-1.225,-3.8325000000000005,1.1175625,0.212875,0.28996875,1.4055,1.08209375,-0.26203125,-0.268,1.38825,0.019574051533710723,0.022991954425581013,True
9227,43973,0,43974,3760.0,39074.0,29091.0,0.000488,-0.0015249999999999999,-0.001403,0.31500000000000006,-1.3125000000000002,-3.8150000000000004,1.10615625,0.21234375,0.2901875,1.40653125,1.0865625,-0.26090625,-0.2693125,1.38753125,0.01950669093410309,0.023053805088215827,True
9228,43974,0,43975,3761.0,39073.0,29092.0,-0.000305,-0.002257,-0.0018909999999999999,0.45500000000000007,-1.3475000000000001,-3.7625,1.11690625,0.22003125,0.29131250000000003,1.39109375,1.0828125,-0.25503125,-0.26840625,1.382125,0.0195861425657821,0.023063679758533795,True
9229,43975,0,43976,3760.0,39073.0,29092.0,0.000549,-0.00183,-0.002196,0.4025,-1.4875,-3.7100000000000004,1.114625,0.21925,0.29090625000000003,1.39803125,1.08053125,-0.2594375,-0.26887500000000003,1.3755625,0.019732011510984127,0.023065809601804786,True
9230,43976,0,43977,3762.0,39073.0,29093.0,0.0008539999999999999,0.000244,-0.0011589999999999999,0.4025,-1.4000000000000001,-3.8675,1.11459375,0.21546875000000001,0.2899375,1.405375,1.08275,-0.259125,-0.27078125000000003,1.38821875,0.01956351475990993,0.02310262468374396,True
9231,43977,0,43978,3763.0,39071.0,29093.0,-0.001403,0.0,-0.000122,0.36750000000000005,-1.4000000000000001,-3.8150000000000004,1.1215,0.21234375,0.28778125,1.40115625,1.0883125,-0.2613125,-0.271125,1.3839062500000001,0.019523109065101074,0.02302762026894097,True
9232,43978,0,43979,3764.0,39075.0,29092.0,-0.000976,-0.000549,0.000244,0.3325,-1.5050000000000001,-3.7100000000000004,1.11578125,0.21571875000000001,0.2944375,1.3918125000000001,1.0820625,-0.2549375,-0.26890625,1.38196875,0.019404554227360923,0.023212572672079115,True
9233,43979,0,43980,3763.0,39074.0,29095.0,0.000549,0.001281,0.000244,0.385,-1.7500000000000002,-3.6575,1.116125,0.21484375,0.28865625,1.405125,1.0805625,-0.25603125,-0.27184375,1.39821875,0.019412697615154993,0.023092600865972535,True
9234,43980,0,43981,3764.0,39074.0,29094.0,-0.00042699999999999997,0.000915,-6.1e-05,0.5075000000000001,-2.0650000000000004,-3.6225000000000005,1.1204687500000001,0.21528125,0.29084375,1.40028125,1.089875,-0.26496875000000003,-0.2715,1.38171875,0.01979190679979755,0.023168891498259278,True
9235,43981,0,43982,3765.0,39075.0,29095.0,-0.0008539999999999999,0.002745,0.000976,0.5075000000000001,-2.0475000000000003,-3.535,1.113625,0.21553125,0.29278125,1.40496875,1.0749375,-0.25775,-0.2668125,1.37728125,0.019510517257371355,0.023060043423502777,True
9236,43982,0,43983,3767.0,39075.0,29095.0,0.000549,0.002013,0.002562,0.5075000000000001,-2.1,-3.6400000000000006,1.12,0.21321875,0.29025,1.39896875,1.08203125,-0.26384375,-0.267125,1.3980937500000001,0.019661456153252717,0.022968316189082964,True
9237,43983,0,43984,3766.0,39073.0,29095.0,0.00122,0.001403,0.002379,0.29750000000000004,-1.9775000000000003,-3.6225000000000005,1.1220625,0.21325,0.29125,1.40175,1.09953125,-0.26687500000000003,-0.27403125,1.38540625,0.019785201019908827,0.023287489588281713,True
9238,43984,0,43985,3767.0,39072.0,29094.0,0.002013,-0.0008539999999999999,0.001586,0.2625,-1.8025000000000002,-3.6050000000000004,1.1070625,0.22065625,0.29009375,1.4005,1.08696875,-0.26021875,-0.274625,1.3966875,0.019821544271936956,0.023263747637708096,True
9239,43985,0,43986,3768.0,39072.0,29097.0,0.0008539999999999999,-0.00042699999999999997,-0.0015249999999999999,0.385,-1.5925000000000002,-3.7100000000000004,1.1175,0.21184375,0.2881875,1.4079062500000001,1.09825,-0.266,-0.2728125,1.39875,0.019691904310557985,0.02311227839789888,True
9240,43986,0,43987,3769.0,39074.0,29097.0,-0.00042699999999999997,-0.000915,-0.002806,0.45500000000000007,-1.5750000000000002,-3.8325000000000005,1.11971875,0.2160625,0.29134375,1.40071875,1.099375,-0.2645,-0.271,1.37921875,0.019805168043850067,0.023169368794034032,True
9241,43987,0,43988,3770.0,39073.0,29097.0,-0.000549,-0.002013,-0.0040869999999999995,0.2625,-1.6275000000000002,-3.6925000000000003,1.11453125,0.21590625,0.291,1.39075,1.075,-0.257375,-0.26715625,1.37596875,0.019510818874672136,0.023000480330281795,True
9242,43988,0,43989,3768.0,39074.0,29097.0,-0.002013,-0.002562,-0.003111,0.08750000000000001,-1.7325000000000002,-3.6575,1.1145625000000001,0.2161875,0.292,1.3996875,1.0758125,-0.2568125,-0.2664375,1.37603125,0.019499676637233353,0.023012751665752337,True
9243,43989,0,43990,3771.0,39072.0,29096.0,-0.0028669999999999998,-0.000305,-0.00042699999999999997,0.21000000000000002,-1.7850000000000001,-3.5875000000000004,1.1138125,0.21496875000000001,0.291,1.4004375,1.0755937500000001,-0.25771875,-0.26734375,1.37615625,0.01948606564663052,0.023008029051387213,True
9244,43990,0,43991,3770.0,39074.0,29098.0,-0.0013419999999999999,0.000122,0.000976,0.36750000000000005,-1.9425000000000001,-3.6225000000000005,1.11440625,0.21590625,0.2915625,1.3996875,1.0748125,-0.25815625000000003,-0.26659375,1.37978125,0.01954239617860488,0.023001013481754113,True
