frame_seq,absolute_seq_u64,segment_id,sample_seq,PPG_G,PPG_R,PPG_IR,ACC_X,ACC_Y,ACC_Z,GYRO_X,GYRO_Y,GYRO_Z,Uh1,Uh2,Uh3,Uh4,Uc1,Uc2,Uc3,Uc4,UD1,UD2,parser_valid
31047,257,0,258,3968.0,39155.0,27346.0,-0.000488,0.000976,0.001464,0.36750000000000005,-1.6450000000000002,-3.8850000000000002,1.08090625,0.23459375000000002,0.278875,1.3631875,1.04759375,-0.26753125,-0.2480625,1.34196875,0.02069122708969418,0.021731117692392946,True
31048,258,0,259,3968.0,39157.0,27345.0,0.000244,0.000915,0.000183,0.4025,-1.4525000000000001,-3.8150000000000004,1.0796875000000001,0.2343125,0.2799375,1.36796875,1.0455625,-0.2669375,-0.247875,1.34946875,0.020655676061307693,0.021767371367594067,True
31049,259,0,260,3970.0,39155.0,27346.0,-0.00183,0.0008539999999999999,0.00042699999999999997,0.43750000000000006,-1.2950000000000002,-3.8325000000000005,1.072375,0.238375,0.27715625,1.36175,1.04009375,-0.26625,-0.2495625,1.3414375,0.02079534332663679,0.0217207526939919,True
31050,260,0,261,3970.0,39157.0,27348.0,-0.003172,-6.1e-05,0.0,0.4025,-1.4000000000000001,-3.8850000000000002,1.0721875,0.23196875,0.277125,1.3624687500000001,1.03440625,-0.2693125,-0.2509375,1.34234375,0.020654942326858248,0.021774931381518755,True
31051,261,0,262,3971.0,39158.0,27348.0,-0.0025009999999999998,-0.000366,-0.00042699999999999997,0.31500000000000006,-1.54,-3.8500000000000005,1.0729375,0.23203125,0.279,1.3625,1.0411875,-0.2686875,-0.248125,1.3421875,0.02063229624593419,0.021738794236667785,True
31052,262,0,263,3972.0,39159.0,27347.0,0.002623,-0.0017079999999999999,-0.001586,0.28,-1.8550000000000002,-3.7800000000000002,1.07865625,0.23550000000000001,0.27590625,1.36234375,1.04709375,-0.26696875000000003,-0.251,1.34184375,0.02070587205087162,0.021727196816626118,True
31053,263,0,264,3972.0,39159.0,27349.0,0.002013,-0.000244,-0.00122,0.24500000000000002,-1.9075000000000002,-3.7625,1.0666875,0.233875,0.2788125,1.364,1.0434375,-0.2680625,-0.2480625,1.33678125,0.020683047935944616,0.021728540166869002,True
31054,264,0,265,3971.0,39162.0,27348.0,0.000793,-0.000366,0.000122,0.36750000000000005,-2.0300000000000002,-3.7625,1.073875,0.231375,0.27890625,1.36790625,1.04059375,-0.26884375,-0.2481875,1.3501875,0.020611560861856056,0.02173744944854126,True
31055,265,0,266,3975.0,39162.0,27348.0,0.001952,-0.001098,-0.000183,0.35000000000000003,-2.0475000000000003,-3.7625,1.0715000000000001,0.23446875,0.27525,1.36228125,1.0415625,-0.26240625,-0.250375,1.34315625,0.020479213598197828,0.02167492255274403,True
31056,266,0,267,3974.0,39160.0,27350.0,0.0025009999999999998,-0.000488,0.001464,0.1925,-2.1525000000000003,-3.7450000000000006,1.07728125,0.2345625,0.27834375,1.3625625000000001,1.0475625,-0.2673125,-0.24978125,1.34225,0.02068111168057856,0.021778546971428864,True
31057,267,0,268,3976.0,39161.0,27351.0,0.00183,0.001281,6.1e-05,0.3325,-1.9250000000000003,-3.4475000000000002,1.0794062500000001,0.23559375000000002,0.27978125,1.3653125,1.0434375,-0.26787500000000003,-0.24825,1.34825,0.020746305558274055,0.02177605600404153,True
31058,268,0,269,3974.0,39161.0,27348.0,-0.00061,0.002928,-0.000488,0.49000000000000005,-1.61,-3.4825000000000004,1.0739375,0.23246875,0.2785625,1.36215625,1.04140625,-0.26928125,-0.24878125,1.3418125,0.020674283462762212,0.021747226986923312,True
31059,269,0,270,3976.0,39162.0,27349.0,-0.001403,0.00244,0.000549,0.43750000000000006,-1.4175000000000002,-3.5875000000000004,1.077375,0.233125,0.27890625,1.3629375000000001,1.04575,-0.270125,-0.24796875000000002,1.34215625,0.020735369100900798,0.021728624175994124,True
31060,270,0,271,3976.0,39164.0,27349.0,-0.00244,0.0,-0.000549,0.35000000000000003,-1.1900000000000002,-3.6400000000000006,1.07621875,0.2369375,0.28234375,1.36346875,1.0483125,-0.26878125,-0.24775,1.34271875,0.020838242546687424,0.021861564475054388,True
31061,271,0,272,3977.0,39167.0,27352.0,-0.002989,-0.0026839999999999998,-0.00042699999999999997,0.1925,-1.1025,-3.7275000000000005,1.0729375,0.23496875,0.27903125,1.36128125,1.041125,-0.2663125,-0.2496875,1.345875,0.02065749585974383,0.021803116019536335,True
31062,272,0,273,3978.0,39169.0,27354.0,-0.0015249999999999999,-0.00061,-0.000793,0.3325,-1.0150000000000001,-3.7450000000000006,1.0734375,0.234125,0.27884375,1.3630625,1.04028125,-0.27075,-0.24765625,1.342,0.020801788160646043,0.021713438798852982,True
31063,273,0,274,3977.0,39168.0,27353.0,-0.00366,0.000122,-0.000366,0.4025,-1.2075,-3.7450000000000006,1.07790625,0.234625,0.27984375,1.367375,1.0501875,-0.2703125,-0.24553125,1.3490312500000001,0.020804738299105133,0.021668941570418262,True
31064,274,0,275,3977.0,39167.0,27353.0,-0.000915,-0.000122,-0.002257,0.4025,-1.61,-3.8150000000000004,1.07325,0.2350625,0.27653125,1.3627500000000001,1.0423437500000001,-0.26528125,-0.24934375,1.3404375,0.020619738334992515,0.02168615387787556,True
31065,275,0,276,3976.0,39169.0,27353.0,0.00042699999999999997,-0.001647,-0.00122,0.3325,-1.9425000000000001,-3.8500000000000005,1.0735625,0.23328125,0.27940625,1.3804375,1.039875,-0.27134375,-0.247125,1.3513125000000001,0.020790979073830637,0.021715203348850638,True
31066,276,0,277,3977.0,39168.0,27350.0,0.003172,-0.001586,0.000732,0.28,-2.24,-3.7450000000000006,1.0737812500000001,0.2380625,0.27871875,1.3594375,1.037125,-0.26934375,-0.25021875,1.33953125,0.020907291735072154,0.02181165891544793,True
31067,277,0,278,3975.0,39166.0,27349.0,0.003355,0.000305,0.000366,0.5075000000000001,-2.66,-3.6400000000000006,1.0658125,0.22778125000000002,0.27265625,1.3536875,1.0401562500000001,-0.271125,-0.244,1.3398125,0.02055554697196772,0.021310685117967333,True
31068,278,0,279,3976.0,39164.0,27348.0,0.004758,0.001647,0.001281,0.5775,-2.6425,-3.7275000000000005,1.06725,0.22818750000000002,0.2754375,1.35153125,1.0485625,-0.27071875,-0.24696875000000001,1.33953125,0.02055589103639545,0.02154521892556157,True
31069,279,0,280,3976.0,39164.0,27345.0,0.002745,0.003111,0.000732,0.525,-2.1700000000000004,-3.7100000000000004,1.07846875,0.2255,0.28365625,1.3718125,1.044875,-0.26775,-0.24715625,1.3548437500000001,0.02032532888298256,0.021891742459489452,True
31070,280,0,281,3974.0,39162.0,27346.0,-0.000244,0.0025009999999999998,0.000122,0.47250000000000003,-1.8900000000000001,-3.6925000000000003,1.0726875,0.2378125,0.28596875,1.378875,1.037625,-0.26587500000000003,-0.2513125,1.35325,0.02075703019157562,0.022154728738908457,True
31071,281,0,282,3973.0,39163.0,27346.0,-0.00244,0.000488,0.0017079999999999999,0.35000000000000003,-1.5750000000000002,-3.7800000000000002,1.06803125,0.24034375,0.27096875,1.3635625,1.03175,-0.26965625,-0.2514375,1.33934375,0.021013894665277758,0.021541248843496386,True
31072,282,0,283,3973.0,39164.0,27343.0,-0.0044529999999999995,-0.000183,-0.000793,0.31500000000000006,-1.12,-3.7800000000000002,1.060125,0.22428125000000002,0.2769375,1.35190625,1.0380625,-0.27059375,-0.2475,1.3395000000000001,0.020389900844514777,0.02162851840395917,True
31073,283,0,284,3971.0,39163.0,27344.0,-0.005246,-0.0008539999999999999,-0.000793,0.3325,-1.3475000000000001,-3.7975000000000003,1.09603125,0.23234375000000002,0.28490625,1.38634375,1.04559375,-0.26765625,-0.24696875000000001,1.34846875,0.02060355540102889,0.0219357316571788,True
31074,284,0,285,3971.0,39162.0,27344.0,-0.002928,-0.000549,-0.0006709999999999999,0.385,-1.6275000000000002,-3.7275000000000005,1.06303125,0.2295,0.2749375,1.3513125000000001,1.0403125,-0.270125,-0.2486875,1.3429375000000001,0.020586008518703548,0.021593952249992915,True
31075,285,0,286,3972.0,39161.0,27344.0,-0.0017079999999999999,-0.0008539999999999999,-0.000488,0.35000000000000003,-1.8200000000000003,-3.7450000000000006,1.09496875,0.23653125,0.2798125,1.3645,1.03459375,-0.2671875,-0.25053125,1.33784375,0.020757195286845664,0.021869366263883392,True
31076,286,0,287,3973.0,39159.0,27342.0,0.002074,-0.001281,0.0006709999999999999,0.2625,-2.0300000000000002,-3.7100000000000004,1.06446875,0.22696875,0.28365625,1.37034375,1.03003125,-0.2656875,-0.24865625,1.34784375,0.020302587758949754,0.02195224735391265,True
31077,287,0,288,3971.0,39160.0,27343.0,0.0059169999999999995,0.000732,-0.000976,0.385,-2.5725000000000002,-3.7625,1.063625,0.23553125,0.28165625,1.3693125,1.03125,-0.26678125,-0.2483125,1.34175,0.02069959319388516,0.021855902343719792,True
31078,288,0,289,3972.0,39159.0,27341.0,0.007137,0.00061,-0.000549,0.3325,-2.5025000000000004,-3.7625,1.0744375,0.2346875,0.2794375,1.36959375,1.04696875,-0.2671875,-0.2474375,1.34678125,0.020681218208743808,0.02172910023997381,True
31079,289,0,290,3972.0,39158.0,27340.0,0.004697,0.000244,-0.0018909999999999999,0.29750000000000004,-2.1700000000000004,-3.7975000000000003,1.0668125,0.23750000000000002,0.28271875,1.35025,1.04284375,-0.26759375,-0.24746875000000002,1.35071875,0.02081350772570931,0.021865684433555566,True
31080,290,0,291,3973.0,39160.0,27340.0,0.003111,0.000183,-0.002074,0.24500000000000002,-1.715,-3.7625,1.073,0.23425,0.279,1.3628125,1.040375,-0.26290625,-0.2503125,1.34190625,0.020490383339794672,0.02182703831136197,True
31081,291,0,292,3974.0,39162.0,27344.0,0.000183,6.1e-05,0.000732,0.21000000000000002,-1.1725,-3.8500000000000005,1.07371875,0.232,0.27953125,1.363,1.0394375,-0.26937500000000003,-0.24965625,1.34240625,0.02065875202801885,0.021822474287650984,True
31082,292,0,293,3975.0,39164.0,27343.0,-0.006344,0.000183,0.00061,0.22750000000000004,-0.47250000000000003,-3.7975000000000003,1.07828125,0.23271875,0.2794375,1.36975,1.0410625,-0.27103125,-0.2495,1.3424375,0.020755195558491157,0.021812305408358938,True
31083,293,0,294,3974.0,39166.0,27345.0,-0.0060999999999999995,0.000488,0.002806,0.36750000000000005,-0.43750000000000006,-3.8325000000000005,1.07325,0.23540625,0.277125,1.35346875,1.034875,-0.26690625,-0.2496875,1.3418125,0.020699486569286104,0.021724506759107722,True
31084,294,0,295,3975.0,39168.0,27347.0,-0.003843,0.002013,0.001464,0.36750000000000005,-0.665,-3.7100000000000004,1.0805,0.23396875,0.2809375,1.3666562500000001,1.04684375,-0.26996875,-0.24725,1.34978125,0.020763829784494467,0.021783398117312273,True
31085,295,0,296,3976.0,39169.0,27348.0,-0.002257,0.000732,-0.0008539999999999999,0.28,-0.9100000000000001,-3.7450000000000006,1.07303125,0.23140625,0.28290625,1.3626875,1.04128125,-0.26978125000000003,-0.24865625,1.342625,0.020650680565981613,0.021921317804981463,True
31086,296,0,297,3976.0,39168.0,27346.0,0.0,-0.000122,0.000366,0.24500000000000002,-1.2600000000000002,-3.8150000000000004,1.0745,0.2343125,0.2770625,1.36671875,1.0461562500000001,-0.26734375,-0.24728125,1.350125,0.020672070877143282,0.021624847115591567,True
31087,297,0,298,3977.0,39168.0,27345.0,0.0042699999999999995,0.0,0.0011589999999999999,0.17500000000000002,-1.4525000000000001,-3.7975000000000003,1.073,0.23565625,0.276375,1.36228125,1.04121875,-0.267125,-0.24878125,1.33975,0.02071861623492688,0.021657016267570148,True
31088,298,0,299,3976.0,39168.0,27346.0,0.00366,-0.000244,-0.001586,0.08750000000000001,-1.33,-3.8325000000000005,1.0739375,0.23153125,0.27918750000000003,1.36778125,1.0410625,-0.27028125000000003,-0.24821875000000002,1.34240625,0.02067600679328757,0.021750308978881184,True
31089,299,0,300,3977.0,39170.0,27348.0,0.00061,0.000549,-0.001769,0.28,-0.8400000000000001,-3.99,1.08028125,0.23465625,0.27915625,1.36925,1.04759375,-0.26509375,-0.24359375,1.3470312500000001,0.020595428360955747,0.021562397282787336,True
31090,300,0,301,3978.0,39171.0,27349.0,-0.00183,-0.0011589999999999999,-0.0015249999999999999,0.15750000000000003,-0.47250000000000003,-4.0600000000000005,1.0731875,0.24053125,0.27746875,1.362625,1.0434375,-0.267125,-0.24928125,1.3419375,0.02091950529780516,0.02172229331539466,True
31091,301,0,302,3978.0,39172.0,27350.0,-0.0035989999999999998,-0.002989,-0.000976,0.10500000000000001,-0.1925,-4.112500000000001,1.072875,0.23353125,0.28034375,1.36778125,1.04140625,-0.268,-0.24784375,1.3428125,0.02066636105159057,0.021782864713486123,True
31092,302,0,303,3978.0,39171.0,27352.0,-0.001281,-0.003355,-0.001464,-0.0175,-0.6475000000000001,-4.340000000000001,1.0775000000000001,0.23440625,0.27728125,1.36346875,1.04575,-0.2671875,-0.24865625,1.341875,0.020669628484965556,0.02168934618799753,True
31093,303,0,304,3980.0,39170.0,27348.0,0.000915,-0.0011589999999999999,-0.00042699999999999997,0.14,-1.0325000000000002,-4.2700000000000005,1.07840625,0.234625,0.2793125,1.3633125,1.0401875,-0.26846875,-0.24840625,1.346625,0.020730345831975906,0.02176302824025806,True
31094,304,0,305,3979.0,39169.0,27348.0,0.001037,0.001098,0.001098,0.24500000000000002,-1.2950000000000002,-4.340000000000001,1.0771875,0.23471875,0.2783125,1.36725,1.046,-0.26703125,-0.24740625,1.3485,0.02067620034898171,0.02168144273163238,True
31095,305,0,306,3980.0,39167.0,27347.0,0.001098,0.004331,0.002745,0.42000000000000004,-1.5050000000000001,-4.357500000000001,1.07325,0.23109375000000001,0.27796875,1.36271875,1.04075,-0.267,-0.24859375,1.342875,0.02052555940165657,0.02171517678215876,True
31096,306,0,307,3979.0,39167.0,27345.0,0.003294,0.002013,0.002257,0.5075000000000001,-1.61,-4.2175,1.07821875,0.232,0.27871875,1.36175,1.04,-0.2705,-0.24765625,1.34240625,0.020704147009744343,0.021708283661436352,True
31097,307,0,308,3981.0,39167.0,27344.0,0.003477,-0.000183,0.000732,0.24500000000000002,-1.3475000000000001,-4.235,1.08103125,0.2348125,0.27965625,1.3704687500000001,1.03328125,-0.26865625,-0.2449375,1.3375000000000001,0.020745637698832215,0.021637249013324946,True
31098,308,0,309,3982.0,39167.0,27344.0,0.002013,-0.0025009999999999998,0.00061,0.15750000000000003,-0.7875000000000001,-4.305000000000001,1.075,0.23859375,0.278625,1.3619375,1.06390625,-0.26159375,-0.24678125,1.3508437500000001,0.02061643209238882,0.021669113297254662,True
31099,309,0,310,3982.0,39167.0,27346.0,-0.0034159999999999998,-0.002623,-0.001098,0.28,-0.28,-4.1475,1.0615625,0.23209375000000002,0.284625,1.36528125,1.0256875,-0.25975,-0.2555,1.33665625,0.020274065066622698,0.022268145369091545,True
31100,310,0,311,3982.0,39166.0,27348.0,-0.0048189999999999995,-0.001281,-0.001952,0.17500000000000002,-0.07,-4.165,1.0796875000000001,0.2349375,0.280125,1.3673125,1.05190625,-0.26925,-0.2456875,1.34821875,0.020774745820328195,0.021686846372164125,True
31101,311,0,312,3983.0,39170.0,27349.0,-0.001464,-0.000244,-0.002379,0.07,-0.07,-4.112500000000001,1.07234375,0.240625,0.27696875,1.3691875,1.054,-0.26687500000000003,-0.244875,1.35246875,0.020913281994488376,0.021523878757881816,True
31102,312,0,313,3982.0,39170.0,27347.0,-0.0018909999999999999,0.000732,-0.0017079999999999999,0.22750000000000004,-0.1925,-4.1475,1.0792187500000001,0.2310625,0.27765625,1.3624687500000001,1.057,-0.2713125,-0.2539375,1.342,0.02069830381031104,0.02191783292918933,True
31103,313,0,314,3985.0,39171.0,27350.0,-0.001952,0.000976,0.000305,0.24500000000000002,-0.14,-4.2700000000000005,1.072125,0.23478125,0.27965625,1.3604687500000001,1.03728125,-0.267125,-0.24571875,1.3331250000000001,0.020682559223641036,0.0216687739974712,True
31104,314,0,315,3986.0,39171.0,27352.0,-0.002074,0.000366,0.000915,0.1925,-0.385,-4.340000000000001,1.07996875,0.23171875,0.2783125,1.3631875,1.0493125,-0.27390625,-0.25265625,1.33953125,0.02082998075350975,0.021893220459099194,True
31105,315,0,316,3987.0,39173.0,27350.0,6.1e-05,-0.000305,0.00061,0.22750000000000004,-0.9975,-4.1475,1.07315625,0.23278125,0.27790625,1.35378125,1.034375,-0.26515625,-0.25084375000000003,1.3571250000000001,0.020520679729808044,0.021803365089101284,True
31106,316,0,317,3985.0,39172.0,27349.0,0.002806,-0.00122,6.1e-05,0.22750000000000004,-2.1700000000000004,-4.095000000000001,1.0734375,0.23509375000000002,0.27675,1.3648437500000001,1.03840625,-0.26490625,-0.246,1.35325,0.020605890451359153,0.021560257362039103,True
31107,317,0,318,3985.0,39173.0,27349.0,0.005307,-0.0008539999999999999,6.1e-05,0.29750000000000004,-2.5200000000000005,-3.9025000000000003,1.0730625,0.2328125,0.2789375,1.36234375,1.03415625,-0.2680625,-0.2529375,1.3372187500000001,0.020639266113642158,0.021930333181289893,True
31108,318,0,319,3987.0,39171.0,27349.0,0.0042699999999999995,0.000183,0.000488,0.3325,-2.3625000000000003,-3.7800000000000002,1.07765625,0.23384375000000002,0.27978125,1.3685625000000001,1.04075,-0.27225,-0.24753125,1.34546875,0.020850714293071306,0.021747059301140192,True
31109,319,0,320,3988.0,39171.0,27349.0,0.004697,6.1e-05,-0.000244,0.31500000000000006,-2.0300000000000002,-3.7275000000000005,1.066875,0.2374375,0.2769375,1.36321875,1.038,-0.26759375,-0.25003125,1.33440625,0.020810932274651254,0.021730642099688016,True
31110,320,0,321,3987.0,39171.0,27350.0,0.00061,0.000122,-0.000244,0.31500000000000006,-1.4525000000000001,-3.7625,1.07775,0.23171875,0.279375,1.3651875,1.041375,-0.2696875,-0.248125,1.338,0.020659773637382025,0.021754259349949734,True
31111,321,0,322,3987.0,39173.0,27350.0,-0.0057339999999999995,0.000793,-0.000244,0.36750000000000005,-0.805,-3.6400000000000006,1.07821875,0.2344375,0.27946875,1.368875,1.04571875,-0.26734375,-0.24796875000000002,1.34915625,0.020677221832323532,0.0217518219953991,True
31112,322,0,323,3989.0,39173.0,27354.0,-0.006161,0.0008539999999999999,-0.0013419999999999999,0.4025,-0.9450000000000001,-3.5175000000000005,1.07309375,0.23503125,0.27684375,1.369,1.0464375000000001,-0.26765625,-0.2469375,1.3495625,0.020714299511309417,0.021601954886055194,True
31113,323,0,324,3990.0,39176.0,27355.0,-0.00549,0.000793,0.000305,0.45500000000000007,-1.4000000000000001,-3.5000000000000004,1.073375,0.23465625,0.28425,1.36384375,1.0408125,-0.26787500000000003,-0.24778125,1.3488125,0.020707674240121977,0.021941440518397946,True
31114,324,0,325,3992.0,39175.0,27357.0,-0.003294,0.00042699999999999997,-0.001098,0.35000000000000003,-2.1700000000000004,-3.4475000000000002,1.07334375,0.233375,0.27903125,1.3516875,1.0403125,-0.2676875,-0.247875,1.3425625,0.020647311368254595,0.021729996958496364,True
31115,325,0,326,3991.0,39174.0,27357.0,-0.0008539999999999999,0.000244,-0.001037,0.525,-2.8875,-3.2550000000000003,1.0785,0.2390625,0.2795,1.36671875,1.0481875,-0.27037500000000003,-0.24771875000000002,1.3451250000000001,0.02099009595030979,0.021743024794858283,True
31116,326,0,327,3992.0,39175.0,27355.0,0.003904,0.00122,0.002745,0.5950000000000001,-4.130000000000001,-2.8525000000000005,1.0775625,0.2349375,0.276125,1.37103125,1.0465625,-0.26687500000000003,-0.247375,1.33915625,0.020678909006619107,0.02158996592414643,True
31117,327,0,328,3993.0,39176.0,27356.0,0.005612,0.000488,0.002745,0.6300000000000001,-4.567500000000001,-2.7475,1.06634375,0.2350625,0.275,1.365,1.0405312500000001,-0.26678125,-0.250625,1.34696875,0.020680276664215614,0.021674699105693154,True
31118,328,0,329,3995.0,39173.0,27355.0,0.007503,-0.0006709999999999999,0.000488,0.6125,-4.6375,-2.66,1.07234375,0.23653125,0.27553125,1.37015625,1.03171875,-0.264625,-0.248375,1.34709375,0.020653780967148677,0.021605829256599672,True
31119,329,0,330,3996.0,39173.0,27355.0,0.004758,-0.000976,-0.0015249999999999999,0.5075000000000001,-4.3925,-2.6425,1.06371875,0.23084375000000001,0.27575,1.36021875,1.0400625000000001,-0.26865625,-0.25215625,1.34240625,0.02058210371659947,0.02176739439405517,True
31120,330,0,331,3996.0,39176.0,27356.0,0.0026839999999999998,-0.000183,-0.0008539999999999999,0.4025,-3.7800000000000002,-2.8000000000000003,1.0728125,0.2295625,0.27965625,1.35590625,1.0398125,-0.2700625,-0.248375,1.3359375,0.020586061531567952,0.021775943748807907,True
31121,331,0,332,3994.0,39177.0,27358.0,-0.0023179999999999997,-0.000122,0.001647,0.42000000000000004,-2.1875,-3.08,1.08578125,0.23553125,0.27653125,1.3690625,1.047625,-0.2643125,-0.24775,1.3486875,0.020599955181091575,0.02162185151199596,True
31122,332,0,333,3997.0,39176.0,27357.0,-0.003477,0.00042699999999999997,-0.00042699999999999997,0.385,-1.54,-3.2375000000000003,1.06996875,0.23096875,0.2805625,1.3615,1.04078125,-0.27040625,-0.24859375,1.33603125,0.020657874237271986,0.02182214174791064,True
31123,333,0,334,3994.0,39179.0,27357.0,-0.003355,-0.000366,-0.00183,0.31500000000000006,-1.0325000000000002,-3.3950000000000005,1.0854375,0.23465625,0.28046875,1.37178125,1.0458125,-0.26787500000000003,-0.24796875000000002,1.342125,0.020707674240121977,0.02179306256323017,True
31124,334,0,335,3997.0,39181.0,27361.0,-0.0048189999999999995,0.002196,-0.000793,0.42000000000000004,-0.5075000000000001,-3.6400000000000006,1.0793125000000001,0.2350625,0.2793125,1.37284375,1.0442500000000001,-0.26721875,-0.24840625,1.346125,0.02069793226716597,0.02176302824025806,True
31125,335,0,336,3995.0,39181.0,27362.0,-0.003965,0.001037,-0.001403,0.47250000000000003,-0.385,-3.6750000000000003,1.07034375,0.23703125,0.27540625,1.36,1.0410625,-0.267625,-0.248625,1.342125,0.020795452789467452,0.021610761434926726,True
31126,336,0,337,3993.0,39184.0,27362.0,-0.000122,-0.0011589999999999999,-6.1e-05,0.35000000000000003,-1.4000000000000001,-4.0600000000000005,1.07028125,0.233875,0.27659375,1.36896875,1.0333125,-0.269125,-0.24859375,1.34240625,0.020725922339598152,0.02165847246296499,True
31127,337,0,338,3992.0,39182.0,27360.0,0.004148,-0.002745,-0.0030499999999999998,0.49000000000000005,-2.1875,-4.2175,1.06971875,0.235125,0.2778125,1.3695,1.04040625,-0.26687500000000003,-0.25009375,1.34671875,0.020686635588636773,0.021769245737452047,True
31128,338,0,339,3991.0,39180.0,27354.0,0.006039,-0.0018909999999999999,-0.0018909999999999999,0.665,-2.765,-4.305000000000001,1.07065625,0.23259375000000002,0.27609375,1.36128125,1.04134375,-0.26684375,-0.24996875000000002,1.3419375,0.020581065471277037,0.02169332692439037,True
31129,339,0,340,3992.0,39177.0,27350.0,0.006527,-0.002928,-0.000915,0.7175,-2.8525000000000005,-4.2525,1.07634375,0.23143750000000002,0.279375,1.3641875,1.04090625,-0.26834375,-0.24840625,1.34309375,0.020593957921005632,0.021765605729242514,True
31130,340,0,341,3990.0,39172.0,27346.0,0.004941,-0.002989,0.001037,0.7000000000000001,-2.7475,-4.130000000000001,1.07365625,0.24025,0.278625,1.356625,1.0485625,-0.26734375,-0.24765625,1.3479375,0.020916741248205212,0.02170441730837388,True
31131,341,0,342,3990.0,39170.0,27340.0,0.000732,0.0015249999999999999,0.000915,0.9275000000000001,-2.3625000000000003,-3.9025000000000003,1.07334375,0.23193750000000002,0.27965625,1.36334375,1.04090625,-0.2665,-0.2561875,1.34046875,0.020540147940576514,0.022091012860120742,True
31132,342,0,343,3989.0,39165.0,27336.0,0.000305,0.0044529999999999995,0.00122,0.9625000000000001,-2.1350000000000002,-3.6575,1.07846875,0.23178125,0.27918750000000003,1.36234375,1.03546875,-0.27718750000000003,-0.2516875,1.33409375,0.02096489760191538,0.02189022928816809,True
31133,343,0,344,3989.0,39162.0,27329.0,-0.002257,0.004697,0.001281,0.9450000000000001,-1.8375000000000001,-3.4475000000000002,1.079,0.23465625,0.279375,1.3655,1.03709375,-0.27768750000000003,-0.24478125,1.34028125,0.021103482364207882,0.021619343338063732,True
31134,344,0,345,3989.0,39159.0,27329.0,-0.002806,0.003904,0.002196,0.9450000000000001,-1.6450000000000002,-3.2025,1.07375,0.2344375,0.27678125,1.3575625,1.06190625,-0.2640625,-0.24940625,1.34746875,0.020544787172387145,0.02169898489782611,True
31135,345,0,346,3988.0,39158.0,27328.0,-0.0042699999999999995,0.001647,0.003294,0.7525000000000001,-1.4700000000000002,-3.1325000000000003,1.07884375,0.234125,0.27925,1.370125,1.0283125,-0.27328125000000003,-0.248,1.33115625,0.02090390025040393,0.021744061365885844,True
31136,346,0,347,3988.0,39157.0,27328.0,-0.00061,0.0008539999999999999,0.000549,0.56,-1.2600000000000002,-3.2550000000000003,1.074875,0.2338125,0.27684375,1.3618125,1.06290625,-0.26996875,-0.24234375,1.36625,0.02075739178691773,0.021416555484656884,True
31137,347,0,348,3988.0,39156.0,27326.0,0.001769,-0.000488,-0.00244,0.36750000000000005,-0.8750000000000001,-3.3775000000000004,1.06021875,0.23240625,0.27903125,1.36425,1.02234375,-0.27353125,-0.24609375,1.33059375,0.020843176659761854,0.021658127920090222,True
31138,348,0,349,3988.0,39157.0,27325.0,0.00042699999999999997,-0.004514,-0.005246,0.28,-0.525,-3.5525,1.07853125,0.2363125,0.2775,1.36471875,1.059,-0.27175,-0.24325,1.36459375,0.020932256635800877,0.021480205830488902,True
31139,349,0,350,3989.0,39155.0,27324.0,0.000183,-0.004941,-0.004514,0.1925,-0.31500000000000006,-3.6750000000000003,1.07253125,0.23153125,0.27840625,1.3627500000000001,1.03584375,-0.26025,-0.24859375,1.3376875,0.020271070990612212,0.021733219065538593,True
31140,350,0,351,3988.0,39153.0,27322.0,0.0011589999999999999,-0.003721,-0.002379,0.2625,-0.21000000000000002,-3.8850000000000002,1.08009375,0.2315,0.27871875,1.35928125,1.0318125,-0.27521875,-0.25065625,1.3311250000000001,0.020873910765479713,0.021829306165683664,True
31141,351,0,352,3988.0,39152.0,27320.0,0.003538,0.001281,0.00042699999999999997,0.5075000000000001,0.8225000000000001,-4.1825,1.078625,0.2345625,0.27934375,1.36809375,1.0473125,-0.2783125,-0.24621875000000001,1.34134375,0.021124820763387078,0.02167606031352827,True
31142,352,0,353,3989.0,39152.0,27321.0,0.000549,0.002989,0.00042699999999999997,0.5950000000000001,1.5050000000000001,-4.4275,1.0774062500000001,0.23450000000000001,0.277,1.35578125,1.05059375,-0.265375,-0.24734375,1.34534375,0.020600341020899124,0.02162479137534395,True
31143,353,0,354,3989.0,39151.0,27318.0,-0.004758,0.0032329999999999998,0.000244,0.6475000000000001,2.2575000000000003,-4.6725,1.07253125,0.2318125,0.27853125,1.3625625000000001,1.037,-0.271125,-0.24796875000000002,1.34275,0.02072163939660811,0.021713158963057474,True
31144,354,0,355,3989.0,39150.0,27320.0,-0.006405,0.001037,0.002806,0.5775,2.765,-4.9175,1.0788125,0.2350625,0.27753125,1.36759375,1.04703125,-0.2663125,-0.24509375,1.348125,0.020661359240304846,0.021555907574083932,True
31145,355,0,356,3991.0,39151.0,27321.0,-0.008723,0.000732,0.001586,0.56,2.5025000000000004,-5.005000000000001,1.05853125,0.2329375,0.27603125,1.356625,1.04046875,-0.26953125,-0.24303125,1.3430312500000001,0.020703685820054725,0.021410792018840465,True
31146,356,0,357,3990.0,39151.0,27318.0,-0.004575,-6.1e-05,-0.000183,0.6300000000000001,0.5775,-5.040000000000001,1.07259375,0.23371875,0.27975,1.363,1.0398125,-0.2701875,-0.24590625,1.3426875,0.020762355049791025,0.021680206323490173,True
31147,357,0,358,3991.0,39151.0,27317.0,0.0025009999999999998,-0.001769,0.000732,0.43750000000000006,-0.42000000000000004,-4.83,1.07671875,0.2330625,0.27968750000000003,1.36459375,1.04540625,-0.26365625,-0.24815625,1.34678125,0.020471718890264116,0.021768407649550677,True
31148,358,0,359,3991.0,39148.0,27319.0,0.0064659999999999995,-0.0035989999999999998,0.0017079999999999999,0.2625,-1.2775,-4.357500000000001,1.07784375,0.23434375000000002,0.27728125,1.3625,1.04740625,-0.26796875000000003,-0.2491875,1.34275,0.020698580304542382,0.02171077896939846,True
31149,359,0,360,3991.0,39148.0,27314.0,0.007076,-0.0017079999999999999,0.004148,0.29750000000000004,-1.8375000000000001,-3.8675,1.07253125,0.23253125,0.27890625,1.3699375,1.04059375,-0.2704375,-0.24821875000000002,1.349625,0.020723513945721,0.021738710188763867,True
31150,360,0,361,3992.0,39144.0,27311.0,0.00671,-0.001037,0.0030499999999999998,0.385,-1.9075000000000002,-3.5700000000000003,1.0730625,0.2336875,0.27865625,1.36059375,1.04096875,-0.265,-0.2489375,1.34225,0.02055172058520503,0.02175739658696386,True
31151,361,0,362,3991.0,39143.0,27310.0,-0.000122,0.003172,0.0006709999999999999,0.5425000000000001,-0.9975,-2.9575000000000005,1.08403125,0.23340625,0.2804375,1.35978125,1.0469375,-0.261625,-0.2480625,1.3496875,0.02040387855306477,0.02179555583049161,True
31152,362,0,363,3992.0,39141.0,27306.0,-0.003355,0.0059169999999999995,-0.0017079999999999999,0.6475000000000001,-0.5775,-2.87,1.0878125,0.2345625,0.27884375,1.3770625,1.0440625000000001,-0.2673125,-0.24890625,1.3395625,0.02068111168057856,0.0217638682157056,True
31153,363,0,364,3994.0,39144.0,27310.0,-0.0048189999999999995,0.004697,-0.0026839999999999998,0.5425000000000001,-0.3325,-2.6250000000000004,1.0668125,0.2356875,0.2770625,1.369375,1.0408125,-0.26834375,-0.24859375,1.34215625,0.020769083180635264,0.021677803480871952,True
31154,364,0,365,3990.0,39145.0,27314.0,-0.0057339999999999995,0.0011589999999999999,-0.001586,0.3325,-0.43750000000000006,-2.3275,1.06659375,0.231,0.280625,1.35546875,1.0405625,-0.27028125000000003,-0.248625,1.34159375,0.020654117883368163,0.021825979823598244,True
31155,365,0,366,3993.0,39151.0,27319.0,-0.0057339999999999995,-0.003904,-0.001647,0.24500000000000002,-0.77,-2.0475000000000003,1.0859375,0.233,0.28171875,1.3765625000000001,1.04828125,-0.26803125,-0.25090625,1.34825,0.020645731202443545,0.021963096739941422,True
31156,366,0,367,3993.0,39153.0,27325.0,-0.0050019999999999995,-0.0030499999999999998,-0.004209,0.1925,-1.9250000000000003,-2.2575000000000003,1.07284375,0.23615625,0.27925,1.3660625,1.041,-0.2670625,-0.2514375,1.33153125,0.0207366981479526,0.021882723446805984,True
31157,367,0,368,3995.0,39158.0,27329.0,-0.002257,-0.000305,-0.002745,0.21000000000000002,-2.4325,-2.4675000000000002,1.0661875,0.23015625,0.272625,1.359,1.040375,-0.27028125000000003,-0.2483125,1.3428125,0.020619353144084397,0.0214834537454926,True
31158,368,0,369,3993.0,39160.0,27329.0,0.002257,0.000244,0.000122,0.35000000000000003,-2.9575000000000005,-2.6775,1.0733125000000001,0.23003125,0.28215625,1.37746875,1.046,-0.2678125,-0.24784375,1.351,0.02051457048302149,0.021857613628015894,True
31159,369,0,370,3994.0,39159.0,27332.0,0.005246,-0.000305,0.001952,0.42000000000000004,-3.3425000000000002,-2.8350000000000004,1.0661875,0.2406875,0.2735,1.35953125,1.0403125,-0.27059375,-0.24871875000000002,1.3425625,0.021065873182439143,0.021535931666492692,True
31160,370,0,371,3994.0,39163.0,27333.0,0.002745,-0.001403,-0.001647,0.42000000000000004,-3.5700000000000003,-3.2550000000000003,1.064875,0.22696875,0.27768750000000003,1.35659375,1.0423125,-0.2685,-0.24521875,1.34396875,0.020416125842141048,0.021567396664548554,True
31161,371,0,372,3995.0,39161.0,27333.0,0.002745,-0.002379,-0.00042699999999999997,0.35000000000000003,-3.3950000000000005,-3.3950000000000005,1.0890625,0.23546875,0.2784375,1.3724375,1.04371875,-0.2680625,-0.249125,1.3434375,0.02074872066939831,0.021755939647306863,True
31162,372,0,373,3994.0,39162.0,27336.0,0.004026,-0.002013,0.000793,0.4025,-3.08,-3.6225000000000005,1.0658750000000001,0.23525000000000001,0.278625,1.35890625,1.03446875,-0.2683125,-0.248375,1.34009375,0.020749794613861183,0.021733415125755853,True
31163,373,0,374,3996.0,39162.0,27335.0,0.004514,-0.001647,0.002623,0.45500000000000007,-2.5900000000000003,-3.6575,1.07675,0.23446875,0.281375,1.35653125,1.0459375,-0.268,-0.24781250000000002,1.34734375,0.02070499217075985,0.021824133620300803,True
31164,374,0,375,3996.0,39159.0,27334.0,0.0018909999999999999,0.001037,0.000488,0.6825000000000001,-2.0650000000000004,-3.8500000000000005,1.07234375,0.23265625,0.27965625,1.3695,1.04090625,-0.2700625,-0.24890625,1.3474375,0.020713533391189247,0.02179737488159904,True
31165,375,0,376,3998.0,39157.0,27330.0,0.0015249999999999999,0.0040869999999999995,0.001647,0.7875000000000001,-0.385,-4.095000000000001,1.07253125,0.23215625,0.27921875,1.36253125,1.0413125,-0.2679375,-0.2493125,1.34225,0.02060717974075877,0.021795721012709126,True
31166,376,0,377,3998.0,39156.0,27331.0,-6.1e-05,0.003721,0.000549,0.6125,-0.4025,-4.322500000000001,1.07865625,0.23853125,0.28253125,1.3635625,1.04678125,-0.2671875,-0.25003125,1.3425625,0.020839611100379886,0.021961311905525898,True
31167,377,0,378,3998.0,39157.0,27333.0,-0.002623,0.000915,-0.000305,0.43750000000000006,-0.4025,-4.322500000000001,1.07284375,0.23371875,0.27840625,1.3668125,1.04678125,-0.26684375,-0.249,1.3425,0.020627425023083196,0.021749608231267273,True
31168,378,0,379,3999.0,39159.0,27332.0,-0.0051849999999999995,-0.001098,0.000488,0.43750000000000006,-0.21000000000000002,-4.322500000000001,1.072875,0.23496875,0.278375,1.36278125,1.045125,-0.26815625,-0.24996875000000002,1.34246875,0.02073190047142539,0.02178739921056599,True
31169,379,0,380,3998.0,39156.0,27334.0,-0.0057339999999999995,-0.0017079999999999999,0.0006709999999999999,0.5425000000000001,-0.07,-4.2875000000000005,1.078875,0.23421875,0.28303125,1.3684375,1.04421875,-0.268125,-0.24690625,1.3486875,0.020699734734348038,0.02185588109823289,True
31170,380,0,381,3999.0,39154.0,27332.0,-0.001403,-0.001281,-0.00122,0.385,-0.56,-4.655,1.07253125,0.23215625,0.27971875,1.36840625,1.03971875,-0.2698125,-0.2476875,1.3469375000000001,0.020682844171128232,0.021750785513051506,True
31171,381,0,382,3998.0,39154.0,27331.0,0.002013,-0.000122,-0.002013,0.47250000000000003,-0.9275000000000001,-4.6375,1.0659375,0.23615625,0.2765,1.3626562500000001,1.04071875,-0.26737500000000003,-0.25075000000000003,1.34153125,0.02074930848515754,0.021741595620753996,True
31172,382,0,383,4000.0,39152.0,27325.0,0.0050019999999999995,-6.1e-05,-0.002257,0.5075000000000001,-0.9800000000000001,-4.6025,1.08034375,0.230125,0.2795625,1.3644687500000001,1.04653125,-0.2715625,-0.2488125,1.34621875,0.020669765286021446,0.02178972681651937,True
31173,383,0,384,4000.0,39148.0,27318.0,0.004331,-0.000244,-0.0021349999999999997,0.47250000000000003,-0.9975,-4.41,1.08134375,0.23371875,0.279875,1.36925,1.046,-0.26759375,-0.24865625,1.3495,0.020657692936696705,0.02179631087805123,True
31174,384,0,385,3999.0,39143.0,27313.0,0.001037,-0.002806,-0.001403,0.4025,-1.0675000000000001,-4.375,1.06703125,0.2345625,0.27696875,1.36278125,1.03978125,-0.26696875000000003,-0.2494375,1.34584375,0.020667239290032877,0.021707977762370777,True
31175,385,0,386,4000.0,39142.0,27313.0,-0.000915,-0.001281,0.000793,0.45500000000000007,-1.4175000000000002,-4.4625,1.0677812500000001,0.2325,0.27790625,1.3687500000000001,1.036,-0.27003125,-0.24796875000000002,1.3408437500000001,0.020705834484658934,0.02168738360816306,True
31176,386,0,387,4001.0,39138.0,27311.0,0.0011589999999999999,-0.000732,0.002562,0.385,-1.2600000000000002,-4.2875000000000005,1.073625,0.23453125,0.27603125,1.364125,1.04384375,-0.26146875,-0.2518125,1.34190625,0.02044393952859923,0.021765125802452906,True
31177,387,0,388,4002.0,39138.0,27309.0,-0.000488,0.0026839999999999998,0.001403,0.525,-0.9975,-4.2525,1.07615625,0.2340625,0.277125,1.365125,1.0364375000000001,-0.26746875000000003,-0.2500625,1.34146875,0.020666813468133136,0.02173963469166317,True
31178,388,0,389,4004.0,39136.0,27307.0,-0.002562,0.004575,0.002013,0.7350000000000001,-0.7875000000000001,-4.1475,1.0719375,0.234375,0.276125,1.36253125,1.0406875,-0.26787500000000003,-0.2506875,1.34146875,0.02069608484467635,0.02172361092855615,True
31179,389,0,390,4003.0,39135.0,27304.0,-0.004026,0.004697,0.00183,0.7350000000000001,-0.7350000000000001,-4.095000000000001,1.0724375,0.232125,0.28321875,1.3628437500000001,1.0414375,-0.26946875,-0.24784375,1.33578125,0.020667685608074957,0.021901431957222998,True
31180,390,0,391,4003.0,39133.0,27302.0,-0.0034159999999999998,0.00366,-0.0015249999999999999,0.6475000000000001,-1.9600000000000002,-3.7975000000000003,1.07634375,0.23415625,0.28028125,1.3661875,1.0335,-0.268125,-0.24759375,1.34428125,0.020697159339668803,0.021770201424625896,True
31181,391,0,392,4003.0,39129.0,27299.0,-0.001647,-0.0008539999999999999,-0.001037,0.43750000000000006,-2.7125000000000004,-3.6050000000000004,1.06821875,0.233625,0.27859375000000003,1.3630625,1.0269375,-0.261125,-0.25128125,1.3419375,0.020392706438798695,0.0218493610518001,True
31182,392,0,393,4003.0,39127.0,27296.0,0.001769,-0.004331,-0.000549,0.1925,-3.6225000000000005,-3.3600000000000003,1.0758125,0.23409375000000002,0.28009375000000003,1.3665,1.0425,-0.27009375,-0.24828125,1.345375,0.020774023586126445,0.021790204202617455,True
31183,393,0,394,4003.0,39125.0,27292.0,0.004575,-0.005978,0.0015249999999999999,0.1925,-4.2525,-3.0975,1.07375,0.234625,0.27846875,1.3623125,1.0421562500000001,-0.26796875000000003,-0.2518125,1.34546875,0.02071016965521682,0.02186563375417817,True
31184,394,0,395,4004.0,39121.0,27291.0,0.004758,-0.002745,0.0006709999999999999,0.385,-4.795000000000001,-2.8525000000000005,1.07309375,0.23265625,0.27934375,1.36309375,1.03846875,-0.271125,-0.24921875000000002,1.3408437500000001,0.020756402927346797,0.021797093978543125,True
31185,395,0,396,4003.0,39120.0,27288.0,0.003355,0.0017079999999999999,0.001037,0.6125,-4.9350000000000005,-2.765,1.0735000000000001,0.232125,0.279125,1.3648437500000001,1.0280625,-0.27115625,-0.24303125,1.34028125,0.020735775618435977,0.021538406011005738,True
31186,396,0,397,4001.0,39118.0,27287.0,0.0018909999999999999,0.0018909999999999999,-0.000793,0.49000000000000005,-4.6025,-2.7475,1.07746875,0.23075,0.2799375,1.36746875,1.0483125,-0.273125,-0.247625,1.3478125,0.02075855498622448,0.021757285507343505,True
31187,397,0,398,4002.0,39118.0,27286.0,-0.000183,0.000488,0.002074,0.385,-3.99,-2.7825,1.095,0.23503125,0.28003125,1.3763125,1.0464375000000001,-0.26025,-0.24665625,1.35128125,0.020415339907873992,0.021722067346915102,True
31188,398,0,399,4000.0,39115.0,27287.0,-0.0017079999999999999,-0.0008539999999999999,0.003721,0.35000000000000003,-3.5700000000000003,-2.7475,1.0694062500000001,0.2373125,0.27621875,1.3835625,1.0368125,-0.26584375,-0.252,1.3459375,0.02073516401011195,0.021780420171532245,True
31189,399,0,400,3999.0,39116.0,27288.0,-0.0015249999999999999,0.001464,0.001952,0.31500000000000006,-3.2725000000000004,-2.7475,1.0641875,0.23771875,0.27946875,1.3850625,1.03728125,-0.26890625,-0.25225000000000003,1.337625,0.02087547723746306,0.021924512158665692,True
31190,400,0,401,3997.0,39116.0,27286.0,0.002928,0.002928,-0.003111,0.35000000000000003,-2.6425,-3.0275000000000003,1.06503125,0.2376875,0.27628125,1.3829375,1.03728125,-0.26684375,-0.25328125,1.34578125,0.020790971219732685,0.021834674431938973,True
31191,401,0,402,3998.0,39116.0,27287.0,0.002806,0.000122,-0.004331,0.22750000000000004,-2.0475000000000003,-3.2375000000000003,1.0738125,0.23690625,0.28146875,1.38334375,1.03828125,-0.26625,-0.250375,1.3500625,0.020734816875289754,0.021931361886156398,True
31192,402,0,403,3999.0,39118.0,27286.0,-0.001464,-0.002989,-0.004514,0.21000000000000002,-1.6275000000000002,-3.3600000000000003,1.0831250000000001,0.23709375,0.27546875,1.379,1.0383437500000001,-0.26559375,-0.25075000000000003,1.3435000000000001,0.020716060162344056,0.02169907116274754,True
31193,403,0,404,3996.0,39119.0,27287.0,-0.0021349999999999997,-0.004026,-0.004392,0.0175,-1.4000000000000001,-3.5175000000000005,1.06009375,0.22628125000000002,0.26637500000000003,1.34440625,1.037625,-0.26884375,-0.24959375,1.33946875,0.020401672411772813,0.021277418307265462,True
31194,404,0,405,3996.0,39116.0,27288.0,-0.00122,-0.005063,-0.001403,-0.035,-1.2775,-3.7450000000000006,1.0808125,0.2241875,0.27984375,1.35053125,1.0456875,-0.2685625,-0.24731250000000002,1.34278125,0.02030404561456823,0.021740811481684826,True
31195,405,0,406,3997.0,39117.0,27285.0,0.000976,-0.000183,0.00183,0.29750000000000004,-1.1725,-4.130000000000001,1.080625,0.22759375,0.27975,1.35178125,1.0475625,-0.26884375,-0.24790625,1.3425,0.020455754098297328,0.02176089945910278,True
31196,406,0,407,3997.0,39115.0,27284.0,-0.001464,0.0025009999999999998,0.002257,0.42000000000000004,-0.8750000000000001,-4.1475,1.0786875,0.227125,0.27721875,1.351625,1.04865625,-0.2705625,-0.248375,1.3425625,0.020505808219319185,0.02167542154886668,True
31197,407,0,408,3997.0,39115.0,27284.0,-0.0015249999999999999,0.002257,0.001952,0.42000000000000004,-0.9450000000000001,-4.2,1.07428125,0.2320625,0.2794375,1.35625,1.0462500000000001,-0.27087500000000003,-0.2485,1.342375,0.02072185283802088,0.02177196527620265,True
31198,408,0,409,3996.0,39114.0,27283.0,0.000549,0.003172,0.00488,0.4025,-1.1375000000000002,-4.165,1.064375,0.23115625,0.28090625,1.36134375,1.0395625,-0.269125,-0.24878125,1.34246875,0.02061389728719103,0.02184388132908742,True
31199,409,0,410,3996.0,39115.0,27285.0,0.0021349999999999997,0.002745,0.0055509999999999995,0.47250000000000003,-1.1725,-4.1475,1.0798125,0.23040625,0.2866875,1.367125,1.04359375,-0.26775,-0.24896875000000002,1.33746875,0.02052750048933255,0.022089856914018248,True
31200,410,0,411,3996.0,39113.0,27281.0,-0.000183,0.0011589999999999999,-0.001403,0.36750000000000005,-0.9275000000000001,-3.9025000000000003,1.0814375,0.23940625000000001,0.2798125,1.3682812500000001,1.048875,-0.26825,-0.2480625,1.3376875,0.02091853553511275,0.021769780575252147,True
31201,411,0,412,3998.0,39110.0,27282.0,-0.0025009999999999998,-0.0008539999999999999,-0.002745,0.35000000000000003,-0.7525000000000001,-3.9725000000000006,1.07571875,0.233375,0.27990625,1.36125,1.04853125,-0.26746875000000003,-0.2481875,1.34834375,0.02063848336056887,0.021778689644329087,True
31202,412,0,413,3997.0,39113.0,27283.0,-0.000305,-0.003477,-0.002623,0.31500000000000006,-0.7000000000000001,-3.9200000000000004,1.07409375,0.23440625,0.277875,1.3650625,1.04553125,-0.267125,-0.24756250000000002,1.350125,0.020667106218804247,0.0216697039135377,True
31203,413,0,414,3997.0,39114.0,27282.0,-0.001647,-0.004026,-0.0032329999999999998,0.21000000000000002,-0.77,-3.8150000000000004,1.0733125000000001,0.2325625,0.276875,1.36225,1.04071875,-0.26678125,-0.25009375,1.33484375,0.020577255172644703,0.021730586093095,True
31204,414,0,415,3999.0,39114.0,27284.0,0.000488,-0.003294,-0.0032329999999999998,0.22750000000000004,-0.9800000000000001,-3.6400000000000006,1.0675625,0.23309375000000002,0.27703125,1.3625,1.04003125,-0.264375,-0.2436875,1.346625,0.020502021997269658,0.02147852920476722,True
31205,415,0,416,3997.0,39114.0,27283.0,0.000732,-0.00122,-0.0021349999999999997,0.3325,-1.3825,-3.5175000000000005,1.0728125,0.23240625,0.27584375,1.362625,1.0394375,-0.27034375,-0.25140625,1.34290625,0.02071458093789875,0.02174100728694857,True
31206,416,0,417,3998.0,39117.0,27283.0,0.000366,-0.001098,0.000122,0.525,-1.61,-3.535,1.0775937500000001,0.23043750000000002,0.27940625,1.363125,1.0410625,-0.2693125,-0.248875,1.34203125,0.020591848244568115,0.02178580449608487,True
31207,417,0,418,3998.0,39115.0,27284.0,0.000305,0.000488,0.00244,0.4025,-1.4175000000000002,-3.5700000000000003,1.0795000000000001,0.2325,0.27871875,1.3643750000000001,1.04803125,-0.27078125000000003,-0.2491875,1.34225,0.02073609600020601,0.02177005930611077,True
31208,418,0,419,3997.0,39114.0,27284.0,0.000122,0.000793,0.003172,0.42000000000000004,-1.155,-3.6575,1.078625,0.23403125,0.2768125,1.35725,1.04575,-0.2676875,-0.24978125,1.3429375000000001,0.020674353499895694,0.021715402071925904,True
31209,419,0,420,3999.0,39114.0,27284.0,0.000244,0.000915,0.002257,0.42000000000000004,-0.805,-3.7100000000000004,1.07903125,0.23434375000000002,0.2783125,1.3624687500000001,1.0466875,-0.26796875000000003,-0.2513125,1.34265625,0.020698580304542382,0.021839024176526528,True
31210,420,0,421,4000.0,39111.0,27283.0,-0.001281,0.003111,0.00183,0.45500000000000007,-0.14,-4.0425,1.0781875,0.23590625,0.27965625,1.3645625000000001,1.0416875,-0.26975,-0.24778125,1.34765625,0.020834835546307648,0.02175199019497918,True
31211,421,0,422,3999.0,39114.0,27282.0,-0.002196,0.003538,0.001281,0.47250000000000003,0.1925,-3.9200000000000004,1.0721875,0.23153125,0.27965625,1.3627500000000001,1.033,-0.26921875,-0.25015625,1.34234375,0.02063313224699497,0.021847797372439613,True
31212,422,0,423,3999.0,39117.0,27284.0,-0.003294,0.002196,-0.001281,0.49000000000000005,0.22750000000000004,-3.9375000000000004,1.07946875,0.23171875,0.28028125,1.3648125,1.04353125,-0.270125,-0.24846875000000002,1.3389375000000001,0.020677427495738074,0.02180550060506398,True
31213,423,0,424,3999.0,39115.0,27283.0,-0.000915,-0.000122,-0.00183,0.36750000000000005,0.14,-3.9725000000000006,1.08075,0.23390625,0.27868750000000003,1.36959375,1.04484375,-0.26134375,-0.2475,1.34803125,0.020413131486173346,0.021700690792865247,True
31214,424,0,425,3999.0,39114.0,27281.0,0.0006709999999999999,-0.001647,-0.0034159999999999998,0.385,-0.10500000000000001,-4.0075,1.07290625,0.23475000000000001,0.27718750000000003,1.36384375,1.0371875,-0.267625,-0.250875,1.34171875,0.02070144894689942,0.021774987500451017,True
31215,425,0,426,4000.0,39113.0,27278.0,0.000488,-0.003538,0.000366,0.24500000000000002,0.052500000000000005,-4.025,1.073125,0.23068750000000002,0.27934375,1.36490625,1.04003125,-0.26959375,-0.24925,1.3380625,0.020613499144376903,0.021798354588286235,True
31216,426,0,427,3998.0,39113.0,27279.0,-0.000366,-0.000976,0.001769,0.4025,0.31500000000000006,-4.0425,1.0772187500000001,0.23409375000000002,0.27868750000000003,1.3629375000000001,1.0459687500000001,-0.26728125,-0.2476875,1.34746875,0.020660534438731164,0.02170825568417607,True
31217,427,0,428,3999.0,39115.0,27276.0,-0.001464,0.001586,0.000488,0.42000000000000004,0.5775,-4.095000000000001,1.0740625,0.23059375000000001,0.281375,1.364625,1.0293125,-0.26653125,-0.249375,1.3418125,0.020486034649060115,0.02188716204025877,True
31218,428,0,429,4000.0,39116.0,27278.0,-0.003477,0.000915,-0.000122,0.36750000000000005,0.56,-4.1475,1.07934375,0.23421875,0.27953125,1.37015625,1.04275,-0.26787500000000003,-0.24625,1.3566562500000001,0.020689646291651,0.0216850543898541,True
31219,429,0,430,4000.0,39116.0,27278.0,-0.001647,-0.000488,0.0006709999999999999,0.29750000000000004,0.56,-4.112500000000001,1.072875,0.23396875,0.282875,1.36346875,1.04075,-0.26709375,-0.25209375,1.3555625,0.020647816551992344,0.02205866246084423,True
31220,430,0,431,4000.0,39115.0,27277.0,-0.0011589999999999999,-0.000305,-0.000488,0.2625,0.07,-4.077500000000001,1.07665625,0.23068750000000002,0.27859375000000003,1.3704687500000001,1.037,-0.26815625,-0.2495625,1.3360625,0.020555486163066055,0.021780032113981437,True
31221,431,0,432,4001.0,39115.0,27278.0,0.000732,0.000183,-0.000976,0.17500000000000002,-0.29750000000000004,-3.9375000000000004,1.073875,0.23415625,0.28028125,1.3634375,1.0494375,-0.26715625,-0.2451875,1.3591250000000001,0.02065806536355079,0.021673115540970758,True
31222,432,0,433,4001.0,39115.0,27275.0,0.0018909999999999999,6.1e-05,-0.000915,0.3325,-0.6300000000000001,-3.7625,1.073125,0.236375,0.28396875,1.3666875,1.0329375,-0.2675,-0.25478125,1.33678125,0.020763366642629035,0.02221211539477397,True
31223,433,0,434,4001.0,39115.0,27274.0,0.00244,0.0,0.000488,0.385,-0.9450000000000001,-3.6400000000000006,1.08003125,0.23628125,0.27984375,1.36471875,1.05040625,-0.271125,-0.24578125,1.349875,0.020905757355705597,0.02167902921255631,True
31224,434,0,435,4002.0,39114.0,27274.0,0.00042699999999999997,-0.001098,-0.00042699999999999997,0.49000000000000005,-1.2075,-3.5525,1.0730625,0.2336875,0.27584375,1.36421875,1.05646875,-0.26590625,-0.24621875000000001,1.34353125,0.02058829968487165,0.021531707908062983,True
31225,435,0,436,4002.0,39113.0,27273.0,-0.000488,-0.0023179999999999997,-6.1e-05,0.3325,-1.0850000000000002,-3.535,1.07490625,0.233875,0.27915625,1.367875,1.0584375,-0.26953125,-0.24628125,1.33678125,0.02074231450185096,0.02167084900906196,True
31226,436,0,437,4002.0,39113.0,27274.0,-0.001403,-0.00122,0.0006709999999999999,0.35000000000000003,-0.9800000000000001,-3.4475000000000002,1.07228125,0.23409375000000002,0.2778125,1.35328125,1.05821875,-0.26937500000000003,-0.24231250000000001,1.35984375,0.020745023306121397,0.02145525514531669,True
31227,437,0,438,4001.0,39112.0,27274.0,-0.002379,-0.00061,0.000488,0.42000000000000004,-0.9100000000000001,-3.5525,1.07259375,0.2308125,0.27828125,1.36353125,1.034,-0.26596875000000003,-0.2500625,1.33896875,0.0204723435984809,0.021787314981146957,True
31228,438,0,439,4002.0,39116.0,27276.0,-0.001037,0.00244,0.00366,0.43750000000000006,-0.9275000000000001,-3.5525,1.07903125,0.2315625,0.27853125,1.36365625,1.03315625,-0.27384375,-0.2483125,1.33684375,0.02082102262852376,0.02172702739623634,True
31229,439,0,440,4003.0,39114.0,27274.0,-0.000366,0.00183,0.000244,0.5775,-0.7175,-3.5525,1.081,0.23309375000000002,0.27890625,1.37009375,1.0386250000000001,-0.26975,-0.24690625,1.3446875,0.020718950545432074,0.021685756301383814,True
31230,440,0,441,4003.0,39114.0,27275.0,-0.0011589999999999999,0.00122,-0.0011589999999999999,0.5775,-0.49000000000000005,-3.4825000000000004,1.07484375,0.234,0.27565625,1.3628125,1.04690625,-0.2675625,-0.2483125,1.34315625,0.020668021355667674,0.021608462444551554,True
31231,441,0,442,4000.0,39115.0,27276.0,-0.0018909999999999999,-0.000488,-0.004392,0.45500000000000007,-0.525,-3.5000000000000004,1.07190625,0.23196875,0.27915625,1.36346875,1.0405625,-0.26953125,-0.25121875,1.343,0.020663769515531952,0.021870034882267516,True
31232,442,0,443,4004.0,39116.0,27275.0,-0.003721,-0.0006709999999999999,-0.003538,0.24500000000000002,-0.665,-3.5875000000000004,1.0776875000000001,0.23090625,0.2793125,1.36478125,1.04115625,-0.26753125,-0.2480625,1.3416875,0.020539275085923705,0.021749160371060575,True
31233,443,0,444,4004.0,39117.0,27277.0,-0.0025009999999999998,-0.0015249999999999999,-0.002379,0.22750000000000004,-0.9100000000000001,-3.535,1.078125,0.2333125,0.2775625,1.36078125,1.04640625,-0.26721875,-0.248,1.3481875,0.020625818523187785,0.021674467997360603,True
31234,444,0,445,4006.0,39116.0,27278.0,0.000732,-0.0018909999999999999,-0.001037,0.28,-1.435,-3.7275000000000005,1.07840625,0.23159375000000001,0.27978125,1.3608437500000001,1.0399375,-0.26978125000000003,-0.249125,1.347375,0.020658406222759013,0.021811354017928483,True
31235,445,0,446,4007.0,39117.0,27279.0,0.0017079999999999999,0.000549,0.001281,0.385,-1.6625,-3.6750000000000003,1.0734062500000001,0.23365625,0.27771875,1.36384375,1.0322500000000001,-0.26771875,-0.251125,1.3487500000000001,0.020660161969282755,0.021806978026792576,True
31236,446,0,447,4007.0,39117.0,27279.0,0.001647,0.000549,0.002379,0.42000000000000004,-1.8025000000000002,-3.6225000000000005,1.06771875,0.23128125,0.27953125,1.37103125,1.02784375,-0.2698125,-0.24853125,1.34609375,0.02064679115258925,0.02177709216924221,True
31237,447,0,448,4008.0,39116.0,27276.0,0.0026839999999999998,0.0011589999999999999,0.0026839999999999998,0.49000000000000005,-1.9425000000000001,-3.5700000000000003,1.0725,0.2349375,0.27718750000000003,1.3633125,1.04196875,-0.26796875000000003,-0.25171875,1.34240625,0.020723046711521746,0.021809021267822516,True
31238,448,0,449,4007.0,39111.0,27276.0,0.003843,0.00042699999999999997,0.0023179999999999997,0.43750000000000006,-1.9775000000000003,-3.5175000000000005,1.0814375,0.237125,0.276125,1.3626562500000001,1.0483437500000001,-0.26765625,-0.24525,1.342625,0.020800576899551226,0.021504212165269487,True
31239,449,0,450,4008.0,39111.0,27277.0,-0.0021349999999999997,0.002562,-0.001098,0.49000000000000005,-1.5225000000000002,-3.4475000000000002,1.0737812500000001,0.229625,0.28021875,1.37390625,1.040375,-0.2699375,-0.24884375,1.33965625,0.020583592355769356,0.021818050602928234,True
31240,450,0,451,4011.0,39111.0,27277.0,-0.002562,0.000122,-0.000244,0.45500000000000007,-1.3650000000000002,-3.325,1.06184375,0.2303125,0.2790625,1.35209375,1.04040625,-0.26787500000000003,-0.24940625,1.34146875,0.020528682466017318,0.021793059366144275,True
31241,451,0,452,4011.0,39112.0,27278.0,-0.001281,-0.002623,-0.0011589999999999999,0.42000000000000004,-1.2950000000000002,-3.3775000000000004,1.07034375,0.2371875,0.2778125,1.361125,1.047,-0.26790625,-0.25178125,1.33953125,0.02081323970830817,0.021837313496302465,True
31242,452,0,453,4009.0,39112.0,27277.0,-0.000183,-0.0035989999999999998,-0.000549,0.12250000000000001,-1.3475000000000001,-3.5875000000000004,1.0854375,0.23446875,0.27628125,1.3555625,1.04828125,-0.2676875,-0.25053125,1.3451250000000001,0.02069238158765643,0.02172375089720972,True
31243,453,0,454,4009.0,39111.0,27277.0,0.0015249999999999999,-0.002928,0.0006709999999999999,0.052500000000000005,-1.2075,-3.5700000000000003,1.06990625,0.2303125,0.27978125,1.37034375,1.0402500000000001,-0.2691875,-0.2494375,1.34290625,0.020581653176481498,0.021823959834119864,True
31244,454,0,455,4009.0,39110.0,27277.0,-0.003294,0.000976,0.0006709999999999999,0.22750000000000004,-0.8925000000000001,-3.3950000000000005,1.07065625,0.23021875,0.27753125,1.3610625,1.04009375,-0.26740625,-0.2485625,1.3425625,0.02050589976009488,0.02169587372447336,True
31245,455,0,456,4008.0,39110.0,27277.0,-0.0023179999999999997,0.003111,-0.0008539999999999999,0.31500000000000006,-1.0675000000000001,-3.3600000000000003,1.084625,0.23371875,0.28096875,1.37253125,1.045125,-0.2683125,-0.248625,1.3468437500000001,0.020686697931716513,0.021840155885127506,True
31246,456,0,457,4008.0,39114.0,27278.0,-0.000915,0.0037819999999999998,-0.000366,0.43750000000000006,-1.2950000000000002,-3.3775000000000004,1.07034375,0.2388125,0.27553125,1.36096875,1.04021875,-0.2675625,-0.24909375,1.341875,0.0208663313425071,0.02163482913665588,True
31247,457,0,458,4007.0,39112.0,27278.0,0.000732,0.003355,-0.00061,0.21000000000000002,-1.6800000000000002,-3.3950000000000005,1.07015625,0.2330625,0.2755,1.3603750000000001,1.04,-0.269625,-0.24978125,1.3430312500000001,0.020712619169023005,0.02166127787235194,True
31248,458,0,459,4005.0,39111.0,27278.0,0.001037,-0.000183,-0.0017079999999999999,0.1925,-1.995,-3.2900000000000005,1.070875,0.23078125,0.2775625,1.3608125,1.04115625,-0.26890625,-0.2500625,1.3415625,0.0205896176305844,0.021757675882278657,True
31249,459,0,460,4004.0,39112.0,27279.0,0.0023179999999999997,-0.001098,-0.000976,0.1925,-2.2225,-3.4125000000000005,1.07728125,0.22946875,0.28028125,1.3691875,1.04334375,-0.26921875,-0.24865625,1.34646875,0.02054814805276746,0.021813064383722294,True
31250,460,0,461,4004.0,39111.0,27276.0,0.0011589999999999999,0.000122,0.00061,0.35000000000000003,-2.0475000000000003,-3.4475000000000002,1.07165625,0.23271875,0.2750625,1.3628125,1.0405,-0.26746875000000003,-0.24953125,1.343,0.020611440985166613,0.021633150125324584,True
31251,461,0,462,4002.0,39107.0,27273.0,-0.0017079999999999999,0.000915,0.001464,0.4025,-1.7500000000000002,-3.535,1.0784375,0.23325,0.279625,1.37,1.04003125,-0.26846875,-0.24840625,1.34878125,0.020673687951572962,0.02177591568518034,True
31252,462,0,463,4000.0,39106.0,27272.0,-0.0015249999999999999,0.00183,0.0015249999999999999,0.385,-1.54,-3.6225000000000005,1.0728125,0.23340625,0.27709375,1.3615,1.04046875,-0.2670625,-0.25121875,1.3435000000000001,0.020623375820621057,0.021784987610158766,True
31253,463,0,464,4002.0,39104.0,27270.0,0.000488,0.000122,0.0017079999999999999,0.42000000000000004,-1.4875,-3.7625,1.0776875000000001,0.23009375,0.27903125,1.363,1.04178125,-0.27296875,-0.25,1.33234375,0.02072521516347274,0.02181572164948454,True
31254,464,0,465,4001.0,39103.0,27268.0,-0.0008539999999999999,-0.0028669999999999998,-6.1e-05,0.28,-1.3825,-3.8500000000000005,1.078125,0.23059375000000001,0.27903125,1.36959375,1.029375,-0.2785,-0.25178125,1.3344375,0.020968912824103632,0.021887567536920612,True
31255,465,0,466,4000.0,39101.0,27268.0,-0.001098,-0.0013419999999999999,-0.000244,0.45500000000000007,-1.1725,-3.8675,1.0708125,0.23990625000000002,0.27828125,1.3705625000000001,1.0601875,-0.27046875,-0.24465625,1.3509375000000001,0.02102864206114684,0.021569185993305224,True
31256,466,0,467,3999.0,39102.0,27265.0,-0.0026839999999999998,0.0,0.0,0.45500000000000007,-1.155,-3.9550000000000005,1.07309375,0.23378125,0.2809375,1.36946875,1.06471875,-0.26621875,-0.24290625000000002,1.3541875,0.02060477592950076,0.021608125057201014,True
31257,467,0,468,3999.0,39100.0,27267.0,-0.0008539999999999999,0.000122,0.000244,0.43750000000000006,-1.0325000000000002,-3.9725000000000006,1.0731875,0.23353125,0.28028125,1.36815625,1.05471875,-0.26525,-0.2441875,1.34965625,0.02055537239467963,0.02163276249204062,True
31258,468,0,469,4000.0,39102.0,27265.0,0.001098,-0.000366,0.002074,0.385,-1.0850000000000002,-3.9550000000000005,1.07865625,0.23371875,0.279,1.3633125,1.06446875,-0.2805625,-0.25015625,1.33096875,0.021180779893381796,0.02182073569113601,True
31259,469,0,470,4001.0,39102.0,27263.0,0.0030499999999999998,0.000915,-0.001952,0.385,-1.0850000000000002,-3.9200000000000004,1.0800625,0.23153125,0.278625,1.35640625,1.05071875,-0.27528125000000003,-0.25365625,1.33246875,0.02087771897596449,0.021946433334149366,True
31260,470,0,471,3998.0,39101.0,27264.0,0.00122,0.001098,-0.000915,0.29750000000000004,-0.9450000000000001,-3.9725000000000006,1.0809375,0.2325625,0.27925,1.3683125,1.03590625,-0.28215625,-0.2481875,1.3317812500000001,0.021197407046583846,0.021751625765843323,True
31261,471,0,472,4000.0,39101.0,27264.0,-0.0008539999999999999,0.001037,-0.001464,0.42000000000000004,-0.9100000000000001,-3.9200000000000004,1.079875,0.23296875,0.27868750000000003,1.36715625,1.062,-0.2728125,-0.24484375,1.335375,0.020837356610405162,0.021593508929089303,True
31262,472,0,473,3999.0,39098.0,27261.0,-0.001037,0.0017079999999999999,0.0,0.5425000000000001,-0.8400000000000001,-3.9725000000000006,1.0794375,0.231625,0.27968750000000003,1.36434375,1.0553125,-0.2778125,-0.2466875,1.3317812500000001,0.02098366564121047,0.02170915099227472,True
31263,473,0,474,3999.0,39099.0,27261.0,-0.000976,0.000366,0.001037,0.525,-0.9275000000000001,-4.0425,1.0811875,0.2338125,0.27896875,1.3627500000000001,1.05515625,-0.27175,-0.24584375,1.33053125,0.020829256234099314,0.021645462431060997,True
31264,474,0,475,3999.0,39098.0,27262.0,-0.001586,-0.0017079999999999999,0.000122,0.36750000000000005,-1.3125000000000002,-3.8675,1.07971875,0.22928125,0.2814375,1.36634375,1.03628125,-0.27146875,-0.2465,1.34125,0.02063121952601241,0.021773761161404736,True
31265,475,0,476,4001.0,39099.0,27260.0,-0.001586,-0.001098,0.000305,0.49000000000000005,-1.6450000000000002,-3.8150000000000004,1.07209375,0.233375,0.2779375,1.362625,1.04071875,-0.2669375,-0.250375,1.3431875,0.02061704325071921,0.021785745581253898,True
31266,476,0,477,4000.0,39098.0,27261.0,0.000122,-0.000244,0.001037,0.42000000000000004,-1.8200000000000003,-3.7450000000000006,1.072875,0.23090625,0.27890625,1.367875,1.0373125,-0.2681875,-0.2483125,1.3489375000000001,0.020565761246075752,0.021742492389934354,True
31267,477,0,478,3998.0,39102.0,27260.0,0.000793,0.000488,0.002257,0.4025,-1.9775000000000003,-3.6925000000000003,1.07246875,0.23065625,0.27818750000000003,1.3638125,1.04078125,-0.2694375,-0.24909375,1.3423125,0.02060590609073655,0.02174436931277071,True
31268,478,0,479,4000.0,39099.0,27259.0,0.001037,0.00042699999999999997,0.001952,0.525,-2.2225,-3.5700000000000003,1.077,0.2360625,0.27840625,1.36596875,1.04846875,-0.26884375,-0.24384375,1.34775,0.020804709742300764,0.02154155114120466,True
31269,479,0,480,4001.0,39099.0,27261.0,0.001464,0.0006709999999999999,6.1e-05,0.43750000000000006,-1.8900000000000001,-3.7450000000000006,1.0693125,0.23175,0.279125,1.36225,1.04003125,-0.27084375,-0.2496875,1.34196875,0.02070771643445646,0.021806982048737742,True
31270,480,0,481,3999.0,39098.0,27259.0,6.1e-05,0.000244,-0.000122,0.22750000000000004,-1.4700000000000002,-3.6750000000000003,1.07815625,0.23765625,0.27871875,1.3628437500000001,1.04453125,-0.26787500000000003,-0.250625,1.34159375,0.020831294458208638,0.021828045668926058,True
31271,481,0,482,4000.0,39101.0,27260.0,-0.002074,-0.001281,-0.0013419999999999999,0.22750000000000004,-1.2775,-3.6750000000000003,1.0755937500000001,0.23090625,0.27953125,1.36925,1.0403437500000001,-0.27137500000000003,-0.24865625,1.35059375,0.020694387936406572,0.021782134834791106,True
31272,482,0,483,3999.0,39100.0,27260.0,-0.0011589999999999999,-0.0011589999999999999,-0.001647,0.2625,-0.9800000000000001,-3.7975000000000003,1.07309375,0.234,0.27618750000000003,1.3655,1.04040625,-0.26840625,-0.25059375,1.34278125,0.020702070207020702,0.021722406281289502,True
31273,483,0,484,3999.0,39101.0,27262.0,-0.00061,-0.000244,-0.001037,0.29750000000000004,-1.0850000000000002,-3.9375000000000004,1.05990625,0.22896875,0.27821875,1.36634375,1.026125,-0.27053125,-0.2488125,1.34559375,0.02058051366304559,0.021734311731760065,True
31274,484,0,485,4000.0,39099.0,27262.0,6.1e-05,-0.0006709999999999999,0.000183,0.24500000000000002,-0.9275000000000001,-3.99,1.07875,0.23403125,0.2719375,1.35871875,1.028,-0.26771875,-0.24975,1.34240625,0.020675614596036146,0.021513108382560646,True
31275,485,0,486,4000.0,39101.0,27260.0,0.0008539999999999999,-0.000549,0.00183,0.31500000000000006,-0.8225000000000001,-4.1475,1.06928125,0.22778125000000002,0.2806875,1.3707500000000001,1.0443125,-0.26887500000000003,-0.248375,1.34815625,0.020464741361105532,0.021818472371859972,True
31276,486,0,487,3998.0,39102.0,27260.0,-0.001647,0.0006709999999999999,0.00244,0.35000000000000003,-0.7875000000000001,-4.0600000000000005,1.066625,0.2305,0.2770625,1.35759375,1.04059375,-0.26596875000000003,-0.2485,1.34240625,0.020459465480849596,0.02167402107346846,True
31277,487,0,488,3999.0,39101.0,27257.0,0.0006709999999999999,0.003904,0.00122,0.35000000000000003,-0.56,-4.1475,1.08534375,0.23125,0.28175,1.3764375,1.04821875,-0.2679375,-0.2486875,1.34709375,0.020569836229387028,0.0218748952907245,True
31278,488,0,489,3999.0,39101.0,27258.0,-0.000183,0.0051849999999999995,0.0008539999999999999,0.31500000000000006,-0.5075000000000001,-4.2875000000000005,1.06609375,0.23565625,0.2765,1.35721875,1.04084375,-0.27021875,-0.25103125,1.3430625,0.020843446250355696,0.02175294091874959,True
31279,489,0,490,4000.0,39102.0,27260.0,-0.000915,-0.0006709999999999999,0.0006709999999999999,0.17500000000000002,-0.45500000000000007,-4.235,1.07028125,0.22496875,0.28115625,1.37784375,1.04696875,-0.2688125,-0.24781250000000002,1.34778125,0.020346329265183455,0.0218151121879551,True
31280,490,0,491,3998.0,39104.0,27258.0,0.002196,-0.004758,0.000915,-0.052500000000000005,-0.47250000000000003,-4.2175,1.064625,0.229,0.275125,1.35771875,1.03925,-0.2715625,-0.24453125,1.3429375000000001,0.020623414747196436,0.021433957400186898,True
31281,491,0,492,4000.0,39102.0,27256.0,0.003294,-0.0050019999999999995,-0.00183,-0.10500000000000001,-0.385,-4.130000000000001,1.08478125,0.233875,0.28153125,1.375875,1.04671875,-0.268,-0.2515625,1.3429375000000001,0.020680525795285974,0.021981831067585854,True
31282,492,0,493,4000.0,39102.0,27257.0,0.002562,-0.003294,-0.001403,0.0175,-0.1925,-4.2175,1.06546875,0.2280625,0.2769375,1.36025,1.03996875,-0.26728125,-0.24915625,1.33915625,0.020412000211189708,0.021695342492586728,True
31283,493,0,494,3999.0,39102.0,27256.0,-0.0021349999999999997,0.001769,-0.002257,0.2625,0.17500000000000002,-4.305000000000001,1.08171875,0.23525000000000001,0.27815625,1.35784375,1.0414375,-0.2675,-0.24925,1.332125,0.020717008344493668,0.02174938400156706,True
31284,494,0,495,4001.0,39102.0,27256.0,-0.002562,0.0034159999999999998,-0.001281,0.385,0.12250000000000001,-4.305000000000001,1.0754062500000001,0.23500000000000001,0.27709375,1.36528125,1.0343125,-0.2679375,-0.25028125,1.344875,0.020724361104028723,0.021747170458074585,True
31285,495,0,496,4000.0,39104.0,27258.0,-0.003111,0.001037,0.000549,0.1925,-0.0175,-4.2175,1.07190625,0.23040625,0.27990625,1.3675,1.0420625000000001,-0.26409375,-0.2494375,1.3424375,0.020379908068892953,0.021829114592864268,True
31286,496,0,497,3999.0,39106.0,27257.0,-0.0023179999999999997,-0.000793,0.002013,0.12250000000000001,-0.29750000000000004,-4.1825,1.072875,0.23365625,0.27846875,1.35728125,1.04046875,-0.26737500000000003,-0.25075000000000003,1.34228125,0.020646289514214045,0.021822778676948137,True
31287,497,0,498,4000.0,39103.0,27260.0,-0.0017079999999999999,-0.00122,0.003355,0.12250000000000001,-0.525,-4.077500000000001,1.07803125,0.2335,0.2770625,1.3625,1.0484375,-0.2679375,-0.249375,1.34278125,0.020662551154172044,0.021709322405216627,True
31288,498,0,499,3999.0,39104.0,27258.0,0.000183,0.003294,0.0018909999999999999,0.1925,-0.8925000000000001,-3.6750000000000003,1.07975,0.23353125,0.27640625,1.35634375,1.04990625,-0.26853125,-0.2511875,1.3423125,0.020687799143180533,0.02175537795829586,True
31289,499,0,500,4000.0,39106.0,27258.0,0.00122,0.004758,0.000732,0.45500000000000007,-1.05,-3.5175000000000005,1.08109375,0.23275,0.27971875,1.36878125,1.04621875,-0.26903125,-0.24809375,1.34934375,0.020675784081822385,0.021767174997003633,True
31290,500,0,501,4001.0,39102.0,27258.0,0.001647,0.0011589999999999999,-0.002074,0.525,-1.4000000000000001,-3.4825000000000004,1.07303125,0.231,0.27803125,1.36203125,1.03996875,-0.26937500000000003,-0.245875,1.34065625,0.020617547835492262,0.02160805704063062,True
31291,501,0,502,4000.0,39101.0,27261.0,0.002257,-0.001464,-0.002745,0.3325,-1.9600000000000002,-3.3775000000000004,1.074125,0.23340625,0.27696875,1.3568437500000001,1.044625,-0.26853125,-0.25221875,1.3430625,0.020682648440045175,0.021820168515509532,True
31292,502,0,503,4000.0,39103.0,27263.0,0.004514,-0.0032329999999999998,-0.004392,0.14,-2.3275,-3.2900000000000005,1.0774062500000001,0.23159375000000001,0.27925,1.36859375,1.03925,-0.26934375,-0.24884375,1.348375,0.02064075177146065,0.02177810024447042,True
31293,503,0,504,4000.0,39100.0,27262.0,0.000366,-0.003904,-0.002074,0.4025,-2.5900000000000003,-2.7825,1.07253125,0.23046875,0.27759375000000003,1.36309375,1.04046875,-0.26734375,-0.248375,1.33965625,0.020513679005350557,0.021690886502703795,True
31294,504,0,505,4000.0,39102.0,27264.0,-0.002928,-0.002257,0.001952,0.43750000000000006,-2.45,-2.6950000000000003,1.0788125,0.2323125,0.27903125,1.365125,1.0474375,-0.26834375,-0.24531250000000002,1.34871875,0.020630013121517615,0.021626603080492364,True
31295,505,0,506,4002.0,39103.0,27264.0,-0.003355,-0.001586,0.0037819999999999998,0.5425000000000001,-2.4325,-2.4325,1.07296875,0.233875,0.2759375,1.3628437500000001,1.0405312500000001,-0.26546875000000003,-0.25084375000000003,1.3418125,0.02057836818009131,0.02172218234674824,True
31296,506,0,507,4001.0,39105.0,27266.0,-0.002745,0.000976,0.004026,0.5425000000000001,-2.4675000000000002,-2.345,1.0790625,0.23625000000000002,0.27809375000000003,1.36878125,1.04559375,-0.27034375,-0.24884375,1.34959375,0.020872953231245436,0.02173041755856916,True
31297,507,0,508,4004.0,39105.0,27268.0,-0.0018909999999999999,0.001769,0.0018909999999999999,0.6825000000000001,-2.5725000000000002,-2.5725000000000002,1.0773125000000001,0.23275,0.2790625,1.3689375,1.0416875,-0.26778125,-0.2500625,1.34403125,0.020625340439806385,0.02181953139296033,True
31298,508,0,509,4002.0,39105.0,27268.0,-0.0026839999999999998,0.000976,-0.002379,0.5425000000000001,-2.24,-2.7475,1.07296875,0.2335,0.27796875,1.365125,1.0401875,-0.2671875,-0.250625,1.3441875,0.020632283819457864,0.02179711863096312,True
31299,509,0,510,4003.0,39108.0,27269.0,-0.000488,-0.00042699999999999997,-0.001769,0.43750000000000006,-2.2225,-2.87,1.07334375,0.233375,0.28134375,1.3687500000000001,1.04115625,-0.2681875,-0.25153125,1.33646875,0.020667489073916214,0.021972839343907407,True
31300,510,0,511,4003.0,39108.0,27269.0,0.001952,-0.0030499999999999998,-0.002013,0.35000000000000003,-2.31,-3.1325000000000003,1.06365625,0.2321875,0.2779375,1.3551250000000001,1.04040625,-0.2605,-0.25078125,1.341875,0.02030821706065415,0.02180213266325183,True
31301,511,0,512,4002.0,39108.0,27270.0,0.002196,-0.002806,-0.001464,0.3325,-2.6425,-3.2025,1.07284375,0.23346875,0.2778125,1.363125,1.0401562500000001,-0.2685625,-0.24953125,1.342625,0.02068648482991112,0.021746554379272795,True
31302,512,0,513,4003.0,39109.0,27269.0,0.002745,-0.002623,-0.002379,0.36750000000000005,-2.9050000000000002,-3.3425000000000002,1.0724375,0.2338125,0.27703125,1.36659375,1.04021875,-0.26771875,-0.2495625,1.34759375,0.02066660056376333,0.0217155979618189,True
31303,513,0,514,4001.0,39110.0,27270.0,0.0050019999999999995,0.0030499999999999998,-0.000732,0.7175,-3.325,-3.43,1.07365625,0.237125,0.27890625,1.3654375,1.03309375,-0.2681875,-0.24606250000000002,1.34996875,0.02082201235671185,0.021651711489236652,True
31304,514,0,515,4000.0,39110.0,27268.0,0.003477,0.003721,0.002013,0.805,-3.0100000000000002,-3.5525,1.07671875,0.23203125,0.27896875,1.36346875,1.0409375,-0.27175,-0.24959375,1.341875,0.020755868447886943,0.02179675690443268,True
31305,515,0,516,3998.0,39108.0,27269.0,-0.001464,0.001647,0.0021349999999999997,0.5950000000000001,-2.7300000000000004,-3.6400000000000006,1.0728125,0.23168750000000002,0.2784375,1.36453125,1.040625,-0.27178125000000003,-0.253375,1.3443125,0.02074296669100048,0.021927360625067647,True
31306,516,0,517,3997.0,39108.0,27267.0,-0.004331,0.000183,0.0064659999999999995,0.42000000000000004,-2.3625000000000003,-3.8150000000000004,1.073125,0.2336875,0.27690625,1.3644375,1.03840625,-0.26828125,-0.25165625,1.341875,0.020684149191653203,0.021794903183158885,True
31307,517,0,518,3995.0,39103.0,27266.0,-0.005124,0.0013419999999999999,0.006344,0.49000000000000005,-2.2575000000000003,-3.7975000000000003,1.072625,0.2343125,0.28334375,1.3560625,1.03703125,-0.26937500000000003,-0.253375,1.3311250000000001,0.020754036723236592,0.022129652058734097,True
31308,518,0,519,3995.0,39102.0,27264.0,-0.002013,0.003294,0.002623,0.665,-2.975,-3.6925000000000003,1.072375,0.2346875,0.2696875,1.36034375,1.02959375,-0.27153125,-0.25325000000000003,1.33946875,0.020856481809321363,0.021561543298320846,True
31309,519,0,520,3993.0,39099.0,27260.0,0.0006709999999999999,0.002745,0.001098,0.49000000000000005,-3.325,-3.5700000000000003,1.0673125,0.23796875,0.280875,1.36390625,1.03846875,-0.2685625,-0.252,1.3526562500000001,0.02087190990401677,0.021972414646214744,True
31310,520,0,521,3992.0,39096.0,27258.0,0.004209,0.00061,-0.0006709999999999999,0.4025,-3.6050000000000004,-3.2725000000000004,1.09325,0.22578125000000002,0.28071875,1.3645,1.044,-0.26903125,-0.24781250000000002,1.3314062500000001,0.02038863829803672,0.0217970693232637,True
31311,521,0,522,3990.0,39094.0,27254.0,0.0028669999999999998,-0.0006709999999999999,-0.002074,0.29750000000000004,-3.3775000000000004,-3.2025,1.06034375,0.243,0.28015625,1.371125,1.0361875,-0.26746875000000003,-0.2531875,1.35359375,0.021035104866468615,0.021990666175322318,True
31312,522,0,523,3991.0,39095.0,27252.0,0.002196,-0.0008539999999999999,-0.002013,0.29750000000000004,-2.9050000000000002,-3.1675000000000004,1.0919375,0.22878125,0.2795625,1.3474062500000001,1.0463437500000001,-0.26809375,-0.24781250000000002,1.3395937500000001,0.020474414064763535,0.02174938460943642,True
31313,523,0,524,3990.0,39095.0,27253.0,0.0013419999999999999,-0.003904,-0.003965,0.21000000000000002,-2.7125000000000004,-3.1675000000000004,1.0598125,0.22871875,0.2738125,1.36571875,1.0476875,-0.2711875,-0.25096875,1.34125,0.020596695155521337,0.021639599448991086,True
31314,524,0,525,3989.0,39092.0,27254.0,0.0011589999999999999,-0.003904,-0.003355,0.1925,-2.7475,-3.22,1.06103125,0.23640625,0.27968750000000003,1.38425,1.0369375,-0.27046875,-0.25146875,1.34175,0.02088443388634593,0.021902023975352007,True
31315,525,0,526,3989.0,39091.0,27254.0,0.001769,-0.0023179999999999997,-0.0034159999999999998,0.17500000000000002,-2.6775,-3.1500000000000004,1.07271875,0.23528125,0.27596875,1.38378125,1.0365,-0.26684375,-0.2514375,1.34221875,0.02069181328948063,0.02174742218889086,True
31316,526,0,527,3988.0,39090.0,27253.0,0.00183,-0.001464,-0.0023179999999999997,0.29750000000000004,-2.5025000000000004,-3.2550000000000003,1.060125,0.23371875,0.2749375,1.354,1.0390625,-0.27087500000000003,-0.2515,1.3425625,0.020790093064217918,0.02170742015957776,True
31317,527,0,528,3989.0,39090.0,27252.0,0.001037,0.0006709999999999999,0.0,0.42000000000000004,-2.2925000000000004,-3.2900000000000005,1.08096875,0.2219375,0.2804375,1.362875,1.039125,-0.2685,-0.24984375,1.34371875,0.02020880977398686,0.02186740893949059,True
31318,528,0,529,3989.0,39091.0,27255.0,-0.0006709999999999999,0.0013419999999999999,0.003843,0.5075000000000001,-1.8375000000000001,-3.4825000000000004,1.0878125,0.233,0.28415625,1.365625,1.0483437500000001,-0.2685,-0.244,1.34990625,0.02066464758843769,0.021785029285596436,True
31319,529,0,530,3989.0,39088.0,27254.0,-0.00122,0.0,0.0,0.3325,-1.8550000000000002,-3.6925000000000003,1.08040625,0.23309375000000002,0.2810625,1.3696875,1.04671875,-0.26809375,-0.24809375,1.345875,0.02065211652645771,0.021822591724349468,True
31320,530,0,531,3989.0,39091.0,27256.0,-0.000976,-0.001281,-0.0023179999999999997,0.28,-1.7500000000000002,-3.7100000000000004,1.07909375,0.23290625,0.27878125,1.36625,1.03940625,-0.2695,-0.2479375,1.3428437500000001,0.020701137229856406,0.021722208332151962,True
31321,531,0,532,3988.0,39091.0,27256.0,-0.001403,-0.000915,-0.0025009999999999998,0.42000000000000004,-1.5925000000000002,-3.6750000000000003,1.07975,0.22903125,0.27740625,1.36365625,1.0493125,-0.271,-0.2485,1.331625,0.02060200444975485,0.021688197208074727,True
31322,532,0,533,3986.0,39094.0,27257.0,-0.001464,0.001403,0.001586,0.49000000000000005,-1.4175000000000002,-3.7275000000000005,1.0683125,0.230125,0.27653125,1.36365625,1.0319375,-0.2691875,-0.25015625,1.34265625,0.02057392733069453,0.02171893222337485,True
31323,533,0,534,3988.0,39093.0,27257.0,-0.0006709999999999999,0.000122,0.001586,0.3325,-1.9075000000000002,-3.8150000000000004,1.07259375,0.23071875,0.27709375,1.363,1.04040625,-0.269125,-0.25165625,1.341875,0.02059587026726345,0.021802634613873023,True
31324,534,0,535,3990.0,39096.0,27260.0,0.000793,-0.00061,0.00042699999999999997,0.385,-2.3275,-3.8675,1.0731875,0.23109375000000001,0.277,1.3626875,1.04078125,-0.2700625,-0.25171875,1.342125,0.020649153664107786,0.02180128985703333,True
31325,535,0,536,3988.0,39097.0,27259.0,0.000549,-0.000122,0.000488,0.3325,-2.45,-3.7800000000000002,1.0664375,0.23234375000000002,0.27568750000000003,1.36890625,1.03128125,-0.26737500000000003,-0.250875,1.3485625,0.020592204554468706,0.021713134062173015,True
31326,536,0,537,3986.0,39097.0,27259.0,0.001586,0.0008539999999999999,0.000732,0.4025,-2.6075000000000004,-3.8150000000000004,1.0734375,0.2325625,0.27615625,1.3700625,1.0405,-0.2683125,-0.24065625000000002,1.35,0.020639053498260333,0.021320070491078393,True
31327,537,0,538,3987.0,39101.0,27259.0,0.00042699999999999997,0.000976,0.0008539999999999999,0.4025,-2.555,-3.9200000000000004,1.07434375,0.23253125,0.27696875,1.36228125,1.0464375000000001,-0.26740625,-0.24884375,1.347625,0.020601192185506025,0.021684023593908475,True
31328,538,0,539,3988.0,39101.0,27261.0,0.0006709999999999999,-0.001037,-0.00061,0.24500000000000002,-2.9400000000000004,-3.6925000000000003,1.06165625,0.23275,0.27871875,1.36853125,1.0423125,-0.26790625,-0.24659375,1.3406875,0.020630385037852205,0.021665414342994058,True
31329,539,0,540,3985.0,39104.0,27261.0,0.0018909999999999999,-0.002257,-0.000366,0.28,-3.2375000000000003,-3.6750000000000003,1.08059375,0.23240625,0.27918750000000003,1.3696875,1.04534375,-0.27090625,-0.2486875,1.347875,0.020737276754962543,0.021769219468063997,True
31330,540,0,541,3986.0,39103.0,27262.0,0.003965,-0.002196,-0.00042699999999999997,0.28,-3.43,-3.5875000000000004,1.06675,0.23290625,0.28034375,1.36921875,1.0478750000000001,-0.26840625,-0.247875,1.33646875,0.020657001322449842,0.021784125413051657,True
31331,541,0,542,3986.0,39103.0,27266.0,0.001952,-0.001586,-0.001403,0.36750000000000005,-3.2025,-3.6225000000000005,1.07265625,0.23271875,0.278625,1.3691875,1.043,-0.26809375,-0.24875,1.34621875,0.020636664138484303,0.02174854373936801,True
31332,542,0,543,3987.0,39105.0,27265.0,0.001464,0.001281,0.000793,0.385,-2.9050000000000002,-3.6925000000000003,1.07890625,0.23203125,0.27684375,1.3633125,1.046,-0.26990625,-0.2516875,1.3425,0.020681476674430915,0.021793586528772484,True
31333,543,0,544,3986.0,39105.0,27265.0,0.001098,0.0017079999999999999,0.001464,0.47250000000000003,-2.0125,-3.6575,1.07234375,0.22934375,0.27734375,1.36371875,1.04109375,-0.27059375,-0.250625,1.33115625,0.020598486594502866,0.02177134609932734,True
31334,544,0,545,3984.0,39107.0,27266.0,0.00122,0.0006709999999999999,-0.000488,0.385,-1.5225000000000002,-3.7275000000000005,1.0798125,0.23265625,0.27859375000000003,1.3681875000000001,1.0346250000000001,-0.2688125,-0.248375,1.347,0.02066309383699759,0.021732126379602756,True
31335,545,0,546,3986.0,39106.0,27269.0,-0.0018909999999999999,6.1e-05,-0.002074,0.28,-1.1375000000000002,-3.7800000000000002,1.07228125,0.23225,0.27484375,1.3626562500000001,1.04003125,-0.26940625,-0.24959375,1.34228125,0.02067031409142941,0.02162665096193622,True
31336,546,0,547,3986.0,39107.0,27269.0,-0.001647,-0.000366,6.1e-05,0.08750000000000001,-0.9625000000000001,-3.9200000000000004,1.0798125,0.23178125,0.278375,1.363375,1.03275,-0.2695,-0.24896875000000002,1.3428125,0.020654782752013844,0.021747058831110087,True
31337,547,0,548,3984.0,39106.0,27269.0,-0.0017079999999999999,-0.000976,0.000915,0.15750000000000003,-0.5775,-3.9200000000000004,1.079375,0.23084375000000001,0.2785625,1.3621875,1.04503125,-0.27103125,-0.249125,1.3431250000000001,0.02067794296956377,0.021761094472480966,True
31338,548,0,549,3984.0,39109.0,27273.0,-0.001464,0.0008539999999999999,-0.002379,0.4025,-0.49000000000000005,-4.0075,1.07778125,0.23,0.27803125,1.362625,1.0443125,-0.27275,-0.25059375,1.3425,0.020712527422727136,0.02179843534758814,True
31339,549,0,550,3983.0,39110.0,27272.0,-0.000183,0.0013419999999999999,0.000366,0.42000000000000004,-0.45500000000000007,-4.1825,1.074,0.22909375,0.27803125,1.3628437500000001,1.03465625,-0.27284375,-0.255875,1.3365,0.02067897380174089,0.02201141991373224,True
31340,550,0,551,3986.0,39112.0,27272.0,-0.000244,0.00183,0.001403,0.45500000000000007,-0.385,-4.305000000000001,1.07325,0.2308125,0.277625,1.36309375,1.0385625,-0.272125,-0.25259375,1.3386875,0.020720785674925458,0.021862352351488177,True
31341,551,0,552,3984.0,39110.0,27273.0,-0.00061,0.000244,0.002989,0.22750000000000004,-0.10500000000000001,-4.340000000000001,1.07934375,0.2325,0.278375,1.37125,1.036375,-0.27240625,-0.2469375,1.33715625,0.020801656201679633,0.021665107191372105,True
31342,552,0,553,3983.0,39110.0,27274.0,0.000122,0.00061,0.000915,0.2625,0.22750000000000004,-4.567500000000001,1.07528125,0.23265625,0.276375,1.36590625,1.05540625,-0.26978125000000003,-0.2464375,1.35240625,0.020702184944497597,0.021562446029442472,True
31343,553,0,554,3984.0,39110.0,27275.0,-0.0026839999999999998,-0.001769,-0.003721,0.17500000000000002,0.35000000000000003,-4.795000000000001,1.0724375,0.232875,0.2778125,1.3595625,1.0511875,-0.26703125,-0.24553125,1.3481875,0.020600222781680392,0.02158516324528876,True
31344,554,0,555,3984.0,39114.0,27275.0,-0.00042699999999999997,-0.003111,-0.0011589999999999999,0.035,0.21000000000000002,-4.83,1.07225,0.23696875,0.28109375000000003,1.36321875,1.04565625,-0.26559375,-0.2520625,1.35925,0.020710908835684272,0.021983954972901787,True
31345,555,0,556,3986.0,39113.0,27275.0,0.000976,-0.0028669999999999998,0.0018909999999999999,0.08750000000000001,0.35000000000000003,-4.7250000000000005,1.072375,0.23193750000000002,0.278125,1.36340625,1.032375,-0.26771875,-0.25184375000000003,1.3366875,0.02058933742999638,0.021852719960724642,True
31346,556,0,557,3983.0,39112.0,27275.0,0.000549,-0.0028669999999999998,0.001281,0.12250000000000001,0.4025,-4.760000000000001,1.08103125,0.23096875,0.28325,1.36278125,1.05040625,-0.27290625,-0.2495,1.3315625,0.020758742064518956,0.02196952514484835,True
31347,557,0,558,3983.0,39115.0,27277.0,-0.003355,0.0011589999999999999,0.001403,0.08750000000000001,0.47250000000000003,-4.8825,1.06659375,0.2321875,0.27818750000000003,1.36053125,1.05525,-0.27359375,-0.24665625,1.33753125,0.020836685956318275,0.021646025933988323,True
31348,558,0,559,3985.0,39115.0,27280.0,-0.003355,0.000915,-0.000549,0.14,0.24500000000000002,-4.8825,1.07459375,0.23193750000000002,0.27778125,1.36659375,1.05103125,-0.2775625,-0.24171875,1.33715625,0.02098645611560057,0.021429998646444983,True
31349,559,0,560,3983.0,39116.0,27281.0,-0.002623,-0.000122,-0.0028669999999999998,0.14,-0.21000000000000002,-4.8475,1.069,0.23450000000000001,0.2779375,1.3703125,1.05009375,-0.27340625,-0.24415625,1.34096875,0.020924391276976217,0.02153482862493926,True
31350,560,0,561,3983.0,39120.0,27283.0,-0.001647,-0.001098,-0.003965,-0.0175,-0.8925000000000001,-4.655,1.07640625,0.232875,0.27840625,1.36778125,1.04578125,-0.26503125,-0.24706250000000002,1.33865625,0.020519497579464276,0.021671439581598805,True
31351,561,0,562,3985.0,39119.0,27283.0,0.0018909999999999999,-0.003172,-0.001098,0.08750000000000001,-1.6800000000000002,-4.532500000000001,1.08003125,0.23275,0.27909375000000003,1.369625,1.0443437500000001,-0.2665625,-0.2485625,1.3434062500000001,0.02057615288527166,0.021760310533871858,True
31352,562,0,563,3985.0,39123.0,27282.0,0.003538,-0.000976,0.0013419999999999999,0.052500000000000005,-3.4475000000000002,-3.99,1.0795625,0.22993750000000002,0.27721875,1.3627500000000001,1.0485625,-0.269625,-0.249625,1.3373125000000001,0.020583857393758658,0.02172585143069223,True
31353,563,0,564,3984.0,39121.0,27285.0,0.004575,0.004026,0.001098,0.525,-3.8675,-3.7800000000000002,1.0723125,0.23328125,0.2793125,1.36809375,1.040875,-0.26865625,-0.2483125,1.34753125,0.020682541910411703,0.021759246133107202,True
31354,564,0,565,3986.0,39121.0,27285.0,0.007503,0.007503,0.002074,0.7175,-4.025,-3.5175000000000005,1.0780625,0.23259375000000002,0.2775,1.36346875,1.04740625,-0.26959375,-0.2500625,1.3428125,0.020692043928423814,0.021755098569333588,True
31355,565,0,566,3986.0,39119.0,27285.0,0.005978,0.008296,0.0046359999999999995,0.77,-3.7800000000000002,-3.2725000000000004,1.07471875,0.2305625,0.277125,1.3634375,1.0414375,-0.2699375,-0.24459375,1.3421875,0.020622220390967217,0.021518972657564122,True
31356,566,0,567,3986.0,39121.0,27288.0,-6.1e-05,0.005612,0.0034159999999999998,0.7175,-3.1500000000000004,-3.2725000000000004,1.07384375,0.23190625,0.27959375000000003,1.36309375,1.040625,-0.26884375,-0.24990625,1.33596875,0.020633451068306462,0.021835135960577172,True
31357,567,0,568,3986.0,39124.0,27290.0,-0.0055509999999999995,-0.003111,0.0015249999999999999,0.17500000000000002,-1.8725000000000003,-3.2725000000000004,1.07890625,0.2325,0.278375,1.36853125,1.04678125,-0.26971875,-0.24865625,1.3508437500000001,0.020693224967841872,0.02173445178018885,True
31358,568,0,569,3986.0,39127.0,27295.0,-0.00488,-0.006588,-0.002623,-0.0175,-1.6625,-3.2550000000000003,1.07371875,0.23253125,0.2793125,1.36878125,1.039875,-0.268125,-0.249125,1.3436875,0.020630199078008706,0.02179202342352559,True
31359,569,0,570,3984.0,39128.0,27297.0,-0.00366,-0.007625,-0.0046359999999999995,-0.10500000000000001,-1.5575,-3.2550000000000003,1.06503125,0.22928125,0.277375,1.36321875,1.0274375,-0.27203125,-0.24603125,1.34275,0.020653916223019035,0.021587295858987228,True
31360,570,0,571,3985.0,39131.0,27298.0,-0.00122,-0.0048189999999999995,-0.0051849999999999995,-0.08750000000000001,-1.5925000000000002,-3.3600000000000003,1.0865,0.23650000000000002,0.27490625,1.3621875,1.04859375,-0.26853125,-0.25134375000000003,1.33346875,0.020810128342645378,0.021699828488885284,True
31361,571,0,572,3984.0,39131.0,27301.0,0.000793,-0.0032329999999999998,-0.003294,-0.035,-1.54,-3.3600000000000003,1.06990625,0.23196875,0.27340625,1.360875,1.040625,-0.27046875,-0.251875,1.3425,0.020701598521866208,0.021659407777749145,True
31362,572,0,573,3982.0,39135.0,27303.0,0.0025009999999999998,0.003111,-0.000732,0.31500000000000006,-1.3650000000000002,-3.535,1.07090625,0.22893750000000002,0.27765625,1.3605625000000001,1.03209375,-0.27153125,-0.25103125,1.34278125,0.020619578750310615,0.02180061930356054,True
31363,573,0,574,3980.0,39134.0,27304.0,0.002013,0.0046359999999999995,0.0011589999999999999,0.4025,-1.1375000000000002,-3.7800000000000002,1.07396875,0.22765625,0.27909375000000003,1.3666562500000001,1.04246875,-0.26984375,-0.24396875,1.34440625,0.020498689860745396,0.021574953564481886,True
31364,574,0,575,3978.0,39135.0,27304.0,-0.000305,0.0037819999999999998,0.002623,0.4025,-1.0150000000000001,-3.9025000000000003,1.084875,0.233625,0.2798125,1.37103125,1.0479375,-0.269,-0.248375,1.34940625,0.020710577279657177,0.021782387479573374,True
31365,575,0,576,3976.0,39135.0,27306.0,-0.0021349999999999997,0.001586,0.001647,0.2625,-0.9100000000000001,-4.0600000000000005,1.07003125,0.22875,0.27896875,1.37325,1.0395625,-0.26884375,-0.2495625,1.3475625,0.020503397488807022,0.02179549631050045,True
31366,576,0,577,3973.0,39136.0,27307.0,-0.003538,-0.000366,0.001037,0.1925,-1.0675000000000001,-4.322500000000001,1.074375,0.2331875,0.27678125,1.36228125,1.04259375,-0.2685,-0.24896875000000002,1.343375,0.0206723736530894,0.02168133438664273,True
31367,577,0,578,3973.0,39132.0,27305.0,0.002196,-0.002379,0.001037,0.12250000000000001,-1.2950000000000002,-4.3925,1.07003125,0.23093750000000002,0.27984375,1.3663750000000001,1.0305625,-0.2711875,-0.24896875000000002,1.34390625,0.020688110130581788,0.021807628417187846,True
31368,578,0,579,3970.0,39133.0,27304.0,0.004575,-0.00061,0.002562,0.24500000000000002,-1.0850000000000002,-4.357500000000001,1.0775000000000001,0.23315625,0.27709375,1.3541875,1.044625,-0.26803125,-0.2495,1.342875,0.020652169714014193,0.021715653931008886,True
31369,579,0,580,3969.0,39130.0,27299.0,0.004941,0.0011589999999999999,0.0015249999999999999,0.4025,-0.77,-4.4275,1.071,0.227125,0.2785,1.3694375,1.03940625,-0.26965625,-0.24940625,1.34625,0.02046923305722552,0.021769862921901438,True
31370,580,0,581,3967.0,39129.0,27298.0,0.003111,0.000793,-0.001037,0.22750000000000004,-0.31500000000000006,-4.4625,1.07015625,0.23321875,0.28303125,1.36440625,1.0402500000000001,-0.268125,-0.25084375000000003,1.3425,0.020658528419480283,0.022014697942210778,True
31371,581,0,582,3967.0,39129.0,27300.0,-0.001281,-0.001464,-0.002928,0.24500000000000002,0.052500000000000005,-4.445,1.069125,0.2330625,0.27615625,1.36253125,1.0405312500000001,-0.26787500000000003,-0.25075000000000003,1.332375,0.02064200099926343,0.021727420801418512,True
31372,582,0,583,3964.0,39128.0,27301.0,-0.003965,-0.001098,-0.000183,0.17500000000000002,0.5075000000000001,-4.4275,1.0731875,0.23184375000000002,0.2754375,1.36940625,1.04125,-0.2680625,-0.2508125,1.349875,0.020599347393307564,0.021700303855798648,True
31373,583,0,584,3964.0,39130.0,27303.0,-0.004026,-0.0023179999999999997,-6.1e-05,0.2625,0.2625,-4.340000000000001,1.079,0.23946875,0.2785625,1.36853125,1.04590625,-0.264125,-0.24703125,1.3530312500000001,0.020754663520732772,0.02167662278242826,True
31374,584,0,585,3965.0,39130.0,27303.0,-0.003172,-0.0021349999999999997,0.001281,0.10500000000000001,-0.035,-4.2875000000000005,1.0756875000000001,0.233,0.28309375000000003,1.368,1.0538125,-0.26737500000000003,-0.24965625,1.3468125,0.020619247034341374,0.02196938358662301,True
31375,585,0,586,3962.0,39129.0,27305.0,-0.001281,-0.001098,0.000244,0.12250000000000001,-0.5775,-4.2,1.07290625,0.232875,0.27521875,1.3639375,1.04515625,-0.26825,-0.24431250000000002,1.34559375,0.02064940817735107,0.021428994944690638,True
31376,586,0,587,3962.0,39128.0,27305.0,0.001098,-0.00061,0.000976,0.22750000000000004,-0.9975,-3.9200000000000004,1.072375,0.230125,0.2779375,1.3540625,1.03709375,-0.26615625,-0.25806250000000003,1.331,0.02045158058355451,0.022095746517266167,True
31377,587,0,588,3963.0,39128.0,27308.0,0.00042699999999999997,0.002806,-0.002806,0.5075000000000001,-2.6075000000000004,-3.6575,1.0776875000000001,0.23234375000000002,0.27809375000000003,1.3666562500000001,1.0462500000000001,-0.27540625,-0.24584375,1.33115625,0.020916230804582315,0.02160937377153559,True
31378,588,0,589,3963.0,39126.0,27310.0,0.0017079999999999999,0.004392,-0.002379,0.6125,-3.1850000000000005,-3.5700000000000003,1.081,0.23153125,0.27815625,1.3581875,1.0469375,-0.27187500000000003,-0.25034375000000003,1.33165625,0.020740311574610534,0.021793505504432282,True
31379,589,0,590,3961.0,39129.0,27309.0,0.003111,0.001647,0.000732,0.6125,-3.3075,-3.4650000000000003,1.07975,0.23228125,0.27818750000000003,1.3618125,1.0499687500000001,-0.274625,-0.2493125,1.3254062500000001,0.020882145450238674,0.02175319403385148,True
31380,590,0,591,3962.0,39128.0,27311.0,0.001952,-0.000915,0.001769,0.36750000000000005,-3.2725000000000004,-3.325,1.0800625,0.23571875,0.27771875,1.3624687500000001,1.0355,-0.27790625,-0.24678125,1.3314375,0.021156066536833256,0.021631737202231736,True
31381,591,0,592,3961.0,39131.0,27314.0,0.002257,-6.1e-05,0.004697,0.4025,-2.9225000000000003,-3.2375000000000003,1.0813125000000001,0.236125,0.27753125,1.3630312500000001,1.034375,-0.2788125,-0.24884375,1.3306875,0.02120933632977313,0.021707220576238816,True
31382,592,0,593,3960.0,39132.0,27313.0,-0.00042699999999999997,0.0026839999999999998,0.0032329999999999998,0.49000000000000005,-2.2750000000000004,-2.87,1.07859375,0.2285625,0.2774375,1.36396875,1.03259375,-0.27718750000000003,-0.25403125,1.33146875,0.020832314286817616,0.021912594426957373,True
31383,593,0,594,3962.0,39133.0,27316.0,-0.003538,0.0040869999999999995,-0.001769,0.5075000000000001,-1.8025000000000002,-2.9050000000000002,1.08021875,0.23190625,0.27746875,1.36340625,1.05440625,-0.27728125,-0.250375,1.33034375,0.02097382712489686,0.02176641598325799,True
31384,594,0,595,3961.0,39137.0,27321.0,-0.004209,0.0017079999999999999,-0.0037819999999999998,0.31500000000000006,-1.5225000000000002,-3.0625000000000004,1.08040625,0.23068750000000002,0.27753125,1.37034375,1.0482500000000001,-0.2780625,-0.24746875000000002,1.34128125,0.02095513181910624,0.021651744576431303,True
31385,595,0,596,3961.0,39141.0,27322.0,-0.002257,-0.002257,-0.0053679999999999995,0.08750000000000001,-1.4175000000000002,-2.9925,1.0729375,0.23275,0.2758125,1.35271875,1.0516875,-0.26737500000000003,-0.24925,1.3336875000000001,0.020608945137247026,0.02165273152777921,True
31386,596,0,597,3960.0,39146.0,27327.0,-0.000183,-0.0051849999999999995,-0.004941,-0.14,-1.3475000000000001,-3.115,1.07328125,0.23125,0.28228125,1.35696875,1.036125,-0.26871875,-0.24928125,1.3428437500000001,0.02060136569838488,0.021920752805817696,True
31387,597,0,598,3962.0,39147.0,27328.0,0.001464,-0.005612,-0.002013,-0.12250000000000001,-1.4525000000000001,-3.2375000000000003,1.079625,0.2313125,0.278125,1.36240625,1.03971875,-0.2689375,-0.24896875000000002,1.34984375,0.020612768894394326,0.021736749114330895,True
31388,598,0,599,3960.0,39148.0,27330.0,0.001037,-0.0026839999999999998,0.000244,0.035,-1.5750000000000002,-3.2900000000000005,1.0731875,0.2326875,0.27465625,1.36071875,1.04028125,-0.26803125,-0.25075000000000003,1.3380625,0.020632854179302246,0.02166556704431822,True
31389,599,0,600,3960.0,39152.0,27332.0,0.00183,0.000549,0.0008539999999999999,0.29750000000000004,-1.8725000000000003,-3.43,1.07809375,0.2368125,0.27771875,1.36328125,1.04740625,-0.270125,-0.249125,1.3430625,0.020887304865549725,0.021726299402555764,True
31390,600,0,601,3960.0,39151.0,27331.0,0.00183,0.0034159999999999998,0.0008539999999999999,0.5425000000000001,-1.9250000000000003,-3.5175000000000005,1.0748125,0.230625,0.28559375,1.363125,1.0474375,-0.27090625,-0.249125,1.34275,0.020663886417508617,0.02205105338852433,True
31391,601,0,602,3960.0,39152.0,27332.0,0.000549,0.003965,0.002257,0.6825000000000001,-1.7675,-3.6225000000000005,1.07796875,0.237875,0.27821875,1.36778125,1.04828125,-0.268625,-0.24859375,1.34959375,0.02087056848090899,0.021725486658375807,True
31392,602,0,603,3957.0,39152.0,27332.0,-0.003294,0.0040869999999999995,0.001037,0.3325,-1.7325000000000002,-3.8850000000000002,1.0728125,0.23225,0.276375,1.362875,1.0403125,-0.2684375,-0.2506875,1.342375,0.020631221107662984,0.021733919914641592,True
31393,603,0,604,3959.0,39153.0,27334.0,-0.0037819999999999998,0.0026839999999999998,0.002257,0.45500000000000007,-2.2750000000000004,-3.8500000000000005,1.0730625,0.2295625,0.2784375,1.36228125,1.04003125,-0.2694375,-0.24925,1.34234375,0.020560839121219848,0.021760982298421598,True
31394,604,0,605,3958.0,39154.0,27332.0,-0.0018909999999999999,0.0025009999999999998,0.000183,0.5425000000000001,-2.8350000000000004,-3.8150000000000004,1.07871875,0.2293125,0.276625,1.3603125,1.048,-0.27187500000000003,-0.24915625,1.343625,0.020648899188876014,0.021682455446259085,True
31395,605,0,606,3959.0,39155.0,27333.0,0.0,0.0018909999999999999,0.002745,0.4025,-3.3075,-3.6225000000000005,1.0665625,0.2264375,0.276625,1.35921875,1.04078125,-0.27034375,-0.24865625,1.34259375,0.020468653230344133,0.02166228283268274,True
31396,606,0,607,3958.0,39152.0,27331.0,0.003538,0.000793,0.002257,0.45500000000000007,-3.6575,-3.5175000000000005,1.08253125,0.2290625,0.27934375,1.35778125,1.04734375,-0.26903125,-0.2494375,1.34575,0.020523841469774363,0.02180591817851445,True
31397,607,0,608,3958.0,39154.0,27332.0,0.000183,-0.001464,0.000183,0.31500000000000006,-4.025,-3.3600000000000003,1.08525,0.22625,0.27996875,1.36009375,1.04765625,-0.26734375,-0.24903125,1.35175,0.02033983426801708,0.021815304477369585,True
31398,608,0,609,3956.0,39156.0,27331.0,0.00122,-0.004026,0.0006709999999999999,0.14,-4.322500000000001,-3.2550000000000003,1.08890625,0.22993750000000002,0.27968750000000003,1.35715625,1.04546875,-0.26834375,-0.24109375,1.34753125,0.020532149005842232,0.021483405632223174,True
31399,609,0,610,3957.0,39156.0,27332.0,0.0028669999999999998,-0.0064659999999999995,-0.0026839999999999998,0.0,-4.655,-3.1325000000000003,1.08365625,0.22525,0.27968750000000003,1.35509375,1.0479375,-0.26865625,-0.2485,1.3491875,0.02035161093849191,0.021782275192279935,True
31400,610,0,611,3957.0,39155.0,27333.0,0.0070149999999999995,-0.008601,-0.002257,-0.24500000000000002,-4.970000000000001,-2.9225000000000003,1.09009375,0.23128125,0.280625,1.37575,1.04471875,-0.26940625,-0.24840625,1.3503125,0.02063039758131701,0.021817155508931648,True
31401,611,0,612,3958.0,39156.0,27331.0,0.007808,-0.009089,-0.0013419999999999999,-0.17500000000000002,-4.777500000000001,-2.765,1.08821875,0.2334375,0.28015625,1.3714375,1.04090625,-0.26853125,-0.24871875000000002,1.34890625,0.020683936115829013,0.02181043070574605,True
31402,612,0,613,3957.0,39156.0,27335.0,0.0040869999999999995,-0.0006709999999999999,-0.002379,0.24500000000000002,-3.43,-2.7475,1.07659375,0.23571875,0.27190625,1.3576875,1.0402500000000001,-0.26846875,-0.25203125,1.342375,0.020775414600478243,0.021603860501375527,True
31403,613,0,614,3958.0,39160.0,27336.0,0.006222,0.003294,-0.003172,0.42000000000000004,-2.24,-2.9925,1.06828125,0.22425,0.27568750000000003,1.3570625,1.0479687500000001,-0.27228125000000003,-0.2493125,1.3425,0.020456719534757372,0.021650098327529906,True
31404,614,0,615,3958.0,39159.0,27335.0,0.001464,0.0062829999999999995,-0.000915,0.5775,-0.9275000000000001,-3.1500000000000004,1.08203125,0.22934375,0.2856875,1.371375,1.0481875,-0.2685625,-0.24878125,1.348,0.02051651184531428,0.022041056187102188,True
31405,615,0,616,3956.0,39163.0,27342.0,-0.005612,0.007991,-0.000305,0.525,-0.14,-3.4125000000000005,1.07128125,0.23428125,0.2759375,1.35959375,1.0410625,-0.26821875,-0.25196875,1.337375,0.02070609323150262,0.021767562684988206,True
31406,616,0,617,3959.0,39165.0,27345.0,-0.00915,0.0077469999999999995,0.000183,0.47250000000000003,0.525,-3.5875000000000004,1.07290625,0.23159375000000001,0.27928125,1.369125,1.04621875,-0.2685625,-0.24896875000000002,1.3499375,0.020609224382367102,0.02178443155443466,True
31407,617,0,618,3959.0,39166.0,27347.0,-0.008784,0.00671,0.0050019999999999995,0.43750000000000006,0.5425000000000001,-3.9725000000000006,1.07315625,0.23184375000000002,0.27525,1.362625,1.04065625,-0.26903125,-0.2506875,1.3421875,0.020638442253437698,0.021687529477257085,True
31408,618,0,619,3958.0,39168.0,27349.0,-0.005795,0.0035989999999999998,0.002928,0.24500000000000002,-0.15750000000000003,-4.235,1.07346875,0.2328125,0.27740625,1.3627500000000001,1.04059375,-0.27265625,-0.2494375,1.33840625,0.020824616176896585,0.021726019417976195,True
31409,619,0,620,3958.0,39168.0,27348.0,-0.002074,-0.000915,0.001586,0.21000000000000002,-0.8225000000000001,-4.340000000000001,1.08096875,0.2325625,0.2765625,1.3705625000000001,1.04628125,-0.2679375,-0.24809375,1.349375,0.020623919935511617,0.021637010125795973,True
31410,620,0,621,3959.0,39167.0,27347.0,0.002196,-0.004331,0.000488,0.21000000000000002,-1.4175000000000002,-4.375,1.07225,0.22865625,0.27709375,1.3628125,1.04075,-0.27009375,-0.2489375,1.34190625,0.020549982424357138,0.021692960774054536,True
31411,621,0,622,3959.0,39167.0,27345.0,0.001281,-0.006588,-0.002013,0.15750000000000003,-1.7675,-4.41,1.0765625,0.2325625,0.2773125,1.3681875000000001,1.0479375,-0.268125,-0.246125,1.3491250000000001,0.020631486775348318,0.021588501255355236,True
31412,622,0,623,3960.0,39163.0,27344.0,0.0021349999999999997,-0.004331,-0.001647,0.31500000000000006,-1.8375000000000001,-4.865,1.07275,0.23453125,0.27634375,1.36325,1.0400625000000001,-0.269125,-0.2505625,1.3308125,0.02075296286948953,0.02172758879304346,True
31413,623,0,624,3959.0,39163.0,27343.0,0.002257,-0.0013419999999999999,-0.0015249999999999999,0.4025,-1.9775000000000003,-4.8475,1.07821875,0.2298125,0.27734375,1.36328125,1.0484375,-0.27259375,-0.2499375,1.34275,0.020698498692584104,0.02174361274126995,True
31414,624,0,625,3960.0,39164.0,27341.0,0.003843,0.0015249999999999999,-0.001586,0.35000000000000003,-1.995,-4.8825,1.0685625,0.2330625,0.278,1.36278125,1.0456875,-0.2675625,-0.241875,1.3421875,0.020629389540049604,0.021445329620749222,True
31415,625,0,626,3958.0,39161.0,27338.0,0.004331,0.0013419999999999999,0.000732,0.3325,-2.0125,-4.9350000000000005,1.0795937500000001,0.2318125,0.27790625,1.3599375,1.0474375,-0.26884375,-0.24853125,1.3424375,0.020629588090697565,0.021710077801103934,True
31416,626,0,627,3958.0,39159.0,27338.0,0.00042699999999999997,-0.002074,0.0018909999999999999,0.28,-1.6975000000000002,-4.742500000000001,1.07275,0.22996875,0.27753125,1.36371875,1.0462500000000001,-0.27175,-0.24940625,1.3345625,0.020670893116483152,0.02172991349014989,True
31417,627,0,628,3959.0,39159.0,27338.0,-0.0023179999999999997,-0.002074,0.002013,0.15750000000000003,-1.4875,-4.532500000000001,1.06659375,0.22968750000000002,0.27778125,1.36890625,1.0462500000000001,-0.27178125000000003,-0.24846875000000002,1.348,0.02066056647572992,0.021702401311423015,True
31418,628,0,629,3956.0,39158.0,27337.0,-0.002623,-0.001098,0.002379,0.2625,-1.3125000000000002,-4.48,1.072625,0.23225,0.2775625,1.36184375,1.0403125,-0.26865625,-0.251125,1.342625,0.020640048828414224,0.021800535026725566,True
31419,629,0,630,3954.0,39162.0,27337.0,-0.002379,0.001037,0.000183,0.36750000000000005,-1.435,-4.2,1.0655625,0.230125,0.27721875,1.3609375000000001,1.04040625,-0.269,-0.2491875,1.33696875,0.020566360377436237,0.021708201563454443,True
31420,630,0,631,3954.0,39155.0,27336.0,-0.0017079999999999999,0.002013,-0.000793,0.3325,-1.54,-4.0425,1.0744375,0.23215625,0.2765625,1.3630625,1.047,-0.26875,-0.24840625,1.34290625,0.020639969096059748,0.021649618724941973,True
31421,631,0,632,3949.0,39154.0,27334.0,0.0034159999999999998,0.002562,0.001403,0.36750000000000005,-1.9775000000000003,-3.7975000000000003,1.0733125000000001,0.2298125,0.2775,1.36759375,1.0402500000000001,-0.270125,-0.249125,1.3474062500000001,0.020598884430961934,0.02171727845850108,True
31422,632,0,633,3948.0,39153.0,27332.0,0.005978,0.002562,-0.000793,0.28,-1.9775000000000003,-3.7975000000000003,1.07275,0.236125,0.2775,1.36240625,1.0406875,-0.26721875,-0.25078125,1.34246875,0.020741715611724148,0.021784092007345126,True
31423,633,0,634,3946.0,39152.0,27328.0,0.0070149999999999995,0.002623,-0.0032329999999999998,0.24500000000000002,-1.9075000000000002,-3.9025000000000003,1.0729375,0.2305,0.278,1.36734375,1.0421875,-0.27137500000000003,-0.24940625,1.34815625,0.020677650112529682,0.021749243860352253,True
31424,634,0,635,3945.0,39149.0,27327.0,0.004514,0.002074,-0.00488,0.14,-1.5925000000000002,-3.9025000000000003,1.072125,0.23153125,0.27734375,1.36359375,1.0405312500000001,-0.26815625,-0.25103125,1.3429375000000001,0.020590253946465336,0.02178773325361164,True
31425,635,0,636,3943.0,39147.0,27323.0,0.000549,-0.000793,-0.003355,0.17500000000000002,-1.1900000000000002,-3.8500000000000005,1.07209375,0.230375,0.27840625,1.365125,1.0401875,-0.27046875,-0.2496875,1.348125,0.020635932299412223,0.021777342491526953,True
31426,636,0,637,3940.0,39146.0,27324.0,-0.007503,-0.0055509999999999995,0.000549,0.14,-0.17500000000000002,-3.9025000000000003,1.076375,0.23265625,0.277625,1.3550312500000001,1.05,-0.26884375,-0.25084375000000003,1.3493125000000001,0.020664354889177613,0.02179176755447942,True
31427,637,0,638,3938.0,39146.0,27322.0,-0.010126,-0.003843,0.0017079999999999999,0.17500000000000002,0.14,-3.99,1.073375,0.231375,0.2765,1.36671875,1.039125,-0.26790625,-0.245125,1.35225,0.020573725844189795,0.021514634385263017,True
31428,638,0,639,3936.0,39145.0,27323.0,-0.0077469999999999995,-0.0034159999999999998,0.002074,0.14,0.1925,-4.077500000000001,1.07440625,0.2318125,0.27834375,1.3626562500000001,1.04421875,-0.2686875,-0.248,1.3438125,0.02062328257348075,0.021706687149455624,True
31429,639,0,640,3936.0,39142.0,27320.0,-0.003904,-0.001586,0.0032329999999999998,0.17500000000000002,0.052500000000000005,-4.025,1.07859375,0.2320625,0.2785,1.361875,1.053,-0.26965625,-0.2475,1.33975,0.02067267640018593,0.021692958036911025,True
31430,640,0,641,3935.0,39142.0,27319.0,0.001037,6.1e-05,0.0015249999999999999,0.1925,-0.1925,-4.077500000000001,1.07234375,0.22784375,0.27668750000000003,1.3593125,1.0503437500000001,-0.27090625,-0.24865625,1.34040625,0.020549294487098108,0.021664860295093673,True
31431,641,0,642,3934.0,39139.0,27316.0,0.0050019999999999995,0.0032329999999999998,-0.0018909999999999999,0.21000000000000002,-0.42000000000000004,-4.357500000000001,1.0875625,0.21828125,0.27968750000000003,1.353375,1.05009375,-0.270125,-0.24759375,1.34928125,0.020123763268627585,0.021745714458780062,True
31432,642,0,643,3934.0,39140.0,27316.0,0.004758,0.0050019999999999995,-0.0006709999999999999,0.21000000000000002,-0.42000000000000004,-4.532500000000001,1.0974375,0.2353125,0.28321875,1.38434375,1.0465625,-0.26375,-0.250125,1.3518125,0.020568234506207816,0.021993443332766326,True
31433,643,0,644,3933.0,39139.0,27314.0,0.0062829999999999995,0.004331,-0.001098,0.22750000000000004,-0.45500000000000007,-4.550000000000001,1.0626875,0.23565625,0.27171875,1.35478125,1.0323125,-0.27046875,-0.255,1.33775,0.02085353213460288,0.02171588332302618,True
31434,644,0,645,3934.0,39138.0,27315.0,0.004209,0.001464,-0.003477,0.035,-0.35000000000000003,-4.6025,1.06071875,0.228625,0.27434375,1.352,1.04325,-0.2730625,-0.24846875000000002,1.34025,0.02066848795861667,0.021560639782666688,True
31435,645,0,646,3934.0,39140.0,27314.0,0.0015249999999999999,-0.0021349999999999997,-0.001647,0.10500000000000001,0.0,-4.550000000000001,1.08925,0.22821875,0.282875,1.38509375,1.0524375,-0.26915625,-0.24146875,1.34925,0.02049411997996428,0.021630032214941596,True
31436,646,0,647,3935.0,39140.0,27317.0,-0.0068319999999999995,-0.002989,0.00122,0.12250000000000001,0.7000000000000001,-4.550000000000001,1.05953125,0.22690625,0.27703125,1.3564375,1.0366875,-0.26971875,-0.24846875000000002,1.33875,0.020462742280439487,0.021671471523330727,True
31437,647,0,648,3933.0,39141.0,27316.0,-0.008296,-0.00244,0.002989,0.17500000000000002,0.6475000000000001,-4.48,1.10053125,0.2354375,0.277,1.38534375,1.04715625,-0.26846875,-0.24853125,1.3343125,0.020763825488577643,0.021672704403488355,True
31438,648,0,649,3933.0,39138.0,27319.0,-0.00671,0.000122,0.0021349999999999997,0.35000000000000003,0.5075000000000001,-4.357500000000001,1.059625,0.23584375000000002,0.2693125,1.3564687500000001,1.0394375,-0.26840625,-0.25071875,1.34209375,0.02077804346958301,0.021443952047813013,True
31439,649,0,650,3933.0,39138.0,27315.0,-0.002379,0.0006709999999999999,0.002928,0.3325,0.24500000000000002,-4.322500000000001,1.07421875,0.22215625,0.27968750000000003,1.364,1.0465,-0.27187500000000003,-0.24903125,1.34790625,0.020354062057422427,0.021803706075887053,True
31440,650,0,651,3933.0,39136.0,27315.0,0.00042699999999999997,0.000732,0.00244,0.1925,-0.052500000000000005,-4.2,1.09015625,0.23500000000000001,0.27803125,1.36634375,1.0404375000000001,-0.26425,-0.2498125,1.34759375,0.020575538085867068,0.02176692087825421,True
31441,651,0,652,3934.0,39139.0,27315.0,0.002379,0.002379,-0.001647,0.28,-0.5075000000000001,-3.9375000000000004,1.06590625,0.22715625,0.279875,1.36609375,1.03990625,-0.2703125,-0.24940625,1.348,0.02049700637352733,0.021826565341161702,True
31442,652,0,653,3934.0,39138.0,27314.0,0.002806,0.001403,-0.0013419999999999999,0.3325,-0.6825000000000001,-3.9025000000000003,1.07321875,0.22846875,0.27740625,1.36778125,1.03971875,-0.26737500000000003,-0.25025000000000003,1.34259375,0.020432525149506282,0.021758796301069062,True
31443,653,0,654,3932.0,39140.0,27315.0,0.00488,0.0017079999999999999,-0.0013419999999999999,0.2625,-0.9275000000000001,-3.9200000000000004,1.07259375,0.2353125,0.27603125,1.3627500000000001,1.048125,-0.26909375,-0.2513125,1.3425625,0.0207838930944836,0.021744957102837217,True
31444,654,0,655,3933.0,39141.0,27314.0,0.0035989999999999998,0.00042699999999999997,-0.003843,0.15750000000000003,-0.9450000000000001,-3.9725000000000006,1.0795937500000001,0.2326875,0.27503125,1.35565625,1.04640625,-0.26609375,-0.2481875,1.34859375,0.020554657669201497,0.02157764368986342,True
31445,655,0,656,3933.0,39142.0,27316.0,0.001952,-0.001281,-0.00244,0.21000000000000002,-0.6125,-4.0425,1.0759375,0.23209375000000002,0.2774375,1.3685,1.039375,-0.27240625,-0.24946875000000002,1.34196875,0.020784919088934584,0.021728568795965894,True
31446,656,0,657,3934.0,39144.0,27317.0,-0.004575,-0.000488,0.001403,0.3325,-0.052500000000000005,-3.7975000000000003,1.0785625,0.23221875,0.277375,1.3683750000000001,1.0470625,-0.264125,-0.249,1.35046875,0.020455868488972916,0.021707080704358946,True
31447,657,0,658,3934.0,39145.0,27320.0,-0.004331,0.000183,0.0025009999999999998,0.385,0.0175,-3.7975000000000003,1.07928125,0.2315625,0.2788125,1.3706562500000001,1.04878125,-0.26821875,-0.24965625,1.3506875,0.020594063995735164,0.02179283469224435,True
31448,658,0,659,3934.0,39147.0,27320.0,-0.005246,0.001037,0.001647,0.4025,-0.10500000000000001,-3.8500000000000005,1.07234375,0.2320625,0.27690625,1.36878125,1.0406875,-0.26828125,-0.25153125,1.3504375,0.02061718936111308,0.021789861207217587,True
31449,659,0,660,3933.0,39149.0,27320.0,-0.003172,0.00042699999999999997,0.0032329999999999998,0.29750000000000004,-0.47250000000000003,-3.7275000000000005,1.07265625,0.23271875,0.276,1.36215625,1.041375,-0.26796875000000003,-0.2520625,1.32996875,0.020631619611756753,0.021773921290199547,True
31450,660,0,661,3932.0,39149.0,27321.0,-0.0018909999999999999,-0.000244,0.001403,0.31500000000000006,-0.8400000000000001,-3.5700000000000003,1.073,0.23534375000000002,0.275375,1.3647500000000001,1.0405,-0.26875,-0.25096875,1.34271875,0.020771310842132372,0.021704029864786333,True
31451,661,0,662,3934.0,39151.0,27322.0,0.001281,0.0006709999999999999,-0.001037,0.29750000000000004,-1.8725000000000003,-3.4650000000000003,1.07290625,0.23168750000000002,0.27440625,1.3674375,1.040125,-0.26828125,-0.24975,1.3510625,0.020601737092526898,0.021614913555809856,True
31452,662,0,663,3934.0,39151.0,27318.0,0.0034159999999999998,0.000122,-0.000915,0.4025,-2.2750000000000004,-3.4475000000000002,1.07253125,0.231,0.27484375,1.36390625,1.04059375,-0.2693125,-0.2526875,1.3423125,0.020615025662552248,0.021751455379945005,True
31453,663,0,664,3933.0,39149.0,27318.0,0.004148,0.000305,-0.000732,0.525,-2.5725000000000002,-3.5525,1.07228125,0.23075,0.27690625,1.36971875,1.041125,-0.2685625,-0.2501875,1.34834375,0.020574457180972297,0.021735656683066887,True
31454,664,0,665,3933.0,39149.0,27317.0,0.003294,-0.000183,0.0,0.49000000000000005,-2.5725000000000002,-3.5175000000000005,1.0675937500000001,0.23425,0.27771875,1.36253125,1.040875,-0.26796875000000003,-0.24890625,1.3359375,0.020694717187650903,0.021717474370622387,True
31455,665,0,666,3931.0,39147.0,27317.0,0.0015249999999999999,-0.000793,-0.000244,0.3325,-2.31,-3.5525,1.07934375,0.230625,0.27825,1.36278125,1.04646875,-0.269,-0.24996875000000002,1.3430625,0.020586962792039226,0.021782244564748147,True
31456,666,0,667,3931.0,39150.0,27316.0,-0.001647,-6.1e-05,0.0017079999999999999,0.45500000000000007,-1.7675,-3.5525,1.0775000000000001,0.22928125,0.27346875,1.36346875,1.04465625,-0.27040625,-0.25234375,1.343375,0.020588345116802485,0.021680894243468737,True
31457,667,0,668,3934.0,39151.0,27318.0,-0.003355,-0.0006709999999999999,6.1e-05,0.35000000000000003,-1.5050000000000001,-3.4825000000000004,1.0731875,0.22896875,0.27625,1.35946875,1.03984375,-0.2684375,-0.25025000000000003,1.343875,0.02049601462805341,0.0217111163802435,True
31458,668,0,669,3935.0,39152.0,27320.0,-0.003355,0.00042699999999999997,-0.0006709999999999999,0.31500000000000006,-1.7500000000000002,-3.5875000000000004,1.07284375,0.23215625,0.27596875,1.36890625,1.03996875,-0.26815625,-0.25059375,1.3474375,0.020616007860094435,0.021713385883593058,True
31459,669,0,670,3935.0,39150.0,27320.0,-0.00183,0.000488,-0.00122,0.385,-1.9075000000000002,-3.6925000000000003,1.07271875,0.23190625,0.2749375,1.3688125,1.040375,-0.26915625,-0.248,1.348375,0.020646061809421162,0.02156621164632135,True
31460,670,0,671,3933.0,39151.0,27319.0,0.001037,0.000488,-0.000244,0.4025,-2.1525000000000003,-3.6750000000000003,1.0729375,0.23193750000000002,0.27553125,1.3625,1.0413125,-0.268625,-0.2491875,1.34853125,0.020625911027097744,0.02163861160296608,True
31461,671,0,672,3934.0,39154.0,27319.0,0.00366,-0.000732,-0.000122,0.42000000000000004,-2.3800000000000003,-3.7275000000000005,1.07440625,0.22834375,0.27725,1.3624375,1.0410625,-0.273375,-0.2506875,1.343375,0.020669509287439426,0.021770001365940653,True
31462,672,0,673,3934.0,39154.0,27321.0,0.0025009999999999998,-0.000366,-0.0006709999999999999,0.47250000000000003,-2.2750000000000004,-3.7625,1.0785,0.23134375000000001,0.27771875,1.36996875,1.04778125,-0.27065625,-0.2494375,1.34096875,0.020683412711594892,0.0217389063148372,True
31463,673,0,674,3935.0,39154.0,27319.0,0.001037,-0.000183,0.0,0.49000000000000005,-2.0475000000000003,-3.8500000000000005,1.07675,0.23065625,0.27696875,1.36359375,1.058625,-0.274,-0.24834375,1.33696875,0.02078999134876823,0.02166385075269316,True
31464,674,0,675,3937.0,39155.0,27319.0,-0.000915,0.001586,0.000366,0.5425000000000001,-1.8200000000000003,-3.99,1.07734375,0.23478125,0.280375,1.36521875,1.04384375,-0.27434375,-0.24840625,1.33665625,0.02097379048609708,0.02180684555299382,True
31465,675,0,676,3936.0,39154.0,27318.0,-0.002196,0.0017079999999999999,0.0011589999999999999,0.31500000000000006,-1.6275000000000002,-4.0425,1.080625,0.2325,0.278125,1.3694375,1.0501562500000001,-0.273,-0.24690625,1.3507500000000001,0.020825608701025834,0.021653535695919972,True
31466,676,0,677,3936.0,39155.0,27319.0,-0.002013,0.001281,0.0018909999999999999,0.385,-1.715,-4.077500000000001,1.07221875,0.232375,0.27803125,1.37078125,1.0525625,-0.265375,-0.24640625,1.346375,0.020512767678224634,0.021629494061619958,True
31467,677,0,678,3937.0,39155.0,27319.0,-0.000488,6.1e-05,-0.000793,0.42000000000000004,-1.9250000000000003,-4.0075,1.0798125,0.2345625,0.277875,1.36796875,1.05521875,-0.272875,-0.24871875000000002,1.33675,0.02090553755993058,0.021716353570227293,True
31468,678,0,679,3937.0,39157.0,27318.0,-0.000183,0.000488,-0.0006709999999999999,0.43750000000000006,-1.9600000000000002,-4.025,1.0805625,0.23184375000000002,0.27796875,1.36609375,1.0553125,-0.273125,-0.24703125,1.33378125,0.020803615109302984,0.021652135248516252,True
31469,679,0,680,3938.0,39155.0,27317.0,0.0006709999999999999,-0.001952,-0.000549,0.24500000000000002,-1.995,-4.0425,1.07946875,0.22875,0.277375,1.36271875,1.04715625,-0.27525,-0.251625,1.3355625,0.020761887107238856,0.02181297129573791,True
31470,680,0,681,3938.0,39155.0,27316.0,0.00122,-0.00244,-0.000122,0.24500000000000002,-2.0475000000000003,-3.9725000000000006,1.081,0.229375,0.277625,1.3631875,1.034,-0.27359375,-0.2515,1.3365,0.020720819305958763,0.021818238047131108,True
31471,681,0,682,3938.0,39154.0,27316.0,0.003111,0.00122,-0.001281,0.525,-2.1700000000000004,-3.9725000000000006,1.08003125,0.22943750000000002,0.27753125,1.363,1.04640625,-0.27371875,-0.25171875,1.33725,0.020728437005557706,0.021823195520936017,True
31472,682,0,683,3938.0,39153.0,27313.0,0.0015249999999999999,0.0017079999999999999,-0.000732,0.6125,-1.8900000000000001,-4.077500000000001,1.07984375,0.22865625,0.27775,1.36290625,1.03940625,-0.27365625,-0.2510625,1.338375,0.02069373047169192,0.02180574562454738,True
31473,683,0,684,3939.0,39153.0,27314.0,-0.000305,0.000183,0.001769,0.5075000000000001,-1.4525000000000001,-4.130000000000001,1.0808125,0.23184375000000002,0.277625,1.369375,1.040625,-0.27265625,-0.24828125,1.3436875,0.020784705011426177,0.02168839286289621,True
31474,684,0,685,3937.0,39156.0,27314.0,-0.00183,-0.000305,0.001098,0.29750000000000004,-1.0325000000000002,-4.0425,1.072125,0.23221875,0.27434375,1.36609375,1.0471875,-0.2685,-0.250625,1.34940625,0.0206324556523889,0.02164763794747558,True
31475,685,0,686,3937.0,39157.0,27316.0,-0.001098,-0.002013,-0.000305,0.07,-0.9100000000000001,-4.0600000000000005,1.07259375,0.2300625,0.2764375,1.36321875,1.0394375,-0.26996875,-0.25290625,1.3423125,0.020602879845076024,0.021825992503475746,True
31476,686,0,687,3935.0,39157.0,27314.0,-0.000793,-0.002562,-0.001464,0.15750000000000003,-0.9800000000000001,-4.077500000000001,1.07778125,0.2295625,0.28171875,1.363125,1.04653125,-0.26684375,-0.24381250000000002,1.342875,0.020456152234466007,0.021676922719972364,True
31477,687,0,688,3932.0,39157.0,27314.0,-0.000732,0.000305,-0.0006709999999999999,0.21000000000000002,-0.9975,-3.9375000000000004,1.07878125,0.23109375000000001,0.27803125,1.36890625,1.04584375,-0.27025,-0.24953125,1.34759375,0.020656719646480772,0.021755575172200496,True
31478,688,0,689,3932.0,39155.0,27312.0,0.000305,0.002074,-0.000183,0.29750000000000004,-1.0850000000000002,-4.025,1.0773125000000001,0.2325,0.27778125,1.3684687500000001,1.0465625,-0.26884375,-0.24975,1.34771875,0.020657916593162788,0.021754090248353078,True
31479,689,0,690,3929.0,39154.0,27309.0,0.0021349999999999997,0.001037,-0.000732,0.36750000000000005,-1.155,-4.0600000000000005,1.07284375,0.23246875,0.2760625,1.36325,1.0401875,-0.269,-0.25075000000000003,1.344,0.02066293419588776,0.021723554941599745,True
31480,690,0,691,3929.0,39155.0,27308.0,0.000976,-0.000122,-0.0021349999999999997,0.3325,-1.1375000000000002,-4.2875000000000005,1.0728125,0.23259375000000002,0.27646875,1.3630312500000001,1.04021875,-0.26837500000000003,-0.25303125,1.34409375,0.02064286339732265,0.021832322506078493,True
31481,691,0,692,3926.0,39153.0,27306.0,-0.000244,-0.001403,-0.000366,0.2625,-1.0325000000000002,-4.2175,1.06571875,0.23015625,0.27546875,1.3628437500000001,1.03884375,-0.26834375,-0.2526875,1.34653125,0.020541162805970226,0.02177722571983002,True
31482,692,0,693,3925.0,39149.0,27302.0,-0.00183,-0.000549,0.00061,0.3325,-1.05,-4.1475,1.0714062500000001,0.2280625,0.276375,1.35653125,1.0403125,-0.2710625,-0.25009375,1.3394062500000001,0.020564612694644085,0.021709967616104577,True
31483,693,0,694,3923.0,39148.0,27299.0,-0.002196,-0.0013419999999999999,0.001037,0.47250000000000003,-1.05,-4.112500000000001,1.0839375,0.23178125,0.27575,1.3609375000000001,1.04821875,-0.269,-0.24934375,1.352,0.020634605875808645,0.02165393651116847,True
31484,694,0,695,3924.0,39144.0,27299.0,-0.002623,-0.000976,0.001647,0.525,-1.0325000000000002,-4.130000000000001,1.06878125,0.228625,0.2721875,1.3530312500000001,1.0395,-0.2678125,-0.25159375,1.3399375,0.020456623356555105,0.021597807360598725,True
31485,695,0,696,3923.0,39144.0,27297.0,0.001037,-0.000488,0.002013,0.35000000000000003,-1.4175000000000002,-4.112500000000001,1.0733125000000001,0.22775,0.2788125,1.36796875,1.04290625,-0.27259375,-0.24506250000000002,1.3468125,0.020613526315044105,0.021607492247132796,True
31486,696,0,697,3920.0,39140.0,27295.0,0.003538,0.000549,-0.000244,0.3325,-1.5575,-3.99,1.083375,0.2324375,0.27403125,1.36234375,1.04534375,-0.26534375,-0.25021875,1.3440625,0.020514081940421716,0.0216183616900363,True
31487,697,0,698,3920.0,39138.0,27292.0,0.001037,0.002623,-0.001769,0.45500000000000007,-1.54,-3.8500000000000005,1.06915625,0.22575,0.2785625,1.362,1.0401875,-0.270625,-0.24759375,1.34296875,0.020451677696804265,0.021699318102440576,True
31488,698,0,699,3918.0,39139.0,27292.0,0.0008539999999999999,0.004758,-0.001281,0.5950000000000001,-1.4000000000000001,-3.8150000000000004,1.084125,0.232875,0.2795,1.3619375,1.0483437500000001,-0.26915625,-0.24934375,1.348625,0.020685978730719156,0.0218085798713625,True
31489,699,0,700,3917.0,39136.0,27289.0,0.000793,0.0037819999999999998,0.000915,0.525,-1.1725,-3.7275000000000005,1.07003125,0.22959375,0.273375,1.3603125,1.04084375,-0.269,-0.2515625,1.34003125,0.02054447031192056,0.02164551253140906,True
31490,700,0,701,3918.0,39134.0,27289.0,-0.00042699999999999997,-0.001952,0.00061,0.2625,-1.1025,-3.5525,1.0755937500000001,0.22690625,0.28115625,1.37259375,1.04203125,-0.2715625,-0.24521875,1.3456875,0.020537151244383215,0.021710466109941783,True
31491,701,0,702,3915.0,39134.0,27293.0,-0.001037,-0.004209,-0.001098,0.1925,-1.1900000000000002,-3.4475000000000002,1.0698125,0.230125,0.2725,1.35959375,1.0402500000000001,-0.26809375,-0.25178125,1.34278125,0.020529785121668243,0.02161825742181309,True
31492,702,0,703,3916.0,39133.0,27293.0,-0.0018909999999999999,-0.003111,-0.0018909999999999999,0.21000000000000002,-1.2775,-3.4125000000000005,1.0695000000000001,0.23028125,0.2798125,1.3605625000000001,1.03971875,-0.26290625,-0.249625,1.34271875,0.02032681060208935,0.02183281184760589,True
31493,703,0,704,3917.0,39132.0,27292.0,-0.0021349999999999997,-0.0017079999999999999,-0.001952,0.45500000000000007,-1.5050000000000001,-3.3775000000000004,1.07990625,0.23165625,0.27771875,1.36934375,1.0448125,-0.26978125000000003,-0.24996875000000002,1.346625,0.02066098144168481,0.021760337320022322,True
31494,704,0,705,3916.0,39134.0,27292.0,-0.0023179999999999997,0.0015249999999999999,-6.1e-05,0.5075000000000001,-1.5225000000000002,-3.2550000000000003,1.0714062500000001,0.23625000000000002,0.27496875,1.360625,1.0408125,-0.26928125,-0.25,1.34271875,0.020830087417607394,0.021648195876288658,True
31495,705,0,706,3917.0,39138.0,27295.0,-0.000305,0.000305,0.000488,0.56,-1.9600000000000002,-3.1675000000000004,1.0754062500000001,0.23,0.278125,1.36696875,1.0404375000000001,-0.27075,-0.24865625,1.348625,0.02063183049555535,0.02172414193054512,True
31496,706,0,707,3916.0,39138.0,27295.0,0.001037,0.001098,0.0008539999999999999,0.5075000000000001,-2.1700000000000004,-3.0625000000000004,1.07221875,0.2313125,0.27471875,1.36321875,1.04046875,-0.26809375,-0.25309375,1.3365,0.02057871768358403,0.021762687492188498,True
31497,707,0,708,3916.0,39136.0,27296.0,0.001037,-6.1e-05,0.001281,0.43750000000000006,-2.2225,-3.0450000000000004,1.07896875,0.23193750000000002,0.278875,1.368875,1.0429375,-0.27459375,-0.24315625000000002,1.35596875,0.02086672408266359,0.021533138862642937,True
31498,708,0,709,3917.0,39138.0,27298.0,0.001952,-0.000549,0.001281,0.45500000000000007,-2.2575000000000003,-3.0100000000000002,1.07184375,0.23043750000000002,0.27984375,1.36259375,1.0381562500000001,-0.26390625,-0.2586875,1.33646875,0.020373625949036956,0.022199521305511685,True
31499,709,0,710,3919.0,39137.0,27298.0,0.002989,0.0,-0.000732,0.45500000000000007,-2.2925000000000004,-2.9225000000000003,1.078875,0.23140625,0.2764375,1.36890625,1.0433125,-0.2735625,-0.243875,1.35603125,0.020803240150678335,0.02146160628199906,True
31500,710,0,711,3918.0,39137.0,27297.0,0.00183,-0.000915,-0.001037,0.4025,-1.7850000000000001,-3.2550000000000003,1.067125,0.23209375000000002,0.275,1.3634375,1.06103125,-0.2663125,-0.25140625,1.35803125,0.020539018855872726,0.021706215490081116,True
31501,711,0,712,3920.0,39139.0,27297.0,0.0008539999999999999,-0.000244,-0.000122,0.31500000000000006,-1.2950000000000002,-3.3775000000000004,1.07515625,0.2288125,0.277125,1.35853125,1.02684375,-0.27175,-0.25015625,1.33175,0.02062325543069618,0.021743416601697155,True
31502,712,0,713,3918.0,39138.0,27299.0,-0.001586,0.0006709999999999999,-0.000732,0.43750000000000006,-0.9800000000000001,-3.2025,1.07265625,0.23143750000000002,0.27546875,1.3623750000000001,1.06665625,-0.26575,-0.24809375,1.364,0.020489269855660755,0.021591903487258663,True
31503,713,0,714,3920.0,39138.0,27303.0,-0.002623,0.000915,-0.000732,0.49000000000000005,-0.77,-3.2025,1.06621875,0.22868750000000002,0.27665625,1.35109375,1.02815625,-0.261875,-0.2531875,1.3354375,0.020219480151472218,0.02184635524711958,True
31504,714,0,715,3920.0,39140.0,27304.0,-0.0028669999999999998,0.0008539999999999999,-0.002196,0.47250000000000003,-0.6475000000000001,-3.3950000000000005,1.07446875,0.23015625,0.27734375,1.363125,1.02815625,-0.27309375,-0.25659375,1.3389375000000001,0.020732833036579853,0.022012056000237045,True
