frame_seq,absolute_seq_u64,segment_id,sample_seq,PPG_G,PPG_R,PPG_IR,ACC_X,ACC_Y,ACC_Z,GYRO_X,GYRO_Y,GYRO_Z,Uh1,Uh2,Uh3,Uh4,Uc1,Uc2,Uc3,Uc4,UD1,UD2,parser_valid
52946,22156,0,22157,3623.0,38406.0,28058.0,-0.0011589999999999999,-0.000122,-0.00122,0.22750000000000004,-0.24500000000000002,-4.130000000000001,1.1043125,0.24490625,0.291625,1.39815625,1.06803125,-0.251625,-0.25625,1.385,0.02047414348523037,0.02258696212316413,True
52947,22157,0,22158,3625.0,38407.0,28057.0,-0.0018909999999999999,-0.0021349999999999997,-0.00183,0.10500000000000001,-0.45500000000000007,-4.0600000000000005,1.1039375,0.24775,0.29071875,1.394375,1.0684375,-0.254375,-0.2510625,1.359875,0.0207024505888113,0.02234051600831923,True
52948,22158,0,22159,3622.0,38408.0,28057.0,-0.002257,-0.003355,-0.0042699999999999995,0.035,-0.665,-4.095000000000001,1.1121875,0.2459375,0.287875,1.39425,1.0596875000000001,-0.25440625,-0.25853125,1.38975,0.020628983651166475,0.02252429235591087,True
52949,22159,0,22160,3621.0,38410.0,28057.0,-0.000732,-0.0006709999999999999,-0.003843,0.052500000000000005,-0.6475000000000001,-4.1825,1.104125,0.24759375,0.290625,1.39878125,1.0584375,-0.24840625,-0.245875,1.36271875,0.020454952580646408,0.022127475292188874,True
52950,22160,0,22161,3620.0,38407.0,28056.0,-0.000366,0.001281,-0.002013,0.1925,-0.45500000000000007,-4.077500000000001,1.11140625,0.24428125,0.29,1.39034375,1.075375,-0.2615,-0.26140625,1.3729375,0.02084707252230901,0.022727711836571716,True
52951,22161,0,22162,3617.0,38410.0,28055.0,0.001403,0.0066489999999999995,0.004697,0.47250000000000003,-0.31500000000000006,-4.305000000000001,1.10453125,0.24765625,0.2901875,1.393875,1.067,-0.2511875,-0.25,1.36228125,0.02056986900126025,0.02227577319587629,True
52952,22162,0,22163,3617.0,38407.0,28053.0,0.002989,0.0073809999999999995,0.0066489999999999995,0.42000000000000004,-0.22750000000000004,-4.4625,1.10515625,0.24575,0.29,1.3955312500000001,1.0543125,-0.25390625,-0.26021875,1.36640625,0.02060106297310356,0.022679875877046656,True
52953,22163,0,22164,3617.0,38410.0,28049.0,0.0037819999999999998,0.0050019999999999995,0.002257,0.35000000000000003,-0.31500000000000006,-4.532500000000001,1.1104687500000001,0.24528125,0.28946875,1.38725,1.043,-0.25965625000000003,-0.2623125,1.3706562500000001,0.020813876948483145,0.02274231897722033,True
52954,22164,0,22165,3614.0,38407.0,28049.0,0.003477,0.002928,0.002257,0.17500000000000002,-0.08750000000000001,-4.69,1.103625,0.24528125,0.2874375,1.3951875,1.0458125,-0.24840625,-0.25171875,1.3931875,0.02035958548822152,0.022231671724297894,True
52955,22165,0,22166,3614.0,38407.0,28049.0,0.0011589999999999999,-0.001281,0.0021349999999999997,0.035,0.2625,-4.83,1.10478125,0.24853125,0.28759375,1.39271875,1.06946875,-0.249875,-0.249375,1.38059375,0.020552940994541212,0.022143611948761566,True
52956,22166,0,22167,3614.0,38407.0,28049.0,-0.0057339999999999995,-0.008418,-0.003904,-0.22750000000000004,0.9800000000000001,-5.022500000000001,1.104125,0.24778125,0.29109375,1.399,1.05875,-0.24884375,-0.2461875,1.37878125,0.020480357955211782,0.022159411660080577,True
52957,22167,0,22168,3611.0,38408.0,28049.0,-0.0042699999999999995,-0.005795,-0.00549,-0.14,1.12,-5.1625000000000005,1.111375,0.24525,0.2906875,1.39425,1.08215625,-0.2618125,-0.251,1.3642812500000001,0.020899613332680728,0.02233670776462826,True
52958,22168,0,22169,3612.0,38407.0,28048.0,-0.0053679999999999995,-0.003477,-0.0048189999999999995,-0.035,1.5050000000000001,-4.987500000000001,1.10471875,0.24478125,0.28865625,1.3949375,1.0628125,-0.25428125,-0.25290625,1.37059375,0.020576264242008823,0.022329798104093194,True
52959,22169,0,22170,3613.0,38406.0,28047.0,-0.007137,-0.000366,-0.0013419999999999999,0.14,1.7325000000000002,-4.9175,1.1041875,0.24746875000000002,0.29015625,1.39915625,1.06753125,-0.25271875,-0.251625,1.3808125,0.02062397643563157,0.02233999783519661,True
52960,22170,0,22171,3612.0,38406.0,28046.0,-0.006588,6.1e-05,-0.0013419999999999999,0.29750000000000004,1.4525000000000001,-4.987500000000001,1.109625,0.24690625,0.28990625000000003,1.39353125,1.068375,-0.25303125,-0.25184375000000003,1.37215625,0.020613402706105035,0.022338507768094956,True
52961,22171,0,22172,3612.0,38403.0,28044.0,-0.000976,0.002562,-0.002013,0.1925,0.12250000000000001,-4.812500000000001,1.1049375000000001,0.2471875,0.2870625,1.396375,1.07290625,-0.2550625,-0.253625,1.3744687500000001,0.02070701734947086,0.02229305928495225,True
52962,22172,0,22173,3613.0,38402.0,28043.0,0.000366,0.0032329999999999998,-0.0006709999999999999,0.35000000000000003,-0.5775,-4.777500000000001,1.09415625,0.24796875000000002,0.29025,1.39425,1.0674062500000001,-0.25271875,-0.25159375,1.3786875,0.0206445926809752,0.022342603772174764,True
52963,22173,0,22174,3612.0,38403.0,28045.0,0.0023179999999999997,0.005856,-0.005307,0.49000000000000005,-1.33,-4.812500000000001,1.109125,0.24521875,0.29015625,1.39434375,1.07525,-0.2568125,-0.25215625,1.37234375,0.020696505363184056,0.022361413740273093,True
52964,22174,0,22175,3614.0,38400.0,28041.0,0.000915,0.003965,-0.0025009999999999998,1.0150000000000001,-1.715,-4.515000000000001,1.10459375,0.24790625,0.28740625000000003,1.39659375,1.06746875,-0.25415625000000003,-0.25425000000000003,1.375125,0.020700060427787506,0.022332426275807338,True
52965,22175,0,22176,3615.0,38397.0,28039.0,-0.002989,0.0062829999999999995,0.005673,1.33,-2.5025000000000004,-4.445,1.104625,0.24796875000000002,0.28825,1.393375,1.06790625,-0.25484375,-0.2495625,1.3723750000000001,0.020730395346290367,0.02217823517434593,True
52966,22176,0,22177,3616.0,38396.0,28036.0,0.008967,-0.011895,0.00183,-0.43750000000000006,-5.1450000000000005,-4.2525,1.10521875,0.25278125,0.28734375,1.3934375,1.067375,-0.25153125,-0.25275000000000003,1.372125,0.0207950786612701,0.022269381822679905,True
52967,22177,0,22178,3616.0,38396.0,28035.0,0.009943,-0.013481,0.000976,-0.6300000000000001,-5.355,-3.7800000000000002,1.1045,0.24434375,0.289625,1.3941875000000001,1.0677812500000001,-0.2563125,-0.24946875000000002,1.3740937500000001,0.020640245709235484,0.022231157125864875,True
52968,22178,0,22179,3618.0,38394.0,28033.0,0.004758,-0.005063,0.002196,0.1925,-4.69,-3.7800000000000002,1.11328125,0.239125,0.28746875,1.38565625,1.0763125,-0.2546875,-0.25178125,1.37278125,0.020359466597951428,0.0222354801258155,True
52969,22179,0,22180,3619.0,38390.0,28029.0,-0.001403,0.0025009999999999998,0.005124,0.77,-3.7975000000000003,-3.5875000000000004,1.09734375,0.24478125,0.28259375000000003,1.3909375,1.07103125,-0.25503125,-0.24821875000000002,1.37203125,0.020606549414361196,0.021890783214746447,True
52970,22180,0,22181,3620.0,38391.0,28031.0,-0.003294,0.0070149999999999995,0.008357,0.8400000000000001,-3.2375000000000003,-3.3775000000000004,1.0987500000000001,0.24775,0.284625,1.4070625,1.06753125,-0.25575000000000003,-0.2548125,1.373375,0.020757964606330462,0.022240431666911465,True
52971,22181,0,22182,3617.0,38392.0,28028.0,0.0044529999999999995,0.003355,-0.006771,0.56,-2.6775,-3.3600000000000003,1.10078125,0.24953125,0.2896875,1.40821875,1.0679375,-0.252125,-0.25253125,1.3670625,0.02068504306323673,0.02235720240541902,True
52972,22182,0,22183,3620.0,38392.0,28030.0,0.0032329999999999998,0.003721,-0.00549,0.6475000000000001,-2.2925000000000004,-3.4825000000000004,1.10315625,0.24896875000000002,0.293125,1.39325,1.0680625,-0.25271875,-0.24834375,1.38040625,0.02068582517166246,0.02233013337251127,True
52973,22183,0,22184,3618.0,38393.0,28029.0,0.00183,0.000976,-0.003294,0.29750000000000004,-1.9075000000000002,-3.8325000000000005,1.1053125,0.245625,0.2861875,1.41028125,1.0746875,-0.25690625,-0.253625,1.37225,0.020717038060037024,0.0222569822036912,True
52974,22184,0,22185,3619.0,38394.0,28029.0,-0.000122,-0.003477,-0.0044529999999999995,0.17500000000000002,-1.61,-3.7100000000000004,1.1134375,0.246375,0.292375,1.3879375,1.06815625,-0.25240625,-0.25140625,1.377875,0.02056625824499373,0.02242266878853675,True
52975,22185,0,22186,3620.0,38396.0,28033.0,-0.00366,-0.003172,-0.004331,0.24500000000000002,-1.1375000000000002,-3.7450000000000006,1.09959375,0.24234375,0.28378125,1.40896875,1.0759375,-0.25528125,-0.253625,1.37221875,0.020516150477537753,0.022157770230223316,True
52976,22186,0,22187,3622.0,38395.0,28034.0,-0.0068319999999999995,0.0015249999999999999,0.0015249999999999999,0.5775,-1.3650000000000002,-3.8675,1.1209375,0.23975000000000002,0.28565625,1.40784375,1.06771875,-0.2534375,-0.251875,1.3726562500000001,0.020334746363273246,0.022164523361595755,True
52977,22187,0,22188,3619.0,38393.0,28033.0,-0.0048189999999999995,-0.0006709999999999999,0.004758,0.4025,-1.6975000000000002,-3.8150000000000004,1.103875,0.24584375,0.292625,1.3880000000000001,1.064875,-0.2525,-0.2515625,1.3644687500000001,0.020548139367075557,0.022439275819856972,True
52978,22188,0,22189,3622.0,38392.0,28032.0,-0.003721,-0.0006709999999999999,0.0037819999999999998,0.31500000000000006,-1.6975000000000002,-3.6225000000000005,1.09709375,0.2466875,0.28759375,1.39690625,1.0671875,-0.25340625,-0.25525000000000003,1.3763750000000001,0.020619526380959374,0.0223804640232527,True
52979,22189,0,22190,3622.0,38392.0,28031.0,-0.006771,-0.000183,0.005246,0.5075000000000001,-1.6450000000000002,-3.7100000000000004,1.106125,0.24871875000000002,0.29131250000000003,1.393,1.06765625,-0.25284375,-0.25146875,1.3756875,0.020680564521428545,0.022381376385708595,True
52980,22190,0,22191,3621.0,38392.0,28033.0,-0.0028669999999999998,0.003111,0.005673,0.665,-2.0300000000000002,-3.6575,1.10428125,0.24875,0.28784375,1.40021875,1.0746875,-0.2549375,-0.25459375,1.38090625,0.020766390348356905,0.02236432016100043,True
52981,22191,0,22192,3621.0,38393.0,28030.0,0.013786,-0.000915,-0.002074,0.10500000000000001,-3.3425000000000002,-3.535,1.11140625,0.2466875,0.288875,1.40134375,1.0729375,-0.2523125,-0.2535625,1.373375,0.020575357504567866,0.022365271081310218,True
52982,22192,0,22193,3623.0,38393.0,28029.0,0.014395999999999999,-0.004026,-0.0050019999999999995,-0.08750000000000001,-3.2900000000000005,-3.3775000000000004,1.10046875,0.25334375,0.29031250000000003,1.39453125,1.0674062500000001,-0.25225000000000003,-0.2516875,1.3733125,0.020847292519250795,0.022348960252765917,True
52983,22193,0,22194,3624.0,38392.0,28032.0,0.008784,-0.0028669999999999998,-0.0059169999999999995,0.035,-2.5900000000000003,-3.2725000000000004,1.104875,0.24884375,0.2880625,1.3995625,1.06834375,-0.2558125,-0.25209375,1.38109375,0.020805580105799384,0.022272561518528685,True
52984,22194,0,22195,3623.0,38393.0,28032.0,0.004209,-0.002379,-0.002074,0.28,-1.6275000000000002,-3.1850000000000005,1.1100625,0.244,0.28890625000000003,1.39434375,1.0733125000000001,-0.25346875,-0.25146875,1.37284375,0.020511241304401046,0.022282155591091778,True
52985,22195,0,22196,3625.0,38393.0,28035.0,0.0013419999999999999,0.000549,-0.00183,0.4025,-1.1025,-3.22,1.10453125,0.24784375,0.28834375,1.40128125,1.06775,-0.25421875,-0.25421875,1.37903125,0.02070000708639605,0.022369819683431366,True
52986,22196,0,22197,3625.0,38394.0,28038.0,-0.002745,0.00183,0.000915,0.385,0.0,-3.3075,1.1080625,0.24690625,0.29065625,1.39403125,1.0619375,-0.25346875,-0.251875,1.3727500000000001,0.020631069524848895,0.022370692987655597,True
52987,22197,0,22198,3626.0,38396.0,28041.0,-0.008601,0.001769,0.001464,0.43750000000000006,0.5775,-3.3425000000000002,1.10453125,0.250375,0.28803125,1.4014375000000001,1.06825,-0.25396875,-0.2528125,1.37653125,0.020794277225247935,0.022300248682498167,True
52988,22198,0,22199,3626.0,38399.0,28043.0,-0.013603,0.000122,0.000732,0.49000000000000005,0.7350000000000001,-3.4475000000000002,1.1043125,0.24734375,0.2909375,1.39784375,1.06715625,-0.25253125,-0.25165625,1.3800937500000001,0.020611250629766736,0.022373471914933645,True
52989,22199,0,22200,3627.0,38403.0,28046.0,-0.010858,0.001098,0.000732,0.47250000000000003,0.56,-3.535,1.1124375,0.244125,0.29275,1.39359375,1.0757812500000001,-0.25515625000000003,-0.252125,1.37278125,0.02058454065823633,0.022467103398155833,True
52990,22200,0,22201,3627.0,38404.0,28048.0,-0.004758,0.000488,-0.000122,0.385,0.28,-3.6225000000000005,1.106125,0.24446875,0.2905,1.39365625,1.07228125,-0.2540625,-0.2528125,1.3720937500000001,0.02055454627446433,0.022402041000399435,True
52991,22201,0,22202,3629.0,38407.0,28050.0,0.002013,-0.0025009999999999998,-0.0046359999999999995,0.3325,-0.47250000000000003,-3.7100000000000004,1.11146875,0.24328125,0.28981250000000003,1.3939062500000001,1.07478125,-0.25646875,-0.2516875,1.37234375,0.020602751585595082,0.022328343130761524,True
52992,22202,0,22203,3629.0,38407.0,28053.0,0.002928,-0.002074,-0.00183,0.385,-0.8925000000000001,-3.8150000000000004,1.1123125,0.24615625,0.29031250000000003,1.39271875,1.0743125,-0.25334375,-0.25121875,1.379125,0.020595098356283346,0.02233006330867392,True
52993,22203,0,22204,3630.0,38408.0,28050.0,0.002989,-6.1e-05,0.0011589999999999999,0.42000000000000004,-1.0675000000000001,-3.9200000000000004,1.108,0.24746875000000002,0.290875,1.4000937500000001,1.0701875,-0.2525,-0.2508125,1.3756875,0.02061514276878672,0.022336880465345234,True
52994,22204,0,22205,3632.0,38408.0,28051.0,0.002989,0.001281,0.003294,0.43750000000000006,-1.3125000000000002,-3.9725000000000006,1.09896875,0.2510625,0.29103125,1.39425,1.07346875,-0.2535,-0.25090625,1.3660625,0.020803698435277386,0.02234710300774842,True
52995,22205,0,22206,3630.0,38410.0,28048.0,0.0053679999999999995,0.00183,0.004148,0.5075000000000001,-1.12,-3.9725000000000006,1.102625,0.2474375,0.2885,1.39453125,1.0695625,-0.25709375,-0.25534375,1.3719375,0.020799328031619616,0.022421605548261912,True
52996,22206,0,22207,3631.0,38409.0,28048.0,0.001586,-0.000122,0.000305,0.525,0.035,-3.9550000000000005,1.10375,0.2474375,0.29028125,1.39578125,1.067625,-0.25296875,-0.2508125,1.373,0.020632783357707497,0.02231239674959344,True
52997,22207,0,22208,3634.0,38409.0,28050.0,-0.002013,0.000793,-0.001403,0.4025,0.5775,-4.095000000000001,1.10696875,0.24731250000000002,0.29131250000000003,1.3943125,1.07459375,-0.2565,-0.252125,1.3725,0.02077020592418527,0.022407830241679853,True
52998,22208,0,22209,3634.0,38410.0,28052.0,-0.001586,0.00042699999999999997,0.0008539999999999999,0.4025,1.2075,-4.235,1.1070625,0.247125,0.2904375,1.39415625,1.074,-0.2556875,-0.25159375,1.3739375,0.02072967422589032,0.02235033522281396,True
52999,22209,0,22210,3635.0,38413.0,28051.0,0.000366,-0.000488,-0.000244,0.43750000000000006,1.6975000000000002,-4.077500000000001,1.107625,0.24725,0.2909375,1.39775,1.07565625,-0.25365625,-0.24984375,1.38175,0.02065281394428933,0.02230040142011224,True
53000,22210,0,22211,3636.0,38411.0,28051.0,-0.0028669999999999998,-0.001403,-0.00061,0.42000000000000004,1.9425000000000001,-4.0425,1.10425,0.24809375,0.28834375,1.38871875,1.07709375,-0.252875,-0.255125,1.3814375,0.02065605624075496,0.022406347112208243,True
53001,22211,0,22212,3636.0,38412.0,28054.0,-0.0068319999999999995,0.002074,-0.000732,0.8225000000000001,1.7850000000000001,-3.8150000000000004,1.104625,0.2481875,0.28840625000000003,1.3944375,1.06490625,-0.25171875,-0.2560625,1.36996875,0.02061322973242876,0.022446707910651207,True
53002,22212,0,22213,3639.0,38413.0,28054.0,-0.0071979999999999995,0.002257,0.000183,0.8225000000000001,1.1900000000000002,-3.6400000000000006,1.10871875,0.24625,0.29040625000000003,1.39353125,1.06915625,-0.258875,-0.2505,1.37425,0.020822276383385463,0.0223049524752067,True
53003,22213,0,22214,3639.0,38414.0,28057.0,-0.004697,0.000732,0.000244,0.7000000000000001,0.42000000000000004,-3.4125000000000005,1.12146875,0.24759375,0.29175,1.41875,1.07546875,-0.2515,-0.252,1.38053125,0.02057991258272684,0.0224208312716477,True
53004,22214,0,22215,3639.0,38415.0,28056.0,-0.000488,-0.001586,0.000183,0.43750000000000006,-0.35000000000000003,-3.3425000000000002,1.085,0.250625,0.28931250000000003,1.3841875000000001,1.06425,-0.25540625,-0.2551875,1.3675,0.020862616968124373,0.022448806054374965,True
53005,22215,0,22216,3637.0,38416.0,28056.0,0.000915,-0.003965,-0.002989,0.14,-0.9275000000000001,-2.9925,1.09771875,0.23734375,0.29471875000000003,1.3996875,1.0745,-0.251375,-0.25178125,1.38271875,0.020152207864502527,0.022534427239236293,True
53006,22216,0,22217,3638.0,38416.0,28058.0,-0.0018909999999999999,0.00042699999999999997,-0.003111,0.42000000000000004,-1.4875,-3.1325000000000003,1.10990625,0.25146875,0.2865625,1.38359375,1.06625,-0.251375,-0.2546875,1.37003125,0.020734649066290058,0.022315274109386073,True
53007,22217,0,22218,3637.0,38416.0,28060.0,-0.0008539999999999999,0.0030499999999999998,-0.000183,0.6125,-2.0825,-3.1850000000000005,1.0933125000000001,0.2409375,0.29171875,1.3979375,1.07484375,-0.257,-0.25053125,1.37925,0.02052757966772478,0.022360334889570718,True
53008,22218,0,22219,3635.0,38417.0,28059.0,0.001098,0.0030499999999999998,0.002196,0.6475000000000001,-2.7475,-3.0625000000000004,1.1145,0.25003125,0.28221875,1.37640625,1.068875,-0.25221875,-0.25565625000000003,1.369625,0.020709445398681303,0.022175240053544217,True
53009,22219,0,22220,3633.0,38417.0,28058.0,0.0042699999999999995,0.001647,0.003538,0.525,-3.3950000000000005,-2.8350000000000004,1.10209375,0.2421875,0.28775,1.36971875,1.07353125,-0.25853125,-0.2508125,1.36990625,0.020640934310480977,0.0222080188034937,True
53010,22220,0,22221,3634.0,38418.0,28058.0,0.003355,-0.00183,0.001037,0.42000000000000004,-3.9725000000000006,-2.3975000000000004,1.12734375,0.24809375,0.2964375,1.413375,1.0755625,-0.25265625,-0.252125,1.3791875,0.020647222920169826,0.02261915192998552,True
53011,22221,0,22222,3630.0,38416.0,28058.0,0.001647,-0.0015249999999999999,-0.0023179999999999997,0.385,-4.025,-2.45,1.09496875,0.245125,0.2865625,1.38421875,1.06534375,-0.25553125,-0.2514375,1.37203125,0.020640910513967818,0.022184251964445408,True
53012,22222,0,22223,3630.0,38415.0,28059.0,-0.001281,0.00042699999999999997,-0.006039,0.5775,-3.99,-2.5900000000000003,1.1142812500000001,0.24128125,0.29365625,1.3941875000000001,1.0746875,-0.25390625,-0.2518125,1.379375,0.02041681430181994,0.02249187560723554,True
53013,22223,0,22224,3630.0,38417.0,28060.0,-0.000549,0.000183,-0.005063,0.7175,-3.9550000000000005,-2.6775,1.121375,0.2480625,0.29065625,1.40453125,1.06734375,-0.25365625,-0.25153125,1.3789375,0.020686314048010804,0.02235683571527056,True
53014,22224,0,22225,3629.0,38417.0,28059.0,-0.001403,0.0006709999999999999,-0.00061,0.7350000000000001,-3.8675,-2.8175000000000003,1.09778125,0.24678125,0.28931250000000003,1.3910625,1.05459375,-0.25196875,-0.254,1.3721875000000001,0.020565340700432828,0.02240094417415684,True
53015,22225,0,22226,3628.0,38414.0,28060.0,0.003172,-0.001098,0.011041,0.31500000000000006,-3.3950000000000005,-2.9225000000000003,1.11090625,0.244375,0.29053125,1.39503125,1.06553125,-0.254875,-0.25184375000000003,1.373125,0.020583490947696084,0.022364279004560225,True
53016,22226,0,22227,3628.0,38415.0,28059.0,0.004331,-0.001952,0.007259,0.3325,-2.8350000000000004,-2.9050000000000002,1.11171875,0.24756250000000002,0.28809375,1.38434375,1.07421875,-0.2533125,-0.25240625,1.379375,0.020651818179475482,0.022286448380766342,True
53017,22227,0,22228,3628.0,38413.0,28056.0,0.002989,0.0006709999999999999,0.002257,0.6475000000000001,-2.1700000000000004,-3.1325000000000003,1.1101875,0.24609375,0.29053125,1.394875,1.06703125,-0.25603125,-0.251875,1.37359375,0.02070103698435827,0.022365538747004098,True
53018,22228,0,22229,3627.0,38411.0,28055.0,0.0040869999999999995,0.004026,-0.001769,0.7875000000000001,-1.2425000000000002,-3.4650000000000003,1.1111875,0.24734375,0.29075,1.4005,1.070875,-0.25390625,-0.2521875,1.3793125,0.020666774037687227,0.022387155797801747,True
53019,22229,0,22230,3629.0,38410.0,28055.0,0.004941,0.0050019999999999995,-0.0057339999999999995,0.8400000000000001,-0.22750000000000004,-3.7100000000000004,1.10365625,0.245125,0.29009375,1.38640625,1.06696875,-0.2534375,-0.254875,1.373,0.020556364432876784,0.022468421296749624,True
53020,22230,0,22231,3629.0,38413.0,28056.0,-0.002623,-0.00244,-0.008539999999999999,0.45500000000000007,1.12,-4.0425,1.1114375,0.2479375,0.29015625,1.40071875,1.0755625,-0.253875,-0.25146875,1.374125,0.020689992836196276,0.022333698861022593,True
53021,22231,0,22232,3629.0,38411.0,28054.0,-0.006893,-0.00671,-0.007625,0.42000000000000004,1.3475000000000001,-4.112500000000001,1.104625,0.24775,0.28896875,1.39525,1.0695000000000001,-0.24984375,-0.25415625000000003,1.37728125,0.020519462109936274,0.022393069229114083,True
53022,22232,0,22233,3628.0,38411.0,28052.0,-0.008173999999999999,-0.008357,-0.0028669999999999998,0.1925,1.2075,-4.1475,1.1040625,0.2466875,0.288375,1.39340625,1.06771875,-0.2533125,-0.2526875,1.3646875,0.020615740633367092,0.02230938323845553,True
53023,22233,0,22234,3631.0,38409.0,28053.0,-0.006222,-0.007137,0.003477,0.10500000000000001,0.9800000000000001,-4.025,1.108,0.24481250000000002,0.28984375,1.3834375,1.0669375,-0.2560625,-0.25203125,1.37284375,0.02064947680605622,0.022343489269584377,True
53024,22234,0,22235,3631.0,38409.0,28052.0,-0.0051849999999999995,-0.0026839999999999998,0.005673,0.29750000000000004,0.8750000000000001,-3.9375000000000004,1.102625,0.24609375,0.28981250000000003,1.3985,1.0646875,-0.25703125,-0.2514375,1.379875,0.020741408741022257,0.022318264638951812,True
53025,22235,0,22236,3633.0,38410.0,28050.0,-0.003538,0.007259,0.005612,0.9450000000000001,0.47250000000000003,-3.6925000000000003,1.09553125,0.24825,0.28871875,1.39384375,1.072125,-0.252875,-0.24546875,1.3729375,0.02066249877591832,0.022032467406925264,True
53026,22236,0,22237,3632.0,38410.0,28050.0,-0.002806,0.008967,0.003172,0.9275000000000001,0.0175,-3.7100000000000004,1.11059375,0.24759375,0.29290625,1.3940000000000001,1.0670625,-0.2534375,-0.249875,1.370875,0.02065815412763655,0.02238284733426461,True
53027,22237,0,22238,3633.0,38410.0,28052.0,-0.001586,0.006771,0.002196,0.8575,-0.43750000000000006,-3.7100000000000004,1.1029375000000001,0.2444375,0.291125,1.4004375,1.06709375,-0.2554375,-0.25153125,1.3763125,0.0206087810207505,0.022376164391681455,True
53028,22238,0,22239,3633.0,38412.0,28051.0,0.001952,0.00366,0.00061,0.7000000000000001,-0.9450000000000001,-3.5700000000000003,1.1043125,0.24734375,0.2881875,1.3938125000000001,1.0714375,-0.252875,-0.253125,1.36578125,0.02062513207197085,0.022319288751449555,True
53029,22239,0,22240,3636.0,38411.0,28050.0,0.0030499999999999998,-0.000549,-0.002745,0.5075000000000001,-1.4525000000000001,-3.5525,1.10990625,0.25428125,0.2884375,1.38815625,1.0701875,-0.2535625,-0.25171875,1.37709375,0.02093893422873444,0.02227290591517354,True
53030,22240,0,22241,3635.0,38413.0,28049.0,0.001464,-0.004697,-0.0064659999999999995,-0.12250000000000001,-1.6450000000000002,-3.5525,1.1050312500000001,0.246375,0.290875,1.3990625,1.0673125,-0.2548125,-0.25209375,1.3724375,0.020663425041937553,0.022388530887152785,True
53031,22241,0,22242,3633.0,38413.0,28052.0,-0.0011589999999999999,-0.0026839999999999998,-0.008052,-0.385,-0.8750000000000001,-3.7450000000000006,1.1044375,0.247125,0.28809375,1.39221875,1.0728125,-0.25309375,-0.25265625,1.3730625,0.020624946044254664,0.022296526797966718,True
53032,22242,0,22243,3636.0,38417.0,28056.0,-0.001586,-0.004392,-0.0018909999999999999,-0.77,0.10500000000000001,-3.99,1.1035,0.24484375,0.29115625,1.4011875,1.06734375,-0.25578125,-0.2524375,1.3758125,0.020639409419146208,0.02241398416138584,True
53033,22243,0,22244,3636.0,38424.0,28063.0,-0.003355,-0.005429,0.0046359999999999995,-1.12,0.2625,-3.6750000000000003,1.10425,0.24765625,0.2945625,1.38571875,1.073125,-0.25246875,-0.2535625,1.3724375,0.02062161197506955,0.02259977271380235,True
53034,22244,0,22245,3636.0,38435.0,28074.0,-0.0037819999999999998,-0.0062829999999999995,0.0042699999999999995,-0.9275000000000001,-0.29750000000000004,-3.3600000000000003,1.1114375,0.2475,0.2915625,1.39615625,1.05553125,-0.2544375,-0.25159375,1.3890625,0.020694666697588838,0.02239672392664915,True
53035,22245,0,22246,3639.0,38444.0,28081.0,0.005307,0.005612,0.005124,-0.15750000000000003,-1.1725,-3.0975,1.104375,0.244625,0.29278125,1.393875,1.0628125,-0.25225000000000003,-0.25806250000000003,1.37003125,0.02048778979269965,0.02270765647503794,True
53036,22246,0,22247,3639.0,38450.0,28088.0,0.008173999999999999,0.0073809999999999995,0.00488,0.15750000000000003,-1.1725,-2.87,1.10990625,0.2474375,0.2905625,1.39715625,1.0601875,-0.26071875,-0.250625,1.3760937500000001,0.02094563871896829,0.022316435143424136,True
53037,22247,0,22248,3640.0,38455.0,28094.0,0.002257,0.008967,0.001952,0.49000000000000005,-0.9450000000000001,-2.8350000000000004,1.095625,0.24371875,0.2896875,1.39928125,1.062,-0.25075000000000003,-0.2569375,1.36340625,0.020389833304124614,0.02253479030483547,True
53038,22248,0,22249,3642.0,38462.0,28100.0,-0.0021349999999999997,0.0032329999999999998,6.1e-05,0.5950000000000001,-0.6125,-2.555,1.105375,0.24753125,0.28996875,1.3943125,1.08334375,-0.25246875,-0.251125,1.387,0.020616457860604398,0.022312109232045935,True
53039,22249,0,22250,3645.0,38466.0,28107.0,-0.012627,6.1e-05,-0.007869,0.6300000000000001,-0.5075000000000001,-2.45,1.11053125,0.24709375,0.28859375,1.3941875000000001,1.0493125,-0.26028125,-0.2483125,1.38840625,0.02091381360222277,0.02214200472713307,True
53040,22250,0,22251,3644.0,38469.0,28107.0,0.014029999999999999,-0.002379,-0.0066489999999999995,0.6300000000000001,-1.5750000000000002,-3.1675000000000004,1.10334375,0.2456875,0.290875,1.3993125,1.06071875,-0.25796875,-0.25121875,1.37425,0.020762507165815357,0.022353258019249034,True
53041,22251,0,22252,3643.0,38469.0,28106.0,0.022875,-0.0055509999999999995,-0.0066489999999999995,-0.10500000000000001,-1.8550000000000002,-3.5000000000000004,1.104625,0.24756250000000002,0.29090625000000003,1.39253125,1.0856875,-0.251875,-0.25496875,1.3651875,0.020593768523052343,0.022505697930449823,True
53042,22252,0,22253,3646.0,38467.0,28104.0,0.016226,-0.010431,-0.00488,-0.28,-0.8575,-3.4475000000000002,1.10696875,0.24328125,0.290375,1.4015312500000001,1.0606875,-0.25615625000000003,-0.254875,1.3665625000000001,0.02059013369028739,0.022480016903818307,True
53043,22253,0,22254,3646.0,38465.0,28102.0,0.003538,-0.0057339999999999995,0.000122,-0.0175,0.9100000000000001,-3.43,1.10765625,0.2465,0.2901875,1.39775,1.0825625,-0.25528125,-0.250375,1.3727500000000001,0.020687504911945726,0.02229089240888028,True
53044,22254,0,22255,3648.0,38468.0,28103.0,-0.005429,0.002013,0.005612,0.5425000000000001,2.6775,-3.6050000000000004,1.1079375,0.24684375,0.29071875,1.40115625,1.0799375,-0.25571875,-0.25021875,1.37284375,0.02071934067095002,0.022306499812501695,True
53045,22255,0,22256,3648.0,38467.0,28103.0,-0.007686,0.00976,0.0032329999999999998,1.225,4.9175,-4.340000000000001,1.109625,0.246375,0.29153125,1.38865625,1.0736875000000001,-0.2553125,-0.2498125,1.3760625,0.020683613125990444,0.022323626213604744,True
53046,22256,0,22257,3651.0,38467.0,28102.0,-0.00488,0.003294,0.002257,0.8750000000000001,5.6000000000000005,-4.48,1.1073125,0.24756250000000002,0.290625,1.3986875,1.0728125,-0.25371875,-0.25196875,1.37871875,0.020668222270038485,0.022373183620401953,True
53047,22257,0,22258,3650.0,38467.0,28100.0,-0.006405,-0.002623,-0.003904,0.45500000000000007,6.335000000000001,-4.6375,1.106125,0.24775,0.29046875,1.397875,1.0746875,-0.2535625,-0.252125,1.37159375,0.020669643892520944,0.022373039475922212,True
53048,22258,0,22259,3652.0,38468.0,28104.0,-0.011529,-0.008479,0.002562,0.10500000000000001,6.930000000000001,-4.515000000000001,1.10596875,0.247375,0.2930625,1.3861875000000001,1.07409375,-0.25334375,-0.2525625,1.3723125,0.020645349159329834,0.022497622673892707,True
53049,22259,0,22260,3653.0,38470.0,28105.0,-0.015799,-0.0066489999999999995,0.000976,0.525,7.017500000000001,-4.48,1.10528125,0.2446875,0.28981250000000003,1.39365625,1.0713125000000001,-0.25703125,-0.25346875,1.3725,0.020683435859447968,0.022400146370815516,True
53050,22260,0,22261,3654.0,38466.0,28104.0,-0.005307,0.010309,-0.0044529999999999995,1.61,5.477500000000001,-4.48,1.1040625,0.24759375,0.28981250000000003,1.399375,1.06765625,-0.249375,-0.25184375000000003,1.3803125,0.02049408489909534,0.022334642082625165,True
53051,22261,0,22262,3656.0,38467.0,28098.0,-0.0051849999999999995,0.0068319999999999995,-0.005063,1.61,5.040000000000001,-4.095000000000001,1.1045625000000001,0.24784375,0.29165625,1.398625,1.0671875,-0.25378125,-0.25128125,1.38159375,0.020682342057488458,0.022387992387000174,True
53052,22262,0,22263,3656.0,38461.0,28095.0,-0.002562,0.004575,-0.002013,1.1900000000000002,4.567500000000001,-4.025,1.10946875,0.2493125,0.2904375,1.3937187500000001,1.07571875,-0.25678125,-0.2531875,1.3721875000000001,0.020864010966005642,0.022414579526917857,True
53053,22263,0,22264,3658.0,38460.0,28089.0,-0.000793,-0.0034159999999999998,0.0046359999999999995,0.9625000000000001,4.0075,-3.8150000000000004,1.10409375,0.24781250000000002,0.2885625,1.39575,1.05590625,-0.2564375,-0.2553125,1.37584375,0.020788295890523906,0.022422922813301212,True
53054,22264,0,22265,3658.0,38456.0,28087.0,0.000244,-0.008845,0.0026839999999999998,0.6475000000000001,3.0975,-3.6225000000000005,1.103,0.24709375,0.2905,1.3957187500000001,1.06753125,-0.25290625,-0.25265625,1.3770625,0.020616085958770406,0.022395742734365436,True
53055,22265,0,22266,3660.0,38457.0,28083.0,0.003172,-0.002623,0.0023179999999999997,0.5075000000000001,2.0650000000000004,-3.4125000000000005,1.117375,0.244125,0.286125,1.38884375,1.0740625,-0.2553125,-0.25325000000000003,1.3745625000000001,0.0205908499426672,0.02223928751816767,True
53056,22266,0,22267,3660.0,38451.0,28078.0,-0.001037,-0.001281,0.002745,0.9275000000000001,2.1350000000000002,-3.22,1.10396875,0.2485625,0.29059375,1.39134375,1.06784375,-0.25234375,-0.25075000000000003,1.3756875,0.020653931643204587,0.022322763213508862,True
53057,22267,0,22268,3664.0,38450.0,28075.0,-0.0042699999999999995,0.002074,0.000793,1.1025,1.9600000000000002,-3.1325000000000003,1.10309375,0.2485625,0.2879375,1.40559375,1.07403125,-0.25590625,-0.2543125,1.3779375,0.02079776961539007,0.022356848910889557,True
53058,22268,0,22269,3664.0,38447.0,28070.0,-0.005795,0.003355,-0.000305,1.0675000000000001,1.4175000000000002,-3.1675000000000004,1.10734375,0.2420625,0.29021875,1.38503125,1.0754375,-0.25428125,-0.25275000000000003,1.37290625,0.020464170629669765,0.022387925080660957,True
53059,22269,0,22270,3665.0,38446.0,28069.0,-0.000183,0.004148,-0.0060999999999999995,0.9450000000000001,0.5425000000000001,-3.2025,1.09996875,0.24809375,0.29446875,1.40315625,1.0666875,-0.25390625,-0.25259375,1.3790625,0.020697696891608955,0.022556865696066016,True
53060,22270,0,22271,3665.0,38444.0,28067.0,0.001037,0.002806,0.001586,0.77,-0.10500000000000001,-3.1675000000000004,1.11528125,0.24134375,0.2915625,1.39146875,1.06425,-0.25528125,-0.24740625,1.3724375,0.020474922342943354,0.02222789293184709,True
53061,22271,0,22272,3665.0,38440.0,28065.0,-0.000976,0.002806,0.005307,0.7875000000000001,-0.47250000000000003,-3.0975,1.10228125,0.24381250000000002,0.2876875,1.39128125,1.07246875,-0.255375,-0.25446875,1.3723750000000001,0.02058048989141582,0.02235283961847237,True
53062,22272,0,22273,3666.0,38439.0,28062.0,-0.001586,0.0006709999999999999,0.005673,0.7875000000000001,-1.2600000000000002,-3.0625000000000004,1.10746875,0.24103125,0.290375,1.39196875,1.06715625,-0.255125,-0.2530625,1.37271875,0.02045572842852799,0.022406964068970674,True
53063,22273,0,22274,3664.0,38437.0,28058.0,-0.00042699999999999997,-0.00122,0.0018909999999999999,0.6300000000000001,-2.4325,-3.1850000000000005,1.113875,0.24556250000000002,0.2914375,1.3934375,1.07096875,-0.253125,-0.2525,1.37675,0.020561783275351114,0.022428100195856095,True
53064,22274,0,22275,3663.0,38435.0,28054.0,0.002013,-0.0017079999999999999,0.001464,0.5775,-2.9050000000000002,-3.2900000000000005,1.1163125,0.247,0.288875,1.40090625,1.07203125,-0.24971875000000002,-0.252,1.37625,0.020483484988872293,0.022302284347682666,True
53065,22275,0,22276,3661.0,38428.0,28049.0,0.0025009999999999998,-0.0070149999999999995,-0.002806,-0.035,-2.7300000000000004,-3.3075,1.10525,0.2475,0.29215625,1.40025,1.066875,-0.2535,-0.251875,1.37575,0.02065681241882615,0.022432543875473547,True
53066,22276,0,22277,3663.0,38429.0,28045.0,-0.000244,-0.008357,-0.002196,-0.2625,-2.45,-3.2725000000000004,1.102125,0.2475,0.28871875,1.39403125,1.067625,-0.253625,-0.2540625,1.37278125,0.0206618598250777,0.022378982902348833,True
53067,22277,0,22278,3659.0,38426.0,28042.0,0.0026839999999999998,-0.0064659999999999995,-0.00244,-0.0175,-2.0300000000000002,-3.1500000000000004,1.1065,0.2439375,0.29525,1.39896875,1.0668125,-0.2551875,-0.252,1.3733125,0.020578072216510385,0.022565149266039915,True
53068,22278,0,22279,3659.0,38424.0,28038.0,0.001952,-0.000122,-0.0018909999999999999,0.42000000000000004,-1.8200000000000003,-3.08,1.10921875,0.24725,0.290125,1.3940000000000001,1.07365625,-0.25240625,-0.25125000000000003,1.37259375,0.020602337139227166,0.02232359156744498,True
53069,22279,0,22280,3657.0,38422.0,28034.0,0.0025009999999999998,0.007503,-0.002257,0.805,-1.7675,-3.1500000000000004,1.109875,0.24384375,0.29653125,1.3946875,1.07278125,-0.25871875,-0.26178125,1.3845625,0.020716778374785354,0.02301201606951262,True
53070,22280,0,22281,3656.0,38417.0,28029.0,-0.0013419999999999999,0.005795,0.0008539999999999999,0.805,-1.6975000000000002,-3.2375000000000003,1.1038125,0.24825,0.2906875,1.398125,1.06878125,-0.2475,-0.24859375,1.36459375,0.020445406742963194,0.022239691734701108,True
53071,22281,0,22282,3654.0,38415.0,28026.0,0.000915,0.002562,0.0030499999999999998,0.45500000000000007,-1.6275000000000002,-3.325,1.1130625,0.2439375,0.28971875,1.39421875,1.06134375,-0.25403125,-0.26171875,1.37421875,0.020531380736965116,0.022728707132506843,True
53072,22282,0,22283,3653.0,38410.0,28021.0,0.0018909999999999999,-0.00061,0.003111,0.1925,-1.3125000000000002,-3.3950000000000005,1.104125,0.24703125,0.28965625,1.39321875,1.056375,-0.25078125,-0.24815625,1.3939375,0.020527689185271092,0.022179521381135936,True
53073,22283,0,22284,3653.0,38408.0,28018.0,-0.00122,0.00042699999999999997,0.003477,0.3325,-0.7525000000000001,-3.4125000000000005,1.1045,0.24728125,0.2874375,1.401,1.06346875,-0.25015625,-0.25540625,1.3897187500000001,0.020512754428128686,0.022380319851373343,True
53074,22284,0,22285,3650.0,38403.0,28012.0,-0.004575,0.003355,0.001281,0.7175,-0.2625,-3.535,1.1024375,0.2476875,0.2871875,1.398625,1.0774062500000001,-0.25015625,-0.2516875,1.3922812500000001,0.020529506897507106,0.022220103240238438,True
53075,22285,0,22286,3650.0,38400.0,28009.0,-0.002623,0.004209,-0.0015249999999999999,0.77,-0.5950000000000001,-3.5700000000000003,1.10396875,0.246625,0.29528125,1.4025,1.0757812500000001,-0.245,-0.24728125,1.3590312500000001,0.02027737677871726,0.02237622001435728,True
53076,22286,0,22287,3649.0,38398.0,28008.0,0.000122,0.00122,-0.0030499999999999998,0.6475000000000001,-0.9450000000000001,-3.4825000000000004,1.11159375,0.24646875000000001,0.29059375,1.39434375,1.084875,-0.26496875000000003,-0.251875,1.35384375,0.021077195906135257,0.022368115867329848,True
53077,22287,0,22288,3651.0,38394.0,27999.0,0.002074,-0.0042699999999999995,-0.003721,0.2625,-1.0325000000000002,-3.325,1.102,0.24481250000000002,0.29125,1.3940625,1.06953125,-0.2575,-0.25906250000000003,1.3628125,0.0207075131402659,0.02268482139406665,True
53078,22288,0,22289,3651.0,38391.0,27997.0,0.00061,-0.009821,-0.0023179999999999997,-0.07,-0.9450000000000001,-3.3075,1.11153125,0.24406250000000002,0.290625,1.3939375,1.05284375,-0.25834375,-0.25553125,1.36415625,0.020710657544375836,0.02251677130345269,True
53079,22289,0,22290,3648.0,38390.0,27993.0,0.000549,-0.008296,-0.002562,-0.08750000000000001,-0.6125,-3.6050000000000004,1.1061875,0.24581250000000002,0.2880625,1.39978125,1.0546875,-0.25678125,-0.25396875,1.38796875,0.0207197214181086,0.022348146630641635,True
53080,22290,0,22291,3652.0,38385.0,27990.0,-0.0008539999999999999,-0.0008539999999999999,-0.00244,0.28,-0.6300000000000001,-3.8325000000000005,1.103875,0.24725,0.28965625,1.39884375,1.06246875,-0.249625,-0.2506875,1.3731875,0.020490007577436763,0.022281584800430916,True
53081,22291,0,22292,3651.0,38381.0,27989.0,-0.001037,0.005246,-0.000122,0.7175,-0.47250000000000003,-3.9375000000000004,1.111125,0.24796875000000002,0.2900625,1.3922812500000001,1.075,-0.2525625,-0.251,1.37221875,0.02063828306802632,0.022310935631520347,True
53082,22292,0,22293,3652.0,38379.0,27983.0,-0.0013419999999999999,0.007625,0.000305,0.8925000000000001,-0.45500000000000007,-3.99,1.10453125,0.247125,0.288875,1.39871875,1.067,-0.2568125,-0.255375,1.38034375,0.02077509153356403,0.02243832552578552,True
53083,22293,0,22294,3652.0,38376.0,27981.0,0.000305,0.008539999999999999,0.001952,0.9100000000000001,-0.5950000000000001,-3.9200000000000004,1.10978125,0.24425,0.28771875,1.39865625,1.07646875,-0.25484375,-0.25296875,1.37171875,0.020577075455289216,0.022293662502657532,True
53084,22294,0,22295,3653.0,38374.0,27976.0,0.004514,0.001037,0.002074,0.5950000000000001,-1.0325000000000002,-3.8150000000000004,1.1040625,0.24731250000000002,0.2909375,1.3945625,1.067,-0.25371875,-0.25184375000000003,1.3783125,0.02065791457237872,0.022381030308262644,True
53085,22295,0,22296,3654.0,38373.0,27972.0,0.003904,-0.002745,0.004758,0.45500000000000007,-0.9275000000000001,-3.7100000000000004,1.1089375000000001,0.2445,0.2905625,1.3924375,1.073125,-0.25459375,-0.252625,1.37290625,0.020577287549910003,0.022397060112049727,True
53086,22296,0,22297,3653.0,38370.0,27968.0,0.0017079999999999999,-0.0040869999999999995,0.002806,0.28,-0.8225000000000001,-3.7450000000000006,1.103875,0.25378125,0.28896875,1.39775,1.06671875,-0.2563125,-0.255,1.3775625,0.02102931968740096,0.022427076891362606,True
53087,22297,0,22298,3655.0,38367.0,27963.0,-0.000244,-0.003355,0.000183,0.47250000000000003,-0.47250000000000003,-3.8150000000000004,1.1094375,0.2449375,0.29059375,1.39378125,1.068,-0.2540625,-0.25203125,1.373625,0.020573872933658022,0.022374414514248157,True
53088,22298,0,22299,3655.0,38365.0,27960.0,-0.001769,-0.000366,-0.002623,0.6825000000000001,-0.2625,-3.8675,1.1050625,0.24575,0.28800000000000003,1.39415625,1.0668125,-0.255375,-0.2521875,1.359625,0.02066036909344836,0.022273763964590822,True
53089,22299,0,22300,3655.0,38364.0,27956.0,-0.0032329999999999998,0.004209,0.0,0.7875000000000001,0.07,-4.0600000000000005,1.099875,0.2414375,0.28940625000000003,1.393,1.06934375,-0.255375,-0.25275000000000003,1.3723750000000001,0.020482573450214644,0.022354423725144578,True
53090,22300,0,22301,3654.0,38360.0,27955.0,-0.004392,0.001464,-0.001098,0.7175,-0.052500000000000005,-3.99,1.10921875,0.2399375,0.29028125,1.3920625,1.0734062500000001,-0.25565625000000003,-0.25259375,1.37425,0.02043208993778513,0.02238420375140288,True
53091,22301,0,22302,3655.0,38358.0,27952.0,-0.004026,-0.000244,0.0006709999999999999,0.5950000000000001,-0.1925,-3.9025000000000003,1.11890625,0.23900000000000002,0.2906875,1.3901875000000001,1.0725,-0.253125,-0.25196875,1.37165625,0.020291199587682,0.02237576073076542,True
53092,22302,0,22303,3654.0,38354.0,27949.0,-0.003965,-0.0026839999999999998,-0.001586,0.2625,-0.525,-3.9375000000000004,1.10234375,0.24796875000000002,0.29221875,1.38784375,1.06703125,-0.2533125,-0.25175000000000003,1.3786875,0.020668568468740097,0.022430082365190146,True
53093,22303,0,22304,3655.0,38356.0,27947.0,-0.00183,-0.002562,-0.00244,0.15750000000000003,-0.7875000000000001,-3.9200000000000004,1.10928125,0.2431875,0.285625,1.40909375,1.07515625,-0.2570625,-0.25303125,1.3736875,0.020622859837212362,0.022209852634400083,True
53094,22304,0,22305,3656.0,38351.0,27947.0,-0.003904,-0.00061,-0.000244,0.2625,-0.9275000000000001,-4.025,1.11959375,0.244875,0.290875,1.388125,1.06715625,-0.25346875,-0.25234375,1.37203125,0.02054731861808427,0.02239860838192185,True
53095,22305,0,22306,3655.0,38352.0,27943.0,-0.001098,-0.000488,0.003111,0.24500000000000002,-1.33,-4.112500000000001,1.09825,0.24165625000000002,0.2836875,1.3958125000000001,1.07421875,-0.25821875,-0.25328125,1.37253125,0.020606418185589163,0.022140045483536375,True
53096,22306,0,22307,3656.0,38346.0,27939.0,0.002623,-0.00042699999999999997,0.00042699999999999997,0.28,-1.6800000000000002,-4.077500000000001,1.0981875,0.24890625,0.29671875000000003,1.394875,1.06659375,-0.25403125,-0.2549375,1.37946875,0.020736243588372553,0.02274408045784492,True
53097,22307,0,22308,3657.0,38346.0,27937.0,0.0040869999999999995,-0.00183,-0.001769,0.08750000000000001,-2.1875,-4.025,1.121875,0.2424375,0.29140625000000003,1.3881875000000001,1.0748125,-0.254625,-0.2521875,1.3724375,0.020493514123594982,0.022414215212545264,True
53098,22308,0,22309,3655.0,38346.0,27933.0,0.0057339999999999995,-0.001281,-0.0035989999999999998,0.035,-2.7825,-3.9375000000000004,1.114,0.2390625,0.2904375,1.38396875,1.07253125,-0.25378125,-0.24878125,1.3725,0.020320285110182565,0.022236942320554773,True
53099,22309,0,22310,3655.0,38341.0,27931.0,0.005429,-6.1e-05,-0.0025009999999999998,0.29750000000000004,-3.4475000000000002,-3.6750000000000003,1.1174375,0.24503125,0.292375,1.3898125000000001,1.0755937500000001,-0.2538125,-0.24434375,1.3785625000000001,0.02056764271596476,0.02213789556584719,True
53100,22310,0,22311,3658.0,38339.0,27929.0,0.002562,0.0011589999999999999,0.000305,0.385,-3.4650000000000003,-3.7625,1.11496875,0.24721875000000001,0.29296875,1.393375,1.07034375,-0.2534375,-0.25209375,1.36803125,0.020642692401850255,0.022474863639350726,True
53101,22311,0,22312,3658.0,38339.0,27930.0,0.0008539999999999999,0.0026839999999999998,0.0055509999999999995,0.45500000000000007,-3.1500000000000004,-3.7275000000000005,1.10878125,0.24865625,0.29221875,1.3919375,1.07409375,-0.2538125,-0.25015625,1.37684375,0.02071710375430667,0.022365835271679953,True
53102,22312,0,22313,3657.0,38339.0,27928.0,-0.000793,0.0032329999999999998,0.008784,0.4025,-2.6775,-3.6050000000000004,1.11103125,0.24734375,0.2939375,1.39396875,1.07490625,-0.25721875,-0.2528125,1.3731875,0.020800509126793442,0.022543777139249314,True
53103,22313,0,22314,3659.0,38336.0,27926.0,-0.00183,0.003843,0.008296,0.47250000000000003,-1.9075000000000002,-3.5525,1.10934375,0.2485625,0.29025,1.3873125,1.070375,-0.25278125,-0.252375,1.3726562500000001,0.02067159823164611,0.022374097382215144,True
53104,22314,0,22315,3658.0,38334.0,27927.0,-0.004697,0.007869,0.002989,0.8400000000000001,-1.3825,-3.5525,1.1070625,0.25046875,0.29134375,1.39478125,1.0748125,-0.2554375,-0.2521875,1.3727500000000001,0.020857436605709545,0.02241163812542683,True
53105,22315,0,22316,3659.0,38337.0,27927.0,-0.003477,0.005978,-0.001098,0.6825000000000001,-1.4525000000000001,-3.5000000000000004,1.11140625,0.246875,0.29025,1.39690625,1.06646875,-0.25453125,-0.252125,1.3765,0.020672683583608735,0.02236401964776283,True
53106,22316,0,22317,3660.0,38337.0,27927.0,-0.000793,-0.001586,-0.0064659999999999995,0.28,-1.9250000000000003,-3.5875000000000004,1.1096875,0.24703125,0.290875,1.40015625,1.07375,-0.25396875,-0.25159375,1.37978125,0.02065641319010935,0.02236837527430543,True
53107,22317,0,22318,3660.0,38339.0,27928.0,0.003355,-0.009211,-0.010309,-0.07,-2.4850000000000003,-3.6050000000000004,1.103375,0.24659375,0.2884375,1.3856875,1.0613125,-0.2535625,-0.25225000000000003,1.37321875,0.0206219704837176,0.02229432320712511,True
53108,22318,0,22319,3661.0,38339.0,27926.0,0.0073809999999999995,-0.010431,-0.010492,-0.35000000000000003,-2.555,-3.7800000000000002,1.09371875,0.24359375,0.29075,1.3938125000000001,1.06765625,-0.25215625,-0.252,1.3747500000000001,0.020441481363126218,0.022379597558964213,True
53109,22319,0,22320,3661.0,38339.0,27926.0,0.0055509999999999995,-0.006161,-0.001037,0.14,-0.9450000000000001,-4.095000000000001,1.11271875,0.24525,0.2945,1.39821875,1.067125,-0.25428125,-0.25225000000000003,1.37978125,0.020595590726894868,0.022544300013400822,True
53110,22320,0,22321,3660.0,38336.0,27922.0,-0.002074,-0.003111,0.001281,0.2625,0.052500000000000005,-4.41,1.10765625,0.24725,0.29009375,1.3923125,1.07175,-0.25375000000000003,-0.2481875,1.37771875,0.020656599494923465,0.022198824138917602,True
53111,22321,0,22322,3662.0,38332.0,27920.0,-0.004758,-0.002013,0.0013419999999999999,0.29750000000000004,0.7350000000000001,-4.6725,1.1029375000000001,0.24675,0.290375,1.38978125,1.06753125,-0.2540625,-0.25121875,1.37815625,0.020648602682540297,0.02233264049873782,True
53112,22322,0,22323,3661.0,38331.0,27921.0,-0.0059169999999999995,-0.000793,6.1e-05,0.36750000000000005,1.12,-4.8825,1.11096875,0.24606250000000002,0.2901875,1.39296875,1.07453125,-0.255125,-0.2504375,1.37278125,0.020663158816951056,0.022293412232253538,True
53113,22323,0,22324,3662.0,38331.0,27917.0,-0.007137,0.003111,0.00183,0.5775,1.12,-5.215000000000001,1.11159375,0.24634375,0.29040625000000003,1.3983125,1.07325,-0.25459375,-0.2524375,1.377375,0.02065330407770693,0.02238305943474754,True
53114,22324,0,22325,3663.0,38329.0,27916.0,-0.003172,0.002196,0.002013,0.525,0.1925,-4.970000000000001,1.10796875,0.24675,0.291,1.39746875,1.0755000000000001,-0.2540625,-0.25175000000000003,1.3723125,0.020648602682540297,0.022379828259816305,True
53115,22325,0,22326,3664.0,38330.0,27917.0,-0.0026839999999999998,0.001098,0.005673,0.385,-0.1925,-4.567500000000001,1.11059375,0.24625,0.2911875,1.39821875,1.0754375,-0.2543125,-0.25225000000000003,1.376625,0.020638082402871655,0.022407714748116155,True
53116,22326,0,22327,3666.0,38328.0,27916.0,-0.003843,0.004331,0.0,0.385,-1.0325000000000002,-4.532500000000001,1.11015625,0.24696875000000001,0.2909375,1.39746875,1.0744375,-0.2541875,-0.2479375,1.377125,0.02066266907518547,0.022223539630947992,True
53117,22327,0,22328,3666.0,38328.0,27913.0,-0.0008539999999999999,0.003965,0.000793,0.5425000000000001,-2.1525000000000003,-4.340000000000001,1.10915625,0.246,0.29,1.3935625,1.07453125,-0.254125,-0.25171875,1.3735,0.02062020377976942,0.02233733433841674,True
53118,22328,0,22329,3667.0,38329.0,27918.0,0.002257,0.004575,-0.0025009999999999998,0.6475000000000001,-3.3075,-4.0600000000000005,1.09825,0.24521875,0.29075,1.3942812500000001,1.07403125,-0.25071875,-0.25215625,1.372875,0.020450424794110484,0.022385896099444767,True
53119,22329,0,22330,3666.0,38329.0,27916.0,0.0034159999999999998,0.0006709999999999999,0.002196,0.3325,-5.040000000000001,-3.5525,1.1039375,0.24509375,0.29084375,1.39640625,1.06871875,-0.25628125,-0.2516875,1.3726562500000001,0.020669903800690802,0.02237086594489559,True
53120,22330,0,22331,3668.0,38328.0,27915.0,0.003904,-0.002928,0.00366,0.052500000000000005,-5.53,-3.3775000000000004,1.10521875,0.24675,0.28903125,1.39025,1.0739375,-0.25409375,-0.24978125,1.373375,0.02064986452029361,0.022219272596531153,True
53121,22331,0,22332,3667.0,38328.0,27917.0,0.003294,-0.005124,0.00366,0.0,-5.6000000000000005,-3.3075,1.10425,0.24584375,0.29071875,1.39359375,1.06725,-0.25559375,-0.251875,1.372,0.02067306639319023,0.022373270107981343,True
53122,22332,0,22333,3666.0,38330.0,27916.0,0.002257,-0.0042699999999999995,0.003477,0.08750000000000001,-5.390000000000001,-3.3425000000000002,1.10853125,0.249375,0.2910625,1.3995312500000001,1.0765625,-0.25384375,-0.2521875,1.38340625,0.020747999994846177,0.022400041233393893,True
53123,22333,0,22334,3665.0,38329.0,27919.0,0.000915,-0.002074,-0.000549,0.1925,-5.197500000000001,-3.4125000000000005,1.104125,0.24871875000000002,0.29081250000000003,1.3814375,1.06646875,-0.2525625,-0.24756250000000002,1.3706875,0.020669207635275653,0.022203262699085735,True
53124,22334,0,22335,3665.0,38330.0,27920.0,0.007869,0.005612,-0.002562,0.665,-4.357500000000001,-3.6575,1.1047500000000001,0.24209375,0.28978125,1.3931875,1.0638125,-0.2569375,-0.255375,1.3665625000000001,0.020572722751996207,0.022475688378349127,True
53125,22335,0,22336,3663.0,38332.0,27917.0,0.010309,0.005856,-0.003172,0.5775,-3.7975000000000003,-3.6050000000000004,1.09734375,0.24865625,0.28209375000000003,1.39578125,1.05690625,-0.2551875,-0.2540625,1.37034375,0.020772618228574815,0.022105832785744663,True
53126,22336,0,22337,3663.0,38328.0,27916.0,0.009089,0.001281,-0.001037,0.43750000000000006,-2.9925,-3.7275000000000005,1.0989375000000001,0.25075000000000003,0.28184375,1.3976250000000001,1.05634375,-0.2564375,-0.25396875,1.362,0.020909397762964986,0.02209174529426241,True
53127,22337,0,22338,3662.0,38327.0,27913.0,0.006161,-0.0028669999999999998,-0.000183,0.15750000000000003,-1.8200000000000003,-3.9550000000000005,1.0910312500000001,0.24953125,0.28240625,1.40196875,1.06003125,-0.255375,-0.2563125,1.3706562500000001,0.020816262374834443,0.02220942486620751,True
53128,22338,0,22339,3659.0,38323.0,27912.0,0.004514,-0.0062829999999999995,0.000732,-0.07,-0.31500000000000006,-4.1475,1.093875,0.25184375000000003,0.29534375,1.40675,1.06428125,-0.2550625,-0.25678125,1.38328125,0.020898987582489228,0.02276167618075873,True
53129,22339,0,22340,3659.0,38324.0,27913.0,-0.009637999999999999,-0.004575,-0.00488,-0.035,1.5575,-4.987500000000001,1.1250625,0.23853125,0.28865625,1.373625,1.077375,-0.2544375,-0.251125,1.37096875,0.0203248890022702,0.022257988031483076,True
53130,22340,0,22341,3657.0,38321.0,27909.0,-0.008723,-0.0011589999999999999,-0.007137,0.1925,2.1175,-5.425000000000001,1.09128125,0.2556875,0.2874375,1.4165,1.06384375,-0.2560625,-0.2555,1.3770625,0.021097818328922928,0.02238409845189751,True
53131,22341,0,22342,3657.0,38317.0,27907.0,-0.007991,0.002989,-0.0048189999999999995,0.6825000000000001,2.7825,-5.232500000000001,1.1076875,0.250125,0.296875,1.40778125,1.064,-0.25303125,-0.25475000000000003,1.378875,0.020746118075446754,0.02274296787227244,True
53132,22342,0,22343,3656.0,38314.0,27906.0,-0.009211,0.005978,0.002989,0.8400000000000001,2.8000000000000003,-5.390000000000001,1.124625,0.2425,0.2856875,1.3971875,1.0768125,-0.25665625000000003,-0.2525,1.37134375,0.020578114512382558,0.022191011235955058,True
53133,22343,0,22344,3653.0,38311.0,27908.0,-0.00244,0.000488,0.0008539999999999999,0.6300000000000001,1.61,-5.1625000000000005,1.1034375,0.2485625,0.29553125,1.40028125,1.06509375,-0.25321875,-0.25140625,1.3769375,0.020689264182718017,0.0225528158805224,True
53134,22344,0,22345,3655.0,38307.0,27905.0,0.002074,-0.000793,0.001098,0.47250000000000003,-0.5075000000000001,-4.83,1.12459375,0.24059375,0.29171875,1.3815625,1.07475,-0.25440625,-0.252375,1.37196875,0.020408662858939292,0.022434658461284722,True
53135,22345,0,22346,3654.0,38303.0,27901.0,-0.001952,0.00183,0.008173999999999999,0.45500000000000007,-0.8400000000000001,-4.777500000000001,1.10959375,0.23884375,0.28840625000000003,1.38528125,1.073,-0.255125,-0.25225000000000003,1.3721875000000001,0.020365541303126657,0.02229303466688658,True
53136,22346,0,22347,3653.0,38302.0,27901.0,-0.006954,0.001281,0.013847,0.5075000000000001,-1.4175000000000002,-4.7250000000000005,1.0978125,0.24606250000000002,0.2899375,1.3799375,1.0675000000000001,-0.25703125,-0.25515625000000003,1.37196875,0.02074012045476505,0.022473314308169012,True
53137,22347,0,22348,3653.0,38300.0,27899.0,-0.0070149999999999995,-0.0011589999999999999,0.009577,0.45500000000000007,-2.5025000000000004,-4.532500000000001,1.1001875,0.24634375,0.28725,1.3935,1.067,-0.25271875,-0.253875,1.36371875,0.02057758988360841,0.0223108678510135,True
53138,22348,0,22349,3654.0,38302.0,27902.0,0.000793,-0.003111,-0.004575,0.12250000000000001,-5.250000000000001,-3.8500000000000005,1.10384375,0.24396875,0.29131250000000003,1.3935,1.0646875,-0.2553125,-0.25546875,1.37278125,0.02058440805493642,0.022542596708216577,True
53139,22349,0,22350,3654.0,38306.0,27903.0,0.0053679999999999995,-0.0046359999999999995,-0.009271999999999999,-0.0175,-6.405,-3.2375000000000003,1.10984375,0.2459375,0.2916875,1.3991875,1.06771875,-0.25153125,-0.252625,1.3726562500000001,0.020512879985671008,0.022443446843382932,True
53140,22350,0,22351,3655.0,38305.0,27909.0,0.011467999999999999,-0.0040869999999999995,-0.008845,-0.07,-7.157500000000001,-2.7125000000000004,1.109375,0.24584375,0.290625,1.3977187500000001,1.0743125,-0.2535625,-0.25165625,1.37925,0.020591047191520835,0.02236058619707675,True
53141,22351,0,22352,3655.0,38308.0,27909.0,0.013297999999999999,-0.002928,-0.005429,-0.0175,-7.647500000000001,-2.2925000000000004,1.104625,0.2500625,0.288625,1.395875,1.0673125,-0.2531875,-0.2511875,1.37859375,0.020749849890864862,0.02225921926503599,True
53142,22352,0,22353,3655.0,38310.0,27916.0,0.009882,0.001647,-0.000793,0.14,-7.665000000000001,-2.1,1.10403125,0.24696875000000001,0.29153125,1.40025,1.06721875,-0.2535625,-0.2518125,1.3763750000000001,0.020637432129815985,0.022404253290346857,True
53143,22353,0,22354,3654.0,38313.0,27918.0,0.009089,0.0030499999999999998,0.0044529999999999995,0.14,-5.775,-2.31,1.1110625,0.246375,0.2909375,1.39346875,1.07290625,-0.25396875,-0.2530625,1.3723750000000001,0.020629355762652252,0.022430157016253106,True
53144,22354,0,22355,3656.0,38318.0,27922.0,0.005856,-0.002928,0.000793,-0.035,-4.322500000000001,-2.555,1.1128125,0.24640625,0.29109375,1.3988125,1.07175,-0.25771875,-0.252125,1.37709375,0.020782044890350623,0.022398810413520463,True
53145,22355,0,22356,3657.0,38322.0,27929.0,-0.00042699999999999997,-0.001952,-0.005612,0.12250000000000001,-3.1675000000000004,-3.2725000000000004,1.1105,0.251375,0.29078125,1.39803125,1.0755937500000001,-0.25021875,-0.25234375,1.3720937500000001,0.020684091767213444,0.02239474277614921,True
53146,22356,0,22357,3656.0,38329.0,27935.0,-0.00122,0.001403,-0.005856,0.31500000000000006,-1.5575,-4.077500000000001,1.1113125,0.25090625,0.29203125,1.3998125000000001,1.075125,-0.25446875,-0.2520625,1.37759375,0.020836366494318703,0.022434947543121333,True
53147,22357,0,22358,3658.0,38333.0,27943.0,-0.002257,0.0035989999999999998,-0.007503,0.4025,-0.07,-4.865,1.10190625,0.2469375,0.28934375,1.39378125,1.0749375,-0.24603125,-0.25203125,1.37878125,0.020331935767838292,0.022322872439808517,True
53148,22358,0,22359,3659.0,38338.0,27945.0,-0.008905999999999999,-0.001037,-0.00122,0.22750000000000004,2.3625000000000003,-5.7575,1.104375,0.24481250000000002,0.2896875,1.38825,1.0578750000000001,-0.25334375,-0.255,1.373,0.02053969362471927,0.022456709956709956,True
53149,22359,0,22360,3659.0,38339.0,27947.0,-0.011346,-0.0034159999999999998,0.0028669999999999998,-0.035,2.8175000000000003,-5.9675,1.1101875,0.245125,0.29121875,1.3930625,1.06728125,-0.25546875,-0.2524375,1.37234375,0.02063838696170323,0.02241656122193903,True
53150,22360,0,22361,3659.0,38342.0,27947.0,-0.010492,-0.002257,0.0060999999999999995,-0.15750000000000003,2.7825,-6.1775,1.1107500000000001,0.24584375,0.29053125,1.39378125,1.07290625,-0.2561875,-0.25221875,1.37296875,0.020697038642202122,0.022379395699620268,True
53151,22361,0,22362,3661.0,38343.0,27949.0,-0.008601,0.0018909999999999999,0.006588,0.12250000000000001,2.0825,-6.352500000000001,1.1095,0.24659375,0.29084375,1.39746875,1.07096875,-0.25725,-0.25265625,1.37290625,0.020770852013315605,0.022409916439565258,True
53152,22362,0,22363,3662.0,38339.0,27950.0,-0.005307,0.004026,0.004758,0.21000000000000002,0.9800000000000001,-6.300000000000001,1.11125,0.24706250000000002,0.29121875,1.40059375,1.0729375,-0.25409375,-0.25265625,1.37684375,0.020662748943155215,0.022425378663419603,True
53153,22363,0,22364,3661.0,38336.0,27947.0,0.004697,0.0030499999999999998,0.003538,0.21000000000000002,-1.6975000000000002,-5.897500000000001,1.104,0.2465,0.288875,1.3880937500000001,1.07003125,-0.2544375,-0.2529375,1.37296875,0.02065343712877283,0.02234007736176288,True
53154,22364,0,22365,3661.0,38337.0,27947.0,0.008296,0.00042699999999999997,0.001403,0.08750000000000001,-2.9050000000000002,-5.5475,1.10353125,0.245125,0.2904375,1.393,1.06746875,-0.25615625000000003,-0.25240625,1.37175,0.020666145321355276,0.02238308827603447,True
53155,22365,0,22366,3662.0,38337.0,27946.0,0.008967,0.0008539999999999999,0.0017079999999999999,0.0,-3.7450000000000006,-5.11,1.11109375,0.246375,0.291375,1.3996250000000001,1.07503125,-0.25428125,-0.25178125,1.37878125,0.020641974290621375,0.022396550768822392,True
53156,22366,0,22367,3662.0,38337.0,27945.0,0.0075639999999999995,0.00061,0.0013419999999999999,0.10500000000000001,-4.3925,-4.655,1.0955,0.2474375,0.288625,1.39196875,1.07590625,-0.2534375,-0.25034375000000003,1.3741875000000001,0.020651711741892256,0.022225200415973485,True
53157,22367,0,22368,3663.0,38339.0,27945.0,0.005063,0.00061,0.000549,0.29750000000000004,-4.9,-4.2525,1.10478125,0.24440625,0.2910625,1.39434375,1.06609375,-0.25025000000000003,-0.2599375,1.361,0.020397985587777445,0.022712342107229253,True
53158,22368,0,22369,3663.0,38342.0,27949.0,-0.00061,0.0015249999999999999,-0.004697,0.4025,-5.862500000000001,-3.4125000000000005,1.11159375,0.246625,0.290875,1.3936875,1.08115625,-0.26240625,-0.25015625,1.3665,0.0209802459308833,0.022310423257582108,True
53159,22369,0,22370,3664.0,38343.0,27953.0,-0.0051849999999999995,-0.00122,-0.006893,0.3325,-6.300000000000001,-3.0100000000000002,1.1123125,0.246375,0.29115625,1.39334375,1.07284375,-0.25884375,-0.25246875,1.36459375,0.020826167776442354,0.022415243808942133,True
53160,22370,0,22371,3665.0,38346.0,27957.0,-0.008845,-0.004941,-0.009699,0.21000000000000002,-7.140000000000001,-2.5200000000000005,1.111375,0.2444375,0.29059375,1.3924375,1.06140625,-0.26028125,-0.25859375,1.3739375,0.020804323939979056,0.022638884415960837,True
53161,22371,0,22372,3665.0,38353.0,27963.0,-0.011285,-0.00793,-0.010369999999999999,-0.10500000000000001,-8.277500000000002,-2.0475000000000003,1.10415625,0.24709375,0.290375,1.39728125,1.05621875,-0.2535,-0.2500625,1.36721875,0.020640062259055392,0.02228602503601795,True
53162,22372,0,22373,3666.0,38353.0,27969.0,-0.009089,-0.005124,-0.006405,-0.24500000000000002,-9.870000000000001,-1.8375000000000001,1.1094375,0.245,0.29146875,1.39365625,1.07509375,-0.26025,-0.25571875,1.36790625,0.020826248699003513,0.022559112992683424,True
53163,22373,0,22374,3666.0,38357.0,27974.0,0.001037,0.000732,0.00793,-0.035,-13.002500000000001,-1.54,1.10390625,0.24453125,0.2884375,1.393375,1.0599687500000001,-0.25096875,-0.25853125,1.37175,0.02043217345698819,0.022547480074664453,True
53164,22374,0,22375,3667.0,38360.0,27979.0,0.0068319999999999995,0.003477,0.009882,0.07,-14.402500000000002,-1.61,1.10378125,0.2475,0.28928125,1.3990625,1.06215625,-0.25240625,-0.24878125,1.384875,0.02061264539472243,0.022189259511753812,True
53165,22375,0,22376,3666.0,38362.0,27979.0,0.015127999999999999,0.0051849999999999995,0.014395999999999999,-0.17500000000000002,-14.875000000000002,-1.8025000000000002,1.10409375,0.247875,0.2895,1.3983125,1.07575,-0.252625,-0.24934375,1.38203125,0.020636941362017512,0.022220962165213232,True
53166,22376,0,22377,3668.0,38364.0,27980.0,0.021655,0.0034159999999999998,0.016774999999999998,-0.43750000000000006,-14.035000000000002,-1.9600000000000002,1.1045,0.246625,0.2920625,1.40175,1.0818125,-0.25525000000000003,-0.25,1.3721875000000001,0.020691396707929213,0.022353092783505155,True
53167,22377,0,22378,3669.0,38367.0,27982.0,0.019825,0.001098,0.010735999999999999,-0.45500000000000007,-12.582500000000001,-2.2750000000000004,1.10890625,0.24715625,0.2891875,1.3960000000000001,1.07309375,-0.25340625,-0.2505625,1.37303125,0.020638853563094875,0.022257215683141367,True
53168,22378,0,22379,3671.0,38371.0,27988.0,0.013725,-0.0050019999999999995,-0.002562,-0.22750000000000004,-9.275,-3.1850000000000005,1.104625,0.24425,0.28978125,1.3913125,1.0640625,-0.25284375,-0.254875,1.37259375,0.020496307778340425,0.022455537288895537,True
53169,22379,0,22380,3670.0,38379.0,27993.0,0.010797,-0.006039,-0.012261,-0.36750000000000005,-7.437500000000001,-3.4125000000000005,1.1091875,0.24853125,0.29484375,1.3935625,1.06709375,-0.2573125,-0.25278125,1.3726875,0.020853247860825472,0.022579884523553355,True
53170,22380,0,22381,3671.0,38386.0,27999.0,0.011285,-0.00488,-0.016774999999999998,-0.47250000000000003,-5.1275,-3.7975000000000003,1.108125,0.24581250000000002,0.29031250000000003,1.394375,1.06634375,-0.256125,-0.25259375,1.37240625,0.020693226968446114,0.02238549227337798,True
53171,22381,0,22382,3672.0,38388.0,28003.0,0.006588,-0.003904,-0.016592,-0.29750000000000004,-2.5900000000000003,-4.077500000000001,1.1105,0.24631250000000002,0.2929375,1.3976875,1.07475,-0.256375,-0.25228125,1.371875,0.020723933398951826,0.0224811325738687,True
53172,22382,0,22383,3674.0,38393.0,28012.0,-0.0025009999999999998,-0.0023179999999999997,-0.008235,0.17500000000000002,-0.385,-4.4625,1.11071875,0.246625,0.28921875,1.4000000000000001,1.0724375,-0.25459375,-0.2515625,1.3795625,0.020664899819235274,0.02229882095225823,True
53173,22383,0,22384,3674.0,38396.0,28015.0,-0.0066489999999999995,0.005063,-0.0032329999999999998,0.43750000000000006,1.1900000000000002,-5.565,1.1035625,0.24459375,0.288125,1.3936875,1.066875,-0.25403125,-0.253,1.3668437500000001,0.020558438094698175,0.02231167278274853,True
53174,22384,0,22385,3675.0,38396.0,28018.0,-0.005246,0.005307,0.0048189999999999995,0.42000000000000004,1.9250000000000003,-5.652500000000001,1.10925,0.24381250000000002,0.29190625000000003,1.39496875,1.068,-0.2566875,-0.25184375000000003,1.3720625,0.02063348509560508,0.022420975724783816,True
53175,22385,0,22386,3678.0,38401.0,28023.0,-0.010735999999999999,0.0062829999999999995,0.011285,0.5075000000000001,2.975,-5.95,1.11003125,0.24671875000000001,0.2916875,1.39928125,1.06734375,-0.25503125,-0.2523125,1.37825,0.020686429748467138,0.022430850666302442,True
53176,22386,0,22387,3678.0,38400.0,28027.0,-0.018239,0.005063,0.011407,0.56,3.5525,-5.7225,1.1028437500000001,0.25434375,0.2896875,1.4045625,1.0669375,-0.25396875,-0.2490625,1.3794375,0.020957910238917084,0.022217353763676426,True
53177,22387,0,22388,3680.0,38402.0,28028.0,-0.01769,0.000488,0.009455,0.49000000000000005,3.5875000000000004,-5.495,1.0913125000000001,0.24703125,0.28765625,1.3924375,1.066625,-0.25465625000000003,-0.2550625,1.37575,0.02068417275548896,0.022375483468657316,True
53178,22388,0,22389,3682.0,38403.0,28030.0,-0.003477,-0.002745,0.003538,-0.28,1.2775,-5.495,1.0991250000000001,0.24278125,0.29059375,1.39184375,1.06771875,-0.255625,-0.25296875,1.37240625,0.020548068746940144,0.02241220469143597,True
53179,22389,0,22390,3683.0,38403.0,28027.0,0.0042699999999999995,-0.006588,-0.001464,-0.36750000000000005,0.29750000000000004,-5.040000000000001,1.1168125,0.24784375,0.29246875,1.4019062500000001,1.07053125,-0.2495625,-0.2524375,1.37803125,0.02051196799942267,0.022468102433002866,True
53180,22390,0,22391,3684.0,38404.0,28029.0,0.005063,-0.0037819999999999998,-0.005795,-0.0175,-0.7350000000000001,-4.812500000000001,1.115625,0.24765625,0.289125,1.4005625,1.07509375,-0.25446875,-0.2506875,1.37965625,0.020702370568310223,0.022259678204999342,True
53181,22391,0,22392,3683.0,38404.0,28030.0,0.0048189999999999995,0.00244,-0.010126,0.43750000000000006,-1.8550000000000002,-4.9,1.1006562500000001,0.24690625,0.2861875,1.39075,1.06675,-0.251125,-0.252875,1.37190625,0.020536418413578752,0.02222674631358138,True
53182,22392,0,22393,3683.0,38402.0,28026.0,0.0077469999999999995,0.00366,-0.009943,0.7175,-2.87,-4.952500000000001,1.10125,0.24409375,0.28965625,1.39084375,1.05365625,-0.25484375,-0.25221875,1.3724687500000001,0.020570633443062276,0.022343316526451832,True
53183,22393,0,22394,3682.0,38403.0,28022.0,0.010431,0.0006709999999999999,-0.002989,0.24500000000000002,-3.6050000000000004,-5.1450000000000005,1.1115,0.24456250000000002,0.29134375,1.3941875000000001,1.07440625,-0.25471875,-0.251625,1.368,0.020584911956565154,0.022388963626148763,True
53184,22394,0,22395,3682.0,38399.0,28021.0,0.003111,-0.003904,-0.002013,0.07,-3.1850000000000005,-5.040000000000001,1.11378125,0.247,0.2878125,1.40475,1.06984375,-0.2545625,-0.2534375,1.3696875,0.02067909903549075,0.02231642421821649,True
53185,22395,0,22396,3681.0,38395.0,28016.0,-0.003355,-0.0057339999999999995,0.0006709999999999999,0.10500000000000001,-3.0275000000000003,-4.865,1.09853125,0.24734375,0.28765625,1.3928125,1.06690625,-0.25453125,-0.25390625,1.371875,0.020692009869289887,0.022328877435980027,True
53186,22396,0,22397,3682.0,38391.0,28011.0,-0.0066489999999999995,-0.00061,0.005429,0.28,-2.975,-5.005000000000001,1.10125,0.2439375,0.287125,1.392375,1.0618750000000001,-0.249,-0.25240625,1.36803125,0.020328157862179886,0.022246503890722184,True
53187,22397,0,22398,3678.0,38389.0,28008.0,-0.004514,0.002989,0.009577,0.42000000000000004,-2.7475,-5.1275,1.10059375,0.247625,0.289375,1.39928125,1.06690625,-0.25421875,-0.2540625,1.37725,0.02069098803687503,0.02240604022522,True
53188,22398,0,22399,3678.0,38385.0,28003.0,-0.009637999999999999,0.00061,0.005246,0.22750000000000004,-2.765,-4.8475,1.1084375,0.252625,0.29131250000000003,1.39003125,1.07075,-0.25478125,-0.2518125,1.3731875,0.020919844412119776,0.02239523334596126,True
53189,22399,0,22400,3677.0,38382.0,27999.0,-0.008905999999999999,0.0013419999999999999,0.004758,0.14,-3.2025,-4.83,1.104,0.24409375,0.28796875,1.39353125,1.07146875,-0.255875,-0.2534375,1.37271875,0.02061227434590589,0.022322866603960777,True
53190,22400,0,22401,3676.0,38379.0,27993.0,-0.002928,0.00122,0.0060999999999999995,0.10500000000000001,-3.6925000000000003,-4.6025,1.10353125,0.247125,0.29534375,1.39340625,1.0677812500000001,-0.25015625,-0.25165625,1.37334375,0.02050631117067545,0.022555160536715923,True
53191,22401,0,22402,3674.0,38375.0,27989.0,0.004697,0.0018909999999999999,0.005673,0.035,-3.9200000000000004,-4.48,1.1064687500000001,0.2441875,0.292,1.39328125,1.0679687500000001,-0.24765625,-0.254375,1.38253125,0.02028417695009183,0.022526863710155387,True
53192,22402,0,22403,3674.0,38368.0,27983.0,0.00549,0.0,0.005856,0.0175,-3.99,-4.357500000000001,1.1045,0.2445,0.2886875,1.3938125000000001,1.0625625,-0.25178125,-0.25640625,1.396125,0.020463703052739684,0.02247215619585032,True
53193,22403,0,22404,3673.0,38370.0,27985.0,0.005063,-0.0023179999999999997,-0.008113,-0.0175,-4.340000000000001,-4.48,1.10396875,0.249125,0.29125,1.39096875,1.0698750000000001,-0.252375,-0.2471875,1.36940625,0.020678387168267028,0.02220618370687322,True
53194,22404,0,22405,3673.0,38366.0,27979.0,0.008235,-0.001281,-0.012139,0.0,-4.375,-4.6025,1.10671875,0.25096875,0.29159375,1.39321875,1.07990625,-0.2639375,-0.25384375,1.36034375,0.0212210507878204,0.02248870346581663,True
53195,22405,0,22406,3674.0,38364.0,27979.0,0.009699,-0.004575,-0.009089,-0.035,-3.7975000000000003,-4.445,1.10965625,0.244125,0.290875,1.3936250000000001,1.05453125,-0.264375,-0.2583125,1.3705,0.020956649408855575,0.02263914689037005,True
53196,22406,0,22407,3671.0,38365.0,27979.0,0.005612,-0.0048189999999999995,-0.006344,-0.15750000000000003,-3.1325000000000003,-4.2525,1.0993125,0.24690625,0.28915625,1.39909375,1.05521875,-0.25009375,-0.247125,1.37221875,0.02049476612848146,0.02211731287729989,True
53197,22407,0,22408,3672.0,38363.0,27978.0,0.0071979999999999995,-0.002928,0.0011589999999999999,-0.24500000000000002,-2.6075000000000004,-4.2,1.1019375,0.24528125,0.29075,1.39259375,1.0755000000000001,-0.26153125,-0.25996875,1.3663125,0.02088955123143763,0.02270071967837964,True
53198,22408,0,22409,3672.0,38361.0,27975.0,0.006039,0.00061,0.002989,0.1925,-1.4525000000000001,-4.322500000000001,1.10490625,0.2434375,0.28853125,1.39396875,1.0540625000000001,-0.2584375,-0.260375,1.3895625,0.020688677908459685,0.022625629241097883,True
53199,22409,0,22410,3674.0,38360.0,27974.0,-0.000366,0.005063,0.0018909999999999999,0.49000000000000005,-0.6300000000000001,-4.340000000000001,1.093,0.2446875,0.28759375,1.3938125000000001,1.0546875,-0.258875,-0.25596875,1.387125,0.020757866966213397,0.02240943272983067,True
53200,22410,0,22411,3674.0,38358.0,27977.0,-0.006222,0.006954,0.000915,0.7525000000000001,-0.10500000000000001,-4.375,1.1035,0.244375,0.288625,1.3937187500000001,1.05934375,-0.25071875,-0.259625,1.387625,0.020415632010906893,0.0225992776063109,True
53201,22411,0,22412,3675.0,38362.0,27978.0,-0.012383,0.005124,0.001403,0.7875000000000001,0.10500000000000001,-4.322500000000001,1.10403125,0.24771875000000002,0.287875,1.39909375,1.05553125,-0.250625,-0.25140625,1.388625,0.02054972809979124,0.022237112538577013,True
53202,22412,0,22413,3676.0,38361.0,27980.0,-0.00732,6.1e-05,0.001098,0.35000000000000003,-0.7350000000000001,-4.550000000000001,1.10375,0.24759375,0.29009375,1.40096875,1.061,-0.2511875,-0.24965625,1.372625,0.020567291807875386,0.022258047472322413,True
53203,22413,0,22414,3677.0,38361.0,27981.0,-0.002379,-0.002379,0.00061,0.0,-1.155,-4.2700000000000005,1.10478125,0.2511875,0.29134375,1.3980000000000001,1.0694375,-0.253125,-0.25221875,1.3780000000000001,0.020793712150496066,0.022412897788990954,True
53204,22414,0,22415,3678.0,38363.0,27982.0,-0.00122,-0.004697,0.001586,-0.17500000000000002,-1.5050000000000001,-3.9200000000000004,1.1025,0.24625,0.291125,1.3942812500000001,1.07440625,-0.25453125,-0.25321875,1.37325,0.020646915202700525,0.022444185887697896,True
53205,22415,0,22416,3677.0,38365.0,27983.0,-0.001281,-0.003721,0.0013419999999999999,-0.12250000000000001,-1.6275000000000002,-3.7450000000000006,1.108,0.24428125,0.28975,1.3939375,1.0725,-0.25509375,-0.2504375,1.3730625,0.020588458867531693,0.022275371320620505,True
53206,22416,0,22417,3676.0,38366.0,27984.0,0.0013419999999999999,-6.1e-05,0.000305,0.15750000000000003,-1.9775000000000003,-3.5525,1.0995,0.2475,0.28996875,1.3993125,1.06621875,-0.25678125,-0.25628125,1.377,0.02078928959298753,0.022519940067070258,True
53207,22417,0,22418,3678.0,38367.0,27986.0,0.0048189999999999995,0.0037819999999999998,-0.001281,0.35000000000000003,-2.6950000000000003,-3.2375000000000003,1.10771875,0.24631250000000002,0.29090625000000003,1.39359375,1.0665625,-0.25403125,-0.2525,1.3722812500000001,0.020629302603046656,0.022406195237604374,True
53208,22418,0,22419,3681.0,38370.0,27987.0,0.002013,0.0023179999999999997,-0.003355,0.2625,-2.9925,-3.325,1.10371875,0.24565625,0.289,1.398625,1.07203125,-0.257125,-0.2555,1.37371875,0.020727157484656568,0.022448516831234153,True
53209,22419,0,22420,3679.0,38372.0,27988.0,0.002928,0.000976,-0.001952,0.29750000000000004,-3.43,-3.2900000000000005,1.10384375,0.2474375,0.29090625000000003,1.3945,1.06653125,-0.2538125,-0.25178125,1.37934375,0.020666853922450337,0.022377222291661565,True
53210,22420,0,22421,3680.0,38372.0,27991.0,0.002196,-0.000915,-0.005307,0.15750000000000003,-3.8500000000000005,-3.0975,1.1098125,0.25109375,0.29121875,1.3939375,1.07325,-0.25646875,-0.253125,1.37290625,0.020924830618636526,0.02244427264527767,True
53211,22421,0,22422,3681.0,38373.0,27992.0,0.0023179999999999997,-0.001769,-0.0046359999999999995,0.14,-4.1825,-2.9225000000000003,1.10459375,0.247,0.29121875,1.3939062500000001,1.06671875,-0.25340625,-0.2539375,1.3765625000000001,0.020632411169049705,0.022477020483787427,True
53212,22422,0,22423,3683.0,38376.0,27996.0,-0.003355,-0.003477,0.001098,0.052500000000000005,-4.7250000000000005,-2.555,1.09665625,0.24890625,0.29581250000000003,1.38478125,1.0698750000000001,-0.25615625000000003,-0.2553125,1.3795625,0.020822033581680936,0.022721826404009434,True
53213,22423,0,22424,3682.0,38377.0,27998.0,-0.002013,-0.001403,0.002379,0.12250000000000001,-5.1625000000000005,-2.3625000000000003,1.11203125,0.2393125,0.284125,1.39646875,1.0738125,-0.25534375,-0.25246875,1.3718125,0.020393701903317695,0.022125324870277383,True
53214,22424,0,22425,3682.0,38377.0,27998.0,-0.000305,0.001098,0.004514,0.17500000000000002,-5.3725000000000005,-2.2750000000000004,1.09775,0.24865625,0.29315625,1.3980937500000001,1.06309375,-0.2546875,-0.253375,1.380625,0.02075243187528184,0.022534234926066994,True
53215,22425,0,22426,3683.0,38377.0,28001.0,0.000976,0.0017079999999999999,0.0071979999999999995,0.10500000000000001,-5.5125,-2.31,1.11659375,0.24284375,0.28440625,1.4005625,1.07525,-0.25784375,-0.252875,1.37325,0.02064023105928366,0.022153301412719113,True
53216,22426,0,22427,3683.0,38380.0,28001.0,0.0025009999999999998,0.000305,0.011101999999999999,0.035,-5.390000000000001,-2.1350000000000002,1.10753125,0.2465,0.29271875,1.3883750000000001,1.0666875,-0.2541875,-0.25196875,1.3725625000000001,0.020643342515596533,0.022459516817577956,True
53217,22427,0,22428,3684.0,38382.0,28003.0,0.009516,0.000732,0.008539999999999999,-0.035,-4.952500000000001,-2.0825,1.09659375,0.2493125,0.29375,1.3880000000000001,1.07415625,-0.25521875,-0.2543125,1.3803125,0.02080093588106683,0.022596497014706146,True
53218,22428,0,22429,3685.0,38383.0,28007.0,0.006893,0.00183,0.003721,0.28,-3.8325000000000005,-1.995,1.09775,0.24875,0.29425,1.3928125,1.07259375,-0.256375,-0.25259375,1.3808125,0.020824422445645734,0.022547846042240333,True
53219,22429,0,22430,3686.0,38387.0,28011.0,0.003538,0.003965,-0.00183,0.6300000000000001,-2.5375,-1.995,1.11128125,0.24171875,0.28921875,1.410125,1.07409375,-0.25609375,-0.25359375,1.37403125,0.020523193269732475,0.02238070389053169,True
53220,22430,0,22431,3685.0,38392.0,28013.0,-0.00042699999999999997,0.003721,-0.007625,0.7525000000000001,-1.435,-2.0475000000000003,1.12175,0.2405,0.2884375,1.38821875,1.06803125,-0.25478125,-0.2523125,1.3727500000000001,0.020419942975160824,0.022296842826843837,True
53221,22431,0,22432,3686.0,38398.0,28018.0,0.001586,0.0026839999999999998,-0.010797,0.77,-0.385,-2.1875,1.0976875,0.24784375,0.2891875,1.40246875,1.0664375,-0.2555,-0.25484375,1.374125,0.020751736719506912,0.02242979817175693,True
53222,22432,0,22433,3689.0,38401.0,28024.0,-0.0008539999999999999,-0.003111,-0.013176,0.28,1.33,-2.8000000000000003,1.11578125,0.24515625,0.29096875,1.38740625,1.0676875000000001,-0.2545,-0.25265625,1.372875,0.02060055865921788,0.022415070514183368,True
53223,22433,0,22434,3689.0,38406.0,28030.0,-0.0042699999999999995,-0.0044529999999999995,-0.009637999999999999,0.24500000000000002,2.0475000000000003,-3.115,1.09634375,0.24771875000000002,0.2904375,1.399,1.067125,-0.25690625,-0.2515,1.3775,0.02080335368406678,0.022346555883141248,True
53224,22434,0,22435,3690.0,38409.0,28033.0,-0.0035989999999999998,-0.0042699999999999995,-0.004331,0.35000000000000003,2.3275,-3.2900000000000005,1.106875,0.24621875000000001,0.29025,1.393,1.06678125,-0.253625,-0.2535625,1.3728125,0.02060903267037402,0.022421963783670958,True
53225,22435,0,22436,3691.0,38412.0,28037.0,-0.002928,-0.004392,0.001037,0.28,2.765,-3.7100000000000004,1.10390625,0.24484375,0.29031250000000003,1.3993125,1.06784375,-0.25675,-0.251375,1.37921875,0.020678522473126036,0.022336362371205763,True
53226,22436,0,22437,3692.0,38412.0,28040.0,-0.003172,-0.004941,0.003477,0.21000000000000002,3.08,-3.9025000000000003,1.1054375,0.247,0.2911875,1.398625,1.0675000000000001,-0.25490625,-0.2521875,1.37759375,0.02069297835360629,0.02240519540763075,True
53227,22437,0,22438,3692.0,38412.0,28038.0,-0.007076,0.000915,0.005063,0.5775,3.7975000000000003,-4.165,1.1105625000000001,0.246,0.2915625,1.39378125,1.07428125,-0.24828125,-0.25228125,1.37234375,0.02038417671355573,0.02242443687642786,True
53228,22438,0,22439,3693.0,38411.0,28039.0,-0.005307,0.004209,0.006893,0.77,3.7100000000000004,-4.3925,1.091,0.2446875,0.28890625000000003,1.400125,1.07025,-0.25590625,-0.25503125,1.3795625,0.020638014710334725,0.022425759603999687,True
53229,22439,0,22440,3693.0,38410.0,28040.0,-0.0035989999999999998,0.0051849999999999995,0.00244,0.8575,3.3950000000000005,-4.62,1.0998125,0.2454375,0.29159375,1.39353125,1.06059375,-0.2540625,-0.2526875,1.37540625,0.02059448803679796,0.02244210048886335,True
53230,22440,0,22441,3694.0,38409.0,28040.0,0.00042699999999999997,0.0050019999999999995,0.0030499999999999998,0.805,3.0975,-4.6725,1.10778125,0.243125,0.29075,1.4006875,1.07496875,-0.2565,-0.25365625,1.373,0.020597571784882404,0.02244635795891599,True
53231,22441,0,22442,3695.0,38409.0,28039.0,-0.0023179999999999997,0.00183,-0.00061,0.6475000000000001,2.8000000000000003,-4.567500000000001,1.10340625,0.24678125,0.29078125,1.3969375,1.06678125,-0.251,-0.25196875,1.36784375,0.02052621541379737,0.022379626396310612,True
53232,22442,0,22443,3695.0,38409.0,28040.0,-0.0055509999999999995,0.000183,-0.003477,0.56,1.7675,-4.48,1.10940625,0.24353125,0.2888125,1.3945625,1.0729375,-0.25840625,-0.25340625,1.37315625,0.020691280986359112,0.022356395815536216,True
53233,22443,0,22444,3698.0,38406.0,28038.0,0.000244,0.000488,6.1e-05,0.6475000000000001,1.1900000000000002,-4.340000000000001,1.10375,0.247,0.291125,1.38184375,1.0661875,-0.25359375,-0.251625,1.3728125,0.020639982476823665,0.022379943612026,True
53234,22444,0,22445,3697.0,38408.0,28039.0,-0.001586,-0.0015249999999999999,-0.000915,0.5425000000000001,0.5425000000000001,-4.2,1.10409375,0.247375,0.28925,1.40053125,1.05853125,-0.25309375,-0.25409375,1.37859375,0.02063525400754285,0.02240214602947183,True
53235,22445,0,22446,3699.0,38408.0,28040.0,-0.000976,-0.001037,-0.000976,0.5950000000000001,-0.17500000000000002,-4.2,1.11209375,0.24640625,0.2905,1.39328125,1.07171875,-0.25471875,-0.2523125,1.37225,0.02066092809260054,0.022381886263423332,True
53236,22446,0,22447,3703.0,38407.0,28038.0,0.0030499999999999998,0.0023179999999999997,0.0015249999999999999,0.5425000000000001,-0.805,-4.077500000000001,1.104,0.24481250000000002,0.2883125,1.39115625,1.06728125,-0.2564375,-0.255125,1.37340625,0.020664617382498973,0.022405058724702512,True
53237,22447,0,22448,3702.0,38406.0,28034.0,0.002562,-0.00122,0.0034159999999999998,0.5425000000000001,-1.61,-3.8500000000000005,1.10459375,0.24784375,0.2965625,1.3931875,1.06684375,-0.25415625000000003,-0.25234375,1.37146875,0.0206974835498555,0.022633121798795217,True
53238,22448,0,22449,3701.0,38406.0,28035.0,0.005307,0.000183,0.003721,0.6125,-1.7675,-4.025,1.11028125,0.24440625,0.290625,1.395875,1.07396875,-0.25115625,-0.25190625,1.3760000000000001,0.020434592680503634,0.022370664161708936,True
53239,22449,0,22450,3702.0,38401.0,28033.0,0.003843,0.000122,-0.00042699999999999997,0.5950000000000001,-1.7500000000000002,-4.025,1.09946875,0.2466875,0.29240625,1.39828125,1.073375,-0.2541875,-0.25290625,1.37696875,0.020651073139432107,0.022484418748783975,True
53240,22450,0,22451,3704.0,38402.0,28033.0,0.003294,-0.000244,-0.000183,0.6300000000000001,-1.5575,-3.9375000000000004,1.1085,0.24681250000000002,0.29146875,1.3966875,1.07234375,-0.2540625,-0.25271875,1.37934375,0.02065117957043279,0.022438206025870815,True
53241,22451,0,22452,3705.0,38400.0,28030.0,0.004758,0.000183,-0.00061,0.45500000000000007,-0.9100000000000001,-3.9375000000000004,1.1079375,0.24678125,0.29134375,1.39728125,1.0734375,-0.25034375000000003,-0.2525625,1.3781875000000001,0.020499709411335665,0.022426753873946312,True
53242,22452,0,22453,3706.0,38399.0,28026.0,-0.002257,-0.003477,-0.0017079999999999999,0.3325,0.8225000000000001,-3.8150000000000004,1.1075,0.24628125,0.29184375,1.396625,1.0731875,-0.2545625,-0.2529375,1.3784375,0.020649465435626804,0.022462485214419903,True
53243,22453,0,22454,3704.0,38398.0,28025.0,-0.0034159999999999998,0.00042699999999999997,-0.000305,0.5425000000000001,1.4700000000000002,-3.9550000000000005,1.10625,0.24715625,0.29234375,1.3925625,1.07371875,-0.25521875,-0.2520625,1.3724375,0.020712037486777975,0.022447833045127603,True
53244,22454,0,22455,3703.0,38397.0,28027.0,-0.003111,0.003355,-0.000244,0.665,2.1525000000000003,-4.077500000000001,1.10509375,0.24525,0.2919375,1.3937187500000001,1.06809375,-0.25740625,-0.252875,1.37128125,0.020721764100397173,0.022463831607592917,True
53245,22455,0,22456,3702.0,38398.0,28024.0,-0.0032329999999999998,0.0011589999999999999,0.0023179999999999997,0.77,2.3625000000000003,-3.9550000000000005,1.104125,0.2479375,0.28984375,1.3995625,1.06475,-0.2531875,-0.2539375,1.38175,0.020662232541598918,0.02242032865797564,True
53246,22456,0,22457,3702.0,38397.0,28023.0,-0.0068319999999999995,0.0006709999999999999,-0.0025009999999999998,0.665,2.2925000000000004,-3.8850000000000002,1.10925,0.24678125,0.29109375,1.39440625,1.075875,-0.25315625,-0.25115625,1.3789375,0.020613296465279648,0.02235975861975653,True
53247,22457,0,22458,3699.0,38399.0,28024.0,-0.0073809999999999995,-0.0006709999999999999,-0.0032329999999999998,0.7875000000000001,1.8375000000000001,-3.8675,1.11921875,0.24281250000000001,0.28903125,1.3901875000000001,1.0765625,-0.2545,-0.25209375,1.370125,0.02050392710631017,0.022312506523276987,True
53248,22458,0,22459,3699.0,38399.0,28025.0,-0.006222,0.000488,-0.002745,0.6825000000000001,1.1725,-3.9725000000000006,1.104625,0.23590625,0.28400000000000003,1.395,1.07565625,-0.25675,-0.24978125,1.37021875,0.020310068331495356,0.02201179649816429,True
53249,22459,0,22460,3698.0,38397.0,28023.0,-0.001403,-0.001037,-0.0051849999999999995,0.43750000000000006,0.35000000000000003,-4.112500000000001,1.091625,0.25040625,0.2895625,1.40646875,1.0635937500000001,-0.25753125,-0.25690625,1.38221875,0.020939373210124172,0.022528377871765905,True
53250,22460,0,22461,3697.0,38396.0,28021.0,0.001403,-0.002928,-0.002257,0.24500000000000002,-0.22750000000000004,-3.9550000000000005,1.124125,0.2454375,0.29521875000000003,1.38321875,1.0678750000000001,-0.253,-0.2513125,1.37915625,0.020551581247680698,0.02253615139386786,True
53251,22461,0,22462,3694.0,38394.0,28018.0,0.003111,-0.00122,0.000488,0.2625,-0.45500000000000007,-3.9025000000000003,1.1119375,0.23703125,0.28771875,1.3859062500000001,1.078125,-0.25575000000000003,-0.2510625,1.3703750000000001,0.02031605907877514,0.022216810088217784,True
53252,22462,0,22463,3695.0,38392.0,28015.0,0.0044529999999999995,-0.000793,0.0073809999999999995,0.08750000000000001,-0.7000000000000001,-3.8850000000000002,1.0916875,0.2535625,0.29490625,1.41540625,1.06340625,-0.25359375,-0.24359375,1.37834375,0.020910560934912996,0.022212053441953095,True
53253,22463,0,22464,3694.0,38390.0,28012.0,0.004697,-0.000915,0.0062829999999999995,0.0,-0.6475000000000001,-3.8500000000000005,1.1036875,0.24584375,0.29528125,1.4010625,1.059,-0.2535,-0.2503125,1.37903125,0.02058852330591461,0.022498421412095206,True
53254,22464,0,22465,3694.0,38390.0,28011.0,0.00122,-6.1e-05,0.004209,0.14,-0.5425000000000001,-3.7100000000000004,1.12984375,0.24853125,0.30275,1.41075,1.07259375,-0.25384375,-0.25184375000000003,1.3736875,0.020713211694538106,0.022868106677456226,True
53255,22465,0,22466,3694.0,38390.0,28011.0,0.000366,0.003355,0.003477,0.2625,-0.1925,-3.6925000000000003,1.12978125,0.2544375,0.30075,1.40975,1.0665,-0.25415625000000003,-0.25346875,1.377375,0.020969344171681913,0.022851112791855803,True
53256,22466,0,22467,3693.0,38388.0,28011.0,0.0066489999999999995,0.005246,0.004331,0.35000000000000003,0.14,-3.6400000000000006,1.113625,0.2495,0.29203125,1.4111562500000001,1.066375,-0.2538125,-0.25334375,1.3786562500000001,0.02075189209943798,0.022486590122238297,True
53257,22467,0,22468,3694.0,38390.0,28014.0,-0.0015249999999999999,0.001281,-0.0055509999999999995,0.3325,0.49000000000000005,-3.7450000000000006,1.1025,0.24928125,0.29040625000000003,1.3981875000000001,1.0665625,-0.24996875000000002,-0.25534375,1.3806875,0.02058765539646314,0.02250019647732265,True
53258,22468,0,22469,3694.0,38392.0,28016.0,-0.002196,0.0013419999999999999,-0.0053679999999999995,0.07,0.77,-3.6225000000000005,1.100625,0.2495,0.29175,1.39909375,1.067125,-0.25421875,-0.25521875,1.3731875,0.020768294175626662,0.02255055935127363,True
53259,22469,0,22470,3692.0,38392.0,28015.0,0.001403,-0.00244,0.001586,0.052500000000000005,1.3475000000000001,-3.535,1.10021875,0.24740625,0.2895,1.39909375,1.06671875,-0.25225000000000003,-0.25484375,1.3784375,0.020602469873929222,0.022442682196210807,True
53260,22470,0,22471,3694.0,38394.0,28019.0,-0.007259,-0.004331,-0.001037,0.22750000000000004,1.435,-3.6575,1.10425,0.24703125,0.2944375,1.40078125,1.067,-0.25503125,-0.252,1.37728125,0.020699313673322933,0.02253164687448458,True
53261,22471,0,22472,3695.0,38395.0,28021.0,-0.007259,0.0015249999999999999,0.0017079999999999999,0.385,1.3825,-3.8675,1.111875,0.24681250000000002,0.2916875,1.398625,1.07390625,-0.25446875,-0.244375,1.3707500000000001,0.020667583164442633,0.022110798896651282,True
53262,22472,0,22473,3695.0,38395.0,28024.0,-0.005673,0.003355,-0.0040869999999999995,0.8225000000000001,0.28,-3.99,1.11059375,0.24625,0.2915625,1.3980937500000001,1.073625,-0.25534375,-0.2514375,1.373125,0.02067972135006332,0.022390425309839875,True
53263,22473,0,22474,3697.0,38397.0,28026.0,-0.000244,0.002257,-0.003721,0.5775,-0.07,-4.025,1.1086875,0.2469375,0.29075,1.39325,1.07240625,-0.25265625,-0.253125,1.37309375,0.02059954772995226,0.02242494523901559,True
53264,22474,0,22475,3696.0,38397.0,28027.0,0.0018909999999999999,0.000549,0.001769,0.385,-0.14,-3.9725000000000006,1.10359375,0.243875,0.288875,1.39325,1.0674375,-0.2560625,-0.25425000000000003,1.3776875,0.020610826674774606,0.022392982673139765,True
53265,22475,0,22476,3697.0,38398.0,28027.0,-0.001769,0.001098,0.000976,0.31500000000000006,-0.35000000000000003,-4.077500000000001,1.09571875,0.24634375,0.29084375,1.3936875,1.06928125,-0.2540625,-0.24640625,1.37146875,0.020631852911239097,0.022157922888056864,True
53266,22476,0,22477,3699.0,38398.0,28028.0,-0.0011589999999999999,0.001037,0.0037819999999999998,0.49000000000000005,-1.3125000000000002,-3.9550000000000005,1.1047500000000001,0.24540625,0.2915625,1.3941875000000001,1.07278125,-0.2585,-0.254,1.371875,0.02077235814250675,0.022493712377339818,True
53267,22477,0,22478,3700.0,38395.0,28028.0,0.007991,-0.000244,0.003843,0.28,-1.7675,-3.9375000000000004,1.1038125,0.2459375,0.2915625,1.3935625,1.06703125,-0.25428125,-0.252375,1.37259375,0.020623936238061066,0.02242821579329859,True
53268,22478,0,22479,3700.0,38394.0,28024.0,0.00915,-0.002562,-0.0006709999999999999,0.035,-2.0650000000000004,-3.9200000000000004,1.10946875,0.2415625,0.29334375,1.399875,1.07040625,-0.25590625,-0.255375,1.37196875,0.020509180109483646,0.022622563040150895,True
53269,22479,0,22480,3700.0,38396.0,28028.0,0.0037819999999999998,-0.0030499999999999998,-0.000976,0.17500000000000002,-2.0475000000000003,-3.9725000000000006,1.11121875,0.24425,0.289125,1.39359375,1.0734375,-0.25765625000000003,-0.25425000000000003,1.37378125,0.020690632467841984,0.022403290145026133,True
53270,22480,0,22481,3699.0,38397.0,28028.0,0.002013,-0.000183,0.002196,0.4025,-2.1,-4.025,1.10421875,0.24690625,0.28825,1.3935625,1.0658125,-0.2544375,-0.24959375,1.37234375,0.020670186641104333,0.02217949527504971,True
53271,22481,0,22482,3701.0,38397.0,28030.0,0.00244,0.002074,-0.0028669999999999998,0.6125,-2.3625000000000003,-4.095000000000001,1.11028125,0.2424375,0.29178125,1.39984375,1.0666875,-0.2571875,-0.2520625,1.37571875,0.020596988006132202,0.022424639141516312,True
53272,22482,0,22483,3702.0,38401.0,28027.0,0.00122,-0.001281,-0.005429,0.525,-2.3275,-3.9200000000000004,1.1035625,0.246625,0.2888125,1.3943125,1.0671875,-0.254375,-0.25409375,1.37484375,0.020656067204370347,0.022384107837465583,True
53273,22483,0,22484,3702.0,38398.0,28029.0,0.0026839999999999998,-0.000976,0.0026839999999999998,0.29750000000000004,-1.8900000000000001,-3.8325000000000005,1.104625,0.24356250000000002,0.2906875,1.39696875,1.06665625,-0.257375,-0.25259375,1.3661875,0.020650936055529506,0.02240095453707915,True
53274,22484,0,22485,3703.0,38399.0,28028.0,-0.008723,-0.0057339999999999995,-0.00549,0.14,-1.3825,-3.7275000000000005,1.11,0.24590625,0.29103125,1.39484375,1.07125,-0.25578125,-0.25221875,1.3721875000000001,0.020683213409174363,0.022400012370002227,True
53275,22485,0,22486,3704.0,38403.0,28028.0,0.0,-0.002928,0.0011589999999999999,0.29750000000000004,-1.4175000000000002,-3.8150000000000004,1.11021875,0.24334375,0.2905,1.39415625,1.070125,-0.25684375,-0.25246875,1.3716875,0.02062046922324756,0.022388184708000088,True
53276,22486,0,22487,3703.0,38401.0,28030.0,0.004697,0.0011589999999999999,0.004514,0.385,-0.7875000000000001,-3.8500000000000005,1.103625,0.24690625,0.29131250000000003,1.3938125000000001,1.06721875,-0.254625,-0.25215625,1.36453125,0.020677757334941274,0.02240908991339688,True
53277,22487,0,22488,3703.0,38404.0,28031.0,-0.006588,-0.001098,-0.002562,0.4025,-0.8400000000000001,-3.8850000000000002,1.10978125,0.24356250000000002,0.28750000000000003,1.39278125,1.06971875,-0.25559375,-0.2535,1.3720937500000001,0.020579015922873464,0.022306058919331233,True
53278,22488,0,22489,3703.0,38405.0,28031.0,-0.002562,0.000976,0.0018909999999999999,0.35000000000000003,-0.8925000000000001,-4.077500000000001,1.1033125,0.24753125,0.29125,1.39984375,1.0678125,-0.25425000000000003,-0.2556875,1.38378125,0.020688384509931254,0.02254883519586901,True
53279,22489,0,22490,3705.0,38403.0,28030.0,0.008723,0.0021349999999999997,0.001403,0.08750000000000001,-1.0325000000000002,-4.1825,1.10459375,0.24631250000000002,0.290875,1.3993125,1.07571875,-0.25484375,-0.2464375,1.36984375,0.02066211001668481,0.022160472028107222,True
53280,22490,0,22491,3704.0,38405.0,28029.0,-0.010065,-0.001464,-0.008052,0.43750000000000006,-1.6975000000000002,-4.112500000000001,1.0985625,0.25075000000000003,0.29546875,1.39365625,1.0773125000000001,-0.263,-0.25196875,1.36640625,0.021174215884268228,0.022572909673570316,True
53281,22491,0,22492,3704.0,38405.0,28030.0,0.010248,0.000549,0.015982,0.14,-0.77,-4.0075,1.10728125,0.24365625000000002,0.289375,1.3954375,1.060375,-0.25546875,-0.25515625000000003,1.386625,0.020577833607111802,0.022450123362944736,True
53282,22492,0,22493,3705.0,38407.0,28034.0,-0.0075639999999999995,-0.0040869999999999995,-0.0060999999999999995,0.21000000000000002,-0.45500000000000007,-3.8675,1.09653125,0.24634375,0.29028125,1.3988125,1.0659375,-0.25334375,-0.2494375,1.379875,0.020602829249059727,0.02225695956864979,True
53283,22493,0,22494,3707.0,38410.0,28038.0,-0.010614,-0.000732,-0.008967,0.4025,-1.4175000000000002,-4.0075,1.10453125,0.24706250000000002,0.290875,1.3883125,1.0819375,-0.25146875,-0.25146875,1.3663750000000001,0.02055674463015771,0.022363336241232813,True
53284,22494,0,22495,3706.0,38409.0,28037.0,0.000793,0.006039,-0.001952,0.49000000000000005,-1.4875,-4.340000000000001,1.1083125,0.2444375,0.2880625,1.3999375,1.06028125,-0.25621875,-0.2545625,1.3877187500000001,0.02064032548354224,0.02237207947989167,True
53285,22495,0,22496,3709.0,38408.0,28035.0,0.010309,0.002013,0.005124,0.385,-1.6275000000000002,-4.0425,1.095875,0.24681250000000002,0.29096875,1.39796875,1.0814375,-0.255625,-0.2498125,1.366625,0.020714267309129328,0.022300430157965137,True
53286,22496,0,22497,3708.0,38409.0,28038.0,-0.003843,0.002196,-0.002623,0.22750000000000004,-2.0125,-3.7800000000000002,1.11140625,0.24678125,0.29115625,1.3943125,1.06971875,-0.25325000000000003,-0.25075000000000003,1.3609375000000001,0.020617082246709204,0.02234595837242147,True
53287,22497,0,22498,3711.0,38409.0,28040.0,0.009028,0.001952,0.01464,0.47250000000000003,-2.6250000000000004,-3.7275000000000005,1.1075625,0.244625,0.2895,1.3889375,1.0525,-0.25109375,-0.25946875,1.37025,0.02044108835297377,0.022629050770124552,True
53288,22498,0,22499,3712.0,38407.0,28038.0,-0.006405,0.0028669999999999998,-0.0050019999999999995,0.6475000000000001,-2.9225000000000003,-3.5875000000000004,1.0915,0.2474375,0.28875,1.3988125,1.06271875,-0.25309375,-0.24965625,1.38253125,0.020637830998364897,0.022202634315692617,True
53289,22499,0,22500,3710.0,38410.0,28037.0,0.0023179999999999997,0.006039,0.007076,0.7350000000000001,-3.2725000000000004,-3.7450000000000006,1.10403125,0.24640625,0.29165625,1.4008125,1.06646875,-0.25278125,-0.24909375,1.3776875,0.02058269090271863,0.02229980244107061,True
53290,22500,0,22501,3711.0,38409.0,28037.0,0.006588,0.000488,0.005856,0.15750000000000003,-2.9400000000000004,-3.6750000000000003,1.0978125,0.24675,0.29071875,1.39596875,1.07203125,-0.2541875,-0.2510625,1.37053125,0.020653650014043966,0.02234051600831923,True
53291,22501,0,22502,3713.0,38409.0,28040.0,-0.0032329999999999998,-0.010065,-0.010675,-0.24500000000000002,-2.7825,-3.325,1.11034375,0.246375,0.291,1.3980937500000001,1.07284375,-0.25428125,-0.25178125,1.3740625,0.020641974290621375,0.02238108798709373,True
53292,22502,0,22503,3711.0,38412.0,28044.0,0.0068319999999999995,-0.006405,-0.0013419999999999999,-0.07,-2.1175,-3.3775000000000004,1.1026875,0.25165625,0.29071875,1.39321875,1.07184375,-0.25090625,-0.24871875000000002,1.37615625,0.02072345234520875,0.02224602073047674,True
53293,22503,0,22504,3714.0,38413.0,28043.0,0.002196,-0.0037819999999999998,-0.007442,0.28,-1.6800000000000002,-3.4125000000000005,1.10259375,0.24646875000000001,0.289,1.39825,1.0665,-0.25471875,-0.24896875000000002,1.37925,0.020663504910771232,0.022185221794225787,True
53294,22504,0,22505,3716.0,38414.0,28045.0,-0.0046359999999999995,0.002379,-0.007808,0.665,-1.5575,-3.4825000000000004,1.1031875,0.246125,0.29009375,1.3997187500000001,1.06640625,-0.2545,-0.25490625,1.377375,0.020640499701086397,0.022469680747580704,True
53295,22505,0,22506,3716.0,38414.0,28048.0,-0.006039,0.0055509999999999995,-0.006954,0.8400000000000001,-1.6450000000000002,-3.5525,1.1039375,0.2514375,0.291625,1.3999375,1.067,-0.25446875,-0.252625,1.377625,0.020858269674531627,0.022440869802753314,True
53296,22506,0,22507,3716.0,38416.0,28051.0,-0.002928,0.0,0.003721,0.31500000000000006,-2.31,-3.4825000000000004,1.1084375,0.24753125,0.29181250000000003,1.3955,1.0724375,-0.25509375,-0.25240625,1.3675625,0.020722451340762185,0.02243978368125843,True
53297,22507,0,22508,3717.0,38417.0,28053.0,-0.0025009999999999998,0.000183,0.00122,0.29750000000000004,-2.8525000000000005,-3.3425000000000002,1.1010312500000001,0.24581250000000002,0.29165625,1.3944375,1.0737812500000001,-0.25778125,-0.25315625,1.37153125,0.02076009115631711,0.022463571107368758,True
53298,22508,0,22509,3719.0,38417.0,28051.0,0.0017079999999999999,0.000915,0.001403,0.29750000000000004,-3.3600000000000003,-3.2725000000000004,1.106375,0.24678125,0.29134375,1.39846875,1.07421875,-0.25465625000000003,-0.25221875,1.37440625,0.02067386545624616,0.022412897788990954,True
53299,22509,0,22510,3721.0,38417.0,28054.0,0.0044529999999999995,0.002013,0.004331,0.36750000000000005,-3.5700000000000003,-3.3075,1.113125,0.24684375,0.2905625,1.39965625,1.0714375,-0.25515625000000003,-0.25246875,1.37484375,0.02069663022682033,0.022390761765232668,True
53300,22510,0,22511,3723.0,38418.0,28054.0,0.002623,0.0006709999999999999,0.005612,0.3325,-3.4650000000000003,-3.0625000000000004,1.11553125,0.24665625,0.29131250000000003,1.3910625,1.07284375,-0.2549375,-0.25225000000000003,1.3646875,0.020680067718170783,0.022412868909070294,True
53301,22511,0,22512,3723.0,38415.0,28052.0,0.00488,-0.003111,0.002013,-0.07,-3.325,-3.22,1.1110625,0.246125,0.2914375,1.39121875,1.07296875,-0.2574375,-0.252625,1.37190625,0.020759097081049883,0.022433138680864443,True
53302,22512,0,22513,3722.0,38414.0,28051.0,0.0055509999999999995,-0.0040869999999999995,-0.00061,0.07,-2.7300000000000004,-3.0275000000000003,1.10821875,0.24525,0.29496875,1.3916250000000001,1.07321875,-0.25796875,-0.24681250000000002,1.3639375,0.020744471855253754,0.022344431871199565,True
53303,22513,0,22514,3721.0,38415.0,28054.0,0.000122,-0.001952,0.000183,0.21000000000000002,-2.0825,-2.975,1.10159375,0.24134375,0.28853125,1.39275,1.07309375,-0.25628125,-0.25403125,1.37178125,0.02051530466979558,0.022369992617206676,True
53304,22514,0,22515,3720.0,38413.0,28050.0,0.012871,0.0057339999999999995,0.0064659999999999995,0.28,-1.1725,-3.1500000000000004,1.10059375,0.24753125,0.28740625000000003,1.39534375,1.06678125,-0.2499375,-0.2535,1.379,0.02051422812945394,0.022302193497845676,True
53305,22515,0,22516,3718.0,38417.0,28054.0,-0.027389,-0.003965,-0.024399999999999998,0.7175,-1.715,-3.1500000000000004,1.09653125,0.247125,0.29181250000000003,1.3999062500000001,1.068625,-0.25471875,-0.25190625,1.37740625,0.02069056150156349,0.022419629384803515,True
53306,22516,0,22517,3719.0,38417.0,28054.0,0.0026839999999999998,0.0048189999999999995,0.005612,0.4025,-1.54,-3.4650000000000003,1.116625,0.2424375,0.29040625000000003,1.3914375,1.073125,-0.2545,-0.25275000000000003,1.3719375,0.020488466057844937,0.0223956561627032,True
53307,22517,0,22518,3717.0,38417.0,28054.0,0.002745,-0.004331,0.0053679999999999995,0.31500000000000006,-0.8575,-3.4825000000000004,1.10140625,0.247875,0.29028125,1.397375,1.06625,-0.25428125,-0.2536875,1.37678125,0.02070381904225672,0.02242829054344829,True
53308,22518,0,22519,3718.0,38421.0,28056.0,-0.018178,-0.008662,-0.013847,0.31500000000000006,-1.9075000000000002,-3.5525,1.10934375,0.24965625,0.2920625,1.3904375,1.06678125,-0.2545625,-0.252,1.3723750000000001,0.020788614513248798,0.022433716806861292,True
53309,22519,0,22520,3716.0,38418.0,28054.0,0.0018909999999999999,0.0017079999999999999,0.00061,0.42000000000000004,-1.8200000000000003,-3.8500000000000005,1.10121875,0.24378125,0.29031250000000003,1.3954375,1.057625,-0.2568125,-0.25315625,1.36821875,0.020637243660930303,0.022408165947473333,True
53310,22520,0,22521,3715.0,38411.0,28049.0,0.006161,0.00183,0.0040869999999999995,0.47250000000000003,-2.0825,-3.8675,1.10128125,0.24678125,0.29115625,1.3990625,1.067125,-0.2550625,-0.25215625,1.37565625,0.020690268268737714,0.022402647187299073,True
53311,22521,0,22522,3713.0,38411.0,28046.0,-0.002806,0.000976,0.0068319999999999995,0.47250000000000003,-1.155,-3.6575,1.10553125,0.24675,0.29203125,1.398375,1.06625,-0.254375,-0.25221875,1.3630625,0.020661220913752675,0.022441245710766153,True
53312,22522,0,22523,3713.0,38412.0,28044.0,-0.000305,0.003111,0.00732,0.525,-0.665,-3.7450000000000006,1.10990625,0.24581250000000002,0.29109375,1.39353125,1.0718750000000001,-0.25478125,-0.24728125,1.3725,0.020638971955271708,0.022203520240026912,True
53313,22523,0,22524,3711.0,38408.0,28040.0,-0.001098,0.002745,-0.000732,0.56,-0.7525000000000001,-3.5525,1.10603125,0.24796875000000002,0.2885,1.3955312500000001,1.062875,-0.25621875,-0.25525000000000003,1.37575,0.02078590670691408,0.02241782706836664,True
53314,22524,0,22525,3711.0,38407.0,28039.0,-0.001403,0.0021349999999999997,-0.00366,0.6125,-1.0150000000000001,-3.6050000000000004,1.1034375,0.2466875,0.2915,1.3995625,1.0673125,-0.2549375,-0.2519375,1.38325,0.02068135611563625,0.022408003484257703,True
53315,22525,0,22526,3711.0,38402.0,28036.0,0.005124,0.00122,0.005429,0.5075000000000001,-1.0325000000000002,-3.7625,1.1104687500000001,0.246875,0.29084375,1.39396875,1.09459375,-0.2651875,-0.2488125,1.36471875,0.021102762960310942,0.02225495578391725,True
53316,22526,0,22527,3710.0,38402.0,28036.0,-0.002562,-0.004697,-0.006771,0.43750000000000006,-0.9625000000000001,-3.8150000000000004,1.1036875,0.24359375,0.28834375,1.39946875,1.0489375,-0.2519375,-0.253125,1.3859375,0.02043264584530617,0.02232573122020358,True
53317,22527,0,22528,3712.0,38400.0,28035.0,-0.001586,-0.000549,-0.009882,0.5425000000000001,-0.8925000000000001,-3.8850000000000002,1.10790625,0.24706250000000002,0.2919375,1.39253125,1.089875,-0.25996875,-0.2546875,1.364875,0.020899913566459153,0.02253688075758552,True
53318,22528,0,22529,3710.0,38398.0,28031.0,0.003355,0.000915,-0.005429,0.6300000000000001,-0.36750000000000005,-3.8850000000000002,1.1093125,0.24381250000000002,0.28890625000000003,1.3935,1.053625,-0.2574375,-0.26059375,1.36825,0.020663765494603456,0.022649899077593683,True
53319,22529,0,22530,3712.0,38395.0,28029.0,-0.001037,-0.003111,-0.003111,0.5950000000000001,0.08750000000000001,-3.8850000000000002,1.10315625,0.247,0.2899375,1.39984375,1.0415625,-0.2435,-0.2554375,1.38746875,0.020232227194918226,0.02248464906064877,True
53320,22530,0,22531,3711.0,38394.0,28028.0,-0.0068319999999999995,-0.0050019999999999995,-0.004392,0.35000000000000003,0.07,-3.8150000000000004,1.10446875,0.24565625,0.29181250000000003,1.39421875,1.0929375000000001,-0.25734375,-0.2500625,1.35178125,0.02073598845710384,0.022345303233754558,True
53321,22531,0,22532,3711.0,38392.0,28027.0,-0.0025009999999999998,-0.004148,0.003294,0.22750000000000004,-0.8400000000000001,-3.9725000000000006,1.10521875,0.2465,0.2895625,1.39821875,1.0541875,-0.2493125,-0.2554375,1.39153125,0.020446455956225563,0.02246918860977049,True
53322,22532,0,22533,3712.0,38389.0,28026.0,-0.0064659999999999995,-0.0032329999999999998,0.000549,0.6125,-2.1175,-3.9200000000000004,1.1011875,0.246625,0.29115625,1.3940937500000001,1.0600625000000001,-0.25396875,-0.24896875000000002,1.36196875,0.02063966335406448,0.022274143101446323,True
53323,22533,0,22534,3714.0,38387.0,28025.0,-0.003294,0.0028669999999999998,0.000183,1.0150000000000001,-3.6050000000000004,-4.2,1.1028437500000001,0.24346875,0.28975,1.39821875,1.05409375,-0.2560625,-0.259625,1.39234375,0.020594078284552574,0.02264565095297227,True
53324,22534,0,22535,3715.0,38386.0,28019.0,0.0037819999999999998,0.008601,0.0023179999999999997,1.05,-4.48,-4.235,1.10321875,0.24681250000000002,0.292125,1.3988125,1.0703125,-0.25128125,-0.2493125,1.38059375,0.020538863281708054,0.022327952596594234,True
53325,22535,0,22536,3714.0,38382.0,28017.0,0.003721,0.0028669999999999998,0.009028,0.9625000000000001,-4.8475,-4.025,1.10959375,0.24515625,0.29075,1.3928125,1.0803125,-0.2628125,-0.2504375,1.361125,0.02093610334745817,0.022316607690067443,True
53326,22536,0,22537,3716.0,38382.0,28015.0,0.001586,0.0006709999999999999,0.0068319999999999995,0.49000000000000005,-4.952500000000001,-3.6400000000000006,1.1106562500000001,0.246125,0.29775,1.39640625,1.06865625,-0.25490625,-0.24921875000000002,1.3631875,0.020656903178094124,0.022556139050871483,True
53327,22537,0,22538,3716.0,38381.0,28013.0,0.0032329999999999998,0.000183,0.001586,0.49000000000000005,-5.197500000000001,-3.535,1.1106562500000001,0.2455,0.29021875,1.39275,1.0717812500000001,-0.25265625,-0.25328125,1.3720937500000001,0.020540275871843934,0.022409338942539995,True
53328,22538,0,22539,3715.0,38381.0,28010.0,0.009394,0.002989,-0.00042699999999999997,0.525,-5.1275,-3.43,1.10425,0.24703125,0.29034375,1.39796875,1.0663125,-0.25734375,-0.254875,1.3727500000000001,0.020792672322170476,0.0224787285030329,True
53329,22539,0,22540,3717.0,38379.0,28009.0,0.014274,0.002196,0.001647,0.35000000000000003,-4.532500000000001,-3.2900000000000005,1.1031875,0.24671875000000001,0.29065625,1.39834375,1.066625,-0.2540625,-0.25365625,1.37896875,0.020647314238594054,0.02244249256233274,True
53330,22540,0,22541,3718.0,38378.0,28011.0,0.002196,-0.0042699999999999995,-0.001403,0.052500000000000005,-2.0125,-2.975,1.1030312500000001,0.24684375,0.2895625,1.3955,1.06690625,-0.25484375,-0.25490625,1.37584375,0.020684012858256405,0.02244777796244832,True
53331,22541,0,22542,3717.0,38378.0,28012.0,-0.004758,-0.001769,-0.004575,0.2625,-1.12,-3.2375000000000003,1.10365625,0.24925,0.29075,1.39825,1.0568125,-0.25071875,-0.253375,1.3785,0.020616656980527635,0.022435021929937585,True
53332,22542,0,22543,3717.0,38381.0,28014.0,-0.005978,0.000488,-0.001586,0.47250000000000003,-0.56,-3.43,1.1045625000000001,0.246875,0.291,1.39296875,1.0665625,-0.25440625,-0.25334375,1.3722812500000001,0.020667636421732652,0.022444070211968193,True
53333,22543,0,22544,3718.0,38377.0,28012.0,-0.005124,0.0017079999999999999,-0.00061,0.665,-0.35000000000000003,-3.4125000000000005,1.10828125,0.2441875,0.290125,1.3933125,1.075375,-0.25856250000000003,-0.25315625,1.3718125,0.020724641041694043,0.022400434994929785,True
53334,22544,0,22545,3719.0,38378.0,28012.0,-0.004331,0.002623,-0.003294,0.77,-0.15750000000000003,-3.5525,1.1041875,0.24646875000000001,0.28859375,1.4005,1.0664375,-0.2569375,-0.25440625,1.376125,0.020753083525074014,0.02238768471192734,True
53335,22545,0,22546,3720.0,38378.0,28012.0,-0.003965,-0.0044529999999999995,0.001037,0.052500000000000005,0.12250000000000001,-3.7100000000000004,1.10546875,0.24684375,0.29265625,1.4089375,1.066125,-0.2541875,-0.2516875,1.3794375,0.020657515325961755,0.022445603012161527,True
53336,22546,0,22547,3720.0,38380.0,28011.0,-0.003355,-0.0068319999999999995,-0.007869,-0.24500000000000002,0.07,-3.8500000000000005,1.12196875,0.24621875000000001,0.29134375,1.39115625,1.06671875,-0.2545,-0.245875,1.37875,0.020644364963202703,0.022157119510019748,True
53337,22547,0,22548,3719.0,38379.0,28013.0,-0.004941,-0.005429,-0.005673,0.22750000000000004,0.525,-3.7100000000000004,1.1165625000000001,0.24096875,0.2911875,1.3879375,1.0740625,-0.25475000000000003,-0.2531875,1.36425,0.020438006988321877,0.022445503297247014,True
53338,22548,0,22549,3719.0,38378.0,28011.0,-0.0060999999999999995,0.003355,0.003294,0.7875000000000001,0.47250000000000003,-3.7100000000000004,1.11703125,0.242625,0.29271875,1.387,1.0737812500000001,-0.25421875,-0.25196875,1.3695625,0.02048483833353734,0.022459516817577956,True
53339,22549,0,22550,3721.0,38376.0,28012.0,-0.003965,0.006405,-0.0006709999999999999,0.805,-0.21000000000000002,-4.025,1.11996875,0.2446875,0.2926875,1.38721875,1.0754062500000001,-0.25475000000000003,-0.25290625,1.37575,0.020591327471938488,0.022496015297135782,True
53340,22550,0,22551,3721.0,38376.0,28011.0,0.005246,-0.000488,0.0030499999999999998,0.3325,-1.3825,-3.8500000000000005,1.111875,0.23903125,0.28409375,1.3815625,1.06753125,-0.25484375,-0.2525,1.3723125,0.020361912246909444,0.022125296361199875,True
53341,22551,0,22552,3722.0,38375.0,28010.0,0.001952,-0.000244,0.008662,0.24500000000000002,-1.8725000000000003,-3.9375000000000004,1.098,0.239375,0.28971875,1.388125,1.07303125,-0.2570625,-0.25328125,1.3711875,0.020465689116314065,0.022388723175343545,True
53342,22552,0,22553,3723.0,38375.0,28007.0,0.0057339999999999995,-0.0006709999999999999,-6.1e-05,0.17500000000000002,-2.24,-3.9200000000000004,1.10128125,0.238625,0.29028125,1.38596875,1.07484375,-0.25721875,-0.2521875,1.36375,0.020441080039318195,0.02236782764441352,True
53343,22553,0,22554,3723.0,38372.0,28007.0,0.007625,-0.001403,-0.000183,0.43750000000000006,-2.0475000000000003,-3.5875000000000004,1.1145625000000001,0.2418125,0.29221875,1.3919375,1.07309375,-0.25534375,-0.2516875,1.37740625,0.02049677197421702,0.02242756303040768,True
53344,22554,0,22555,3722.0,38370.0,28007.0,0.000732,0.003111,0.001464,0.805,-1.5925000000000002,-3.5700000000000003,1.1204687500000001,0.24571875,0.29353125,1.4081875,1.0731875,-0.2545,-0.25175000000000003,1.37821875,0.02062375023191573,0.022484202170977352,True
53345,22555,0,22556,3724.0,38371.0,28003.0,0.000488,0.000976,-0.000732,0.24500000000000002,-1.4700000000000002,-3.5875000000000004,1.1134375,0.24528125,0.29065625,1.38725,1.065,-0.2545,-0.2523125,1.3723125,0.02060571234203962,0.02238832894801269,True
53346,22556,0,22557,3725.0,38369.0,28006.0,-0.0013419999999999999,-0.003721,-0.00122,0.2625,-1.155,-3.3775000000000004,1.0961875,0.2476875,0.28940625000000003,1.39521875,1.0725625,-0.25790625,-0.25453125,1.3774375,0.02084243152683468,0.02242622190441219,True
53347,22557,0,22558,3725.0,38372.0,28006.0,-0.005978,0.000366,-0.002257,0.6125,-1.0675000000000001,-3.4475000000000002,1.10678125,0.245,0.29053125,1.39084375,1.07228125,-0.25684375,-0.2479375,1.3720937500000001,0.020688748922662287,0.022206785628674605,True
53348,22558,0,22559,3725.0,38374.0,28009.0,-0.002989,0.002257,0.002745,0.665,-1.1900000000000002,-3.4650000000000003,1.1019375,0.24640625,0.29465625,1.3926875,1.06659375,-0.25525000000000003,-0.25153125,1.3771875,0.020682378041867226,0.02252177375397688,True
53349,22559,0,22560,3727.0,38375.0,28012.0,0.0017079999999999999,-0.000122,-0.0021349999999999997,0.2625,-1.5050000000000001,-3.3950000000000005,1.10853125,0.24390625000000002,0.29084375,1.39759375,1.07375,-0.257125,-0.25534375,1.3735,0.020655013733078428,0.022518233739730033,True
53350,22560,0,22561,3727.0,38377.0,28016.0,-0.005246,-0.000183,-0.0037819999999999998,0.6125,-1.5050000000000001,-3.5700000000000003,1.1043125,0.2456875,0.29009375,1.398875,1.0606875,-0.25484375,-0.25159375,1.3751875,0.020636341967777055,0.0223361608966421,True
53351,22561,0,22562,3726.0,38379.0,28013.0,-0.000915,0.002745,-0.001464,0.49000000000000005,-1.6625,-3.6750000000000003,1.11021875,0.25175000000000003,0.29134375,1.393125,1.07409375,-0.24965625,-0.25296875,1.37146875,0.02067683949128145,0.02244312874068252,True
53352,22562,0,22563,3729.0,38378.0,28016.0,0.0034159999999999998,-0.0006709999999999999,-0.003721,0.12250000000000001,-1.7325000000000002,-3.5875000000000004,1.1041875,0.24971875000000002,0.29028125,1.3938125000000001,1.07328125,-0.255375,-0.2536875,1.37184375,0.02082399262019243,0.02242829054344829,True
53353,22563,0,22564,3730.0,38379.0,28016.0,0.003843,-0.002196,-0.001464,0.29750000000000004,-1.2950000000000002,-3.4125000000000005,1.10384375,0.243125,0.288625,1.39784375,1.06953125,-0.2568125,-0.2521875,1.37240625,0.0206101894055536,0.022299534835775122,True
53354,22564,0,22565,3729.0,38379.0,28017.0,-0.0015249999999999999,0.000122,0.0059169999999999995,0.43750000000000006,-1.0150000000000001,-3.5875000000000004,1.10375,0.2469375,0.29109375,1.39815625,1.06640625,-0.2543125,-0.25534375,1.3793125,0.020666427877516626,0.02252854074681996,True
53355,22565,0,22566,3731.0,38378.0,28020.0,0.00488,-0.001647,-0.003111,0.2625,-1.4175000000000002,-3.7100000000000004,1.1104687500000001,0.24665625,0.2900625,1.3975312500000001,1.07128125,-0.25465625000000003,-0.252625,1.3784375,0.02066871180662476,0.022376443787012746,True
53356,22566,0,22567,3730.0,38379.0,28020.0,0.0017079999999999999,0.002013,-0.0006709999999999999,0.5950000000000001,-1.0325000000000002,-3.7450000000000006,1.1105,0.24690625,0.291125,1.39375,1.0760625,-0.25665625000000003,-0.25303125,1.37259375,0.020759765682873133,0.02243662841113933,True
53357,22567,0,22568,3732.0,38378.0,28016.0,-0.001586,0.0062829999999999995,0.004514,0.8925000000000001,-0.7350000000000001,-4.0425,1.101875,0.24446875,0.287875,1.39240625,1.0630625,-0.2571875,-0.25475000000000003,1.37215625,0.02068072607345761,0.022371906533771736,True
53358,22568,0,22569,3731.0,38378.0,28016.0,0.000549,0.003965,0.000976,0.7525000000000001,-0.7175,-4.2175,1.10321875,0.247,0.2886875,1.3924375,1.0663125,-0.25209375,-0.2544375,1.3785,0.020579408736616813,0.022392809563198484,True
53359,22569,0,22570,3733.0,38378.0,28015.0,0.000793,-0.001037,0.004148,0.5075000000000001,-0.43750000000000006,-4.0425,1.1034375,0.24684375,0.28859375,1.39984375,1.06665625,-0.2550625,-0.2535625,1.3804375,0.020692845050388965,0.02235367484673643,True
53360,22570,0,22571,3733.0,38380.0,28016.0,-0.001952,-0.004697,-0.001586,0.08750000000000001,0.10500000000000001,-4.095000000000001,1.10378125,0.24603125,0.29240625,1.39928125,1.066,-0.25484375,-0.2535625,1.37884375,0.02065051439467632,0.022510868248736653,True
53361,22571,0,22572,3734.0,38376.0,28013.0,0.000488,-0.005246,0.003538,0.36750000000000005,0.36750000000000005,-3.9025000000000003,1.1041875,0.245875,0.28825,1.40059375,1.06678125,-0.2543125,-0.255,1.37940625,0.020622621234883485,0.022397443826015256,True
53362,22572,0,22573,3732.0,38378.0,28012.0,-0.000793,-0.001281,-0.001098,0.28,0.5075000000000001,-4.112500000000001,1.0958125,0.24581250000000002,0.29078125,1.39309375,1.06696875,-0.25559375,-0.25296875,1.37540625,0.020671778030583156,0.022419935703747607,True
53363,22573,0,22574,3732.0,38382.0,28011.0,-0.0025009999999999998,-0.001769,-0.000976,0.5075000000000001,0.56,-4.2,1.1067500000000001,0.242875,0.2884375,1.3985625,1.073,-0.25784375,-0.25409375,1.371125,0.020641519302390592,0.02236864653003166,True
53364,22574,0,22575,3730.0,38381.0,28010.0,-0.002562,0.001464,-0.008113,0.6825000000000001,0.42000000000000004,-4.0425,1.1048125,0.245375,0.29059375,1.392375,1.067,-0.25590625,-0.2531875,1.37175,0.020666358322521963,0.022421021979069762,True
53365,22575,0,22576,3728.0,38380.0,28009.0,-0.0013419999999999999,0.002562,-0.000488,0.9800000000000001,0.7350000000000001,-3.9025000000000003,1.1036875,0.24678125,0.2906875,1.394125,1.0668125,-0.249125,-0.24984375,1.37290625,0.020450480171964967,0.022290092075335537,True
53366,22576,0,22577,3729.0,38379.0,28005.0,-0.0042699999999999995,0.00183,-0.002928,0.77,0.7525000000000001,-3.9375000000000004,1.10321875,0.2461875,0.28990625000000003,1.3970625,1.07134375,-0.25634375,-0.2534375,1.3782812500000001,0.02071751848421096,0.02240275218718996,True
53367,22577,0,22578,3729.0,38378.0,28004.0,-0.003355,0.000183,0.0026839999999999998,0.665,0.6300000000000001,-3.7450000000000006,1.1075625,0.24640625,0.2915625,1.3961875000000001,1.06921875,-0.25503125,-0.25278125,1.36721875,0.02067354582361134,0.02244459076214197,True
53368,22578,0,22579,3727.0,38378.0,28002.0,-0.0037819999999999998,6.1e-05,0.002379,0.56,0.29750000000000004,-3.7975000000000003,1.10778125,0.24596875,0.29321875000000003,1.39309375,1.07271875,-0.25496875,-0.25315625,1.371875,0.02065298476214281,0.022527995711898324,True
53369,22579,0,22580,3725.0,38376.0,27998.0,-0.003538,-0.00183,0.003172,0.47250000000000003,-0.10500000000000001,-3.6925000000000003,1.10728125,0.2445,0.2914375,1.3935,1.0759375,-0.26021875,-0.24890625,1.35996875,0.0208043775367854,0.022283221537053862,True
53370,22580,0,22581,3725.0,38371.0,27994.0,-0.0015249999999999999,0.000732,0.003355,0.6475000000000001,-1.8725000000000003,-3.8150000000000004,1.0925,0.2466875,0.29121875,1.3981875000000001,1.0638750000000001,-0.25484375,-0.25140625,1.38146875,0.020677570846029465,0.02237499114097765,True
53371,22581,0,22582,3724.0,38369.0,27989.0,0.00549,0.000122,-0.003538,0.4025,-2.6425,-3.8500000000000005,1.1094375,0.24571875,0.29078125,1.39359375,1.07584375,-0.25625,-0.25271875,1.37009375,0.02069440865756248,0.022409858688523323,True
53372,22582,0,22583,3726.0,38365.0,27985.0,0.007808,-0.0035989999999999998,-0.002989,0.22750000000000004,-2.7475,-3.5000000000000004,1.10425,0.24025,0.2833125,1.38415625,1.07275,-0.2605,-0.254625,1.36903125,0.020640547391850953,0.022178759721084122,True
53373,22583,0,22584,3722.0,38364.0,27983.0,0.000793,-0.000488,-0.000488,0.3325,-2.6950000000000003,-3.43,1.09909375,0.24781250000000002,0.29115625,1.41540625,1.06296875,-0.25840625,-0.24746875000000002,1.38053125,0.02086776619960349,0.022213658899962498,True
53374,22584,0,22585,3722.0,38360.0,27983.0,-0.000732,0.002074,0.007076,0.5425000000000001,-2.6250000000000004,-3.5175000000000005,1.11503125,0.24803125,0.29565625,1.40115625,1.06265625,-0.2544375,-0.25453125,1.3820937500000001,0.02071656990602235,0.02268390571349426,True
53375,22585,0,22586,3722.0,38358.0,27981.0,0.004514,-0.000732,-0.0026839999999999998,0.385,-3.2375000000000003,-3.2725000000000004,1.124875,0.24375,0.294875,1.3977187500000001,1.06853125,-0.25440625,-0.2516875,1.38296875,0.02053879385317874,0.022537091491056038,True
53376,22586,0,22587,3723.0,38358.0,27979.0,0.000549,0.0021349999999999997,0.000305,0.525,-3.115,-3.3425000000000002,1.12334375,0.24046875,0.2950625,1.3749375,1.07496875,-0.25475000000000003,-0.25196875,1.36925,0.02041739246951628,0.02255615845620781,True
53377,22587,0,22588,3723.0,38357.0,27980.0,-0.002562,0.001464,0.000549,0.7000000000000001,-2.9925,-3.2900000000000005,1.0911875,0.24434375,0.2816875,1.393,1.068125,-0.259375,-0.25365625,1.368875,0.020763879943320882,0.02207270295586877,True
53378,22588,0,22589,3723.0,38358.0,27977.0,-0.000915,-0.000122,0.000305,0.5775,-3.2900000000000005,-3.5000000000000004,1.0930625,0.24903125,0.28815625,1.41703125,1.0641875,-0.25846875,-0.25803125,1.3734375,0.020920529042048462,0.022515738988505098,True
53379,22589,0,22590,3722.0,38355.0,27977.0,0.0021349999999999997,-0.0008539999999999999,0.001464,0.4025,-3.4125000000000005,-3.6050000000000004,1.11028125,0.24565625,0.295125,1.3748125,1.063,-0.25484375,-0.2516875,1.37896875,0.020635053565331664,0.022547400052058235,True
53380,22590,0,22591,3724.0,38353.0,27974.0,0.002013,-0.0015249999999999999,0.0018909999999999999,0.29750000000000004,-3.0450000000000004,-3.6750000000000003,1.1266875,0.2361875,0.28634375,1.384875,1.07303125,-0.2558125,-0.2525,1.37140625,0.02028379795564465,0.02221807030203072,True
53381,22591,0,22592,3724.0,38353.0,27977.0,-0.001952,-0.0026839999999999998,0.008357,0.4025,-2.9050000000000002,-3.9025000000000003,1.09246875,0.2495625,0.2955,1.39965625,1.06590625,-0.25584375,-0.25609375,1.377625,0.020836473684820795,0.022740419611051346,True
53382,22592,0,22593,3723.0,38356.0,27977.0,-0.001769,0.0,-0.0018909999999999999,0.385,-3.08,-4.2875000000000005,1.1224687500000001,0.24296875,0.2935,1.381625,1.07303125,-0.254875,-0.252,1.37175,0.020525512912352675,0.022492990268843806,True
53383,22593,0,22594,3724.0,38354.0,27977.0,0.002623,0.002562,-0.002928,0.5425000000000001,-2.9575000000000005,-4.305000000000001,1.09628125,0.24640625,0.29346875,1.39465625,1.0701875,-0.2575625,-0.2549375,1.37303125,0.020775737463316856,0.022610087121436615,True
53384,22594,0,22595,3726.0,38353.0,27975.0,0.0044529999999999995,0.004697,-0.0008539999999999999,0.7875000000000001,-2.205,-4.112500000000001,1.0965625,0.24534375,0.29031250000000003,1.3978125000000001,1.06603125,-0.2553125,-0.25259375,1.3709375,0.02064109666696729,0.02238549227337798,True
53385,22595,0,22596,3725.0,38353.0,27974.0,0.000122,-0.0030499999999999998,0.0057339999999999995,0.14,-1.0675000000000001,-4.2700000000000005,1.10796875,0.245,0.2911875,1.3923125,1.073375,-0.25540625,-0.25278125,1.3725,0.020630709906167822,0.02242912861798067,True
53386,22596,0,22597,3727.0,38354.0,27976.0,0.000488,-0.006039,-0.003355,-0.35000000000000003,-0.9275000000000001,-4.2700000000000005,1.110875,0.24359375,0.29081250000000003,1.38965625,1.0708125,-0.25746875,-0.25196875,1.3721875000000001,0.020656009296105966,0.02238091495149234,True
53387,22597,0,22598,3728.0,38354.0,27978.0,0.001403,-0.005429,-0.0077469999999999995,-0.07,-0.7525000000000001,-4.2875000000000005,1.1033125,0.24434375,0.28790625000000003,1.3978125000000001,1.0556875000000001,-0.254875,-0.25575000000000003,1.37771875,0.020582202546910677,0.02241349989177824,True
53388,22598,0,22599,3728.0,38354.0,27976.0,-0.00061,0.001098,-0.0077469999999999995,0.5775,-0.052500000000000005,-4.2,1.10403125,0.2514375,0.2906875,1.39046875,1.0683125,-0.25690625,-0.2520625,1.3707500000000001,0.02095666053868679,0.022379539884494364,True
53389,22599,0,22600,3729.0,38356.0,27977.0,-0.004392,0.004941,0.000366,0.8750000000000001,0.56,-4.305000000000001,1.0998125,0.2456875,0.2905,1.38290625,1.0719375,-0.2515,-0.25228125,1.371625,0.020501309197369234,0.022380626564769038,True
53390,22600,0,22601,3729.0,38359.0,27980.0,-0.0017079999999999999,-0.001403,-0.000549,0.14,0.035,-4.3925,1.11025,0.24256250000000001,0.2900625,1.3890625,1.0671875,-0.2588125,-0.25309375,1.3716875,0.02066774703007412,0.02239533873900108,True
53391,22601,0,22602,3729.0,38359.0,27978.0,-0.0053679999999999995,-0.003111,-0.000488,0.28,0.0175,-4.1825,1.10796875,0.24453125,0.294875,1.39259375,1.06675,-0.2579375,-0.24631250000000002,1.372,0.020713580863995548,0.022320404391389416,True
53392,22602,0,22603,3732.0,38358.0,27980.0,-0.005307,-0.000183,0.0021349999999999997,0.4025,-0.2625,-4.130000000000001,1.1039375,0.24453125,0.28725,1.3935625,1.0665625,-0.2585,-0.2554375,1.38015625,0.02073628831131356,0.022373849162687746,True
53393,22603,0,22604,3729.0,38357.0,27977.0,-0.0017079999999999999,-0.00042699999999999997,0.0017079999999999999,0.49000000000000005,-0.8750000000000001,-4.112500000000001,1.10371875,0.24571875,0.29175,1.3998125000000001,1.06821875,-0.255625,-0.25190625,1.37959375,0.02066917467597722,0.022417052267798533,True
53394,22604,0,22605,3733.0,38356.0,27975.0,0.0021349999999999997,0.0008539999999999999,-0.0028669999999999998,0.35000000000000003,-1.8900000000000001,-3.9375000000000004,1.11071875,0.24571875,0.290625,1.39275,1.0686875,-0.2553125,-0.25196875,1.3720937500000001,0.020656557197521165,0.022373183620401953,True
53395,22605,0,22606,3731.0,38354.0,27976.0,0.004026,-0.000244,-0.0008539999999999999,0.2625,-2.0125,-3.7450000000000006,1.10346875,0.24331250000000001,0.28803125,1.38425,1.066875,-0.25740625,-0.2544375,1.37359375,0.020641891587234312,0.022365752658662977,True
53396,22606,0,22607,3732.0,38356.0,27976.0,0.001464,-0.001403,0.000915,0.22750000000000004,-2.2750000000000004,-3.6225000000000005,1.10346875,0.24584375,0.28975,1.3979062500000001,1.06646875,-0.254625,-0.25390625,1.3769375,0.02063395125671908,0.022415203736511513,True
53397,22607,0,22608,3732.0,38356.0,27975.0,0.002806,-0.0008539999999999999,0.000305,0.3325,-2.6250000000000004,-3.5525,1.1038125,0.24581250000000002,0.2874375,1.39921875,1.0658125,-0.2556875,-0.25178125,1.36946875,0.02067556320553685,0.022234191560671447,True
53398,22608,0,22609,3732.0,38354.0,27976.0,0.0057339999999999995,0.0,0.001281,0.21000000000000002,-2.9050000000000002,-3.6750000000000003,1.1006562500000001,0.24325,0.28971875,1.386625,1.0656875000000001,-0.2553125,-0.25375000000000003,1.371875,0.02055477537137483,0.022407617378755865,True
53399,22609,0,22610,3735.0,38355.0,27976.0,0.002806,-0.000488,0.0008539999999999999,0.14,-2.5200000000000005,-3.4825000000000004,1.10959375,0.24990625,0.29075,1.39909375,1.0715000000000001,-0.2559375,-0.25271875,1.37634375,0.020854429972042923,0.022408570173189344,True
