frame_seq,absolute_seq_u64,segment_id,sample_seq,PPG_G,PPG_R,PPG_IR,ACC_X,ACC_Y,ACC_Z,GYRO_X,GYRO_Y,GYRO_Z,Uh1,Uh2,Uh3,Uh4,Uc1,Uc2,Uc3,Uc4,UD1,UD2,parser_valid
47305,23045,0,23046,2738.0,34500.0,26628.0,0.000549,0.001403,0.00061,0.5425000000000001,-0.24500000000000002,-3.9375000000000004,0.92690625,-0.02003125,-0.38096875,1.0835000000000001,0.8765937500000001,-0.45225,-1.02534375,1.014625,0.017676031858008978,0.02574889705560987,True
47306,23046,0,23047,2737.0,34502.0,26630.0,-0.0037819999999999998,0.000915,0.00183,0.56,-0.14,-3.9550000000000005,0.93190625,-0.01859375,-0.3790625,1.084625,0.8738750000000001,-0.4546875,-1.02578125,1.0101875,0.017832726343364642,0.02584210033403053,True
47307,23047,0,23048,2736.0,34503.0,26635.0,-0.004026,-0.0013419999999999999,0.00244,0.5075000000000001,-0.17500000000000002,-3.8325000000000005,0.9323125,-0.02046875,-0.3816875,1.0843125,0.874375,-0.45434375,-1.0248125000000001,1.0073125,0.017742246712304434,0.02569949325294646,True
47308,23048,0,23049,2740.0,34504.0,26636.0,-0.004026,-0.001037,0.002013,0.43750000000000006,-0.17500000000000002,-3.6575,0.93090625,-0.0195625,-0.3798125,1.08209375,0.87421875,-0.45515625,-1.02459375,1.01534375,0.017811938944368836,0.02576590279312726,True
47309,23049,0,23050,2739.0,34504.0,26640.0,-0.00366,0.000366,0.0042699999999999995,0.5075000000000001,-0.15750000000000003,-3.7625,0.93190625,-0.01825,-0.3813125,1.083625,0.87521875,-0.454,-1.02509375,1.0150937500000001,0.017819170687822034,0.025725428101543074,True
47310,23050,0,23051,2741.0,34506.0,26640.0,-0.0040869999999999995,0.000549,0.001769,0.3325,-0.2625,-3.7625,0.9308125,-0.01571875,-0.37771875,1.0776875000000001,0.87490625,-0.457,-1.02978125,1.011125,0.01804314715623339,0.026051466190900097,True
47311,23051,0,23052,2742.0,34505.0,26643.0,-0.0034159999999999998,0.0021349999999999997,0.0017079999999999999,0.3325,-0.8400000000000001,-3.9550000000000005,0.9250625,-0.0165,-0.37734375000000003,1.083,0.879125,-0.45546875000000003,-1.02590625,1.01371875,0.017949717279493977,0.025915644912958946,True
47312,23052,0,23053,2744.0,34508.0,26643.0,0.001769,0.002745,-0.0008539999999999999,0.3325,-1.3475000000000001,-4.0425,0.93334375,-0.017750000000000002,-0.378625,1.0680625,0.87015625,-0.45365625,-1.0229062500000001,1.025125,0.017825810813055818,0.025747658707709068,True
47313,23053,0,23054,2744.0,34509.0,26645.0,0.003294,0.003172,-0.0030499999999999998,0.28,-1.7850000000000001,-4.1825,0.925125,-0.0165,-0.37825000000000003,1.0770625,0.89153125,-0.46096875,-1.03215625,1.029625,0.01817052932541766,0.026122649741769654,True
47314,23054,0,23055,2744.0,34507.0,26647.0,0.00183,0.0018909999999999999,-0.002745,0.1925,-1.9075000000000002,-4.2525,0.9253750000000001,-0.016875,-0.37496875,1.0774062500000001,0.89253125,-0.459125,-1.0325625,1.0213125,0.018081186469262496,0.026269533932053498,True
47315,23055,0,23056,2746.0,34509.0,26648.0,0.002745,-0.0018909999999999999,-0.000732,0.08750000000000001,-2.0650000000000004,-4.2175,0.92503125,-0.016125,-0.37775000000000003,1.07659375,0.8934375,-0.45984375,-1.0291875,1.02109375,0.01814070255456967,0.026027113345169512,True
47316,23056,0,23057,2747.0,34509.0,26648.0,0.00183,-0.0068319999999999995,0.001281,0.035,-2.0475000000000003,-4.0425,0.9305,-0.020125,-0.3803125,1.08390625,0.87109375,-0.45259375,-1.02165625,1.00859375,0.01768600723593995,0.025631546672694773,True
47317,23057,0,23058,2746.0,34510.0,26648.0,-0.0013419999999999999,-0.006954,0.0017079999999999999,-0.15750000000000003,-1.7500000000000002,-4.0075,0.93059375,-0.01978125,-0.38065625000000003,1.08459375,0.86840625,-0.45271875,-1.0219375,1.009375,0.017705086474280082,0.025628760762430963,True
47318,23058,0,23059,2749.0,34509.0,26651.0,-0.002257,-0.007808,0.0006709999999999999,-0.21000000000000002,-1.7500000000000002,-4.095000000000001,0.93325,-0.016625,-0.3805625,1.08278125,0.86803125,-0.45271875,-1.02165625,1.006625,0.01783416210109561,0.02562155532769738,True
47319,23059,0,23060,2750.0,34512.0,26652.0,0.000488,-0.0040869999999999995,0.000122,-0.12250000000000001,-1.9425000000000001,-4.2,0.92334375,-0.020125,-0.381625,1.07778125,0.868,-0.453,-1.02265625,1.010875,0.017702326912853228,0.025618033656998346,True
47320,23060,0,23061,2749.0,34512.0,26652.0,0.003111,0.002196,-0.00183,0.1925,-2.1700000000000004,-4.2,0.9304375,-0.017750000000000002,-0.37878125,1.08525,0.86153125,-0.452375,-1.022375,1.00878125,0.01777434707262587,0.025720729946697704,True
47321,23061,0,23062,2754.0,34516.0,26653.0,0.005429,0.009089,-0.003294,0.47250000000000003,-2.1875,-4.2525,0.93290625,-0.02040625,-0.3805,1.0816875,0.87140625,-0.45409375,-1.0185,1.0090625,0.017734760667628503,0.025501129164418327,True
47322,23062,0,23063,2753.0,34513.0,26652.0,0.00549,0.008845,-0.0050019999999999995,0.5775,-1.995,-4.165,0.92990625,-0.01953125,-0.37859375,1.0661875,0.86009375,-0.4456875,-1.023125,1.0135,0.017432778276331974,0.025757424382446235,True
47323,23063,0,23064,2752.0,34515.0,26655.0,0.0034159999999999998,0.0066489999999999995,-0.002562,0.5425000000000001,-1.6975000000000002,-4.130000000000001,0.9258125,-0.016,-0.37796875,1.0773125000000001,0.8790625,-0.45596875000000003,-1.025,1.02309375,0.017990240112651438,0.025855394605394606,True
47324,23064,0,23065,2754.0,34516.0,26658.0,0.000366,0.004209,-0.00042699999999999997,0.49000000000000005,-1.2425000000000002,-4.025,0.91740625,-0.017718750000000002,-0.37934375000000004,1.08190625,0.8755937500000001,-0.4549375,-1.02359375,1.0101875,0.01787854702143483,0.025745702493271974,True
47325,23065,0,23066,2754.0,34515.0,26659.0,-0.002623,0.001464,0.00183,0.56,-0.8750000000000001,-3.9550000000000005,0.9289375,-0.017593750000000002,-0.37796875,1.077125,0.87175,-0.45446875000000003,-1.02409375,1.01334375,0.017864832986813503,0.025820115863336712,True
47326,23066,0,23067,2758.0,34516.0,26662.0,-0.00366,-0.0053679999999999995,0.003172,0.5075000000000001,-0.9100000000000001,-3.7975000000000003,0.9247500000000001,-0.01709375,-0.3785625,1.078875,0.87734375,-0.45784375,-1.0230625,1.01240625,0.018020803653224744,0.025756239868721102,True
47327,23067,0,23068,2758.0,34520.0,26664.0,-0.006405,-0.0075639999999999995,0.003721,0.42000000000000004,-0.9275000000000001,-3.6050000000000004,0.92490625,-0.01734375,-0.378125,1.08009375,0.88165625,-0.45737500000000003,-1.0271875,1.01921875,0.017991761176332294,0.025934296452607784,True
47328,23068,0,23069,2759.0,34521.0,26668.0,-0.006161,-0.0066489999999999995,0.005063,0.385,-0.9275000000000001,-3.3425000000000002,0.93209375,-0.02053125,-0.3735,1.08271875,0.8779375,-0.4541875,-1.0244375000000001,1.013375,0.017733414778143827,0.02601207319844852,True
47329,23069,0,23070,2762.0,34526.0,26670.0,-0.0053679999999999995,-0.0048189999999999995,0.0048189999999999995,0.56,-1.1025,-3.3075,0.9197500000000001,-0.0139375,-0.37896875,1.0833125000000001,0.8745625,-0.454625,-1.021375,1.01428125,0.018020619821403926,0.025674298474804038,True
47330,23070,0,23071,2763.0,34528.0,26675.0,-0.002257,-0.001281,0.0026839999999999998,0.5775,-1.3825,-3.2725000000000004,0.92871875,-0.0173125,-0.37459375,1.0765,0.874,-0.45721875,-1.0268125000000001,1.0229062500000001,0.01798676515497086,0.026060799792222845,True
47331,23071,0,23072,2765.0,34530.0,26679.0,0.003294,0.003965,-0.0042699999999999995,0.6475000000000001,-2.1700000000000004,-3.6225000000000005,0.9241875,-0.01675,-0.3771875,1.0776875000000001,0.87884375,-0.45453125,-1.02440625,1.01434375,0.01790184590023577,0.025863500757385603,True
47332,23072,0,23073,2767.0,34531.0,26680.0,0.001586,0.0071979999999999995,-0.00488,0.47250000000000003,-2.3275,-3.6400000000000006,0.9250625,-0.01665625,-0.377125,1.077,0.875375,-0.45487500000000003,-1.02809375,1.02140625,0.01791948435639111,0.02600952179987739,True
47333,23073,0,23074,2769.0,34532.0,26682.0,-0.00042699999999999997,0.005124,-0.005795,0.4025,-2.3625000000000003,-3.8675,0.92484375,-0.016375,-0.37709375,1.0838125,0.877125,-0.45465625,-1.02221875,1.01421875,0.01792220039895265,0.025782086170915597,True
47334,23074,0,23075,2770.0,34535.0,26684.0,-0.002196,0.004209,-0.005063,0.36750000000000005,-2.4325,-4.0425,0.9313750000000001,-0.01925,-0.380625,1.08375,0.874375,-0.45437500000000003,-1.02440625,1.0145625,0.017793339637590413,0.025726134860842104,True
47335,23075,0,23076,2774.0,34536.0,26686.0,-0.002623,0.0021349999999999997,-0.002562,0.28,-2.5375,-4.0600000000000005,0.93275,-0.0209375,-0.38265625000000003,1.08371875,0.8747812500000001,-0.45453125,-1.024,1.013625,0.017730609741292834,0.02562914601982097,True
47336,23076,0,23077,2775.0,34537.0,26689.0,-0.002379,-0.003904,0.00549,0.21000000000000002,-2.975,-4.025,0.93121875,-0.02134375,-0.38406250000000003,1.0868125,0.87821875,-0.45837500000000003,-1.02378125,1.0141875,0.01786836819698774,0.025564431834217707,True
47337,23077,0,23078,2777.0,34540.0,26692.0,-0.003111,-0.007137,0.0073809999999999995,0.21000000000000002,-3.5175000000000005,-3.9725000000000006,0.937625,-0.021781250000000002,-0.3771875,1.07934375,0.873125,-0.4505,-1.0236875,1.0135,0.017534150630866444,0.02583552084400031,True
47338,23078,0,23079,2779.0,34543.0,26695.0,-0.000183,-0.007442,0.0057339999999999995,0.10500000000000001,-3.99,-3.9550000000000005,0.9228437500000001,-0.01515625,-0.37965625000000003,1.07409375,0.881375,-0.45815625,-1.02575,1.02109375,0.018112567254532936,0.025817158326923266,True
47339,23079,0,23080,2780.0,34543.0,26697.0,0.0030499999999999998,-0.005856,6.1e-05,0.0,-4.515000000000001,-4.025,0.9225,-0.01528125,-0.37690625,1.082125,0.880375,-0.4590625,-1.0225312500000001,1.01396875,0.01814383727912711,0.02580174617625865,True
47340,23080,0,23081,2781.0,34545.0,26698.0,0.00732,0.000976,0.003294,0.22750000000000004,-4.987500000000001,-3.99,0.9274687500000001,-0.0201875,-0.383625,1.08565625,0.87534375,-0.449625,-1.02375,1.01684375,0.017564175319662364,0.025580698336580245,True
47341,23081,0,23082,2783.0,34543.0,26696.0,0.008905999999999999,0.000793,-0.003477,0.1925,-5.460000000000001,-3.8500000000000005,0.92896875,-0.0165625,-0.37359375,1.07440625,0.88071875,-0.4514375,-1.026875,1.02121875,0.017785252912022043,0.02610318907174787,True
47342,23082,0,23083,2783.0,34540.0,26689.0,0.012749,-0.001769,-0.008784,-0.22750000000000004,-5.5475,-4.130000000000001,0.915375,-0.01578125,-0.37671875,1.0743125,0.880625,-0.45484375,-1.0263125,1.01915625,0.017954009622326864,0.025956430856523507,True
47343,23083,0,23084,2784.0,34536.0,26679.0,0.013542,0.000305,-0.008601,-0.15750000000000003,-5.1275,-4.1825,0.9217500000000001,-0.0158125,-0.37678125,1.074125,0.87909375,-0.455625,-1.0253125,1.00503125,0.017984103861586036,0.02591501105131055,True
47344,23084,0,23085,2785.0,34532.0,26669.0,0.0071979999999999995,0.003477,-0.0068319999999999995,0.1925,-4.4275,-4.130000000000001,0.92815625,-0.01946875,-0.3800625,1.08509375,0.87446875,-0.4541875,-1.02415625,1.0135625,0.017776863369514936,0.02573887980738612,True
47345,23085,0,23086,2784.0,34530.0,26662.0,-0.001464,0.002074,-0.002379,0.385,-3.6750000000000003,-4.095000000000001,0.93659375,-0.02271875,-0.379625,1.07696875,0.8745625,-0.4548125,-1.0265312500000001,1.01653125,0.017669068204877875,0.0258488179419591,True
47346,23086,0,23087,2781.0,34527.0,26651.0,-0.000732,0.000183,0.000305,0.21000000000000002,-2.24,-4.112500000000001,0.92196875,-0.01515625,-0.37565625,1.077,0.87875,-0.457,-1.02396875,1.01221875,0.01806614670646441,0.0259076610299875,True
47347,23087,0,23088,2780.0,34522.0,26646.0,-0.001952,-0.000244,0.002623,0.28,-1.6975000000000002,-4.025,0.9220625,-0.01546875,-0.37853125,1.080125,0.8709375,-0.454625,-1.0243125,1.01278125,0.017958003854076685,0.025806153515705973,True
47348,23088,0,23089,2775.0,34522.0,26640.0,-0.0051849999999999995,-0.000793,0.0037819999999999998,0.49000000000000005,-1.2075,-3.8500000000000005,0.9243125,-0.0156875,-0.37646875,1.07421875,0.8747812500000001,-0.455125,-1.0248125000000001,1.01440625,0.017969137348510793,0.025908036273998063,True
47349,23089,0,23090,2773.0,34522.0,26634.0,-0.005307,0.000366,0.004026,0.385,-0.7350000000000001,-3.9550000000000005,0.92553125,-0.016125,-0.37634375000000003,1.08071875,0.87734375,-0.4545,-1.02525,1.0138125,0.017926148561614428,0.02593006063875486,True
47350,23090,0,23091,2769.0,34518.0,26631.0,-0.0018909999999999999,-0.000915,0.003538,0.31500000000000006,-0.10500000000000001,-3.8500000000000005,0.93121875,-0.02028125,-0.37909375,1.075,0.874625,-0.45403125,-1.023875,1.01375,0.01773736181023323,0.025766642856072455,True
47351,23091,0,23092,2768.0,34519.0,26629.0,-0.0021349999999999997,0.000488,0.0015249999999999999,0.42000000000000004,0.2625,-3.8325000000000005,0.92540625,-0.01634375,-0.37571875,1.07928125,0.88465625,-0.45787500000000003,-1.0110000000000001,1.01296875,0.01805272330486602,0.025400073967454327,True
47352,23092,0,23093,2767.0,34517.0,26626.0,-0.0040869999999999995,0.001464,0.000732,0.42000000000000004,0.5075000000000001,-3.9550000000000005,0.9339375,-0.02009375,-0.37978125,1.076,0.87309375,-0.44571875,-1.0253125,0.9988125,0.0174110241696207,0.025795132428416235,True
47353,23093,0,23094,2764.0,34517.0,26626.0,-0.00366,0.003111,0.00042699999999999997,0.36750000000000005,0.77,-4.0600000000000005,0.9250625,-0.0171875,-0.37665625,1.076125,0.87509375,-0.46053125,-1.026125,1.032875,0.018124861862924585,0.025951630546079345,True
47354,23094,0,23095,2761.0,34516.0,26628.0,-0.004514,0.00122,-0.001281,0.035,0.8750000000000001,-4.077500000000001,0.9243125,-0.016375,-0.38071875,1.0830625,0.89490625,-0.46721875,-1.0265312500000001,1.01053125,0.01842644047967242,0.02580511432242533,True
47355,23095,0,23096,2760.0,34520.0,26629.0,-0.004575,-0.001586,-0.002196,-0.052500000000000005,0.8750000000000001,-4.0075,0.93184375,-0.01871875,-0.38140625,1.07428125,0.864625,-0.452375,-1.01840625,0.99525,0.01773472924409183,0.025461254151630863,True
47356,23096,0,23097,2759.0,34522.0,26633.0,-0.00488,-0.002928,-0.001403,-0.12250000000000001,0.6125,-4.095000000000001,0.92471875,-0.01653125,-0.37703125,1.07034375,0.861625,-0.445375,-1.0269375,1.03240625,0.017542940126711086,0.025968269189947837,True
47357,23097,0,23098,2759.0,34524.0,26636.0,-0.0011589999999999999,-0.002623,0.000183,0.035,0.21000000000000002,-4.1825,0.92521875,-0.01940625,-0.3795625,1.08265625,0.898375,-0.45837500000000003,-1.02121875,1.00153125,0.017947584416380894,0.02564448424399791,True
47358,23098,0,23099,2760.0,34524.0,26638.0,0.004209,-0.003294,0.002928,0.08750000000000001,-0.052500000000000005,-3.9375000000000004,0.9265625000000001,-0.017125,-0.37659375,1.07271875,0.861625,-0.45925,-1.0316875,1.0285625,0.018075983523615807,0.026170578791381925,True
47359,23099,0,23100,2758.0,34524.0,26643.0,0.007808,-0.001586,0.00244,0.12250000000000001,-0.21000000000000002,-3.8675,0.93078125,-0.019875,-0.37665625,1.075375,0.86740625,-0.45121875,-1.0175,1.02790625,0.017640991821726678,0.02561581892675128,True
47360,23100,0,23101,2759.0,34526.0,26647.0,0.003111,0.000732,0.000244,0.24500000000000002,0.08750000000000001,-3.6575,0.92490625,-0.0165625,-0.3774375,1.08253125,0.89584375,-0.46368750000000003,-1.022375,1.00165625,0.01827708925729206,0.025774431883464302,True
47361,23101,0,23102,2760.0,34529.0,26654.0,0.004209,0.001281,-0.00183,0.2625,0.17500000000000002,-3.5875000000000004,0.9284375,-0.016875,-0.3769375,1.0761875,0.8626875,-0.452125,-1.02159375,1.03671875,0.017800088949324448,0.025763996348154287,True
47362,23102,0,23103,2760.0,34531.0,26656.0,0.003904,0.0023179999999999997,-0.005124,0.24500000000000002,0.3325,-3.6050000000000004,0.92971875,-0.01959375,-0.38009375,1.076125,0.87840625,-0.45225,-1.01846875,1.0075625,0.017693923872036315,0.0255161499442287,True
47363,23103,0,23104,2761.0,34533.0,26658.0,0.000793,0.0025009999999999998,-0.006222,0.43750000000000006,0.5425000000000001,-3.5700000000000003,0.92659375,-0.01653125,-0.376875,1.07640625,0.8785937500000001,-0.45556250000000004,-1.02559375,1.0150625,0.017952204125339585,0.025922212135326462,True
47364,23104,0,23105,2762.0,34532.0,26659.0,-0.001098,0.0028669999999999998,-0.003355,0.6825000000000001,0.9100000000000001,-3.6400000000000006,0.92796875,-0.015625,-0.3785625,1.07878125,0.86928125,-0.45206250000000003,-1.01946875,1.0113125,0.017848698857202742,0.025616301305358448,True
47365,23105,0,23106,2764.0,34536.0,26665.0,-0.006954,0.001586,0.001586,0.5950000000000001,1.8375000000000001,-3.6225000000000005,0.9245,-0.01196875,-0.376125,1.0783125,0.87575,-0.45409375,-1.022125,1.01303125,0.01807979492186252,0.02581715182063873,True
47366,23106,0,23107,2765.0,34540.0,26669.0,-0.01159,0.0017079999999999999,0.004148,0.6300000000000001,1.9425000000000001,-3.5525,0.92984375,-0.01971875,-0.37834375000000003,1.08125,0.87471875,-0.4535,-1.02228125,1.0120625,0.01773902508843315,0.025734564069772817,True
47367,23107,0,23108,2765.0,34541.0,26672.0,-0.014518,0.000732,0.0066489999999999995,0.7175,1.8025000000000002,-3.4125000000000005,0.93,-0.018375,-0.37590625,1.0757812500000001,0.8746875000000001,-0.4574375,-1.02665625,1.01659375,0.017952105571158058,0.026002275074202136,True
47368,23108,0,23109,2769.0,34542.0,26674.0,-0.01281,-0.0008539999999999999,0.008173999999999999,0.665,1.2950000000000002,-3.4475000000000002,0.92478125,-0.01696875,-0.378125,1.07825,0.8738125,-0.45428125,-1.02259375,1.01165625,0.017882860490941642,0.025755473490832657,True
47369,23109,0,23110,2769.0,34545.0,26674.0,-0.007259,-0.002623,0.007625,0.525,0.56,-3.4825000000000004,0.9246562500000001,-0.01646875,-0.377,1.07746875,0.86940625,-0.45459375,-1.02284375,1.0110625,0.017915856811156393,0.02581016596085327,True
47370,23110,0,23111,2771.0,34545.0,26678.0,-0.0015249999999999999,-0.002562,0.0044529999999999995,0.36750000000000005,-1.0675000000000001,-3.1850000000000005,0.924625,-0.017625000000000002,-0.37659375,1.079625,0.880375,-0.45734375,-1.02284375,1.01228125,0.017979006816715326,0.025826401125971142,True
47371,23111,0,23112,2769.0,34548.0,26679.0,-0.000183,-0.002562,0.001281,0.21000000000000002,-1.8550000000000002,-3.2025,0.92425,-0.01634375,-0.37543750000000004,1.07996875,0.8793125,-0.45859375,-1.0230000000000001,1.0120625,0.01808157919954004,0.025878691603724576,True
47372,23112,0,23113,2773.0,34549.0,26682.0,0.003904,-0.001952,-0.002379,0.28,-2.7300000000000004,-3.4475000000000002,0.9238125,-0.016625,-0.37621875,1.0756875000000001,0.8753125,-0.45353125,-1.02546875,1.018875,0.01786679582320038,0.025943569988074643,True
47373,23113,0,23114,2774.0,34550.0,26683.0,0.008113,0.00122,-0.0057339999999999995,0.15750000000000003,-3.3950000000000005,-3.6225000000000005,0.92490625,-0.0166875,-0.37525000000000003,1.07646875,0.8821875,-0.45790625,-1.0231875,1.0121875,0.01803992318434862,0.02589348379378126,True
47374,23114,0,23115,2775.0,34551.0,26681.0,0.010919,0.0026839999999999998,-0.007137,0.2625,-3.8500000000000005,-3.8500000000000005,0.9325625000000001,-0.02071875,-0.38040625,1.07609375,0.8749375,-0.45437500000000003,-1.025,1.02121875,0.017733278810028882,0.025757992007992003,True
47375,23115,0,23116,2776.0,34552.0,26684.0,0.008113,-0.000915,-0.004575,0.052500000000000005,-4.077500000000001,-3.8850000000000002,0.9236562500000001,-0.0124375,-0.375,1.0741875,0.8771875,-0.45546875000000003,-1.0225625,1.01215625,0.01811583554291921,0.025879144072474596,True
47376,23116,0,23117,2778.0,34552.0,26686.0,0.007869,0.000244,-0.003538,0.035,-3.8675,-3.8850000000000002,0.9236875,-0.021843750000000002,-0.3836875,1.07478125,0.8745937500000001,-0.45459375,-1.023625,1.01853125,0.01769606170619784,0.025573333200125885,True
47377,23117,0,23118,2779.0,34550.0,26685.0,0.005307,-0.000305,-0.000793,0.1925,-3.6575,-3.8675,0.918125,-0.0141875,-0.37243750000000003,1.07571875,0.878125,-0.4551875,-1.02203125,1.0131875000000001,0.018032983799449502,0.02596087198156624,True
47378,23118,0,23119,2780.0,34554.0,26686.0,0.0030499999999999998,0.002013,0.0006709999999999999,0.31500000000000006,-3.2900000000000005,-3.7100000000000004,0.9396875,-0.023,-0.37421875,1.06909375,0.8755000000000001,-0.45553125,-1.023125,1.01528125,0.017686438522982403,0.025932262657042238,True
47379,23119,0,23120,2781.0,34553.0,26690.0,-0.0015249999999999999,0.001586,0.00042699999999999997,0.5075000000000001,-3.0450000000000004,-3.6575,0.91778125,-0.0205,-0.38159375,1.0904375,0.87453125,-0.44896875,-1.02221875,1.0073125,0.017525023422511433,0.025602246003864064,True
47380,23120,0,23121,2783.0,34555.0,26693.0,-0.004758,0.000549,0.0023179999999999997,0.47250000000000003,-2.765,-3.535,0.9308125,-0.0105,-0.3735,1.06953125,0.8805937500000001,-0.4576875,-1.01959375,1.01228125,0.018284128456543574,0.025823510823392175,True
47381,23121,0,23122,2785.0,34558.0,26694.0,-0.001037,0.000366,0.000183,0.45500000000000007,-2.9400000000000004,-3.6225000000000005,0.91903125,-0.01715625,-0.37784375000000003,1.0915625,0.8740625,-0.45021875,-1.02228125,1.0166875,0.01771200922282137,0.0257545462606452,True
47382,23122,0,23123,2785.0,34559.0,26698.0,0.002989,-0.002806,-0.000366,0.28,-3.1500000000000004,-3.5525,0.9320625,-0.017687500000000002,-0.374,1.06953125,0.88096875,-0.45665625,-1.0250625,1.01221875,0.01794884572579295,0.026016418540413234,True
47383,23123,0,23124,2787.0,34558.0,26698.0,0.0034159999999999998,-0.003172,0.000305,0.29750000000000004,-3.08,-3.4650000000000003,0.93259375,-0.0235625,-0.3775,1.0671875,0.87384375,-0.45609375,-1.02609375,1.0189375,0.017686031727777458,0.02591669944495433,True
47384,23124,0,23125,2790.0,34561.0,26700.0,0.0025009999999999998,-0.003111,0.00122,0.42000000000000004,-2.9225000000000003,-3.4125000000000005,0.90996875,-0.01196875,-0.3778125,1.092625,0.8747812500000001,-0.45465625,-1.02178125,1.01565625,0.018102380809380626,0.025736327224905306,True
47385,23125,0,23126,2789.0,34559.0,26699.0,0.0,0.0034159999999999998,0.0025009999999999998,0.8400000000000001,-2.3975000000000004,-3.2375000000000003,0.9223750000000001,-0.01575,-0.37340625,1.07334375,0.88203125,-0.4588125,-1.0235625,0.9993125,0.018114636595705537,0.025981762189136736,True
47386,23126,0,23127,2792.0,34562.0,26702.0,-0.003538,0.0021349999999999997,-0.000549,0.805,-2.205,-3.1500000000000004,0.9359375,-0.01978125,-0.38071875,1.07434375,0.87465625,-0.45675,-1.02565625,1.0185625,0.01786699990800086,0.025771052457415573,True
47387,23127,0,23128,2793.0,34563.0,26705.0,-0.0015249999999999999,0.001037,0.000549,0.7000000000000001,-2.31,-3.2900000000000005,0.9198437500000001,-0.0159375,-0.37434375000000003,1.08071875,0.88096875,-0.452,-1.0229062500000001,1.0124375,0.01783340831015868,0.025918751943531746,True
47388,23128,0,23129,2794.0,34564.0,26709.0,6.1e-05,0.00042699999999999997,-0.003538,0.49000000000000005,-2.4325,-3.5000000000000004,0.927875,-0.0170625,-0.3761875,1.07575,0.8746875000000001,-0.45787500000000003,-1.0255625,1.01853125,0.01802333604207234,0.025948467691785146,True
47389,23129,0,23130,2795.0,34568.0,26713.0,-0.0015249999999999999,0.000183,-0.000976,0.4025,-2.3625000000000003,-3.6050000000000004,0.9261875,-0.0201875,-0.37971875,1.0758125,0.87425,-0.45446875000000003,-1.02225,1.0196875,0.017758768527735856,0.025678396227357656,True
47390,23130,0,23131,2797.0,34568.0,26717.0,-0.0025009999999999998,0.000732,-0.001098,0.3325,-2.45,-3.9550000000000005,0.92625,-0.01884375,-0.3756875,1.0752187500000001,0.87453125,-0.45415625,-1.0255,1.0167187500000001,0.017801166212798692,0.025966014665041663,True
47391,23131,0,23132,2799.0,34570.0,26717.0,0.003904,0.000732,-0.00183,0.29750000000000004,-2.4325,-4.0425,0.92975,-0.0196875,-0.374,1.0749375,0.8741875,-0.4546875,-1.0251875,1.0138125,0.017788000766724172,0.026021283556816502,True
47392,23132,0,23133,2800.0,34570.0,26720.0,0.00488,0.00042699999999999997,-0.000732,0.35000000000000003,-2.1875,-3.9550000000000005,0.92453125,-0.018125,-0.37446875,1.08046875,0.87503125,-0.45503125,-1.02196875,1.01334375,0.017865699926267728,0.025877260357460886,True
47393,23133,0,23134,2803.0,34576.0,26723.0,0.004148,-0.002745,0.002562,0.21000000000000002,-1.7850000000000001,-3.8500000000000005,0.93084375,-0.01946875,-0.37153125000000004,1.08146875,0.87490625,-0.45356250000000004,-1.02278125,1.00759375,0.017751759073959063,0.02602628354911586,True
47394,23134,0,23135,2803.0,34576.0,26729.0,0.005978,-0.0026839999999999998,0.002745,0.22750000000000004,-1.4175000000000002,-3.7100000000000004,0.9320625,-0.0209375,-0.376875,1.0753125000000001,0.866125,-0.4546875,-1.02509375,1.01946875,0.017736885821992208,0.025902750114572493,True
47395,23135,0,23136,2804.0,34577.0,26731.0,0.009637999999999999,-0.002806,-0.0026839999999999998,0.14,-0.7875000000000001,-3.7100000000000004,0.9244687500000001,-0.01709375,-0.3765,1.07509375,0.88021875,-0.4573125,-1.02675,1.02034375,0.017999473572576707,0.025982199047019688,True
47396,23136,0,23137,2806.0,34578.0,26733.0,0.006954,-0.001037,-0.002745,0.17500000000000002,-0.1925,-3.7975000000000003,0.92334375,-0.0099375,-0.37593750000000004,1.07409375,0.8758125,-0.4533125,-1.0230000000000001,1.01146875,0.018131490365569082,0.025858709986812136,True
47397,23137,0,23138,2807.0,34580.0,26734.0,0.001281,0.0035989999999999998,-0.00488,0.47250000000000003,0.525,-3.7450000000000006,0.9253125,-0.01578125,-0.37771875,1.081875,0.87403125,-0.45428125,-1.02178125,1.0115625,0.017931420495133136,0.025740073960561865,True
47398,23138,0,23139,2808.0,34578.0,26730.0,-0.0040869999999999995,0.004148,-0.003477,0.805,1.4525000000000001,-3.6575,0.93078125,-0.02028125,-0.37821875,1.0791250000000001,0.8729375,-0.4543125,-1.024875,1.01915625,0.01774865885107177,0.025840538664029286,True
47399,23139,0,23140,2810.0,34578.0,26727.0,-0.0060999999999999995,0.003294,-0.001952,0.7175,2.3275,-3.4475000000000002,0.9243750000000001,-0.016625,-0.37553125,1.075,0.88134375,-0.45596875000000003,-1.0226250000000001,1.00959375,0.01796468397924331,0.025860346386520204,True
47400,23140,0,23141,2812.0,34576.0,26717.0,-0.004941,-0.001098,0.0035989999999999998,0.805,3.8325000000000005,-2.9575000000000005,0.9234687500000001,-0.02003125,-0.376875,1.08296875,0.87375,-0.45425,-1.02134375,1.015125,0.01775637159185009,0.025756760166008266,True
47401,23141,0,23142,2810.0,34572.0,26707.0,-0.011224,-0.001281,0.005673,0.8225000000000001,4.2175,-2.9225000000000003,0.9280625,-0.01696875,-0.37471875,1.07496875,0.881875,-0.457125,-1.02525,1.0170625,0.017997056072616875,0.025994995054994457,True
47402,23142,0,23143,2810.0,34568.0,26698.0,-0.012871,-0.001403,0.002745,0.8750000000000001,4.1475,-2.9050000000000002,0.924875,-0.01665625,-0.375125,1.08171875,0.87484375,-0.4548125,-1.021875,1.01103125,0.017916974419656666,0.025847383539403027,True
47403,23143,0,23144,2809.0,34566.0,26691.0,-0.015555,-0.000732,0.000793,0.7350000000000001,3.6225000000000005,-3.0100000000000002,0.92990625,-0.02009375,-0.37584375000000003,1.07503125,0.874,-0.4555,-1.02365625,1.01840625,0.017804021590235326,0.02588800347671016,True
47404,23144,0,23145,2807.0,34564.0,26685.0,-0.013176,-6.1e-05,0.000793,0.9100000000000001,2.8525000000000005,-2.9575000000000005,0.92415625,-0.01215625,-0.370125,1.08040625,0.86840625,-0.45321875,-1.02178125,1.01234375,0.01803699155147009,0.02604355954874316,True
47405,23145,0,23146,2805.0,34564.0,26681.0,0.0013419999999999999,0.002074,0.0042699999999999995,1.0150000000000001,1.2075,-2.9400000000000004,0.92984375,-0.0194375,-0.37846875,1.07490625,0.874125,-0.4541875,-1.02378125,1.01715625,0.017778141269261145,0.02578796919430392,True
47406,23146,0,23147,2803.0,34559.0,26674.0,0.002989,0.0040869999999999995,0.0062829999999999995,1.1725,0.77,-2.66,0.92459375,-0.0135625,-0.3769375,1.07809375,0.878375,-0.45006250000000003,-1.02203125,1.0120625,0.017852715100421523,0.025781030466901042,True
47407,23147,0,23148,2801.0,34561.0,26673.0,0.001281,0.004514,0.0066489999999999995,1.1025,0.45500000000000007,-2.6775,0.92534375,-0.01665625,-0.37493750000000003,1.07896875,0.87640625,-0.45690625,-1.01703125,1.01275,0.01800105031682002,0.025666264857066124,True
47408,23148,0,23149,2800.0,34558.0,26668.0,0.000549,0.002379,0.00366,0.8225000000000001,0.12250000000000001,-2.9400000000000004,0.925875,-0.01640625,-0.37440625,1.07503125,0.8708750000000001,-0.45715625,-1.024375,1.012125,0.01802131022489583,0.025973425909738005,True
47409,23149,0,23150,2797.0,34558.0,26668.0,0.000366,-0.00122,-0.004209,0.525,-0.28,-3.325,0.9288125,-0.01721875,-0.3713125,1.0755000000000001,0.8749375,-0.45478125,-1.0230625,1.01103125,0.017892717809528558,0.026045972590285463,True
47410,23150,0,23151,2795.0,34558.0,26671.0,-0.000732,0.000244,-0.005307,0.052500000000000005,-1.4175000000000002,-3.4825000000000004,0.92803125,-0.01884375,-0.374375,1.07509375,0.8741875,-0.45303125,-1.02496875,1.01534375,0.017755978617170418,0.02599778471251837,True
47411,23151,0,23152,2795.0,34559.0,26672.0,0.000244,-0.00183,-0.005856,0.22750000000000004,-1.8900000000000001,-3.5000000000000004,0.9301875000000001,-0.01553125,-0.3766875,1.07528125,0.87328125,-0.45359375,-1.0207187500000001,1.020125,0.017914033596800064,0.02573991804292193,True
47412,23152,0,23153,2793.0,34558.0,26672.0,0.001647,-0.0021349999999999997,-0.0025009999999999998,0.21000000000000002,-2.555,-3.43,0.9254375,-0.01325,-0.37471875,1.0763125,0.8864375,-0.46046875,-1.02190625,1.0095,0.018283327051939673,0.025864835937509757,True
47413,23153,0,23154,2794.0,34560.0,26675.0,0.0032329999999999998,-0.002928,0.000366,0.28,-2.9925,-3.43,0.93653125,-0.02025,-0.37675000000000003,1.0749375,0.864,-0.45306250000000003,-1.024375,1.0225312500000001,0.017699725750097765,0.02587976722695372,True
47414,23154,0,23155,2790.0,34561.0,26679.0,0.003538,-0.002989,-0.000305,0.35000000000000003,-3.8325000000000005,-3.4825000000000004,0.91825,-0.01615625,-0.38078125,1.0826875,0.8864375,-0.45387500000000003,-1.019875,1.02409375,0.01789977048627263,0.02554344296284454,True
47415,23155,0,23156,2793.0,34562.0,26680.0,0.002806,-0.00183,0.000549,0.35000000000000003,-4.2,-3.4825000000000004,0.9149375000000001,-0.0139375,-0.37143750000000003,1.0986562500000001,0.8718750000000001,-0.4535,-1.01859375,1.0171875,0.017975443188091685,0.02586701141026361,True
47416,23156,0,23157,2792.0,34563.0,26686.0,0.000793,-6.1e-05,-6.1e-05,0.5075000000000001,-4.585000000000001,-3.5875000000000004,0.92803125,-0.017875000000000002,-0.3659375,1.0698125,0.88678125,-0.46028125000000003,-1.0263125,1.01825,0.01808671966925973,0.02638722744311612,True
47417,23157,0,23158,2794.0,34568.0,26692.0,0.0028669999999999998,0.001464,0.000915,0.5425000000000001,-5.022500000000001,-3.7450000000000006,0.91290625,-0.01259375,-0.3685,1.07496875,0.8775937500000001,-0.45525,-1.0176875,1.0085,0.018100663456721972,0.0259491409827547,True
47418,23158,0,23159,2795.0,34570.0,26696.0,0.003721,0.000488,0.0,0.5075000000000001,-5.180000000000001,-3.6225000000000005,0.94640625,-0.025687500000000002,-0.37321875,1.0639687500000001,0.8718750000000001,-0.45871875,-1.02778125,1.0118125,0.017704576205570866,0.026153436993141377,True
47419,23159,0,23160,2796.0,34570.0,26698.0,0.006222,0.002074,-0.000122,0.45500000000000007,-5.005000000000001,-3.6575,0.9237500000000001,-0.01753125,-0.38306250000000003,1.073125,0.871625,-0.45284375,-1.0247187500000001,1.0233125,0.01780212168574463,0.025640897562535042,True
47420,23160,0,23161,2798.0,34570.0,26701.0,0.011651,0.001647,-0.00244,0.56,-4.567500000000001,-3.5000000000000004,0.9030312500000001,-0.011875,-0.36884375,1.06440625,0.88490625,-0.45546875000000003,-1.02134375,1.00878125,0.018138836533239625,0.02607773613277664,True
47421,23161,0,23162,2797.0,34572.0,26703.0,0.011041,0.00366,-0.000732,0.6300000000000001,-3.6925000000000003,-3.43,0.9422812500000001,-0.02646875,-0.38275000000000003,1.0694375,0.87140625,-0.45415625,-1.02096875,1.01946875,0.017489358276264386,0.02550735570540209,True
47422,23162,0,23163,2798.0,34571.0,26703.0,0.002196,0.000732,-0.0032329999999999998,0.6300000000000001,-2.975,-3.3425000000000002,0.9118125,-0.02328125,-0.382625,1.0935,0.87790625,-0.45387500000000003,-1.02021875,1.01746875,0.017608405620786072,0.025483140510112443,True
47423,23163,0,23164,2800.0,34571.0,26705.0,0.0011589999999999999,-0.000122,-0.003111,0.5075000000000001,-2.1525000000000003,-3.5525,0.91315625,-0.00515625,-0.371125,1.09253125,0.882125,-0.44890625,-1.02115625,1.01203125,0.01815009618272801,0.02597926504695402,True
47424,23164,0,23165,2801.0,34570.0,26707.0,-0.001403,0.0013419999999999999,-0.007808,0.24500000000000002,-1.0325000000000002,-4.0075,0.9364687500000001,-0.01740625,-0.3715625,1.063125,0.87228125,-0.45540625,-1.0207187500000001,1.007625,0.017910150235185728,0.025944748289854786,True
47425,23165,0,23166,2800.0,34572.0,26706.0,-0.006222,-0.000122,-0.0026839999999999998,0.45500000000000007,-0.22750000000000004,-3.8675,0.9234375,-0.0204375,-0.37575000000000003,1.0839375,0.8751875,-0.45396875000000003,-1.0206250000000001,1.0154375,0.017728461765536524,0.025773736667249525,True
47426,23166,0,23167,2802.0,34571.0,26709.0,-0.006405,-0.00244,0.002928,0.47250000000000003,0.22750000000000004,-3.6225000000000005,0.9126875,-0.01540625,-0.37015625,1.07453125,0.88321875,-0.45565625,-1.02228125,1.01134375,0.018001970403063706,0.026061772445308124,True
47427,23167,0,23168,2802.0,34573.0,26711.0,-0.0044529999999999995,-0.0034159999999999998,0.005673,0.525,0.43750000000000006,-3.4650000000000003,0.92853125,-0.01659375,-0.37428125,1.0805,0.87253125,-0.45640625,-1.0244375000000001,1.01209375,0.017983529366666452,0.025980853715493107,True
47428,23168,0,23169,2803.0,34573.0,26711.0,-0.0040869999999999995,-0.002257,0.006771,0.77,0.56,-3.5000000000000004,0.93196875,-0.01940625,-0.377625,1.07603125,0.87265625,-0.45478125,-1.02171875,1.0101875,0.017803266999168108,0.02574138716989615,True
47429,23169,0,23170,2804.0,34575.0,26711.0,-0.007442,-0.0021349999999999997,0.006039,0.6825000000000001,0.77,-3.5700000000000003,0.92525,-0.01384375,-0.37475,1.07421875,0.87003125,-0.45734375,-1.02178125,1.0153125,0.018133612731349863,0.02585872058968624,True
47430,23170,0,23171,2805.0,34579.0,26712.0,-0.006344,-0.001647,0.003538,0.525,0.6300000000000001,-3.5700000000000003,0.930125,-0.0209375,-0.37678125,1.077,0.87490625,-0.45440625,-1.0211875,1.0116875,0.0177255888189884,0.02575442312640037,True
47431,23171,0,23172,2806.0,34577.0,26713.0,-0.003111,0.000549,0.0018909999999999999,0.47250000000000003,0.15750000000000003,-3.6225000000000005,0.92490625,-0.01684375,-0.37378125,1.0814062500000001,0.879625,-0.4576875,-1.0225312500000001,1.011625,0.018024751931269057,0.025926633621448675,True
47432,23172,0,23173,2806.0,34578.0,26717.0,-0.00042699999999999997,0.002074,-6.1e-05,0.525,0.052500000000000005,-3.5525,0.93196875,-0.01915625,-0.3735625,1.0809375,0.87425,-0.4544375,-1.01596875,1.01078125,0.017799683595257507,0.025679846997730203,True
47433,23173,0,23174,2807.0,34580.0,26714.0,0.0006709999999999999,0.0037819999999999998,-0.000305,0.5950000000000001,-0.0175,-3.4825000000000004,0.929625,-0.0175625,-0.37571875,1.0761875,0.8740625,-0.45375,-1.0210000000000001,1.003625,0.017837243776516895,0.025789586747132415,True
47434,23174,0,23175,2808.0,34581.0,26718.0,0.002989,0.004941,-0.002806,0.6125,-0.17500000000000002,-3.5175000000000005,0.92428125,-0.016875,-0.37396875,1.0755625,0.8815625,-0.45625,-1.02403125,1.01946875,0.0179657551750575,0.02597752910015248,True
47435,23175,0,23176,2809.0,34580.0,26718.0,0.003355,0.001952,-0.0044529999999999995,0.5775,-0.35000000000000003,-3.5700000000000003,0.92425,-0.01703125,-0.37534375000000003,1.080125,0.8765625,-0.449625,-1.02140625,1.01146875,0.017693267279150496,0.025820391289957976,True
47436,23176,0,23177,2810.0,34583.0,26720.0,0.003843,0.000732,-0.0035989999999999998,0.2625,-0.35000000000000003,-3.7100000000000004,0.930125,-0.02003125,-0.37471875,1.0829375,0.874375,-0.45487500000000003,-1.021625,1.012,0.017781475063765404,0.02585388638827414,True
47437,23177,0,23178,2811.0,34583.0,26722.0,0.0028669999999999998,0.000488,-0.0035989999999999998,0.29750000000000004,-0.24500000000000002,-3.9200000000000004,0.932125,-0.018875,-0.3771875,1.0815000000000001,0.8743125,-0.4539375,-1.02025,1.01190625,0.0177911021486826,0.025701681637873324,True
47438,23178,0,23179,2813.0,34589.0,26725.0,0.002257,-0.001281,-0.000366,0.2625,-0.035,-3.8675,0.925125,-0.01634375,-0.37415625,1.07459375,0.87409375,-0.45525,-1.0225625,1.0096875,0.01794732214964067,0.025912863640564394,True
47439,23179,0,23180,2814.0,34587.0,26724.0,-0.001403,-0.005124,0.001464,0.22750000000000004,0.21000000000000002,-3.7625,0.9257500000000001,-0.0175625,-0.37471875,1.07709375,0.88290625,-0.45665625,-1.021875,1.012875,0.017953956808793105,0.025863619333083555,True
47440,23180,0,23181,2814.0,34589.0,26727.0,-0.002196,-0.004209,0.0015249999999999999,0.17500000000000002,0.36750000000000005,-3.8675,0.9315,-0.02025,-0.377125,1.07209375,0.8738125,-0.45406250000000004,-1.02075,1.01165625,0.01773989495610392,0.025723649371022058,True
47441,23181,0,23182,2815.0,34591.0,26729.0,-0.0030499999999999998,-0.000793,6.1e-05,0.36750000000000005,0.45500000000000007,-3.99,0.9246562500000001,-0.01746875,-0.37440625,1.07484375,0.87815625,-0.4554375,-1.0233125,1.0179375,0.0179088495145507,0.025932068346267108,True
47442,23182,0,23183,2816.0,34591.0,26735.0,-0.002623,0.0021349999999999997,-0.000732,0.5075000000000001,0.45500000000000007,-4.025,0.9234687500000001,-0.01725,-0.37421875,1.074625,0.880125,-0.45796875000000004,-1.02309375,1.0130000000000001,0.018019433850163868,0.02593104619607637,True
47443,23183,0,23184,2818.0,34590.0,26735.0,-0.0013419999999999999,0.00122,0.000793,0.49000000000000005,0.56,-3.9725000000000006,0.9245,-0.01665625,-0.37325,1.07984375,0.8794062500000001,-0.4560625,-1.0218125,1.011125,0.017967170716872347,0.025919884900424378,True
47444,23184,0,23185,2818.0,34593.0,26737.0,-0.000488,-0.003111,0.005978,0.24500000000000002,0.9275000000000001,-3.6925000000000003,0.93321875,-0.01921875,-0.37534375000000003,1.07609375,0.87428125,-0.4545,-1.02040625,1.0165625,0.01779963810341655,0.02578145588663253,True
47445,23185,0,23186,2821.0,34593.0,26740.0,-0.0018909999999999999,-0.001647,0.007137,0.35000000000000003,1.2775,-3.5875000000000004,0.92553125,-0.0168125,-0.37425,1.075125,0.87653125,-0.45540625,-1.0230000000000001,1.01321875,0.017934429120350433,0.025926147943891628,True
47446,23186,0,23187,2821.0,34594.0,26738.0,-0.0034159999999999998,0.000244,0.004148,0.385,1.435,-3.7100000000000004,0.92453125,-0.0195,-0.37671875,1.0811875,0.8747812500000001,-0.4553125,-1.016125,1.01225,0.017820770026962442,0.0255597639522508,True
47447,23187,0,23188,2822.0,34597.0,26743.0,-0.0018909999999999999,0.001098,-0.000793,0.21000000000000002,1.3650000000000002,-3.9025000000000003,0.93115625,-0.0191875,-0.37703125,1.07953125,0.8747812500000001,-0.44956250000000003,-1.02078125,1.01184375,0.017602564463065545,0.025728613090368634,True
47448,23188,0,23189,2825.0,34596.0,26746.0,0.0008539999999999999,0.0035989999999999998,-0.0057339999999999995,0.12250000000000001,1.3825,-3.9725000000000006,0.9304687500000001,-0.0173125,-0.37340625,1.07459375,0.8739687500000001,-0.45459375,-1.02415625,1.01915625,0.017881354091191966,0.026004872791665058,True
47449,23189,0,23190,2826.0,34598.0,26749.0,0.004331,0.005124,-0.011895,0.21000000000000002,1.4525000000000001,-3.5175000000000005,0.9243750000000001,-0.0171875,-0.37540625,1.0705625,0.8808125,-0.45009375,-1.0215625,1.0120625,0.01770570920612523,0.025823976819992753,True
47450,23190,0,23191,2826.0,34598.0,26753.0,0.0023179999999999997,0.004575,-0.009577,0.47250000000000003,1.8200000000000003,-3.3950000000000005,0.92890625,-0.01675,-0.3735625,1.0718125,0.86359375,-0.45703125,-1.024125,1.02315625,0.018002236064526434,0.025997412496940448,True
47451,23191,0,23192,2827.0,34598.0,26753.0,-0.0015249999999999999,0.0057339999999999995,-0.0053679999999999995,0.7000000000000001,2.0825,-3.3775000000000004,0.92509375,-0.016625,-0.37240625,1.08084375,0.88725,-0.4575,-1.01684375,1.00734375,0.018026167842175204,0.025760144102910665,True
47452,23192,0,23193,2830.0,34599.0,26754.0,-0.002562,0.0015249999999999999,0.000305,0.7175,2.205,-3.43,0.93303125,-0.0203125,-0.37365625,1.073875,0.86953125,-0.4525,-1.01640625,1.017375,0.017674573152029444,0.025693138877611564,True
47453,23193,0,23194,2830.0,34599.0,26756.0,-0.0030499999999999998,-0.0025009999999999998,0.0059169999999999995,0.5775,2.2750000000000004,-3.5875000000000004,0.9208437500000001,-0.017968750000000002,-0.37009375,1.079375,0.8869375,-0.45990625,-1.0199375,1.00525,0.018067832946007306,0.025973036503388544,True
47454,23194,0,23195,2830.0,34599.0,26749.0,-0.012383,-0.008905999999999999,0.011467999999999999,0.56,1.9775000000000003,-3.4650000000000003,0.92534375,-0.0173125,-0.37343750000000003,1.07509375,0.85484375,-0.45196875000000003,-1.02046875,1.0284375000000001,0.017775920394957973,0.025860077061905563,True
47455,23195,0,23196,2832.0,34598.0,26745.0,-0.015799,-0.0077469999999999995,0.01098,0.6475000000000001,1.3825,-3.5000000000000004,0.925,-0.02021875,-0.37571875,1.08084375,0.8894062500000001,-0.44915625000000003,-1.017625,1.00615625,0.017544061464288774,0.02565816099649747,True
47456,23196,0,23197,2833.0,34597.0,26738.0,-0.016104,-0.0055509999999999995,0.008601,0.6300000000000001,0.45500000000000007,-3.5875000000000004,0.9253750000000001,-0.01690625,-0.37303125,1.07490625,0.86759375,-0.45515625,-1.017375,1.02915625,0.017920556119938917,0.02575584968446929,True
47457,23197,0,23198,2831.0,34595.0,26728.0,-0.013176,-0.001769,0.0060999999999999995,0.6125,-0.7000000000000001,-3.6050000000000004,0.92584375,-0.018000000000000002,-0.3751875,1.08059375,0.88996875,-0.45690625,-1.020375,1.0031875000000001,0.01794610673621076,0.025786484015527345,True
47458,23198,0,23199,2830.0,34589.0,26721.0,-0.008479,0.00061,0.0021349999999999997,0.665,-2.2925000000000004,-3.5875000000000004,0.92403125,-0.0095,-0.373375,1.06771875,0.867125,-0.4580625,-1.02775,1.0248125000000001,0.018340066798013945,0.026145977964459447,True
47459,23199,0,23200,2829.0,34586.0,26713.0,0.001464,0.0048189999999999995,-0.0025009999999999998,0.7175,-5.442500000000001,-3.5875000000000004,0.92515625,-0.01678125,-0.37593750000000004,1.07059375,0.889125,-0.46253125,-1.021125,1.00659375,0.018221744734613264,0.025785711074142348,True
47460,23200,0,23201,2829.0,34584.0,26705.0,0.0066489999999999995,0.0059169999999999995,-0.0040869999999999995,0.6125,-6.86,-3.8150000000000004,0.928,-0.017125,-0.373625,1.07453125,0.8674375,-0.45628125,-1.0225,1.02759375,0.017956787686190027,0.025931661504645816,True
47461,23201,0,23202,2825.0,34582.0,26702.0,0.012627,0.00488,-0.004148,0.43750000000000006,-8.0325,-3.7975000000000003,0.92715625,-0.016375,-0.3731875,1.08034375,0.87521875,-0.4564375,-1.02209375,1.00525,0.017993728645065335,0.025933331418359025,True
47462,23202,0,23203,2823.0,34582.0,26698.0,0.017324,0.001647,-0.004758,0.17500000000000002,-8.75,-3.8325000000000005,0.93325,-0.02128125,-0.37475,1.0737812500000001,0.86734375,-0.452625,-1.01696875,1.01084375,0.017639977303050287,0.025671325587757306,True
47463,23203,0,23204,2823.0,34576.0,26693.0,0.017568,-0.0008539999999999999,-0.003843,0.0175,-9.047500000000001,-3.8325000000000005,0.9245,-0.0169375,-0.372625,1.078,0.87540625,-0.455,-1.0213125,1.01040625,0.01791300347577183,0.02592539859769547,True
47464,23204,0,23205,2819.0,34575.0,26691.0,0.010553,-0.0008539999999999999,-0.007442,0.052500000000000005,-8.96,-4.025,0.93209375,-0.0190625,-0.37590625,1.07584375,0.87275,-0.45453125,-1.01965625,1.01078125,0.01780728264828221,0.025729769968362372,True
47465,23205,0,23206,2815.0,34574.0,26689.0,0.009211,0.000549,-0.00549,0.10500000000000001,-8.540000000000001,-4.1475,0.9267500000000001,-0.0166875,-0.37390625,1.07334375,0.880375,-0.45825,-1.02340625,1.01775,0.018053724203489618,0.025955698976832944,True
47466,23206,0,23207,2814.0,34574.0,26689.0,0.008235,-0.001281,-0.000244,0.17500000000000002,-8.015,-4.112500000000001,0.92415625,-0.01653125,-0.3755,1.080625,0.87440625,-0.45453125,-1.01984375,1.0115625,0.017910791072717865,0.025753308311527726,True
47467,23207,0,23208,2814.0,34572.0,26689.0,0.0046359999999999995,-0.0006709999999999999,0.000488,0.35000000000000003,-7.490000000000001,-4.095000000000001,0.93125,-0.0190625,-0.37184375000000003,1.0795625,0.87403125,-0.4544375,-1.0189062500000001,1.011625,0.01780351725530387,0.025862941150754746,True
47468,23208,0,23209,2811.0,34573.0,26690.0,0.002074,-0.00183,0.001281,0.17500000000000002,-6.825000000000001,-4.0075,0.93003125,-0.01990625,-0.37559375,1.0772187500000001,0.87409375,-0.45556250000000004,-1.0195625,1.01196875,0.01781419871246061,0.025738609538036486,True
47469,23209,0,23210,2814.0,34575.0,26694.0,0.0018909999999999999,0.001098,-0.000366,0.08750000000000001,-5.862500000000001,-4.2875000000000005,0.92453125,-0.01653125,-0.37365625,1.07490625,0.878625,-0.45540625,-1.018875,1.01678125,0.017945929644902138,0.02578927909428381,True
47470,23210,0,23211,2812.0,34575.0,26698.0,0.000366,0.00122,-0.001098,0.17500000000000002,-5.285,-4.235,0.9251875,-0.0171875,-0.3736875,1.06821875,0.8811875,-0.45721875,-1.0206875,1.01025,0.017991876120419456,0.02585860200683934,True
47471,23211,0,23212,2812.0,34576.0,26703.0,0.000244,0.003172,-0.0028669999999999998,0.24500000000000002,-4.7250000000000005,-4.235,0.9245,-0.0164375,-0.37543750000000004,1.08025,0.87403125,-0.45590625,-1.016375,1.01165625,0.017969841129890658,0.025620718429428722,True
47472,23212,0,23213,2812.0,34579.0,26706.0,0.001281,0.001281,-0.002379,0.0,-4.165,-4.340000000000001,0.9251875,-0.0168125,-0.37303125,1.077875,0.87509375,-0.4583125,-1.0213125,1.0034375,0.01805112270112666,0.02590916243902074,True
47473,23213,0,23214,2814.0,34580.0,26712.0,-0.005124,-0.001952,-0.002623,-0.12250000000000001,-3.6750000000000003,-4.532500000000001,0.93365625,-0.017937500000000002,-0.374,1.0735937500000001,0.8744375,-0.4539375,-1.021125,1.01971875,0.017829439532999543,0.025863145641932567,True
47474,23214,0,23215,2814.0,34583.0,26713.0,-0.009394,-0.002196,0.00122,0.07,-2.5725000000000002,-4.357500000000001,0.9249375,-0.020125,-0.3791875,1.0846875,0.875375,-0.45506250000000004,-1.015625,1.01146875,0.01778517229305793,0.02544159900062461,True
47475,23215,0,23216,2813.0,34586.0,26716.0,-0.006954,-0.001952,0.002013,0.14,-2.6075000000000004,-4.41,0.92325,-0.0163125,-0.37225,1.08421875,0.8805000000000001,-0.45809375,-1.02178125,1.01159375,0.018062783408866443,0.02595863354052782,True
47476,23216,0,23217,2815.0,34585.0,26718.0,-0.005063,-0.0018909999999999999,0.0035989999999999998,0.22750000000000004,-2.8350000000000004,-4.340000000000001,0.93521875,-0.01859375,-0.37275,1.07203125,0.874375,-0.457625,-1.0233125,1.01775,0.017950690224418763,0.02599825662569654,True
47477,23217,0,23218,2815.0,34586.0,26721.0,-0.003294,-0.000488,0.004575,0.31500000000000006,-3.0625000000000004,-4.322500000000001,0.922,-0.02053125,-0.37840625,1.07384375,0.87590625,-0.45453125,-1.01946875,1.01859375,0.017747222204473865,0.025622546441958317,True
47478,23218,0,23219,2816.0,34587.0,26721.0,0.0042699999999999995,0.000366,-0.000549,0.35000000000000003,-3.5875000000000004,-4.550000000000001,0.92196875,-0.015875,-0.37584375000000003,1.07515625,0.881,-0.45421875,-1.019625,1.01571875,0.017925076833624057,0.025731051124866976,True
47479,23219,0,23220,2817.0,34586.0,26722.0,0.0057339999999999995,0.003538,0.001403,0.29750000000000004,-3.3425000000000002,-4.795000000000001,0.91615625,-0.01659375,-0.371375,1.0818125,0.8811875,-0.45721875,-1.02034375,1.012,0.018016153206300286,0.025937643242811167,True
47480,23220,0,23221,2816.0,34584.0,26721.0,0.004941,0.0025009999999999998,0.001281,0.17500000000000002,-3.08,-4.760000000000001,0.91325,-0.01634375,-0.3755625,1.08590625,0.88021875,-0.456125,-1.02003125,1.0111875000000001,0.017982458382102644,0.025758111313310208,True
47481,23221,0,23222,2818.0,34586.0,26722.0,0.004575,-0.000366,0.001769,0.0175,-2.765,-4.6725,0.9180625,-0.01625,-0.36890625,1.0865625,0.88071875,-0.45665625,-1.02025,1.0064375,0.01800762318029473,0.026032663542530553,True
47482,23222,0,23223,2816.0,34586.0,26722.0,-0.0006709999999999999,-6.1e-05,-0.00061,-0.10500000000000001,-2.5725000000000002,-4.8825,0.9362812500000001,-0.01834375,-0.3716875,1.0715000000000001,0.8715625,-0.45284375,-1.01546875,1.01046875,0.017768894466517825,0.02573532626687237,True
47483,23223,0,23224,2819.0,34587.0,26722.0,-0.008601,-0.000366,-0.003904,0.12250000000000001,-2.415,-4.8825,0.9380000000000001,-0.01903125,-0.3715,1.07246875,0.8737812500000001,-0.45465625,-1.02146875,1.0109375,0.017813581002595363,0.025976442729805777,True
47484,23224,0,23225,2820.0,34585.0,26721.0,-0.010431,-0.001098,-0.003538,0.1925,-2.8525000000000005,-4.777500000000001,0.9342812500000001,-0.021843750000000002,-0.375,1.0679375,0.874375,-0.45456250000000004,-1.02140625,1.0080625,0.017694806439493654,0.02583412952659286,True
47485,23225,0,23226,2819.0,34586.0,26723.0,-0.006771,-0.001403,-0.001098,0.052500000000000005,-3.43,-4.7250000000000005,0.9218125,-0.0185,-0.37778125,1.07325,0.87653125,-0.45437500000000003,-1.0195625,1.01621875,0.017824008996345238,0.02565117795325158,True
47486,23226,0,23227,2818.0,34588.0,26723.0,-6.1e-05,-0.0006709999999999999,0.0006709999999999999,0.15750000000000003,-3.9550000000000005,-4.567500000000001,0.9221875,-0.0156875,-0.3713125,1.082375,0.8780625,-0.45503125,-1.01959375,1.01125,0.01796537266743423,0.025910942298973186,True
47487,23227,0,23228,2819.0,34587.0,26725.0,0.003294,0.00183,0.0013419999999999999,0.24500000000000002,-4.235,-4.4625,0.9300625,-0.0139375,-0.3731875,1.0751875,0.87525,-0.45465625,-1.01809375,1.01534375,0.018021874668551107,0.025777593466728456,True
47488,23228,0,23229,2820.0,34589.0,26725.0,0.003111,0.0034159999999999998,0.001037,0.36750000000000005,-4.515000000000001,-4.567500000000001,0.920625,-0.016125,-0.3733125,1.08209375,0.877,-0.4556875,-1.02040625,1.012125,0.017973835329716248,0.02586263962040984,True
47489,23229,0,23230,2821.0,34590.0,26727.0,0.0006709999999999999,0.002806,0.000549,0.17500000000000002,-4.655,-4.7250000000000005,0.926,-0.017125,-0.37309375,1.06990625,0.8753125,-0.45865625,-1.0227187500000001,1.014625,0.01805214667097666,0.02596140757086998,True
47490,23230,0,23231,2821.0,34591.0,26729.0,0.001403,0.003538,0.000976,0.052500000000000005,-4.9175,-4.8825,0.9251875,-0.01909375,-0.37659375,1.07890625,0.87590625,-0.45465625,-1.0159375,1.0106875,0.01781102525209284,0.025557457121085304,True
47491,23231,0,23232,2820.0,34590.0,26730.0,0.010858,0.001281,0.0,-0.14,-5.197500000000001,-4.9350000000000005,0.9251875,-0.01309375,-0.37325,1.072125,0.87034375,-0.46334375,-1.03184375,1.01578125,0.018405088225112318,0.02631023733519429,True
47492,23232,0,23233,2821.0,34592.0,26729.0,0.016653,-0.002196,-0.002379,-0.22750000000000004,-5.022500000000001,-4.742500000000001,0.93265625,-0.0209375,-0.37425,1.074125,0.88196875,-0.4488125,-1.0145,1.00140625,0.01750084999015801,0.025595154810210078,True
47493,23233,0,23234,2821.0,34589.0,26732.0,0.0057339999999999995,-0.0071979999999999995,-0.00183,-0.5075000000000001,-3.1675000000000004,-4.952500000000001,0.92471875,-0.01684375,-0.3688125,1.07484375,0.88403125,-0.4639375,-1.02903125,1.0328125,0.018275625091014068,0.026378118409996397,True
47494,23234,0,23235,2822.0,34592.0,26730.0,-0.001952,-0.0064659999999999995,0.0,-0.45500000000000007,-2.1,-5.11,0.9301875000000001,-0.020625,-0.3710625,1.0754062500000001,0.879625,-0.45375,-1.01559375,0.99765625,0.01771200736083423,0.025765178969617702,True
47495,23235,0,23236,2825.0,34595.0,26736.0,-0.003111,-0.005124,-6.1e-05,-0.42000000000000004,-1.1900000000000002,-5.407500000000001,0.9245,-0.01725,-0.373125,1.0752187500000001,0.86290625,-0.453625,-1.02396875,1.03096875,0.017845002530299702,0.026008814049530017,True
47496,23236,0,23237,2824.0,34595.0,26737.0,-0.002074,0.001098,-0.002074,-0.385,-0.7875000000000001,-5.5825000000000005,0.92525,-0.017125,-0.37325,1.08146875,0.89984375,-0.46768750000000003,-1.0230625,1.01546875,0.018414592715392496,0.025968544018143257,True
47497,23237,0,23238,2824.0,34595.0,26739.0,-0.0028669999999999998,0.004209,-0.002623,-0.08750000000000001,-0.385,-5.495,0.93190625,-0.0203125,-0.37546875,1.07575,0.87484375,-0.45259375,-1.0164375,1.005875,0.01767833933772363,0.025621903598384066,True
47498,23238,0,23239,2827.0,34597.0,26743.0,-0.010614,0.0046359999999999995,-0.0035989999999999998,0.052500000000000005,0.22750000000000004,-5.442500000000001,0.933,-0.01690625,-0.37293750000000003,1.07528125,0.8513437500000001,-0.44284375000000004,-1.02015625,1.0270625,0.01742585700569313,0.025867894010454074,True
47499,23239,0,23240,2827.0,34598.0,26744.0,-0.009882,0.002379,-0.001281,0.052500000000000005,-0.035,-5.477500000000001,0.9241875,-0.01859375,-0.37421875,1.0713125000000001,0.8955000000000001,-0.45106250000000003,-1.01440625,1.0050937500000001,0.017687114823742325,0.025592752176558254,True
47500,23240,0,23241,2827.0,34599.0,26746.0,-0.00793,0.002013,0.00061,0.07,-0.35000000000000003,-5.2675,0.9253125,-0.014125,-0.37203125,1.08090625,0.8760625,-0.46240625,-1.0225625,1.00790625,0.01832531294831227,0.025997786997234998,True
47501,23241,0,23242,2829.0,34600.0,26750.0,-0.008113,0.00122,0.002257,0.21000000000000002,-0.9450000000000001,-5.1625000000000005,0.93034375,-0.01703125,-0.37296875,1.073375,0.86175,-0.44921875,-1.0239375,1.0249375,0.017676945198913566,0.026013841746527697,True
47502,23242,0,23243,2830.0,34605.0,26751.0,-0.009455,-0.000549,0.0066489999999999995,0.21000000000000002,-1.715,-5.1275,0.91178125,-0.0171875,-0.37275,1.0745625,0.89234375,-0.46015625,-1.0215,1.01546875,0.018109808681209875,0.025927702176128532,True
47503,23243,0,23244,2831.0,34604.0,26757.0,-0.0034159999999999998,-0.0066489999999999995,0.00793,-0.15750000000000003,-3.7275000000000005,-4.9175,0.92534375,-0.02003125,-0.37284375000000003,1.08003125,0.8705625,-0.45315625,-1.01225,1.00878125,0.01771243742819498,0.02556372377535008,True
47504,23244,0,23245,2831.0,34604.0,26755.0,0.0062829999999999995,-0.004697,0.004331,-0.035,-5.040000000000001,-4.9175,0.932,-0.01996875,-0.374125,1.0751875,0.8785937500000001,-0.4561875,-1.02040625,1.01821875,0.01783674376883151,0.025830166126898913,True
47505,23245,0,23246,2833.0,34606.0,26758.0,0.014579,-0.000488,0.000366,-0.0175,-5.9675,-4.742500000000001,0.92484375,-0.01746875,-0.37275,1.07096875,0.8797812500000001,-0.4568125,-1.02365625,1.01315625,0.01796406420501445,0.026011636488972308,True
47506,23246,0,23247,2835.0,34607.0,26759.0,0.014823,0.003111,-0.0030499999999999998,0.22750000000000004,-6.16,-4.357500000000001,0.92440625,-0.01696875,-0.37265625,1.0754062500000001,0.874,-0.45496875000000003,-1.0193125,1.0126875,0.017910470648219497,0.025846283745806366,True
47507,23247,0,23248,2835.0,34604.0,26759.0,0.00976,0.0068319999999999995,-0.004209,0.31500000000000006,-6.107500000000001,-4.165,0.920625,-0.0191875,-0.3745625,1.0786875,0.874625,-0.454125,-1.0194375,1.0115,0.017785854124815342,0.025774959968624396,True
47508,23248,0,23249,2837.0,34604.0,26754.0,0.0042699999999999995,0.008173999999999999,-0.0060999999999999995,0.035,-6.300000000000001,-4.2700000000000005,0.9304375,-0.01825,-0.37521875,1.0799375,0.87346875,-0.45437500000000003,-1.01934375,1.0123125,0.017834232115930177,0.025745079744547657,True
47509,23249,0,23250,2838.0,34603.0,26747.0,0.0075639999999999995,0.003355,-0.0032329999999999998,-0.10500000000000001,-6.3875,-4.340000000000001,0.9285625000000001,-0.019125,-0.3758125,1.0759375,0.8738125,-0.45384375,-1.0195625,1.0188125000000001,0.0177771132605687,0.025729866379557993,True
47510,23250,0,23251,2836.0,34598.0,26737.0,0.00793,-0.003721,-0.002562,-0.2625,-6.072500000000001,-4.1825,0.9250625,-0.0165,-0.37328125,1.075,0.8807812500000001,-0.458125,-1.021375,1.012625,0.01805637186006695,0.025901604128470156,True
47511,23251,0,23252,2836.0,34593.0,26726.0,0.004331,-0.010369999999999999,-0.005856,-0.5775,-5.407500000000001,-4.095000000000001,0.92571875,-0.01725,-0.37234375000000003,1.07484375,0.88034375,-0.45540625,-1.0219375,1.0110000000000001,0.01791653941549223,0.025960969249483577,True
47512,23252,0,23253,2834.0,34591.0,26721.0,-0.0015249999999999999,-0.011285,-0.0018909999999999999,-0.5775,-4.6025,-4.0075,0.91696875,-0.01603125,-0.37246875,1.0780625,0.8746875000000001,-0.4549375,-1.0165625,1.0115,0.017947551491391052,0.025746692816009397,True
47513,23253,0,23254,2833.0,34590.0,26715.0,-0.009455,-0.004209,0.0021349999999999997,-0.14,-3.6925000000000003,-3.9200000000000004,0.92140625,-0.0161875,-0.37271875,1.07503125,0.8745625,-0.45440625,-1.018875,1.01084375,0.017919827842886187,0.025826750803143624,True
47514,23254,0,23255,2830.0,34589.0,26707.0,-0.003294,-0.002928,0.00122,-0.10500000000000001,-4.2,-4.130000000000001,0.92128125,-0.0175625,-0.37121875,1.070125,0.87434375,-0.45487500000000003,-1.0189062500000001,1.01021875,0.017882426305593467,0.025887922258791794,True
47515,23255,0,23256,2827.0,34587.0,26703.0,0.007869,0.001037,0.005673,0.2625,-4.6025,-4.322500000000001,0.92078125,-0.0155625,-0.36890625,1.06984375,0.8708125,-0.45559375,-1.01928125,1.01134375,0.017993071625995588,0.02599495139373758,True
47516,23256,0,23257,2825.0,34582.0,26697.0,0.010248,0.006039,0.004575,0.45500000000000007,-4.375,-4.2525,0.91871875,-0.01584375,-0.3745,1.09134375,0.8748750000000001,-0.45428125,-1.0186875,1.0020625,0.01792886470543885,0.025748253180747388,True
47517,23257,0,23258,2822.0,34580.0,26692.0,0.0023179999999999997,0.005856,0.004697,0.5075000000000001,-3.7100000000000004,-3.8325000000000005,0.9409375,-0.0231875,-0.37890625,1.078,0.8794062500000001,-0.45646875000000003,-1.02046875,1.0181875,0.01771642727448132,0.025641506016948624,True
47518,23258,0,23259,2818.0,34580.0,26688.0,-0.004697,0.0051849999999999995,-0.004758,0.15750000000000003,-3.3425000000000002,-4.235,0.91715625,-0.01853125,-0.36759375,1.0710625,0.8799375,-0.4584375,-1.02296875,1.0169375,0.017985868884715144,0.02619093707656091,True
47519,23259,0,23260,2813.0,34578.0,26689.0,0.001464,0.003294,-0.009516,-0.07,-3.7100000000000004,-4.357500000000001,0.9206562500000001,-0.0161875,-0.3700625,1.0694062500000001,0.881125,-0.45725,-1.019125,1.011625,0.018034018542558955,0.025942653869789615,True
47520,23260,0,23261,2812.0,34578.0,26687.0,0.0048189999999999995,0.001403,-0.010187,-0.0175,-4.0425,-4.567500000000001,0.9185625000000001,-0.01453125,-0.3685,1.08353125,0.874125,-0.45453125,-1.01796875,1.0115625,0.017992575506839862,0.02596009118446117,True
47521,23261,0,23262,2810.0,34579.0,26687.0,0.00488,0.00122,-0.009699,-0.052500000000000005,-3.9550000000000005,-4.6025,0.94221875,-0.025,-0.3735,1.07334375,0.86625,-0.45703125,-1.02134375,1.006375,0.017664909758824468,0.02589164500807436,True
47522,23262,0,23263,2810.0,34577.0,26688.0,0.003477,-0.0008539999999999999,-0.0030499999999999998,0.08750000000000001,-3.6400000000000006,-4.375,0.9088437500000001,-0.0104375,-0.36990625,1.06903125,0.8703125,-0.45646875000000003,-1.0200625,1.0115625,0.018237761737372654,0.0259853967191329,True
47523,23263,0,23264,2808.0,34577.0,26687.0,0.004697,-0.0042699999999999995,0.007991,0.1925,-2.765,-4.2175,0.91725,-0.01528125,-0.36975,1.0691875,0.8750625,-0.45475,-1.01859375,1.01178125,0.017970690765597683,0.02593446124444944,True
47524,23264,0,23265,2807.0,34580.0,26687.0,0.005246,-0.003172,0.007991,0.15750000000000003,-2.4675000000000002,-4.2,0.9184687500000001,-0.014968750000000001,-0.36571875,1.06878125,0.8743125,-0.45490625,-1.01878125,1.011375,0.017989743878081724,0.026102890203734443,True
47525,23265,0,23266,2806.0,34579.0,26692.0,0.00183,-0.002928,0.00549,0.0,-1.995,-3.9725000000000006,0.91834375,-0.01459375,-0.36909375,1.0689375,0.8745937500000001,-0.45346875000000003,-1.019125,1.00190625,0.017947351538828208,0.02598137424869975,True
47526,23266,0,23267,2805.0,34578.0,26696.0,0.002989,-0.001952,0.002806,0.17500000000000002,-1.2950000000000002,-3.9200000000000004,0.9206562500000001,-0.01609375,-0.37159375,1.07659375,0.87425,-0.4498125,-1.01875,1.01203125,0.017739144216341127,0.025866849862603052,True
47527,23267,0,23268,2805.0,34581.0,26700.0,-0.002074,0.004148,-0.001037,0.17500000000000002,-0.5075000000000001,-4.112500000000001,0.927875,-0.0190625,-0.37293750000000003,1.07296875,0.874375,-0.45684375,-1.01925,1.01971875,0.017900153203538376,0.02583260889115381,True
47528,23268,0,23269,2805.0,34583.0,26705.0,-0.011956,0.002562,-0.0059169999999999995,0.22750000000000004,0.0,-4.1825,0.924,-0.01653125,-0.3725625,1.08028125,0.87534375,-0.45521875,-1.01403125,1.01075,0.017938400162541994,0.025644357104575057,True
47529,23269,0,23270,2806.0,34585.0,26707.0,-0.008113,0.001464,-0.004514,0.10500000000000001,-0.3325,-4.2875000000000005,0.93315625,-0.02,-0.37603125,1.0795625,0.87471875,-0.45478125,-1.01825,1.01540625,0.017778987493498842,0.025670010892048806,True
47530,23270,0,23271,2807.0,34586.0,26709.0,-0.0008539999999999999,0.00042699999999999997,-0.000488,0.15750000000000003,-0.77,-4.357500000000001,0.932,-0.02053125,-0.37503125,1.0819375,0.87421875,-0.45471875,-1.017875,1.01240625,0.01775475336431747,0.025695377804869524,True
47531,23271,0,23272,2807.0,34586.0,26709.0,0.000976,-0.000183,0.001037,0.3325,-0.7875000000000001,-4.357500000000001,0.93259375,-0.0195625,-0.37634375000000003,1.08059375,0.8734375,-0.45459375,-1.01846875,1.01521875,0.017789346837953503,0.025666039213531007,True
47532,23272,0,23273,2808.0,34583.0,26711.0,-0.001403,-0.001586,0.005612,0.28,-0.7175,-4.2700000000000005,0.93196875,-0.021,-0.3723125,1.074375,0.87996875,-0.45703125,-1.02059375,1.01665625,0.017828461907043604,0.025909906714344056,True
47533,23273,0,23274,2806.0,34586.0,26712.0,-0.002989,-0.000244,0.005612,0.28,-1.0325000000000002,-4.305000000000001,0.9196562500000001,-0.0159375,-0.37225,1.06446875,0.87865625,-0.45553125,-1.0186875,1.01075,0.01797522799673387,0.02583818595599789,True
47534,23274,0,23275,2809.0,34584.0,26714.0,-0.001403,-0.0006709999999999999,0.0028669999999999998,0.14,-1.435,-4.41,0.92996875,-0.01825,-0.37465625,1.08078125,0.87471875,-0.45546875000000003,-1.01840625,1.0116875,0.017878158642941573,0.02573105551038048,True
47535,23275,0,23276,2808.0,34586.0,26715.0,0.002623,-0.0017079999999999999,-0.0011589999999999999,-0.07,-1.9075000000000002,-4.340000000000001,0.9319375,-0.01984375,-0.372875,1.08096875,0.87475,-0.45409375,-1.0145625,1.01146875,0.017757762951244108,0.025652557385323047,True
47536,23276,0,23277,2809.0,34584.0,26714.0,0.002074,-0.0040869999999999995,-0.0048189999999999995,0.0,-2.3625000000000003,-4.130000000000001,0.93053125,-0.0170625,-0.36728125,1.07625,0.8746875000000001,-0.4548125,-1.0188125000000001,1.01203125,0.017900362147532312,0.026041653655624147,True
47537,23277,0,23278,2810.0,34584.0,26715.0,-0.001403,-0.000793,-0.002013,0.052500000000000005,-2.87,-3.99,0.9250625,-0.0174375,-0.37221875,1.06909375,0.87090625,-0.45428125,-1.01978125,1.00409375,0.017863692068234474,0.025882020851001646,True
47538,23278,0,23279,2809.0,34584.0,26714.0,0.00244,0.001952,-0.0030499999999999998,0.4025,-3.1325000000000003,-3.9025000000000003,0.9244687500000001,-0.0174375,-0.3695,1.07275,0.8741875,-0.45503125,-1.02040625,1.00540625,0.017893812750699307,0.026015015243807244,True
47539,23279,0,23280,2808.0,34583.0,26714.0,0.004392,0.001769,-0.001098,0.36750000000000005,-3.3950000000000005,-3.8325000000000005,0.92340625,-0.0168125,-0.3731875,1.07396875,0.88215625,-0.456625,-1.0208125000000001,1.01678125,0.01798336851466627,0.025883452026188202,True
47540,23280,0,23281,2810.0,34584.0,26715.0,0.004941,0.001098,0.001647,0.31500000000000006,-3.5000000000000004,-3.7100000000000004,0.92490625,-0.0170625,-0.36784375,1.07453125,0.8827812500000001,-0.4583125,-1.01459375,1.018125,0.018040901227343465,0.02585490719792321,True
47541,23281,0,23282,2810.0,34584.0,26714.0,0.002806,0.000488,0.002074,0.29750000000000004,-3.4650000000000003,-3.4825000000000004,0.9254687500000001,-0.0180625,-0.37393750000000003,1.08275,0.8810625,-0.45859375,-1.02078125,1.01703125,0.01801130737534737,0.02585226030861846,True
47542,23282,0,23283,2812.0,34584.0,26715.0,6.1e-05,0.0021349999999999997,0.0013419999999999999,0.43750000000000006,-3.2375000000000003,-3.3775000000000004,0.933625,-0.019875,-0.374125,1.07334375,0.874375,-0.45521875,-1.01790625,1.0113125,0.017801670655675488,0.025732818868485448,True
47543,23283,0,23284,2811.0,34583.0,26716.0,-0.001281,0.001037,-6.1e-05,0.4025,-3.4825000000000004,-3.3775000000000004,0.93209375,-0.0205,-0.37315625,1.07971875,0.8745937500000001,-0.45475,-1.012375,1.01115625,0.0177572864167493,0.025556099730633337,True
47544,23284,0,23285,2811.0,34585.0,26716.0,0.001281,-0.000244,-0.000915,0.31500000000000006,-3.4475000000000002,-3.4825000000000004,0.9304375,-0.018875,-0.37325,1.07971875,0.8747812500000001,-0.45556250000000004,-1.0185,1.01175,0.017856367033062523,0.025790914723104897,True
47545,23285,0,23286,2812.0,34586.0,26716.0,0.002196,-0.000305,-0.0015249999999999999,0.17500000000000002,-3.5000000000000004,-3.3950000000000005,0.9298125,-0.0186875,-0.37315625,1.0792187500000001,0.87453125,-0.455,-1.0181875,1.0112812500000001,0.01784144346759354,0.025782493236170684,True
47546,23286,0,23287,2811.0,34586.0,26716.0,0.0021349999999999997,-0.0008539999999999999,-0.002806,0.12250000000000001,-3.3950000000000005,-3.2725000000000004,0.92984375,-0.01821875,-0.37293750000000003,1.07203125,0.876,-0.45471875,-1.0189062500000001,1.01059375,0.017849315891232648,0.025819224211689914,True
47547,23287,0,23288,2812.0,34586.0,26719.0,-0.001769,0.000366,-0.0006709999999999999,0.4025,-2.8525000000000005,-3.1500000000000004,0.9276562500000001,-0.01934375,-0.37228125,1.07534375,0.86759375,-0.45465625,-1.01853125,1.01196875,0.017800802250082744,0.02583085288030248,True
47548,23288,0,23289,2812.0,34586.0,26723.0,-0.001403,-0.002257,0.000793,0.21000000000000002,-2.7125000000000004,-3.3425000000000002,0.92571875,-0.01615625,-0.3726875,1.07478125,0.86365625,-0.45456250000000004,-1.02228125,1.01940625,0.01792738062682577,0.02596061260401667,True
47549,23289,0,23290,2812.0,34588.0,26724.0,0.003843,-0.0023179999999999997,-6.1e-05,0.052500000000000005,-2.5725000000000002,-3.535,0.9248125,-0.017875000000000002,-0.37434375000000003,1.07225,0.88134375,-0.45846875000000004,-1.02184375,1.01484375,0.01801395477793351,0.02587738963081008,True
47550,23290,0,23291,2813.0,34589.0,26724.0,0.006039,-0.0013419999999999999,-0.001037,-0.035,-2.5025000000000004,-3.6400000000000006,0.9281875,-0.01825,-0.37375,1.0795625,0.8629375,-0.4535,-1.0185,0.99909375,0.017799088065103157,0.025770929512161,True
47551,23291,0,23292,2814.0,34589.0,26726.0,0.009271999999999999,0.0017079999999999999,-0.001769,0.15750000000000003,-1.995,-3.7800000000000002,0.92690625,-0.016625,-0.3720625,1.07425,0.87265625,-0.4523125,-1.0194375,1.011625,0.017817844426779673,0.02587488227902806,True
47552,23292,0,23293,2816.0,34591.0,26729.0,0.0025009999999999998,-0.00042699999999999997,0.002562,0.10500000000000001,-0.31500000000000006,-4.025,0.91703125,-0.0165,-0.37178125,1.07465625,0.87584375,-0.45609375,-1.01478125,1.01965625,0.017974814559254787,0.025704802035796337,True
47553,23293,0,23294,2815.0,34592.0,26729.0,0.002928,-0.003965,0.000366,-0.2625,0.5425000000000001,-4.2875000000000005,0.91534375,-0.021812500000000002,-0.380125,1.09059375,0.88765625,-0.4549375,-1.0160625,1.00921875,0.01771114728876326,0.02542116690026658,True
47554,23294,0,23295,2816.0,34593.0,26732.0,-0.0017079999999999999,-0.003721,-0.00244,-0.15750000000000003,1.2950000000000002,-4.48,0.95375,-0.01728125,-0.36975,1.06765625,0.8728125,-0.45246875000000003,-1.01659375,1.00815625,0.017797282738578286,0.025856587689920815,True
47555,23295,0,23296,2818.0,34594.0,26734.0,-0.006161,0.0025009999999999998,-0.0015249999999999999,-0.052500000000000005,2.1175,-4.8475,0.91109375,-0.008843750000000001,-0.36662500000000003,1.06265625,0.87184375,-0.4543125,-1.01703125,1.0084375,0.018216367767443883,0.025998538495649842,True
47556,23296,0,23297,2818.0,34597.0,26739.0,-0.008052,0.00183,-0.0037819999999999998,0.0,2.4850000000000003,-4.952500000000001,0.92159375,-0.024625,-0.37996875,1.0856875,0.87084375,-0.45309375,-1.01921875,1.01084375,0.01752206712085255,0.02555035816216284,True
47557,23297,0,23298,2821.0,34599.0,26742.0,-0.010003999999999999,0.000976,0.000183,-0.1925,2.87,-5.215000000000001,0.9475,-0.02359375,-0.378875,1.0866875,0.87590625,-0.4568125,-1.01996875,1.02165625,0.01771362273804078,0.025623283402382346,True
47558,23298,0,23299,2821.0,34601.0,26744.0,-0.010369999999999999,0.000244,0.001037,-0.14,2.7475,-5.0925,0.928,-0.02040625,-0.37415625,1.0981875,0.88553125,-0.46037500000000003,-1.021625,1.0220625,0.01798699938165298,0.025876366942594656,True
47559,23299,0,23300,2821.0,34602.0,26748.0,-0.009271999999999999,0.0021349999999999997,0.0059169999999999995,0.15750000000000003,2.45,-4.795000000000001,0.949125,-0.026125,-0.37521875,1.07646875,0.8824375,-0.45546875000000003,-1.01659375,1.0090937500000001,0.01755614477845574,0.025637982788923853,True
47560,23300,0,23301,2823.0,34603.0,26749.0,-0.004331,0.0034159999999999998,0.003477,0.2625,1.715,-4.812500000000001,0.91740625,-0.01303125,-0.36784375,1.0684375,0.8709687500000001,-0.45403125,-1.0180625,1.0135625,0.01803383644567805,0.025989972245052954,True
47561,23301,0,23302,2825.0,34602.0,26746.0,-0.002013,0.0006709999999999999,0.002257,0.28,1.05,-4.567500000000001,0.927,-0.0220625,-0.38446875,1.08875,0.88425,-0.45615625,-1.016375,1.01625,0.017749876373152465,0.02525970489329489,True
47562,23302,0,23303,2824.0,34598.0,26739.0,0.0006709999999999999,-0.0018909999999999999,0.002623,0.21000000000000002,-0.22750000000000004,-4.340000000000001,0.94696875,-0.02821875,-0.37303125,1.0947500000000001,0.87884375,-0.44959375,-1.01740625,1.00865625,0.01723443768876528,0.02575706664235027,True
47563,23303,0,23304,2825.0,34594.0,26730.0,0.003477,-0.000793,-0.001098,0.17500000000000002,-0.77,-4.2525,0.931,-0.02284375,-0.3630625,1.0629375,0.8735,-0.454,-1.01825,1.00921875,0.017631317984787766,0.026188382480789023,True
47564,23304,0,23305,2825.0,34590.0,26722.0,0.006161,-0.000183,-0.00183,-0.07,-0.9975,-4.112500000000001,0.9101875,-0.01721875,-0.37375,1.09240625,0.8747812500000001,-0.45825,-1.01878125,1.0099375,0.018032003516195966,0.025781881361627075,True
47565,23305,0,23306,2822.0,34585.0,26708.0,0.00549,0.0006709999999999999,-0.001769,-0.052500000000000005,-1.1725,-4.095000000000001,0.9389375,-0.02325,-0.36896875,1.07040625,0.8770625,-0.454,-1.01753125,1.01028125,0.017614705160709905,0.025924320570200145,True
47566,23306,0,23307,2821.0,34583.0,26699.0,0.00244,6.1e-05,-0.0025009999999999998,-0.0175,-1.2950000000000002,-3.99,0.9149375000000001,-0.0138125,-0.3675,1.07053125,0.8744375,-0.45459375,-1.0185,1.0159375,0.018024476485118467,0.02602074464895977,True
47567,23307,0,23308,2817.0,34580.0,26692.0,-0.000549,0.0018909999999999999,-0.001037,0.10500000000000001,-1.9600000000000002,-3.8500000000000005,0.9236562500000001,-0.021687500000000002,-0.3675625,1.0809375,0.8805625,-0.4461875,-1.0150625,1.01034375,0.01736467087148047,0.025884404646200662,True
47568,23308,0,23309,2814.0,34576.0,26683.0,0.001098,0.000793,-0.001098,0.14,-2.4850000000000003,-3.6750000000000003,0.93221875,-0.0196875,-0.36675,1.07915625,0.87421875,-0.44756250000000003,-1.01828125,1.0093125,0.017501744805847208,0.026042206636397135,True
47569,23309,0,23310,2809.0,34574.0,26676.0,0.0034159999999999998,-0.0028669999999999998,-0.001281,0.07,-2.765,-3.3950000000000005,0.9218125,-0.016625,-0.37075,1.0730625,0.87503125,-0.4556875,-1.01784375,1.0098125,0.0179533901878653,0.025865288650225898,True
47570,23310,0,23311,2806.0,34570.0,26671.0,0.003965,-0.003538,-6.1e-05,0.052500000000000005,-2.9400000000000004,-3.5175000000000005,0.92603125,-0.01634375,-0.36684375,1.0735625,0.8748750000000001,-0.4588125,-1.019875,1.0166875,0.018090361091733297,0.02610050010241858,True
47571,23311,0,23312,2802.0,34569.0,26668.0,0.001769,-0.0046359999999999995,-0.000549,0.21000000000000002,-2.9400000000000004,-3.3425000000000002,0.9247500000000001,-0.0169375,-0.37325,1.08115625,0.8827812500000001,-0.45753125,-1.018125,1.00959375,0.018014645284364098,0.02577631217367408,True
47572,23312,0,23313,2799.0,34568.0,26662.0,0.000366,-6.1e-05,-0.0015249999999999999,0.31500000000000006,-2.9050000000000002,-3.2375000000000003,0.93234375,-0.02009375,-0.3733125,1.0788125,0.8747812500000001,-0.45465625,-1.0170937500000001,1.0090625,0.01777013324405245,0.025733654613657918,True
47573,23313,0,23314,2795.0,34566.0,26660.0,-0.000366,0.0008539999999999999,-0.000732,0.5075000000000001,-2.975,-3.22,0.92559375,-0.019625,-0.3700625,1.06890625,0.8737812500000001,-0.45153125,-1.017125,1.00915625,0.01766377105728297,0.02586478262390263,True
47574,23314,0,23315,2794.0,34570.0,26660.0,0.000549,0.001647,-0.00122,0.56,-3.0975,-3.1325000000000003,0.92425,-0.0174375,-0.3715,1.073125,0.86640625,-0.45528125,-1.01934375,1.0149062500000001,0.017903852567633015,0.025893714738221302,True
47575,23315,0,23316,2790.0,34568.0,26660.0,-0.000244,0.00244,-0.000366,0.6125,-3.08,-3.1325000000000003,0.924875,-0.01721875,-0.372125,1.07196875,0.88284375,-0.458,-1.0207187500000001,1.0159375,0.01802196622781912,0.025922266921288985,True
47576,23316,0,23317,2789.0,34568.0,26660.0,0.000549,0.000549,0.002074,0.7525000000000001,-3.0100000000000002,-3.0625000000000004,0.92459375,-0.017593750000000002,-0.37243750000000003,1.0735625,0.88253125,-0.45821875,-1.02046875,1.01365625,0.018015416596926136,0.025900044338697695,True
47577,23317,0,23318,2786.0,34567.0,26659.0,-0.000244,0.002806,0.000915,0.9100000000000001,-2.975,-3.115,0.9245625000000001,-0.01753125,-0.37034375,1.07890625,0.88125,-0.4570625,-1.01365625,1.00921875,0.017971547073570262,0.02571845129597957,True
47578,23318,0,23319,2784.0,34566.0,26660.0,0.0015249999999999999,0.002074,0.0018909999999999999,0.9450000000000001,-2.87,-3.1850000000000005,0.9285625000000001,-0.01803125,-0.37146875,1.07396875,0.8745937500000001,-0.4514375,-1.01728125,1.01503125,0.01772518486898776,0.025814655619303153,True
47579,23319,0,23320,2783.0,34564.0,26664.0,0.004209,0.001281,0.001098,0.7000000000000001,-2.765,-3.3075,0.92875,-0.01803125,-0.3718125,1.0785625,0.8781875,-0.454,-1.0169375,1.00834375,0.01782811605463319,0.02578752894913696,True
47580,23320,0,23321,2782.0,34566.0,26664.0,0.0035989999999999998,-0.001037,-0.0008539999999999999,0.665,-2.3975000000000004,-3.3075,0.92871875,-0.01809375,-0.37434375000000003,1.080125,0.8758750000000001,-0.45406250000000004,-1.015625,1.0098125,0.017828070489310316,0.02563522798251093,True
47581,23321,0,23322,2781.0,34566.0,26666.0,0.001281,-0.002379,0.000976,0.5075000000000001,-1.9775000000000003,-3.3600000000000003,0.93175,-0.0204375,-0.37428125,1.07096875,0.8739375,-0.45390625,-1.012125,1.01075,0.017725951247563976,0.025501381829812538,True
47582,23322,0,23323,2782.0,34567.0,26669.0,-0.001769,-0.0030499999999999998,-0.002074,0.43750000000000006,-1.2425000000000002,-3.325,0.919625,-0.017,-0.3720625,1.07040625,0.876375,-0.45446875000000003,-1.01984375,1.0144375,0.017889112802746944,0.025890699257464386,True
47583,23323,0,23324,2782.0,34569.0,26670.0,-0.003294,-0.0021349999999999997,-0.0006709999999999999,0.29750000000000004,-0.9625000000000001,-3.6050000000000004,0.92421875,-0.01703125,-0.3718125,1.07309375,0.8805937500000001,-0.45637500000000003,-1.0201875,1.014125,0.017964385564091162,0.02591407438493417,True
47584,23324,0,23325,2781.0,34567.0,26673.0,-0.002806,-0.003111,-0.00042699999999999997,0.28,-0.8925000000000001,-3.7975000000000003,0.9223125,-0.01753125,-0.37090625,1.07325,0.87890625,-0.45709375,-1.01753125,1.0138125,0.01797280185835654,0.025846874878991108,True
47585,23325,0,23326,2782.0,34567.0,26672.0,-0.0023179999999999997,-0.000793,-0.0006709999999999999,0.29750000000000004,-0.8750000000000001,-3.8325000000000005,0.9216875,-0.0151875,-0.37203125,1.075625,0.87746875,-0.4565625,-1.0168125000000001,1.0129062500000001,0.018047303254494575,0.025773917040790073,True
47586,23326,0,23327,2781.0,34566.0,26676.0,-0.005612,0.001952,0.000244,0.49000000000000005,-0.9100000000000001,-3.7450000000000006,0.93121875,-0.02071875,-0.37159375,1.070625,0.87121875,-0.45459375,-1.017375,1.0070625,0.01774206533281707,0.02581330974972394,True
47587,23327,0,23328,2780.0,34569.0,26676.0,-0.002257,-0.002623,0.0034159999999999998,0.42000000000000004,-1.3475000000000001,-3.6050000000000004,0.9238437500000001,-0.0166875,-0.37078125,1.07315625,0.8745625,-0.45006250000000003,-1.0171875,1.0094375,0.017724903566197426,0.025838486040846913,True
47588,23328,0,23329,2781.0,34568.0,26676.0,0.001464,-0.004026,0.00244,0.3325,-1.6450000000000002,-3.6225000000000005,0.9249375,-0.016875,-0.36653125000000003,1.073,0.8794062500000001,-0.456625,-1.020125,1.01584375,0.017980812969900794,0.026122721209426412,True
47589,23329,0,23330,2781.0,34568.0,26677.0,0.002562,-0.001952,0.001952,0.42000000000000004,-1.8200000000000003,-3.7450000000000006,0.92496875,-0.0171875,-0.37215625,1.0736875000000001,0.8844062500000001,-0.45928125000000003,-1.0204375,1.00875,0.018074682795513462,0.025910068518985734,True
47590,23330,0,23331,2780.0,34569.0,26677.0,0.003477,0.000976,0.000732,0.525,-1.9075000000000002,-3.8325000000000005,0.9299375,-0.02075,-0.3728125,1.0775937500000001,0.875,-0.45184375,-1.01315625,1.0045625,0.01763031673225051,0.025600277853779448,True
47591,23331,0,23332,2781.0,34568.0,26676.0,0.00244,0.002745,-0.002806,0.5775,-2.2225,-3.7800000000000002,0.93053125,-0.019125,-0.3680625,1.07315625,0.8718750000000001,-0.45178125,-1.01846875,1.01175,0.017694263071325326,0.02599704468324026,True
47592,23332,0,23333,2781.0,34567.0,26677.0,0.0032329999999999998,0.005795,-0.0055509999999999995,0.45500000000000007,-2.2750000000000004,-4.077500000000001,0.9248125,-0.0175625,-0.371125,1.07228125,0.8915625,-0.46078125000000003,-1.02225,1.0248125000000001,0.018119566397741284,0.026021840561899916,True
47593,23333,0,23334,2782.0,34567.0,26676.0,0.004697,0.004331,-0.0040869999999999995,0.56,-2.205,-4.2,0.92490625,-0.0165,-0.37103125000000003,1.07803125,0.8855000000000001,-0.45815625,-1.01396875,1.00325,0.018057626481963455,0.025703138371434963,True
47594,23334,0,23335,2782.0,34566.0,26674.0,0.002623,0.0034159999999999998,-0.0021349999999999997,0.5075000000000001,-1.9775000000000003,-4.305000000000001,0.93159375,-0.01815625,-0.37346875,1.0791250000000001,0.8675,-0.45153125,-1.01478125,1.00253125,0.01772383887000942,0.025637341921588862,True
47595,23335,0,23336,2780.0,34567.0,26675.0,0.001952,0.000244,-0.000305,0.42000000000000004,-1.54,-4.41,0.93125,-0.01853125,-0.374125,1.08021875,0.8663125,-0.45353125,-1.0154375,0.9995625,0.017788841846716922,0.02563666935667225,True
47596,23336,0,23337,2782.0,34566.0,26675.0,-0.00122,0.000915,0.000915,0.5425000000000001,-1.2425000000000002,-4.305000000000001,0.930125,-0.01846875,-0.37375,1.07825,0.85865625,-0.4533125,-1.0161875,1.00315625,0.01778261125154312,0.025680871635615936,True
47597,23337,0,23338,2780.0,34566.0,26675.0,-0.001647,0.0023179999999999997,0.003294,0.47250000000000003,-0.49000000000000005,-4.445,0.93365625,-0.02065625,-0.37278125,1.07909375,0.8696875000000001,-0.45296875000000003,-1.0148125000000001,1.0031875000000001,0.017679346193905394,0.025666042869599764,True
47598,23338,0,23339,2780.0,34565.0,26672.0,-0.003172,0.00061,0.002806,0.49000000000000005,-0.29750000000000004,-4.445,0.93190625,-0.01940625,-0.3731875,1.0785,0.85721875,-0.45196875000000003,-1.01453125,1.00196875,0.017690293342944013,0.025638847419937164,True
47599,23339,0,23340,2782.0,34566.0,26674.0,-0.003538,-0.00183,0.002928,0.28,-0.2625,-4.4625,0.928,-0.01665625,-0.3725625,1.07665625,0.877,-0.45696875000000003,-1.01846875,1.006,0.01800355982382322,0.02581717756007749,True
47600,23340,0,23341,2781.0,34567.0,26676.0,-0.004331,-0.004331,0.0032329999999999998,0.29750000000000004,-0.36750000000000005,-4.4625,0.92915625,-0.0165,-0.371,1.0729375,0.87390625,-0.4558125,-1.02446875,1.0130937500000001,0.01796352094210732,0.026113191713610304,True
47601,23341,0,23342,2781.0,34568.0,26677.0,-0.00549,-0.003294,0.0,0.14,-0.9975,-4.6025,0.92528125,-0.01803125,-0.373375,1.079625,0.885875,-0.45803125,-1.0134375,1.0030000000000001,0.01799000072828838,0.025588746048998665,True
47602,23342,0,23343,2780.0,34567.0,26678.0,-0.002562,-0.003355,-0.000732,0.14,-1.2775,-4.4625,0.9286562500000001,-0.01690625,-0.37084375,1.0651875,0.868125,-0.4558125,-1.018375,1.0155,0.017946909349260017,0.025882226563475847,True
47603,23343,0,23344,2781.0,34570.0,26681.0,-0.001037,-0.00183,-0.001403,0.052500000000000005,-1.5925000000000002,-4.3925,0.92478125,-0.017125,-0.37343750000000003,1.08003125,0.87425,-0.45571875,-1.01628125,1.00278125,0.01793419995067616,0.02569701481909906,True
47604,23344,0,23345,2780.0,34569.0,26681.0,0.000732,0.0006709999999999999,-0.001098,0.10500000000000001,-1.8200000000000003,-4.2875000000000005,0.92853125,-0.0185625,-0.37375,1.07234375,0.8744375,-0.45456250000000004,-1.0175625,1.0029375,0.017828983855262184,0.02573442156884788,True
47605,23345,0,23346,2781.0,34569.0,26684.0,0.002196,0.003111,-0.000488,0.385,-1.995,-4.077500000000001,0.9245625000000001,-0.01746875,-0.37046875,1.0731875,0.8747812500000001,-0.4551875,-1.0185625,1.014375,0.01789880981284646,0.025904515896946517,True
47606,23346,0,23347,2782.0,34571.0,26683.0,0.003965,0.005063,-0.0028669999999999998,0.29750000000000004,-2.2750000000000004,-4.112500000000001,0.92471875,-0.017,-0.37165625,1.070875,0.8827812500000001,-0.4571875,-1.0199375,1.0145625,0.017998287824387005,0.02591058630741983,True
47607,23347,0,23348,2783.0,34570.0,26685.0,0.00549,0.003111,-0.0026839999999999998,0.15750000000000003,-2.3275,-4.2,0.92559375,-0.0171875,-0.37384375000000003,1.0780625,0.87796875,-0.45675,-1.0169062500000001,1.00990625,0.0179730544737138,0.025705116914686445,True
47608,23348,0,23349,2782.0,34571.0,26685.0,0.005429,0.001098,-0.002623,0.21000000000000002,-2.2225,-4.2175,0.9324375,-0.01953125,-0.374875,1.078,0.87490625,-0.45378125,-1.01675,1.009375,0.017757989881421715,0.025657809267790578,True
47609,23349,0,23350,2784.0,34573.0,26687.0,0.005307,0.002074,-0.0037819999999999998,0.1925,-1.9775000000000003,-4.41,0.9266562500000001,-0.0169375,-0.3745,1.0785625,0.878,-0.45615625,-1.0169375,1.0090000000000001,0.017959435060446182,0.025680101731077196,True
47610,23350,0,23351,2785.0,34572.0,26688.0,0.00244,-0.00042699999999999997,-0.0026839999999999998,0.15750000000000003,-1.715,-4.3925,0.9305625000000001,-0.02009375,-0.37346875,1.077,0.8741875,-0.454125,-1.0170625,1.0094375,0.017748794937459424,0.02572619187404596,True
47611,23351,0,23352,2786.0,34576.0,26690.0,-0.005063,-0.005612,0.0042699999999999995,0.21000000000000002,-1.1375000000000002,-4.3925,0.92590625,-0.01671875,-0.36325,1.07321875,0.8718750000000001,-0.45559375,-1.02065625,1.01628125,0.017945792054220727,0.026274540660779028,True
47612,23352,0,23353,2787.0,34575.0,26692.0,-0.003111,-0.0044529999999999995,0.003721,0.1925,-1.2775,-4.2875000000000005,0.9246562500000001,-0.01846875,-0.37471875,1.0803125,0.88009375,-0.4581875,-1.01625,1.0092812500000001,0.017978386583224943,0.025644581022335487,True
47613,23353,0,23354,2789.0,34577.0,26695.0,-0.001647,-0.0034159999999999998,0.003843,0.24500000000000002,-1.3825,-4.2175,0.92115625,-0.0225625,-0.36921875,1.06684375,0.87409375,-0.45387500000000003,-1.01634375,1.009125,0.01763779769055007,0.0258680887369882,True
47614,23354,0,23355,2789.0,34578.0,26695.0,-0.00183,0.0006709999999999999,0.002562,0.28,-1.4525000000000001,-4.1825,0.92396875,-0.01678125,-0.37143750000000003,1.0775000000000001,0.8798125,-0.45796875000000004,-1.019375,1.01371875,0.01803859938286985,0.025897429492143582,True
47615,23355,0,23356,2793.0,34574.0,26690.0,-0.000366,0.000122,0.002257,0.35000000000000003,-1.4000000000000001,-4.2,0.93715625,-0.0223125,-0.3715,1.0775000000000001,0.87571875,-0.44853125,-1.01703125,1.00921875,0.017433306959901734,0.02580367124896165,True
47616,23356,0,23357,2791.0,34571.0,26682.0,0.0011589999999999999,-0.000122,0.0008539999999999999,0.21000000000000002,-1.225,-4.2,0.93678125,-0.020875,-0.373375,1.083875,0.87409375,-0.45453125,-1.01665625,1.00940625,0.017733165504859146,0.02571411796890322,True
47617,23357,0,23358,2789.0,34569.0,26673.0,-0.000366,0.000305,-0.001586,0.10500000000000001,-1.0325000000000002,-4.2175,0.9325625000000001,-0.021593750000000002,-0.37459375,1.0815625,0.861125,-0.45409375,-1.0159375,1.00665625,0.01768620029110668,0.02563740615357709,True
47618,23358,0,23359,2790.0,34564.0,26660.0,-0.000732,0.0021349999999999997,-0.002196,0.17500000000000002,-0.9450000000000001,-4.41,0.93159375,-0.01559375,-0.36953125000000003,1.0624375,0.87365625,-0.45440625,-1.0173125,1.008125,0.01794410772087341,0.0258933188766779,True
47619,23359,0,23360,2784.0,34559.0,26653.0,0.00061,0.004697,-0.0050019999999999995,0.052500000000000005,-0.9100000000000001,-4.515000000000001,0.9224375,-0.0161875,-0.3603125,1.07071875,0.8738750000000001,-0.45453125,-1.0170625,1.00878125,0.01792484777233258,0.026252082953384312,True
47620,23360,0,23361,2780.0,34557.0,26642.0,-0.00061,0.0025009999999999998,-0.004941,0.10500000000000001,-0.6475000000000001,-4.445,0.9225625000000001,-0.01553125,-0.3695625,1.0698125,0.8743125,-0.45509375,-1.017125,1.0125,0.01797427171997654,0.025884768933280705,True
47621,23361,0,23362,2777.0,34554.0,26634.0,-0.003294,-0.00061,-0.000122,0.15750000000000003,-0.5775,-4.357500000000001,0.9218437500000001,-0.0170625,-0.36759375,1.070375,0.87021875,-0.45740625,-1.01828125,1.01328125,0.018004515503355963,0.026008481298050803,True
47622,23362,0,23363,2774.0,34552.0,26627.0,-0.0018909999999999999,-0.00061,0.002623,0.36750000000000005,-0.8400000000000001,-4.3925,0.919875,-0.0159375,-0.36946875,1.06453125,0.8785937500000001,-0.45671875,-1.01746875,1.00884375,0.01802291037099979,0.025901901046643656,True
47623,23363,0,23364,2768.0,34547.0,26621.0,0.00042699999999999997,6.1e-05,0.000793,0.4025,-1.0150000000000001,-4.4275,0.9219375,-0.019625,-0.371875,1.08234375,0.87390625,-0.45440625,-1.01621875,1.00865625,0.017779260128223312,0.025757040120222004,True
47624,23364,0,23365,2764.0,34546.0,26615.0,-0.002623,0.001769,0.0037819999999999998,0.43750000000000006,-1.1025,-4.550000000000001,0.93659375,-0.01915625,-0.37071875,1.06965625,0.87390625,-0.45578125,-1.0136875,1.01134375,0.0178536516800092,0.025704676689512495,True
47625,23365,0,23366,2759.0,34543.0,26609.0,-0.0025009999999999998,-0.000244,0.005612,0.31500000000000006,-1.1725,-4.532500000000001,0.92196875,-0.016625,-0.36909375,1.07090625,0.87853125,-0.45459375,-1.01615625,1.000875,0.017909467418570385,0.025865784236936883,True
47626,23366,0,23367,2755.0,34540.0,26609.0,0.0017079999999999999,-0.002928,0.0032329999999999998,-0.052500000000000005,-1.6625,-4.567500000000001,0.9220625,-0.01703125,-0.36625,1.07478125,0.87403125,-0.4541875,-1.01715625,1.0078125,0.017876539549719246,0.026018394876515992,True
47627,23367,0,23368,2752.0,34538.0,26605.0,0.002928,0.0,0.001769,-0.0175,-1.9075000000000002,-4.4975000000000005,0.9284687500000001,-0.0161875,-0.372375,1.07975,0.87465625,-0.45453125,-1.0163125,1.0085,0.01792484777233258,0.025740704190515686,True
47628,23368,0,23369,2749.0,34539.0,26607.0,0.006161,-0.0015249999999999999,-0.000122,-0.12250000000000001,-1.6275000000000002,-4.235,0.9312812500000001,-0.015125,-0.37315625,1.07190625,0.87340625,-0.45437500000000003,-1.01684375,1.01040625,0.017962021110741945,0.02573016430180166,True
47629,23369,0,23370,2747.0,34541.0,26606.0,0.0018909999999999999,-0.002562,-0.0037819999999999998,-0.12250000000000001,-1.5925000000000002,-4.2,0.92425,-0.021625000000000002,-0.3726875,1.07278125,0.87515625,-0.4466875,-1.01446875,1.00971875,0.01738732496989623,0.02565640135771422,True
47630,23370,0,23371,2746.0,34541.0,26606.0,-0.001037,-0.0006709999999999999,-0.004209,-0.1925,-1.4175000000000002,-4.4275,0.924125,-0.0115625,-0.37075,1.07146875,0.8686875000000001,-0.45403125,-1.01284375,1.01178125,0.018093898117513857,0.0256705617489015,True
47631,23371,0,23372,2743.0,34540.0,26608.0,0.002989,0.0026839999999999998,-0.006161,0.14,-1.61,-4.3925,0.92459375,-0.01734375,-0.374125,1.0795625,0.887625,-0.45171875,-1.013625,0.9987812500000001,0.017764599881143324,0.0255660664937609,True
47632,23372,0,23373,2742.0,34540.0,26609.0,0.0011589999999999999,0.0030499999999999998,-0.005063,0.28,-1.5050000000000001,-4.445,0.93334375,-0.01859375,-0.37225,1.0774062500000001,0.86425,-0.454,-1.01284375,0.9998750000000001,0.017805113682833072,0.02561059255807329,True
47633,23373,0,23374,2742.0,34541.0,26612.0,-0.002074,0.001769,6.1e-05,0.2625,-1.4700000000000002,-4.48,0.9311875000000001,-0.01975,-0.3681875,1.0784375,0.86178125,-0.45125,-1.01146875,0.99684375,0.01764735954194571,0.02571945120176119,True
47634,23374,0,23375,2740.0,34544.0,26613.0,0.000183,-0.000549,0.0018909999999999999,0.22750000000000004,-1.4175000000000002,-4.357500000000001,0.92671875,-0.01878125,-0.37065625,1.0723125,0.8612500000000001,-0.451125,-1.0110625,0.99840625,0.017681957374149453,0.025604919822978328,True
47635,23375,0,23376,2740.0,34544.0,26616.0,0.001098,-0.001647,0.0021349999999999997,0.21000000000000002,-1.5575,-4.3925,0.9243125,-0.01740625,-0.36803125000000003,1.07284375,0.86453125,-0.459125,-1.02403125,1.0150000000000001,0.01805946655900405,0.026214801022517102,True
47636,23376,0,23377,2741.0,34545.0,26620.0,0.0,0.002013,0.006161,0.525,-1.4175000000000002,-4.567500000000001,0.93190625,-0.0186875,-0.36659375,1.07259375,0.8753125,-0.4524375,-1.0105625,1.0165,0.01773851788804286,0.025747871524280992,True
47637,23377,0,23378,2741.0,34545.0,26622.0,-0.001647,-0.0008539999999999999,0.0042699999999999995,0.4025,-1.6275000000000002,-4.340000000000001,0.92490625,-0.018375,-0.3721875,1.0784375,0.8985,-0.45940625,-1.01409375,1.00015625,0.018031151103678162,0.02566178316973806,True
47638,23378,0,23379,2743.0,34547.0,26624.0,-0.004148,-0.002745,0.001647,0.36750000000000005,-1.6450000000000002,-4.2700000000000005,0.9195625000000001,-0.0171875,-0.3693125,1.0719375,0.8618125,-0.45753125,-1.02215625,1.0289375,0.018004423484075074,0.026090627181660258,True
47639,23379,0,23380,2741.0,34549.0,26626.0,-0.001769,-0.002562,-0.0006709999999999999,0.10500000000000001,-1.6450000000000002,-4.165,0.924,-0.0195,-0.37234375000000003,1.0761875,0.88096875,-0.45390625,-1.0108125000000001,0.99684375,0.017764288680872816,0.025527709265742573,True
47640,23380,0,23381,2741.0,34548.0,26627.0,-0.002196,-0.004026,-0.003294,0.21000000000000002,-1.7500000000000002,-4.130000000000001,0.925125,-0.01675,-0.36971875,1.07215625,0.87121875,-0.458625,-1.0263125,1.02334375,0.01806622408250668,0.026236136466369145,True
47641,23381,0,23382,2741.0,34548.0,26629.0,-0.003111,0.005246,-0.0044529999999999995,0.45500000000000007,-2.415,-4.532500000000001,0.92878125,-0.01859375,-0.37071875,1.07975,0.8718125,-0.45206250000000003,-1.0105625,0.9966875000000001,0.017727287831036748,0.0255829412073399,True
47642,23382,0,23383,2742.0,34549.0,26626.0,-0.002989,0.003965,-0.003355,0.4025,-2.87,-4.41,0.93109375,-0.02003125,-0.37093750000000003,1.07225,0.8629687500000001,-0.4545,-1.01515625,1.011375,0.017766413134596905,0.025753137160596386,True
47643,23383,0,23384,2743.0,34547.0,26627.0,-0.0034159999999999998,0.002745,-0.001952,0.31500000000000006,-3.3600000000000003,-4.305000000000001,0.9237500000000001,-0.017,-0.37003125000000003,1.069,0.88246875,-0.45596875000000003,-1.01378125,1.00815625,0.017949350299198433,0.02573581313301043,True
47644,23384,0,23385,2743.0,34551.0,26628.0,-0.0048189999999999995,0.002562,0.003111,0.45500000000000007,-3.9550000000000005,-4.357500000000001,0.932625,-0.017906250000000002,-0.36975,1.07165625,0.8771875,-0.45506250000000004,-1.0184375,1.01759375,0.017875899928695746,0.025928377821356752,True
47645,23385,0,23386,2743.0,34549.0,26629.0,0.000732,0.000366,0.0057339999999999995,0.49000000000000005,-4.585000000000001,-4.2,0.9246562500000001,-0.01696875,-0.369625,1.07025,0.881375,-0.455,-1.0155625,1.00846875,0.01791172561848293,0.025821426162214018,True
47646,23386,0,23387,2745.0,34550.0,26629.0,0.009882,-0.0037819999999999998,0.004941,0.22750000000000004,-5.7575,-3.9200000000000004,0.929,-0.01403125,-0.3695,1.077,0.8748750000000001,-0.454,-1.01365625,1.008375,0.017991688476322893,0.025752182870107203,True
47647,23387,0,23388,2744.0,34550.0,26628.0,0.010614,-0.004575,0.002989,0.14,-5.95,-3.7800000000000002,0.9305,-0.02046875,-0.3718125,1.07203125,0.8749375,-0.4575,-1.01903125,1.0148125000000001,0.01786900746192375,0.025869057180221557,True
47648,23388,0,23389,2746.0,34549.0,26629.0,0.009637999999999999,-0.0042699999999999995,-0.000793,0.035,-5.985,-3.9375000000000004,0.9250625,-0.01675,-0.36753125000000003,1.0684375,0.869625,-0.45640625,-1.02059375,1.00590625,0.01797714044760767,0.026100999301825117,True
47649,23389,0,23390,2744.0,34548.0,26628.0,0.0075639999999999995,-0.00183,-0.0035989999999999998,-0.07,-5.7925,-4.0425,0.92453125,-0.01628125,-0.36996875,1.072375,0.87509375,-0.45437500000000003,-1.01565625,1.00234375,0.01791473918266159,0.02581133565104853,True
47650,23390,0,23391,2746.0,34551.0,26628.0,0.0055509999999999995,-0.00122,-0.005124,0.0175,-5.442500000000001,-4.112500000000001,0.92471875,-0.017,-0.37053125000000003,1.076375,0.8765625,-0.45640625,-1.01603125,1.0078125,0.017966918177113614,0.02580345353542041,True
47651,23391,0,23392,2747.0,34551.0,26627.0,0.0011589999999999999,0.002806,-0.002928,0.08750000000000001,-4.4975000000000005,-4.077500000000001,0.9293125,-0.01984375,-0.37065625,1.07771875,0.87515625,-0.455,-1.016,1.00790625,0.017794162747904317,0.02579723976654941,True
47652,23392,0,23393,2748.0,34551.0,26629.0,-0.002257,0.003172,-0.0062829999999999995,0.24500000000000002,-4.130000000000001,-4.0425,0.926,-0.0173125,-0.36678125,1.06215625,0.869375,-0.4539375,-1.015875,1.00828125,0.017854997789210836,0.02594727348133935,True
47653,23393,0,23394,2747.0,34551.0,26631.0,0.000976,0.005978,-0.007442,0.12250000000000001,-3.7100000000000004,-4.0425,0.9245625000000001,-0.01825,-0.36975,1.071625,0.8754375,-0.45487500000000003,-1.01575,1.01084375,0.01785431330154008,0.025823731049438848,True
47654,23394,0,23395,2748.0,34555.0,26633.0,0.001281,0.0026839999999999998,-0.001281,0.15750000000000003,-3.3600000000000003,-4.1825,0.919125,-0.017875000000000002,-0.3745,1.07646875,0.88103125,-0.4585625,-1.01775,1.01415625,0.0180177187436915,0.02571174466129048,True
47655,23395,0,23396,2749.0,34556.0,26634.0,0.002074,-0.000122,-0.001098,0.035,-2.7475,-4.1825,0.93378125,-0.0156875,-0.36603125000000003,1.0656875000000001,0.88025,-0.45359375,-1.01428125,1.0069062500000001,0.017907643942927612,0.025915195944316807,True
47656,23396,0,23397,2750.0,34557.0,26635.0,0.000732,-0.0021349999999999997,0.008601,0.28,-1.8900000000000001,-3.9025000000000003,0.9176875,-0.014968750000000001,-0.36534375,1.07184375,0.8660625000000001,-0.45456250000000004,-1.016,1.00753125,0.01797594007253248,0.02600960385353374,True
47657,23397,0,23398,2749.0,34561.0,26640.0,0.008173999999999999,-0.005124,0.008418,0.15750000000000003,-1.4875,-3.7100000000000004,0.92790625,-0.01946875,-0.37209375,1.0795000000000001,0.88090625,-0.4564375,-1.01615625,1.01596875,0.017867228209341612,0.02574586173685256,True
47658,23398,0,23399,2752.0,34562.0,26642.0,0.009211,-0.0064659999999999995,0.0046359999999999995,0.0175,-0.8225000000000001,-3.9200000000000004,0.9425,-0.023375,-0.3735,1.0739375,0.88109375,-0.4556875,-1.0179375,1.00765625,0.017677380772877477,0.025759017904653413,True
47659,23399,0,23400,2753.0,34562.0,26643.0,-0.000732,-0.006771,-0.0013419999999999999,-0.17500000000000002,0.0175,-4.165,0.918125,-0.014968750000000001,-0.37128125,1.08725,0.87446875,-0.45125,-1.016875,1.01440625,0.01784290169214253,0.025806330726759436,True
47660,23400,0,23401,2756.0,34567.0,26648.0,-0.00915,0.0017079999999999999,-0.004697,-0.21000000000000002,0.6475000000000001,-4.585000000000001,0.94159375,-0.017718750000000002,-0.36515625,1.0664375,0.87903125,-0.451875,-1.015125,1.00284375,0.017755540219308336,0.02598303026668865,True
47661,23401,0,23402,2755.0,34569.0,26652.0,-0.011285,0.004758,-0.008784,0.29750000000000004,0.43750000000000006,-4.7250000000000005,0.91571875,-0.01615625,-0.36696875,1.07234375,0.8751875,-0.45575,-1.01653125,1.01340625,0.017975067213232065,0.0259653304252563,True
47662,23402,0,23403,2757.0,34573.0,26656.0,-0.012565999999999999,0.009943,-0.006039,0.385,-0.0175,-4.795000000000001,0.93015625,-0.02609375,-0.36709375,1.0845625,0.8829375,-0.45728125000000003,-1.01496875,1.0091875000000001,0.017630230261182447,0.02589949267875859,True
47663,23403,0,23404,2758.0,34576.0,26659.0,-0.008662,0.006039,-0.0018909999999999999,0.5950000000000001,-0.49000000000000005,-4.655,0.9323125,-0.0141875,-0.36546875,1.06546875,0.87425,-0.44934375,-1.0149375,1.00221875,0.017798279350544937,0.02596323696591287,True
47664,23404,0,23405,2761.0,34579.0,26661.0,-0.005063,0.000305,0.0044529999999999995,0.6825000000000001,-1.1900000000000002,-4.235,0.92025,-0.0220625,-0.37471875,1.084875,0.88009375,-0.457125,-1.0175625,1.0128125000000001,0.017788783432230892,0.02569569877161294,True
47665,23405,0,23406,2761.0,34580.0,26664.0,-0.001281,-0.0026839999999999998,0.00976,0.6125,-2.0650000000000004,-3.5525,0.9378125,-0.019875,-0.36959375,1.06696875,0.87721875,-0.45459375,-1.0150625,1.0079375,0.017776568052781494,0.025803203569849168,True
47666,23406,0,23407,2762.0,34581.0,26666.0,0.001952,-0.002928,0.0077469999999999995,0.45500000000000007,-2.3800000000000003,-3.3775000000000004,0.9198437500000001,-0.01571875,-0.3663125,1.0785625,0.87390625,-0.45409375,-1.01803125,1.01115625,0.01792644636442518,0.026049961465293155,True
47667,23407,0,23408,2765.0,34584.0,26667.0,0.008052,-0.0006709999999999999,0.004392,0.42000000000000004,-2.5725000000000002,-3.3425000000000002,0.9294687500000001,-0.01828125,-0.36840625,1.0715000000000001,0.879625,-0.45346875000000003,-1.0150937500000001,1.0075,0.017796554936607922,0.025851891920253153,True
47668,23408,0,23409,2767.0,34584.0,26670.0,0.011651,-0.000244,-0.0013419999999999999,0.43750000000000006,-2.8350000000000004,-3.2375000000000003,0.92409375,-0.0175625,-0.368625,1.0715625,0.87453125,-0.45525,-1.015125,1.0075,0.01789748622483925,0.025844364159683393,True
47669,23409,0,23410,2768.0,34583.0,26667.0,0.011895,0.001037,-0.0044529999999999995,0.43750000000000006,-2.66,-3.2550000000000003,0.9246875,-0.01721875,-0.36840625,1.0715000000000001,0.87671875,-0.45709375,-1.01603125,1.01465625,0.01798557933728328,0.02588839906410014,True
47670,23410,0,23411,2769.0,34583.0,26662.0,0.0030499999999999998,0.004209,-0.006771,0.47250000000000003,-2.0125,-3.6575,0.927125,-0.02028125,-0.37134375000000003,1.0776875000000001,0.88003125,-0.45771875,-1.01434375,1.00796875,0.01788545793953085,0.025705251611887678,True
47671,23411,0,23412,2770.0,34576.0,26651.0,0.0030499999999999998,0.003477,-0.006405,0.49000000000000005,-1.6975000000000002,-3.9200000000000004,0.92821875,-0.017125,-0.3691875,1.07153125,0.87425,-0.4551875,-1.0155,1.010375,0.01791286613525249,0.025836481381543448,True
47672,23412,0,23413,2768.0,34572.0,26638.0,-0.000183,0.002745,-0.00549,0.49000000000000005,-1.4875,-4.0600000000000005,0.9251875,-0.017656250000000002,-0.3700625,1.07775,0.88275,-0.45771875,-1.0185625,1.0147187500000001,0.017992786019750923,0.0259207538402736,True
47673,23413,0,23414,2767.0,34567.0,26628.0,-0.0017079999999999999,0.002623,-0.003843,0.385,-1.155,-4.2700000000000005,0.931625,-0.01440625,-0.36934375,1.07571875,0.8809375,-0.44909375,-1.01459375,1.00759375,0.01777928885400916,0.025794942202489294,True
47674,23414,0,23415,2763.0,34563.0,26620.0,-0.0060999999999999995,0.001281,-0.00244,0.47250000000000003,-0.7525000000000001,-4.2875000000000005,0.9261875,-0.01684375,-0.36762500000000004,1.0723125,0.8717812500000001,-0.45565625,-1.015125,0.99475,0.01794319054513207,0.025884339974315537,True
47675,23415,0,23416,2760.0,34560.0,26609.0,-0.004697,-0.0042699999999999995,0.003843,0.4025,-0.47250000000000003,-3.9550000000000005,0.918,-0.01425,-0.36928125,1.073,0.8735,-0.45478125,-1.01025,1.01240625,0.01801411533787488,0.025628242420607555,True
47676,23416,0,23417,2756.0,34557.0,26605.0,-0.006954,-0.003965,0.005673,0.47250000000000003,-0.47250000000000003,-3.9725000000000006,0.9225,-0.0196875,-0.36915625,1.07096875,0.8825000000000001,-0.455125,-1.01465625,1.00703125,0.017805572451582236,0.025804871893852225,True
47677,23417,0,23418,2751.0,34555.0,26596.0,-0.0068319999999999995,-0.005307,0.0059169999999999995,0.3325,-0.5425000000000001,-4.025,0.92421875,-0.0185625,-0.36712500000000003,1.07703125,0.87990625,-0.45728125000000003,-1.0110625,1.0081875,0.017938165142538074,0.02574610734749873,True
47678,23418,0,23419,2748.0,34553.0,26591.0,-0.0059169999999999995,-0.0059169999999999995,0.0064659999999999995,0.17500000000000002,-0.7000000000000001,-3.8500000000000005,0.9267500000000001,-0.00871875,-0.36775,1.0717812500000001,0.87409375,-0.45437500000000003,-1.01484375,1.00715625,0.01822398855010607,0.025868390643055687,True
47679,23419,0,23420,2744.0,34552.0,26589.0,-0.000549,-0.0032329999999999998,0.00671,0.24500000000000002,-1.1375000000000002,-3.9375000000000004,0.9276875,-0.01628125,-0.3670625,1.0716875000000001,0.87403125,-0.45387500000000003,-1.01415625,1.00715625,0.017894658821965843,0.025869101621206994,True
47680,23420,0,23421,2740.0,34551.0,26585.0,0.0028669999999999998,0.00122,0.001098,0.36750000000000005,-1.9775000000000003,-3.7275000000000005,0.92434375,-0.01715625,-0.3685,1.07059375,0.875125,-0.4514375,-1.0150000000000001,1.0080625,0.017760970086114568,0.025844493304017592,True
47681,23421,0,23422,2736.0,34549.0,26580.0,0.000183,0.004941,-0.002989,0.45500000000000007,-2.3800000000000003,-3.7450000000000006,0.9243125,-0.017125,-0.368125,1.07184375,0.87053125,-0.45425,-1.0147187500000001,1.0128125000000001,0.01787521596450515,0.025848531676975185,True
47682,23422,0,23423,2733.0,34545.0,26580.0,-6.1e-05,0.005978,-0.0050019999999999995,0.45500000000000007,-2.7300000000000004,-3.7975000000000003,0.92484375,-0.01059375,-0.36840625,1.071,0.8813125,-0.45587500000000003,-1.00946875,1.007625,0.018207537043757382,0.025632791580189,True
47683,23423,0,23424,2730.0,34546.0,26580.0,0.003843,0.006405,-0.006588,0.4025,-3.08,-3.8675,0.9247500000000001,-0.01625,-0.367875,1.0724375,0.8746875000000001,-0.45428125,-1.01465625,1.0043125,0.017912252072425968,0.025856091866143474,True
47684,23424,0,23425,2728.0,34545.0,26581.0,0.004209,0.0059169999999999995,-0.006222,0.4025,-3.325,-3.8500000000000005,0.925125,-0.01665625,-0.36740625,1.07334375,0.873625,-0.45340625,-1.01434375,1.00215625,0.01786049745114753,0.025862661298080233,True
47685,23425,0,23426,2725.0,34546.0,26581.0,0.006527,-0.000122,-0.002013,0.31500000000000006,-3.3600000000000003,-3.6400000000000006,0.92803125,-0.018875,-0.36834375,1.074625,0.874625,-0.45453125,-1.0145625,1.0070625,0.017814949938981146,0.025833701868661508,True
47686,23426,0,23427,2725.0,34546.0,26581.0,0.002928,-0.0040869999999999995,-0.0011589999999999999,0.29750000000000004,-3.0275000000000003,-3.3425000000000002,0.928875,-0.0180625,-0.36793750000000003,1.07421875,0.86646875,-0.45453125,-1.0075625,1.00775,0.017848174865343208,0.025577262877979408,True
47687,23427,0,23428,2724.0,34547.0,26583.0,-0.000488,-0.004758,0.000244,0.35000000000000003,-2.6425,-3.1500000000000004,0.92896875,-0.01971875,-0.36965625,1.071375,0.87421875,-0.45375,-1.0103125,1.0164375,0.017749067116495425,0.025615683530543647,True
47688,23428,0,23429,2724.0,34548.0,26584.0,0.002257,-0.0053679999999999995,0.000793,0.385,-2.1350000000000002,-3.0275000000000003,0.92503125,-0.01615625,-0.36793750000000003,1.0704375,0.88321875,-0.45521875,-1.01771875,1.01575,0.01795373431284478,0.025972841748410812,True
47689,23429,0,23430,2724.0,34548.0,26587.0,0.004697,-0.006893,0.001098,0.29750000000000004,-1.7325000000000002,-2.8000000000000003,0.92484375,-0.0170625,-0.36928125,1.07096875,0.88546875,-0.4585,-1.0195,1.02096875,0.018048428971523194,0.025988478986390617,True
47690,23430,0,23431,2723.0,34550.0,26589.0,0.00366,-0.002074,0.000366,0.5075000000000001,-0.9975,-3.0450000000000004,0.92540625,-0.01728125,-0.3681875,1.0635000000000001,0.88134375,-0.45787500000000003,-1.01978125,1.01175,0.018014392092526435,0.026043143362814176,True
47691,23431,0,23432,2724.0,34549.0,26590.0,0.000122,0.000549,0.003965,0.8925000000000001,-0.5075000000000001,-3.115,0.92471875,-0.01665625,-0.36765625,1.070875,0.8758750000000001,-0.45240625,-1.01465625,1.00415625,0.017820332099218253,0.02586483673946149,True
47692,23432,0,23433,2725.0,34550.0,26592.0,-0.004514,0.00244,0.003172,0.9625000000000001,0.0,-3.2025,0.92440625,-0.01715625,-0.36746875,1.0714062500000001,0.863125,-0.45528125,-1.0154375,1.0105625,0.01791535315096816,0.02590275504875739,True
47693,23433,0,23434,2724.0,34552.0,26595.0,-0.006954,0.003721,0.0011589999999999999,0.8750000000000001,0.29750000000000004,-3.325,0.92371875,-0.00584375,-0.37065625,1.06909375,0.87590625,-0.45853125,-1.02046875,1.01646875,0.018508368117975196,0.025971236050483668,True
47694,23434,0,23435,2725.0,34551.0,26595.0,-0.007991,0.005124,-0.0008539999999999999,0.805,0.31500000000000006,-3.6400000000000006,0.949375,-0.02871875,-0.36975,1.08965625,0.879,-0.45825,-1.01334375,1.0048125,0.01756181452066276,0.025730016603637808,True
47695,23435,0,23436,2726.0,34550.0,26597.0,-0.006405,0.003477,-0.002013,0.805,0.12250000000000001,-3.6925000000000003,0.92803125,-0.01378125,-0.36240625,1.0645625,0.87165625,-0.452875,-1.0095,1.00484375,0.01795673310398062,0.02587391791119375,True
47696,23436,0,23437,2727.0,34553.0,26595.0,-0.0064659999999999995,0.0028669999999999998,-0.001769,0.8575,0.14,-3.5875000000000004,0.91225,-0.01440625,-0.3625,1.063,0.87134375,-0.4495,-1.01296875,1.004,0.01779560931716395,0.026005259771493535,True
47697,23437,0,23438,2726.0,34551.0,26596.0,-0.002562,-6.1e-05,0.000976,0.7175,-0.035,-3.43,0.91278125,-0.0096875,-0.36353125000000003,1.0606875,0.8713125,-0.454,-1.0140625,1.00803125,0.018169317903001553,0.02600662127553251,True
47698,23438,0,23439,2727.0,34553.0,26598.0,-0.002257,-0.001464,0.0035989999999999998,0.525,-0.29750000000000004,-3.5525,0.91190625,-0.01678125,-0.36678125,1.06646875,0.8764375,-0.45903125,-1.0195625,1.0195,0.01808125577336592,0.026090833922455675,True
47699,23439,0,23440,2727.0,34552.0,26596.0,0.000244,-0.002745,0.004697,0.5950000000000001,-0.7000000000000001,-3.6400000000000006,0.929625,-0.02428125,-0.37821875,1.08178125,0.88384375,-0.4604375,-1.01840625,1.013375,0.017831089488894055,0.025588660348818182,True
47700,23440,0,23441,2729.0,34552.0,26597.0,-0.000122,-0.001769,0.000488,0.35000000000000003,-1.5050000000000001,-3.8850000000000002,0.9344687500000001,-0.022125,-0.3780625,1.09471875,0.8827812500000001,-0.4579375,-1.0149375,1.01415625,0.017818857375034178,0.025459787776803366,True
47701,23441,0,23442,2728.0,34551.0,26593.0,0.000732,-0.0011589999999999999,-0.0006709999999999999,0.4025,-1.8025000000000002,-4.0425,0.9480937500000001,-0.0174375,-0.36209375,1.048625,0.879,-0.45315625,-1.01365625,1.00496875,0.017818507580182007,0.0260482711318942,True
47702,23442,0,23443,2728.0,34553.0,26594.0,0.00183,0.00061,-0.000732,0.36750000000000005,-2.0125,-4.1825,0.9130312500000001,-0.01871875,-0.37193750000000003,1.085375,0.87515625,-0.458125,-1.01659375,1.00284375,0.017965655584800552,0.02576914572952203,True
47703,23443,0,23444,2727.0,34551.0,26592.0,0.001403,0.002623,-0.001464,0.35000000000000003,-2.205,-4.2,0.94565625,-0.025562500000000002,-0.37534375000000003,1.09225,0.8807812500000001,-0.45575,-1.0151875000000001,1.0139375,0.01759044396512068,0.025578211236673722,True
47704,23444,0,23445,2728.0,34550.0,26594.0,0.002562,0.00183,-0.001647,0.43750000000000006,-2.3275,-4.1475,0.94771875,-0.02365625,-0.37278125,1.0799375,0.88028125,-0.45671875,-1.01346875,1.006875,0.017707301802291037,0.02561370061879162,True
47705,23445,0,23446,2727.0,34552.0,26593.0,0.0044529999999999995,0.001098,-0.001281,0.31500000000000006,-2.415,-4.095000000000001,0.92603125,-0.01440625,-0.36525,1.071375,0.86940625,-0.45434375,-1.01446875,0.9999375,0.017990157679042194,0.025953729279179674,True
47706,23446,0,23447,2728.0,34550.0,26593.0,0.004148,0.000244,-0.000488,0.2625,-2.3975000000000004,-4.0600000000000005,0.91446875,-0.017125,-0.370125,1.07684375,0.87421875,-0.45346875000000003,-1.01403125,1.00665625,0.017843838616965133,0.02574180241339548,True
47707,23447,0,23448,2727.0,34551.0,26592.0,0.0034159999999999998,-0.000976,-0.0021349999999999997,0.12250000000000001,-2.2750000000000004,-4.165,0.9319375,-0.02040625,-0.370625,1.0746875,0.87415625,-0.45437500000000003,-1.01409375,1.0073125,0.017746057709510057,0.02572424795521525,True
47708,23448,0,23449,2726.0,34553.0,26592.0,0.001647,-0.0025009999999999998,-0.0013419999999999999,0.12250000000000001,-1.9250000000000003,-4.1825,0.9249375,-0.017687500000000002,-0.36796875,1.0613125,0.8753125,-0.454625,-1.01759375,1.0153125,0.01786727459529639,0.025966725916636173,True
47709,23449,0,23450,2727.0,34554.0,26593.0,-0.000915,-0.001464,-0.002257,0.10500000000000001,-1.7850000000000001,-4.235,0.92434375,-0.0175,-0.36740625,1.07690625,0.8778750000000001,-0.4570625,-1.01465625,1.0072812500000001,0.017972824823095576,0.025874830880396372,True
47710,23450,0,23451,2727.0,34557.0,26595.0,0.0011589999999999999,-0.001952,-0.000305,0.08750000000000001,-1.5225000000000002,-4.1825,0.93290625,-0.01990625,-0.367875,1.0695625,0.87284375,-0.4543125,-1.01478125,1.01346875,0.017763993569641347,0.0258609597075729,True
47711,23451,0,23452,2729.0,34553.0,26594.0,0.001647,-0.002257,0.000488,0.10500000000000001,-1.3475000000000001,-4.095000000000001,0.9206562500000001,-0.0171875,-0.37153125000000004,1.07428125,0.88303125,-0.4574375,-1.01353125,1.00665625,0.018000659308645885,0.025666108218926502,True
47712,23452,0,23453,2730.0,34557.0,26597.0,-0.002196,-0.000366,0.0017079999999999999,0.28,-1.12,-4.0425,0.93140625,-0.01996875,-0.37043750000000003,1.0715937500000001,0.8745937500000001,-0.454125,-1.01459375,1.00028125,0.01775390654950852,0.025751217726652068,True
47713,23453,0,23454,2730.0,34556.0,26597.0,-0.003904,0.0008539999999999999,0.0006709999999999999,0.35000000000000003,-1.0150000000000001,-3.99,0.92478125,-0.0170625,-0.36846875,1.0765,0.87840625,-0.4586875,-1.0149062500000001,1.00759375,0.01805595660028773,0.025842091652851992,True
47714,23454,0,23455,2730.0,34558.0,26600.0,-0.003111,0.001281,0.0011589999999999999,0.47250000000000003,-1.155,-4.0425,0.932875,-0.01740625,-0.3690625,1.07115625,0.875375,-0.45409375,-1.015375,1.00740625,0.017857439513578377,0.025836610484551995,True
47715,23455,0,23456,2731.0,34560.0,26603.0,-0.000793,0.0018909999999999999,-0.000366,0.36750000000000005,-1.5575,-4.0075,0.92509375,-0.01715625,-0.36890625,1.0733125000000001,0.8756875000000001,-0.4563125,-1.0166875,1.00878125,0.017956764741209455,0.025893965777843288,True
47716,23456,0,23457,2732.0,34561.0,26602.0,-0.001037,0.0015249999999999999,-0.00183,0.385,-1.6625,-4.077500000000001,0.93178125,-0.01415625,-0.36846875,1.0703125,0.86675,-0.4523125,-1.01059375,1.0135,0.01791880624787533,0.025674120591399393,True
47717,23457,0,23458,2733.0,34562.0,26603.0,-0.0025009999999999998,0.0011589999999999999,0.000122,0.385,-1.8550000000000002,-4.0425,0.927625,-0.01625,-0.37065625,1.07571875,0.88153125,-0.4544375,-1.01409375,1.00678125,0.01791852705669472,0.025722998659505704,True
47718,23458,0,23459,2732.0,34564.0,26606.0,-0.00244,-0.000549,0.001464,0.3325,-1.7850000000000001,-3.7975000000000003,0.92484375,-0.01715625,-0.36790625,1.07015625,0.87425,-0.4549375,-1.01725,1.012375,0.01790154851142024,0.025955840470075646,True
47719,23459,0,23460,2734.0,34563.0,26605.0,0.000793,-0.0017079999999999999,0.002562,0.35000000000000003,-1.8375000000000001,-3.8150000000000004,0.9276562500000001,-0.01878125,-0.37015625,1.07865625,0.88096875,-0.45306250000000003,-1.01059375,1.00615625,0.017759789801379686,0.025606649182408955,True
47720,23460,0,23461,2734.0,34566.0,26610.0,0.0050019999999999995,-0.000366,-0.000549,0.31500000000000006,-2.1875,-3.6925000000000003,0.92971875,-0.01715625,-0.36796875,1.0714375,0.8745937500000001,-0.45459375,-1.0139375,1.0141875,0.017887743483777974,0.025824352923245288,True
47721,23461,0,23462,2735.0,34564.0,26608.0,0.005246,0.002196,-0.003477,0.29750000000000004,-2.1,-3.7450000000000006,0.924875,-0.01834375,-0.37259375,1.0705625,0.8798125,-0.4573125,-1.01359375,1.0070000000000001,0.01794836411400476,0.02562606582670673,True
47722,23462,0,23463,2735.0,34562.0,26605.0,0.004392,-0.000183,-0.004697,0.31500000000000006,-1.9250000000000003,-3.7800000000000002,0.92984375,-0.0166875,-0.36765625,1.071625,0.8679687500000001,-0.45403125,-1.01440625,1.00871875,0.01788432122004424,0.02585510099804987,True
47723,23463,0,23464,2737.0,34558.0,26596.0,0.0037819999999999998,-0.002196,-0.003721,0.29750000000000004,-1.7675,-3.8675,0.9248125,-0.01684375,-0.36762500000000004,1.07046875,0.8721875,-0.45765625,-1.01390625,1.0118125,0.018023497243322324,0.025836878236480953,True
47724,23464,0,23465,2734.0,34553.0,26588.0,0.000244,-0.0015249999999999999,-0.000488,0.22750000000000004,-1.435,-3.9725000000000006,0.9243750000000001,-0.0135,-0.36315625,1.071125,0.87009375,-0.4558125,-1.01590625,1.01140625,0.018086191166210488,0.026093398075474478,True
47725,23465,0,23466,2732.0,34549.0,26576.0,-0.0030499999999999998,0.001464,0.000915,0.6475000000000001,-0.665,-3.8325000000000005,0.92478125,-0.01665625,-0.36759375,1.0701875,0.879375,-0.45540625,-1.0164375,1.01146875,0.017940818300656938,0.025936696621971064,True
47726,23466,0,23467,2728.0,34546.0,26563.0,-0.004331,0.0017079999999999999,0.001281,0.6825000000000001,-0.36750000000000005,-3.7450000000000006,0.9302812500000001,-0.01925,-0.36903125000000003,1.0708125,0.87421875,-0.452125,-1.0135,1.01221875,0.01770296037665438,0.025764836988026465,True
47727,23467,0,23468,2723.0,34541.0,26553.0,-0.0060999999999999995,0.002745,0.002928,0.6825000000000001,-0.31500000000000006,-3.7800000000000002,0.9238437500000001,-0.01678125,-0.36365625,1.07584375,0.8793125,-0.45687500000000003,-1.0145,1.00659375,0.017994684521223582,0.026018659177676946,True
47728,23468,0,23469,2720.0,34538.0,26545.0,-0.005673,0.002074,0.003538,0.6300000000000001,-0.36750000000000005,-3.7975000000000003,0.93175,-0.01996875,-0.36884375,1.07065625,0.8720625,-0.45528125,-1.01590625,1.00821875,0.017800347317616726,0.025866042730312837,True
47729,23469,0,23470,2713.0,34534.0,26538.0,-0.000732,-0.000915,0.002562,0.4025,-0.77,-3.9200000000000004,0.924625,-0.020625,-0.36990625,1.06425,0.8748750000000001,-0.45553125,-1.01140625,0.998,0.017783553567252808,0.025648297964053903,True
47730,23470,0,23471,2709.0,34531.0,26530.0,-0.000915,-0.001647,0.0021349999999999997,0.3325,-0.665,-4.0075,0.92459375,-0.0169375,-0.36940625,1.06965625,0.880125,-0.4635,-1.0149375,0.9960625000000001,0.018254235902466942,0.025805831015967964,True
47731,23471,0,23472,2703.0,34531.0,26523.0,-0.0021349999999999997,-0.001281,0.002928,0.31500000000000006,-0.6300000000000001,-3.99,0.92484375,-0.0169375,-0.36846875,1.07046875,0.8711875,-0.45940625,-1.01159375,0.99071875,0.018089921949761147,0.02571307556120849,True
47732,23472,0,23473,2700.0,34526.0,26517.0,-0.00122,-0.002562,0.0008539999999999999,0.10500000000000001,-0.665,-4.1475,0.925,-0.018625,-0.37043750000000003,1.07115625,0.8895000000000001,-0.45671875,-1.0105,0.99884375,0.017913022367319818,0.025591751464384957,True
47733,23473,0,23474,2694.0,34525.0,26513.0,0.000366,-0.001647,-0.000183,0.12250000000000001,-0.7875000000000001,-4.2700000000000005,0.92090625,-0.01675,-0.36834375,1.07778125,0.89065625,-0.46234375,-1.01478125,1.00009375,0.018215497033067407,0.025842220786959712,True
47734,23474,0,23475,2691.0,34523.0,26510.0,-0.001403,0.001037,-0.0042699999999999995,0.0175,-1.1900000000000002,-4.375,0.93265625,-0.014375,-0.36762500000000004,1.07175,0.8601562500000001,-0.45175,-1.011625,1.0130000000000001,0.017887267782469556,0.025748027167367172,True
47735,23475,0,23476,2686.0,34519.0,26510.0,0.000488,0.000488,-0.004575,0.14,-1.4875,-4.2700000000000005,0.9245625000000001,-0.0174375,-0.3664375,1.07671875,0.884,-0.45637500000000003,-1.01696875,1.00384375,0.01794777435331279,0.026003600056461677,True
47736,23476,0,23477,2683.0,34521.0,26507.0,0.0026839999999999998,0.0032329999999999998,-0.00366,0.15750000000000003,-1.6275000000000002,-4.340000000000001,0.93184375,-0.01740625,-0.36512500000000003,1.070875,0.86809375,-0.45209375,-1.018125,1.01865625,0.017777107532969443,0.026101076719378447,True
47737,23477,0,23478,2680.0,34519.0,26507.0,0.001464,0.0026839999999999998,-0.0037819999999999998,0.4025,-1.6800000000000002,-4.235,0.92778125,-0.0205625,-0.36803125000000003,1.07078125,0.8696875000000001,-0.44803125,-1.01021875,1.006375,0.01748479235930296,0.025677004524400648,True
47738,23478,0,23479,2678.0,34519.0,26507.0,-0.000183,0.0011589999999999999,-0.000793,0.4025,-1.7500000000000002,-4.165,0.92525,-0.017812500000000002,-0.36946875,1.07109375,0.89234375,-0.46053125,-1.0119375,1.00103125,0.018099310496373623,0.02568648470355405,True
47739,23479,0,23480,2677.0,34519.0,26510.0,0.00061,0.000793,0.0018909999999999999,0.36750000000000005,-1.9075000000000002,-4.0075,0.92521875,-0.0173125,-0.36171875000000003,1.07065625,0.8816875000000001,-0.459125,-1.0210000000000001,1.01665625,0.01806329948434378,0.026349116741936775,True
47740,23480,0,23481,2675.0,34519.0,26509.0,0.003538,-0.001098,0.003721,0.36750000000000005,-1.9775000000000003,-4.025,0.92734375,-0.01903125,-0.3690625,1.07084375,0.87609375,-0.45203125,-1.01059375,1.011875,0.01770814030020512,0.025650380651199053,True
47741,23481,0,23482,2673.0,34521.0,26512.0,0.0028669999999999998,-0.002257,0.003172,0.29750000000000004,-2.0475000000000003,-3.7975000000000003,0.92471875,-0.01728125,-0.36475,1.0772187500000001,0.8865625,-0.45503125,-1.011125,1.00078125,0.01790020202897921,0.02584349964265902,True
47742,23482,0,23483,2672.0,34522.0,26512.0,0.001098,-0.002379,0.0023179999999999997,0.1925,-2.1,-3.6575,0.92571875,-0.017656250000000002,-0.36678125,1.07625,0.87209375,-0.45509375,-1.01478125,0.99428125,0.017887377757445727,0.02590468385567033,True
47743,23483,0,23484,2673.0,34523.0,26516.0,0.00183,-0.001464,0.001586,0.31500000000000006,-2.205,-3.6400000000000006,0.9306875,-0.01825,-0.3680625,1.07059375,0.8723125,-0.4561875,-1.0154375,1.013375,0.01790702250708538,0.02587901970533196,True
47744,23484,0,23485,2672.0,34525.0,26519.0,0.0025009999999999998,0.000122,-0.00183,0.29750000000000004,-1.9775000000000003,-3.6750000000000003,0.9250625,-0.01859375,-0.36834375,1.06409375,0.87521875,-0.4544375,-1.01265625,1.0059375,0.017822685555535674,0.025759459273742673,True
47745,23485,0,23486,2672.0,34521.0,26519.0,-0.0013419999999999999,0.000305,-0.00244,0.28,-1.435,-3.9375000000000004,0.9253750000000001,-0.01728125,-0.36590625,1.07628125,0.87671875,-0.45506250000000004,-1.013875,1.00653125,0.0179014570091571,0.02590437307294452,True
47746,23486,0,23487,2673.0,34525.0,26523.0,-0.0042699999999999995,0.000183,-0.0044529999999999995,0.36750000000000005,-1.1725,-4.0075,0.93084375,-0.0200625,-0.36778125,1.07025,0.8738750000000001,-0.45406250000000004,-1.01378125,1.0135,0.017747562393774043,0.025825763547844254,True
47747,23487,0,23488,2674.0,34526.0,26522.0,-0.0030499999999999998,0.00042699999999999997,-0.001769,0.14,-1.0325000000000002,-4.025,0.926,-0.0208125,-0.3695625,1.07034375,0.8744375,-0.45487500000000003,-1.0134375,1.0126875,0.017749528468250196,0.0257411641242832,True
47748,23488,0,23489,2674.0,34527.0,26524.0,-0.004209,0.000122,-0.001464,0.07,-0.8750000000000001,-4.130000000000001,0.92509375,-0.0199375,-0.36975,1.07196875,0.8814062500000001,-0.45459375,-1.01409375,1.01028125,0.017774012295747092,0.025759228235082473,True
47749,23489,0,23490,2677.0,34529.0,26524.0,-0.004941,0.002196,0.0013419999999999999,0.29750000000000004,-1.2600000000000002,-4.165,0.91515625,-0.017750000000000002,-0.36790625,1.0754375,0.87990625,-0.45703125,-1.01359375,1.006,0.017961348027471652,0.025813463928988617,True
47750,23490,0,23491,2677.0,34529.0,26523.0,-0.002196,0.000183,0.0034159999999999998,0.2625,-1.4175000000000002,-4.130000000000001,0.92490625,-0.017125,-0.36309375,1.076125,0.875375,-0.4570625,-1.01365625,1.00565625,0.01798815781739937,0.026008292969965152,True
47751,23491,0,23492,2678.0,34531.0,26526.0,-0.00042699999999999997,-0.0017079999999999999,0.0048189999999999995,0.29750000000000004,-1.7850000000000001,-4.1825,0.92496875,-0.01728125,-0.3696875,1.078,0.8750625,-0.45771875,-1.01421875,1.00665625,0.0180081186026395,0.025766595248952157,True
47752,23492,0,23493,2677.0,34531.0,26527.0,0.00042699999999999997,0.001281,0.0040869999999999995,0.24500000000000002,-2.1,-4.2525,0.9253750000000001,-0.0174375,-0.3665,1.08096875,0.87903125,-0.45621875,-1.01428125,1.00653125,0.017941500053028435,0.025896456649139178,True
