frame_seq,absolute_seq_u64,segment_id,sample_seq,PPG_G,PPG_R,PPG_IR,ACC_X,ACC_Y,ACC_Z,GYRO_X,GYRO_Y,GYRO_Z,Uh1,Uh2,Uh3,Uh4,Uc1,Uc2,Uc3,Uc4,UD1,UD2,parser_valid
24511,251,0,252,3166.0,35541.0,26203.0,-0.0023179999999999997,-0.006588,-0.0017079999999999999,-0.12250000000000001,-1.5050000000000001,-4.025,0.9275625000000001,0.03546875,-0.07125000000000001,1.11521875,0.84465625,-0.47628125,-0.64303125,1.03865625,0.020907996389361642,0.02320255346022012,True
24512,252,0,253,3167.0,35542.0,26205.0,0.003355,-0.000122,-0.002013,0.29750000000000004,-1.8725000000000003,-4.0425,0.92825,0.03546875,-0.06834375,1.115125,0.844,-0.48096875,-0.6423125000000001,1.04846875,0.021095468291057722,0.023292000294209404,True
24513,253,0,254,3168.0,35545.0,26210.0,0.0071979999999999995,0.004941,-0.000915,0.6825000000000001,-1.9600000000000002,-4.1825,0.92503125,0.0369375,-0.0715625,1.1087500000000001,0.84325,-0.48078125,-0.6372187500000001,1.04896875,0.02114796683622995,0.02295941988175918,True
24514,254,0,255,3167.0,35545.0,26210.0,0.0077469999999999995,0.009271999999999999,0.000549,0.8400000000000001,-2.0825,-4.0425,0.91328125,0.04221875,-0.06784375000000001,1.100625,0.84165625,-0.48,-0.64328125,1.04484375,0.021332465277777775,0.023350685087847222,True
24515,255,0,256,3168.0,35544.0,26210.0,0.009271999999999999,0.008296,0.0028669999999999998,0.805,-1.9775000000000003,-4.130000000000001,0.912,0.0410625,-0.0675625,1.1001875,0.8433125,-0.48115625,-0.63925,1.0491875,0.021331457741094233,0.023202309323538662,True
24516,256,0,257,3165.0,35544.0,26209.0,0.009028,0.003355,0.0050019999999999995,0.42000000000000004,-1.2950000000000002,-4.095000000000001,0.911375,0.0403125,-0.067125,1.092625,0.84596875,-0.48334375,-0.64003125,1.04684375,0.021388265236442636,0.023251035852480912,True
24517,257,0,258,3166.0,35543.0,26210.0,0.0064659999999999995,-0.00042699999999999997,0.0023179999999999997,0.49000000000000005,-0.5775,-4.0075,0.914875,0.0379375,-0.07459375,1.114,0.84946875,-0.48171875000000003,-0.645,1.0501562500000001,0.021226297683858496,0.023144907689186447,True
24518,258,0,259,3165.0,35544.0,26209.0,0.00061,0.000122,-0.00183,0.28,0.12250000000000001,-4.095000000000001,0.9148125,0.035375000000000004,-0.0718125,1.109125,0.84521875,-0.48071875000000003,-0.6434062500000001,1.04809375,0.02108164205758869,0.023194591859637913,True
24519,259,0,260,3164.0,35543.0,26210.0,-0.0034159999999999998,-0.002745,-0.005673,0.31500000000000006,0.8400000000000001,-4.112500000000001,0.91678125,0.0424375,-0.06740625,1.10025,0.845,-0.48,-0.64334375,1.04871875,0.02134140114379085,0.02337091532069385,True
24520,260,0,261,3162.0,35544.0,26208.0,-0.006954,-0.003172,-0.0068319999999999995,0.22750000000000004,1.54,-4.235,0.91309375,0.0404375,-0.06946875,1.1086562500000001,0.84796875,-0.48231250000000003,-0.6451250000000001,1.05134375,0.021352149638642185,0.023357814172174012,True
24521,261,0,262,3163.0,35543.0,26211.0,-0.008905999999999999,-0.002257,-0.00122,0.45500000000000007,2.2225,-4.2875000000000005,0.9108437500000001,0.0370625,-0.06996875,1.0972187500000001,0.8460625,-0.4811875,-0.643625,1.04903125,0.021169316235170373,0.023278079016378475,True
24522,262,0,263,3165.0,35546.0,26208.0,-0.005063,0.0017079999999999999,-0.000366,0.6300000000000001,2.1875,-4.41,0.915375,0.041,-0.06996875,1.11,0.846375,-0.48181250000000003,-0.64578125,1.04840625,0.021355138636079334,0.023363532044657742,True
24523,263,0,264,3165.0,35545.0,26208.0,-0.005429,0.004941,0.000183,0.7525000000000001,2.1525000000000003,-4.357500000000001,0.915875,0.03809375,-0.07034375,1.10371875,0.8458125,-0.48009375,-0.6440625,1.0486875,0.021167708967617823,0.023280201874183688,True
24524,264,0,265,3163.0,35542.0,26208.0,-0.004575,0.0070149999999999995,0.002928,0.9625000000000001,1.8900000000000001,-4.4275,0.91540625,0.041375,-0.068,1.10253125,0.8455,-0.48181250000000003,-0.6442187500000001,1.0501562500000001,0.021370456129422608,0.02338149794259556,True
24525,265,0,266,3163.0,35544.0,26209.0,-0.005124,0.008662,0.002562,1.0850000000000002,1.61,-4.6725,0.9164375,0.04025,-0.06778125,1.1051875,0.87365625,-0.48940625,-0.6432187500000001,1.0405,0.021627974340945894,0.02335074430973024,True
24526,266,0,267,3163.0,35542.0,26208.0,-0.006405,0.000305,0.004026,0.56,0.7525000000000001,-4.6025,0.9233750000000001,0.0375,-0.06884375,1.10228125,0.8250625,-0.48178125,-0.64834375,1.0690625,0.021210925981948313,0.023510707489220246,True
24527,267,0,268,3163.0,35543.0,26210.0,-0.0053679999999999995,-0.0034159999999999998,0.004026,0.45500000000000007,-0.0175,-4.445,0.9116875,0.04025,-0.06996875,1.1106875,0.86909375,-0.4811875,-0.63084375,1.03784375,0.021299518252535746,0.022771245909917318,True
24528,268,0,269,3161.0,35543.0,26212.0,-0.004026,-0.004331,0.002379,0.36750000000000005,-0.77,-4.322500000000001,0.9148437500000001,0.04053125,-0.068375,1.10359375,0.8365625,-0.48375,-0.6528437500000001,1.0689375,0.02141343748404554,0.023707964725164826,True
24529,269,0,270,3162.0,35543.0,26213.0,-0.002745,-0.004575,0.000915,0.4025,-1.54,-4.130000000000001,0.915625,0.039906250000000004,-0.0690625,1.10253125,0.8629375,-0.4835,-0.642875,1.052625,0.021377917781362957,0.02328512805425503,True
24530,270,0,271,3164.0,35547.0,26215.0,-0.001952,-0.00366,-0.002196,0.36750000000000005,-2.1525000000000003,-4.0600000000000005,0.9164375,0.039875,-0.064375,1.10321875,0.8355312500000001,-0.4720625,-0.6449375,1.04840625,0.02091926252640128,0.023557069276398047,True
24531,271,0,272,3163.0,35547.0,26216.0,0.004331,-0.004331,-0.000183,0.24500000000000002,-3.43,-3.6225000000000005,0.917625,0.04084375,-0.0691875,1.09709375,0.84571875,-0.47575,-0.6365625,1.0565625,0.021106350162916353,0.02302979565432475,True
24532,272,0,273,3164.0,35547.0,26218.0,0.006893,-0.003172,-0.00042699999999999997,0.22750000000000004,-3.7975000000000003,-3.5875000000000004,0.9158125,0.04028125,-0.069375,1.1027500000000001,0.8393125,-0.48531250000000004,-0.6443125000000001,1.049375,0.021465674575319393,0.02332941931327969,True
24533,273,0,274,3164.0,35549.0,26218.0,0.004575,-0.001586,-0.000305,0.22750000000000004,-3.9725000000000006,-3.4650000000000003,0.9150625,0.042625,-0.0689375,1.1074375,0.8359062500000001,-0.48471875000000003,-0.6428125,1.03015625,0.02153766826502755,0.023287723347324905,True
24534,274,0,275,3163.0,35546.0,26219.0,0.002745,-0.0013419999999999999,-0.0015249999999999999,0.2625,-4.2700000000000005,-3.2900000000000005,0.92171875,0.0386875,-0.07184375,1.1104687500000001,0.8336250000000001,-0.47440625000000003,-0.63284375,1.03734375,0.020964502458563218,0.022774471583290098,True
24535,275,0,276,3163.0,35548.0,26223.0,0.0026839999999999998,0.0018909999999999999,-0.004941,0.29750000000000004,-4.7075000000000005,-3.4475000000000002,0.9244375,0.0384375,-0.0728125,1.10903125,0.83165625,-0.47715625,-0.63853125,1.03696875,0.02106428315176523,0.022960733505573715,True
24536,276,0,277,3162.0,35548.0,26224.0,0.0070149999999999995,0.003294,-0.010003999999999999,0.5425000000000001,-5.827500000000001,-3.6575,0.9236562500000001,0.039156250000000004,-0.07121875,1.1041875,0.8318125000000001,-0.47731250000000003,-0.6388125,1.0408125,0.021099896077234788,0.0230365708574632,True
24537,277,0,278,3162.0,35545.0,26223.0,0.005978,0.001281,-0.0040869999999999995,0.6125,-6.0025,-3.5875000000000004,0.9208437500000001,0.041375,-0.068375,1.1025,0.83565625,-0.47990625000000003,-0.6410625,1.04875,0.021294250258821968,0.023241185318206146,True
24538,278,0,279,3163.0,35549.0,26226.0,0.0040869999999999995,0.000732,0.003172,0.5775,-5.8100000000000005,-3.6750000000000003,0.9071875,0.0405625,-0.06821875,1.10259375,0.8423125,-0.4815625,-0.64171875,1.04903125,0.021327274351871945,0.02327353890442403,True
24539,279,0,280,3163.0,35546.0,26228.0,0.0075639999999999995,-0.003843,0.010614,0.5950000000000001,-5.232500000000001,-3.6225000000000005,0.915875,0.0399375,-0.06896875,1.10296875,0.84490625,-0.48084375,-0.6431250000000001,1.04978125,0.021273010657567717,0.023298840954627306,True
24540,280,0,281,3164.0,35546.0,26227.0,0.006344,-0.00671,0.013969,0.47250000000000003,-4.4625,-3.2025,0.9166562500000001,0.043125000000000004,-0.0710625,1.10971875,0.8435625,-0.48428125,-0.6458125,1.0542500000000001,0.021540605771304802,0.02332039164868271,True
24541,281,0,282,3163.0,35546.0,26230.0,0.0018909999999999999,-0.002928,0.009637999999999999,0.385,-1.8725000000000003,-3.115,0.92040625,0.04096875,-0.06859375,1.1026875,0.84521875,-0.48184375,-0.64375,1.05090625,0.021355111377181307,0.023338828303322345,True
24542,282,0,283,3165.0,35545.0,26229.0,-0.005124,-0.0006709999999999999,0.003904,0.525,-0.9100000000000001,-3.115,0.91525,0.039593750000000004,-0.06934375,1.10853125,0.8524375000000001,-0.48259375,-0.6460625,1.0541875,0.021328928843578922,0.023400036009808868,True
24543,283,0,284,3165.0,35547.0,26229.0,-0.008967,0.001403,-0.002745,0.47250000000000003,-0.42000000000000004,-3.0975,0.9213125,0.03859375,-0.07103125,1.1087500000000001,0.8506875,-0.4835,-0.6421250000000001,1.03725,0.021324310249760045,0.023175507388262986,True
24544,284,0,285,3165.0,35545.0,26225.0,-0.009089,0.0021349999999999997,-0.010919,0.35000000000000003,-0.31500000000000006,-3.325,0.9205,0.03771875,-0.06946875,1.1046875,0.8446875,-0.4805625,-0.64265625,1.04890625,0.021171133220488705,0.02325997222803447,True
24545,285,0,286,3165.0,35540.0,26216.0,-0.003172,0.004758,-0.015006,0.6125,-1.4875,-3.8500000000000005,0.91778125,0.04096875,-0.06834375,1.09571875,0.84528125,-0.4804375,-0.6429375,1.049,0.021298894270169805,0.02331677179313546,True
24546,286,0,287,3163.0,35534.0,26206.0,0.0035989999999999998,0.0046359999999999995,-0.008784,0.7350000000000001,-2.0300000000000002,-3.8325000000000005,0.90946875,0.0411875,-0.06146875,1.103875,0.84440625,-0.48059375,-0.6429375,1.04853125,0.02131407658362044,0.023595756390649456,True
24547,287,0,288,3160.0,35526.0,26190.0,0.0070149999999999995,0.006588,-0.003172,0.8400000000000001,-2.0300000000000002,-3.7275000000000005,0.91646875,0.0410625,-0.06978125,1.10021875,0.8455,-0.47871875,-0.6465625,1.05540625,0.021234005558399584,0.023402097148436014,True
24548,288,0,289,3158.0,35515.0,26175.0,0.0055509999999999995,0.00732,0.004392,0.9100000000000001,-1.8200000000000003,-3.8850000000000002,0.91640625,0.039593750000000004,-0.0718125,1.11225,0.85096875,-0.48378125,-0.6456875,1.05540625,0.02137639585388797,0.023285006758281743,True
24549,289,0,290,3154.0,35512.0,26162.0,0.0021349999999999997,0.002623,0.012078,0.8400000000000001,-1.2600000000000002,-3.7625,0.9324687500000001,0.0374375,-0.07103125,1.0970625,0.85065625,-0.48259375,-0.6470625,1.0558125,0.021240856067384607,0.023371192814559544,True
24550,290,0,291,3150.0,35505.0,26152.0,-0.003843,-0.007869,0.008296,0.17500000000000002,-0.665,-3.535,0.9022187500000001,0.04153125,-0.0665,1.098,0.85253125,-0.482,-0.64359375,1.0490625,0.021384333387795114,0.023417597118926697,True
24551,291,0,292,3148.0,35502.0,26145.0,-0.0035989999999999998,-0.009943,0.003843,0.0175,-0.45500000000000007,-3.5700000000000003,0.8960625,0.04309375,-0.0663125,1.0981875,0.837375,-0.481,-0.6425,1.04871875,0.021408183897716596,0.02338186060667546,True
24552,292,0,293,3144.0,35498.0,26139.0,-0.003294,-0.0062829999999999995,0.000366,0.07,-0.4025,-3.535,0.90925,0.042375,-0.06575,1.0905625,0.84496875,-0.48140625000000004,-0.64334375,1.04896875,0.02139506385586,0.023438124138490744,True
24553,293,0,294,3143.0,35497.0,26135.0,-0.003904,-0.001647,-0.003172,0.22750000000000004,-0.36750000000000005,-3.6050000000000004,0.90865625,0.04234375,-0.064375,1.0972187500000001,0.83475,-0.47681250000000003,-0.64328125,1.0454375,0.021210124888606307,0.023491443534939163,True
24554,294,0,295,3138.0,35496.0,26133.0,-0.003904,0.003904,-0.004697,0.385,-0.49000000000000005,-3.7625,0.9021875,0.0421875,-0.06665625,1.091875,0.8311875,-0.481,-0.64253125,1.0489375,0.021371165393570524,0.023369149628246894,True
24555,295,0,296,3136.0,35496.0,26129.0,-0.00183,0.005246,-0.00488,0.35000000000000003,-1.0850000000000002,-3.7625,0.9113125,0.0394375,-0.06759375000000001,1.0972187500000001,0.84778125,-0.4814375,-0.64553125,1.0518750000000001,0.021276324153759355,0.023449991567943983,True
24556,296,0,297,3133.0,35494.0,26127.0,-0.000305,0.0030499999999999998,-0.006771,0.31500000000000006,-1.6450000000000002,-3.6750000000000003,0.9105625,0.04215625,-0.0685,1.0970312500000001,0.84678125,-0.47840625000000003,-0.6439375,1.0505,0.021266192524278416,0.023350063276211443,True
24557,297,0,298,3132.0,35494.0,26127.0,0.001769,0.000305,-0.002745,0.47250000000000003,-2.0825,-3.7275000000000005,0.9091875,0.04253125,-0.07228125,1.1176875,0.84546875,-0.48081250000000003,-0.63746875,1.04928125,0.021377711626197046,0.022940161009844,True
24558,298,0,299,3131.0,35493.0,26130.0,0.00366,-0.000122,0.003111,0.42000000000000004,-2.2575000000000003,-3.7450000000000006,0.9324375,0.031375,-0.07353125,1.0913125000000001,0.84321875,-0.4835,-0.64596875,1.0565,0.021029468825944003,0.023226415070415923,True
24559,299,0,300,3129.0,35494.0,26132.0,0.0044529999999999995,0.000976,0.00183,0.4025,-2.31,-3.6400000000000006,0.9091875,0.042375,-0.07059375,1.1060625,0.84775,-0.48071875000000003,-0.6424062500000001,1.0482500000000001,0.021367581374627735,0.023204410080691695,True
24560,300,0,301,3127.0,35496.0,26134.0,0.001098,-0.000549,0.001464,0.5075000000000001,-3.1500000000000004,-3.5525,0.92703125,0.03590625,-0.07475,1.1116875,0.84521875,-0.47984375,-0.64490625,1.05540625,0.02106835342852219,0.023134851649111065,True
24561,301,0,302,3128.0,35494.0,26135.0,0.001281,-0.00183,0.0006709999999999999,0.42000000000000004,-3.2025,-3.4475000000000002,0.9188437500000001,0.04071875,-0.06646875000000001,1.0986875,0.85178125,-0.48190625000000004,-0.64546875,1.04575,0.02134739814225046,0.02349316240941857,True
24562,302,0,303,3127.0,35496.0,26138.0,0.003172,-0.003294,-0.000549,0.43750000000000006,-3.2375000000000003,-3.3950000000000005,0.90871875,0.04059375,-0.06753125,1.10090625,0.8445,-0.48125,-0.64365625,1.0539687500000001,0.021316058207812103,0.023378227408930037,True
24563,303,0,304,3126.0,35498.0,26145.0,0.000915,-0.005246,0.001403,0.31500000000000006,-3.2375000000000003,-3.2900000000000005,0.91640625,0.03840625,-0.06746875000000001,1.10540625,0.8522500000000001,-0.4840625,-0.64590625,1.0488125,0.021339136428033544,0.02346992210927525,True
24564,304,0,305,3125.0,35500.0,26145.0,-0.005612,-0.003721,0.0035989999999999998,0.385,-3.115,-3.4650000000000003,0.9165625000000001,0.039625,-0.07037500000000001,1.10721875,0.8445,-0.4789375,-0.6454375,1.04953125,0.021184028105795033,0.0233334263187659,True
24565,305,0,306,3126.0,35498.0,26149.0,-0.0028669999999999998,0.0035989999999999998,0.00488,0.6475000000000001,-3.5175000000000005,-3.6400000000000006,0.92071875,0.04146875,-0.07159375,1.1079375,0.845,-0.48059375,-0.6431250000000001,1.041375,0.021325565275556273,0.023192320373329276,True
24566,306,0,307,3124.0,35500.0,26151.0,0.001403,0.0034159999999999998,0.00244,0.5425000000000001,-3.6400000000000006,-3.6575,0.91971875,0.03925,-0.06996875,1.1094375,0.8413437500000001,-0.48096875,-0.6431250000000001,1.04915625,0.021249925005520868,0.023258261685561388,True
24567,307,0,308,3124.0,35501.0,26151.0,0.002074,0.0026839999999999998,-0.0030499999999999998,0.29750000000000004,-3.5000000000000004,-3.5525,0.92234375,0.0370625,-0.07112500000000001,1.1087500000000001,0.8449375,-0.48025,-0.6431875,1.04934375,0.021131830761532258,0.023213819235031994,True
24568,308,0,309,3124.0,35501.0,26152.0,0.001464,0.001281,-0.004026,0.28,-3.3425000000000002,-3.4825000000000004,0.9244375,0.03821875,-0.07228125,1.10940625,0.84521875,-0.48409375,-0.64303125,1.0483437500000001,0.021332727497827032,0.023160705929795064,True
24569,309,0,310,3123.0,35500.0,26152.0,0.002928,0.0008539999999999999,-0.005673,0.3325,-3.0450000000000004,-3.4825000000000004,0.9218437500000001,0.04146875,-0.06925,1.10146875,0.8455,-0.48081250000000003,-0.64271875,1.04909375,0.021334310288925257,0.02327132634259359,True
24570,310,0,311,3123.0,35500.0,26154.0,0.009333,-0.0008539999999999999,-0.005063,0.21000000000000002,-3.1325000000000003,-4.025,0.91640625,0.04096875,-0.06771875000000001,1.10815625,0.852625,-0.48353125,-0.6450625,1.0459687500000001,0.02142256338125245,0.023426345540815727,True
24571,311,0,312,3123.0,35499.0,26155.0,0.011895,-0.000122,-0.0028669999999999998,0.24500000000000002,-2.6950000000000003,-4.2875000000000005,0.9229375,0.0371875,-0.072625,1.10321875,0.85090625,-0.48096875,-0.64271875,1.04946875,0.021165675888540972,0.023134369051710256,True
24572,312,0,313,3121.0,35498.0,26153.0,0.010675,-0.001403,0.00122,0.29750000000000004,-1.6975000000000002,-4.357500000000001,0.91546875,0.0409375,-0.06940625,1.10221875,0.845875,-0.48059375,-0.643875,1.0483437500000001,0.021303864413010815,0.02331081252441022,True
24573,313,0,314,3122.0,35496.0,26153.0,0.006344,-0.0011589999999999999,0.002623,0.1925,-0.8400000000000001,-4.1825,0.91603125,0.0394375,-0.0705625,1.104,0.85275,-0.48240625000000004,-0.6460625,1.0500625000000001,0.02131505149744013,0.023350585920164733,True
24574,314,0,315,3120.0,35494.0,26148.0,-0.00244,-0.002562,0.0021349999999999997,0.31500000000000006,-0.12250000000000001,-4.0600000000000005,0.91609375,0.037125,-0.07303125,1.10940625,0.85171875,-0.481375,-0.64528125,1.05384375,0.021179365946561415,0.023219455042737647,True
24575,315,0,316,3119.0,35495.0,26148.0,-0.003172,-0.0050019999999999995,0.000976,0.22750000000000004,0.805,-3.6575,0.9204375,0.0379375,-0.073375,1.1114375,0.8438125,-0.48215625,-0.64509375,1.05278125,0.021243788524550406,0.02319807568189916,True
24576,316,0,317,3118.0,35496.0,26149.0,-0.001769,-0.0053679999999999995,-0.002379,0.14,1.12,-3.5875000000000004,0.922125,0.038125,-0.06890625,1.1028125,0.8445,-0.48,-0.6426875,1.048375,0.021165236928104573,0.023284037100255395,True
24577,317,0,318,3118.0,35497.0,26151.0,-0.003477,-0.0042699999999999995,-0.002928,0.21000000000000002,1.7500000000000002,-3.5175000000000005,0.91521875,0.0414375,-0.0716875,1.1086562500000001,0.8423437500000001,-0.4800625,-0.64271875,1.04890625,0.021303050186248503,0.023172412743622292,True
24578,318,0,319,3119.0,35498.0,26154.0,-0.0064659999999999995,0.002196,-0.000122,0.6300000000000001,2.205,-3.5875000000000004,0.92,0.04153125,-0.06921875,1.10340625,0.8445,-0.4804375,-0.643375,1.0502500000000001,0.021321871800698004,0.023298604594541132,True
24579,319,0,320,3117.0,35498.0,26152.0,-0.009943,0.010614,-0.000488,1.155,2.3800000000000003,-3.5700000000000003,0.9066875,0.040875,-0.06146875,1.108,0.8339062500000001,-0.48140625000000004,-0.6461875,1.05640625,0.021333792865759094,0.023724511143964965,True
24580,320,0,321,3117.0,35500.0,26152.0,-0.008662,0.012627,0.001952,1.4175000000000002,1.2425000000000002,-3.3775000000000004,0.92059375,0.0455,-0.06915625,1.1023125,0.84496875,-0.48003125,-0.6430625,1.04821875,0.021467752415552984,0.023288755202402298,True
24581,321,0,322,3117.0,35497.0,26153.0,-0.009821,0.009271999999999999,0.0055509999999999995,1.4000000000000001,0.6125,-3.1325000000000003,0.91615625,0.040375,-0.06796875000000001,1.102625,0.8449375,-0.48034375,-0.64315625,1.04846875,0.02127089208050847,0.02334065872751182,True
24582,322,0,323,3115.0,35497.0,26154.0,-0.008052,0.002806,0.0077469999999999995,1.155,-0.052500000000000005,-2.9225000000000003,0.91640625,0.0403125,-0.0688125,1.10746875,0.84546875,-0.48034375,-0.64284375,1.04896875,0.02126833901178369,0.023294034398931737,True
24583,323,0,324,3116.0,35498.0,26155.0,-0.00366,-0.006527,0.006039,0.5775,-0.8575,-2.8350000000000004,0.9195625000000001,0.03871875,-0.0701875,1.1071875,0.84540625,-0.47940625000000003,-0.64225,1.04975,0.021165750292656712,0.023214702391218336,True
24584,324,0,325,3115.0,35499.0,26160.0,0.003111,-0.015372,0.002623,0.07,-1.4525000000000001,-2.8175000000000003,0.9205,0.03884375,-0.06940625,1.106125,0.84490625,-0.480125,-0.6431875,1.04896875,0.021199595590300293,0.023283564676850346,True
24585,325,0,326,3117.0,35499.0,26159.0,0.0046359999999999995,-0.011956,-0.00122,-0.08750000000000001,-1.435,-2.9575000000000005,0.9115625,0.039968750000000004,-0.06925,1.103875,0.8455,-0.4796875,-0.6434062500000001,1.04896875,0.021228058977468565,0.02329857504986755,True
24586,326,0,327,3115.0,35500.0,26162.0,-0.0006709999999999999,-0.002989,-0.00183,0.29750000000000004,-1.1725,-3.22,0.91815625,0.04040625,-0.06884375,1.1036875,0.8453125,-0.48,-0.6423125000000001,1.04721875,0.021258425245098037,0.02327170999069183,True
24587,327,0,328,3115.0,35498.0,26165.0,-0.0034159999999999998,0.0048189999999999995,-0.003965,0.7000000000000001,-1.54,-3.3425000000000002,0.91690625,0.0404375,-0.06896875,1.1029375000000001,0.84315625,-0.48046875,-0.6441875,1.05009375,0.021278442636029998,0.023340950071898292,True
24588,328,0,329,3115.0,35501.0,26165.0,-6.1e-05,0.011101999999999999,-0.00671,0.8400000000000001,-2.2575000000000003,-3.4650000000000003,0.9168125,0.041375,-0.069,1.104,0.849375,-0.48290625000000004,-0.64771875,1.0596875000000001,0.02141417545149486,0.023479607012312245,True
24589,329,0,330,3116.0,35502.0,26167.0,0.005124,0.011285,-0.003904,0.8925000000000001,-2.87,-3.43,0.9313125,0.037875,-0.06825,1.1026875,0.8483125,-0.47990625000000003,-0.641875,1.04621875,0.021151275855069915,0.02327846399675349,True
24590,330,0,331,3116.0,35501.0,26170.0,0.0048189999999999995,0.0011589999999999999,0.0,0.5950000000000001,-3.3425000000000002,-3.2900000000000005,0.8994062500000001,0.03865625,-0.07715625,1.0991250000000001,0.8500625,-0.48265625,-0.6455625,1.04715625,0.021293134808442204,0.02306322892812854,True
24591,331,0,332,3116.0,35503.0,26170.0,0.003355,-0.004209,-0.000366,0.42000000000000004,-3.2900000000000005,-3.2550000000000003,0.90853125,0.04321875,-0.06740625,1.10996875,0.84246875,-0.47965625,-0.6444375,1.05740625,0.021359572808543826,0.02341425930293601,True
24592,332,0,333,3118.0,35501.0,26172.0,0.00549,-0.008296,0.001098,0.28,-3.0100000000000002,-3.2375000000000003,0.9380937500000001,0.03059375,-0.0714375,1.11165625,0.8572500000000001,-0.483,-0.6414375,1.04059375,0.02097756606625005,0.023131767373555216,True
24593,333,0,334,3116.0,35503.0,26175.0,0.006405,-0.00915,0.001037,0.22750000000000004,-2.5375,-3.2900000000000005,0.9100312500000001,0.04484375,-0.06328125,1.092125,0.8426250000000001,-0.47940625000000003,-0.642,1.0459375,0.021415960609747223,0.023485056001947897,True
24594,334,0,335,3116.0,35504.0,26177.0,0.0059169999999999995,-0.007808,0.00183,0.29750000000000004,-1.8200000000000003,-3.4125000000000005,0.89909375,0.04046875,-0.07153125,1.11571875,0.83821875,-0.48440625,-0.64659375,1.06046875,0.021437113673115925,0.023332331673621223,True
24595,335,0,336,3117.0,35503.0,26175.0,-0.001098,0.0070149999999999995,-6.1e-05,0.7000000000000001,-0.35000000000000003,-3.6050000000000004,0.922625,0.034375,-0.0696875,1.09840625,0.85740625,-0.48662500000000003,-0.64403125,1.0395625,0.021276921584742692,0.023305592505284623,True
24596,336,0,337,3118.0,35502.0,26170.0,-0.0044529999999999995,0.011224,0.000793,1.0325000000000002,-0.15750000000000003,-3.6750000000000003,0.9035625,0.043437500000000004,-0.0719375,1.1251875,0.84096875,-0.48175,-0.6486875,1.05684375,0.021452204192919214,0.023398811802859684,True
24597,337,0,338,3118.0,35496.0,26163.0,-0.003355,0.010431,-0.000183,0.9800000000000001,-0.28,-3.7100000000000004,0.93240625,0.03034375,-0.06440625,1.0935625,0.8488125,-0.48315625,-0.64171875,1.04609375,0.020973603025549452,0.02342825619661778,True
24598,338,0,339,3113.0,35488.0,26151.0,-0.0018909999999999999,0.006954,-0.002074,0.8575,-0.45500000000000007,-3.5525,0.9043125,0.044,-0.064625,1.09203125,0.84225,-0.48021875,-0.643375,1.04890625,0.021413973271787047,0.02348501372072616,True
24599,339,0,340,3113.0,35482.0,26139.0,0.0,-6.1e-05,-0.0015249999999999999,0.665,-0.45500000000000007,-3.4475000000000002,0.9095625,0.04075,-0.0724375,1.1242812500000001,0.8540625000000001,-0.4831875,-0.6456875,1.0553125,0.02139988920968726,0.0232596473520976,True
24600,340,0,341,3110.0,35477.0,26125.0,-0.004148,-0.011529,0.001769,0.052500000000000005,0.15750000000000003,-3.3075,0.937625,0.03821875,-0.06434375,1.0910625,0.843,-0.48028125,-0.64234375,1.04328125,0.02118031221557146,0.023455561121291477,True
24601,341,0,342,3107.0,35470.0,26116.0,-0.002013,-0.008357,0.00122,0.14,0.28,-3.3075,0.90821875,0.03815625,-0.07100000000000001,1.11109375,0.850875,-0.481375,-0.64640625,1.056875,0.02122148980602601,0.02334645644332021,True
24602,342,0,343,3103.0,35467.0,26106.0,0.0021349999999999997,6.1e-05,0.000976,0.43750000000000006,0.22750000000000004,-3.4475000000000002,0.92825,0.0385625,-0.0680625,1.10446875,0.85090625,-0.48131250000000003,-0.64490625,1.05475,0.021235585306139122,0.023406205897009653,True
24603,343,0,344,3102.0,35463.0,26100.0,0.00488,0.006954,0.000976,0.8575,0.3325,-3.6750000000000003,0.9221875,0.04009375,-0.0714375,1.109125,0.85246875,-0.47540625000000003,-0.64190625,1.04946875,0.021061958879640665,0.02315034982328122,True
24604,344,0,345,3097.0,35459.0,26092.0,0.00488,0.006039,0.0021349999999999997,0.77,0.665,-4.0075,0.92525,0.039,-0.0683125,1.100625,0.84571875,-0.48015625,-0.6431875,1.04903125,0.02120722779291901,0.023327948139825663,True
24605,345,0,346,3095.0,35462.0,26091.0,0.002745,-0.002745,-0.00042699999999999997,0.14,1.8375000000000001,-3.9725000000000006,0.91590625,0.0405,-0.06921875,1.10259375,0.85071875,-0.48309375,-0.63959375,1.05521875,0.021385930852795106,0.023148717701565187,True
24606,346,0,347,3092.0,35458.0,26089.0,-0.0026839999999999998,-0.009028,-0.002562,-0.07,2.3975000000000004,-3.9375000000000004,0.9250625,0.03865625,-0.0684375,1.1030625,0.8455312500000001,-0.4801875,-0.64334375,1.05540625,0.02119443529588979,0.023329068320933517,True
24607,347,0,348,3090.0,35460.0,26089.0,-0.00732,-0.008845,-0.0055509999999999995,-0.0175,2.9575000000000005,-4.0600000000000005,0.9173125,0.038,-0.07146875,1.103,0.85178125,-0.479875,-0.642875,1.04853125,0.021155132532335235,0.023187483197475944,True
24608,348,0,349,3089.0,35463.0,26090.0,-0.0075639999999999995,-0.006344,-0.0060999999999999995,0.17500000000000002,3.08,-4.130000000000001,0.913625,0.041625,-0.0685,1.10253125,0.84396875,-0.480625,-0.64371875,1.0493125,0.021333197171232353,0.023341394041838753,True
24609,349,0,350,3088.0,35465.0,26091.0,-0.002806,-0.0021349999999999997,0.00042699999999999997,0.5425000000000001,3.325,-4.112500000000001,0.9168125,0.04109375,-0.0678125,1.10315625,0.84740625,-0.48103125,-0.6440625,1.050625,0.021327737163850075,0.023382914241513546,True
24610,350,0,351,3084.0,35464.0,26092.0,-0.0053679999999999995,0.002074,0.00549,0.8750000000000001,3.3775000000000004,-4.0425,0.9158437500000001,0.0415625,-0.069125,1.10353125,0.852625,-0.48353125,-0.6460312500000001,1.05409375,0.021446814376500534,0.023407673395691247,True
24611,351,0,352,3084.0,35466.0,26094.0,-0.009516,0.008601,0.008784,1.12,3.3425000000000002,-3.9375000000000004,0.91640625,0.037125,-0.07115625,1.10928125,0.8533437500000001,-0.48231250000000003,-0.6435,1.050375,0.021216847877421712,0.023224937610323206,True
24612,352,0,353,3083.0,35469.0,26097.0,-0.011101999999999999,0.012993,0.008784,1.4000000000000001,2.9050000000000002,-3.7625,0.91696875,0.04015625,-0.07078125,1.1101875,0.84440625,-0.48059375,-0.64303125,1.038125,0.021271951379855724,0.023221575064958783,True
24613,353,0,354,3083.0,35469.0,26099.0,-0.008539999999999999,0.014335,0.00488,1.3125000000000002,2.0125,-3.7275000000000005,0.9238125,0.045625,-0.0715625,1.10990625,0.84521875,-0.48059375,-0.6431250000000001,1.042375,0.021495342611941345,0.023193588475487588,True
24614,354,0,355,3083.0,35471.0,26102.0,-0.003965,0.004941,-0.003294,0.7000000000000001,-0.07,-3.6225000000000005,0.9225625000000001,0.038,-0.07112500000000001,1.10996875,0.84521875,-0.4800625,-0.63790625,1.0489375,0.021162629793122466,0.023004440566048504,True
24615,355,0,356,3083.0,35473.0,26108.0,-0.000549,-0.002562,-0.005673,0.4025,-1.0150000000000001,-3.6225000000000005,0.92440625,0.039781250000000004,-0.0696875,1.10296875,0.845125,-0.48109375,-0.64509375,1.05675,0.021276622904154354,0.023347699783045052,True
24616,356,0,357,3081.0,35473.0,26109.0,0.0028669999999999998,-0.0070149999999999995,-0.003904,0.22750000000000004,-1.6975000000000002,-3.6750000000000003,0.915125,0.04021875,-0.06859375,1.10371875,0.85071875,-0.48309375,-0.6462187500000001,1.05475,0.02137444333398429,0.02343665800661613,True
24617,357,0,358,3080.0,35472.0,26111.0,0.008784,-0.01098,-0.002013,0.0175,-2.1,-3.7275000000000005,0.91628125,0.04103125,-0.06903125,1.10296875,0.84990625,-0.48409375,-0.6452187500000001,1.0553125,0.021447597994105866,0.02337928122467974,True
24618,358,0,359,3082.0,35476.0,26115.0,0.014029999999999999,-0.012565999999999999,0.001464,-0.29750000000000004,-1.715,-3.6575,0.9167500000000001,0.04128125,-0.0693125,1.10253125,0.85278125,-0.48234375,-0.6445625,1.0539687500000001,0.021387862426365943,0.023341862936296802,True
24619,359,0,360,3082.0,35475.0,26116.0,0.0053679999999999995,-0.008479,0.005978,-0.08750000000000001,-0.3325,-3.5700000000000003,0.917375,0.04028125,-0.06934375,1.1083125,0.8516875,-0.48246875,-0.64275,1.052625,0.021352013366707556,0.023268760588814157,True
24620,360,0,361,3081.0,35476.0,26116.0,0.001037,-0.0028669999999999998,0.0026839999999999998,0.17500000000000002,0.0175,-3.7625,0.9253125,0.04146875,-0.0674375,1.1106875,0.84575,-0.48115625,-0.64309375,1.049125,0.021348052137039074,0.023359739480762233,True
24621,361,0,362,3080.0,35474.0,26117.0,0.0008539999999999999,0.002928,-0.000732,0.35000000000000003,0.0,-3.8850000000000002,0.9235,0.038375,-0.07090625,1.10859375,0.8455625,-0.47940625000000003,-0.6422187500000001,1.0498125,0.021151707876901633,0.023184296259848764,True
24622,362,0,363,3080.0,35473.0,26117.0,0.0021349999999999997,0.006954,-0.0050019999999999995,0.5075000000000001,-0.21000000000000002,-3.9025000000000003,0.9230625,0.039156250000000004,-0.07087500000000001,1.10825,0.84565625,-0.48071875000000003,-0.64278125,1.0494375,0.021236100349382104,0.023207861328558437,True
24623,363,0,364,3081.0,35474.0,26117.0,0.000549,0.008845,-0.007808,0.49000000000000005,-0.28,-3.9375000000000004,0.9225625000000001,0.039093750000000003,-0.065125,1.0994375,0.845,-0.47950000000000004,-0.64328125,1.0495,0.021184817908862518,0.023461009276108474,True
24624,364,0,365,3078.0,35472.0,26114.0,-0.003355,0.004331,-0.0057339999999999995,0.665,-0.052500000000000005,-3.4650000000000003,0.91446875,0.037125,-0.07096875,1.1033125,0.8511875,-0.47928125,-0.64353125,1.04896875,0.021095645935274344,0.02323378472799023,True
24625,365,0,366,3078.0,35472.0,26115.0,-0.0051849999999999995,0.002257,-0.001952,0.5775,0.10500000000000001,-3.3075,0.916875,0.0475625,-0.069875,1.10903125,0.8519375,-0.48471875000000003,-0.64571875,1.0502500000000001,0.021739324655301588,0.023364859261813982,True
24626,366,0,367,3078.0,35471.0,26116.0,-0.00549,0.000122,0.0028669999999999998,0.665,0.31500000000000006,-3.3425000000000002,0.92396875,0.039656250000000004,-0.07134375,1.10740625,0.8445312500000001,-0.4801875,-0.63734375,1.04278125,0.021235284656214333,0.022973255791830235,True
24627,367,0,368,3078.0,35471.0,26116.0,-0.007808,-0.003477,0.008967,0.56,0.45500000000000007,-3.4125000000000005,0.91628125,0.04015625,-0.0686875,1.1024375,0.847125,-0.48425,-0.65,1.05971875,0.021418105516811826,0.02358265720081136,True
24628,368,0,369,3078.0,35473.0,26116.0,-0.008723,-0.006161,0.009821,0.36750000000000005,0.35000000000000003,-3.3950000000000005,0.920125,0.0398125,-0.07175000000000001,1.10890625,0.84365625,-0.47815625,-0.64125,1.043375,0.02116044789933882,0.02311165220920205,True
24629,369,0,370,3078.0,35474.0,26116.0,-0.009455,-0.005246,0.0042699999999999995,0.14,-0.56,-3.43,0.9226562500000001,0.03825,-0.0695625,1.10959375,0.83878125,-0.47850000000000004,-0.640875,1.0451875,0.021110362154543785,0.02318556057769864,True
24630,370,0,371,3077.0,35474.0,26118.0,-0.005856,-0.001464,0.000793,0.2625,-1.4875,-3.535,0.91590625,0.04571875,-0.06878125,1.10334375,0.84884375,-0.4851875,-0.65040625,1.06459375,0.021682752072043558,0.023594945823661628,True
24631,371,0,372,3077.0,35477.0,26119.0,0.002257,0.0030499999999999998,-0.005124,0.28,-2.415,-3.535,0.91671875,0.04471875,-0.06825,1.10353125,0.8631875,-0.4816875,-0.64359375,1.0575625,0.02150204106640933,0.02334658474882544,True
24632,372,0,373,3077.0,35474.0,26118.0,0.006344,0.003904,-0.0071979999999999995,0.3325,-3.2025,-3.5875000000000004,0.924,0.0378125,-0.07028125,1.1030625,0.8395,-0.47496875,-0.64134375,1.05309375,0.020951252491384693,0.023174973970321727,True
24633,373,0,374,3077.0,35473.0,26120.0,0.010187,0.0051849999999999995,-0.007137,0.35000000000000003,-3.6225000000000005,-3.6575,0.91546875,0.04128125,-0.0686875,1.10440625,0.86078125,-0.48628125,-0.64640625,1.067,0.021545227493456158,0.02344028350989305,True
24634,374,0,375,3075.0,35474.0,26120.0,0.006893,0.001281,-0.000549,0.4025,-3.6750000000000003,-3.5525,0.917,0.041,-0.06903125,1.1036875,0.8611875,-0.483625,-0.64684375,1.047125,0.02142758680546692,0.023443671159719997,True
24635,375,0,376,3077.0,35471.0,26122.0,0.007137,0.0030499999999999998,0.002562,0.49000000000000005,-3.6925000000000003,-3.5525,0.92171875,0.03871875,-0.07162500000000001,1.1089375000000001,0.83878125,-0.47478125,-0.641375,1.0426875,0.02098077996100578,0.023121680506871065,True
24636,376,0,377,3077.0,35473.0,26125.0,0.008479,0.003965,0.003538,0.6300000000000001,-3.7450000000000006,-3.6050000000000004,0.92209375,0.0379375,-0.06884375,1.10721875,0.8395312500000001,-0.47921875,-0.6438125,1.04809375,0.02112633802906802,0.02333116071224775,True
24637,377,0,378,3075.0,35475.0,26126.0,0.006527,0.005795,0.003843,0.6475000000000001,-3.7100000000000004,-3.7450000000000006,0.9196875,0.04159375,-0.06875,1.10359375,0.8355,-0.48215625,-0.64571875,1.057375,0.02139313198771044,0.023410506135066563,True
24638,378,0,379,3078.0,35470.0,26126.0,0.006039,0.00488,0.001464,0.7525000000000001,-3.5175000000000005,-3.6750000000000003,0.9158125,0.04096875,-0.06746875000000001,1.10315625,0.848375,-0.48225,-0.64653125,1.0569375,0.021371350672425942,0.023494685484392458,True
24639,379,0,380,3077.0,35473.0,26128.0,-0.000305,-0.002745,-0.001769,0.14,-3.08,-3.7975000000000003,0.9189375000000001,0.0373125,-0.07062500000000001,1.10375,0.8478125,-0.478375,-0.640125,1.0483125,0.02106706429654746,0.023112707423359257,True
24640,380,0,381,3076.0,35474.0,26131.0,-0.0066489999999999995,-0.005063,-0.0035989999999999998,0.0,-2.66,-3.8500000000000005,0.9168437500000001,0.0418125,-0.06896875,1.1023125,0.84884375,-0.47271875,-0.639125,1.05715625,0.021024686928173848,0.02314027994094758,True
24641,381,0,382,3078.0,35478.0,26134.0,-0.010369999999999999,-0.003904,-0.003172,0.0175,-2.6425,-3.8500000000000005,0.91615625,0.03809375,-0.07165625,1.10853125,0.84096875,-0.48115625,-0.643375,1.0486875,0.021210191001497323,0.023199693629626626,True
24642,382,0,383,3080.0,35477.0,26137.0,-0.010675,-0.004209,-0.0017079999999999999,0.10500000000000001,-3.0100000000000002,-3.8150000000000004,0.9167500000000001,0.041,-0.06890625,1.104125,0.84521875,-0.48028125,-0.6415,1.0570625,0.02129392406388305,0.02323696812288213,True
24643,383,0,384,3079.0,35479.0,26138.0,-0.012688,-0.0059169999999999995,0.0,0.14,-3.4475000000000002,-3.6925000000000003,0.9165,0.043250000000000004,-0.0699375,1.104375,0.85328125,-0.4809375,-0.6451875,1.05434375,0.02141206806316139,0.023341270988504352,True
24644,384,0,385,3079.0,35481.0,26140.0,-0.004941,6.1e-05,0.000915,0.49000000000000005,-5.040000000000001,-3.3075,0.92409375,0.0399375,-0.0686875,1.104,0.8456875,-0.48096875,-0.6441250000000001,1.049125,0.02127800804451417,0.023349885621826705,True
24645,385,0,386,3079.0,35480.0,26143.0,0.00244,0.00042699999999999997,0.0030499999999999998,0.35000000000000003,-5.862500000000001,-3.1325000000000003,0.91621875,0.04065625,-0.0701875,1.1085,0.85375,-0.4820625,-0.64284375,1.0489375,0.02135109123261163,0.023238237267157937,True
24646,386,0,387,3081.0,35481.0,26146.0,0.010126,-0.002928,0.0042699999999999995,0.1925,-6.125000000000001,-2.9400000000000004,0.9166875,0.039531250000000004,-0.0683125,1.094625,0.84575,-0.47990625000000003,-0.64375,1.0559687500000001,0.021218933385416867,0.02335024093329952,True
24647,387,0,388,3082.0,35482.0,26145.0,0.010614,-0.006588,0.004026,0.08750000000000001,-5.915000000000001,-2.8175000000000003,0.90809375,0.0383125,-0.0646875,1.109875,0.852125,-0.48084375,-0.6430625,1.03965625,0.021206632226472996,0.023470094270953538,True
24648,388,0,389,3080.0,35481.0,26144.0,0.004697,-0.006405,0.002562,0.0,-5.5125,-2.87,0.92453125,0.04146875,-0.06828125,1.1056875,0.84078125,-0.48078125,-0.64715625,1.05759375,0.021333061010869497,0.023486482340127984,True
24649,389,0,390,3083.0,35475.0,26136.0,0.004697,-0.00061,-6.1e-05,0.22750000000000004,-5.5125,-3.3425000000000002,0.9265625000000001,0.0418125,-0.06534375,1.1100625,0.84628125,-0.47975,-0.645375,1.05540625,0.021305875264249024,0.023535095327216565,True
24650,390,0,391,3081.0,35469.0,26124.0,0.0066489999999999995,0.003172,-0.000915,0.35000000000000003,-5.670000000000001,-3.5700000000000003,0.92025,0.0414375,-0.06315625,1.105,0.84559375,-0.48031250000000003,-0.6449375,1.0569375,0.02131304492130156,0.02360652162335571,True
24651,391,0,392,3080.0,35461.0,26110.0,0.008905999999999999,0.0050019999999999995,-0.00488,0.36750000000000005,-5.7925,-3.9375000000000004,0.929,0.0386875,-0.06690625,1.10071875,0.8489375,-0.48028125,-0.64328125,1.05625,0.021199460279893636,0.023388727911385587,True
24652,392,0,393,3077.0,35451.0,26094.0,0.009455,0.007503,-0.0044529999999999995,0.31500000000000006,-5.7225,-4.1475,0.91971875,0.03815625,-0.0665,1.10228125,0.85275,-0.48028125,-0.64303125,1.0501562500000001,0.021177759140328503,0.023395305721571898,True
24653,393,0,394,3073.0,35444.0,26079.0,0.012078,0.006527,-0.0025009999999999998,0.42000000000000004,-5.425000000000001,-4.235,0.9164375,0.03659375,-0.07184375,1.10396875,0.8543125,-0.48281250000000003,-0.64278125,1.04975,0.021215138170910718,0.023168549613286852,True
24654,394,0,395,3070.0,35437.0,26071.0,0.020374,0.003843,-0.0042699999999999995,0.29750000000000004,-3.7100000000000004,-4.235,0.91390625,0.04275,-0.06865625,1.10365625,0.84521875,-0.48196875,-0.6445625,1.0565625,0.021432865769833154,0.02336849152830366,True
24655,395,0,396,3067.0,35435.0,26063.0,0.018483,0.000122,-0.0017079999999999999,0.07,-1.8900000000000001,-4.375,0.92659375,0.04340625,-0.06728125,1.10090625,0.84140625,-0.47959375,-0.63615625,1.05540625,0.021364733636562088,0.023091061536841814,True
24656,396,0,397,3063.0,35431.0,26056.0,0.010614,-0.0046359999999999995,-0.0025009999999999998,-0.08750000000000001,0.14,-4.340000000000001,0.9198125,0.039218750000000004,-0.074375,1.108625,0.85340625,-0.48278125,-0.6432187500000001,1.0506875,0.021321107053554222,0.02308317577223958,True
24657,397,0,398,3061.0,35429.0,26053.0,-0.0006709999999999999,-0.007259,-0.0018909999999999999,-0.22750000000000004,2.4325,-4.357500000000001,0.91371875,0.04228125,-0.060375,1.107375,0.84565625,-0.48034375,-0.6458125,1.04528125,0.021348760676614273,0.023754035295042514,True
24658,398,0,399,3056.0,35429.0,26048.0,-0.010614,-0.007442,-0.001403,-0.07,4.62,-4.2700000000000005,0.9281875,0.04003125,-0.07225,1.10371875,0.848625,-0.47953125,-0.64359375,1.04946875,0.02122436474350382,0.02318427076002257,True
24659,399,0,400,3052.0,35432.0,26050.0,-0.026779,-0.000366,-0.0008539999999999999,0.6125,6.8775,-4.515000000000001,0.9135,0.0463125,-0.06353125,1.10375,0.846375,-0.4805625,-0.6456875,1.0543125,0.021522177033309588,0.023621018890221664,True
24660,400,0,401,3050.0,35433.0,26049.0,-0.022631,0.00366,0.003111,0.7350000000000001,6.8950000000000005,-4.4975000000000005,0.9233125,0.0360625,-0.0710625,1.11209375,0.8493125,-0.48065625,-0.6425,1.049625,0.021107226241126605,0.023189104189915793,True
24661,401,0,402,3049.0,35432.0,26052.0,-0.018483,0.003477,0.005612,0.8225000000000001,6.720000000000001,-4.3925,0.9236562500000001,0.03715625,-0.0683125,1.1089375000000001,0.83496875,-0.47984375,-0.64325,1.0500625000000001,0.02111941584594469,0.02333042516713502,True
24662,402,0,403,3048.0,35433.0,26053.0,-0.016347999999999998,0.003111,0.0071979999999999995,0.8400000000000001,6.44,-4.375,0.921375,0.0405,-0.07121875,1.1086562500000001,0.846375,-0.47981250000000003,-0.64378125,1.04925,0.021254758385097928,0.02323354903176638,True
24663,403,0,404,3046.0,35435.0,26057.0,-0.014152,0.003538,0.010309,0.8575,5.985,-4.340000000000001,0.92053125,0.042,-0.068625,1.10346875,0.84440625,-0.480125,-0.6439375,1.05046875,0.02132852671299677,0.02334499103481333,True
24664,404,0,405,3043.0,35435.0,26057.0,-0.005246,0.004758,0.0071979999999999995,0.8925000000000001,4.165,-4.2525,0.905875,0.04109375,-0.0695625,1.10003125,0.8461875,-0.47996875,-0.6440625,1.0410625,0.021285260014884618,0.023311903222125004,True
24665,405,0,406,3043.0,35436.0,26059.0,-0.000183,0.001281,0.0059169999999999995,0.6825000000000001,3.1850000000000005,-4.2,0.916625,0.04103125,-0.06753125,1.10421875,0.84740625,-0.47353125,-0.6496875,1.06753125,0.021025265816513504,0.023617185816250205,True
24666,406,0,407,3043.0,35436.0,26063.0,-0.0013419999999999999,-0.002074,0.0018909999999999999,0.3325,2.31,-4.112500000000001,0.91715625,0.039281250000000004,-0.07190625,1.10809375,0.85275,-0.47996875,-0.64296875,1.04553125,0.021211219887688783,0.023173445772437625,True
24667,407,0,408,3041.0,35440.0,26065.0,-0.003477,-0.003355,-0.001647,0.21000000000000002,1.3650000000000002,-4.0075,0.91634375,0.04153125,-0.06921875,1.11125,0.87390625,-0.48071875000000003,-0.63984375,1.0378125,0.021333115474806066,0.023158628999017092,True
24668,408,0,409,3043.0,35438.0,26071.0,-0.004697,0.000793,-0.009089,0.35000000000000003,0.29750000000000004,-3.7975000000000003,0.9248125,0.0396875,-0.067,1.1044375,0.83246875,-0.47800000000000004,-0.6455,1.072125,0.021149093063158757,0.02347284494126717,True
24669,409,0,410,3040.0,35441.0,26073.0,0.000305,0.002562,-0.007869,0.43750000000000006,-2.415,-3.8675,0.916875,0.04134375,-0.069625,1.10628125,0.86828125,-0.48425,-0.6365625,1.03925,0.02146660608350266,0.023012037495084795,True
24670,410,0,411,3041.0,35442.0,26074.0,0.008539999999999999,0.00122,-0.0040869999999999995,0.3325,-3.4825000000000004,-3.7625,0.92359375,0.039343750000000004,-0.06978125,1.10625,0.8331875,-0.47625,-0.6395625,1.0515,0.021065063071344668,0.02312464963612889,True
24671,411,0,412,3042.0,35443.0,26076.0,0.011956,-0.000793,0.002379,0.24500000000000002,-3.8675,-3.4650000000000003,0.91740625,0.04146875,-0.06834375,1.10759375,0.85428125,-0.48940625,-0.65075,1.0405312500000001,0.021677740757802162,0.023626309544334353,True
24672,412,0,413,3041.0,35440.0,26076.0,0.012383,-0.002562,0.005612,0.21000000000000002,-3.7450000000000006,-3.43,0.923875,0.0420625,-0.068625,1.099375,0.8329062500000001,-0.47934375,-0.6470312500000001,1.06321875,0.021299845916008267,0.02346758293658592,True
24673,413,0,414,3040.0,35442.0,26075.0,0.012261,-0.002623,0.0046359999999999995,0.22750000000000004,-3.3950000000000005,-3.5700000000000003,0.9155,0.04203125,-0.0689375,1.1100625,0.86178125,-0.48109375,-0.64246875,1.03859375,0.021368530562487633,0.023274098704091896,True
24674,414,0,415,3040.0,35440.0,26076.0,0.013054,-0.0026839999999999998,0.00061,-0.052500000000000005,-3.0975,-3.8150000000000004,0.92496875,0.04409375,-0.06528125,1.1046875,0.833125,-0.48278125,-0.64915625,1.07034375,0.021520226587818735,0.023687423377828604,True
24675,415,0,416,3039.0,35440.0,26077.0,0.008784,-0.00183,-0.0037819999999999998,-0.07,-2.6075000000000004,-3.9725000000000006,0.91671875,0.04196875,-0.069125,1.0925625,0.860125,-0.481375,-0.65009375,1.06684375,0.02137722043798602,0.023568622330290327,True
24676,416,0,417,3040.0,35440.0,26076.0,0.00122,0.00061,-0.008479,-0.12250000000000001,-1.9600000000000002,-4.0600000000000005,0.9169375000000001,0.0408125,-0.06959375,1.110125,0.8599687500000001,-0.4894375,-0.64525,1.04753125,0.02165219188885004,0.023357695702011544,True
24677,417,0,418,3039.0,35440.0,26077.0,-0.007076,0.002257,-0.009271999999999999,0.07,-1.3475000000000001,-4.0600000000000005,0.9235625000000001,0.03846875,-0.0689375,1.1104375,0.834375,-0.47575,-0.6384375,1.0378125,0.0210093153427372,0.02311429042527555,True
24678,418,0,419,3040.0,35441.0,26075.0,-0.008662,0.0042699999999999995,-0.005978,0.4025,-1.6975000000000002,-4.0600000000000005,0.9217500000000001,0.040625,-0.0716875,1.10721875,0.83221875,-0.47853125,-0.6404062500000001,1.0426875,0.021208635628414185,0.023080737558862287,True
24679,419,0,420,3040.0,35439.0,26074.0,-0.0037819999999999998,0.0046359999999999995,-0.003904,0.525,-2.2225,-4.0600000000000005,0.91621875,0.0426875,-0.06828125,1.104,0.84184375,-0.47909375,-0.6433125000000001,1.04934375,0.021315382641565312,0.023334170274389863,True
24680,420,0,421,3039.0,35437.0,26074.0,-0.0026839999999999998,0.001769,0.0018909999999999999,0.5950000000000001,-2.555,-3.8500000000000005,0.90409375,0.04175,-0.06671875000000001,1.104375,0.84596875,-0.47981250000000003,-0.6420625,1.049625,0.02130582086770477,0.023348035498246135,True
24681,421,0,422,3039.0,35439.0,26075.0,-0.001952,-0.0008539999999999999,0.008845,0.5950000000000001,-2.8525000000000005,-3.8500000000000005,0.91715625,0.043375000000000004,-0.0689375,1.1045625000000001,0.84678125,-0.47621875,-0.64571875,1.0565,0.02122851390188691,0.023402898322857798,True
24682,422,0,423,3039.0,35438.0,26076.0,0.003111,-0.001281,0.015799,0.5075000000000001,-2.9575000000000005,-3.6575,0.9168125,0.0414375,-0.0685625,1.1047500000000001,0.8520625000000001,-0.48231250000000003,-0.6461875,1.0523125,0.021392995453350255,0.023436687722999755,True
24683,423,0,424,3039.0,35439.0,26075.0,0.011467999999999999,-0.006222,0.011529,0.17500000000000002,-2.4675000000000002,-3.3950000000000005,0.9168125,0.04175,-0.06840625,1.1043125,0.8553437500000001,-0.48371875000000003,-0.6421250000000001,1.04946875,0.021461966434326893,0.02328203229226376,True
24684,424,0,425,3037.0,35439.0,26076.0,0.007869,-0.006222,0.003477,-0.10500000000000001,-1.5575,-3.3775000000000004,0.9200625,0.0421875,-0.07046875,1.1085625000000001,0.8459375,-0.48009375,-0.64403125,1.04853125,0.02133493667686628,0.02327389111714424,True
24685,425,0,426,3037.0,35440.0,26076.0,0.000366,-0.005307,-0.006954,-0.12250000000000001,-0.665,-3.5525,0.9219375,0.0424375,-0.06825,1.1043125,0.8463125,-0.48009375,-0.643625,1.04503125,0.021345149056057024,0.023347823220001115,True
24686,426,0,427,3038.0,35440.0,26078.0,-0.006039,-0.002196,-0.014579,-0.10500000000000001,-0.28,-3.6925000000000003,0.917125,0.04240625,-0.06878125,1.103375,0.84946875,-0.4796875,-0.63884375,1.0544375,0.021327631326993043,0.023136739117475838,True
24687,427,0,428,3040.0,35439.0,26080.0,-0.009089,-0.000183,-0.016409,0.10500000000000001,-0.14,-3.8500000000000005,0.903375,0.04203125,-0.0691875,1.1036875,0.852625,-0.48059375,-0.64490625,1.05603125,0.02134854265942794,0.02336055751885849,True
24688,428,0,429,3037.0,35443.0,26083.0,-0.009089,0.0028669999999999998,-0.00976,0.56,-0.9625000000000001,-3.8675,0.916875,0.03834375,-0.0736875,1.1166562500000001,0.85365625,-0.48096875,-0.64575,1.05284375,0.02121290645412061,0.023211405617601412,True
24689,429,0,430,3039.0,35444.0,26084.0,-0.010735999999999999,0.005795,0.00042699999999999997,0.8575,-1.4175000000000002,-3.6575,0.92140625,0.0418125,-0.069625,1.1006875,0.84359375,-0.47978125,-0.64375,1.0534375,0.021307124629636957,0.023296981993406036,True
24690,430,0,431,3039.0,35447.0,26087.0,-0.006344,0.0077469999999999995,0.01098,1.0850000000000002,-1.8900000000000001,-3.43,0.930625,0.03728125,-0.066875,1.10025,0.85165625,-0.48103125,-0.64371875,1.04946875,0.021172004345200942,0.023407333765323057,True
24691,431,0,432,3038.0,35446.0,26087.0,0.0017079999999999999,0.008235,0.016774999999999998,1.1375000000000002,-2.45,-3.3775000000000004,0.91253125,0.04078125,-0.0760625,1.1203125,0.83175,-0.4829375,-0.64684375,1.0578750000000001,0.02139117293421184,0.023158391224028435,True
24692,432,0,433,3041.0,35446.0,26089.0,0.0066489999999999995,0.003843,0.020435,0.9100000000000001,-2.8525000000000005,-3.325,0.9214687500000001,0.04203125,-0.06571875,1.0986562500000001,0.85009375,-0.4795625,-0.643375,1.04896875,0.021307315030650566,0.02344063059544401,True
24693,433,0,434,3041.0,35446.0,26091.0,0.0015249999999999999,-0.004941,0.0006709999999999999,0.10500000000000001,-2.87,-3.6750000000000003,0.910375,0.0428125,-0.07021875,1.1143125,0.84590625,-0.48081250000000003,-0.6450625,1.05675,0.021389200215474875,0.023324905343615986,True
24694,434,0,435,3040.0,35448.0,26093.0,-0.0035989999999999998,-0.005063,-0.009577,-0.10500000000000001,-3.1675000000000004,-3.9550000000000005,0.931875,0.03771875,-0.06603125,1.10309375,0.8425312500000001,-0.478625,-0.64325,1.049625,0.021093658242650474,0.02342299615513376,True
24695,435,0,436,3040.0,35449.0,26094.0,-0.00366,-0.0034159999999999998,-0.012993,-0.17500000000000002,-3.6575,-4.130000000000001,0.91071875,0.04321875,-0.066375,1.1025625000000001,0.84559375,-0.47984375,-0.6435625,1.0561562500000001,0.021367068570443796,0.023421431053241595,True
24696,436,0,437,3042.0,35452.0,26098.0,0.0013419999999999999,-0.0018909999999999999,-0.012749,-0.1925,-4.112500000000001,-4.077500000000001,0.9168125,0.0345,-0.07521875,1.11996875,0.85259375,-0.48303125,-0.64628125,1.05365625,0.021138364964509857,0.023170331223904213,True
24697,437,0,438,3041.0,35453.0,26100.0,0.002196,-0.000793,-0.010003999999999999,-0.10500000000000001,-4.4625,-3.9025000000000003,0.9110625,0.043750000000000004,-0.0675625,1.0975,0.8455312500000001,-0.48015625,-0.64428125,1.05484375,0.02140126250215417,0.023401727327714218,True
24698,438,0,439,3042.0,35453.0,26102.0,0.0008539999999999999,-0.000549,0.0023179999999999997,0.3325,-4.83,-3.8675,0.92609375,0.03696875,-0.06528125,1.09890625,0.8521875,-0.47150000000000003,-0.64371875,1.04859375,0.020777996853482625,0.0234720054172019,True
24699,439,0,440,3044.0,35453.0,26104.0,0.0040869999999999995,0.0023179999999999997,0.007076,0.42000000000000004,-4.987500000000001,-3.9200000000000004,0.9105625,0.0400625,-0.0663125,1.1106875,0.8454375000000001,-0.48290625000000004,-0.64528125,1.05484375,0.02136056661982276,0.023492073152948906,True
24700,440,0,441,3043.0,35452.0,26102.0,0.00549,0.0025009999999999998,0.009455,0.36750000000000005,-5.215000000000001,-3.9200000000000004,0.92496875,0.04575,-0.06634375,1.0999375,0.8485625,-0.4781875,-0.6418125,1.05209375,0.021404260425736177,0.023353345051221372,True
24701,441,0,442,3043.0,35450.0,26103.0,0.00732,0.00061,0.007869,0.3325,-5.022500000000001,-3.7625,0.92909375,0.04028125,-0.0681875,1.099875,0.8534375000000001,-0.48190625000000004,-0.64384375,1.03790625,0.021329527801782183,0.023359028560631906,True
24702,442,0,443,3044.0,35448.0,26094.0,0.0064659999999999995,-0.0017079999999999999,0.007076,0.0,-4.62,-3.6575,0.91328125,0.039625,-0.0711875,1.1079375,0.84971875,-0.48178125,-0.64390625,1.04925,0.021297725221689084,0.02323977149523526,True
24703,443,0,444,3042.0,35441.0,26081.0,0.002623,-0.0048189999999999995,-0.005429,-0.42000000000000004,-3.8325000000000005,-3.9375000000000004,0.922125,0.04228125,-0.06809375,1.103625,0.84690625,-0.47575,-0.63871875,1.05121875,0.02116508176460374,0.02315968641835323,True
24704,444,0,445,3041.0,35436.0,26067.0,0.0050019999999999995,-0.002013,-0.007869,-0.31500000000000006,-3.7100000000000004,-4.2525,0.91696875,0.04228125,-0.07240625,1.1050312500000001,0.854,-0.4825625,-0.6459375,1.04915625,0.021437451655642665,0.023270823031179076,True
24705,445,0,446,3038.0,35427.0,26055.0,0.0059169999999999995,6.1e-05,-0.013237,-0.35000000000000003,-3.535,-4.4975000000000005,0.91259375,0.0425,-0.06790625,1.10471875,0.8453437500000001,-0.4791875,-0.64453125,1.05575,0.02131147122427981,0.02339768584561737,True
24706,446,0,447,3035.0,35420.0,26040.0,0.006344,0.003172,-0.014579,-0.2625,-3.0975,-4.655,0.9251875,0.0411875,-0.06865625,1.10403125,0.85284375,-0.4800625,-0.6430625,1.05059375,0.021292837794021156,0.023309044888394047,True
24707,447,0,448,3030.0,35416.0,26032.0,0.002562,0.0028669999999999998,-0.008173999999999999,-0.07,-2.3625000000000003,-4.4975000000000005,0.91740625,0.0399375,-0.0685625,1.10428125,0.853125,-0.4819375,-0.6435625,1.04921875,0.0213167360630669,0.023332665478053346,True
24708,448,0,449,3028.0,35414.0,26028.0,-0.009516,0.000366,0.0073809999999999995,0.12250000000000001,-1.155,-3.9725000000000006,0.917375,0.039406250000000004,-0.06565625,1.1049375000000001,0.852625,-0.4811875,-0.6446875,1.0485,0.021265053012644912,0.02349517517720604,True
24709,449,0,450,3023.0,35413.0,26024.0,-0.012078,-0.00042699999999999997,0.010553,0.14,-1.3825,-4.0600000000000005,0.916375,0.03834375,-0.07037500000000001,1.10365625,0.8543437500000001,-0.48025,-0.64259375,1.04975,0.021184168870824437,0.023220719206962538,True
24710,450,0,451,3022.0,35412.0,26019.0,-0.010492,0.000915,0.010065,0.10500000000000001,-1.9600000000000002,-4.357500000000001,0.91709375,0.0394375,-0.07109375,1.1044375,0.84615625,-0.48046875,-0.63853125,1.0495,0.021237593745013564,0.02303049212805654,True
24711,451,0,452,3017.0,35411.0,26018.0,-0.004392,0.0017079999999999999,0.006588,0.1925,-2.8350000000000004,-4.2175,0.91715625,0.04125,-0.068125,1.104,0.84478125,-0.4759375,-0.64346875,1.04084375,0.02113044699513553,0.0233467031705916,True
24712,452,0,453,3016.0,35410.0,26015.0,0.001037,0.000305,0.003355,0.035,-3.5525,-4.1475,0.9168125,0.039468750000000004,-0.06890625,1.098875,0.84284375,-0.4825,-0.644625,1.05059375,0.021320075564178493,0.023360824114791765,True
24713,453,0,454,3012.0,35412.0,26016.0,0.008296,-0.0044529999999999995,0.001098,-0.035,-3.535,-3.7100000000000004,0.9234687500000001,0.0396875,-0.06771875000000001,1.1075625,0.85321875,-0.47878125,-0.64440625,1.05765625,0.021180333477590924,0.023400340594531464,True
24714,454,0,455,3011.0,35410.0,26015.0,0.005673,-0.004392,-0.0021349999999999997,-0.14,-3.0625000000000004,-3.5175000000000005,0.92334375,0.0429375,-0.06496875,1.1009375000000001,0.84609375,-0.4795625,-0.647,1.05103125,0.021344335708614073,0.02361468941453321,True
24715,455,0,456,3009.0,35412.0,26015.0,0.0040869999999999995,-0.0015249999999999999,-0.0060999999999999995,-0.052500000000000005,-2.7475,-3.6225000000000005,0.92128125,0.04596875,-0.0694375,1.11159375,0.845875,-0.47978125,-0.642875,1.0530625,0.021476907601043208,0.02326991067397777,True
24716,456,0,457,3008.0,35413.0,26017.0,0.003477,0.0013419999999999999,-0.008784,0.1925,-2.4675000000000002,-3.7625,0.9081250000000001,0.04246875,-0.07028125,1.1029375000000001,0.84584375,-0.480375,-0.64534375,1.0519375,0.021357669153352434,0.02333351507827924,True
24717,457,0,458,3006.0,35411.0,26018.0,0.002745,0.003538,-0.007137,0.35000000000000003,-2.2575000000000003,-3.9725000000000006,0.9224375,0.04271875,-0.069125,1.1048437500000001,0.8464375000000001,-0.4804375,-0.64371875,1.05534375,0.02137037992070199,0.023316032609729406,True
24718,458,0,459,3005.0,35412.0,26019.0,-0.00061,0.003111,-0.001281,0.5075000000000001,-1.8725000000000003,-4.077500000000001,0.92278125,0.039343750000000004,-0.069125,1.103875,0.850625,-0.47959375,-0.6438125,1.049625,0.021198779085130855,0.023319748111214532,True
24719,459,0,460,3004.0,35413.0,26021.0,-0.003294,0.001769,0.002928,0.6300000000000001,-1.6625,-3.9025000000000003,0.9175625000000001,0.04246875,-0.0684375,1.10559375,0.84578125,-0.48015625,-0.646375,1.05671875,0.021348924192426264,0.023449188775225567,True
24720,460,0,461,3004.0,35412.0,26024.0,-0.0030499999999999998,0.001037,0.0071979999999999995,0.56,-1.6275000000000002,-3.9200000000000004,0.921125,0.04371875,-0.06884375,1.1040625,0.845375,-0.47878125,-0.64075,1.046125,0.021345016921543017,0.023209774458975478,True
24721,461,0,462,3003.0,35416.0,26026.0,-0.003538,-0.000122,0.006771,0.5950000000000001,-1.7325000000000002,-3.9375000000000004,0.9176875,0.0400625,-0.07028125,1.1036875,0.8523437500000001,-0.4784375,-0.64409375,1.0390625,0.021181907546182228,0.02328397651059902,True
24722,462,0,463,3003.0,35416.0,26029.0,-0.0060999999999999995,0.000732,0.00549,0.49000000000000005,-1.9600000000000002,-3.9025000000000003,0.91646875,0.0426875,-0.0695625,1.108125,0.8480625,-0.48190625000000004,-0.64496875,1.05265625,0.021427814674357722,0.023347818203259034,True
24723,463,0,464,3005.0,35416.0,26032.0,-0.002562,-0.0008539999999999999,0.003965,0.28,-2.4850000000000003,-3.8325000000000005,0.9204375,0.043187500000000004,-0.0676875,1.103,0.8390625,-0.47950000000000004,-0.644625,1.05575,0.021352049674217204,0.02341027708881754,True
24724,464,0,465,3003.0,35416.0,26035.0,-0.000122,-0.003904,0.00042699999999999997,0.035,-2.8000000000000003,-3.9200000000000004,0.921,0.04071875,-0.06834375,1.1039375,0.85284375,-0.47940625000000003,-0.64390625,1.0510625,0.021247451620686267,0.023355165133368414,True
24725,465,0,466,3003.0,35417.0,26034.0,0.001769,-0.004575,-0.005246,-0.15750000000000003,-2.87,-3.8850000000000002,0.9171875,0.04128125,-0.07021875,1.1048125,0.8558125,-0.4834375,-0.64434375,1.048375,0.02143158002220889,0.02329642070505529,True
24726,466,0,467,3004.0,35418.0,26036.0,0.002013,-0.004758,-0.009333,-0.15750000000000003,-2.8875,-3.9550000000000005,0.917625,0.04259375,-0.070125,1.11025,0.84209375,-0.4849375,-0.6426875,1.047375,0.021545133615309412,0.02323458023805236,True
24727,467,0,468,3002.0,35417.0,26038.0,0.008784,0.00061,-0.004697,0.0,-2.7125000000000004,-4.0075,0.9175,0.042625,-0.07084375,1.11225,0.8438125,-0.48328125,-0.6473125000000001,1.04734375,0.02148021928229085,0.023388706172326093,True
24728,468,0,469,3002.0,35419.0,26038.0,0.011041,0.001769,-0.0013419999999999999,0.21000000000000002,-1.9425000000000001,-3.99,0.9176562500000001,0.04196875,-0.0704375,1.1021875,0.842125,-0.48003125,-0.64828125,1.0434375,0.021323502191199207,0.023443571750058637,True
24729,469,0,470,3003.0,35415.0,26035.0,0.004758,0.000305,-0.000244,0.28,-1.4000000000000001,-4.0600000000000005,0.9167500000000001,0.04090625,-0.07375,1.124625,0.84278125,-0.48053125,-0.6460625,1.0538750000000001,0.02130008922906851,0.023221254916480066,True
24730,470,0,471,2999.0,35415.0,26037.0,-0.002196,0.000793,-0.000915,0.43750000000000006,-0.8925000000000001,-4.235,0.9134375,0.044875,-0.0725625,1.12478125,0.84278125,-0.4740625,-0.64684375,1.06059375,0.021203570106107236,0.02330039723646157,True
24731,471,0,472,3002.0,35415.0,26036.0,-0.003355,0.003355,0.0034159999999999998,0.43750000000000006,-0.8400000000000001,-4.357500000000001,0.91078125,0.04365625,-0.07709375,1.0931875,0.84325,-0.47831250000000003,-0.648,1.0466875,0.02132372278522059,0.02316237625770854,True
24732,472,0,473,3001.0,35414.0,26035.0,0.005307,-0.001281,0.006893,0.385,-0.9275000000000001,-4.2175,0.90965625,0.03096875,-0.076,1.10409375,0.83359375,-0.48278125,-0.64746875,1.0475,0.02098413553402966,0.023185697314252605,True
24733,473,0,474,3000.0,35414.0,26035.0,0.002928,-0.0021349999999999997,0.0062829999999999995,0.29750000000000004,-0.07,-4.0075,0.9038125,0.044125,-0.073125,1.12303125,0.8415625,-0.48128125,-0.6466875,1.05653125,0.021461550342672525,0.023271382817670733,True
24734,474,0,475,3000.0,35417.0,26037.0,-0.002074,-0.002074,0.0034159999999999998,0.24500000000000002,0.7875000000000001,-3.9375000000000004,0.9044375,0.047156250000000004,-0.0674375,1.113125,0.84365625,-0.4780625,-0.64559375,1.06140625,0.021456712515543253,0.023458807925858954,True
24735,475,0,476,3001.0,35415.0,26035.0,-0.0068319999999999995,-0.000366,-0.0032329999999999998,0.3325,1.4175000000000002,-3.8500000000000005,0.9415625,0.0378125,-0.06471875,1.09928125,0.8579687500000001,-0.477875,-0.643625,1.0523125,0.021067494625248307,0.023491115856534902,True
24736,476,0,477,2999.0,35416.0,26036.0,-0.007808,0.001403,-0.006161,0.42000000000000004,1.5925000000000002,-3.8325000000000005,0.92734375,0.02915625,-0.07825,1.09784375,0.857375,-0.47996875,-0.6451250000000001,1.03984375,0.02079761641852586,0.02300150638310822,True
24737,477,0,478,2999.0,35413.0,26036.0,0.0015249999999999999,0.001403,-0.000976,0.47250000000000003,1.7325000000000002,-4.0600000000000005,0.905,0.050875000000000004,-0.06703125,1.121125,0.8426250000000001,-0.47853125,-0.64453125,1.05571875,0.02162736990194214,0.02343319067998098,True
24738,478,0,479,3001.0,35417.0,26037.0,-0.000915,-0.000732,0.00061,0.3325,2.24,-4.0425,0.93865625,0.041,-0.0625,1.098625,0.836125,-0.4796875,-0.64209375,1.04846875,0.02127018574072892,0.023520475000221926,True
24739,479,0,480,3001.0,35417.0,26042.0,-0.0053679999999999995,0.00042699999999999997,0.002806,0.42000000000000004,2.6775,-3.9375000000000004,0.907625,0.03365625,-0.07621875,1.11721875,0.85309375,-0.48225,-0.6434062500000001,1.0495625,0.02107266488986919,0.02301579149595036,True
24740,480,0,481,3000.0,35418.0,26045.0,-0.0075639999999999995,0.002562,0.0034159999999999998,0.6825000000000001,3.0275000000000003,-3.8675,0.92421875,0.0459375,-0.0641875,1.09796875,0.8453125,-0.47909375,-0.644,1.0544375,0.021448148994486365,0.023527532056484342,True
24741,481,0,482,3001.0,35420.0,26044.0,-0.011833999999999999,0.002196,0.002196,0.805,2.8350000000000004,-3.9550000000000005,0.9184375,0.03896875,-0.0730625,1.0987500000000001,0.8551562500000001,-0.48181250000000003,-0.6465625,1.0425,0.021272168880469945,0.023268964992582637,True
24742,482,0,483,3003.0,35422.0,26045.0,-0.012078,0.000915,-0.00061,0.5775,1.0325000000000002,-4.375,0.91528125,0.0408125,-0.068125,1.1096875,0.847125,-0.47890625000000003,-0.64328125,1.04984375,0.021231289694571217,0.023339272240785712,True
24743,483,0,484,3002.0,35424.0,26050.0,-0.006344,0.000488,-0.0006709999999999999,0.43750000000000006,-0.10500000000000001,-4.357500000000001,0.91653125,0.04284375,-0.0688125,1.10378125,0.8461875,-0.47675,-0.64609375,1.0556875000000001,0.021228053152481437,0.023422829429105778,True
24744,484,0,485,3003.0,35427.0,26052.0,-0.001281,0.0006709999999999999,-0.00042699999999999997,0.5950000000000001,-1.2950000000000002,-4.095000000000001,0.91696875,0.04278125,-0.069,1.1098125,0.85240625,-0.478625,-0.64434375,1.0526875,0.02130047132957836,0.023345874243455966,True
24745,485,0,486,3002.0,35425.0,26053.0,0.003355,0.0013419999999999999,0.000732,0.6475000000000001,-2.2225,-3.9025000000000003,0.92353125,0.04165625,-0.0614375,1.1035625,0.8458125,-0.47890625000000003,-0.6440625,1.0521875,0.02126575814636326,0.023641597240714674,True
24746,486,0,487,3004.0,35426.0,26052.0,0.002074,0.001403,0.0017079999999999999,0.665,-2.765,-3.7625,0.91740625,0.04046875,-0.0705625,1.1031875,0.85528125,-0.48171875000000003,-0.641875,1.04925,0.021329691159857805,0.02318461967687118,True
24747,487,0,488,3005.0,35425.0,26056.0,0.0032329999999999998,0.00122,0.0023179999999999997,0.42000000000000004,-4.112500000000001,-3.8675,0.9160625,0.04165625,-0.06393750000000001,1.09771875,0.849875,-0.480875,-0.64078125,1.04571875,0.021344467875433374,0.02341012422242091,True
24748,488,0,489,3006.0,35426.0,26058.0,0.005978,0.001464,0.002379,0.31500000000000006,-4.777500000000001,-3.7450000000000006,0.917125,0.0449375,-0.0703125,1.1101875,0.846,-0.4834375,-0.64665625,1.04978125,0.02158091567003204,0.023384257245848514,True
24749,489,0,490,3005.0,35431.0,26060.0,0.005673,-6.1e-05,0.000366,0.29750000000000004,-5.1275,-3.6575,0.923625,0.04253125,-0.06815625,1.10128125,0.838125,-0.4769375,-0.646875,1.0556875000000001,0.02122278369179151,0.023480410802586532,True
24750,490,0,491,3007.0,35433.0,26065.0,0.001037,-0.00244,-0.002806,0.21000000000000002,-5.652500000000001,-3.6225000000000005,0.922875,0.04040625,-0.06796875000000001,1.1046562500000001,0.83809375,-0.47909375,-0.6436875,1.0439375,0.021222190874611115,0.023361712811850906,True
24751,491,0,492,3007.0,35435.0,26067.0,0.000488,-0.0025009999999999998,-0.002013,0.1925,-6.2475000000000005,-3.7275000000000005,0.918,0.0415625,-0.07234375,1.1120625,0.85475,-0.4809375,-0.6393125000000001,1.0479687500000001,0.02134313687945978,0.02301073741404108,True
24752,492,0,493,3006.0,35435.0,26068.0,0.007625,-0.00366,0.00183,0.0,-6.982500000000001,-3.8675,0.9186562500000001,0.04271875,-0.06828125,1.1084375,0.84615625,-0.47925,-0.6464375,1.04746875,0.021322906134787625,0.023458004833355733,True
24753,493,0,494,3010.0,35434.0,26071.0,0.007808,-0.0044529999999999995,-0.0008539999999999999,-0.12250000000000001,-7.140000000000001,-3.7975000000000003,0.92359375,0.042625,-0.06403125,1.103625,0.846125,-0.473375,-0.6450312500000001,1.05640625,0.02108413735334828,0.023574731722038295,True
24754,494,0,495,3010.0,35435.0,26072.0,0.006893,-0.00366,-0.002562,-0.08750000000000001,-6.982500000000001,-3.6750000000000003,0.92559375,0.04053125,-0.06828125,1.10371875,0.8459375,-0.4786875,-0.6432187500000001,1.0565,0.021211053492961988,0.023330454752384978,True
24755,495,0,496,3010.0,35432.0,26070.0,0.005978,-0.002013,-0.0008539999999999999,0.052500000000000005,-6.6675,-3.6575,0.918375,0.039218750000000004,-0.06834375,1.10384375,0.84990625,-0.4775625,-0.6434375,1.05359375,0.021112447368891406,0.023336588087599384,True
24756,496,0,497,3009.0,35426.0,26059.0,0.0070149999999999995,0.000305,-0.001098,0.21000000000000002,-6.352500000000001,-3.6925000000000003,0.91759375,0.039593750000000004,-0.06790625,1.10365625,0.85365625,-0.47878125,-0.64471875,1.054125,0.021176503630057155,0.023405115954102742,True
24757,497,0,498,3008.0,35419.0,26046.0,0.002257,0.0011589999999999999,-0.005795,0.10500000000000001,-6.0200000000000005,-3.9200000000000004,0.9111250000000001,0.039093750000000003,-0.0681875,1.10375,0.85165625,-0.47825,-0.64390625,1.05475,0.02113483398527264,0.023361505443155954,True
24758,498,0,499,3006.0,35410.0,26025.0,-0.00061,0.00042699999999999997,-0.004148,0.17500000000000002,-5.9675,-3.7800000000000002,0.9215625000000001,0.040875,-0.0680625,1.1039375,0.85175,-0.476375,-0.6441875,1.05325,0.02113262278421539,0.023377723448987718,True
24759,499,0,500,3003.0,35403.0,26014.0,0.001586,0.0006709999999999999,0.0008539999999999999,0.36750000000000005,-5.845000000000001,-3.6225000000000005,0.9195,0.04009375,-0.06853125,1.1045625000000001,0.8505625,-0.47896875,-0.64390625,1.0540625000000001,0.021204426759195073,0.02334755676162337,True
24760,500,0,501,2999.0,35395.0,26001.0,0.002989,0.0013419999999999999,0.006039,0.24500000000000002,-5.6000000000000005,-3.5000000000000004,0.9236562500000001,0.043062500000000004,-0.06865625,1.11215625,0.84671875,-0.4789375,-0.64115625,1.05003125,0.021324454952344234,0.023233487673696318,True
24761,501,0,502,2995.0,35392.0,25992.0,0.006893,0.000122,0.006588,0.15750000000000003,-5.075,-3.325,0.9095625,0.04209375,-0.0704375,1.1043125,0.8468125,-0.48140625000000004,-0.6435625,1.0485625,0.02138357554521608,0.023256580699320562,True
24762,502,0,503,2993.0,35388.0,25982.0,0.005978,-0.001281,0.000915,0.0,-3.6575,-3.5175000000000005,0.9166562500000001,0.0395,-0.0688125,1.104625,0.85378125,-0.47678125,-0.64096875,1.0559687500000001,0.021092693713557622,0.023219714119397192,True
24763,503,0,504,2988.0,35385.0,25976.0,0.005063,-0.00122,-0.0025009999999999998,0.0,-2.6950000000000003,-3.6925000000000003,0.92328125,0.0391875,-0.06846875,1.10459375,0.8415625,-0.47871875,-0.643625,1.05590625,0.021157408412153925,0.0233389466849946,True
24764,504,0,505,2984.0,35383.0,25971.0,0.0023179999999999997,-0.001464,-0.004148,-0.14,-1.8900000000000001,-4.0425,0.91709375,0.039781250000000004,-0.07025,1.109875,0.85875,-0.47168750000000004,-0.64378125,1.05059375,0.020900428301072412,0.023272859151839773,True
24765,505,0,506,2979.0,35381.0,25969.0,-0.001586,0.0,-0.0066489999999999995,-0.08750000000000001,-1.1025,-4.2525,0.9228437500000001,0.04271875,-0.068625,1.1034375,0.84709375,-0.47975,-0.64928125,1.0669375,0.021342895658656647,0.023556721354704813,True
24766,506,0,507,2977.0,35380.0,25967.0,-0.0066489999999999995,0.001098,-0.0064659999999999995,0.0175,-0.31500000000000006,-4.2525,0.9170625,0.047781250000000004,-0.07162500000000001,1.110875,0.850125,-0.475875,-0.6383125000000001,1.04359375,0.021394791810303005,0.023000256206669997,True
24767,507,0,508,2974.0,35379.0,25966.0,-0.013115,0.001769,-0.002257,0.36750000000000005,0.22750000000000004,-4.2175,0.92596875,0.04065625,-0.07,1.10890625,0.84046875,-0.47700000000000004,-0.64153125,1.0494375,0.021148680393839117,0.023193820392147912,True
24768,508,0,509,2972.0,35381.0,25967.0,-0.013481,0.0017079999999999999,0.001952,0.4025,-0.14,-4.0600000000000005,0.9166875,0.043000000000000003,-0.06884375,1.11040625,0.85540625,-0.48459375,-0.64528125,1.0430625,0.021547988722500248,0.023389365864915825,True
24769,509,0,510,2971.0,35381.0,25969.0,-0.007503,0.000305,0.0060999999999999995,0.43750000000000006,-0.665,-3.9550000000000005,0.92303125,0.04253125,-0.06809375,1.1006562500000001,0.837375,-0.48196875,-0.64715625,1.05634375,0.021423930622409604,0.02349408970862511,True
24770,510,0,511,2969.0,35384.0,25970.0,-0.001769,6.1e-05,0.010187,0.56,-1.4525000000000001,-3.8500000000000005,0.91715625,0.040375,-0.0683125,1.10353125,0.8395312500000001,-0.47681250000000003,-0.64671875,1.06390625,0.021129691621406994,0.023467880486119475,True
24771,511,0,512,2968.0,35385.0,25971.0,0.002379,-0.000915,0.011346,0.56,-1.9600000000000002,-3.7625,0.92390625,0.047843750000000004,-0.067625,1.10428125,0.8406250000000001,-0.4770625,-0.64284375,1.066,0.021444822065556274,0.023342222830918205,True
24772,512,0,513,2966.0,35385.0,25972.0,0.0037819999999999998,0.000915,0.005795,0.45500000000000007,-1.9425000000000001,-3.3600000000000003,0.9176562500000001,0.0415625,-0.0706875,1.10940625,0.86240625,-0.48090625000000004,-0.64078125,1.0434375,0.02134188761905005,0.023136188102802137,True
24773,513,0,514,2964.0,35386.0,25974.0,0.005124,0.0018909999999999999,0.0013419999999999999,0.45500000000000007,-1.7850000000000001,-3.2900000000000005,0.918125,0.0426875,-0.062875,1.11071875,0.8469375,-0.48381250000000003,-0.64596875,1.043625,0.021504003920957984,0.023658788011731123,True
24774,514,0,515,2965.0,35387.0,25976.0,0.009577,0.0015249999999999999,-0.004026,0.28,-1.4700000000000002,-3.325,0.924875,0.0428125,-0.06896875,1.1086562500000001,0.83996875,-0.4819375,-0.6491250000000001,1.0443125,0.021434169579102963,0.023536585984289503,True
24775,515,0,516,2964.0,35389.0,25981.0,0.008967,0.0011589999999999999,-0.009882,0.12250000000000001,-0.8925000000000001,-3.325,0.92453125,0.0411875,-0.0678125,1.1046875,0.8359062500000001,-0.47471875,-0.64453125,1.0616875000000001,0.02107914927520873,0.02340148993501347,True
24776,516,0,517,2964.0,35389.0,25983.0,0.007686,0.00244,-0.010492,0.1925,-0.08750000000000001,-3.4825000000000004,0.9168125,0.04003125,-0.06959375,1.10471875,0.86009375,-0.478375,-0.64128125,1.0486875,0.02117813171830238,0.023200396692034837,True
24777,517,0,518,2963.0,35390.0,25987.0,0.001098,0.00042699999999999997,-0.006222,0.31500000000000006,1.7675,-3.6575,0.90728125,0.04265625,-0.07115625,1.10525,0.85753125,-0.47884375,-0.64115625,1.04940625,0.021304110820185285,0.02313203139564524,True
24778,518,0,519,2963.0,35391.0,25991.0,-0.0035989999999999998,-0.000549,-0.001647,0.3325,2.5375,-3.8325000000000005,0.91740625,0.04078125,-0.07046875,1.10365625,0.84759375,-0.473375,-0.642,1.0498750000000001,0.0210088003800048,0.023193379190000814,True
24779,519,0,520,2964.0,35393.0,25990.0,-0.0070149999999999995,-0.001769,0.0013419999999999999,0.42000000000000004,3.2025,-3.9200000000000004,0.91715625,0.043062500000000004,-0.0685,1.10984375,0.8474375000000001,-0.481875,-0.64675,1.0549375,0.0214418830257078,0.023461511152586042,True
24780,520,0,521,2964.0,35394.0,25993.0,-0.010248,-0.002379,0.002806,0.29750000000000004,3.325,-3.9550000000000005,0.9178125,0.042625,-0.0683125,1.103875,0.846375,-0.47850000000000004,-0.6441875,1.049625,0.021289090426292463,0.02336757906910098,True
24781,521,0,522,2963.0,35396.0,25996.0,-0.011041,-0.002379,0.003172,0.35000000000000003,3.4475000000000002,-4.0600000000000005,0.91759375,0.0415625,-0.07103125,1.1004375,0.8522500000000001,-0.48171875000000003,-0.6443125000000001,1.04221875,0.02137436735319084,0.02326221313741254,True
24782,522,0,523,2964.0,35396.0,25996.0,-0.014701,0.000305,0.00183,0.47250000000000003,2.2750000000000004,-3.9725000000000006,0.92453125,0.0406875,-0.06925,1.10403125,0.8463437500000001,-0.477875,-0.6431875,1.0506875,0.021184947631279268,0.023289905171561105,True
24783,523,0,524,2963.0,35397.0,25998.0,-0.013297999999999999,0.0008539999999999999,0.001647,0.5775,1.225,-4.0425,0.91715625,0.0425,-0.07015625,1.1088125,0.85421875,-0.48196875,-0.6441250000000001,1.04975,0.02142265417277767,0.02329028723884496,True
24784,524,0,525,2964.0,35395.0,25996.0,-0.008173999999999999,0.001281,0.00183,0.42000000000000004,-0.07,-3.9550000000000005,0.91621875,0.04321875,-0.0680625,1.10496875,0.84659375,-0.4791875,-0.6450312500000001,1.05634375,0.021340832901418808,0.02341115919664334,True
24785,525,0,526,2966.0,35397.0,25998.0,-0.0015249999999999999,-0.00042699999999999997,0.002257,0.2625,-1.3125000000000002,-3.8325000000000005,0.9234375,0.039875,-0.06821875,1.1045,0.84184375,-0.47871875,-0.6433125000000001,1.0504375,0.021185494032444,0.02333670645940963,True
24786,526,0,527,2966.0,35397.0,25997.0,0.0011589999999999999,-0.001769,0.0023179999999999997,0.12250000000000001,-2.4850000000000003,-3.7450000000000006,0.918125,0.04215625,-0.07125000000000001,1.11128125,0.8538125,-0.48159375,-0.6432187500000001,1.04928125,0.02139362352583765,0.023209985505647474,True
24787,527,0,528,2967.0,35399.0,25998.0,0.011956,-0.002928,-0.00061,0.052500000000000005,-3.5000000000000004,-3.4825000000000004,0.92296875,0.04303125,-0.065,1.10346875,0.8355312500000001,-0.47925,-0.64596875,1.0568125,0.021335672048776004,0.023572567014636014,True
24788,528,0,529,2966.0,35399.0,25999.0,0.014213,-0.003477,-0.001098,-0.0175,-3.325,-3.4125000000000005,0.91690625,0.04140625,-0.0735625,1.10425,0.85509375,-0.48134375,-0.6430625,1.04928125,0.02135299456346223,0.02310995234460003,True
24789,529,0,530,2967.0,35399.0,25999.0,0.012505,-0.001769,-0.0030499999999999998,0.0,-2.8525000000000005,-3.5000000000000004,0.9167500000000001,0.04209375,-0.0731875,1.107625,0.849125,-0.48046875,-0.6468125,1.0498125,0.02134609861177597,0.023273800618234104,True
24790,530,0,531,2968.0,35399.0,26001.0,0.008784,0.0013419999999999999,-0.0046359999999999995,0.14,-2.2750000000000004,-3.5700000000000003,0.92334375,0.04328125,-0.0675,1.0948437500000001,0.84740625,-0.47865625,-0.64734375,1.05775,0.021322146717101764,0.023525608109393126,True
24791,531,0,532,2967.0,35401.0,25999.0,0.006527,0.002074,-0.002623,0.4025,-1.8550000000000002,-3.5875000000000004,0.926125,0.0373125,-0.07328125,1.11259375,0.8525,-0.47903125,-0.6434062500000001,1.0488125,0.021093308175747356,0.02313499173840873,True
24792,532,0,533,2968.0,35401.0,26004.0,0.0051849999999999995,0.000244,0.000305,0.525,-0.77,-3.6750000000000003,0.9183125,0.04390625,-0.06746875000000001,1.101875,0.8361875,-0.4781875,-0.64425,1.0515625,0.021328938263913536,0.023404293090680383,True
24793,533,0,534,2970.0,35403.0,26004.0,0.003538,-0.000305,0.002745,0.45500000000000007,0.07,-3.7975000000000003,0.91459375,0.0406875,-0.07065625,1.11009375,0.853125,-0.4814375,-0.64390625,1.04303125,0.02132738324700092,0.023261328548512882,True
24794,534,0,535,2968.0,35403.0,26004.0,-0.002379,0.000366,0.0032329999999999998,0.6125,0.9100000000000001,-3.8150000000000004,0.914375,0.043000000000000003,-0.06828125,1.1016875,0.83796875,-0.47459375000000004,-0.645625,1.05515625,0.021148205984011483,0.023425810869069058,True
24795,535,0,536,2970.0,35406.0,26008.0,-0.005246,0.002257,0.0006709999999999999,0.6825000000000001,1.5575,-3.8500000000000005,0.92634375,0.04040625,-0.0684375,1.1011250000000001,0.851375,-0.47784375,-0.635625,1.04975,0.02117220802996587,0.02302306111576223,True
24796,536,0,537,2970.0,35403.0,26007.0,-0.007808,0.005673,-0.0013419999999999999,0.8225000000000001,2.5375,-4.2,0.9034375,0.043500000000000004,-0.06959375,1.11346875,0.8408125,-0.48184375,-0.6460625,1.0542500000000001,0.021458504325271664,0.02338989240167674,True
24797,537,0,538,2972.0,35406.0,26009.0,-0.007076,0.006039,0.00042699999999999997,0.8400000000000001,2.765,-4.2525,0.9296562500000001,0.0401875,-0.0716875,1.1085,0.8493437500000001,-0.47803125,-0.63846875,1.0499687500000001,0.021170769197379796,0.023003915371161206,True
24798,538,0,539,2969.0,35408.0,26011.0,-0.0060999999999999995,0.003355,0.003477,0.7175,3.0450000000000004,-4.305000000000001,0.91440625,0.04359375,-0.0681875,1.1013125,0.84696875,-0.47846875,-0.64565625,1.053625,0.02132741656889792,0.023430853053466573,True
24799,539,0,540,2969.0,35410.0,26013.0,-0.006039,0.001586,0.005856,0.525,3.3075,-4.2175,0.9168437500000001,0.0373125,-0.07425,1.111625,0.851375,-0.480375,-0.6452187500000001,1.0493125,0.021147041252431796,0.02316752615555502,True
24800,540,0,541,2971.0,35410.0,26016.0,-0.008662,-0.000915,0.0035989999999999998,0.4025,3.43,-4.095000000000001,0.92178125,0.04403125,-0.06809375,1.10328125,0.84703125,-0.47890625000000003,-0.64459375,1.05421875,0.021362780455111224,0.023392554401510474,True
24801,541,0,542,2973.0,35411.0,26017.0,-0.009394,-0.002989,0.000488,0.4025,2.5375,-4.1825,0.9224687500000001,0.04128125,-0.07125000000000001,1.1067500000000001,0.8505312500000001,-0.47881250000000003,-0.6432187500000001,1.04978125,0.02124669037764802,0.023209985505647474,True
24802,542,0,543,2973.0,35412.0,26022.0,-0.005612,-0.004026,-0.002562,0.29750000000000004,1.8025000000000002,-4.305000000000001,0.9166562500000001,0.04246875,-0.0711875,1.1109375000000001,0.846875,-0.48084375,-0.6468125,1.0495,0.02137640782908065,0.02335494701393943,True
24803,543,0,544,2973.0,35417.0,26026.0,-0.001647,-0.003111,-0.004697,0.35000000000000003,0.8575,-4.3925,0.9244375,0.042625,-0.06846875,1.1046562500000001,0.84721875,-0.478125,-0.64428125,1.0555625,0.021274096770075326,0.023364954090515425,True
24804,544,0,545,2975.0,35419.0,26030.0,0.001403,-0.00244,-0.003965,0.35000000000000003,0.24500000000000002,-4.322500000000001,0.91671875,0.04178125,-0.0648125,1.1044375,0.8624375,-0.47975,-0.6435625,1.04928125,0.02130459869892462,0.023484835035518913,True
24805,545,0,546,2977.0,35420.0,26031.0,0.0017079999999999999,-0.002196,-0.003294,0.35000000000000003,-0.12250000000000001,-4.2,0.921,0.03890625,-0.07200000000000001,1.11034375,0.83678125,-0.47781250000000003,-0.6426875,1.0468125,0.021109678407741705,0.02315849275774,True
24806,546,0,547,2977.0,35422.0,26034.0,0.00183,-0.000244,0.00366,0.385,-1.05,-4.2,0.916125,0.04309375,-0.06840625,1.104375,0.85459375,-0.48475,-0.65690625,1.06828125,0.021558061650619267,0.023867552321167627,True
24807,547,0,548,2978.0,35423.0,26037.0,0.004026,-0.001647,0.005612,0.42000000000000004,-1.4875,-3.99,0.91690625,0.04275,-0.0695625,1.11109375,0.86071875,-0.4825625,-0.63815625,1.03875,0.021456597935775715,0.02307777190105286,True
24808,548,0,549,2980.0,35426.0,26042.0,0.007137,-0.001586,0.00488,0.3325,-1.715,-3.7800000000000002,0.9253750000000001,0.04,-0.0680625,1.1034375,0.83728125,-0.47840625000000003,-0.64659375,1.0539687500000001,0.021178104681549684,0.023473071202790442,True
24809,549,0,550,2980.0,35424.0,26039.0,0.0034159999999999998,-0.000305,0.00183,0.385,-1.8550000000000002,-3.6750000000000003,0.91696875,0.04334375,-0.069,1.10871875,0.8727812500000001,-0.48571875000000003,-0.6505,1.0445625,0.0216069826416674,0.023589785197054822,True
24810,550,0,551,2979.0,35423.0,26037.0,-0.0013419999999999999,0.0013419999999999999,-0.000122,0.5425000000000001,-2.0125,-3.6925000000000003,0.9233125,0.04290625,-0.06440625,1.10434375,0.826375,-0.4705625,-0.64928125,1.04965625,0.02098312002431493,0.02372787238978824,True
24811,551,0,552,2981.0,35415.0,26026.0,0.0023179999999999997,0.00122,-0.005063,0.49000000000000005,-2.5900000000000003,-3.5000000000000004,0.9184687500000001,0.04275,-0.06890625,1.10459375,0.8343125,-0.47931250000000003,-0.64875,1.0589375,0.02132668145806791,0.02352426593640651,True
24812,552,0,553,2981.0,35409.0,26010.0,0.004575,0.0015249999999999999,-0.00793,0.42000000000000004,-2.6950000000000003,-3.3775000000000004,0.9199375000000001,0.043250000000000004,-0.06921875,1.101375,0.83396875,-0.47925,-0.65353125,1.0556875000000001,0.021344608188567867,0.023700965759215528,True
24813,553,0,554,2976.0,35403.0,25995.0,0.004331,0.000976,-0.0066489999999999995,0.385,-2.5375,-3.4125000000000005,0.92609375,0.043500000000000004,-0.0698125,1.1089375000000001,0.83409375,-0.483,-0.65396875,1.04771875,0.021504717559122654,0.023694207448851413,True
24814,554,0,555,2975.0,35398.0,25986.0,0.001769,0.000549,-0.0021349999999999997,0.47250000000000003,-2.345,-3.5000000000000004,0.9230625,0.04228125,-0.0689375,1.10403125,0.83475,-0.47600000000000003,-0.6506875,1.068125,0.021175079669880702,0.023599747471546178,True
24815,555,0,556,2975.0,35394.0,25977.0,-0.00042699999999999997,0.000305,0.00042699999999999997,0.6125,-2.1525000000000003,-3.6750000000000003,0.9261875,0.0409375,-0.06878125,1.10390625,0.83446875,-0.4755625,-0.6429375,1.06625,0.02110268150119124,0.023299018227839113,True
24816,556,0,557,2972.0,35389.0,25969.0,0.0015249999999999999,-0.0013419999999999999,0.0034159999999999998,0.42000000000000004,-1.5575,-3.7450000000000006,0.90696875,0.0399375,-0.0706875,1.104,0.86146875,-0.48081250000000003,-0.6391875,1.06290625,0.021271761302857087,0.02307300108820553,True
24817,557,0,558,2967.0,35386.0,25959.0,0.002257,-0.000549,0.005978,0.42000000000000004,-1.3825,-3.7100000000000004,0.923625,0.04009375,-0.0690625,1.10278125,0.8403437500000001,-0.4760625,-0.64284375,1.054375,0.021088206078898514,0.023283889465881957,True
24818,558,0,559,2964.0,35382.0,25953.0,0.002379,-0.001647,0.005307,0.2625,-0.8575,-3.8500000000000005,0.92434375,0.045375,-0.0689375,1.1036875,0.8501875,-0.47750000000000004,-0.6443125000000001,1.0433125,0.02136145439689511,0.02334717188803705,True
24819,559,0,560,2961.0,35377.0,25946.0,0.005673,-0.002745,0.003111,0.17500000000000002,-0.14,-3.8500000000000005,0.92353125,0.0398125,-0.06834375,1.1011875,0.85259375,-0.4790625,-0.64475,1.04978125,0.021196685943344437,0.02338860203491616,True
24820,560,0,561,2958.0,35379.0,25941.0,-0.000793,-0.001464,-0.001281,0.0175,0.525,-3.8850000000000002,0.9170625,0.04346875,-0.072875,1.0963125,0.84809375,-0.4805625,-0.64453125,1.0500625000000001,0.021406013444339768,0.023196069107624027,True
24821,561,0,562,2955.0,35376.0,25939.0,0.00042699999999999997,0.003538,-0.003477,0.21000000000000002,1.6975000000000002,-4.025,0.91909375,0.04359375,-0.0695625,1.10365625,0.8472500000000001,-0.4785625,-0.6429375,1.05690625,0.021331164769173027,0.023267315432667073,True
24822,562,0,563,2951.0,35376.0,25936.0,-0.000915,0.002013,-0.004697,0.24500000000000002,1.8725000000000003,-3.9550000000000005,0.92225,0.04284375,-0.0684375,1.10359375,0.8534375000000001,-0.47803125,-0.64440625,1.055625,0.02127928486895775,0.023371175761233848,True
24823,563,0,564,2949.0,35377.0,25938.0,-0.0055509999999999995,0.001403,-0.004331,0.3325,2.3800000000000003,-4.0600000000000005,0.922,0.04246875,-0.0684375,1.10478125,0.8541562500000001,-0.4785625,-0.6438125,1.04990625,0.021285206188067625,0.023347645580406844,True
24824,564,0,565,2947.0,35378.0,25937.0,-0.007137,-0.00061,0.0008539999999999999,0.22750000000000004,2.3275,-4.077500000000001,0.91759375,0.04240625,-0.06734375000000001,1.10946875,0.846875,-0.48215625,-0.6461250000000001,1.04884375,0.021426319423968224,0.023483661224634703,True
24825,565,0,566,2945.0,35379.0,25939.0,-0.0068319999999999995,-0.000549,0.00122,0.385,1.9250000000000003,-4.2175,0.91678125,0.04284375,-0.07112500000000001,1.11009375,0.846875,-0.4780625,-0.64696875,1.0529375,0.02128053435601776,0.023363674285504177,True
24826,566,0,567,2945.0,35381.0,25941.0,-0.006344,0.000122,0.002989,0.47250000000000003,0.7875000000000001,-4.235,0.9246562500000001,0.04359375,-0.0670625,1.10434375,0.8471875,-0.47834375,-0.6466875,1.04984375,0.02132241892387021,0.023517359077157934,True
24827,567,0,568,2945.0,35382.0,25944.0,-0.003843,-0.0013419999999999999,0.0048189999999999995,0.49000000000000005,0.385,-4.112500000000001,0.9234375,0.0424375,-0.06365625,1.104125,0.85271875,-0.47959375,-0.64446875,1.0491875,0.021325159858913097,0.023567661607637617,True
24828,568,0,569,2944.0,35386.0,25945.0,-0.005856,-0.002623,0.003477,0.43750000000000006,-0.052500000000000005,-3.9200000000000004,0.917625,0.03828125,-0.07421875,1.10775,0.85284375,-0.48115625,-0.64646875,1.0498750000000001,0.021217849953471864,0.02321833629817659,True
24829,569,0,570,2942.0,35385.0,25948.0,-0.005612,-0.000488,0.0035989999999999998,0.4025,-0.49000000000000005,-3.8500000000000005,0.91228125,0.04640625,-0.07334375,1.117375,0.8466875,-0.47825,-0.6471250000000001,1.0559687500000001,0.021433568576184982,0.023279845012349313,True
24830,570,0,571,2942.0,35388.0,25953.0,-0.0026839999999999998,6.1e-05,0.0042699999999999995,0.49000000000000005,-1.12,-3.7275000000000005,0.93478125,0.04234375,-0.0665,1.0995,0.8540625000000001,-0.47815625,-0.6429375,1.04896875,0.0212638564230098,0.023391590389741486,True
24831,571,0,572,2942.0,35390.0,25957.0,0.0030499999999999998,0.0028669999999999998,-0.003294,0.35000000000000003,-2.6775,-3.7100000000000004,0.9098437500000001,0.04203125,-0.07125000000000001,1.12034375,0.8466250000000001,-0.4789375,-0.6465625,1.05653125,0.021282326898379472,0.023342504659625455,True
24832,572,0,573,2942.0,35394.0,25961.0,0.0059169999999999995,0.004514,-0.00366,0.4025,-3.0625000000000004,-3.7100000000000004,0.93365625,0.039281250000000004,-0.0661875,1.09790625,0.85284375,-0.47853125,-0.643875,1.0495625,0.021153740586457775,0.023441423071655736,True
24833,573,0,574,2942.0,35392.0,25963.0,0.009577,0.0021349999999999997,-0.002806,0.4025,-3.1850000000000005,-3.4825000000000004,0.92034375,0.040375,-0.062625,1.0978125,0.84846875,-0.47900000000000004,-0.6396875,1.044125,0.02121716573389436,0.023420041345897747,True
24834,574,0,575,2943.0,35393.0,25966.0,0.007076,0.000122,-0.002013,0.24500000000000002,-3.2025,-3.2550000000000003,0.91628125,0.04571875,-0.07128125,1.1111875,0.8542500000000001,-0.4825625,-0.64696875,1.04896875,0.021577857709951728,0.023357334763529494,True
24835,575,0,576,2944.0,35396.0,25967.0,0.002562,-0.001769,-0.002379,0.07,-3.2025,-3.4125000000000005,0.91090625,0.04440625,-0.06590625,1.1200625,0.84678125,-0.47825,-0.63953125,1.05509375,0.021351863388926907,0.023280678279949014,True
24836,576,0,577,2944.0,35397.0,25969.0,-0.000122,-0.0008539999999999999,-0.0030499999999999998,0.17500000000000002,-3.6750000000000003,-3.9025000000000003,0.92109375,0.0455,-0.0679375,1.1184375,0.84740625,-0.47800000000000004,-0.64765625,1.05653125,0.021386551188822617,0.023520238359377478,True
24837,577,0,578,2945.0,35398.0,25971.0,0.0026839999999999998,-0.000549,-0.0032329999999999998,0.2625,-3.9725000000000006,-3.9375000000000004,0.93109375,0.044875,-0.06753125,1.1110625,0.850875,-0.4780625,-0.64384375,1.056375,0.021363516822460932,0.023385657929274935,True
24838,578,0,579,2945.0,35399.0,25973.0,0.002806,-0.0018909999999999999,0.000183,0.24500000000000002,-4.0425,-4.0075,0.93290625,0.04546875,-0.06909375,1.11271875,0.8558125,-0.47781250000000003,-0.64409375,1.05271875,0.021377778345185054,0.023332162498367386,True
24839,579,0,580,2944.0,35398.0,25973.0,-0.00122,-0.002379,0.003904,0.29750000000000004,-3.9025000000000003,-3.9550000000000005,0.9306562500000001,0.04553125,-0.06846875,1.1149375,0.85353125,-0.47834375,-0.6421250000000001,1.04390625,0.02140157052088134,0.023279495985025645,True
24840,580,0,581,2946.0,35399.0,25973.0,-0.003477,-0.00042699999999999997,0.002196,0.31500000000000006,-3.7450000000000006,-3.9550000000000005,0.9190625,0.04578125,-0.06996875,1.1075625,0.8470625,-0.477125,-0.645375,1.05459375,0.02136305836571901,0.023347433341955638,True
24841,581,0,582,2948.0,35399.0,25975.0,-0.00122,0.002989,0.002074,0.56,-4.2875000000000005,-3.99,0.9173125,0.04359375,-0.07240625,1.10915625,0.847125,-0.47834375,-0.64559375,1.04915625,0.02132241892387021,0.023257199879795958,True
24842,582,0,583,2948.0,35399.0,25976.0,0.002623,0.002013,-0.000122,0.385,-4.515000000000001,-3.8850000000000002,0.9176562500000001,0.04409375,-0.0691875,1.10425,0.8466250000000001,-0.478125,-0.6479375,1.05709375,0.021334099323375467,0.023480666485786086,True
24843,583,0,584,2948.0,35400.0,25976.0,0.0017079999999999999,-0.00122,0.000732,0.31500000000000006,-4.655,-3.7800000000000002,0.92396875,0.04253125,-0.0685,1.10390625,0.8549375,-0.47665625,-0.64396875,1.049125,0.02121153701294473,0.02335130172570114,True
24844,584,0,585,2950.0,35401.0,25976.0,0.003538,-0.000793,0.0008539999999999999,0.28,-4.8825,-3.7975000000000003,0.91790625,0.042125,-0.07159375,1.1090625,0.849625,-0.48028125,-0.64815625,1.04909375,0.021339879418256272,0.023391709065460016,True
24845,585,0,586,2948.0,35402.0,25977.0,0.006222,0.001281,-0.00042699999999999997,0.28,-5.040000000000001,-3.9025000000000003,0.918,0.042875,-0.06959375,1.11,0.847125,-0.47865625,-0.64746875,1.0565,0.021305550626374764,0.023445612442454158,True
24846,586,0,587,2949.0,35402.0,25979.0,0.0075639999999999995,-0.00244,-0.002379,0.12250000000000001,-4.83,-3.9375000000000004,0.92640625,0.043625000000000004,-0.0694375,1.10390625,0.84740625,-0.4766875,-0.644875,1.0578750000000001,0.021257472033337842,0.023349175031319898,True
24847,587,0,588,2949.0,35401.0,25978.0,0.0066489999999999995,-0.0017079999999999999,-0.002745,0.17500000000000002,-4.4975000000000005,-4.0425,0.925,0.0445,-0.07115625,1.10478125,0.8538125,-0.47731250000000003,-0.6441875,1.04940625,0.021318210485730408,0.023252186747889335,True
24848,588,0,589,2950.0,35402.0,25982.0,0.004209,0.000183,-0.002562,0.15750000000000003,-3.9725000000000006,-4.130000000000001,0.91671875,0.04290625,-0.069625,1.10609375,0.84778125,-0.47831250000000003,-0.64628125,1.05490625,0.021293083418229913,0.02339729244143069,True
24849,589,0,590,2951.0,35401.0,25983.0,0.004026,0.001098,-0.0028669999999999998,0.21000000000000002,-3.5175000000000005,-4.112500000000001,0.92409375,0.0418125,-0.06671875000000001,1.104125,0.853125,-0.4771875,-0.644625,1.04928125,0.021203416446436096,0.023449585863043156,True
24850,590,0,591,2952.0,35403.0,25983.0,0.004148,0.0,-0.001952,0.3325,-2.8000000000000003,-4.112500000000001,0.9116875,0.0416875,-0.06734375000000001,1.11128125,0.85359375,-0.4810625,-0.64675,1.04078125,0.021353239876741464,0.023508424031566028,True
24851,591,0,592,2952.0,35404.0,25988.0,-0.0026839999999999998,-0.001403,0.002257,0.35000000000000003,-1.155,-4.0075,0.9145625000000001,0.04390625,-0.070125,1.1094375,0.84659375,-0.47709375,-0.6423125000000001,1.0558750000000001,0.021285206704737974,0.023219716087928034,True
24852,592,0,593,2951.0,35407.0,25990.0,-0.008052,-0.0008539999999999999,0.00244,0.385,-0.7000000000000001,-4.0425,0.92278125,0.0501875,-0.069375,1.10534375,0.8500625,-0.477625,-0.64528125,1.046875,0.021563060141659988,0.023367810014340983,True
24853,593,0,594,2954.0,35406.0,25991.0,-0.00671,0.001647,0.002074,0.43750000000000006,-0.43750000000000006,-4.077500000000001,0.9266562500000001,0.0411875,-0.06890625,1.100875,0.85246875,-0.47759375,-0.6445,1.0498125,0.021194127792892224,0.023355870478199998,True
24854,594,0,595,2955.0,35409.0,25993.0,-0.0044529999999999995,0.000976,0.0017079999999999999,0.45500000000000007,-0.49000000000000005,-4.1825,0.91590625,0.04028125,-0.06784375000000001,1.1030312500000001,0.85390625,-0.48046875,-0.63953125,1.04278125,0.021272059996808684,0.023202044478829117,True
24855,595,0,596,2956.0,35410.0,25995.0,-0.001586,-0.000305,0.00244,0.42000000000000004,-0.4025,-4.2175,0.91703125,0.04346875,-0.07,1.10440625,0.84728125,-0.48131250000000003,-0.64525,1.05809375,0.021435993270377148,0.02334121179537639,True
24856,596,0,597,2955.0,35411.0,25995.0,-0.003355,-0.00061,0.00122,0.35000000000000003,0.1925,-3.8850000000000002,0.92325,0.04125,-0.07175000000000001,1.0983125,0.85321875,-0.47840625000000003,-0.645,1.04925,0.02122917009762431,0.023260296206127004,True
24857,597,0,598,2957.0,35412.0,25999.0,-0.004514,-0.000549,-0.001952,0.35000000000000003,0.07,-3.8675,0.917875,0.043250000000000004,-0.0699375,1.111125,0.8465625,-0.48040625000000003,-0.64728125,1.04725,0.021390831698309746,0.02342423669953456,True
24858,598,0,599,2959.0,35415.0,26001.0,-0.0035989999999999998,-0.0006709999999999999,-0.001647,0.24500000000000002,-0.035,-4.0425,0.92328125,0.0403125,-0.069125,1.10453125,0.8465312500000001,-0.47775,-0.64446875,1.049125,0.021164629101939517,0.02334575583009879,True
24859,599,0,600,2960.0,35415.0,26003.0,-0.0017079999999999999,0.000183,-0.0032329999999999998,0.31500000000000006,-0.22750000000000004,-4.0425,0.918125,0.043062500000000004,-0.06978125,1.1018125,0.8495,-0.47246875,-0.64684375,1.05459375,0.021065763951583348,0.023413241299912898,True
24860,600,0,601,2960.0,35417.0,26006.0,-0.007442,-0.002196,-0.003477,0.2625,-0.9800000000000001,-3.9725000000000006,0.9134375,0.04284375,-0.07037500000000001,1.1079375,0.838,-0.4776875,-0.64509375,1.05009375,0.021265540300733066,0.023319803764187345,True
24861,601,0,602,2962.0,35420.0,26010.0,-0.006893,0.000793,-0.000488,0.42000000000000004,-1.6450000000000002,-4.025,0.92153125,0.041625,-0.0690625,1.10403125,0.8450625,-0.47796875,-0.64525,1.04909375,0.021226996214708378,0.02337925157991905,True
24862,602,0,603,2963.0,35423.0,26013.0,-0.001769,0.0025009999999999998,0.0021349999999999997,0.5775,-2.3625000000000003,-4.0075,0.9175625000000001,0.043437500000000004,-0.06540625,1.10690625,0.84709375,-0.47925,-0.64834375,1.0553125,0.021352267736960893,0.023650169192402634,True
24863,603,0,604,2964.0,35427.0,26016.0,0.0030499999999999998,0.004575,0.0044529999999999995,0.6125,-3.1500000000000004,-3.9375000000000004,0.92171875,0.0425,-0.06928125,1.1038125,0.8475625,-0.4718125,-0.644625,1.04959375,0.021016526667160435,0.023345607815091526,True
24864,604,0,605,2966.0,35428.0,26018.0,0.005795,0.0037819999999999998,0.003843,0.6125,-3.5700000000000003,-3.7100000000000004,0.91459375,0.04403125,-0.0688125,1.104375,0.8483125,-0.47831250000000003,-0.64596875,1.05459375,0.02133904246871593,0.023417876402200666,True
24865,605,0,606,2967.0,35425.0,26021.0,0.002989,-0.000732,0.0018909999999999999,0.47250000000000003,-3.8500000000000005,-3.3950000000000005,0.91815625,0.043562500000000004,-0.06996875,1.10246875,0.8579375,-0.48328125,-0.6495625,1.06025,0.02151851071841116,0.023513348360645347,True
24866,606,0,607,2969.0,35426.0,26016.0,-0.001281,-0.001952,-0.001403,0.5075000000000001,-4.025,-3.4650000000000003,0.9205,0.0411875,-0.07200000000000001,1.11115625,0.8490625,-0.47734375,-0.6440625,1.0474375,0.021184130733139704,0.0232129950165481,True
24867,607,0,608,2968.0,35421.0,26011.0,0.00042699999999999997,-6.1e-05,-0.002379,0.525,-4.2700000000000005,-3.5700000000000003,0.90659375,0.043812500000000004,-0.0609375,1.105,0.83153125,-0.47734375,-0.64590625,1.05315625,0.02129137276180141,0.023734925551784084,True
24868,608,0,609,2969.0,35415.0,25996.0,0.005612,-0.001952,-0.0048189999999999995,0.42000000000000004,-4.6375,-3.6050000000000004,0.902375,0.0445,-0.07040625,1.12709375,0.8576875,-0.48290625000000004,-0.6468125,1.0595937500000001,0.021541815526904616,0.023386644824761823,True
24869,609,0,610,2966.0,35406.0,25979.0,0.006344,-0.0042699999999999995,-0.002074,0.22750000000000004,-4.760000000000001,-3.6925000000000003,0.9399375,0.03734375,-0.0661875,1.0966875,0.84196875,-0.47653125,-0.64425,1.04740625,0.020994600695308896,0.023456282905748808,True
24870,610,0,611,2963.0,35399.0,25962.0,0.000976,0.001098,0.000183,0.385,-4.340000000000001,-3.9025000000000003,0.90346875,0.0463125,-0.06353125,1.0929375000000001,0.84409375,-0.47703125,-0.6450312500000001,1.03496875,0.021381014088463036,0.023595019787203558,True
24871,611,0,612,2961.0,35393.0,25948.0,0.002379,0.003355,0.0011589999999999999,0.56,-4.077500000000001,-3.7800000000000002,0.8938125,0.045875,-0.06809375,1.10815625,0.84646875,-0.4789375,-0.6458125,1.05159375,0.0214393496449754,0.023440848217115992,True
24872,612,0,613,2959.0,35388.0,25939.0,0.0032329999999999998,0.0062829999999999995,0.003172,0.6475000000000001,-3.9200000000000004,-3.7975000000000003,0.92403125,0.040375,-0.07284375,1.11346875,0.857625,-0.481,-0.64740625,1.06071875,0.02129712838527838,0.023311276414734308,True
24873,613,0,614,2954.0,35386.0,25931.0,0.007137,0.00366,0.0044529999999999995,0.49000000000000005,-3.7100000000000004,-3.8850000000000002,0.942875,0.03309375,-0.077625,1.11928125,0.86003125,-0.48109375,-0.6435,1.0484375,0.02100345291966377,0.02296244445797066,True
24874,614,0,615,2951.0,35381.0,25922.0,0.0070149999999999995,0.00122,0.002257,0.28,-3.2375000000000003,-3.7450000000000006,0.92909375,0.04146875,-0.0723125,1.11278125,0.8443437500000001,-0.47715625,-0.643375,1.04715625,0.021188123109685177,0.023173063754457338,True
24875,615,0,616,2947.0,35376.0,25918.0,0.000183,-0.000183,-0.002928,0.17500000000000002,-2.0300000000000002,-3.7975000000000003,0.92603125,0.04328125,-0.0645,1.09453125,0.8445,-0.47671875,-0.6440625,1.0475,0.02124467765925529,0.023517327956784722,True
24876,616,0,617,2943.0,35377.0,25913.0,0.001098,0.0006709999999999999,-0.0034159999999999998,0.2625,-1.4700000000000002,-3.9025000000000003,0.90453125,0.04615625,-0.06209375,1.09996875,0.8446875,-0.46909375000000003,-0.6451250000000001,1.048625,0.021057175441979742,0.023657061995019303,True
24877,617,0,618,2942.0,35375.0,25912.0,0.0013419999999999999,-0.00183,-0.002562,0.15750000000000003,-0.805,-3.99,0.89890625,0.0455625,-0.07659375,1.12434375,0.85346875,-0.48178125,-0.64840625,1.0561875,0.02154025250920008,0.02319876158321595,True
24878,618,0,619,2937.0,35375.0,25911.0,-0.001098,-0.0015249999999999999,-0.0018909999999999999,0.07,-0.14,-3.9725000000000006,0.93803125,0.03875,-0.065,1.09396875,0.84675,-0.477125,-0.6455625,1.04975,0.021075800364626154,0.023556471880079834,True
24879,619,0,620,2935.0,35375.0,25912.0,-0.0046359999999999995,-0.002623,-0.000915,0.14,0.4025,-4.112500000000001,0.90465625,0.04378125,-0.0731875,1.116875,0.84765625,-0.47975,-0.6492187500000001,1.0537812500000001,0.021386298879686273,0.023369148362967898,True
24880,620,0,621,2934.0,35376.0,25912.0,-0.006588,0.000183,-0.003294,0.3325,0.7000000000000001,-4.322500000000001,0.9223750000000001,0.04346875,-0.063625,1.09696875,0.84728125,-0.47775,-0.64546875,1.0505625,0.02129357273442208,0.023608548731701443,True
24881,621,0,622,2932.0,35377.0,25913.0,-0.006405,6.1e-05,0.000183,0.31500000000000006,0.665,-4.1475,0.9164375,0.03790625,-0.0693125,1.10565625,0.85509375,-0.47715625,-0.64359375,1.04934375,0.02104257924161431,0.02330347009554968,True
24882,622,0,623,2930.0,35378.0,25916.0,-0.004514,-0.0006709999999999999,0.002257,0.43750000000000006,0.7175,-4.1825,0.91746875,0.04425,-0.07021875,1.11059375,0.84790625,-0.48078125,-0.647625,1.0499687500000001,0.021446670538751697,0.02342644575288694,True
24883,623,0,624,2930.0,35380.0,25918.0,-0.005246,-0.002196,0.004514,0.36750000000000005,0.7525000000000001,-4.112500000000001,0.922875,0.04396875,-0.07021875,1.1039375,0.848,-0.47750000000000004,-0.6489375000000001,1.0573125,0.021304003676846085,0.02347844607906528,True
24884,624,0,625,2929.0,35380.0,25918.0,-0.006527,-0.001037,0.004575,0.45500000000000007,0.28,-3.99,0.921875,0.04025,-0.06921875,1.10528125,0.8476250000000001,-0.47784375,-0.64596875,1.05634375,0.02116582470627136,0.02340139297628542,True
24885,625,0,626,2929.0,35382.0,25922.0,-0.003904,-6.1e-05,0.00061,0.45500000000000007,-0.6475000000000001,-3.9725000000000006,0.9241875,0.04390625,-0.0689375,1.1044375,0.8410625,-0.47684375,-0.64640625,1.05734375,0.021275210371026698,0.023430140043236528,True
24886,626,0,627,2929.0,35386.0,25927.0,-0.000183,-0.000183,0.001281,0.45500000000000007,-1.1725,-3.9200000000000004,0.9183125,0.0410625,-0.069,1.10378125,0.8546875,-0.47721875,-0.64609375,1.04246875,0.021174025337335357,0.023415221732652865,True
24887,627,0,628,2928.0,35388.0,25930.0,0.002074,-0.0013419999999999999,0.0011589999999999999,0.36750000000000005,-1.5925000000000002,-3.7100000000000004,0.9177500000000001,0.04346875,-0.072625,1.1096875,0.85421875,-0.47834375,-0.6460312500000001,1.04978125,0.021317312369224326,0.023265662701778815,True
24888,628,0,629,2928.0,35389.0,25932.0,0.002379,-0.001403,-0.000122,0.31500000000000006,-1.8550000000000002,-3.6575,0.919875,0.042875,-0.069375,1.10921875,0.8476250000000001,-0.47303125,-0.6475,1.05525,0.02108060275532889,0.023455725732832944,True
24889,629,0,630,2929.0,35389.0,25936.0,0.0032329999999999998,0.001281,-0.00366,0.4025,-2.2225,-3.7100000000000004,0.9240625,0.0428125,-0.06865625,1.0988125,0.8468125,-0.47775,-0.64559375,1.0551875,0.021266762672222734,0.02340935689569256,True
24890,630,0,631,2930.0,35393.0,25938.0,0.004026,0.003904,-0.003111,0.56,-2.8525000000000005,-4.025,0.9177500000000001,0.04171875,-0.0708125,1.10415625,0.85521875,-0.47603125,-0.64509375,1.0498750000000001,0.021153347726666268,0.023302051752186987,True
24891,631,0,632,2929.0,35394.0,25939.0,0.00549,0.002196,-0.001464,0.43750000000000006,-2.7825,-3.9725000000000006,0.91790625,0.04259375,-0.07025,1.11253125,0.853125,-0.47959375,-0.640625,1.0500625000000001,0.02133154272627584,0.023147748890298032,True
24892,632,0,633,2929.0,35395.0,25942.0,0.0037819999999999998,0.000122,0.0011589999999999999,0.3325,-2.765,-3.8850000000000002,0.9227500000000001,0.04453125,-0.0695625,1.105375,0.8478125,-0.47781250000000003,-0.6492187500000001,1.05825,0.021339478354121717,0.02351621184748503,True
24893,633,0,634,2929.0,35395.0,25942.0,0.001281,-0.00183,0.002379,0.29750000000000004,-2.4675000000000002,-3.9025000000000003,0.92625,0.04409375,-0.0685625,1.0998125,0.84728125,-0.47784375,-0.646375,1.048125,0.021322854469156417,0.02344411703546668,True
24894,634,0,635,2932.0,35396.0,25944.0,6.1e-05,-0.002562,0.001769,0.4025,-2.205,-3.7100000000000004,0.91734375,0.04278125,-0.07225,1.1101875,0.84803125,-0.479625,-0.64484375,1.04934375,0.021340451497929406,0.02323381538988252,True
24895,635,0,636,2931.0,35400.0,25944.0,0.0023179999999999997,-0.000732,0.000549,0.3325,-2.0825,-3.7975000000000003,0.9234375,0.04403125,-0.06965625,1.10396875,0.83975,-0.47596875,-0.6475625,1.05471875,0.021245328645061293,0.02344679113806893,True
24896,636,0,637,2932.0,35399.0,25946.0,0.002013,-0.00042699999999999997,0.000244,0.3325,-1.9075000000000002,-3.7800000000000002,0.92078125,0.04215625,-0.07162500000000001,1.10390625,0.8436875,-0.476625,-0.64525,1.04946875,0.021194966626322052,0.023275276168835776,True
24897,637,0,638,2932.0,35398.0,25945.0,-0.000305,-0.001403,0.000122,0.36750000000000005,-1.5925000000000002,-3.7975000000000003,0.91825,0.043000000000000003,-0.07100000000000001,1.1047500000000001,0.8531562500000001,-0.4790625,-0.646,1.0493125,0.02132689926340112,0.023330357867402417,True
24898,638,0,639,2931.0,35399.0,25945.0,-0.001281,-0.000488,-0.000549,0.45500000000000007,-1.2775,-3.7625,0.9174375,0.047125,-0.07140625,1.11071875,0.848625,-0.47953125,-0.6461875,1.0501875,0.021514147661630574,0.02332130476569652,True
24899,639,0,640,2934.0,35400.0,25946.0,-0.002745,0.001464,-0.0017079999999999999,0.42000000000000004,-1.2425000000000002,-3.7625,0.9174375,0.04384375,-0.0689375,1.1041875,0.848,-0.47850000000000004,-0.6469375,1.0516875,0.02133887901627959,0.023451189422620967,True
24900,640,0,641,2934.0,35397.0,25945.0,0.000305,0.0015249999999999999,0.000793,0.525,-1.1375000000000002,-3.8150000000000004,0.92459375,0.04046875,-0.0719375,1.11059375,0.84996875,-0.47690625000000003,-0.64625,1.049375,0.021137270973532452,0.02330222650504641,True
24901,641,0,642,2932.0,35396.0,25948.0,-0.000366,0.001403,0.000976,0.5425000000000001,-1.0150000000000001,-3.8500000000000005,0.91778125,0.048,-0.0698125,1.1066875,0.84790625,-0.4771875,-0.6465625,1.05490625,0.021456202841931903,0.023400829223142176,True
24902,642,0,643,2933.0,35396.0,25946.0,-0.00183,0.002562,0.003538,0.49000000000000005,-0.7525000000000001,-3.8850000000000002,0.92553125,0.04509375,-0.0685,1.1028437500000001,0.84771875,-0.4723125,-0.645625,1.05221875,0.02114251564906259,0.023416935054396064,True
24903,643,0,644,2934.0,35399.0,25948.0,-0.0051849999999999995,0.000793,-0.002013,0.47250000000000003,-0.665,-3.7625,0.91834375,0.04059375,-0.06884375,1.10415625,0.85690625,-0.47675,-0.6455625,1.04984375,0.021136129183817295,0.02340051074103097,True
24904,644,0,645,2933.0,35402.0,25950.0,-0.0030499999999999998,0.00183,-0.0006709999999999999,0.4025,-0.7175,-3.8850000000000002,0.9175625000000001,0.040125,-0.0695625,1.10559375,0.85678125,-0.47115625,-0.64509375,1.04265625,0.020893219951550104,0.023352771786473728,True
24905,645,0,646,2936.0,35400.0,25951.0,0.003965,-0.0025009999999999998,0.0030499999999999998,0.29750000000000004,-0.9450000000000001,-3.8325000000000005,0.91859375,0.04390625,-0.07096875,1.10890625,0.85771875,-0.482,-0.64090625,1.048125,0.021481343435993793,0.02312972965432227,True
24906,646,0,647,2936.0,35404.0,25952.0,-0.003172,-0.004392,-0.002806,0.15750000000000003,-0.8925000000000001,-3.7975000000000003,0.91809375,0.043437500000000004,-0.06934375,1.1106562500000001,0.8551562500000001,-0.48309375,-0.6444375,1.044375,0.021505911604819145,0.02333564115634613,True
24907,647,0,648,2937.0,35403.0,25955.0,0.000915,-0.000488,0.001098,0.14,-0.8575,-3.9550000000000005,0.922875,0.04459375,-0.0696875,1.11225,0.84196875,-0.48028125,-0.65096875,1.03690625,0.021440725890353077,0.0235804627353641,True
24908,648,0,649,2938.0,35405.0,25956.0,0.0026839999999999998,-0.000488,-0.002196,0.385,-1.0850000000000002,-3.99,0.9262812500000001,0.044625,-0.0688125,1.10509375,0.8291875,-0.47731250000000003,-0.6505,1.0594375,0.02132331725551978,0.023597391533640287,True
24909,649,0,650,2938.0,35407.0,25960.0,-0.001098,-0.000488,-0.004758,0.35000000000000003,-1.2950000000000002,-3.9725000000000006,0.923125,0.043625000000000004,-0.068375,1.10584375,0.84021875,-0.47796875,-0.65159375,1.05703125,0.021308702340752845,0.023658460216187848,True
24910,650,0,651,2940.0,35407.0,25963.0,-0.0015249999999999999,-0.000732,-0.0008539999999999999,0.31500000000000006,-1.8375000000000001,-3.9550000000000005,0.92534375,0.04775,-0.06871875,1.1046562500000001,0.84159375,-0.46778125000000004,-0.6468125,1.0645,0.021069799698327774,0.023455112096138195,True
24911,651,0,652,2939.0,35409.0,25964.0,-0.0018909999999999999,0.0,0.000732,0.28,-2.1,-4.0425,0.9175625000000001,0.0401875,-0.07087500000000001,1.10446875,0.86184375,-0.47459375000000004,-0.64315625,1.05384375,0.02103329089987449,0.023222725376340538,True
24912,652,0,653,2942.0,35412.0,25969.0,-0.0055509999999999995,-0.001098,0.0044529999999999995,0.29750000000000004,-2.205,-3.8850000000000002,0.91815625,0.0394375,-0.07075000000000001,1.10434375,0.86628125,-0.47500000000000003,-0.6435,1.05003125,0.021018896833503574,0.023241422687524094,True
24913,653,0,654,2943.0,35413.0,25972.0,-0.0064659999999999995,-0.002623,0.005429,0.24500000000000002,-2.5025000000000004,-3.7450000000000006,0.91790625,0.04303125,-0.07253125,1.11171875,0.86503125,-0.48259375,-0.6432187500000001,1.0439375,0.021469334718671303,0.023157993514950233,True
24914,654,0,655,2944.0,35415.0,25976.0,-0.005307,-0.00488,0.0068319999999999995,0.17500000000000002,-2.9050000000000002,-3.5525,0.9178125,0.04428125,-0.0645625,1.10428125,0.84746875,-0.47925,-0.65375,1.04478125,0.021386735704729515,0.02389849414389292,True
24915,655,0,656,2946.0,35417.0,25978.0,-6.1e-05,0.0,-0.000305,0.035,-4.025,-3.7450000000000006,0.9183125,0.044875,-0.06725,1.10328125,0.85971875,-0.4796875,-0.6472187500000001,1.052875,0.02142848024510117,0.023530798987208244,True
24916,656,0,657,2946.0,35418.0,25982.0,0.0062829999999999995,0.002623,-0.006161,0.21000000000000002,-4.8475,-3.8850000000000002,0.92378125,0.0405,-0.07240625,1.10378125,0.84121875,-0.47525,-0.6430625,1.04921875,0.021072307739451082,0.02315687224345594,True
24917,657,0,658,2946.0,35420.0,25982.0,0.011285,0.004758,-0.008296,0.36750000000000005,-5.32,-3.8850000000000002,0.917125,0.04365625,-0.070125,1.1049375000000001,0.86075,-0.47809375,-0.64384375,1.05075,0.02131497678408883,0.02328040851987629,True
24918,658,0,659,2949.0,35424.0,25988.0,0.011163,0.0055509999999999995,-0.008601,0.35000000000000003,-5.425000000000001,-3.99,0.9241875,0.039781250000000004,-0.07225,1.111375,0.84784375,-0.47600000000000003,-0.64509375,1.0483125,0.02107293879718909,0.02324372371275723,True
24919,659,0,660,2950.0,35422.0,25989.0,0.013237,0.002745,-0.000732,0.2625,-5.3375,-4.095000000000001,0.92515625,0.045125,-0.06875,1.10234375,0.8475625,-0.4769375,-0.6424375,1.0501562500000001,0.021328750788369665,0.023280468906535727,True
24920,660,0,661,2951.0,35423.0,25990.0,0.012017,0.000793,0.00183,0.35000000000000003,-4.2,-4.0600000000000005,0.91778125,0.041375,-0.07234375,1.10821875,0.8563125,-0.47871875,-0.6460312500000001,1.04871875,0.021246771749440525,0.023277074275396773,True
24921,661,0,662,2954.0,35425.0,25993.0,0.007808,-0.000793,0.003355,0.3325,-3.325,-3.9025000000000003,0.9177500000000001,0.0459375,-0.06928125,1.10446875,0.84828125,-0.47740625000000003,-0.64953125,1.0566875,0.021380686525967186,0.02354000139454985,True
24922,662,0,663,2954.0,35425.0,25993.0,0.0030499999999999998,-0.001769,0.004392,0.28,-2.4325,-3.8150000000000004,0.92034375,0.0415,-0.07162500000000001,1.10534375,0.85490625,-0.47209375000000003,-0.64540625,1.04928125,0.020986914942657902,0.02328146852925177,True
24923,663,0,664,2956.0,35424.0,25989.0,0.000305,-0.002257,0.002623,0.35000000000000003,-1.6625,-3.8675,0.92296875,0.0441875,-0.0704375,1.10440625,0.8481562500000001,-0.47784375,-0.6465625,1.05,0.021326684463373127,0.023375470717265336,True
24924,664,0,665,2954.0,35416.0,25980.0,-0.00488,-0.003477,-0.0046359999999999995,0.4025,-1.2950000000000002,-3.8850000000000002,0.91878125,0.043812500000000004,-0.0689375,1.10271875,0.847125,-0.47775,-0.6466875,1.05259375,0.021307616100336022,0.023441283945357768,True
24925,665,0,666,2955.0,35408.0,25964.0,-0.004331,-0.00061,-0.00549,0.35000000000000003,-0.8575,-3.99,0.91878125,0.0469375,-0.0696875,1.10409375,0.84665625,-0.47790625000000003,-0.64771875,1.0557812500000001,0.02144152954258496,0.023451713964400864,True
24926,666,0,667,2952.0,35399.0,25945.0,-0.0055509999999999995,0.000488,-0.0028669999999999998,0.49000000000000005,-0.45500000000000007,-3.9200000000000004,0.921,0.04115625,-0.06959375,1.105,0.8475625,-0.47659375,-0.64615625,1.04546875,0.021152861598644622,0.023393607268881938,True
24927,667,0,668,2950.0,35391.0,25928.0,-0.010003999999999999,0.001037,0.0008539999999999999,0.5425000000000001,-0.14,-3.8325000000000005,0.921125,0.04415625,-0.06809375,1.104875,0.85253125,-0.47871875,-0.64778125,1.05325,0.02136039084970491,0.023518851215056123,True
24928,668,0,669,2948.0,35387.0,25915.0,-0.010309,0.000915,0.005856,0.49000000000000005,-0.1925,-3.7975000000000003,0.91803125,0.04328125,-0.069625,1.10478125,0.85575,-0.48096875,-0.64815625,1.0556875000000001,0.0214145937341634,0.02347158319397622,True
24929,669,0,670,2943.0,35382.0,25908.0,-0.005429,0.0023179999999999997,0.007503,0.45500000000000007,-0.7525000000000001,-3.6225000000000005,0.918625,0.04221875,-0.0749375,1.1171875,0.85375,-0.47984375,-0.64909375,1.0503125,0.021326218636505797,0.02329319916680507,True
24930,670,0,671,2938.0,35379.0,25901.0,-0.003355,-0.00061,0.004209,0.4025,-1.2425000000000002,-3.5700000000000003,0.92890625,0.043937500000000004,-0.0686875,1.1021875,0.84759375,-0.4766875,-0.6461250000000001,1.0498125,0.021270239283808317,0.023429139469186334,True
24931,671,0,672,2937.0,35380.0,25897.0,-0.000366,-0.0021349999999999997,0.001586,0.12250000000000001,-1.715,-3.43,0.9151875,0.0444375,-0.06984375,1.106,0.852625,-0.47878125,-0.6481875,1.05575,0.021374379085968585,0.023463946385510092,True
24932,672,0,673,2933.0,35374.0,25892.0,0.003294,-0.003111,-0.0023179999999999997,0.035,-2.0300000000000002,-3.5525,0.9178125,0.0388125,-0.07334375,1.11659375,0.8541875,-0.47815625,-0.638125,1.0491875,0.021119595149246585,0.022923061312498418,True
24933,673,0,674,2929.0,35375.0,25889.0,0.004148,-0.002989,-0.004392,-0.035,-2.0475000000000003,-3.6400000000000006,0.92878125,0.04184375,-0.068125,1.1026562500000001,0.84871875,-0.47665625,-0.6430625,1.0504375,0.021183449026049052,0.023330602679760278,True
24934,674,0,675,2926.0,35376.0,25887.0,0.006588,0.000183,-0.004514,0.052500000000000005,-2.1175,-3.4825000000000004,0.915125,0.04409375,-0.06959375,1.10053125,0.8478125,-0.473875,-0.6495,1.0566875,0.021164149526791323,0.023526085721819915,True
24935,675,0,676,2924.0,35375.0,25885.0,0.0071979999999999995,-0.000183,-0.0008539999999999999,0.10500000000000001,-1.7675,-3.5525,0.9169375000000001,0.04303125,-0.06978125,1.1162812500000001,0.8539375,-0.47784375,-0.64815625,1.0498750000000001,0.021279447868033718,0.023465243977427316,True
24936,676,0,677,2921.0,35375.0,25884.0,0.0048189999999999995,-6.1e-05,0.000305,0.3325,-1.2600000000000002,-3.5700000000000003,0.9285625000000001,0.04046875,-0.07084375,1.107,0.8406250000000001,-0.47703125,-0.645625,1.04971875,0.021142269857583326,0.023321837040042606,True
24937,677,0,678,2918.0,35370.0,25883.0,0.001769,0.001647,0.001403,0.31500000000000006,-0.8750000000000001,-3.6575,0.91540625,0.04575,-0.06828125,1.1014375,0.84778125,-0.47696875,-0.64875,1.05359375,0.021355534475648665,0.023549622191794718,True
24938,678,0,679,2919.0,35375.0,25885.0,0.00122,0.0034159999999999998,0.002379,0.47250000000000003,-0.6300000000000001,-3.7800000000000002,0.9194375,0.03859375,-0.07565625000000001,1.11209375,0.84415625,-0.4785625,-0.6465625,1.0498750000000001,0.021126904408704555,0.02316372719319378,True
24939,679,0,680,2915.0,35375.0,25887.0,-0.0037819999999999998,0.003965,0.000549,0.5075000000000001,-0.21000000000000002,-3.9725000000000006,0.91496875,0.04475,-0.0685625,1.102375,0.84615625,-0.4774375,-0.64809375,1.05478125,0.021333421850224313,0.023512213799495144,True
24940,680,0,681,2914.0,35378.0,25889.0,-0.0035989999999999998,0.002623,0.000244,0.5775,-0.052500000000000005,-4.0425,0.9129375000000001,0.0419375,-0.07303125,1.11253125,0.85184375,-0.47671875,-0.64746875,1.0475,0.02118977855232332,0.023306145788297226,True
24941,681,0,682,2912.0,35376.0,25887.0,-0.004026,-0.000122,-0.000549,0.43750000000000006,0.0175,-4.077500000000001,0.91790625,0.04478125,-0.06528125,1.11128125,0.8423125,-0.47584375,-0.647375,1.053375,0.02127097252776015,0.023616865893426788,True
24942,682,0,683,2912.0,35379.0,25891.0,-0.003538,-0.0006709999999999999,-0.0021349999999999997,0.2625,0.07,-4.095000000000001,0.92534375,0.04221875,-0.0690625,1.1039375,0.85009375,-0.47625,-0.64625,1.0499687500000001,0.02118252387518513,0.023418877111122383,True
24943,683,0,684,2911.0,35380.0,25896.0,-0.003477,-0.00244,-0.0017079999999999999,0.29750000000000004,0.0175,-4.095000000000001,0.9171875,0.043125000000000004,-0.0691875,1.1078125,0.847875,-0.47859375,-0.64625,1.0561562500000001,0.02131326477853737,0.02341380534564082,True
24944,684,0,685,2913.0,35383.0,25901.0,-0.000976,-0.003721,-6.1e-05,0.28,-0.22750000000000004,-4.0425,0.92321875,0.04103125,-0.06959375,1.1049375000000001,0.8474375000000001,-0.47434375,-0.64646875,1.0494375,0.02105776584918646,0.023405989955457614,True
24945,685,0,686,2913.0,35384.0,25903.0,0.000549,-0.001769,-0.000122,0.22750000000000004,-0.35000000000000003,-4.025,0.91771875,0.04259375,-0.07062500000000001,1.1067500000000001,0.8554375000000001,-0.47690625000000003,-0.6458125,1.047625,0.021224087500845826,0.02333814314297814,True
24946,686,0,687,2913.0,35385.0,25906.0,-0.0006709999999999999,-0.0008539999999999999,0.002745,0.36750000000000005,-0.385,-4.0600000000000005,0.9175625000000001,0.0443125,-0.07162500000000001,1.1105625000000001,0.851125,-0.483,-0.647,1.049625,0.021537903851652166,0.023344626120826065,True
24947,687,0,688,2913.0,35388.0,25910.0,-0.000732,-0.00061,0.002074,0.49000000000000005,-0.3325,-3.9200000000000004,0.91878125,0.04478125,-0.06528125,1.104,0.83534375,-0.47946875,-0.65628125,1.04934375,0.021415905931373613,0.023969551369389903,True
24948,688,0,689,2915.0,35391.0,25911.0,-0.003904,0.001647,0.001647,0.525,-0.5075000000000001,-3.99,0.9186562500000001,0.0413125,-0.07046875,1.11159375,0.84028125,-0.46900000000000003,-0.64109375,1.04384375,0.02085547018676693,0.023157454201885825,True
24949,689,0,690,2914.0,35391.0,25914.0,-0.002806,0.001769,-0.000488,0.45500000000000007,-1.225,-3.8850000000000002,0.9243125,0.04446875,-0.069125,1.1050625,0.840875,-0.48015625,-0.65646875,1.06896875,0.021430623017367385,0.02382108143527244,True
24950,690,0,691,2914.0,35392.0,25913.0,-0.000366,0.001037,0.000793,0.4025,-1.5575,-3.8850000000000002,0.91934375,0.04190625,-0.0713125,1.10725,0.84728125,-0.47259375000000003,-0.64115625,1.05278125,0.0210235173784961,0.023125690378267047,True
24951,691,0,692,2916.0,35391.0,25914.0,0.000122,-0.000183,0.0,0.35000000000000003,-1.8550000000000002,-3.8850000000000002,0.91778125,0.04446875,-0.06896875,1.1048437500000001,0.862,-0.48815625,-0.6528125,1.06971875,0.021750310417918868,0.02368264270050324,True
24952,692,0,693,2916.0,35394.0,25917.0,0.00042699999999999997,0.0,0.000305,0.28,-2.0300000000000002,-3.9025000000000003,0.9181875,0.043812500000000004,-0.0720625,1.10271875,0.85590625,-0.4738125,-0.6401875,1.038875,0.021150157949440855,0.023056845651032484,True
24953,693,0,694,2916.0,35394.0,25917.0,0.0013419999999999999,-0.001464,6.1e-05,0.29750000000000004,-2.31,-3.8500000000000005,0.9110312500000001,0.047218750000000004,-0.06878125,1.104625,0.84784375,-0.4834375,-0.6568125,1.069375,0.021674090903289214,0.02384863209711312,True
24954,694,0,695,2917.0,35393.0,25918.0,0.0026839999999999998,0.001037,-0.002806,0.29750000000000004,-2.7825,-3.8675,0.91878125,0.04478125,-0.07134375,1.11175,0.85965625,-0.468125,-0.64134375,1.0253125,0.02096222125724795,0.023131855380248895,True
24955,695,0,696,2917.0,35396.0,25918.0,0.0032329999999999998,0.00042699999999999997,-0.002196,0.45500000000000007,-2.9925,-3.9025000000000003,0.92559375,0.04228125,-0.06965625,1.10534375,0.83890625,-0.4754375,-0.6491875,1.07565625,0.02115258409578991,0.02351117050004184,True
24956,696,0,697,2918.0,35394.0,25917.0,0.003477,0.0006709999999999999,0.000122,0.35000000000000003,-3.1675000000000004,-3.8150000000000004,0.917875,0.04390625,-0.06971875,1.10803125,0.87065625,-0.485875,-0.6435625,1.0542500000000001,0.02163619842051795,0.023285746531168126,True
24957,697,0,698,2918.0,35397.0,25919.0,0.002928,-0.000549,0.00122,0.29750000000000004,-3.2550000000000003,-3.8675,0.92725,0.04271875,-0.07150000000000001,1.108,0.8278125000000001,-0.4728125,-0.64128125,1.0426875,0.021065468057666032,0.023123036672453873,True
24958,698,0,699,2919.0,35397.0,25920.0,0.002562,-0.0006709999999999999,0.002013,0.36750000000000005,-3.1500000000000004,-3.7975000000000003,0.91809375,0.04390625,-0.06865625,1.10421875,0.84828125,-0.4835625,-0.6482187500000001,1.05740625,0.02154379085968392,0.02351336240068058,True
24959,699,0,700,2919.0,35396.0,25923.0,-0.00061,0.000366,6.1e-05,0.4025,-3.1325000000000003,-4.0075,0.9189375000000001,0.04071875,-0.07128125,1.1119375,0.8448125,-0.47434375,-0.6424375,1.0459687500000001,0.021044997376078775,0.023177749766028627,True
24960,700,0,701,2920.0,35396.0,25922.0,-0.001769,0.00122,-0.000183,0.49000000000000005,-3.2900000000000005,-4.077500000000001,0.92215625,0.0415625,-0.07146875,1.10971875,0.84778125,-0.47690625000000003,-0.64409375,1.048875,0.0211819559508261,0.02323579052283065,True
24961,701,0,702,2922.0,35399.0,25923.0,-0.000244,0.0018909999999999999,-0.000305,0.4025,-3.4650000000000003,-4.112500000000001,0.92315625,0.04453125,-0.0690625,1.1046562500000001,0.8482500000000001,-0.47621875,-0.64646875,1.04959375,0.021275753633309885,0.023427544767442597,True
24962,702,0,703,2924.0,35399.0,25925.0,-0.000976,0.000732,-0.001464,0.4025,-3.6050000000000004,-4.0075,0.9176562500000001,0.04478125,-0.069375,1.1045625000000001,0.8493437500000001,-0.47650000000000003,-0.646,1.049125,0.021297213653912937,0.02339629148746247,True
24963,703,0,704,2922.0,35401.0,25926.0,0.00122,0.0011589999999999999,0.000244,0.4025,-3.5525,-3.99,0.91821875,0.04471875,-0.06915625,1.093,0.84884375,-0.4760625,-0.6458125,1.04059375,0.021277166210864184,0.023397737445255657,True
24964,704,0,705,2926.0,35401.0,25928.0,0.003721,-0.002745,0.000976,0.29750000000000004,-3.325,-3.8500000000000005,0.9178437500000001,0.0440625,-0.06925,1.10896875,0.8520625000000001,-0.479625,-0.6411875,1.05534375,0.021392790943488716,0.023210630575332458,True
24965,705,0,706,2926.0,35401.0,25928.0,0.004148,-0.0034159999999999998,0.0011589999999999999,0.21000000000000002,-2.975,-3.7450000000000006,0.92353125,0.0424375,-0.07025,1.10784375,0.853375,-0.47828125,-0.6481875,1.0494375,0.021272684331135383,0.02344746444337946,True
