frame_seq,absolute_seq_u64,segment_id,sample_seq,PPG_G,PPG_R,PPG_IR,ACC_X,ACC_Y,ACC_Z,GYRO_X,GYRO_Y,GYRO_Z,Uh1,Uh2,Uh3,Uh4,Uc1,Uc2,Uc3,Uc4,UD1,UD2,parser_valid
11301,52577,0,52578,2836.0,35212.0,26559.0,-0.0025009999999999998,-0.004209,0.0032329999999999998,-0.15750000000000003,-0.56,-4.2,0.9269375,0.0013437500000000001,-0.43293750000000003,1.0058125,0.88334375,-0.43534375000000003,-1.06421875,0.9598125000000001,0.017871142082869204,0.02518655204443586,True
11302,52578,0,52579,2837.0,35216.0,26563.0,-0.003111,-0.001464,0.0011589999999999999,0.052500000000000005,-0.6825000000000001,-4.1475,0.92290625,-0.006500000000000001,-0.4415,1.0229375,0.8884375,-0.442,-1.06815625,0.96921875,0.01781769085999509,0.024998098932784492,True
11303,52579,0,52580,2838.0,35215.0,26566.0,0.0,0.004331,-0.0015249999999999999,0.2625,-1.5575,-4.2,0.95203125,-0.01715625,-0.43809375,1.005125,0.8864375,-0.4386875,-1.0650625,0.9607187500000001,0.017248522450315714,0.025013651970746138,True
11304,52580,0,52581,2840.0,35218.0,26570.0,0.0040869999999999995,0.004392,-0.004392,0.22750000000000004,-2.1700000000000004,-4.2525,0.9130625,-0.0086875,-0.4466875,1.02975,0.88465625,-0.43803125,-1.068375,0.96578125,0.017568671780792487,0.024799672894633182,True
11305,52581,0,52582,2842.0,35217.0,26567.0,0.0057339999999999995,0.0035989999999999998,-0.0060999999999999995,0.28,-2.6075000000000004,-4.235,0.93571875,-0.0001875,-0.433,1.00925,0.88590625,-0.43571875,-1.06446875,0.96615625,0.017823549798386837,0.02519378153586439,True
11306,52582,0,52583,2842.0,35214.0,26566.0,0.005063,0.003172,-0.0046359999999999995,0.43750000000000006,-3.0100000000000002,-4.235,0.9266875,-0.00409375,-0.436625,1.0124375,0.89346875,-0.43853125,-1.0675937500000001,0.96715625,0.017776743436658044,0.025170694734112646,True
11307,52583,0,52584,2842.0,35213.0,26560.0,0.002928,-0.000244,-0.0018909999999999999,0.42000000000000004,-3.1850000000000005,-4.0600000000000005,0.9240625,-0.0036875000000000002,-0.43765625,1.00846875,0.89459375,-0.43928125,-1.067625,0.9680625,0.017823509028114318,0.025130771263731606,True
11308,52584,0,52585,2846.0,35213.0,26558.0,-0.003111,-0.002623,0.001403,0.5775,-3.2375000000000003,-3.7275000000000005,0.9289375,-0.00503125,-0.436625,1.0127187500000001,0.892375,-0.4338125,-1.068375,0.96121875,0.017548683816739612,0.02520107505971169,True
11309,52585,0,52586,2846.0,35212.0,26552.0,-0.005307,-0.004758,0.0048189999999999995,0.665,-3.1500000000000004,-3.4650000000000003,0.9364687500000001,-0.00490625,-0.44034375000000003,1.02171875,0.8859375,-0.43603125,-1.06471875,0.96165625,0.017643004119173404,0.024910512909704998,True
11310,52586,0,52587,2846.0,35211.0,26546.0,-0.002257,-0.004392,0.006039,0.7000000000000001,-3.3425000000000002,-3.3425000000000002,0.9339375,-0.00259375,-0.43225,1.01034375,0.8860625,-0.43725,-1.06571875,0.95896875,0.017786626973165968,0.02527231540088991,True
11311,52587,0,52588,2845.0,35208.0,26537.0,0.000915,0.000488,0.006161,0.8575,-3.3600000000000003,-3.3075,0.9304687500000001,-0.00340625,-0.438,1.0174375,0.88809375,-0.4403125,-1.067,0.9700625,0.01787645923103479,0.025092751426177843,True
11312,52588,0,52589,2846.0,35203.0,26527.0,0.00366,0.0030499999999999998,0.0055509999999999995,0.8750000000000001,-3.1325000000000003,-3.3600000000000003,0.9372812500000001,-0.00671875,-0.43878125,1.02284375,0.887125,-0.4285,-1.06496875,0.95803125,0.01726594960803979,0.024982576529244627,True
11313,52589,0,52590,2844.0,35196.0,26515.0,0.012017,0.002745,-0.003477,0.42000000000000004,-2.9575000000000005,-3.7450000000000006,0.93759375,-0.0044375000000000005,-0.43803125,1.01634375,0.885,-0.43621875,-1.06478125,0.9615,0.017669724371738162,0.025005205261865195,True
11314,52590,0,52591,2842.0,35192.0,26501.0,0.008235,0.003355,-0.009577,0.2625,-2.5375,-4.112500000000001,0.9306562500000001,-0.00075,-0.43946875,1.02278125,0.8890625,-0.4405,-1.06484375,0.9617187500000001,0.01799267609091467,0.024950285197768287,True
11315,52591,0,52592,2841.0,35187.0,26492.0,0.0055509999999999995,0.005612,-0.009821,0.0175,-1.8900000000000001,-4.3925,0.9316875,-0.00290625,-0.4375625,1.01725,0.8851875,-0.436375,-1.066,0.9674375000000001,0.017738668276288932,0.025071311737014282,True
11316,52592,0,52593,2839.0,35184.0,26486.0,0.002989,0.004575,-0.009271999999999999,0.0175,-1.155,-4.4625,0.930625,-0.0035625,-0.4390625,1.02153125,0.894,-0.43884375000000003,-1.0680625,0.961375,0.017811041080861283,0.025091687879747384,True
11317,52593,0,52594,2837.0,35184.0,26485.0,-0.006222,0.003294,-0.005429,0.14,-0.35000000000000003,-4.2875000000000005,0.9378125,-0.00334375,-0.4353125,1.0167187500000001,0.88621875,-0.43609375,-1.0656875000000001,0.9667187500000001,0.017709458984212646,0.025148921209521988,True
11318,52594,0,52595,2834.0,35183.0,26484.0,-0.014945,-0.006527,0.0044529999999999995,0.07,0.24500000000000002,-4.025,0.93121875,-0.00409375,-0.4380625,1.0180625,0.8956875,-0.43565625,-1.06565625,0.96434375,0.01766117904036238,0.025037993968340642,True
11319,52595,0,52596,2834.0,35184.0,26485.0,-0.012749,-0.008539999999999999,0.007686,0.035,-0.10500000000000001,-3.8850000000000002,0.9400625,-0.00609375,-0.43903125,1.019875,0.8766875000000001,-0.4366875,-1.06509375,0.95334375,0.01762079046106392,0.02497746492569971,True
11320,52596,0,52597,2833.0,35189.0,26488.0,-0.012139,-0.0060999999999999995,0.008418,0.17500000000000002,-0.5425000000000001,-3.7625,0.93915625,-0.00521875,-0.43062500000000004,1.0130625,0.8863125000000001,-0.4363125,-1.06503125,0.9615312500000001,0.017641522222307478,0.02531041129262506,True
11321,52597,0,52598,2833.0,35192.0,26492.0,-0.009943,-0.00549,0.010614,0.31500000000000006,-1.3125000000000002,-3.7800000000000002,0.93303125,-0.00415625,-0.43778125,1.01675,0.88628125,-0.43484375000000003,-1.06146875,0.9675625,0.017625956785584113,0.02488631078336141,True
11322,52598,0,52599,2834.0,35194.0,26495.0,-0.0048189999999999995,-0.0046359999999999995,0.010126,0.22750000000000004,-2.1350000000000002,-3.5875000000000004,0.9303125,-0.0040625,-0.439,1.02228125,0.8941875,-0.438125,-1.0678750000000001,0.958875,0.01776169407432035,0.02508688909610408,True
11323,52599,0,52600,2833.0,35193.0,26500.0,0.001464,-0.0013419999999999999,0.004514,-0.0175,-3.9725000000000006,-3.7975000000000003,0.9366875,-0.00678125,-0.43259375,1.017375,0.88490625,-0.4366875,-1.0648125,0.9615,0.017592656533337424,0.02522335844323591,True
11324,52600,0,52601,2831.0,35197.0,26505.0,0.0073809999999999995,0.0008539999999999999,-0.0011589999999999999,-0.052500000000000005,-4.9175,-3.8675,0.93125,-0.00328125,-0.4383125,1.0166875,0.8903125000000001,-0.43740625,-1.0670625,0.9637187500000001,0.017764774033659975,0.025082715615361795,True
11325,52601,0,52602,2833.0,35199.0,26509.0,0.013908,0.00366,-0.008173999999999999,-0.08750000000000001,-5.652500000000001,-4.0075,0.93109375,-0.00428125,-0.43596875,1.00825,0.88696875,-0.437125,-1.06828125,0.9678125000000001,0.01771254801863967,0.025223608020593757,True
11326,52602,0,52603,2833.0,35200.0,26515.0,0.014701,0.004575,-0.011101999999999999,-0.14,-5.880000000000001,-4.0075,0.93134375,-0.00375,-0.43928125,1.01084375,0.88015625,-0.43884375000000003,-1.0671875,0.96696875,0.017803368868463756,0.025048930997943024,True
11327,52603,0,52604,2835.0,35201.0,26516.0,0.015311,0.006527,-0.011529,-0.10500000000000001,-5.827500000000001,-4.112500000000001,0.93125,-0.0040625,-0.4390625,1.02196875,0.8923125000000001,-0.43703125,-1.06615625,0.96328125,0.017717731158526057,0.025017547315416576,True
11328,52604,0,52605,2833.0,35203.0,26520.0,0.007991,0.0042699999999999995,-0.009394,0.0175,-4.4625,-4.0600000000000005,0.928875,-0.00678125,-0.44059375,1.02065625,0.880625,-0.43684375000000003,-1.06575,0.961125,0.017598938078899815,0.024940656074524,True
11329,52605,0,52606,2835.0,35204.0,26523.0,0.002745,0.000976,-0.0055509999999999995,0.0175,-3.7975000000000003,-4.1825,0.93440625,-0.00359375,-0.43725,1.01865625,0.88665625,-0.43671875,-1.0619375,0.95440625,0.01772435180152818,0.024925746463137576,True
11330,52606,0,52607,2835.0,35204.0,26528.0,0.0018909999999999999,-0.002989,-0.0015249999999999999,0.0175,-3.3075,-4.112500000000001,0.9264687500000001,-0.0038125,-0.43821875,1.0160625,0.886125,-0.43665625,-1.06640625,0.960375,0.017712887785128133,0.025060931899641578,True
11331,52607,0,52608,2836.0,35205.0,26532.0,0.000305,-0.004026,0.002074,0.07,-2.87,-3.99,0.93078125,-0.003375,-0.43743750000000003,1.01684375,0.88646875,-0.43690625,-1.0659375,0.95878125,0.017740840250594324,0.025073867674009796,True
11332,52608,0,52609,2837.0,35206.0,26535.0,-0.0015249999999999999,-0.0046359999999999995,0.007503,0.1925,-2.3625000000000003,-3.8500000000000005,0.9315625000000001,-0.00090625,-0.438625,1.0164375,0.887,-0.436625,-1.07109375,0.9774375000000001,0.01783056170809185,0.02522701068835499,True
11333,52609,0,52610,2840.0,35211.0,26537.0,-0.0066489999999999995,-0.000488,0.006588,0.49000000000000005,-1.1375000000000002,-3.8150000000000004,0.9315625000000001,0.00153125,-0.43878125,1.01728125,0.90646875,-0.43978125,-1.06259375,0.9500625,0.018057137888662568,0.02489018120879847,True
11334,52610,0,52611,2840.0,35212.0,26541.0,-0.008113,-0.000183,0.002989,0.6300000000000001,-0.9625000000000001,-3.8325000000000005,0.9312812500000001,-0.00634375,-0.44184375000000004,1.02415625,0.87928125,-0.434375,-1.06303125,0.946125,0.017517585368973018,0.024785010791541825,True
11335,52611,0,52612,2840.0,35213.0,26543.0,-0.008296,0.001647,6.1e-05,0.525,-0.8575,-3.99,0.9350937500000001,-0.00315625,-0.43809375,1.0168125000000001,0.8835000000000001,-0.4378125,-1.06828125,0.97721875,0.017786217567550285,0.025138839544494106,True
11336,52612,0,52613,2843.0,35214.0,26543.0,-0.004575,0.0034159999999999998,-0.002623,0.56,-0.9975,-4.112500000000001,0.9306875,-0.004125,-0.43578125,1.01678125,0.902625,-0.436375,-1.06553125,0.9668125000000001,0.01768879385751774,0.025124143339271935,True
11337,52613,0,52614,2843.0,35214.0,26544.0,-0.00488,0.00183,0.000732,0.56,-1.0675000000000001,-4.025,0.9386875,-0.0078125,-0.44146875,1.0226875,0.879625,-0.434125,-1.06284375,0.95546875,0.01744742240616351,0.024792677407167733,True
11338,52614,0,52615,2845.0,35215.0,26548.0,-0.00671,-0.000122,0.002013,0.5425000000000001,-1.2425000000000002,-3.7625,0.9356875,0.0,-0.43875000000000003,1.02365625,0.87175,-0.43693750000000003,-1.06446875,0.95625,0.017880206961285557,0.02496437312280956,True
11339,52615,0,52616,2844.0,35214.0,26550.0,-0.004758,0.000122,0.0032329999999999998,0.56,-1.8375000000000001,-3.8150000000000004,0.9389375,-0.0064062500000000005,-0.442125,1.0140625,0.87971875,-0.434625,-1.06484375,0.9580625,0.017525079676892933,0.024844310070753984,True
11340,52616,0,52617,2845.0,35219.0,26551.0,0.000244,-0.001586,0.003538,0.525,-2.4325,-3.6575,0.9384375,-0.0038125,-0.4393125,1.01625,0.8804375,-0.43534375000000003,-1.066625,0.96740625,0.017660126021349712,0.025025806226406627,True
11341,52617,0,52618,2845.0,35217.0,26552.0,0.004514,-0.000366,0.0013419999999999999,0.49000000000000005,-2.8525000000000005,-3.5700000000000003,0.93115625,-0.00390625,-0.43790625,1.0166250000000001,0.90228125,-0.4395,-1.0705,0.97871875,0.017823349495693447,0.025232594084681204,True
11342,52618,0,52619,2847.0,35219.0,26555.0,0.0066489999999999995,-0.000305,-0.00122,0.525,-2.87,-3.5700000000000003,0.93075,-0.0031875000000000002,-0.438,1.01684375,0.88596875,-0.4404375,-1.06609375,0.97075,0.01789043260784509,0.025057504223209893,True
11343,52619,0,52620,2849.0,35218.0,26557.0,0.00488,-0.000305,-0.001586,0.36750000000000005,-2.7475,-3.6050000000000004,0.93025,-0.00315625,-0.4388125,1.01703125,0.89415625,-0.43809375,-1.0645625,0.96578125,0.017797521543594208,0.024965526527742105,True
11344,52620,0,52621,2849.0,35220.0,26558.0,0.00488,-0.000793,-0.0035989999999999998,0.24500000000000002,-2.6250000000000004,-3.6925000000000003,0.930125,-0.00484375,-0.4395625,1.01278125,0.8915000000000001,-0.42746875,-1.06525,0.965,0.017301219554318334,0.024962348271012656,True
11345,52621,0,52622,2850.0,35220.0,26561.0,0.004026,0.000793,-0.00671,0.2625,-2.555,-3.8150000000000004,0.932125,-0.00590625,-0.44096875,1.01325,0.89075,-0.43871875,-1.06515625,0.96103125,0.017710114201465656,0.02490259760499199,True
11346,52622,0,52623,2850.0,35222.0,26563.0,0.004209,-0.000183,-0.0073809999999999995,0.28,-2.3975000000000004,-3.7800000000000002,0.9365,-0.002625,-0.4414375,1.01740625,0.88553125,-0.43596875,-1.06015625,0.9619375,0.01773384777307018,0.024689341272562896,True
11347,52623,0,52624,2851.0,35225.0,26566.0,0.00061,-0.0044529999999999995,-0.0011589999999999999,0.29750000000000004,-1.8200000000000003,-3.8150000000000004,0.93271875,-0.0035,-0.43765625,1.01653125,0.88509375,-0.4363125,-1.06925,0.96909375,0.01771185812098286,0.025193962723256576,True
11348,52624,0,52625,2853.0,35228.0,26571.0,-0.001403,-0.004148,0.002928,0.45500000000000007,-1.2950000000000002,-3.7450000000000006,0.93178125,-0.006625,-0.4416875,1.014,0.89196875,-0.43796875,-1.06403125,0.9657187500000001,0.01765055657500176,0.024830153768660018,True
11349,52625,0,52626,2854.0,35225.0,26574.0,-0.002745,-0.003477,0.00366,0.5950000000000001,-0.7350000000000001,-3.7625,0.93021875,-0.0040625,-0.44034375000000003,1.0175,0.88834375,-0.43890625,-1.06525,0.96603125,0.017793093747802236,0.0249311796211887,True
11350,52626,0,52627,2855.0,35229.0,26576.0,-0.005673,0.000305,0.003538,0.77,-0.5775,-3.8325000000000005,0.9355,-0.00290625,-0.44021875,1.02334375,0.89028125,-0.4335625,-1.0600625000000001,0.96246875,0.017625602079107374,0.024734325782308008,True
11351,52627,0,52628,2858.0,35229.0,26579.0,-0.007808,0.004331,0.003172,1.1375000000000002,-0.49000000000000005,-3.7975000000000003,0.936,-0.0061875,-0.44059375,1.02403125,0.88696875,-0.43590625,-1.0651875,0.962,0.017585545860407777,0.024918774296023117,True
11352,52628,0,52629,2858.0,35230.0,26584.0,0.001464,0.006893,0.001586,1.2775,-0.6300000000000001,-3.4650000000000003,0.93653125,-0.0065625,-0.4391875,1.02103125,0.8798125,-0.43643750000000003,-1.06528125,0.96184375,0.017591557689208993,0.024978524827045375,True
11353,52629,0,52630,2860.0,35232.0,26584.0,-0.001952,0.009455,0.001464,1.3125000000000002,-0.6475000000000001,-3.3075,0.931,-0.00346875,-0.43834375000000003,1.017125,0.886625,-0.43343750000000003,-1.0689375,0.96990625,0.01759755458068477,0.025154386778458403,True
11354,52630,0,52631,2863.0,35231.0,26587.0,-0.002257,0.007686,0.0066489999999999995,1.2600000000000002,-0.6825000000000001,-3.22,0.93071875,-0.0035,-0.4395,1.0169062500000001,0.8949375,-0.4378125,-1.06909375,0.9705312500000001,0.01777215125126277,0.02511434024215574,True
11355,52631,0,52632,2863.0,35235.0,26589.0,0.0032329999999999998,0.00061,0.002013,0.9100000000000001,-0.9450000000000001,-3.1850000000000005,0.924125,-0.0081875,-0.4433125,1.02484375,0.89178125,-0.43625,-1.06565625,0.9615312500000001,0.017517520077753337,0.024828544036224864,True
11356,52632,0,52633,2865.0,35234.0,26589.0,0.004758,-0.002196,-0.000793,0.6125,-1.155,-3.1850000000000005,0.94178125,-0.0090625,-0.44315625000000003,1.02803125,0.88846875,-0.43659375,-1.06659375,0.966125,0.01749553372183879,0.024871249209917082,True
11357,52633,0,52634,2865.0,35237.0,26596.0,0.001037,-0.002074,-0.0035989999999999998,0.43750000000000006,-0.77,-3.5175000000000005,0.94203125,-0.00725,-0.44225000000000003,1.02446875,0.886125,-0.4358125,-1.06515625,0.960375,0.01753829548331982,0.024851480828091785,True
11358,52634,0,52635,2867.0,35238.0,26599.0,0.0017079999999999999,-0.0023179999999999997,-0.001769,0.45500000000000007,-0.43750000000000006,-3.5175000000000005,0.9419375,-0.0068125,-0.43709375,1.008625,0.88653125,-0.43615625,-1.064875,0.9590625,0.017570019834850254,0.02504625496835711,True
11359,52635,0,52636,2869.0,35240.0,26601.0,-0.0008539999999999999,0.001647,-0.002989,0.47250000000000003,-0.24500000000000002,-3.6050000000000004,0.9274375,-0.0028125,-0.43778125,1.01428125,0.8869375,-0.435625,-1.0663125,0.96128125,0.017712356446786197,0.025074739254128425,True
11360,52636,0,52637,2871.0,35241.0,26604.0,-0.005856,0.005246,-0.0021349999999999997,0.5075000000000001,0.052500000000000005,-3.7100000000000004,0.9277500000000001,-0.0025625,-0.43740625,1.024375,0.88815625,-0.43540625,-1.06609375,0.9620625,0.017713793892827134,0.025081191599708275,True
11361,52637,0,52638,2871.0,35244.0,26610.0,-0.008905999999999999,0.001586,-0.000549,0.28,0.0175,-3.7450000000000006,0.9379375,-0.0073437500000000005,-0.44109375,1.0245312500000001,0.8855000000000001,-0.436125,-1.0658750000000001,0.9623125,0.017547023106159427,0.024925571120098546,True
11362,52638,0,52639,2873.0,35247.0,26611.0,-0.009943,-0.005063,0.001037,-0.035,-1.0150000000000001,-3.6925000000000003,0.9425625,-0.0081875,-0.43509375,1.02946875,0.886125,-0.43528125,-1.06046875,0.9616250000000001,0.017478569026088048,0.024954640962172748,True
11363,52639,0,52640,2874.0,35245.0,26614.0,-0.007686,-0.004758,0.0032329999999999998,-0.0175,-1.6800000000000002,-3.7100000000000004,0.9371875000000001,-0.00509375,-0.4393125,1.01403125,0.89009375,-0.43596875,-1.06771875,0.96546875,0.0176328184246839,0.025068346117454347,True
11364,52640,0,52641,2875.0,35246.0,26615.0,-0.002257,-0.005124,0.005673,0.0,-2.5900000000000003,-3.6750000000000003,0.9281875,-0.00140625,-0.43596875,1.013875,0.8914062500000001,-0.43840625,-1.06840625,0.96590625,0.017881689809457195,0.025228468602785627,True
11365,52641,0,52642,2876.0,35245.0,26608.0,0.003477,-0.00793,0.005978,-0.10500000000000001,-3.3950000000000005,-3.5700000000000003,0.928875,-0.002375,-0.4375,1.02565625,0.8864062500000001,-0.43559375,-1.0656875000000001,0.9614375000000001,0.017729004436407445,0.02506165051327637,True
11366,52642,0,52643,2877.0,35245.0,26605.0,0.00793,-0.0060999999999999995,0.006527,-0.08750000000000001,-3.8150000000000004,-3.6575,0.94140625,-0.00478125,-0.4325625,1.00765625,0.88525,-0.43793750000000004,-1.0675937500000001,0.96278125,0.01772474661578949,0.025332756559452385,True
11367,52643,0,52644,2878.0,35243.0,26600.0,0.01647,0.0011589999999999999,-0.004209,-0.10500000000000001,-4.340000000000001,-4.095000000000001,0.93240625,-0.00459375,-0.433375,1.02234375,0.88596875,-0.43578125,-1.06540625,0.9610625,0.017645742347607567,0.025215280522333447,True
11368,52644,0,52645,2879.0,35237.0,26591.0,0.012139,0.007442,-0.008418,0.07,-3.7275000000000005,-4.340000000000001,0.93359375,-0.00496875,-0.43796875,1.01675,0.88390625,-0.437375,-1.0673125,0.9658125000000001,0.01769446391030133,0.025106151686583877,True
11369,52645,0,52646,2877.0,35233.0,26584.0,0.006588,0.010126,-0.010065,0.14,-2.9925,-4.4625,0.93040625,-0.0035,-0.43925000000000003,1.01125,0.89046875,-0.4370625,-1.06765625,0.96765625,0.017742005611353657,0.025068408619174358,True
11370,52646,0,52647,2877.0,35231.0,26575.0,0.003965,0.009455,-0.010858,0.12250000000000001,-2.4325,-4.655,0.930875,-0.0027187500000000002,-0.43884375000000003,1.01659375,0.89284375,-0.43903125,-1.06575,0.97403125,0.01785310127626274,0.025010472457436938,True
11371,52647,0,52648,2874.0,35226.0,26566.0,0.001586,0.0060999999999999995,-0.008784,0.08750000000000001,-1.8025000000000002,-4.445,0.93075,-0.0039375,-0.43884375000000003,1.0165,0.902375,-0.44078125,-1.0694062500000001,0.95934375,0.017873559176836872,0.025152669900189602,True
11372,52648,0,52649,2877.0,35220.0,26555.0,-0.001769,-0.002257,-0.000488,0.08750000000000001,-0.45500000000000007,-4.0600000000000005,0.92125,-0.007875,-0.44159375,1.023625,0.88815625,-0.4328125,-1.06421875,0.95765625,0.01739208288034789,0.02484118919525469,True
11373,52649,0,52650,2873.0,35215.0,26545.0,-0.0064659999999999995,-0.008113,0.003355,0.10500000000000001,0.2625,-3.9200000000000004,0.93725,-0.0074062500000000005,-0.4403125,1.02234375,0.8710625000000001,-0.42765625,-1.06221875,0.95021875,0.017203860890256308,0.024814492930718673,True
11374,52650,0,52651,2873.0,35213.0,26536.0,-0.010919,-0.011224,0.0068319999999999995,-0.10500000000000001,0.6475000000000001,-3.9200000000000004,0.93084375,-0.0037187500000000003,-0.43834375000000003,1.0169375,0.872375,-0.43221875,-1.0579687500000001,0.9691875,0.017538317104335847,0.024727662732040086,True
11375,52651,0,52652,2871.0,35212.0,26536.0,-0.007991,-0.010248,0.008418,0.0175,0.6475000000000001,-3.99,0.93040625,-0.0033125,-0.43815625,1.0173125,0.8949375,-0.43853125,-1.074125,0.9853437500000001,0.01780871139708938,0.025363547082899205,True
11376,52652,0,52653,2870.0,35211.0,26533.0,-0.0046359999999999995,-0.005856,0.008296,0.14,0.4025,-3.99,0.93115625,-0.003125,-0.437125,1.01446875,0.90271875,-0.44490625,-1.07090625,0.9755,0.018072527891163422,0.025279550873834086,True
11377,52653,0,52654,2867.0,35209.0,26530.0,-0.0077469999999999995,0.0053679999999999995,0.004697,0.6825000000000001,-0.07,-4.2,0.92590625,-0.0008125000000000001,-0.43793750000000004,1.0170625,0.89384375,-0.4398125,-1.06934375,0.9791562500000001,0.017962494597697918,0.025186389252810016,True
11378,52654,0,52655,2867.0,35207.0,26532.0,-0.008052,0.0077469999999999995,0.00042699999999999997,0.7175,-0.42000000000000004,-4.1825,0.9314375,-0.00278125,-0.43746875,1.0199375,0.9053125,-0.43953125,-1.0695000000000001,0.9683125,0.017870637351115316,0.025211162966951875,True
11379,52655,0,52656,2865.0,35212.0,26535.0,-0.0057339999999999995,0.005795,-0.003172,0.6475000000000001,-1.225,-4.077500000000001,0.9360625,-0.0048125,-0.44034375000000003,1.02434375,0.8931250000000001,-0.43665625,-1.0678750000000001,0.9543125,0.017671965656103218,0.025033284632223516,True
11380,52656,0,52657,2866.0,35215.0,26539.0,-0.0040869999999999995,0.004331,-0.002379,0.5950000000000001,-1.8725000000000003,-3.8325000000000005,0.9303750000000001,-0.0033125,-0.4363125,1.02265625,0.8728750000000001,-0.4289375,-1.0605,0.946125,0.017422984523989226,0.024907224516669657,True
11381,52657,0,52658,2865.0,35215.0,26542.0,0.00042699999999999997,0.002013,-0.002745,0.6125,-2.4850000000000003,-3.6400000000000006,0.93784375,-0.0074375000000000005,-0.4416875,1.02321875,0.8719687500000001,-0.43190625,-1.05953125,0.95078125,0.017373542025604326,0.02465504018555814,True
11382,52658,0,52659,2866.0,35218.0,26546.0,0.0073809999999999995,-0.004026,-0.0017079999999999999,0.6475000000000001,-3.5700000000000003,-3.1500000000000004,0.9380937500000001,-0.00753125,-0.43915625,1.02159375,0.8658750000000001,-0.4315625,-1.05915625,0.94984375,0.017355879305713667,0.024741455530850123,True
11383,52659,0,52660,2865.0,35218.0,26549.0,0.011467999999999999,-0.0018909999999999999,-0.000549,0.7000000000000001,-3.9725000000000006,-3.1850000000000005,0.93725,-0.0068125,-0.441625,1.023875,0.8735625,-0.43259375,-1.06103125,0.950125,0.017426772382690643,0.024715912279148537,True
11384,52660,0,52661,2867.0,35220.0,26554.0,0.012871,-0.000732,-0.001281,0.7350000000000001,-4.1475,-3.3075,0.938625,-0.00671875,-0.43993750000000004,1.02359375,0.8728750000000001,-0.43309375,-1.0618125,0.9551875,0.017450716817226635,0.024813648254690276,True
11385,52661,0,52662,2867.0,35220.0,26557.0,0.011651,0.000488,-0.00042699999999999997,0.7350000000000001,-3.9025000000000003,-3.3425000000000002,0.92434375,-0.004625,-0.44165625000000003,1.01646875,0.880125,-0.43503125000000004,-1.06290625,0.9619062500000001,0.017614311420207415,0.02478762813071608,True
11386,52662,0,52663,2867.0,35223.0,26561.0,0.008845,0.0011589999999999999,0.000244,0.665,-3.4825000000000004,-3.3950000000000005,0.9390000000000001,-0.0063750000000000005,-0.4406875,1.021875,0.88734375,-0.4358125,-1.06509375,0.96175,0.01757410358260033,0.02491138697616082,True
11387,52663,0,52664,2867.0,35222.0,26564.0,0.004392,0.0034159999999999998,-0.002379,0.805,-2.1175,-3.3425000000000002,0.93640625,-0.00584375,-0.44,1.017125,0.88525,-0.43565625,-1.06521875,0.96240625,0.017589562383862722,0.02494367817954911,True
11388,52664,0,52665,2868.0,35224.0,26565.0,-0.001647,0.003721,-0.0051849999999999995,0.8750000000000001,-1.2950000000000002,-3.3950000000000005,0.9308125,-0.0031875000000000002,-0.43871875,1.01859375,0.88696875,-0.43678125,-1.064125,0.96725,0.017743488619230488,0.024952247485200457,True
11389,52665,0,52666,2870.0,35227.0,26566.0,-0.002806,0.003355,-0.0050019999999999995,0.8400000000000001,-0.5425000000000001,-3.4475000000000002,0.932625,-0.0049375,-0.43615625,1.0201875,0.89446875,-0.4390625,-1.06678125,0.95828125,0.017763570104213287,0.02515779723413831,True
11390,52666,0,52667,2871.0,35225.0,26570.0,-0.0040869999999999995,0.002257,-0.0028669999999999998,0.77,-0.052500000000000005,-3.2550000000000003,0.9364375,-0.0059375,-0.4401875,1.020375,0.891375,-0.43643750000000003,-1.06515625,0.96221875,0.017617134248803658,0.024933766371394554,True
11391,52667,0,52668,2873.0,35229.0,26574.0,-0.0048189999999999995,-0.002196,-0.000366,0.9450000000000001,0.42000000000000004,-2.9925,0.930875,-0.0032500000000000003,-0.43784375000000003,1.01803125,0.8865937500000001,-0.43534375000000003,-1.06609375,0.96265625,0.017683145955333657,0.02506373774334104,True
11392,52668,0,52669,2873.0,35229.0,26575.0,-0.0044529999999999995,-0.002989,0.0077469999999999995,1.05,1.3650000000000002,-3.0100000000000002,0.93109375,-0.002625,-0.4381875,1.0118125,0.8872187500000001,-0.43603125,-1.0657812500000001,0.96259375,0.017736360113715276,0.02503786910691244,True
11393,52669,0,52670,2873.0,35232.0,26578.0,-0.002562,-0.003477,0.008052,0.9275000000000001,1.8375000000000001,-3.0975,0.92971875,-0.00340625,-0.43921875,1.01696875,0.8875625,-0.43671875,-1.069,0.96675,0.017732024681095943,0.025121913518688418,True
11394,52670,0,52671,2874.0,35230.0,26580.0,-0.001281,-0.0023179999999999997,0.0055509999999999995,0.77,2.1175,-3.2025,0.9306562500000001,-0.00296875,-0.44115625,1.024125,0.89225,-0.43875000000000003,-1.068125,0.96703125,0.01783156871771265,0.025010596125557855,True
11395,52671,0,52672,2875.0,35235.0,26582.0,-0.00244,6.1e-05,0.0048189999999999995,0.7175,2.6250000000000004,-3.22,0.94115625,-0.008906250000000001,-0.438875,1.0173125,0.8901875,-0.43593750000000003,-1.06471875,0.962,0.017475541914444656,0.024969111213346447,True
11396,52672,0,52673,2874.0,35236.0,26582.0,-0.001281,-0.000183,0.001098,0.525,3.0450000000000004,-3.325,0.92784375,-0.00296875,-0.4361875,1.01321875,0.8788125,-0.43534375000000003,-1.06615625,0.9574375,0.017694655922325626,0.02513224379984466,True
11397,52673,0,52674,2876.0,35236.0,26585.0,-0.008479,-0.0013419999999999999,-0.0071979999999999995,0.3325,3.3075,-3.4475000000000002,0.92725,-0.00303125,-0.44475000000000003,1.0315,0.8845625,-0.43775000000000003,-1.066375,0.9686250000000001,0.01778882057472558,0.02479915823488638,True
11398,52674,0,52675,2878.0,35237.0,26589.0,-0.008173999999999999,-0.002196,-0.006039,0.28,3.0100000000000002,-3.535,0.9244687500000001,-0.0016250000000000001,-0.43596875,1.019125,0.87703125,-0.43521875,-1.0659687500000001,0.96840625,0.01774462321930308,0.02513367850584271,True
11399,52675,0,52676,2877.0,35241.0,26591.0,-0.008905999999999999,-0.001037,-0.00732,0.525,2.45,-3.43,0.94596875,-0.00853125,-0.42762500000000003,1.01140625,0.8935000000000001,-0.43528125,-1.0653125,0.9619375,0.01746450125267128,0.025441035295291053,True
11400,52676,0,52677,2879.0,35240.0,26593.0,-0.007869,0.000122,-0.001769,0.8400000000000001,1.8200000000000003,-3.2900000000000005,0.917125,-0.007875,-0.4459375,1.03325,0.887125,-0.43890625,-1.06871875,0.96775,0.017637092494677417,0.02484296290571292,True
11401,52677,0,52678,2879.0,35239.0,26595.0,-0.003721,0.000732,0.008113,1.0675000000000001,1.12,-3.115,0.933625,0.00278125,-0.43490625,1.01190625,0.88025,-0.436,-1.06490625,0.9619062500000001,0.017956345146505157,0.025134743921094854,True
11402,52678,0,52679,2881.0,35240.0,26594.0,-0.002562,0.000122,0.008784,1.12,-0.5775,-3.0450000000000004,0.9248125,-0.0021875,-0.43909375,1.02521875,0.88625,-0.42771875000000004,-1.0678750000000001,0.97015625,0.01742001593988387,0.02508314924978683,True
11403,52679,0,52680,2881.0,35242.0,26597.0,-0.002806,0.0023179999999999997,0.007686,1.1375000000000002,-1.4175000000000002,-3.0450000000000004,0.94884375,-0.01046875,-0.439625,1.02065625,0.89190625,-0.43865625,-1.0655000000000001,0.96259375,0.017520910135965434,0.02496957970118291,True
11404,52680,0,52681,2883.0,35241.0,26599.0,0.000732,0.0032329999999999998,0.0037819999999999998,1.1025,-2.3625000000000003,-2.9400000000000004,0.93109375,-0.00078125,-0.42865625,1.01159375,0.886125,-0.43625,-1.0653125,0.9539062500000001,0.017820604634508158,0.02539989278011196,True
11405,52681,0,52682,2884.0,35244.0,26601.0,0.000732,0.0053679999999999995,0.001098,0.9275000000000001,-3.2550000000000003,-3.0625000000000004,0.937625,-0.01040625,-0.441125,1.01275,0.89328125,-0.4343125,-1.0645625,0.9553125,0.017348810202865335,0.024873264793670347,True
11406,52682,0,52683,2885.0,35244.0,26603.0,0.008967,-0.0013419999999999999,-0.00183,0.9800000000000001,-4.515000000000001,-3.0275000000000003,0.9244375,0.000375,-0.43925000000000003,1.0275,0.8865000000000001,-0.43675,-1.06846875,0.9625312500000001,0.017888017023540367,0.025100007354856887,True
11407,52683,0,52684,2886.0,35245.0,26604.0,0.010735999999999999,-0.001952,-0.0037819999999999998,0.5075000000000001,-4.9350000000000005,-3.1500000000000004,0.941625,-0.006,-0.43590625,1.01696875,0.891625,-0.43609375,-1.06521875,0.9613125,0.017600757076813883,0.02510700210825011,True
11408,52684,0,52685,2886.0,35245.0,26608.0,0.008052,-0.0013419999999999999,-0.005795,0.3325,-5.022500000000001,-3.22,0.93196875,-0.00203125,-0.43590625,1.0198125,0.8826875000000001,-0.43653125,-1.06675,0.9687187500000001,0.01778075601462462,0.025166555297356067,True
11409,52685,0,52686,2888.0,35248.0,26611.0,0.009333,-0.0006709999999999999,-0.00549,0.28,-4.812500000000001,-3.2900000000000005,0.93765625,-0.0070625,-0.44034375000000003,1.019875,0.8928125,-0.4355625,-1.0653125,0.96128125,0.017535917169903496,0.024933610941415555,True
11410,52686,0,52687,2889.0,35249.0,26614.0,0.0073809999999999995,-0.001281,-0.0057339999999999995,0.35000000000000003,-4.6025,-3.3425000000000002,0.9306875,-0.00353125,-0.43828125,1.0199375,0.88603125,-0.436375,-1.0674375,0.9701875,0.017713091651278063,0.025098546670356714,True
11411,52687,0,52688,2890.0,35249.0,26617.0,0.007991,-0.0028669999999999998,-0.002379,0.385,-3.5700000000000003,-3.115,0.9361875000000001,-0.00671875,-0.4385,1.0075,0.8911250000000001,-0.4373125,-1.0663125,0.9646875,0.017620339798003565,0.025046065311760558,True
11412,52688,0,52689,2892.0,35251.0,26621.0,0.00671,-0.00244,-0.001403,0.5075000000000001,-2.8175000000000003,-3.2375000000000003,0.9316562500000001,-0.0061875,-0.4370625,1.0159375,0.89534375,-0.43715625,-1.0621875,0.96165625,0.017635797946006913,0.024942954400927694,True
11413,52689,0,52690,2895.0,35251.0,26623.0,0.0046359999999999995,-0.000183,-0.000488,0.6825000000000001,-2.0650000000000004,-3.3075,0.92984375,-0.00390625,-0.440875,1.0205312500000001,0.8875625,-0.43693750000000003,-1.06678125,0.96175,0.017720356734553994,0.024969550089323896,True
11414,52690,0,52691,2895.0,35253.0,26627.0,0.00042699999999999997,0.0035989999999999998,-0.0011589999999999999,0.7875000000000001,-1.435,-3.4475000000000002,0.93021875,-0.0035625,-0.4393125,1.0234375,0.886125,-0.43640625,-1.06871875,0.96515625,0.01771306899925188,0.025107236483715385,True
11415,52691,0,52692,2894.0,35254.0,26629.0,-0.001098,0.002928,0.000488,0.805,-0.6825000000000001,-3.4650000000000003,0.931125,-0.00390625,-0.43459375,1.01725,0.88596875,-0.4365625,-1.068375,0.96928125,0.01770528281136105,0.02528210344707226,True
11416,52692,0,52693,2896.0,35257.0,26634.0,-0.003904,0.000305,0.001464,0.56,0.7875000000000001,-3.43,0.92778125,-0.004375,-0.43834375000000003,1.0166250000000001,0.88828125,-0.4363125,-1.0658750000000001,0.9619375,0.017676050754384484,0.02503528203184609,True
11417,52693,0,52694,2897.0,35257.0,26636.0,-0.0073809999999999995,0.000549,0.004148,0.5775,1.54,-3.5875000000000004,0.9304375,-0.0035,-0.43834375000000003,1.02025,0.885625,-0.4370625,-1.0699375,0.96784375,0.017742005611353657,0.025193271822077735,True
11418,52694,0,52695,2899.0,35258.0,26641.0,-0.006222,-0.000366,0.003721,0.49000000000000005,2.1175,-3.5525,0.93521875,-0.006875,-0.43890625,1.018,0.8912187500000001,-0.43590625,-1.065625,0.96175,0.017557411033200375,0.025003116818351826,True
11419,52695,0,52696,2900.0,35261.0,26646.0,-0.005795,6.1e-05,0.003355,0.47250000000000003,2.3975000000000004,-3.535,0.92984375,-0.003875,-0.44109375,1.012,0.89259375,-0.43903125,-1.06878125,0.96315625,0.017805789662796064,0.025038612517311744,True
11420,52696,0,52697,2901.0,35262.0,26645.0,-0.0057339999999999995,0.000793,0.002013,0.35000000000000003,2.5900000000000003,-3.6925000000000003,0.9383750000000001,-0.00609375,-0.438625,1.00465625,0.885625,-0.4361875,-1.0619375,0.9614375000000001,0.01760068955110121,0.024870882388881545,True
11421,52697,0,52698,2902.0,35261.0,26645.0,-0.010003999999999999,-0.001464,-0.000244,0.2625,2.5900000000000003,-3.7275000000000005,0.93121875,-0.00290625,-0.438375,1.0191875,0.88590625,-0.436375,-1.068875,0.967375,0.017738668276288932,0.025150709794516113,True
11422,52698,0,52699,2902.0,35259.0,26642.0,-0.008479,-0.0026839999999999998,-0.001769,0.47250000000000003,2.0300000000000002,-3.7625,0.9381875000000001,-0.0064062500000000005,-0.43503125000000004,1.0229375,0.89378125,-0.43728125,-1.066875,0.96134375,0.017631871385037974,0.025206323085745632,True
11423,52699,0,52700,2903.0,35257.0,26632.0,-0.006771,-0.0018909999999999999,-0.0011589999999999999,0.385,1.4875,-3.7800000000000002,0.93771875,-0.00659375,-0.43846875,1.01340625,0.88653125,-0.436375,-1.06553125,0.96221875,0.0175877661887248,0.02501692438695071,True
11424,52700,0,52701,2904.0,35256.0,26629.0,-0.0034159999999999998,-0.00366,0.000915,0.385,0.7875000000000001,-3.6400000000000006,0.93321875,-0.00328125,-0.4365625,1.00675,0.8854375,-0.43634375000000003,-1.0659375,0.9621875,0.017722066133563866,0.025108775604343544,True
11425,52701,0,52702,2904.0,35253.0,26625.0,-0.000305,-0.00488,0.002257,0.31500000000000006,0.24500000000000002,-3.43,0.93090625,-0.00259375,-0.43859375,1.02059375,0.8865625,-0.4361875,-1.0655000000000001,0.96175,0.01774391975016561,0.025010721908599473,True
11426,52702,0,52703,2904.0,35253.0,26617.0,0.003355,-0.001403,0.0025009999999999998,0.5775,-0.6475000000000001,-3.5525,0.9279375,-0.003,-0.43834375000000003,1.01759375,0.886,-0.43615625,-1.06078125,0.9626250000000001,0.017726038644068666,0.024837114764728253,True
11427,52703,0,52704,2905.0,35248.0,26610.0,0.006222,0.0021349999999999997,0.0008539999999999999,0.7000000000000001,-1.1025,-3.535,0.9309375,-0.00346875,-0.4360625,1.01684375,0.8858125,-0.4340625,-1.0663125,0.9625625,0.0176226834976787,0.025143307377182025,True
11428,52704,0,52705,2903.0,35245.0,26602.0,0.0064659999999999995,0.00549,-0.001281,0.6475000000000001,-1.225,-3.5175000000000005,0.93115625,-0.00328125,-0.4381875,1.01746875,0.88665625,-0.43603125,-1.06946875,0.96725,0.017709504279668983,0.025181277525077195,True
11429,52705,0,52706,2903.0,35239.0,26591.0,0.004941,0.006161,-0.000549,0.665,-1.05,-3.5525,0.931,-0.00471875,-0.43684375000000003,1.021375,0.89359375,-0.43625,-1.0676875000000001,0.9661875,0.01765947107268914,0.025165614099824728,True
11430,52706,0,52707,2904.0,35235.0,26583.0,0.0032329999999999998,0.004941,0.000244,0.5775,-0.8575,-3.4475000000000002,0.93578125,-0.00490625,-0.44075000000000003,1.01975,0.88134375,-0.4365,-1.06521875,0.962375,0.017661848055163385,0.024913756238413045,True
11431,52707,0,52708,2901.0,35228.0,26575.0,0.0008539999999999999,0.00122,-0.0032329999999999998,0.3325,-0.9625000000000001,-3.7275000000000005,0.9341875000000001,-0.00584375,-0.439375,1.02059375,0.8859375,-0.43584375000000003,-1.06103125,0.96165625,0.0175971005707548,0.02480569310171544,True
11432,52708,0,52709,2901.0,35229.0,26572.0,-0.000122,0.0006709999999999999,-0.002379,0.31500000000000006,-0.805,-3.5875000000000004,0.9346875,-0.00521875,-0.43871875,1.021625,0.8864375,-0.43578125,-1.0665,0.9615,0.017620165101126038,0.025044631280793088,True
11433,52709,0,52710,2898.0,35227.0,26569.0,-0.0018909999999999999,-0.001281,-0.0023179999999999997,0.35000000000000003,-0.7525000000000001,-3.5175000000000005,0.934875,-0.00528125,-0.43959375,1.0244375000000001,0.88515625,-0.43584375000000003,-1.06434375,0.95496875,0.017620120033710725,0.02492584710102374,True
11434,52710,0,52711,2897.0,35225.0,26565.0,-0.003965,-0.0021349999999999997,-0.0017079999999999999,0.3325,-0.7175,-3.4825000000000004,0.93071875,-0.00653125,-0.440625,1.02378125,0.88403125,-0.43515625,-1.064625,0.9596250000000001,0.017541324295808423,0.024895644758299793,True
11435,52711,0,52712,2896.0,35227.0,26569.0,-0.0048189999999999995,-0.003355,0.001647,0.31500000000000006,-0.7350000000000001,-3.5525,0.93721875,-0.0035,-0.438625,1.01590625,0.88690625,-0.43990625,-1.0680625,0.974125,0.017856298037149793,0.025109140365355314,True
11436,52712,0,52713,2894.0,35227.0,26568.0,-0.002928,-0.005246,0.003172,0.28,-1.4000000000000001,-3.5000000000000004,0.92278125,-0.00453125,-0.43196875,1.015875,0.89571875,-0.44025000000000003,-1.07128125,0.9706250000000001,0.0178279170630415,0.02549979371317531,True
11437,52713,0,52714,2897.0,35230.0,26573.0,-0.0015249999999999999,-0.0037819999999999998,0.002623,0.36750000000000005,-1.5750000000000002,-3.5000000000000004,0.93309375,-0.0040625,-0.44171875,1.0053750000000001,0.88975,-0.4405,-1.0728125,0.9661875,0.017857142857142856,0.02517044109032443,True
11438,52714,0,52715,2896.0,35230.0,26576.0,0.001952,-0.0017079999999999999,0.002623,0.385,-1.8375000000000001,-3.5700000000000003,0.91059375,9.375e-05,-0.43275,1.0060625,0.88728125,-0.43546875,-1.06571875,0.9589375,0.01782501103032861,0.02525236783804574,True
11439,52715,0,52716,2895.0,35230.0,26581.0,0.003294,-0.00042699999999999997,-0.000549,0.43750000000000006,-2.0125,-3.5700000000000003,0.91790625,0.0013125,-0.441875,1.02815625,0.88371875,-0.4341875,-1.06446875,0.9615312500000001,0.017823387824948137,0.02483969463745367,True
11440,52716,0,52717,2898.0,35232.0,26583.0,0.001464,0.002806,-0.000366,0.56,-1.995,-3.5875000000000004,0.95603125,-0.0096875,-0.4416875,1.02953125,0.88815625,-0.43875000000000003,-1.06384375,0.97528125,0.01755664671883791,0.024822858624786948,True
11441,52717,0,52718,2896.0,35235.0,26587.0,0.0046359999999999995,0.005673,-0.002379,0.7525000000000001,-2.0825,-3.7100000000000004,0.9285625000000001,-0.00465625,-0.43553125000000004,1.00725,0.89809375,-0.44015625,-1.0645625,0.96340625,0.01781903501537557,0.025096438447708792,True
11442,52718,0,52719,2895.0,35235.0,26592.0,0.0,0.004514,-0.002379,0.7875000000000001,-2.0125,-3.6050000000000004,0.91834375,0.000625,-0.4311875,1.027,0.88053125,-0.43475,-1.0643125,0.9590625,0.01781786185657721,0.025260018602145978,True
11443,52719,0,52720,2897.0,35237.0,26594.0,0.002745,0.002013,-0.001037,0.7000000000000001,-1.8550000000000002,-3.43,0.9524375,-0.01303125,-0.45003125,1.03109375,0.88375,-0.43903125,-1.06603125,0.97015625,0.01743113283183023,0.024575091040788515,True
11444,52720,0,52721,2897.0,35238.0,26597.0,0.004575,0.001952,-0.00042699999999999997,0.6125,-1.7850000000000001,-3.6400000000000006,0.94678125,-0.01553125,-0.445625,1.02215625,0.89234375,-0.43675,-1.0686875,0.96821875,0.017237101905940848,0.0248542130496461,True
11445,52721,0,52722,2899.0,35239.0,26599.0,0.003355,-0.000366,0.000488,0.56,-1.5575,-3.7275000000000005,0.9523125,-0.0100625,-0.44090625,1.01315625,0.89453125,-0.438875,-1.0680625,0.9706875,0.017546327316621573,0.025018138118971096,True
11446,52722,0,52723,2900.0,35240.0,26604.0,0.00244,-0.004209,0.002562,0.1925,-0.35000000000000003,-3.9025000000000003,0.92440625,-0.0015937500000000001,-0.434625,1.0065,0.89278125,-0.43646875,-1.0677812500000001,0.96665625,0.01779614740775506,0.025257769871436072,True
11447,52723,0,52724,2901.0,35240.0,26605.0,0.00122,-0.0028669999999999998,0.000732,0.15750000000000003,0.2625,-3.8500000000000005,0.92690625,-0.00803125,-0.4421875,1.0225625,0.892625,-0.43971875,-1.06815625,0.96821875,0.01766335793041808,0.024970673700823127,True
11448,52724,0,52725,2902.0,35244.0,26606.0,-0.001769,0.000122,0.0,0.22750000000000004,0.6125,-3.9375000000000004,0.9333750000000001,-0.003625,-0.4383125,1.00965625,0.8956875,-0.437625,-1.0674375,0.9685,0.0177594999514069,0.02509730003316055,True
11449,52725,0,52726,2903.0,35243.0,26608.0,-0.002745,-0.000549,-0.002257,0.22750000000000004,0.9450000000000001,-3.99,0.928875,-0.00209375,-0.43596875,1.01559375,0.8925625,-0.438375,-1.069125,0.96959375,0.017852301963612555,0.025256416009733093,True
11450,52726,0,52727,2903.0,35244.0,26610.0,-0.000122,-0.000488,-0.002013,0.15750000000000003,1.3125000000000002,-4.1825,0.9276562500000001,-0.003625,-0.43884375000000003,1.01790625,0.8879375,-0.43846875,-1.06640625,0.96978125,0.017793412281610323,0.025035998129967277,True
11451,52727,0,52728,2903.0,35246.0,26612.0,-0.003294,-0.000122,-0.0011589999999999999,0.21000000000000002,2.1525000000000003,-4.165,0.9238437500000001,-0.0024375,-0.43953125,1.01196875,0.88984375,-0.43759375,-1.06203125,0.9620625,0.017806837058169853,0.024838369794946292,True
11452,52728,0,52729,2905.0,35246.0,26614.0,-0.002196,-0.000366,0.001403,0.2625,2.6250000000000004,-4.2525,0.93265625,-0.00175,-0.44140625,1.02075,0.88590625,-0.43534375000000003,-1.06621875,0.9616250000000001,0.017744532445957507,0.02492647599670373,True
11453,52729,0,52730,2905.0,35248.0,26616.0,-0.0046359999999999995,0.001464,0.003111,0.42000000000000004,2.9575000000000005,-4.165,0.92334375,-0.0053750000000000004,-0.43184375,1.01040625,0.8861875,-0.43528125,-1.0694375,0.9687187500000001,0.017593668990407058,0.02543310953825749,True
11454,52730,0,52731,2904.0,35248.0,26617.0,-0.005124,0.0013419999999999999,0.002989,0.525,3.1325000000000003,-4.0425,0.93071875,-0.0034375,-0.43915625,1.0170000000000001,0.8951250000000001,-0.439875,-1.07021875,0.96975,0.017857599517182476,0.025171798710372242,True
11455,52731,0,52732,2907.0,35250.0,26620.0,-0.003355,0.0011589999999999999,0.004697,0.47250000000000003,3.2375000000000003,-3.8500000000000005,0.9306875,-0.001,-0.43903125,1.01665625,0.88353125,-0.438875,-1.0675000000000001,0.96775,0.01791715044166313,0.02507105814301387,True
11456,52732,0,52733,2907.0,35253.0,26621.0,-0.002257,-0.001403,0.00183,0.22750000000000004,3.1850000000000005,-3.8675,0.93025,-0.00490625,-0.44075000000000003,1.02228125,0.88725,-0.4330625,-1.06665625,0.96221875,0.017523642400538206,0.0249696746050842,True
11457,52733,0,52734,2907.0,35254.0,26627.0,-0.0011589999999999999,0.00061,0.000122,0.4025,3.22,-3.7625,0.9340937500000001,-0.00365625,-0.43893750000000004,1.01665625,0.8865625,-0.43265625,-1.067375,0.96940625,0.017558467471173952,0.0250699365210757,True
11458,52734,0,52735,2909.0,35257.0,26627.0,-0.0015249999999999999,0.000305,-0.000366,0.4025,3.325,-3.5700000000000003,0.9309375,-0.003625,-0.44125000000000003,1.0225312500000001,0.89215625,-0.43909375,-1.06678125,0.96209375,0.01781853101651938,0.024954590051325398,True
11459,52735,0,52736,2910.0,35257.0,26629.0,-0.00671,0.000915,-0.000183,0.47250000000000003,3.325,-3.4125000000000005,0.93103125,-0.006625,-0.43959375,1.01928125,0.8856875000000001,-0.43553125000000004,-1.0655937500000001,0.9655625,0.0175525649764623,0.024974473225873615,True
11460,52736,0,52737,2911.0,35260.0,26632.0,-0.011041,0.001769,-0.00061,0.43750000000000006,3.1500000000000004,-3.43,0.9306875,-0.00384375,-0.43884375000000003,1.01740625,0.89196875,-0.43893750000000004,-1.06528125,0.95721875,0.01780330057311207,0.024992239015869812,True
11461,52737,0,52738,2911.0,35260.0,26636.0,-0.006405,-0.002562,-0.000976,0.49000000000000005,1.4175000000000002,-3.3425000000000002,0.93515625,-0.00053125,-0.44228125,1.0190000000000001,0.882125,-0.43425,-1.06584375,0.9616875,0.01775044251409395,0.024876980253257984,True
11462,52738,0,52739,2915.0,35263.0,26640.0,-0.004758,-0.002806,-0.000244,0.49000000000000005,0.35000000000000003,-3.4475000000000002,0.9314687500000001,-0.0040625,-0.437875,1.0248125000000001,0.893625,-0.43143750000000003,-1.06878125,0.9614375000000001,0.017492830702245825,0.025167009265757583,True
11463,52739,0,52740,2914.0,35263.0,26642.0,-0.004392,-0.0030499999999999998,0.0037819999999999998,0.6475000000000001,-0.6475000000000001,-3.3425000000000002,0.93575,-0.0040625,-0.43928125,1.02440625,0.885875,-0.4356875,-1.06175,0.9626250000000001,0.017663714188520377,0.02483740161800353,True
11464,52740,0,52741,2915.0,35265.0,26645.0,-0.0037819999999999998,-0.001952,0.004575,0.6475000000000001,-1.5575,-3.2375000000000003,0.9390000000000001,0.0029375,-0.43815625,1.01653125,0.8863125000000001,-0.43625,-1.06609375,0.96196875,0.017972786331781676,0.025051270703078738,True
11465,52741,0,52742,2915.0,35265.0,26647.0,0.0,0.002196,0.0025009999999999998,0.6125,-2.415,-3.3075,0.93053125,-0.0032187500000000003,-0.43943750000000004,1.01728125,0.89275,-0.4380625,-1.066,0.9677187500000001,0.017793708073215706,0.02499650921567063,True
11466,52742,0,52743,2917.0,35266.0,26652.0,0.004026,0.002623,0.00122,0.805,-4.2175,-3.0975,0.9323125,-0.008,-0.4421875,1.025125,0.89090625,-0.4366875,-1.066125,0.962125,0.017542782752367723,0.024891661555186535,True
11467,52743,0,52744,2918.0,35266.0,26650.0,0.006893,0.003721,-0.0017079999999999999,0.7875000000000001,-4.987500000000001,-3.115,0.93825,-0.0054062500000000005,-0.44078125,1.01825,0.8860625,-0.43609375,-1.0678125,0.96140625,0.017625055150232428,0.025013401149382303,True
11468,52744,0,52745,2919.0,35267.0,26655.0,0.008905999999999999,0.004392,-0.0032329999999999998,0.9100000000000001,-5.827500000000001,-3.0450000000000004,0.9325625000000001,-0.0031875000000000002,-0.43878125,1.0165,0.8825000000000001,-0.43584375000000003,-1.06821875,0.9631875,0.017705803590268906,0.02510898386029123,True
11469,52745,0,52746,2920.0,35265.0,26656.0,0.008479,0.0059169999999999995,-0.004331,0.8750000000000001,-6.317500000000001,-3.2375000000000003,0.93121875,-0.00384375,-0.4400625,1.02134375,0.8811875,-0.4383125,-1.06590625,0.9626875,0.017778181288090167,0.024967928299021704,True
11470,52746,0,52747,2920.0,35266.0,26657.0,0.008418,0.0032329999999999998,-0.003965,0.6825000000000001,-6.527500000000001,-3.3075,0.93571875,-0.00528125,-0.437625,1.02346875,0.88709375,-0.43609375,-1.06690625,0.96309375,0.017630170534110017,0.025104065245387035,True
11471,52747,0,52748,2922.0,35268.0,26660.0,0.010003999999999999,0.0008539999999999999,-0.004392,0.43750000000000006,-6.510000000000001,-3.325,0.93784375,-0.0066875,-0.44234375000000004,1.02321875,0.886375,-0.43596875,-1.06678125,0.9621875,0.017567596946611745,0.024910956607163116,True
11472,52748,0,52749,2921.0,35268.0,26660.0,0.0066489999999999995,-0.002196,-0.00244,0.28,-6.16,-3.2725000000000004,0.9392812500000001,-0.00621875,-0.44284375000000004,1.02303125,0.88703125,-0.435375,-1.066125,0.95315625,0.017562908283584762,0.024865480803275337,True
11473,52749,0,52750,2923.0,35267.0,26664.0,0.002013,-0.0035989999999999998,-0.001769,0.36750000000000005,-5.5125,-3.1850000000000005,0.9385,-0.00575,-0.43665625,1.02465625,0.8835000000000001,-0.43446875,-1.06640625,0.95621875,0.017545654640025683,0.025123266323827335,True
11474,52750,0,52751,2926.0,35270.0,26664.0,0.0011589999999999999,-0.0059169999999999995,0.0008539999999999999,0.4025,-5.1625000000000005,-3.1675000000000004,0.9390625,-0.0006875,-0.4405,1.0186875,0.87971875,-0.4303125,-1.067625,0.9587187500000001,0.017585734934827377,0.025017328127415344,True
11475,52751,0,52752,2926.0,35269.0,26669.0,0.004392,-0.005612,-0.0026839999999999998,0.47250000000000003,-4.6025,-3.22,0.93334375,-0.000375,-0.44359375,1.017625,0.8883125000000001,-0.4348125,-1.06509375,0.95615625,0.017779448890798733,0.024795438876026546,True
11476,52752,0,52753,2929.0,35271.0,26671.0,0.007625,0.0015249999999999999,0.0008539999999999999,0.6300000000000001,-3.9375000000000004,-3.5700000000000003,0.92009375,0.00240625,-0.43990625,1.015875,0.8940625,-0.4400625,-1.07190625,0.9769375,0.018104239708879633,0.025207496936935143,True
11477,52753,0,52754,2929.0,35269.0,26668.0,0.009333,0.002013,0.002806,0.5775,-3.3775000000000004,-3.6925000000000003,0.93215625,9.375e-05,-0.43953125,1.01990625,0.8958125,-0.44409375,-1.06296875,0.9625625,0.01817156751822718,0.024874846480427426,True
11478,52754,0,52755,2927.0,35264.0,26662.0,0.012444,-0.000488,-0.001586,0.4025,-2.4850000000000003,-3.7975000000000003,0.93303125,-0.00628125,-0.4383125,1.02325,0.8843125000000001,-0.43653125,-1.06890625,0.95725,0.01760683607662196,0.02515441813501536,True
11479,52755,0,52756,2928.0,35262.0,26655.0,0.0057339999999999995,-0.002013,-0.00549,0.22750000000000004,-1.33,-4.0075,0.9394375,-0.0031875000000000002,-0.4398125,1.0149375,0.87834375,-0.42746875,-1.070875,0.97996875,0.01736902232246229,0.02517113981861423,True
11480,52756,0,52757,2929.0,35261.0,26649.0,-0.01281,0.0034159999999999998,-0.002928,0.43750000000000006,0.7000000000000001,-4.3925,0.93653125,-0.006125,-0.44159375,1.0220625,0.8954375,-0.43578125,-1.0625,0.95640625,0.01758307809372782,0.02477431421446384,True
11481,52757,0,52758,2928.0,35260.0,26646.0,-0.013115,0.003172,-0.002745,0.42000000000000004,1.0325000000000002,-4.4975000000000005,0.927875,-0.0032187500000000003,-0.4404375,1.01734375,0.88071875,-0.4398125,-1.0683125,0.97803125,0.017864038441375112,0.025046560274051152,True
11482,52758,0,52759,2929.0,35258.0,26638.0,-0.01464,0.0011589999999999999,-0.00122,0.43750000000000006,1.1725,-4.515000000000001,0.9311875000000001,-0.003,-0.44175000000000003,1.02434375,0.89471875,-0.43821875,-1.0691875,0.9558125000000001,0.017808939123273866,0.02502823436140481,True
11483,52759,0,52760,2931.0,35254.0,26633.0,-0.01342,-0.001647,0.004209,0.385,1.1025,-4.357500000000001,0.93415625,-0.003375,-0.44034375000000003,1.0174375,0.8805625,-0.437375,-1.0696875000000001,0.9709375,0.01775968163520018,0.025103773232115482,True
11484,52760,0,52761,2926.0,35250.0,26622.0,-0.010248,-0.001952,0.00732,0.45500000000000007,0.7875000000000001,-4.1825,0.9295625000000001,-0.004625,-0.442625,1.0223125,0.8961250000000001,-0.43784375000000003,-1.0655625,0.95240625,0.017727372121364025,0.02485232477826899,True
11485,52761,0,52762,2924.0,35245.0,26610.0,-0.011833999999999999,-6.1e-05,0.00671,0.77,-0.2625,-3.7275000000000005,0.936625,-0.00703125,-0.44375000000000003,1.01803125,0.8844062500000001,-0.43475,-1.06784375,0.9597187500000001,0.017504527363693102,0.024896187969896687,True
11486,52762,0,52763,2923.0,35241.0,26604.0,-0.007991,0.000549,0.006893,0.5950000000000001,-1.1900000000000002,-3.8325000000000005,0.9305625000000001,-0.003625,-0.440125,1.01765625,0.893875,-0.43893750000000004,-1.07228125,0.96709375,0.017812251453239326,0.02521335189632974,True
11487,52763,0,52764,2921.0,35239.0,26592.0,-0.002623,0.0025009999999999998,0.004697,0.525,-2.2575000000000003,-3.9200000000000004,0.92790625,-0.0061875,-0.4426875,1.0246875,0.887,-0.436125,-1.06859375,0.9626875,0.01759434034651566,0.02496774475034125,True
11488,52764,0,52765,2920.0,35234.0,26586.0,0.003904,0.005673,0.003538,0.5950000000000001,-3.2375000000000003,-3.7625,0.9360625,-0.004125,-0.44153125,1.01625,0.87765625,-0.43771875,-1.0711875,0.96946875,0.017742807928829284,0.025114735789838437,True
11489,52765,0,52766,2919.0,35231.0,26584.0,0.007869,0.0059169999999999995,0.002196,0.5425000000000001,-3.7975000000000003,-3.6400000000000006,0.9310625,-0.0038125,-0.44046875,1.01634375,0.8928125,-0.4386875,-1.0714062500000001,0.9629062500000001,0.017794531723522387,0.02516562069588738,True
11490,52766,0,52767,2916.0,35229.0,26580.0,0.013237,-0.000488,-0.0060999999999999995,-0.14,-4.340000000000001,-3.5175000000000005,0.93103125,-0.0054687500000000005,-0.44253125,1.02384375,0.886375,-0.43378125,-1.068625,0.96284375,0.01752952175586822,0.024975193094954346,True
11491,52767,0,52768,2918.0,35229.0,26579.0,0.008601,-0.006405,-0.01159,-0.5425000000000001,-4.2525,-3.8325000000000005,0.9369375,-0.006,-0.442875,1.02296875,0.88625,-0.43628125,-1.06821875,0.9619375,0.017608295042847406,0.024945679477126788,True
11492,52768,0,52769,2913.0,35228.0,26579.0,0.0037819999999999998,-0.010003999999999999,-0.012078,-0.7350000000000001,-4.165,-4.0425,0.92796875,-0.00328125,-0.44125000000000003,1.01775,0.88603125,-0.436875,-1.0691875,0.9693437500000001,0.0177434205478401,0.025048179164163176,True
11493,52769,0,52770,2912.0,35231.0,26582.0,-0.0015249999999999999,-0.009821,-0.012931999999999999,-0.49000000000000005,-4.3925,-4.165,0.9322812500000001,-0.0032500000000000003,-0.4358125,1.0171875,0.8964062500000001,-0.436625,-1.0718750000000001,0.97040625,0.01773465034553667,0.025369562507790114,True
11494,52770,0,52771,2915.0,35233.0,26583.0,-0.003843,-0.007076,-0.008235,-0.15750000000000003,-4.532500000000001,-4.2700000000000005,0.931625,-0.00334375,-0.44115625,1.0170625,0.89309375,-0.437875,-1.07259375,0.964,0.017781057068177984,0.025184370883048347,True
11495,52771,0,52772,2913.0,35233.0,26589.0,0.0030499999999999998,0.001037,0.00366,0.56,-5.1275,-3.9725000000000006,0.932125,-0.0021875,-0.44,1.01646875,0.88990625,-0.4396875,-1.0728125,0.96884375,0.01790121088905085,0.02523899143743846,True
11496,52772,0,52773,2914.0,35232.0,26591.0,0.003355,0.0044529999999999995,0.006222,0.8400000000000001,-5.180000000000001,-3.8325000000000005,0.92959375,-0.0022187500000000002,-0.44021875,1.01459375,0.895,-0.4400625,-1.0726875,0.9716250000000001,0.017915001240279154,0.02522540712877309,True
11497,52773,0,52774,2914.0,35235.0,26596.0,0.000122,0.008052,0.00732,1.0675000000000001,-5.3025,-3.8500000000000005,0.9215625000000001,-0.0028125,-0.43915625,1.01465625,0.89434375,-0.437,-1.06971875,0.96259375,0.01776762695911937,0.025152356366183806,True
11498,52774,0,52775,2914.0,35237.0,26599.0,-0.0013419999999999999,0.008052,0.008052,1.155,-5.617500000000001,-3.8675,0.92909375,-0.0018437500000000001,-0.438875,1.0209375,0.8874062500000001,-0.436,-1.06946875,0.9626250000000001,0.017767075216893108,0.025153853728950678,True
11499,52775,0,52776,2913.0,35238.0,26602.0,-0.004026,0.005307,0.005856,1.0850000000000002,-5.985,-4.0600000000000005,0.942875,-0.00778125,-0.44475000000000003,1.02846875,0.8865625,-0.432375,-1.069125,0.9529062500000001,0.017378324866084448,0.024906134538002427,True
11500,52776,0,52777,2914.0,35238.0,26607.0,-0.01525,0.0006709999999999999,-0.0018909999999999999,0.6825000000000001,-7.5425,-4.2,0.94346875,-0.00684375,-0.4473125,1.022125,0.88803125,-0.43593750000000003,-1.06875,0.96803125,0.01755994628812584,0.024789329344303168,True
11501,52777,0,52778,2915.0,35241.0,26609.0,-0.014945,-0.0026839999999999998,-0.002013,0.7000000000000001,-9.030000000000001,-4.2,0.9244687500000001,-0.0065625,-0.44703125,1.0268125000000001,0.8916875,-0.4383125,-1.0720625,0.96196875,0.01766693178999164,0.024929391030355,True
11502,52778,0,52779,2915.0,35243.0,26612.0,-0.011346,-0.0013419999999999999,-0.000793,0.6825000000000001,-10.797500000000001,-4.235,0.93575,-0.004375,-0.44478125,1.02784375,0.8874375,-0.43678125,-1.0700625,0.9625312500000001,0.01769489383958863,0.0249413518614084,True
11503,52779,0,52780,2914.0,35245.0,26614.0,-0.008905999999999999,0.001403,0.00042699999999999997,0.8575,-12.81,-4.357500000000001,0.92984375,-0.0084375,-0.44415625000000003,1.0276875,0.887125,-0.43593750000000003,-1.06871875,0.9634375000000001,0.017494724726644928,0.02491401759413811,True
11504,52780,0,52781,2916.0,35246.0,26617.0,-0.0073809999999999995,0.00549,0.001952,0.9275000000000001,-15.137500000000001,-4.6025,0.9410625,-0.004625,-0.4414375,1.0159375,0.88315625,-0.4345625,-1.0655625,0.9673125,0.017595465439579697,0.02489970053534606,True
11505,52781,0,52782,2917.0,35246.0,26616.0,0.017202,0.003111,-0.000122,0.6125,-18.812500000000004,-5.32,0.92821875,-0.0025,-0.4411875,1.01521875,0.8915937500000001,-0.43243750000000003,-1.0720625,0.96609375,0.017596995797083285,0.025162469182581203,True
11506,52782,0,52783,2916.0,35245.0,26617.0,0.01464,-0.000915,0.005795,0.35000000000000003,-19.845000000000002,-4.9350000000000005,0.92740625,-0.00278125,-0.4405625,1.01903125,0.89071875,-0.437125,-1.070875,0.96284375,0.01777393003473199,0.025141224628179113,True
11507,52783,0,52784,2917.0,35247.0,26618.0,0.012565999999999999,-0.006588,0.00366,0.15750000000000003,-20.860000000000003,-4.515000000000001,0.929875,-0.0075625,-0.4429375,1.02125,0.88690625,-0.43553125000000004,-1.07021875,0.96215625,0.017514198714218665,0.025020972343928992,True
11508,52784,0,52785,2917.0,35246.0,26620.0,0.021594,-0.009211,0.00042699999999999997,-0.10500000000000001,-21.875000000000004,-4.2700000000000005,0.93215625,-0.00428125,-0.4423125,1.0170625,0.88315625,-0.43853125,-1.0731875,0.9674375000000001,0.01776907112615452,0.025161340176632907,True
11509,52785,0,52786,2917.0,35245.0,26620.0,0.040565,-0.007259,-0.005307,-0.43750000000000006,-22.207500000000003,-4.69,0.93078125,-0.00378125,-0.44015625,1.01659375,0.89290625,-0.43684375000000003,-1.07309375,0.962,0.01772170352400768,0.025243693750397277,True
11510,52786,0,52787,2917.0,35246.0,26620.0,0.038796,-0.003843,-0.0051849999999999995,-0.6475000000000001,-19.040000000000003,-4.567500000000001,0.93109375,-0.005625,-0.44478125,1.01946875,0.88690625,-0.436125,-1.07071875,0.96203125,0.0176173595445268,0.024966874952478173,True
11511,52787,0,52788,2919.0,35246.0,26620.0,0.03599,-0.000183,-0.0048189999999999995,-0.7175,-16.1525,-4.7075000000000005,0.9305625000000001,-0.0035,-0.4423125,1.01496875,0.87425,-0.4403125,-1.07725,0.961875,0.01787262335536831,0.025319263475859596,True
11512,52788,0,52789,2917.0,35245.0,26621.0,0.039894,0.0044529999999999995,-0.013176,-0.8225000000000001,-12.932500000000001,-4.83,0.93821875,-0.00671875,-0.443875,1.01771875,0.88696875,-0.43446875,-1.07153125,0.97490625,0.017506007778458454,0.0250346196943994,True
11513,52789,0,52790,2918.0,35244.0,26622.0,0.03538,0.008539999999999999,-0.014395999999999999,-0.7525000000000001,-8.8025,-5.232500000000001,0.93115625,-0.00415625,-0.4459375,1.023125,0.90609375,-0.4408125,-1.06603125,0.9556250000000001,0.017865864729333363,0.02473840967544473,True
11514,52790,0,52791,2920.0,35245.0,26626.0,0.016409,0.01159,-0.022021,-0.8750000000000001,-4.9350000000000005,-5.687500000000001,0.93465625,-0.00265625,-0.43915625,1.0173125,0.8871875,-0.44471875,-1.070375,0.9573125,0.018084172066819136,0.02517787428389085,True
11515,52791,0,52792,2918.0,35248.0,26627.0,-0.005978,0.009394,-0.02135,-0.7525000000000001,3.08,-6.055000000000001,0.93703125,-0.0040625,-0.444875,1.01790625,0.87325,-0.43440625,-1.0717812500000001,0.97621875,0.017612204102565414,0.025004455955836807,True
11516,52792,0,52793,2921.0,35249.0,26631.0,-0.013908,0.007808,-0.014823,-0.7350000000000001,7.105,-6.2125,0.93190625,-0.0041875,-0.443125,1.02553125,0.90890625,-0.441,-1.0660625,0.95084375,0.017872120616996032,0.024851829041757152,True
11517,52793,0,52794,2920.0,35250.0,26634.0,-0.02257,-6.1e-05,-0.004209,-0.5775,11.165000000000001,-6.107500000000001,0.93675,-0.0035,-0.4409375,1.01721875,0.8763125,-0.4385625,-1.07871875,0.97096875,0.017802295040880576,0.02543117359215171,True
11518,52794,0,52795,2923.0,35252.0,26640.0,-0.034282,-0.007991,0.007869,-0.7350000000000001,14.735000000000001,-5.827500000000001,0.93253125,-0.0049375,-0.444,1.02215625,0.8820625,-0.43128125,-1.063125,0.9515625,0.01745073234748996,0.024702625869679067,True
11519,52795,0,52796,2923.0,35258.0,26646.0,-0.042638999999999996,-0.016104,0.020679,-0.8575,17.2725,-5.635000000000001,0.932875,-0.0038125,-0.44078125,1.01715625,0.8855937500000001,-0.44346875,-1.0794375,0.98784375,0.01798665543326374,0.025465333901527897,True
11520,52796,0,52797,2925.0,35264.0,26651.0,-0.041784999999999996,-0.014029999999999999,0.024888,-0.6300000000000001,18.060000000000002,-5.862500000000001,0.9313750000000001,-0.00334375,-0.445125,1.02284375,0.90990625,-0.44075000000000003,-1.0621875,0.9459062500000001,0.01789659687202725,0.024621254629110093,True
11521,52797,0,52798,2924.0,35265.0,26655.0,-0.036661,-0.008845,0.02196,-0.35000000000000003,17.045,-5.9675,0.93696875,-0.0063750000000000005,-0.443375,1.01753125,0.862625,-0.42646875,-1.06746875,0.9619062500000001,0.017198300511612016,0.024896560407599987,True
11522,52798,0,52799,2926.0,35269.0,26662.0,-0.029219,-0.00366,0.018239,-0.12250000000000001,15.767500000000002,-5.897500000000001,0.931625,0.00046875,-0.4411875,1.0184375,0.8959375,-0.44828125,-1.07615625,0.9715625,0.018355073528941834,0.025321614033251203,True
11523,52799,0,52800,2927.0,35271.0,26667.0,-0.022814,-0.000549,0.015006,-0.035,14.367500000000001,-5.477500000000001,0.933125,-0.00778125,-0.444125,1.0214375,0.8926875,-0.4395625,-1.0638125,0.9544375,0.017667306851339912,0.024724390991992938,True
11524,52800,0,52801,2929.0,35273.0,26672.0,-0.019215,-6.1e-05,0.010797,0.052500000000000005,12.547500000000001,-4.8825,0.93171875,-0.00309375,-0.44190625,1.006875,0.8846875000000001,-0.4361875,-1.06865625,0.969,0.01772345829315641,0.025001340069833226,True
11525,52801,0,52802,2930.0,35274.0,26674.0,-0.014457,0.00793,0.002074,0.5775,7.595000000000001,-4.41,0.93478125,-0.00553125,-0.44321875,1.02153125,0.89175,-0.438,-1.06884375,0.96240625,0.01769656886815615,0.024956276653166347,True
11526,52802,0,52803,2932.0,35276.0,26678.0,-0.002562,0.008845,-0.00042699999999999997,0.6125,4.3925,-4.4975000000000005,0.93175,-0.003125,-0.43746875,1.01825,0.8818125,-0.43590625,-1.06984375,0.96778125,0.017710873727058925,0.025224528972183958,True
11527,52803,0,52804,2933.0,35278.0,26681.0,0.015493999999999999,0.006771,-0.00732,0.28,1.33,-4.6375,0.93675,-0.00334375,-0.4408125,1.01771875,0.89253125,-0.43553125000000004,-1.06653125,0.9645,0.017686846894315017,0.024962319028485436,True
11528,52804,0,52805,2935.0,35279.0,26684.0,0.022753,0.004758,-0.00976,0.10500000000000001,-0.9100000000000001,-4.2875000000000005,0.9315625000000001,-0.0078125,-0.44228125,1.0095,0.89546875,-0.43825000000000003,-1.06934375,0.95746875,0.017613270180966315,0.025013119858791677,True
11529,52805,0,52806,2934.0,35279.0,26686.0,0.018056,0.0030499999999999998,-0.006344,0.29750000000000004,-2.1350000000000002,-3.7800000000000002,0.9243750000000001,-0.0030625,-0.44371875,1.02265625,0.88690625,-0.439125,-1.07215625,0.9593125,0.017842803291852713,0.025065155694377103,True
11530,52806,0,52807,2935.0,35281.0,26689.0,0.016165,0.0037819999999999998,-0.00671,0.6125,-2.9925,-3.4475000000000002,0.934625,-0.003375,-0.44115625,1.0170625,0.886375,-0.4361875,-1.07028125,0.96990625,0.017711948723588736,0.025094453218389802,True
11531,52807,0,52808,2937.0,35286.0,26692.0,0.015616,0.0026839999999999998,-0.00671,0.6125,-3.4475000000000002,-3.325,0.9365625,-0.00525,-0.44196875,1.0186250000000001,0.8931875,-0.43575,-1.0695937500000001,0.96040625,0.017617629907001015,0.025035307961462284,True
11532,52808,0,52809,2938.0,35285.0,26694.0,0.017079999999999998,0.00122,-0.004758,0.56,-3.2725000000000004,-3.2900000000000005,0.9314687500000001,-0.00340625,-0.44103125,1.0178125,0.88634375,-0.43259375,-1.0719375,0.95940625,0.01756618656175217,0.025163841047386146,True
11533,52809,0,52810,2940.0,35282.0,26693.0,0.01525,-0.0037819999999999998,-0.004392,0.5425000000000001,-2.9400000000000004,-3.22,0.9236562500000001,-0.003375,-0.4415625,1.017875,0.8921250000000001,-0.43940625,-1.07246875,0.97075,0.017841319283278412,0.025163307861336952,True
11534,52810,0,52811,2940.0,35283.0,26687.0,0.00732,-0.004209,0.000915,0.43750000000000006,-0.7875000000000001,-3.325,0.931,-0.00303125,-0.4455,1.02603125,0.89465625,-0.4393125,-1.06425,0.95778125,0.017851617143485522,0.024686555552230764,True
11535,52811,0,52812,2941.0,35278.0,26681.0,0.0018909999999999999,-0.002928,0.001098,0.5425000000000001,0.525,-3.2900000000000005,0.95021875,-0.01209375,-0.44465625000000003,1.0164375,0.88884375,-0.43793750000000004,-1.0684375,0.96225,0.01742551923622851,0.024883132424986597,True
11536,52812,0,52813,2943.0,35277.0,26676.0,-0.004514,0.000305,0.000732,0.6825000000000001,1.9075000000000002,-3.3775000000000004,0.92625,-0.0025625,-0.440625,1.0099375,0.8868125,-0.43575,-1.0699375,0.9618125000000001,0.017727612207523814,0.025102276381821848,True
11537,52813,0,52814,2943.0,35276.0,26671.0,-0.008539999999999999,0.0034159999999999998,0.001464,0.8575,2.9925,-3.535,0.927,-0.0013437500000000001,-0.446,1.0318125,0.89175,-0.43890625,-1.0716875000000001,0.96846875,0.01790434054306338,0.024955938845360934,True
11538,52814,0,52815,2943.0,35275.0,26667.0,-0.009028,0.0028669999999999998,0.002074,0.8225000000000001,3.8150000000000004,-3.7450000000000006,0.93890625,-0.00259375,-0.44015625,1.03328125,0.888,-0.43571875,-1.07015625,0.9685,0.017725077147567023,0.025129480395639732,True
11539,52815,0,52816,2943.0,35273.0,26665.0,-0.010187,-0.000976,0.002989,0.6125,4.8825,-3.5175000000000005,0.940875,-0.00171875,-0.44046875,1.030375,0.89375,-0.43525,-1.0690625,0.9685312500000001,0.01774204274562364,0.025074481744181698,True
11540,52816,0,52817,2946.0,35272.0,26662.0,-0.009394,0.000305,0.006222,0.56,5.355,-3.6750000000000003,0.94246875,-0.0020625,-0.4409375,1.03115625,0.89346875,-0.43365625,-1.069125,0.97084375,0.017663903657480655,0.025058214038184427,True
11541,52817,0,52818,2945.0,35271.0,26659.0,-0.008723,0.002257,0.0055509999999999995,0.49000000000000005,5.5125,-3.7275000000000005,0.94421875,0.0085,-0.4383125,1.0118125,0.891875,-0.4365625,-1.06871875,0.95334375,0.0182129749223116,0.025147126835111985,True
11542,52818,0,52819,2944.0,35269.0,26655.0,-0.008784,0.0015249999999999999,0.004941,0.28,5.617500000000001,-3.9200000000000004,0.9393125,-0.0113125,-0.43775000000000003,1.00621875,0.8939375,-0.4393125,-1.06771875,0.96196875,0.017512767595242295,0.02513067727792342,True
11543,52819,0,52820,2944.0,35268.0,26654.0,-0.012078,-0.00061,0.0034159999999999998,0.07,5.390000000000001,-4.1475,0.92534375,-0.00209375,-0.4380625,1.011625,0.8865625,-0.43603125,-1.065625,0.96228125,0.017758100550800366,0.025036778456551553,True
11544,52820,0,52821,2945.0,35269.0,26653.0,-0.009211,-0.000366,0.001464,-0.07,3.9375000000000004,-4.322500000000001,0.9244375,-0.00084375,-0.43521875,0.99921875,0.88109375,-0.434625,-1.06953125,0.96165625,0.01775272794241778,0.025302128455233882,True
11545,52821,0,52822,2944.0,35268.0,26650.0,-0.008662,-0.000122,0.0,-0.08750000000000001,2.9050000000000002,-4.41,0.9246562500000001,-0.00190625,-0.4403125,1.009375,0.88584375,-0.43534375000000003,-1.06921875,0.9621875,0.017738138019850858,0.025086790947563935,True
11546,52822,0,52823,2945.0,35269.0,26652.0,-0.008296,0.0,0.000915,-0.15750000000000003,1.6975000000000002,-4.322500000000001,0.9123125,-0.0013125,-0.43790625,1.01153125,0.88621875,-0.43565625,-1.0678125,0.961875,0.017774998369442196,0.025128090055723855,True
11547,52823,0,52824,2946.0,35270.0,26652.0,-0.00366,-0.000366,0.000366,-0.14,0.35000000000000003,-4.2525,0.92515625,-0.00240625,-0.440625,1.02503125,0.88784375,-0.4375,-1.0721875,0.9691875,0.017804347826086957,0.02518976455484788,True
11548,52824,0,52825,2945.0,35272.0,26654.0,-0.000549,-0.0011589999999999999,-0.0028669999999999998,0.07,-1.1725,-4.0600000000000005,0.9373125,-0.00625,-0.44471875,1.0106875,0.8925000000000001,-0.4358125,-1.06865625,0.9613125,0.01757921902535469,0.02488914817681941,True
11549,52825,0,52826,2945.0,35273.0,26658.0,0.0044529999999999995,-0.002623,-0.002257,0.21000000000000002,-3.6750000000000003,-3.6925000000000003,0.9311875000000001,0.000625,-0.441875,1.009375,0.88584375,-0.43653125,-1.0701875,0.96884375,0.017889455975876278,0.025062138047431837,True
11550,52826,0,52827,2946.0,35274.0,26660.0,0.00732,-0.0037819999999999998,-0.0026839999999999998,0.10500000000000001,-4.7075000000000005,-3.6400000000000006,0.93771875,-0.00359375,-0.4416875,1.01753125,0.886375,-0.43493750000000003,-1.06896875,0.9692500000000001,0.017652746195892664,0.025022219950710977,True
11551,52827,0,52828,2946.0,35277.0,26662.0,0.005429,-0.004392,-0.0008539999999999999,0.14,-5.5475,-3.3950000000000005,0.9268125,-0.0044687500000000005,-0.4406875,1.0170000000000001,0.89346875,-0.4363125,-1.068375,0.95928125,0.01767221425082037,0.025039018284990555,True
11552,52828,0,52829,2946.0,35276.0,26668.0,0.007076,-0.002989,6.1e-05,0.35000000000000003,-6.23,-3.1500000000000004,0.9314687500000001,-0.00021875,-0.44190625,1.01103125,0.8864375,-0.43193750000000003,-1.0705,0.95675,0.017670262540578293,0.025073044015875234,True
11553,52829,0,52830,2948.0,35278.0,26673.0,0.006344,-0.00122,0.0008539999999999999,0.525,-6.8950000000000005,-3.1675000000000004,0.93303125,-0.0073125,-0.443875,1.0227187500000001,0.8932187500000001,-0.43859375,-1.069375,0.9625625,0.0176475477440268,0.024950761636458825,True
11554,52830,0,52831,2950.0,35280.0,26676.0,0.0050019999999999995,0.001464,-0.001037,0.7350000000000001,-8.225000000000001,-2.975,0.93434375,-0.00296875,-0.44071875,1.00878125,0.88728125,-0.4313125,-1.06946875,0.96234375,0.017532572185796402,0.02508030809388412,True
11555,52831,0,52832,2950.0,35282.0,26680.0,0.008967,0.001586,-0.002196,0.7350000000000001,-8.785,-2.8875,0.92715625,0.00228125,-0.4445625,1.02415625,0.88965625,-0.44003125,-1.07165625,0.96215625,0.018097869658002176,0.025012059185359963,True
11556,52832,0,52833,2951.0,35284.0,26684.0,0.009943,0.0028669999999999998,-0.002562,0.9450000000000001,-8.89,-2.9050000000000002,0.9341875000000001,-0.00365625,-0.44109375,1.01803125,0.8863125000000001,-0.43243750000000003,-1.07121875,0.9677187500000001,0.017549671415305983,0.025133401223265225,True
11557,52833,0,52834,2953.0,35284.0,26685.0,0.008479,0.0046359999999999995,-0.004392,0.9450000000000001,-8.732500000000002,-2.9225000000000003,0.93590625,-0.00659375,-0.44459375,1.0205625,0.8964375,-0.43796875,-1.06909375,0.96203125,0.017651835322851864,0.024911151804201136,True
11558,52834,0,52835,2953.0,35286.0,26688.0,0.009394,0.002623,-0.0035989999999999998,0.9275000000000001,-8.4525,-2.8525000000000005,0.93159375,-0.00390625,-0.44309375,1.02384375,0.88678125,-0.43843750000000004,-1.0710625,0.9649375,0.01778064780123525,0.025047552332494883,True
11559,52835,0,52836,2956.0,35285.0,26688.0,0.010858,-0.0026839999999999998,-0.004331,0.7000000000000001,-6.930000000000001,-3.0450000000000004,0.9316562500000001,-0.0038125,-0.44215625000000003,1.02303125,0.88615625,-0.43590625,-1.0714375,0.96978125,0.017682738899851527,0.025099528098458654,True
11560,52836,0,52837,2955.0,35288.0,26690.0,0.012199999999999999,-0.0044529999999999995,0.000732,0.665,-5.565,-3.2375000000000003,0.9384687500000001,-0.004,-0.441875,1.02425,0.886875,-0.4365,-1.070375,0.9695625,0.01769893397172263,0.025069429555800427,True
11561,52837,0,52838,2956.0,35289.0,26692.0,0.011467999999999999,-0.003843,0.000976,0.5425000000000001,-4.077500000000001,-3.3775000000000004,0.93596875,-0.00315625,-0.43925000000000003,1.0173125,0.88746875,-0.43543750000000003,-1.0696875000000001,0.9691875,0.017690751393340105,0.025147401617989857,True
11562,52838,0,52839,2957.0,35288.0,26692.0,0.007991,-0.0011589999999999999,0.0017079999999999999,0.5775,-2.5200000000000005,-3.6225000000000005,0.93584375,-0.00459375,-0.4426875,1.0103125,0.8931875,-0.437,-1.0695625,0.96096875,0.017694735442157383,0.025005422412138222,True
11563,52839,0,52840,2957.0,35289.0,26696.0,-0.000976,0.0051849999999999995,-0.000976,0.7000000000000001,-0.8750000000000001,-3.9200000000000004,0.923625,-0.00378125,-0.442875,1.02359375,0.88715625,-0.4388125,-1.07290625,0.9663125,0.01780083422629475,0.025127970555866453,True
11564,52840,0,52841,2959.0,35292.0,26697.0,-0.012199999999999999,0.006771,-0.004575,0.8225000000000001,0.8400000000000001,-4.305000000000001,0.937625,-0.00384375,-0.44153125,1.01703125,0.88778125,-0.4353125,-1.06971875,0.96984375,0.01765759083293901,0.02505762056066146,True
11565,52841,0,52842,2960.0,35292.0,26700.0,-0.014945,0.0035989999999999998,-0.002806,0.7875000000000001,1.2425000000000002,-4.305000000000001,0.9365625,-0.0046875,-0.4410625,1.01721875,0.89359375,-0.43565625,-1.0628125,0.962375,0.017636880531907137,0.02480767072729766,True
11566,52842,0,52843,2961.0,35293.0,26701.0,-0.014395999999999999,-0.001769,0.003172,0.56,1.5050000000000001,-4.077500000000001,0.93109375,0.0011875,-0.44396875,1.01628125,0.8926875,-0.43478125,-1.06859375,0.9625,0.017842138447627807,0.024916634982766035,True
11567,52843,0,52844,2961.0,35294.0,26701.0,-0.012749,-0.0060999999999999995,0.00915,0.525,1.8200000000000003,-3.7800000000000002,0.9363125,-0.005,-0.44134375000000003,1.01753125,0.8885625,-0.43565625,-1.06971875,0.968375,0.017624091843246485,0.025065099703202694,True
11568,52844,0,52845,2963.0,35296.0,26703.0,-0.009943,-0.007259,0.010553,0.6125,1.6800000000000002,-3.4650000000000003,0.93478125,-0.00490625,-0.44165625000000003,1.01765625,0.8906875,-0.435875,-1.07021875,0.9633125,0.017636722646518697,0.02507207879867422,True
11569,52845,0,52846,2963.0,35296.0,26706.0,-0.0044529999999999995,-0.005612,0.006039,0.49000000000000005,0.9800000000000001,-3.3950000000000005,0.9313125,-0.00375,-0.4419375,1.0215,0.8926875,-0.4375,-1.07246875,0.96740625,0.017749360613810744,0.025148351216909986,True
11570,52846,0,52847,2964.0,35297.0,26709.0,-0.0040869999999999995,-0.0017079999999999999,0.0008539999999999999,0.525,0.42000000000000004,-3.43,0.934125,-0.00303125,-0.44190625,1.01715625,0.8874375,-0.4361875,-1.06965625,0.96903125,0.01772601597528256,0.025040231654552502,True
11571,52847,0,52848,2965.0,35297.0,26710.0,-0.005063,0.0035989999999999998,-0.0021349999999999997,0.7175,-0.14,-3.3775000000000004,0.93365625,-0.0053125,-0.443125,1.01503125,0.89615625,-0.43565625,-1.06925,0.96040625,0.017611303154585832,0.02497581698694616,True
11572,52848,0,52849,2966.0,35297.0,26710.0,-0.002989,0.0070149999999999995,-0.0026839999999999998,0.9100000000000001,-0.7175,-3.3075,0.9313125,-0.0038125,-0.4430625,1.02296875,0.887,-0.4401875,-1.0708125,0.96103125,0.017854813920719716,0.02503907681492173,True
11573,52849,0,52850,2967.0,35300.0,26713.0,0.0011589999999999999,0.007808,-0.002928,1.0150000000000001,-1.5575,-3.3425000000000002,0.9362812500000001,-0.00390625,-0.44253125,1.0170937500000001,0.87840625,-0.43515625,-1.06684375,0.9733125,0.017648751478722385,0.024905907828942368,True
11574,52850,0,52851,2968.0,35302.0,26714.0,0.003843,0.000976,-0.0021349999999999997,0.665,-3.1500000000000004,-3.3425000000000002,0.937875,-0.00928125,-0.44209375,1.017875,0.8950312500000001,-0.43521875,-1.0695937500000001,0.9576875,0.0174312947372325,0.025030321841573527,True
11575,52851,0,52852,2970.0,35301.0,26720.0,0.005063,-0.000549,-0.0023179999999999997,0.56,-3.8675,-3.3075,0.9315,-0.00346875,-0.4414375,1.0145625,0.8836875000000001,-0.43593750000000003,-1.071,0.97159375,0.01769806253596777,0.02511118423676758,True
11576,52852,0,52853,2970.0,35304.0,26722.0,0.0044529999999999995,-0.00122,-0.0017079999999999999,0.5425000000000001,-4.4275,-3.4125000000000005,0.965375,-0.00903125,-0.43509375,1.0071875000000001,0.8863125000000001,-0.43878125,-1.06846875,0.95978125,0.017584755786461324,0.02526580328126344,True
11577,52853,0,52854,2973.0,35307.0,26725.0,0.006344,0.000976,-0.0006709999999999999,0.6300000000000001,-4.515000000000001,-3.4475000000000002,0.920875,-0.00725,-0.4505,1.0346875,0.8861875,-0.4419375,-1.073375,0.9696250000000001,0.017784494375701596,0.024842088470339554,True
11578,52854,0,52855,2973.0,35305.0,26727.0,0.006588,-0.000793,-0.001647,0.49000000000000005,-4.550000000000001,-3.5875000000000004,0.9410625,-3.125e-05,-0.43743750000000003,1.00565625,0.88428125,-0.43528125,-1.0695000000000001,0.959375,0.01781235892261318,0.025212409501585594,True
11579,52855,0,52856,2974.0,35307.0,26727.0,0.015311,-0.009394,0.000976,-0.035,-3.7100000000000004,-3.6925000000000003,0.9175625000000001,-0.0069375,-0.4456875,1.03421875,0.88784375,-0.43825000000000003,-1.0743125,0.97328125,0.017649074708704592,0.025070478004132715,True
11580,52856,0,52857,2974.0,35308.0,26730.0,0.014091,-0.005246,-0.000549,0.07,-2.8875,-3.7625,0.9573125,-0.014906250000000001,-0.44715625000000003,1.01953125,0.8911250000000001,-0.43909375,-1.0699375,0.9598125000000001,0.017356924292661217,0.024841755189856374,True
11581,52857,0,52858,2978.0,35307.0,26729.0,0.006771,0.002379,-0.0017079999999999999,0.2625,-1.61,-4.025,0.92134375,-3.125e-05,-0.437875,1.01428125,0.88453125,-0.43515625,-1.07015625,0.9713125,0.01780733446302395,0.025220475041913624,True
11582,52858,0,52859,2977.0,35309.0,26734.0,0.001403,0.0075639999999999995,-0.00549,0.6300000000000001,-0.4025,-4.0425,0.9444375,-0.013375,-0.45084375,1.04128125,0.89815625,-0.43943750000000004,-1.0750625,0.96940625,0.017433400420938494,0.024894005747742403,True
11583,52859,0,52860,2978.0,35309.0,26736.0,-0.000305,0.008173999999999999,-0.0059169999999999995,0.6825000000000001,0.5425000000000001,-3.9725000000000006,0.9568125000000001,-0.00846875,-0.44196875,1.0280625,0.8840625,-0.4306875,-1.06878125,0.961125,0.01728231143720372,0.02500370854686045,True
11584,52860,0,52861,2978.0,35310.0,26740.0,-0.004758,-0.0017079999999999999,-0.0013419999999999999,0.28,2.5900000000000003,-3.8675,0.94021875,-0.0038125,-0.43709375,1.0088125000000001,0.88534375,-0.43603125,-1.070125,0.9607187500000001,0.01768776384258389,0.025250422564705995,True
11585,52861,0,52862,2981.0,35309.0,26743.0,-0.009333,-0.0059169999999999995,0.000305,0.24500000000000002,3.4125000000000005,-3.7975000000000003,0.91659375,-0.0026875000000000002,-0.4463125,1.02340625,0.8916875,-0.43709375,-1.0734375,0.96309375,0.017776510351195096,0.02501152863463576,True
11586,52862,0,52863,2981.0,35315.0,26745.0,-0.012017,-0.006405,0.005063,0.15750000000000003,3.9025000000000003,-3.7625,0.91834375,-0.000625,-0.4411875,1.02015625,0.88646875,-0.4353125,-1.07396875,0.96959375,0.01778931617919763,0.025236581265181638,True
11587,52863,0,52864,2983.0,35314.0,26750.0,-0.012688,-0.0044529999999999995,0.005429,0.3325,3.9375000000000004,-3.7975000000000003,0.9455625,-0.00490625,-0.44371875,1.01759375,0.89425,-0.43678125,-1.0706875,0.9571875,0.017673154069748856,0.025008039767557236,True
11588,52864,0,52865,2984.0,35317.0,26751.0,-0.011712,-0.001281,0.0066489999999999995,0.385,3.7800000000000002,-3.9550000000000005,0.92909375,-0.0018125,-0.43996875,1.01625,0.8866875000000001,-0.436,-1.0715000000000001,0.96859375,0.017768354067768867,0.025189208862652815,True
11589,52865,0,52866,2984.0,35314.0,26744.0,-0.0048189999999999995,-0.0025009999999999998,0.006222,0.5425000000000001,3.0975,-3.8325000000000005,0.93084375,-0.0035,-0.44315625000000003,1.02428125,0.89390625,-0.43728125,-1.0734062500000001,0.96146875,0.017750798280803025,0.025136193850805573,True
11590,52866,0,52867,2984.0,35311.0,26737.0,-0.0032329999999999998,0.000732,0.001586,0.56,2.5375,-3.8150000000000004,0.93884375,-0.0064062500000000005,-0.44440625,1.02628125,0.87975,-0.43084375,-1.06653125,0.9565625,0.017373018482016202,0.024818950567801434,True
11591,52867,0,52868,2985.0,35308.0,26731.0,-0.004392,0.0044529999999999995,-0.000732,0.665,2.1175,-3.7100000000000004,0.94003125,-0.0069375,-0.44128125,1.0176875,0.8864062500000001,-0.4355,-1.06659375,0.962,0.017538519776554604,0.024946049959420593,True
11592,52868,0,52869,2987.0,35306.0,26727.0,-0.0032329999999999998,0.0057339999999999995,-0.0023179999999999997,0.7000000000000001,1.61,-3.7275000000000005,0.9254375,-0.0025625,-0.442875,1.01753125,0.89434375,-0.43971875,-1.0735937500000001,0.96909375,0.017887122780412518,0.025154700849374656,True
11593,52869,0,52870,2987.0,35305.0,26720.0,-0.0006709999999999999,0.0044529999999999995,-0.001647,0.6475000000000001,1.155,-3.4650000000000003,0.93134375,-0.00671875,-0.44559375,1.02321875,0.89371875,-0.43478125,-1.06965625,0.9624375000000001,0.01751857303817688,0.0248931414845387,True
11594,52870,0,52871,2987.0,35304.0,26718.0,0.001281,0.0044529999999999995,-6.1e-05,0.6125,0.24500000000000002,-3.3425000000000002,0.93190625,-0.00625,-0.43359375,1.006125,0.8872187500000001,-0.43565625,-1.0695000000000001,0.9626875,0.017572937088603875,0.025365733261532943,True
11595,52871,0,52872,2987.0,35303.0,26713.0,0.000183,-0.000305,0.0006709999999999999,0.56,-0.24500000000000002,-3.2375000000000003,0.9313750000000001,-0.00365625,-0.4428125,1.018875,0.89303125,-0.43893750000000004,-1.07290625,0.9685,0.017810972756078285,0.025130463286440915,True
11596,52872,0,52873,2987.0,35304.0,26711.0,-0.002013,-0.0032329999999999998,0.0013419999999999999,0.36750000000000005,-0.7350000000000001,-3.3950000000000005,0.934,-0.0054062500000000005,-0.44146875,1.0176875,0.8858125,-0.4351875,-1.06990625,0.9645,0.017588620918091994,0.025067405268019302,True
11597,52873,0,52874,2987.0,35302.0,26708.0,0.000976,-0.006161,-0.000305,0.22750000000000004,-1.33,-3.5875000000000004,0.9236875,-0.0039375,-0.44515625000000003,1.02525,0.8964062500000001,-0.43625,-1.07034375,0.96209375,0.0176914420174945,0.024937332580451752,True
11598,52874,0,52875,2988.0,35299.0,26705.0,0.009271999999999999,-0.0066489999999999995,0.000122,-0.08750000000000001,-1.9075000000000002,-3.8325000000000005,0.93753125,0.0,-0.44359375,1.0210000000000001,0.887,-0.43325,-1.0679687500000001,0.96265625,0.017731984079072574,0.024907283323464337,True
11599,52875,0,52876,2988.0,35300.0,26702.0,0.007442,-0.002257,0.0006709999999999999,0.0,-1.8025000000000002,-4.0075,0.931625,-0.0029375,-0.44184375000000004,1.01684375,0.8776875000000001,-0.4365625,-1.07146875,0.96640625,0.01774492627594409,0.02511320761772283,True
11600,52876,0,52877,2987.0,35298.0,26700.0,0.0070149999999999995,0.000976,-0.000549,0.2625,-1.4000000000000001,-4.130000000000001,0.930875,-0.0035625,-0.4420625,1.017625,0.887375,-0.4313125,-1.0735625,0.96990625,0.017508269357202972,0.025185890517153274,True
11601,52877,0,52878,2987.0,35297.0,26698.0,0.008845,0.003477,-0.003843,0.17500000000000002,-1.12,-4.305000000000001,0.9238125,-0.0032187500000000003,-0.44171875,1.0174375,0.8936875,-0.4366875,-1.0674062500000001,0.9605312500000001,0.017738441431556548,0.02496020105789765,True
11602,52878,0,52879,2986.0,35296.0,26698.0,0.006893,0.004758,-0.0046359999999999995,0.31500000000000006,-0.5775,-4.2875000000000005,0.9311875000000001,-0.0031875000000000002,-0.44159375,1.01821875,0.8865937500000001,-0.43653125,-1.0713125000000001,0.967875,0.017733439560903307,0.025117103462373582,True
11603,52879,0,52880,2987.0,35295.0,26701.0,0.003111,0.00549,-0.000305,0.21000000000000002,1.12,-4.4275,0.930875,-0.00328125,-0.44296875,1.01653125,0.88509375,-0.43834375000000003,-1.071,0.95684375,0.017802454390960926,0.025050107694148612,True
11604,52880,0,52881,2987.0,35296.0,26701.0,0.003721,0.002806,0.0011589999999999999,0.21000000000000002,2.0825,-4.4625,0.93659375,-0.0059375,-0.442125,1.01765625,0.888375,-0.43525,-1.07075,0.9625,0.017569392578344813,0.02507404046548269,True
11605,52881,0,52882,2988.0,35297.0,26705.0,0.002257,0.000244,0.001281,0.08750000000000001,3.0100000000000002,-4.567500000000001,0.93103125,-0.00471875,-0.44134375000000003,1.0235,0.89225,-0.43153125000000003,-1.07003125,0.9626875,0.017469740051598282,0.02507725234686335,True
11606,52882,0,52883,2988.0,35296.0,26707.0,-0.001281,-0.002379,0.003721,-0.14,4.095000000000001,-4.550000000000001,0.9355,-0.00346875,-0.44221875,1.0169062500000001,0.8873125000000001,-0.43590625,-1.071125,0.9693437500000001,0.017696806313455226,0.025084883506424228,True
11607,52883,0,52884,2987.0,35298.0,26708.0,-0.0070149999999999995,-0.0030499999999999998,0.002806,-0.28,5.285,-4.655,0.93090625,-0.00665625,-0.44271875,1.01396875,0.8924062500000001,-0.43534375000000003,-1.07040625,0.962125,0.017543747466208657,0.02503698957810067,True
11608,52884,0,52885,2988.0,35301.0,26714.0,-0.016042999999999998,0.00061,0.000549,0.0,6.2125,-4.4625,0.93103125,-0.00378125,-0.44209375,1.01790625,0.88725,-0.435375,-1.0718750000000001,0.9670625,0.01766266120327599,0.02511903278075534,True
11609,52885,0,52886,2990.0,35305.0,26719.0,-0.012688,-0.000915,0.000732,-0.0175,5.915000000000001,-4.2700000000000005,0.9315625000000001,-0.00334375,-0.44575000000000004,1.023375,0.89253125,-0.43240625,-1.070875,0.961875,0.01756120521285127,0.024934311227669554,True
11610,52886,0,52887,2991.0,35305.0,26721.0,-0.010369999999999999,-0.002928,0.0011589999999999999,0.035,5.460000000000001,-3.99,0.93640625,0.0037187500000000003,-0.43796875,1.01665625,0.8865000000000001,-0.4358125,-1.0745,0.9723437500000001,0.017987175585014822,0.025385600909290314,True
11611,52887,0,52888,2990.0,35308.0,26723.0,-0.009882,-0.0023179999999999997,0.002928,0.22750000000000004,4.812500000000001,-3.6225000000000005,0.93696875,-0.0054062500000000005,-0.4423125,1.01684375,0.88709375,-0.4275,-1.07165625,0.9657187500000001,0.017279449391055163,0.025101801960131773,True
11612,52888,0,52889,2992.0,35312.0,26727.0,-0.00976,-0.002562,0.0032329999999999998,0.4025,4.095000000000001,-3.2725000000000004,0.9176562500000001,-0.00390625,-0.44359375,1.02359375,0.9025625,-0.4413125,-1.06925,0.9593125,0.017896184994156922,0.024957118780976697,True
11613,52889,0,52890,2992.0,35310.0,26728.0,-0.0068319999999999995,-0.006771,0.005429,0.385,2.2925000000000004,-2.8525000000000005,0.935125,-0.00375,-0.44196875,1.0170937500000001,0.88584375,-0.4386875,-1.0772187500000001,0.9724375000000001,0.017797089144005792,0.025331756536996358,True
11614,52890,0,52891,2995.0,35314.0,26733.0,-0.007686,-0.003477,0.004209,0.6125,1.1375000000000002,-2.7125000000000004,0.9399375,-0.00496875,-0.44396875,1.0225,0.88071875,-0.4333125,-1.07009375,0.963125,0.017531137049059557,0.02497497640989077,True
11615,52891,0,52892,2994.0,35313.0,26732.0,-0.004148,0.0021349999999999997,0.003355,0.7350000000000001,0.052500000000000005,-2.87,0.9355,-0.00309375,-0.4425625,1.017125,0.88403125,-0.43165625,-1.07309375,0.9730625,0.017541279052663488,0.025147724340958126,True
11616,52892,0,52893,2995.0,35314.0,26734.0,-0.0008539999999999999,0.002928,0.000732,0.8225000000000001,-1.1025,-2.6425,0.928125,-0.0063125,-0.44509375,1.01684375,0.88334375,-0.43459375,-1.069,0.96465625,0.017527659939097617,0.024887560333479594,True
11617,52893,0,52894,2995.0,35314.0,26736.0,0.001952,0.003721,-0.0018909999999999999,0.8225000000000001,-2.0475000000000003,-2.6250000000000004,0.92909375,-0.0014375,-0.44184375000000004,1.0167187500000001,0.9063125,-0.4435,-1.07675,0.97884375,0.018085073741485467,0.02531852213703929,True
11618,52894,0,52895,2998.0,35313.0,26737.0,0.00671,0.003843,-0.0017079999999999999,0.7350000000000001,-3.8500000000000005,-2.8525000000000005,0.9270625,-0.00375,-0.43871875,1.0181875,0.89953125,-0.43909375,-1.07428125,0.95628125,0.017813416260576358,0.025347187170120782,True
11619,52895,0,52896,2996.0,35313.0,26737.0,0.010553,0.00244,-0.0030499999999999998,0.7000000000000001,-4.6025,-3.08,0.9380937500000001,-0.0064375000000000005,-0.44603125,1.01209375,0.87971875,-0.433875,-1.0671875,0.9600625,0.017493643558379506,0.024779654678052734,True
11620,52896,0,52897,2998.0,35314.0,26736.0,0.011467999999999999,0.001769,-0.002623,0.49000000000000005,-5.040000000000001,-3.08,0.9313125,-0.00278125,-0.437125,1.02209375,0.89171875,-0.4401875,-1.0724375,0.9565,0.017897008768856623,0.02533908001565464,True
11621,52897,0,52898,2998.0,35316.0,26737.0,0.007808,-0.000488,-0.0026839999999999998,0.43750000000000006,-5.285,-3.3075,0.93871875,-0.00265625,-0.4429375,1.0163125,0.88084375,-0.439,-1.075125,0.96609375,0.017854402798805187,0.025211738725130987,True
11622,52898,0,52899,2999.0,35317.0,26741.0,0.003111,-0.0026839999999999998,-0.004575,0.36750000000000005,-5.425000000000001,-3.5525,0.9356875,-0.007,-0.4458125,1.02340625,0.88725,-0.433,-1.0678125,0.95825,0.017435435681250767,0.024812695563284595,True
11623,52899,0,52900,2999.0,35318.0,26744.0,0.0034159999999999998,-0.0006709999999999999,-0.002074,0.36750000000000005,-5.862500000000001,-3.8325000000000005,0.93078125,-0.00290625,-0.442125,1.02075,0.890125,-0.44034375000000003,-1.0755000000000001,0.9658125000000001,0.017898172974756137,0.025258718669617757,True
11624,52900,0,52901,3000.0,35317.0,26745.0,0.006954,-0.001037,-0.000244,0.525,-6.282500000000001,-3.9200000000000004,0.93721875,-0.004125,-0.44234375000000004,1.0173125,0.88009375,-0.4335,-1.070125,0.974875,0.01757320891399104,0.025041009967042442,True
11625,52901,0,52902,3002.0,35318.0,26746.0,0.002623,-0.000793,0.004026,0.5950000000000001,-6.300000000000001,-3.8850000000000002,0.9341875000000001,-0.005875,-0.44246875,1.017375,0.887375,-0.43434375000000003,-1.07,0.9636875,0.01753551289872477,0.02503116274431592,True
11626,52902,0,52903,3003.0,35320.0,26749.0,-0.002257,0.002379,0.003294,0.6475000000000001,-6.615,-4.165,0.933125,-0.0063750000000000005,-0.441625,1.0131875000000001,0.8945625,-0.43090625,-1.07040625,0.96246875,0.017376811390285612,0.025080616713181503,True
11627,52903,0,52904,3004.0,35322.0,26748.0,0.0055509999999999995,0.005856,-0.001647,0.77,-6.9125000000000005,-4.532500000000001,0.931,-0.0073437500000000005,-0.44590625,1.01740625,0.89665625,-0.42993750000000003,-1.0705,0.96315625,0.017298192023618562,0.02491349394706927,True
11628,52904,0,52905,3003.0,35321.0,26750.0,0.00671,0.004575,-0.007076,0.7350000000000001,-6.562500000000001,-4.62,0.9311875000000001,-0.00584375,-0.44378125,1.017625,0.8872187500000001,-0.43503125000000004,-1.07075,0.95775,0.017564434258703885,0.025007977423890392,True
11629,52905,0,52906,3003.0,35322.0,26752.0,0.00671,-0.001037,-0.005307,0.45500000000000007,-5.74,-4.340000000000001,0.93190625,-0.00571875,-0.4425,1.0167187500000001,0.8946875,-0.43546875,-1.071375,0.9664375000000001,0.01758713959600223,0.025083386930313954,True
11630,52906,0,52907,3005.0,35323.0,26754.0,0.004575,-0.009394,-0.002745,0.1925,-4.567500000000001,-4.165,0.93353125,-0.00621875,-0.44559375,1.0208125000000001,0.8929375,-0.4351875,-1.06715625,0.9613125,0.017555369689714884,0.024795892035020927,True
11631,52907,0,52908,3006.0,35325.0,26756.0,0.001586,-0.013237,0.000793,-0.035,-3.4825000000000004,-4.1475,0.93121875,-0.00346875,-0.44271875,1.0181875,0.88684375,-0.435875,-1.0715000000000001,0.96275,0.01769555008772962,0.025079522565462777,True
11632,52908,0,52909,3008.0,35323.0,26759.0,0.0025009999999999998,-0.01098,0.0044529999999999995,-0.08750000000000001,-2.6425,-4.322500000000001,0.93203125,-0.0050625,-0.44553125,1.01740625,0.8941875,-0.43809375,-1.070875,0.962875,0.01771951832372359,0.02494303649154647,True
11633,52909,0,52910,3009.0,35326.0,26762.0,0.003111,0.0011589999999999999,0.003355,0.5075000000000001,-0.7175,-4.6375,0.9310625,-0.00040625000000000004,-0.4428125,1.01759375,0.88734375,-0.43584375000000003,-1.0715625,0.97096875,0.017819622045995447,0.025078213613531266,True
11634,52910,0,52911,3010.0,35329.0,26764.0,0.0011589999999999999,0.002196,0.003721,0.49000000000000005,0.28,-4.6725,0.9315625000000001,-0.00259375,-0.4420625,1.0205625,0.8951250000000001,-0.43859375,-1.07203125,0.9686250000000001,0.017840633731226865,0.02512635469054786,True
11635,52911,0,52912,3009.0,35329.0,26766.0,-0.0006709999999999999,0.002074,0.0006709999999999999,0.35000000000000003,1.2775,-4.8475,0.9402812500000001,-0.0074375000000000005,-0.44825,1.017125,0.886625,-0.43553125000000004,-1.0709375,0.96284375,0.01751931421585115,0.02483702494172785,True
11636,52912,0,52913,3013.0,35329.0,26768.0,-0.0034159999999999998,0.003904,-0.001464,0.29750000000000004,2.0300000000000002,-4.987500000000001,0.9391875000000001,-0.00228125,-0.44340625,1.0169062500000001,0.8873125000000001,-0.4355,-1.0718750000000001,0.96946875,0.017729072456057784,0.025066683285554038,True
11637,52913,0,52914,3014.0,35330.0,26771.0,-0.006039,0.006222,-0.001098,0.45500000000000007,2.87,-5.075,0.9329375,-0.00865625,-0.446375,1.018125,0.89615625,-0.439125,-1.07046875,0.96234375,0.017613918256075042,0.02489358121794193,True
11638,52914,0,52915,3015.0,35330.0,26772.0,-0.0060999999999999995,0.0068319999999999995,-0.00042699999999999997,0.43750000000000006,4.077500000000001,-5.1450000000000005,0.9291875,0.00053125,-0.436375,1.01140625,0.88715625,-0.43596875,-1.0730625,0.96225,0.01786301187670327,0.025393288115482505,True
11639,52915,0,52916,3015.0,35331.0,26776.0,-0.01098,0.003843,-0.001037,0.28,4.235,-4.987500000000001,0.92896875,-0.00253125,-0.442625,1.01440625,0.8882187500000001,-0.43793750000000004,-1.07334375,0.9700625,0.01781681657873133,0.025154951660565816,True
11640,52916,0,52917,3018.0,35334.0,26780.0,-0.01281,-0.000122,-0.000244,0.15750000000000003,4.165,-5.040000000000001,0.9282812500000001,-0.00228125,-0.4425,1.01759375,0.8958125,-0.4321875,-1.0741875,0.97021875,0.017595896806211066,0.02519274054244031,True
11641,52917,0,52918,3017.0,35335.0,26784.0,-0.01159,-0.000976,0.000366,0.1925,3.8500000000000005,-4.812500000000001,0.937125,-0.0069375,-0.442875,1.0214375,0.8876875000000001,-0.436375,-1.07184375,0.95646875,0.017573699044968822,0.025086657218817424,True
11642,52918,0,52919,3019.0,35337.0,26785.0,-0.010003999999999999,0.001464,0.002806,0.24500000000000002,3.325,-4.69,0.94478125,-0.008968750000000001,-0.44571875,1.01465625,0.8807812500000001,-0.43540625,-1.0719375,0.9626875,0.01745162309302715,0.02497687903058948,True
11643,52919,0,52920,3019.0,35337.0,26784.0,-0.0064659999999999995,0.0021349999999999997,0.0062829999999999995,0.4025,1.8025000000000002,-4.340000000000001,0.92921875,-0.0025,-0.44134375000000003,1.01540625,0.888625,-0.4383125,-1.0763125,0.96746875,0.01783316667220783,0.025321456254782274,True
11644,52920,0,52921,3021.0,35336.0,26779.0,-0.006222,-0.001281,0.005307,0.28,0.9100000000000001,-4.0425,0.9221875,-0.00946875,-0.44884375,1.0275,0.892875,-0.437625,-1.07146875,0.96278125,0.01752037073979161,0.024834005785959387,True
11645,52921,0,52922,3020.0,35334.0,26774.0,-0.0059169999999999995,-0.005124,0.003904,0.052500000000000005,-0.21000000000000002,-3.8850000000000002,0.9400625,-0.0037187500000000003,-0.44053125,1.01546875,0.88709375,-0.4355625,-1.07228125,0.96259375,0.017672756663571793,0.025197148743694796,True
11646,52922,0,52923,3020.0,35332.0,26766.0,-0.0055509999999999995,-0.005795,0.003721,0.07,-1.3125000000000002,-3.7100000000000004,0.9282812500000001,-0.00021875,-0.4420625,1.0159375,0.8901875,-0.43684375000000003,-1.07271875,0.96209375,0.017867487490073265,0.025153085961210325,True
11647,52923,0,52924,3018.0,35329.0,26759.0,-0.001647,-0.005124,0.002623,0.24500000000000002,-2.4675000000000002,-3.5875000000000004,0.92325,-0.0060625,-0.4441875,1.026,0.890625,-0.43778125,-1.0688125,0.96596875,0.017666037091644726,0.02491641756066427,True
11648,52924,0,52925,3019.0,35328.0,26756.0,-0.002745,-0.000732,-0.005612,0.15750000000000003,-4.865,-3.3950000000000005,0.939625,-0.006,-0.4458125,1.02359375,0.8885000000000001,-0.43553125000000004,-1.0721875,0.96296875,0.01757814248462472,0.024982861986015386,True
11649,52925,0,52926,3020.0,35324.0,26754.0,-0.002013,-0.001952,-0.006954,0.28,-6.317500000000001,-3.1500000000000004,0.93525,-0.005625,-0.43778125,1.01990625,0.88671875,-0.43540625,-1.07240625,0.9629062500000001,0.01758846346170324,0.0253116910148981,True
11650,52926,0,52927,3020.0,35325.0,26749.0,0.00183,-0.0021349999999999997,-0.005307,0.29750000000000004,-7.805000000000001,-3.1850000000000005,0.93125,-0.00375,-0.44378125,1.01790625,0.887375,-0.43725,-1.07484375,0.96496875,0.0177393119111193,0.0251671558272422,True
11651,52927,0,52928,3020.0,35322.0,26744.0,0.0068319999999999995,-0.002379,-0.0046359999999999995,0.24500000000000002,-9.3975,-3.4475000000000002,0.93903125,-0.00625,-0.44390625,1.01928125,0.88803125,-0.43534375000000003,-1.07221875,0.963375,0.01756037297408595,0.025060107614129683,True
11652,52928,0,52929,3020.0,35321.0,26741.0,0.009699,-0.00061,-0.000488,0.36750000000000005,-10.6925,-3.3425000000000002,0.931875,-0.0032500000000000003,-0.44290625,1.01784375,0.88684375,-0.4415625,-1.0794375,0.9603125,0.017933080178486955,0.025380603133543164,True
11653,52929,0,52930,3018.0,35316.0,26733.0,0.013359,0.004575,0.002074,0.7525000000000001,-12.4425,-3.535,0.9340625,-0.007125,-0.44671875,1.025375,0.8885937500000001,-0.43371875,-1.07103125,0.956375,0.017459223230192906,0.024901747908754254,True
11654,52930,0,52931,3017.0,35313.0,26726.0,0.015067,0.005063,0.003355,0.5950000000000001,-12.600000000000001,-3.6750000000000003,0.9371875000000001,-0.002625,-0.44346875,1.01825,0.88771875,-0.44175000000000003,-1.08228125,0.9833125,0.017966184909018384,0.025468676219392923,True
11655,52931,0,52932,3016.0,35309.0,26723.0,0.018543999999999998,0.003111,0.002928,0.28,-12.215000000000002,-3.7625,0.9314375,-0.00425,-0.4478125,1.0259375,0.90790625,-0.4303125,-1.0618750000000001,0.95125,0.01743991199457641,0.024501857901693316,True
11656,52932,0,52933,3016.0,35309.0,26715.0,0.017811999999999998,-0.000122,-0.0030499999999999998,0.1925,-11.620000000000001,-3.8325000000000005,0.93459375,0.00196875,-0.4435,1.01678125,0.89109375,-0.445125,-1.075375,0.967875,0.01828968966204918,0.02519902493980648,True
11657,52933,0,52934,3015.0,35309.0,26718.0,0.006161,-0.000122,-0.006954,0.052500000000000005,-10.360000000000001,-4.0075,0.9375625,-0.00578125,-0.44303125,1.01734375,0.86275,-0.43159375,-1.07534375,0.98565625,0.017428764752606445,0.025216503761787912,True
11658,52934,0,52935,3015.0,35308.0,26719.0,0.008235,-0.000244,-0.008601,-0.24500000000000002,-8.33,-4.340000000000001,0.9314375,-0.0037187500000000003,-0.4471875,1.01578125,0.90365625,-0.43084375,-1.0673125,0.95646875,0.01748302286940049,0.02473839187986347,True
11659,52935,0,52936,3014.0,35306.0,26715.0,0.011895,0.0,-0.010309,-0.21000000000000002,-7.437500000000001,-4.6725,0.9316875,-0.00334375,-0.4443125,1.02646875,0.887875,-0.4433125,-1.07475,0.94071875,0.017999555093034136,0.025142324449894816,True
11660,52936,0,52937,3016.0,35306.0,26715.0,0.01342,0.001769,-0.007808,-0.21000000000000002,-6.125000000000001,-4.795000000000001,0.9371875000000001,-0.00278125,-0.443625,1.01459375,0.87390625,-0.43028125,-1.07928125,0.9634375000000001,0.017498775213650068,0.025345871903725312,True
11661,52937,0,52938,3014.0,35306.0,26720.0,0.009516,0.0026839999999999998,-0.0046359999999999995,-0.1925,-4.2700000000000005,-4.987500000000001,0.94075,-0.00378125,-0.4440625,1.02465625,0.87365625,-0.43693750000000003,-1.0755625,0.9510000000000001,0.017725471941809404,0.02518388171750883,True
11662,52938,0,52939,3014.0,35308.0,26720.0,-0.007503,-0.0015249999999999999,0.000244,-0.17500000000000002,-0.8925000000000001,-4.812500000000001,0.9366875,-0.00346875,-0.4464375,1.02246875,0.865125,-0.4419375,-1.0754375,0.955125,0.017939197741586563,0.025084308100307325,True
11663,52939,0,52940,3015.0,35311.0,26721.0,-0.013725,-0.002074,0.004575,-0.07,0.28,-4.952500000000001,0.9314687500000001,-0.00725,-0.44284375000000004,1.0179375,0.901625,-0.43775000000000003,-1.0685,0.982875,0.017616188069687268,0.02495786544867064,True
11664,52940,0,52941,3013.0,35311.0,26727.0,-0.013481,-0.001281,0.007076,0.0,1.12,-5.1450000000000005,0.93934375,-0.00715625,-0.44353125,1.017125,0.8899375,-0.4318125,-1.06971875,0.97403125,0.017381283111926306,0.024977843040221586,True
11665,52941,0,52942,3014.0,35315.0,26733.0,-0.012871,-0.0026839999999999998,0.006893,-0.12250000000000001,1.6625,-5.1450000000000005,0.93221875,-0.0061875,-0.44553125,1.0169375,0.89165625,-0.43228125,-1.06765625,0.95640625,0.017439785734293643,0.024817836729351197,True
11666,52942,0,52943,3016.0,35317.0,26735.0,-0.013115,-0.003477,0.007259,-0.12250000000000001,2.0475000000000003,-5.1275,0.926125,-0.0075,-0.44625000000000004,1.01815625,0.8901875,-0.4375625,-1.07065625,0.96321875,0.01759842046439779,0.02490585981370153,True
11667,52943,0,52944,3015.0,35317.0,26739.0,-0.012931999999999999,-0.0025009999999999998,0.002806,-0.17500000000000002,1.8550000000000002,-4.952500000000001,0.93315625,-0.006500000000000001,-0.43921875,1.01646875,0.895375,-0.43578125,-1.073,0.96759375,0.0175677317458389,0.025277439875563353,True
11668,52944,0,52945,3017.0,35320.0,26740.0,-0.013603,-0.000183,0.001769,-0.14,1.4175000000000002,-5.022500000000001,0.93815625,-0.0064687500000000005,-0.44346875,1.0170937500000001,0.88525,-0.43571875,-1.07296875,0.97,0.017566497813779263,0.025106719761695546,True
11669,52945,0,52946,3017.0,35323.0,26744.0,-0.010309,0.001952,0.000976,0.0175,0.6475000000000001,-4.8825,0.93703125,-0.0058125,-0.443375,1.01771875,0.89434375,-0.4355625,-1.07271875,0.96503125,0.017587072120807533,0.02510073822768023,True
11670,52946,0,52947,3016.0,35324.0,26748.0,-0.004026,0.005246,0.000183,-0.035,-0.4025,-4.9175,0.93575,-0.0054375000000000005,-0.443125,1.011375,0.8955625,-0.43871875,-1.07215625,0.9620625,0.017729294830564717,0.025088837343218134,True
11671,52947,0,52948,3018.0,35325.0,26746.0,-0.0021349999999999997,0.006405,-0.000549,0.17500000000000002,-1.435,-4.7250000000000005,0.93340625,-0.00578125,-0.44334375000000004,1.01234375,0.89584375,-0.4360625,-1.07190625,0.96203125,0.017608452671128993,0.02507039128706059,True
11672,52948,0,52949,3017.0,35326.0,26749.0,0.00122,-0.0028669999999999998,0.002623,-0.24500000000000002,-3.325,-4.4975000000000005,0.92759375,-0.00040625000000000004,-0.44390625,1.0178125,0.88709375,-0.4356875,-1.072,0.9695,0.017813341654496113,0.025051601388002557,True
11673,52949,0,52950,3020.0,35329.0,26750.0,0.0037819999999999998,-0.003111,0.000488,-0.28,-4.322500000000001,-4.69,0.93678125,-0.00309375,-0.44409375,1.020125,0.8894375,-0.43543750000000003,-1.07365625,0.9688125,0.01769330915396952,0.025108524011132203,True
11674,52950,0,52951,3020.0,35328.0,26752.0,0.005795,-0.0025009999999999998,-0.00183,-0.15750000000000003,-5.232500000000001,-4.585000000000001,0.9371875000000001,-0.00284375,-0.44290625,1.01696875,0.8914062500000001,-0.43546875,-1.0736875000000001,0.9692500000000001,0.017704796434486244,0.02515709944937298,True
11675,52951,0,52952,3021.0,35329.0,26755.0,0.009882,-0.002257,-0.002257,-0.21000000000000002,-5.985,-4.550000000000001,0.93853125,-0.0064062500000000005,-0.443375,1.0180625,0.89403125,-0.43509375,-1.07253125,0.96890625,0.017543926959559957,0.025093447635048807,True
11676,52952,0,52953,3022.0,35328.0,26753.0,0.011651,-0.001464,-0.003477,-0.22750000000000004,-6.16,-4.375,0.9429375,-0.0035,-0.4438125,1.02359375,0.89315625,-0.43515625,-1.073625,0.96915625,0.017665377114173358,0.025118525941103455,True
11677,52953,0,52954,3023.0,35330.0,26757.0,0.00793,0.0008539999999999999,-0.004148,-0.07,-5.880000000000001,-4.235,0.95353125,-0.00178125,-0.442875,1.0125625,0.89209375,-0.42834375,-1.07259375,0.96246875,0.017461785553922377,0.025115819937855454,True
11678,52954,0,52955,3023.0,35331.0,26757.0,0.008418,0.001769,-0.005124,-0.0175,-6.0375000000000005,-4.2525,0.9356875,-0.0074375000000000005,-0.4446875,1.0163125,0.8810625,-0.43678125,-1.07403125,0.9625,0.017569570460512267,0.025099424329703662,True
11679,52955,0,52956,3022.0,35329.0,26759.0,0.007625,0.001281,-0.009089,-0.035,-5.862500000000001,-4.2875000000000005,0.9255,-0.00171875,-0.4448125,1.0315,0.88234375,-0.4360625,-1.07346875,0.96165625,0.017774702859759017,0.025072567990816984,True
11680,52956,0,52957,3023.0,35330.0,26757.0,0.002989,0.0013419999999999999,-0.0053679999999999995,-0.035,-5.2675,-4.375,0.94415625,-0.00496875,-0.442125,1.011875,0.8932187500000001,-0.43571875,-1.071,0.9626250000000001,0.017627883362342268,0.025083762115591716,True
11681,52957,0,52958,3025.0,35331.0,26759.0,0.0023179999999999997,0.002562,-0.0013419999999999999,0.28,-4.8475,-4.2875000000000005,0.9293750000000001,-0.012125,-0.44934375,1.02975,0.88275,-0.43665625,-1.07515625,0.963,0.017372722587608525,0.0249574716009995,True
11682,52958,0,52959,3025.0,35330.0,26763.0,-0.002562,-0.002013,0.00122,0.17500000000000002,-4.1475,-4.0600000000000005,0.9284375,-0.00096875,-0.44125000000000003,1.00521875,0.88790625,-0.42971875,-1.07296875,0.9638125000000001,0.01755034531455668,0.025195211476502957,True
11683,52959,0,52960,3026.0,35334.0,26767.0,-0.006954,-0.003294,0.003538,0.12250000000000001,-3.7625,-4.1475,0.9490625,-0.008812500000000001,-0.43984375000000003,1.012125,0.8954062500000001,-0.438,-1.07196875,0.951625,0.017562300515590476,0.02521241974665431,True
11684,52960,0,52961,3028.0,35336.0,26768.0,-0.003355,-0.00549,0.0042699999999999995,0.12250000000000001,-3.7275000000000005,-4.2,0.92578125,-0.01203125,-0.44759375,1.0269375,0.8869375,-0.43740625,-1.07534375,0.9626875,0.017406716394052665,0.02503455211855271,True
11685,52961,0,52962,3027.0,35339.0,26772.0,-0.000549,-0.0035989999999999998,0.0028669999999999998,0.1925,-3.6225000000000005,-3.9200000000000004,0.9284687500000001,0.0023125,-0.44153125,1.012375,0.88696875,-0.43571875,-1.0693125,0.9623125,0.017925859045991845,0.025041821549753318,True
11686,52962,0,52963,3027.0,35342.0,26773.0,-0.001586,-0.001769,0.004148,0.36750000000000005,-3.22,-3.7100000000000004,0.929125,-0.0073437500000000005,-0.450375,1.0140625,0.8875625,-0.43775000000000003,-1.0679375,0.9593125,0.01761235179179753,0.02463555288503492,True
11687,52963,0,52964,3031.0,35338.0,26775.0,0.006405,0.002379,0.001403,0.6300000000000001,-2.4675000000000002,-3.5000000000000004,0.93625,-0.000875,-0.441,1.01234375,0.88703125,-0.43503125000000004,-1.07234375,0.95659375,0.017767779609449037,0.02518088282033864,True
11688,52964,0,52965,3031.0,35341.0,26780.0,0.0059169999999999995,0.0050019999999999995,-0.0025009999999999998,0.6475000000000001,-2.0475000000000003,-3.5700000000000003,0.93771875,-0.00984375,-0.447625,1.01846875,0.8941875,-0.43409375,-1.07509375,0.96228125,0.017363033977881828,0.025023585405338715,True
11689,52965,0,52966,3031.0,35341.0,26780.0,0.005978,0.005612,-0.003904,0.665,-1.4525000000000001,-3.8325000000000005,0.92425,-0.0013125,-0.44184375000000004,1.0129062500000001,0.88715625,-0.435125,-1.073125,0.964,0.017753643576613583,0.02517760550390109,True
11690,52966,0,52967,3033.0,35344.0,26785.0,0.0062829999999999995,0.006405,-0.0050019999999999995,0.525,-0.7175,-3.9025000000000003,0.9303750000000001,-0.0020625,-0.44525000000000003,1.0244375000000001,0.89475,-0.43803125,-1.0736875000000001,0.96265625,0.017839765631693427,0.025063624965414446,True
11691,52967,0,52968,3033.0,35345.0,26786.0,0.0018909999999999999,0.0048189999999999995,-0.007259,0.35000000000000003,0.052500000000000005,-4.0600000000000005,0.9364687500000001,-0.0036875000000000002,-0.4438125,1.01703125,0.88678125,-0.436,-1.07309375,0.9689375,0.01769162301522344,0.025097870102288436,True
11692,52968,0,52969,3034.0,35347.0,26787.0,-0.0013419999999999999,-0.0011589999999999999,-0.0011589999999999999,0.08750000000000001,1.8025000000000002,-4.112500000000001,0.9354375,-0.00621875,-0.442125,1.0110937500000001,0.88728125,-0.4353125,-1.07278125,0.96246875,0.01756039543181615,0.025153023261031325,True
11693,52969,0,52970,3034.0,35348.0,26792.0,-0.0017079999999999999,-0.001952,-0.00042699999999999997,0.07,2.5725000000000002,-3.8675,0.9316562500000001,-0.00378125,-0.44584375,1.01696875,0.8814062500000001,-0.43865625,-1.0677812500000001,0.963125,0.01779455447760144,0.02481023325508715,True
11694,52970,0,52971,3036.0,35348.0,26797.0,-0.00549,-0.00366,0.003538,0.1925,3.3425000000000002,-3.8325000000000005,0.9319375,-0.0041875,-0.44575000000000004,1.02325,0.887,-0.4395625,-1.07459375,0.9527187500000001,0.0178143532643025,0.025078920770152058,True
11695,52971,0,52972,3037.0,35351.0,26799.0,-0.007808,-0.003538,0.0051849999999999995,0.22750000000000004,3.9550000000000005,-3.7625,0.9344375,-0.00259375,-0.43778125,1.0105625,0.88634375,-0.43515625,-1.07259375,0.96690625,0.017702465070179366,0.025318980011790764,True
11696,52972,0,52973,3039.0,35353.0,26803.0,-0.0073809999999999995,-0.0035989999999999998,0.002745,0.29750000000000004,4.0600000000000005,-3.8150000000000004,0.93071875,-0.00375,-0.444125,1.02384375,0.8953125000000001,-0.438125,-1.07259375,0.9653125,0.01777448147106212,0.025065964704987894,True
11697,52973,0,52974,3038.0,35354.0,26807.0,-0.011041,0.004575,0.001586,0.56,4.0075,-4.025,0.9383125,-0.0032187500000000003,-0.440625,1.01765625,0.887375,-0.43434375000000003,-1.06190625,0.9523125,0.017644222591408867,0.02478986409902479,True
11698,52974,0,52975,3040.0,35357.0,26812.0,-0.010797,0.004148,0.0025009999999999998,0.5950000000000001,3.7450000000000006,-4.025,0.93090625,-0.0034375,-0.4438125,1.0253125,0.8900625,-0.43859375,-1.0736875000000001,0.9670625,0.017806108422257317,0.02512095598224235,True
11699,52975,0,52976,3040.0,35357.0,26811.0,-0.013297999999999999,0.0,0.004026,0.5075000000000001,3.0975,-3.9375000000000004,0.937875,-0.0054375000000000005,-0.446375,1.023875,0.8905625,-0.43843750000000004,-1.073625,0.95515625,0.01771799035842615,0.025016326917228764,True
11700,52976,0,52977,3041.0,35357.0,26810.0,-0.01342,-0.002989,0.005246,0.31500000000000006,2.2575000000000003,-3.8325000000000005,0.9313125,0.00334375,-0.44178125,1.01440625,0.88684375,-0.43525,-1.07253125,0.963,0.017949222946358232,0.02515701321540879,True
11701,52977,0,52978,3043.0,35355.0,26804.0,-0.011773,-0.0037819999999999998,0.007137,0.2625,0.8750000000000001,-3.99,0.931625,-0.00365625,-0.43884375000000003,1.01475,0.8874062500000001,-0.4353125,-1.07246875,0.96684375,0.017665264154080287,0.025271743533432468,True
11702,52978,0,52979,3042.0,35352.0,26796.0,-0.0035989999999999998,-0.002928,-0.001098,0.24500000000000002,-2.4325,-3.9550000000000005,0.93015625,-0.00075,-0.4463125,1.024375,0.89546875,-0.438125,-1.07284375,0.95646875,0.017897240479783128,0.024988439933144802,True
11703,52979,0,52980,3044.0,35351.0,26790.0,-0.000732,-0.0015249999999999999,-0.000122,0.28,-3.7800000000000002,-3.8500000000000005,0.94021875,-0.0061875,-0.44275000000000003,1.0176875,0.8875000000000001,-0.435375,-1.072125,0.964125,0.017564187167170547,0.025102579059413592,True
11704,52980,0,52981,3044.0,35349.0,26786.0,0.002257,0.0023179999999999997,-0.00183,0.47250000000000003,-5.180000000000001,-3.7975000000000003,0.9313125,-0.0034375,-0.445625,1.024875,0.8941875,-0.4388125,-1.07271875,0.96359375,0.017814899967009443,0.025010999255914358,True
11705,52981,0,52982,3044.0,35350.0,26782.0,0.0035989999999999998,0.004514,6.1e-05,0.6300000000000001,-6.44,-3.7975000000000003,0.92778125,-0.006500000000000001,-0.44240625,1.0084375,0.888125,-0.4325625,-1.07203125,0.9625625,0.01743830594928387,0.02511264419391628,True
11706,52982,0,52983,3043.0,35347.0,26783.0,0.007686,0.004392,-6.1e-05,0.5075000000000001,-7.682500000000001,-3.7450000000000006,0.9204687500000001,-0.0074062500000000005,-0.446125,1.012375,0.89434375,-0.43796875,-1.07265625,0.9634375000000001,0.01761858787874913,0.02498862680335276,True
11707,52983,0,52984,3044.0,35344.0,26774.0,0.009577,0.000183,-0.001037,0.1925,-9.555000000000001,-3.8150000000000004,0.93103125,-0.0036875000000000002,-0.4405,1.0161875,0.88728125,-0.43415625,-1.06821875,0.96946875,0.017617500092723684,0.02504042095132906,True
11708,52984,0,52985,3045.0,35345.0,26772.0,0.011224,-0.000915,-0.001037,-0.0175,-10.0975,-3.9725000000000006,0.9376875,-0.0056875,-0.4458125,1.019875,0.88578125,-0.43540625,-1.07225,0.96315625,0.017585905697802752,0.024985292504661527,True
11709,52985,0,52986,3043.0,35342.0,26767.0,0.012322,-0.002745,-0.002379,-0.17500000000000002,-10.727500000000001,-4.112500000000001,0.9318125,-0.0008125000000000001,-0.44353125,1.018125,0.8868125,-0.4331875,-1.06875,0.9685625,0.0176962174910662,0.024940164547494394,True
11710,52986,0,52987,3046.0,35339.0,26765.0,0.014701,-0.004697,-0.002989,-0.21000000000000002,-10.780000000000001,-4.130000000000001,0.93090625,-0.00415625,-0.4445,1.0165625,0.89496875,-0.4368125,-1.0737812500000001,0.95825,0.017705101678052323,0.025097181941794285,True
11711,52987,0,52988,3044.0,35339.0,26760.0,0.014274,-0.002989,-0.005063,-0.28,-10.5525,-4.322500000000001,0.93590625,-0.0038125,-0.44309375,1.017625,0.88684375,-0.4355625,-1.07303125,0.96246875,0.01766892004225399,0.025124106204749377,True
11712,52988,0,52989,3043.0,35336.0,26758.0,0.011285,-0.000732,-0.005795,-0.10500000000000001,-9.467500000000001,-4.4975000000000005,0.93225,-0.00196875,-0.44453125,1.02015625,0.884375,-0.4363125,-1.07253125,0.96340625,0.01777452101253002,0.02504733142968961,True
11713,52989,0,52990,3042.0,35335.0,26758.0,0.011285,-0.000915,-0.004758,0.052500000000000005,-8.680000000000001,-4.375,0.9350937500000001,-0.00346875,-0.44321875,1.01990625,0.88715625,-0.43293750000000003,-1.0724375,0.9619062500000001,0.017577450521452855,0.025096034240787317,True
11714,52990,0,52991,3043.0,35336.0,26756.0,0.010675,0.002013,-0.0046359999999999995,0.08750000000000001,-7.612500000000001,-4.41,0.9340937500000001,-0.00278125,-0.44371875,1.01825,0.88865625,-0.43515625,-1.07253125,0.9625312500000001,0.017694791699971225,0.025079737411833915,True
11715,52991,0,52992,3043.0,35337.0,26758.0,0.007442,0.0013419999999999999,-0.003538,0.0,-6.370000000000001,-4.41,0.9332812500000001,-0.002625,-0.44421875,1.0218125,0.8865000000000001,-0.4363125,-1.0725,0.9608125000000001,0.01774766548758124,0.02505858011765879,True
11716,52992,0,52993,3044.0,35340.0,26759.0,-0.002928,0.002928,-0.00042699999999999997,-0.08750000000000001,-4.9175,-4.4275,0.92896875,-0.004875,-0.44528125,1.01828125,0.8855937500000001,-0.43415625,-1.070125,0.96403125,0.017568900092467896,0.024923838632635455,True
11717,52993,0,52994,3043.0,35337.0,26761.0,-0.0035989999999999998,0.001464,0.0011589999999999999,0.2625,-2.7825,-4.585000000000001,0.93215625,-0.00284375,-0.4438125,1.01328125,0.89553125,-0.4391875,-1.0757812500000001,0.9634375000000001,0.017854265817961422,0.025202355360314056,True
11718,52994,0,52995,3043.0,35339.0,26765.0,-0.002379,0.0013419999999999999,0.000366,0.28,-1.9425000000000001,-4.445,0.9324687500000001,-0.0013125,-0.43690625,1.04659375,0.88396875,-0.43590625,-1.071375,0.96034375,0.017785047362423895,0.025306499942663693,True
11719,52995,0,52996,3045.0,35341.0,26772.0,-0.0023179999999999997,-0.000244,0.00122,0.36750000000000005,-0.9975,-4.41,0.9463125,0.00215625,-0.44390625,1.0103125,0.89465625,-0.43984375000000003,-1.078125,0.96015625,0.01808522200556213,0.025289719626168227,True
11720,52996,0,52997,3044.0,35343.0,26774.0,-0.0073809999999999995,0.000305,0.0028669999999999998,0.35000000000000003,0.17500000000000002,-4.322500000000001,0.927125,-0.00765625,-0.44375000000000003,1.03496875,0.88409375,-0.434375,-1.07096875,0.9617187500000001,0.01746387006010999,0.02501773091636118,True
11721,52997,0,52998,3044.0,35346.0,26779.0,-0.008479,-0.000305,0.002623,0.2625,1.1725,-4.4625,0.95453125,-0.01340625,-0.44921875,1.03828125,0.8916875,-0.43915625,-1.07353125,0.96496875,0.0174208141903426,0.024899265036710777,True
11722,52998,0,52999,3046.0,35346.0,26781.0,-0.007686,-0.0015249999999999999,0.004514,0.17500000000000002,1.3650000000000002,-4.357500000000001,0.93321875,-0.00121875,-0.43771875,1.01315625,0.89453125,-0.441375,-1.07184375,0.9591875,0.01800865335931387,0.02529231620630214,True
11723,52999,0,53000,3046.0,35349.0,26784.0,-0.006771,-0.002257,0.0037819999999999998,0.28,1.4875,-4.2875000000000005,0.9468125000000001,-0.01065625,-0.4408125,1.00803125,0.8844062500000001,-0.43540625,-1.07728125,0.95075,0.017382563467713986,0.025380293168742123,True
11724,53000,0,53001,3048.0,35352.0,26787.0,-0.0060999999999999995,-0.002257,0.004209,0.35000000000000003,1.5225000000000002,-4.1825,0.94159375,-0.01303125,-0.44625000000000004,1.0059375,0.871,-0.43946875,-1.07009375,0.9725,0.017448722161769577,0.02488398153676629,True
11725,53001,0,53002,3048.0,35352.0,26789.0,-0.008052,-0.0006709999999999999,0.0034159999999999998,0.42000000000000004,1.6450000000000002,-4.2175,0.91290625,-0.010125,-0.44365625000000003,1.00665625,0.8845000000000001,-0.4338125,-1.077375,0.9669375,0.017340212461726963,0.02527053768586225,True
11726,53002,0,53003,3049.0,35354.0,26791.0,-0.0025009999999999998,0.0008539999999999999,0.0015249999999999999,0.2625,1.155,-4.2175,0.9539062500000001,-0.0105,-0.44265625000000003,1.00746875,0.8844375,-0.43709375,-1.07746875,0.965,0.017456811941886502,0.025314058062578585,True
11727,53003,0,53004,3049.0,35353.0,26793.0,0.000183,0.0026839999999999998,-0.001403,0.2625,0.7350000000000001,-4.1825,0.93109375,-0.0085625,-0.44921875,1.04134375,0.88484375,-0.43271875,-1.071125,0.96628125,0.01736017404939841,0.02480567784652664,True
11728,53004,0,53005,3050.0,35355.0,26794.0,0.0008539999999999999,0.0023179999999999997,-0.0023179999999999997,0.29750000000000004,0.42000000000000004,-4.1475,0.92759375,0.00075,-0.43728125,1.0331875,0.8935625,-0.431875,-1.07240625,0.9625625,0.01770740068046353,0.025331633257178892,True
11729,53005,0,53006,3051.0,35356.0,26795.0,0.0023179999999999997,0.003477,-0.001464,0.28,0.45500000000000007,-4.235,0.9496875,-0.01153125,-0.443625,1.006125,0.88809375,-0.43665625,-1.0755625,0.96103125,0.017397020101717068,0.025201328983148436,True
11730,53006,0,53007,3052.0,35355.0,26797.0,0.001281,0.0026839999999999998,-0.00122,0.29750000000000004,0.24500000000000002,-4.2875000000000005,0.9186562500000001,-0.00721875,-0.444375,1.0305,0.88715625,-0.43540625,-1.06984375,0.95484375,0.017523240482240805,0.02494904859548636,True
11731,53007,0,53008,3053.0,35356.0,26799.0,-0.000366,0.000915,-0.002989,-0.15750000000000003,0.10500000000000001,-4.4275,0.92525,0.0006875,-0.439625,1.0103125,0.8945000000000001,-0.43646875,-1.072875,0.96175,0.017889501730891457,0.02525637765912366,True
11732,53008,0,53009,3053.0,35354.0,26800.0,-0.0013419999999999999,-0.0013419999999999999,-0.0032329999999999998,-0.15750000000000003,-0.31500000000000006,-4.4625,0.9388125,-0.002625,-0.441125,1.018,0.8911875,-0.43796875,-1.0730625,0.97003125,0.017814236299815222,0.025203841772420105,True
11733,53009,0,53010,3053.0,35360.0,26804.0,-0.000915,-0.0025009999999999998,0.0018909999999999999,-0.07,-0.3325,-4.3925,0.932,-0.0041875,-0.44715625000000003,1.02003125,0.88571875,-0.43578125,-1.07253125,0.9639062500000001,0.017662367557820562,0.024942635179684935,True
11734,53010,0,53011,3053.0,35358.0,26803.0,-0.00061,-0.00366,0.001403,-0.07,-0.6125,-4.375,0.93184375,-0.00353125,-0.4433125,1.01828125,0.8899375,-0.43925000000000003,-1.07403125,0.96709375,0.017828646541935618,0.02515426194182477,True
11735,53011,0,53012,3056.0,35361.0,26807.0,-0.0025009999999999998,-0.004209,0.003355,-0.12250000000000001,-0.8225000000000001,-4.41,0.9333750000000001,-0.0025625,-0.4465,1.02228125,0.88715625,-0.43590625,-1.06878125,0.9629375,0.01773389313113771,0.02482295584273767,True
11736,53012,0,53013,3056.0,35363.0,26808.0,-6.1e-05,-0.001647,0.001586,-0.07,-1.5750000000000002,-4.41,0.9389375,0.001,-0.44415625000000003,1.01746875,0.88184375,-0.43603125,-1.07571875,0.96921875,0.017884706625590028,0.025186217244520658,True
11737,53013,0,53014,3058.0,35366.0,26811.0,-0.000488,0.000366,0.001098,0.052500000000000005,-1.9250000000000003,-4.41,0.93121875,-0.002875,-0.44359375,1.01765625,0.895625,-0.43821875,-1.0770625,0.96784375,0.01781405406234855,0.02526088332714408,True
11738,53014,0,53015,3058.0,35365.0,26813.0,0.000549,0.002379,-0.000488,-0.052500000000000005,-2.0475000000000003,-4.2525,0.9353125,-0.0045625,-0.44209375,1.0255,0.88715625,-0.435125,-1.07165625,0.9633125,0.01762063832290606,0.02511052695212348,True
11739,53015,0,53016,3059.0,35369.0,26814.0,0.0021349999999999997,0.000793,-0.002257,0.15750000000000003,-2.345,-4.1825,0.933875,-0.00428125,-0.43915625,1.0171875,0.8798750000000001,-0.435375,-1.06784375,0.9713437500000001,0.01764219906590343,0.025079440667887518,True
11740,53016,0,53017,3061.0,35370.0,26819.0,0.000549,0.001464,-0.001952,0.21000000000000002,-2.765,-4.130000000000001,0.93115625,-0.00275,-0.44334375000000004,1.022,0.8885000000000001,-0.4376875,-1.076375,0.9619375,0.01779781740805058,0.025244129185338793,True
11741,53017,0,53018,3060.0,35371.0,26820.0,0.0015249999999999999,0.0021349999999999997,-0.0008539999999999999,0.24500000000000002,-3.5700000000000003,-4.1475,0.9401875000000001,-0.00459375,-0.44759375,1.0176875,0.8874062500000001,-0.435125,-1.0725,0.9635,0.017619359426235798,0.024923970485591782,True
11742,53018,0,53019,3062.0,35372.0,26821.0,0.003111,0.00183,-0.0011589999999999999,0.1925,-3.9550000000000005,-4.1475,0.93290625,-0.0036875000000000002,-0.440375,1.014,0.8904375,-0.43915625,-1.0766875,0.9685,0.017818485447917212,0.025374663220570904,True
11743,53019,0,53020,3064.0,35373.0,26824.0,0.003965,0.0013419999999999999,-0.000183,0.22750000000000004,-4.130000000000001,-3.9725000000000006,0.9316562500000001,-0.00284375,-0.44425000000000003,1.02425,0.8953125000000001,-0.4348125,-1.071125,0.9627187500000001,0.017678414761725714,0.025003864006900373,True
11744,53020,0,53021,3063.0,35374.0,26825.0,0.0075639999999999995,-0.000366,-0.001586,0.1925,-4.375,-3.8675,0.9361875000000001,0.0021875,-0.44390625,1.0175,0.88703125,-0.437625,-1.07296875,0.97146875,0.01799735039718467,0.02508927069117015,True
11745,53021,0,53022,3064.0,35374.0,26827.0,0.008296,-0.000793,-0.0011589999999999999,0.14,-4.1475,-3.9200000000000004,0.93221875,-0.0025625,-0.44278125,1.02384375,0.88390625,-0.43803125,-1.07428125,0.9623125,0.017819305718417885,0.025185168567892654,True
11746,53022,0,53023,3066.0,35374.0,26831.0,-0.00122,-0.000305,-0.0021349999999999997,0.2625,-3.22,-3.6575,0.9364687500000001,-0.00609375,-0.44359375,1.0173125,0.88315625,-0.43565625,-1.0734062500000001,0.9665312500000001,0.0175793314329342,0.02511874508474492,True
