frame_seq,absolute_seq_u64,segment_id,sample_seq,PPG_G,PPG_R,PPG_IR,ACC_X,ACC_Y,ACC_Z,GYRO_X,GYRO_Y,GYRO_Z,Uh1,Uh2,Uh3,Uh4,Uc1,Uc2,Uc3,Uc4,UD1,UD2,parser_valid
46296,22541,0,22542,3543.0,38021.0,28231.0,-0.002745,0.0018909999999999999,-0.000793,0.5775,-1.5050000000000001,-3.8850000000000002,0.96034375,0.09753125,0.14840625,1.224875,0.93440625,-0.35321875,-0.372125,1.21225,0.018508847008159857,0.021357647312247086,True
46297,22542,0,22543,3542.0,38020.0,28235.0,0.000915,0.005856,-0.002623,0.8225000000000001,-1.8375000000000001,-3.7625,0.973875,0.105125,0.14278125,1.22528125,0.9329375,-0.353625,-0.3655,1.2135625,0.018837031448090374,0.020860694424493648,True
46298,22543,0,22544,3544.0,38023.0,28232.0,0.002989,0.0050019999999999995,-0.002745,0.6475000000000001,-1.995,-3.8325000000000005,0.9820625000000001,0.10025,0.1499375,1.23453125,0.93175,-0.3559375,-0.37196875,1.21665625,0.018730032461283824,0.02141420150967492,True
46299,22544,0,22545,3543.0,38021.0,28234.0,0.003965,0.005856,-0.003172,0.6475000000000001,-2.0125,-3.7625,0.9594375,0.092125,0.15040625,1.24415625,0.93215625,-0.35278125,-0.3741875,1.2040625,0.018269217196701097,0.021522512288871164,True
46300,22545,0,22546,3544.0,38025.0,28236.0,0.003721,0.004575,-0.0015249999999999999,0.6300000000000001,-1.8025000000000002,-3.6925000000000003,0.96865625,0.10134375,0.1423125,1.22521875,0.9394375,-0.3534375,-0.36940625,1.21496875,0.018674211802748586,0.020998408609155177,True
46301,22546,0,22547,3545.0,38025.0,28233.0,0.005124,0.0028669999999999998,-0.003477,0.525,-1.4875,-3.7450000000000006,0.9734375000000001,0.0924375,0.1485,1.22590625,0.9316875,-0.3535,-0.3730625,1.19928125,0.018311023056234214,0.021399136854467923,True
46302,22547,0,22548,3546.0,38025.0,28235.0,0.0048189999999999995,0.000549,-0.0026839999999999998,0.4025,-1.155,-3.9375000000000004,0.98478125,0.1044375,0.15153125,1.23709375,0.93234375,-0.35728125,-0.370875,1.2111875,0.018956087309621224,0.021435678858473483,True
46303,22548,0,22549,3546.0,38024.0,28237.0,0.003843,-0.001464,-0.001037,0.15750000000000003,-0.6300000000000001,-4.112500000000001,0.98503125,0.0993125,0.1514375,1.24409375,0.93559375,-0.35590625000000004,-0.37143750000000003,1.2118125,0.018690281746342328,0.021454417696945453,True
46304,22549,0,22550,3547.0,38027.0,28237.0,0.001098,-0.004941,0.001769,0.035,0.08750000000000001,-4.165,0.9649375,0.1015625,0.1441875,1.226375,0.93996875,-0.35478125,-0.3701875,1.2130625,0.018737337252823817,0.021106731329005986,True
46305,22550,0,22551,3549.0,38028.0,28238.0,-0.002562,-0.008723,0.004331,-0.17500000000000002,0.5775,-4.2525,0.9604375,0.09946875000000001,0.14728125,1.2263125,0.9325,-0.3535625,-0.37103125000000003,1.21828125,0.018602257883215238,0.021267565360000924,True
46306,22551,0,22552,3549.0,38026.0,28238.0,-0.0070149999999999995,-0.008539999999999999,0.00488,0.0,1.3475000000000001,-4.375,0.96296875,0.10015625,0.1448125,1.2285625,0.935625,-0.3535,-0.36996875,1.21759375,0.01862796928572895,0.021123590895043717,True
46307,22552,0,22553,3549.0,38027.0,28240.0,-0.009394,-0.0035989999999999998,0.001952,0.28,1.4175000000000002,-4.62,0.9648125000000001,0.09828125,0.1461875,1.2299375000000001,0.9325,-0.3525,-0.364,1.21746875,0.018510676521917666,0.020940219175833198,True
46308,22553,0,22554,3550.0,38025.0,28236.0,-0.011101999999999999,0.000244,0.000183,0.5775,1.5050000000000001,-4.742500000000001,0.96603125,0.097375,0.14878125,1.230625,0.9322812500000001,-0.3539375,-0.37028125,1.21259375,0.01853139764360486,0.02129899506186454,True
46309,22554,0,22555,3549.0,38025.0,28238.0,-0.011285,0.004575,-0.000549,0.7525000000000001,1.2425000000000002,-4.742500000000001,0.97175,0.0994375,0.14928125,1.237875,0.93290625,-0.352875,-0.37259375,1.20025,0.01857326906987368,0.0214123701955193,True
46310,22555,0,22556,3550.0,38025.0,28236.0,-0.009271999999999999,0.0064659999999999995,-0.000305,0.77,0.77,-4.69,0.968875,0.099875,0.1465625,1.2260312500000001,0.9368125,-0.3501875,-0.36562500000000003,1.21678125,0.01848291722599672,0.021020905476465308,True
46311,22556,0,22557,3548.0,38024.0,28234.0,-0.0006709999999999999,0.00671,0.001647,0.665,-0.5425000000000001,-4.41,0.9634375000000001,0.10321875,0.14934375,1.2358125,0.9323750000000001,-0.3529375,-0.37278125,1.21196875,0.01873105657171748,0.021422462813922804,True
46312,22557,0,22558,3545.0,38024.0,28230.0,0.003172,0.005673,0.000915,0.5075000000000001,-1.4000000000000001,-4.357500000000001,0.966375,0.0978125,0.14875,1.230625,0.9389375,-0.353625,-0.36921875,1.21853125,0.018536768140266596,0.021255041259785973,True
46313,22558,0,22559,3546.0,38027.0,28230.0,0.008052,0.0018909999999999999,-0.000122,0.28,-2.205,-4.2,0.9730625,0.09934375000000001,0.14990625,1.22525,0.9255,-0.353,-0.37021875,1.21209375,0.018574456945756167,0.02134264798095011,True
46314,22559,0,22560,3544.0,38023.0,28229.0,0.009028,-0.0025009999999999998,-0.000183,-0.052500000000000005,-2.7825,-4.0600000000000005,0.9677187500000001,0.1016875,0.1461875,1.235875,0.9410000000000001,-0.35015625,-0.3700625,1.2118125,0.018556092427538324,0.021183778252517816,True
46315,22560,0,22561,3543.0,38022.0,28227.0,0.00793,-0.006527,-0.000549,-0.21000000000000002,-2.9400000000000004,-3.9025000000000003,0.96984375,0.099,0.14925,1.23053125,0.93921875,-0.357,-0.3720625,1.21228125,0.01872151742825471,0.02138975722715302,True
46316,22561,0,22562,3539.0,38023.0,28227.0,0.00671,-0.0037819999999999998,-0.000183,0.0175,-2.5725000000000002,-3.8850000000000002,0.96728125,0.09871875000000001,0.15378125,1.23025,0.9322812500000001,-0.35240625000000003,-0.372625,1.21959375,0.018524863431103447,0.021598258291833563,True
46317,22562,0,22563,3538.0,38021.0,28227.0,0.0032329999999999998,-0.001098,-0.0013419999999999999,0.3325,-1.9250000000000003,-3.7450000000000006,0.9676250000000001,0.0970625,0.14790625000000002,1.23021875,0.93284375,-0.353375,-0.371875,1.2181250000000001,0.018495896359334178,0.021327093217079117,True
46318,22563,0,22564,3538.0,38021.0,28225.0,-0.001037,0.000915,-0.001464,0.525,-1.2775,-3.8500000000000005,0.96909375,0.09578125,0.14771875,1.236375,0.9324375,-0.35209375,-0.37143750000000003,1.212,0.018391642402411493,0.021301831293291582,True
46319,22564,0,22565,3535.0,38019.0,28225.0,-0.003843,0.003294,-0.000549,0.5775,-0.7350000000000001,-3.9550000000000005,0.96715625,0.097,0.14821875,1.2301250000000001,0.930625,-0.352625,-0.36965625,1.21721875,0.01846310202698888,0.021250812678164064,True
46320,22565,0,22566,3535.0,38020.0,28226.0,-0.0042699999999999995,0.003843,-0.0011589999999999999,0.5950000000000001,-0.29750000000000004,-4.0075,0.97440625,0.0994375,0.14934375,1.23603125,0.9321875000000001,-0.3551875,-0.37184375000000003,1.20528125,0.018666454528424387,0.021384820342121226,True
46321,22566,0,22567,3536.0,38019.0,28224.0,-0.003843,0.001281,-0.002989,0.5075000000000001,-0.42000000000000004,-4.0425,0.96659375,0.099625,0.1483125,1.22959375,0.939125,-0.353375,-0.3693125,1.21796875,0.018601117914868064,0.021240853635078955,True
46322,22567,0,22568,3533.0,38019.0,28226.0,-0.00366,-0.000183,-0.0048189999999999995,0.43750000000000006,-0.7525000000000001,-4.0600000000000005,0.96775,0.1031875,0.14921875,1.2256562500000001,0.9342812500000001,-0.35331250000000003,-0.3721875,1.2111875,0.018744883267933263,0.021393494121116543,True
46323,22568,0,22569,3532.0,38018.0,28224.0,-0.0015249999999999999,0.000976,-0.0046359999999999995,0.42000000000000004,-1.4700000000000002,-4.095000000000001,0.9665,0.09678125,0.14925,1.22821875,0.9380000000000001,-0.35453125,-0.3718125,1.21196875,0.018530945858381075,0.0213797188863159,True
46324,22569,0,22570,3532.0,38019.0,28226.0,0.00366,0.001281,-0.004392,0.42000000000000004,-2.2575000000000003,-4.0425,0.9666250000000001,0.10046875,0.148375,1.231,0.93534375,-0.35171875,-0.37003125000000003,1.2179375000000001,0.018569017843966352,0.02127228499142774,True
46325,22570,0,22571,3534.0,38019.0,28224.0,0.00549,-0.0008539999999999999,0.00244,0.47250000000000003,-2.5200000000000005,-4.0075,0.97109375,0.100125,0.1480625,1.2300625,0.9295,-0.35296875,-0.37053125000000003,1.21228125,0.018605277847285048,0.021279542275058124,True
46326,22571,0,22572,3532.0,38020.0,28229.0,0.003538,-0.001464,0.005063,0.10500000000000001,-1.8025000000000002,-3.9550000000000005,0.967375,0.09978125,0.14903125,1.23415625,0.93378125,-0.35331250000000003,-0.3726875,1.207875,0.01860501523150085,0.021405876967814895,True
46327,22572,0,22573,3533.0,38022.0,28227.0,-0.000122,-0.001769,0.007808,0.1925,-1.1725,-3.7975000000000003,0.967,0.10315625,0.14946875,1.23309375,0.9416875,-0.35334375,-0.3693125,1.2113125,0.018744859214661232,0.021288300603474142,True
46328,22573,0,22574,3534.0,38020.0,28227.0,-0.0050019999999999995,-0.000793,0.007137,0.385,-0.77,-3.9375000000000004,0.9608125000000001,0.1001875,0.1499375,1.23015625,0.9430937500000001,-0.35490625000000003,-0.3691875,1.223375,0.018685916723658096,0.02130251572810953,True
46329,22574,0,22575,3534.0,38021.0,28227.0,-0.006893,-0.0006709999999999999,0.0055509999999999995,0.42000000000000004,-0.665,-3.9375000000000004,0.97328125,0.1005625,0.1486875,1.227625,0.9311875000000001,-0.35659375,-0.37153125000000004,1.20853125,0.018769301434031598,0.021345345299138726,True
46330,22575,0,22576,3534.0,38022.0,28228.0,-0.0060999999999999995,-0.00042699999999999997,0.000732,0.47250000000000003,-1.1725,-3.7275000000000005,0.9673437500000001,0.096875,0.14906250000000001,1.2317500000000001,0.9425625,-0.3516875,-0.372125,1.2197500000000001,0.018420181352934984,0.021384573565087165,True
46331,22576,0,22577,3532.0,38020.0,28229.0,-0.0044529999999999995,-0.000122,-0.0015249999999999999,0.6125,-1.6975000000000002,-3.6750000000000003,0.9824375000000001,0.0986875,0.14903125,1.242125,0.9310625,-0.356125,-0.370125,1.209125,0.018673434300406983,0.021302978544426834,True
46332,22577,0,22578,3535.0,38022.0,28230.0,-0.000793,0.000915,-0.003111,0.6825000000000001,-2.2225,-3.6750000000000003,0.96340625,0.10234375,0.13515625,1.22228125,0.94271875,-0.3529375,-0.36890625,1.223625,0.018695126614602448,0.0206846583440732,True
46333,22578,0,22579,3534.0,38022.0,28227.0,0.0055509999999999995,0.003172,-0.002562,0.7525000000000001,-2.8525000000000005,-3.6050000000000004,0.97784375,0.0965,0.1539375,1.2477500000000001,0.93034375,-0.35484375,-0.37,1.2090625,0.018531991197849505,0.0214992819039803,True
46334,22579,0,22580,3535.0,38021.0,28226.0,0.009882,0.003965,-0.003172,0.7350000000000001,-3.0100000000000002,-3.4650000000000003,0.96675,0.10365625,0.14584375,1.2245625,0.94453125,-0.35431250000000003,-0.36340625,1.223,0.018804421188239252,0.02090224965977407,True
46335,22580,0,22581,3535.0,38021.0,28227.0,0.0066489999999999995,-0.0011589999999999999,-0.0026839999999999998,0.24500000000000002,-2.765,-3.535,0.9575312500000001,0.090875,0.15046875,1.21953125,0.92971875,-0.34915625,-0.37340625,1.2089375,0.01807172476459015,0.021493713050468686,True
46336,22581,0,22582,3535.0,38020.0,28228.0,0.007259,-0.0028669999999999998,-0.00061,0.12250000000000001,-2.1875,-3.4650000000000003,0.98875,0.10040625,0.15634375,1.2498125,0.9293125,-0.35771875000000003,-0.368875,1.2088125,0.0188082063308987,0.021552851742232666,True
46337,22582,0,22583,3534.0,38021.0,28225.0,0.00915,-0.004575,0.0011589999999999999,0.035,-1.5050000000000001,-3.4475000000000002,0.9705,0.10312500000000001,0.142875,1.23125,0.944625,-0.35509375,-0.36893750000000003,1.2180625,0.018814082782990724,0.021002659635858147,True
46338,22583,0,22584,3534.0,38020.0,28226.0,0.006405,-0.006161,-0.000244,0.052500000000000005,-0.43750000000000006,-3.3600000000000003,0.9496875,0.09546875,0.13859375000000002,1.22109375,0.9405625,-0.35231250000000003,-0.36821875,1.2217500000000001,0.018387627458377926,0.020798093828667718,True
46339,22584,0,22585,3535.0,38021.0,28227.0,-0.000183,-0.0050019999999999995,-0.001037,0.17500000000000002,0.6475000000000001,-3.5700000000000003,0.9545,0.09778125,0.1393125,1.21590625,0.9303750000000001,-0.3486875,-0.36840625,1.2178437500000001,0.01833646064084563,0.020835123347469637,True
46340,22585,0,22586,3534.0,38021.0,28226.0,-0.005307,-0.000488,-0.001769,0.5775,2.205,-3.99,0.96403125,0.08859375,0.1494375,1.21540625,0.92925,-0.352125,-0.37259375,1.21134375,0.018097753276151467,0.021418781084799395,True
46341,22586,0,22587,3535.0,38019.0,28226.0,-0.007259,0.0026839999999999998,-0.003904,0.665,2.3800000000000003,-4.165,0.9899687500000001,0.10296875,0.1435625,1.22884375,0.93278125,-0.35590625000000004,-0.36965625,1.218625,0.01884039933845615,0.021059745149257084,True
46342,22587,0,22588,3536.0,38020.0,28228.0,-0.006161,0.003904,-0.0025009999999999998,0.7525000000000001,2.3625000000000003,-4.2525,0.95521875,0.09284375,0.14959375,1.2236875,0.934125,-0.353375,-0.37084375,1.2094375,0.01832266574961376,0.021354923339492505,True
46343,22588,0,22589,3535.0,38022.0,28227.0,-0.006893,0.0035989999999999998,0.0,0.77,2.5200000000000005,-4.2525,0.978625,0.10171875,0.15278125,1.229,0.93278125,-0.35025,-0.36993750000000003,1.21521875,0.018561154402932212,0.021449326655023224,True
46344,22589,0,22590,3536.0,38021.0,28228.0,-0.007259,0.002623,0.0015249999999999999,0.7175,2.3625000000000003,-4.322500000000001,0.9661875,0.09728125,0.15265625,1.23034375,0.9393125,-0.35328125,-0.37290625,1.21453125,0.018501100339404983,0.021563390701508974,True
46345,22590,0,22591,3535.0,38019.0,28227.0,-0.011163,0.000732,0.008601,0.7525000000000001,1.0150000000000001,-4.2875000000000005,0.97346875,0.09840625,0.14856250000000001,1.235,0.93290625,-0.35259375,-0.37325,1.2004062500000001,0.01851958787757464,0.021409229380570913,True
46346,22591,0,22592,3535.0,38021.0,28228.0,0.005307,0.00366,0.001647,0.56,-0.14,-4.6025,0.966875,0.1003125,0.14640625000000002,1.225875,0.93575,-0.35221875,-0.36971875,1.21646875,0.018582752341611587,0.021178947746370684,True
46347,22592,0,22593,3535.0,38021.0,28228.0,0.007991,0.00549,-0.0068319999999999995,0.6300000000000001,-0.7525000000000001,-4.6375,0.97471875,0.10796875,0.14890625,1.23596875,0.9332812500000001,-0.35271875,-0.371125,1.2116875,0.018917292345438843,0.021338007580692313,True
46348,22593,0,22594,3537.0,38022.0,28229.0,-0.009394,0.000122,-0.000732,0.665,0.56,-3.8325000000000005,0.9675312500000001,0.0965625,0.14878125,1.2310625,0.9280625,-0.3524375,-0.3695,1.2178125,0.018437579400419363,0.02126761936026591,True
46349,22594,0,22595,3535.0,38022.0,28228.0,-0.02013,-0.00183,0.013115,0.45500000000000007,1.3825,-3.1675000000000004,0.9730625,0.099125,0.14765625000000002,1.22971875,0.9322812500000001,-0.35115625,-0.37115625,1.21178125,0.018491165075580344,0.02128797233409884,True
46350,22595,0,22596,3535.0,38021.0,28229.0,-0.005124,-0.006344,0.003172,0.21000000000000002,-1.2075,-2.975,0.96646875,0.096125,0.15115625,1.23559375,0.94096875,-0.35253125,-0.3716875,1.211625,0.018423392845456264,0.021452915396194868,True
46351,22596,0,22597,3536.0,38022.0,28232.0,0.003477,-0.00671,-0.001769,0.035,-3.1675000000000004,-2.9575000000000005,0.967,0.09875,0.14821875,1.23390625,0.9364375,-0.355875,-0.36940625,1.21753125,0.01866592762526495,0.021240771920735656,True
46352,22597,0,22598,3538.0,38022.0,28233.0,0.006344,-0.0059169999999999995,-0.004575,0.2625,-4.550000000000001,-2.87,0.96790625,0.09953125,0.1453125,1.230625,0.9334687500000001,-0.35484375,-0.36353125000000003,1.21159375,0.018656453092621463,0.020885467906053234,True
46353,22598,0,22599,3537.0,38022.0,28231.0,0.0075639999999999995,-0.001952,-0.0068319999999999995,0.5950000000000001,-5.495,-2.8350000000000004,0.9675625,0.09825,0.14890625,1.23040625,0.9422812500000001,-0.35281250000000003,-0.36975,1.2178125,0.018521987963402587,0.021282789113552664,True
46354,22599,0,22600,3539.0,38023.0,28231.0,0.00793,0.003843,-0.008235,0.9275000000000001,-5.932500000000001,-2.6250000000000004,0.9722500000000001,0.09934375000000001,0.14871875,1.237125,0.9323750000000001,-0.35215625,-0.37393750000000003,1.21190625,0.0185404526549882,0.021443242397745546,True
46355,22600,0,22601,3538.0,38021.0,28231.0,0.012688,0.006954,-0.007137,0.9625000000000001,-6.772500000000001,-2.345,0.9615625,0.09971875000000001,0.14703125,1.23078125,0.9354687500000001,-0.35484375,-0.370125,1.219375,0.018664151766524882,0.02122091084883643,True
46356,22601,0,22602,3538.0,38023.0,28230.0,0.014945,0.00366,-0.0055509999999999995,0.7000000000000001,-7.052500000000001,-2.4325,0.97503125,0.10128125,0.14853125,1.236375,0.9249375,-0.35209375,-0.36793750000000003,1.21096875,0.018617495672215042,0.021194602538684288,True
46357,22602,0,22603,3540.0,38021.0,28229.0,0.017568,0.001586,-0.003721,0.5425000000000001,-6.615,-2.555,0.96746875,0.10025,0.1475,1.230875,0.9320625,-0.355875,-0.370125,1.21671875,0.018727514408741215,0.021240145464990434,True
46358,22603,0,22604,3540.0,38021.0,28231.0,0.016836,-0.000244,-0.000244,0.36750000000000005,-5.775,-2.6950000000000003,0.9671875,0.098375,0.148125,1.2360625,0.9385625,-0.349375,-0.371875,1.211875,0.018388562334762187,0.021336068726759843,True
46359,22604,0,22605,3541.0,38023.0,28230.0,0.01159,-0.0025009999999999998,0.001281,0.3325,-4.2875000000000005,-2.87,0.96721875,0.10009375,0.14546875,1.2298437500000001,0.93115625,-0.35475,-0.36940625,1.2118125,0.01867577166671799,0.02112792551111088,True
46360,22605,0,22606,3543.0,38022.0,28231.0,0.0021349999999999997,0.0,0.001769,0.56,-1.6800000000000002,-3.1500000000000004,0.96684375,0.09715625,0.1483125,1.23740625,0.9381875000000001,-0.34800000000000003,-0.3721875,1.21171875,0.018283072531624776,0.021356310343501172,True
46361,22606,0,22607,3543.0,38025.0,28232.0,-0.0023179999999999997,0.000915,0.002928,0.665,-0.6475000000000001,-3.4475000000000002,0.96378125,0.09990625,0.1453125,1.230375,0.93303125,-0.355625,-0.37065625,1.21684375,0.018703328286586777,0.02117172162731564,True
46362,22607,0,22608,3544.0,38024.0,28232.0,-0.002928,0.003111,-0.000793,0.7525000000000001,0.35000000000000003,-3.6400000000000006,0.9738125,0.0999375,0.148875,1.23678125,0.93390625,-0.35325,-0.36796875,1.2121875,0.018608912568137723,0.02120996441281139,True
46363,22608,0,22609,3543.0,38025.0,28233.0,-0.006161,0.002745,-0.000366,0.5950000000000001,1.33,-3.7975000000000003,0.96178125,0.1013125,0.14684375,1.23109375,0.92840625,-0.347125,-0.37009375,1.2174375,0.01841849910410367,0.021211961894894233,True
46364,22609,0,22610,3545.0,38028.0,28235.0,-0.005795,0.0011589999999999999,0.001952,0.56,2.24,-4.095000000000001,0.9761875,0.09915625,0.14628125,1.233875,0.926625,-0.3560625,-0.37178125,1.2123125000000001,0.018690161843688814,0.02125665312214305,True
46365,22610,0,22611,3544.0,38028.0,28238.0,-0.015189,-0.0032329999999999998,0.0050019999999999995,0.2625,3.535,-4.0600000000000005,0.967,0.09721875,0.150375,1.23428125,0.94946875,-0.354,-0.37034375,1.21903125,0.01852750061591525,0.021366902138998348,True
46366,22611,0,22612,3546.0,38029.0,28238.0,-0.013725,-0.0015249999999999999,0.0051849999999999995,0.2625,3.6750000000000003,-4.077500000000001,0.97340625,0.1000625,0.14778125,1.237,0.93103125,-0.34996875,-0.36878125,1.206625,0.01848179989964053,0.02119771582749958,True
46367,22612,0,22613,3547.0,38030.0,28240.0,-0.012322,-0.001586,0.005612,0.5075000000000001,3.4475000000000002,-4.0425,0.9673125,0.10040625,0.1453125,1.22834375,0.937625,-0.3603125,-0.370625,1.2056875,0.018912678152219926,0.021170466493986097,True
46368,22613,0,22614,3548.0,38031.0,28239.0,-0.008173999999999999,0.001098,0.004026,0.4025,3.0275000000000003,-3.9725000000000006,0.96646875,0.09715625,0.14815625,1.23396875,0.95084375,-0.34850000000000003,-0.3665,1.2278437500000001,0.01830323223196501,0.021121467999097122,True
46369,22614,0,22615,3548.0,38031.0,28239.0,-0.0059169999999999995,-0.0015249999999999999,0.000915,0.07,2.555,-3.7450000000000006,0.96265625,0.105125,0.14684375,1.23059375,0.926625,-0.35875,-0.3685,1.20625,0.01904346487401858,0.02114794714487966,True
46370,22615,0,22616,3548.0,38030.0,28239.0,-0.0044529999999999995,-0.00549,-0.001098,0.1925,0.9975,-3.6575,0.96440625,0.09940625,0.1484375,1.23690625,0.9295625000000001,-0.35065625,-0.37684375000000003,1.20228125,0.018482561429940928,0.021548370059187832,True
46371,22616,0,22617,3548.0,38031.0,28237.0,-0.001586,-0.0023179999999999997,-0.000549,0.43750000000000006,0.22750000000000004,-3.5700000000000003,0.9666250000000001,0.096875,0.14909375,1.23796875,0.944125,-0.35209375,-0.373125,1.208375,0.018436556404929246,0.02142600712875349,True
46372,22617,0,22618,3547.0,38029.0,28237.0,0.000244,0.0023179999999999997,-0.000793,0.6475000000000001,-0.525,-3.4475000000000002,0.9671875,0.097875,0.14771875,1.23590625,0.9394687500000001,-0.34940625000000003,-0.3735,1.2083125000000001,0.018369287752139748,0.02138464931175252,True
46373,22618,0,22619,3549.0,38032.0,28237.0,0.0017079999999999999,0.006405,-0.000244,0.8225000000000001,-1.2600000000000002,-3.3950000000000005,0.96759375,0.09609375,0.14931250000000001,1.235125,0.94753125,-0.351625,-0.3753125,1.20503125,0.018385580017760625,0.021522800989730903,True
46374,22619,0,22620,3546.0,38027.0,28234.0,0.003843,0.006954,-0.000488,0.805,-1.9775000000000003,-3.3600000000000003,0.966875,0.09740625,0.14903125,1.23521875,0.9499375,-0.3504375,-0.372625,1.2102187500000001,0.018391610007007057,0.021403367507603303,True
46375,22620,0,22621,3545.0,38029.0,28232.0,0.006893,0.00183,-0.0026839999999999998,0.5775,-3.115,-3.0450000000000004,0.96728125,0.0983125,0.14515625000000001,1.23040625,0.9256875,-0.35596875,-0.36884375,1.2064062500000001,0.018651742193584477,0.021092506697204295,True
46376,22621,0,22622,3544.0,38027.0,28229.0,0.006893,-0.000122,-0.0025009999999999998,0.43750000000000006,-3.325,-3.0275000000000003,0.96725,0.096875,0.15490625,1.2318125,0.94284375,-0.35375,-0.36893750000000003,1.2219375000000001,0.01850331057845301,0.021496372174617792,True
46377,22622,0,22623,3542.0,38029.0,28227.0,0.0053679999999999995,-0.0025009999999999998,-0.002562,0.36750000000000005,-3.43,-3.0100000000000002,0.97375,0.10009375,0.14553125,1.23121875,0.91996875,-0.35175,-0.37096875,1.2103125000000001,0.018554877986181693,0.02119324862701652,True
46378,22623,0,22624,3539.0,38027.0,28227.0,0.001647,-0.0023179999999999997,-0.0018909999999999999,0.42000000000000004,-3.535,-3.0100000000000002,0.96334375,0.096875,0.14846875,1.23684375,0.9386875,-0.35265625,-0.37103125000000003,1.2048125,0.018459228651905274,0.021316291242292017,True
46379,22624,0,22625,3538.0,38025.0,28226.0,0.000732,-0.002745,-0.000976,0.47250000000000003,-3.7100000000000004,-3.0450000000000004,0.96646875,0.10034375,0.14628125,1.23028125,0.9384687500000001,-0.3549375,-0.3706875,1.2140625,0.018693591391889225,0.021212727379972353,True
46380,22625,0,22626,3538.0,38026.0,28225.0,0.002806,-0.0013419999999999999,-6.1e-05,0.56,-4.0425,-3.0625000000000004,0.9691875,0.10162500000000001,0.148125,1.2364375,0.9345,-0.35209375,-0.372875,1.21225,0.018631611501577765,0.021376222542478063,True
46381,22626,0,22627,3535.0,38026.0,28226.0,0.007259,-0.000244,0.000183,0.56,-3.99,-3.08,0.9670625,0.0980625,0.14815625,1.2348125,0.93225,-0.35303125,-0.36996875,1.2114375,0.01852310479829898,0.021260798703322092,True
46382,22627,0,22628,3537.0,38027.0,28225.0,0.008784,0.002074,0.002928,0.5775,-3.43,-3.115,0.96765625,0.10025,0.14703125,1.2305625,0.9322812500000001,-0.35375,-0.371375,1.21896875,0.018641892932299953,0.021271112114109276,True
46383,22628,0,22629,3537.0,38026.0,28225.0,0.008113,0.0013419999999999999,0.0017079999999999999,0.29750000000000004,-2.5025000000000004,-3.1675000000000004,0.97284375,0.100125,0.1449375,1.2300312500000001,0.933125,-0.35253125,-0.37121875,1.21571875,0.018587646818028415,0.021178926474491554,True
46384,22629,0,22630,3533.0,38025.0,28223.0,0.0030499999999999998,-0.001647,-0.000183,0.31500000000000006,-1.5750000000000002,-3.2725000000000004,0.97159375,0.09803125,0.14815625,1.23646875,0.93390625,-0.35246875,-0.37159375,1.2115625,0.018499151138424107,0.02132605710285155,True
46385,22630,0,22631,3535.0,38026.0,28223.0,-0.000305,0.001403,-0.001586,0.5950000000000001,-0.35000000000000003,-3.6925000000000003,0.955875,0.09925,0.14471875,1.23046875,0.93875,-0.35553125,-0.3711875,1.22096875,0.01867260645361616,0.02116869561649386,True
46386,22631,0,22632,3534.0,38025.0,28223.0,0.002623,6.1e-05,-0.00122,0.5950000000000001,0.15750000000000003,-3.6925000000000003,0.97290625,0.0973125,0.1483125,1.23115625,0.93303125,-0.349875,-0.37121875,1.21753125,0.018365084009671507,0.021317409495575597,True
46387,22632,0,22633,3534.0,38025.0,28222.0,-0.000488,-0.002074,-0.00183,0.42000000000000004,0.7175,-3.7800000000000002,0.98003125,0.0988125,0.1480625,1.2404375,0.9319375,-0.3554375,-0.37271875,1.2122187500000001,0.01865086595139176,0.02136738438341024,True
46388,22633,0,22634,3535.0,38030.0,28226.0,-0.00488,-0.004026,-0.000244,0.36750000000000005,1.5050000000000001,-3.8150000000000004,0.96559375,0.10034375,0.144875,1.22809375,0.93625,-0.35481250000000003,-0.3711875,1.211625,0.018688554880067338,0.02117510687569081,True
46389,22634,0,22635,3535.0,38029.0,28227.0,-0.008723,0.001464,0.000366,0.45500000000000007,2.24,-3.99,0.9765,0.0996875,0.14906250000000001,1.23778125,0.93225,-0.350875,-0.37165625,1.21165625,0.018502928539528868,0.021365751455648403,True
46390,22635,0,22636,3534.0,38029.0,28229.0,-0.008113,0.007625,0.00183,1.0325000000000002,2.4325,-4.025,0.9650625,0.09475,0.14953125,1.2398437500000001,0.9390000000000001,-0.352375,-0.37240625,1.2122187500000001,0.018360632176533092,0.02141509929902797,True
46391,22636,0,22637,3534.0,38029.0,28227.0,-0.005795,0.0077469999999999995,0.003111,0.9800000000000001,2.5375,-3.8850000000000002,0.9564375,0.101,0.14475,1.22828125,0.9384375,-0.351875,-0.3708125,1.21921875,0.018597130611092576,0.021154916357425505,True
46392,22637,0,22638,3535.0,38032.0,28229.0,-0.002013,0.0044529999999999995,0.0046359999999999995,0.6125,2.5375,-3.8500000000000005,0.97946875,0.099375,0.151125,1.2410625,0.93325,-0.35290625000000003,-0.37403125,1.212,0.018571962021986597,0.021545728099450105,True
46393,22638,0,22639,3537.0,38032.0,28229.0,-0.003721,-0.000549,0.0025009999999999998,0.385,2.5725000000000002,-3.7100000000000004,0.9643125,0.0969375,0.14753125,1.2284375,0.93990625,-0.352875,-0.37025,1.21096875,0.018470611786082752,0.021246448025769128,True
46394,22639,0,22640,3535.0,38031.0,28228.0,-0.002928,-0.003721,0.000915,0.31500000000000006,2.4675000000000002,-3.6050000000000004,0.9791875,0.09928125,0.14984375,1.2433750000000001,0.92071875,-0.35409375,-0.37325,1.21259375,0.01861596677150017,0.021461797257238985,True
46395,22640,0,22641,3537.0,38031.0,28227.0,-0.001281,-0.002623,0.000366,0.31500000000000006,2.2750000000000004,-3.5700000000000003,0.964375,0.10553125000000001,0.14190625,1.2277500000000001,0.9378125,-0.35275,-0.37103125000000003,1.2158437500000001,0.018818459927523585,0.02104701662963072,True
46396,22641,0,22642,3536.0,38034.0,28230.0,-0.001586,-0.002562,0.000793,0.35000000000000003,2.0125,-3.535,0.9656875,0.09709375,0.14796875,1.22796875,0.932,-0.352875,-0.37196875,1.21434375,0.018477027866319686,0.021333422233277728,True
46397,22642,0,22643,3535.0,38034.0,28231.0,0.0021349999999999997,-0.00183,0.001769,0.35000000000000003,1.8200000000000003,-3.5000000000000004,0.975125,0.09921875000000001,0.148625,1.23628125,0.9330625,-0.35446875,-0.373375,1.2110625,0.018628511451312196,0.02141681240287814,True
46398,22643,0,22644,3535.0,38035.0,28229.0,0.0026839999999999998,-0.003721,0.001769,0.385,1.7850000000000001,-3.3775000000000004,0.97059375,0.09984375000000001,0.14753125,1.232,0.9335625000000001,-0.35478125,-0.37075,1.2119375000000001,0.01866676589427384,0.021266528522921945,True
46399,22644,0,22645,3535.0,38032.0,28229.0,-0.001403,0.000366,-0.0018909999999999999,0.6300000000000001,1.6275000000000002,-3.6925000000000003,0.96603125,0.09921875000000001,0.14946875,1.2306875,0.93675,-0.353125,-0.37028125,1.216875,0.01857436160657,0.021327205651350455,True
46400,22645,0,22646,3537.0,38032.0,28232.0,-0.00042699999999999997,0.0026839999999999998,-0.004331,0.8400000000000001,1.2425000000000002,-3.5700000000000003,0.971875,0.09975,0.14834375,1.2345625,0.9326875,-0.35278125,-0.37378125,1.2116875,0.018582323117611054,0.021421583899707802,True
46401,22646,0,22647,3536.0,38030.0,28227.0,0.000305,0.003355,-0.006893,0.9275000000000001,0.9975,-3.5700000000000003,0.96725,0.09690625,0.14715625000000002,1.2280312500000001,0.94134375,-0.35296875,-0.36984375,1.20334375,0.01847310710321509,0.02121474414459469,True
46402,22647,0,22648,3535.0,38030.0,28228.0,0.001403,0.004392,-0.006405,0.9800000000000001,0.9625000000000001,-3.535,0.972,0.10034375,0.145375,1.231,0.93375,-0.3615,-0.3728125,1.2044062500000001,0.018957935677195576,0.021260882386880876,True
46403,22648,0,22649,3535.0,38030.0,28228.0,0.001281,0.003538,-0.003294,0.8400000000000001,1.12,-3.3775000000000004,0.97403125,0.09953125,0.146625,1.23196875,0.9440937500000001,-0.3513125,-0.38009375,1.2041875,0.018514145798096102,0.021604459580882456,True
46404,22649,0,22650,3535.0,38031.0,28230.0,-0.0059169999999999995,-0.002623,0.000549,0.5425000000000001,1.6275000000000002,-3.2375000000000003,0.967375,0.097,0.14803125,1.234875,0.94603125,-0.3503125,-0.36928125,1.2205625,0.018369887450109725,0.021228057351917184,True
46405,22650,0,22651,3533.0,38028.0,28227.0,-0.008905999999999999,-0.003721,0.002928,0.5425000000000001,1.5575,-3.4475000000000002,0.9675,0.0985,0.14571875,1.230375,0.9186875,-0.35821875000000003,-0.36790625,1.21940625,0.018750088201749157,0.02107792908961967,True
46406,22651,0,22652,3535.0,38033.0,28231.0,-0.007808,-0.002379,0.00549,0.5075000000000001,1.1375000000000002,-3.5525,0.9753437500000001,0.09978125,0.14715625000000002,1.23725,0.9322812500000001,-0.3488125,-0.38134375,1.2005937500000001,0.01842363975655897,0.021676409857434537,True
46407,22652,0,22653,3536.0,38031.0,28231.0,-0.0066489999999999995,0.000122,0.0060999999999999995,0.5425000000000001,0.5950000000000001,-3.535,0.96778125,0.09678125,0.15065625,1.23134375,0.93478125,-0.3610625,-0.3665,1.2270625,0.018794079691721165,0.02122406788008126,True
46408,22653,0,22654,3536.0,38031.0,28231.0,-0.005795,0.001952,0.005795,0.7175,-0.052500000000000005,-3.6225000000000005,0.9741562500000001,0.09828125,0.14796875,1.23040625,0.93153125,-0.3494375,-0.37271875,1.22525,0.01838723173789949,0.02136353786956984,True
46409,22654,0,22655,3536.0,38031.0,28232.0,-0.003538,0.0006709999999999999,0.0021349999999999997,0.6125,-1.7325000000000002,-3.2550000000000003,0.97471875,0.0990625,0.1480625,1.2356562500000001,0.92903125,-0.34946875,-0.37078125,1.2180312500000001,0.018420576424280303,0.021289582171273237,True
46410,22655,0,22656,3538.0,38029.0,28231.0,-0.004148,-0.001037,-0.000244,0.5425000000000001,-2.9050000000000002,-3.22,0.9678125000000001,0.10162500000000001,0.1459375,1.23078125,0.9264375,-0.36090625,-0.36046875,1.22809375,0.018986619186221777,0.020788033891999718,True
46411,22656,0,22657,3537.0,38030.0,28234.0,-0.0015249999999999999,-0.000244,-0.002989,0.77,-4.357500000000001,-3.3600000000000003,0.97359375,0.0999375,0.15181250000000002,1.23684375,0.93375,-0.34965625,-0.37371875,1.20315625,0.018464069692975645,0.021561389765359464,True
46412,22657,0,22658,3536.0,38032.0,28231.0,0.002562,0.000549,-0.0050019999999999995,0.8925000000000001,-5.932500000000001,-3.4650000000000003,0.9673437500000001,0.0975625,0.1463125,1.2310625,0.93959375,-0.35634375,-0.3670625,1.22528125,0.01863605862435736,0.021068399196661477,True
46413,22658,0,22659,3538.0,38034.0,28235.0,0.010126,0.0025009999999999998,-0.0040869999999999995,0.6825000000000001,-7.175000000000001,-3.535,0.9749375,0.099875,0.14534375,1.2305625,0.9291875,-0.354,-0.37043750000000003,1.20903125,0.01863656894144699,0.021164217917712804,True
46414,22659,0,22660,3537.0,38033.0,28231.0,0.016347999999999998,-0.002989,-0.001037,0.1925,-7.612500000000001,-3.3075,0.96740625,0.09821875000000001,0.14559375,1.23096875,0.93703125,-0.3486875,-0.36859375,1.21871875,0.018354428755143374,0.021100417417398164,True
46415,22660,0,22661,3540.0,38035.0,28232.0,0.015372,-0.0046359999999999995,0.000915,0.0,-6.9125000000000005,-3.1500000000000004,0.9571875,0.098,0.147375,1.232,0.93371875,-0.3525625,-0.3741875,1.212,0.018501646387315503,0.021398149169074867,True
46416,22661,0,22662,3539.0,38033.0,28232.0,0.011956,-0.0051849999999999995,0.003294,0.08750000000000001,-5.932500000000001,-3.1325000000000003,0.96903125,0.10015625,0.15006250000000002,1.2359375000000001,0.9326875,-0.35471875,-0.37071875,1.203,0.01867707874885642,0.02136913791268466,True
46417,22662,0,22663,3538.0,38036.0,28234.0,0.005795,-0.001952,0.0025009999999999998,0.3325,-4.952500000000001,-3.22,0.96775,0.1010625,0.14578125,1.23028125,0.93115625,-0.34946875,-0.37090625,1.20265625,0.01850271373990449,0.021200996577630343,True
46418,22663,0,22664,3539.0,38035.0,28232.0,0.004148,0.0035989999999999998,-0.001647,0.665,-4.2175,-3.535,0.96775,0.09853125,0.14790625000000002,1.23409375,0.92609375,-0.35078125,-0.3715625,1.2074375,0.0184516667201386,0.021314544358819836,True
46419,22664,0,22665,3539.0,38037.0,28233.0,0.003355,0.0053679999999999995,-0.003965,0.8400000000000001,-2.2925000000000004,-3.6575,0.967125,0.0999375,0.147375,1.23125,0.9371875000000001,-0.353375,-0.37075,1.2173125,0.01861394981188439,0.021260117148631043,True
46420,22665,0,22666,3539.0,38038.0,28234.0,-0.003111,0.004392,-0.0064659999999999995,0.805,-1.1375000000000002,-3.6400000000000006,0.9683437500000001,0.10046875,0.1484375,1.2334375,0.93190625,-0.3498125,-0.3703125,1.2125625,0.018492185514775526,0.021286144771430406,True
46421,22666,0,22667,3539.0,38037.0,28234.0,-0.004331,0.002562,-0.003843,0.7175,-0.12250000000000001,-3.6575,0.9666875,0.10053125,0.14759375,1.23090625,0.9361875000000001,-0.35340625000000003,-0.37025,1.21846875,0.018639589687787516,0.02124901262810189,True
46422,22667,0,22668,3541.0,38039.0,28234.0,-0.005673,0.0006709999999999999,-0.0015249999999999999,0.6825000000000001,0.5075000000000001,-3.7100000000000004,0.97440625,0.09946875000000001,0.1471875,1.23015625,0.93296875,-0.35481250000000003,-0.370625,1.21625,0.01865262768908609,0.021247403380093864,True
46423,22668,0,22669,3541.0,38038.0,28236.0,-0.0050019999999999995,-0.000793,0.0006709999999999999,0.45500000000000007,1.2425000000000002,-3.7275000000000005,0.96840625,0.09678125,0.1484375,1.2306875,0.9323125,-0.352625,-0.3728125,1.21234375,0.018454119422444192,0.021386534689010552,True
46424,22669,0,22670,3542.0,38038.0,28235.0,-0.010675,-0.0037819999999999998,0.00244,0.525,2.0300000000000002,-3.8850000000000002,0.9823437500000001,0.09834375000000001,0.14753125,1.22359375,0.9331875000000001,-0.35478125,-0.37225,1.21228125,0.01860517634499386,0.02132676507093108,True
46425,22670,0,22671,3543.0,38039.0,28236.0,-0.009577,-0.001037,0.004209,0.5425000000000001,1.8550000000000002,-3.9725000000000006,0.9641875,0.097375,0.14234375,1.2375625000000001,0.93303125,-0.35271875,-0.370625,1.21971875,0.018482279314296274,0.021048649757648807,True
46426,22671,0,22672,3543.0,38039.0,28238.0,-0.0040869999999999995,-6.1e-05,0.005307,0.42000000000000004,1.6275000000000002,-4.0075,0.95378125,0.1018125,0.1470625,1.24675,0.93975,-0.34996875,-0.36821875,1.21328125,0.018553668575036673,0.021145626411450364,True
46427,22672,0,22673,3544.0,38040.0,28239.0,-0.0025009999999999998,0.00122,0.0037819999999999998,0.4025,1.4000000000000001,-3.99,0.96084375,0.1004375,0.14165625,1.2275625000000001,0.94090625,-0.3539375,-0.37059375,1.21921875,0.018657147329872222,0.02101918423715056,True
46428,22673,0,22674,3546.0,38041.0,28241.0,-0.001403,0.000244,0.004331,0.45500000000000007,1.2425000000000002,-3.9725000000000006,0.9609375,0.10153125,0.1423125,1.2395,0.92603125,-0.353125,-0.36990625,1.220625,0.01866931861927371,0.02101849489059893,True
46429,22674,0,22675,3547.0,38041.0,28238.0,0.002806,-0.002196,0.000732,0.22750000000000004,1.0325000000000002,-3.7450000000000006,0.96334375,0.10203125,0.14871875,1.23059375,0.938625,-0.34496875,-0.37075,1.21503125,0.018361083334723936,0.021315254967532803,True
46430,22675,0,22676,3544.0,38041.0,28237.0,0.0051849999999999995,-0.0034159999999999998,-0.0013419999999999999,0.1925,1.05,-3.7100000000000004,0.960875,0.1018125,0.14484375,1.22890625,0.938875,-0.352625,-0.37078125,1.22103125,0.018660719326971942,0.021157508030236003,True
46431,22676,0,22677,3546.0,38040.0,28240.0,0.004514,-0.004697,-0.003294,0.22750000000000004,1.3125000000000002,-3.8500000000000005,0.96009375,0.1011875,0.14553125,1.22553125,0.93421875,-0.35259375,-0.3700625,1.21434375,0.018633795424768663,0.021156849720840892,True
46432,22677,0,22678,3548.0,38042.0,28238.0,0.0006709999999999999,-0.004331,-0.005246,0.29750000000000004,1.5050000000000001,-3.9025000000000003,0.9861875,0.10075,0.143875,1.2259375000000001,0.9323750000000001,-0.35484375,-0.37078125,1.2180312500000001,0.018706494472993693,0.02111775756060344,True
46433,22678,0,22679,3547.0,38040.0,28238.0,-0.0030499999999999998,-0.001281,-0.004026,0.2625,1.7850000000000001,-3.9725000000000006,0.97009375,0.09890625,0.1511875,1.2417500000000001,0.9334375,-0.35525,-0.372,1.20496875,0.01864716026318761,0.021466744624979484,True
46434,22679,0,22680,3547.0,38041.0,28236.0,-0.004331,0.003477,0.002623,0.6825000000000001,2.31,-4.025,0.96084375,0.1021875,0.14746875,1.2249375,0.940125,-0.353125,-0.3705625,1.2155625,0.018696265879635573,0.021256433863600814,True
46435,22680,0,22681,3546.0,38041.0,28236.0,-0.009637999999999999,0.002562,0.002806,0.665,2.2575000000000003,-3.9550000000000005,0.9692500000000001,0.098875,0.15056250000000002,1.237,0.9324687500000001,-0.352875,-0.37393750000000003,1.203625,0.01855017118102072,0.021518886720703213,True
46436,22681,0,22682,3546.0,38039.0,28233.0,-0.013603,0.002928,0.004148,0.77,1.9775000000000003,-3.9025000000000003,0.9676875,0.10071875,0.14765625000000002,1.236875,0.9350625,-0.34984375,-0.371125,1.2114375,0.01850371216447744,0.021286717375582784,True
46437,22682,0,22683,3544.0,38038.0,28230.0,-0.010065,0.003965,0.0034159999999999998,0.7350000000000001,0.9275000000000001,-3.9200000000000004,0.96425,0.0986875,0.145375,1.23115625,0.94125,-0.35325,-0.3698125,1.21809375,0.018557584716618933,0.021140396545931573,True
46438,22683,0,22684,3542.0,38035.0,28227.0,-0.003538,0.001769,0.001586,0.5775,-0.15750000000000003,-3.7800000000000002,0.97296875,0.096875,0.147875,1.2288125,0.9323750000000001,-0.3529375,-0.374375,1.21184375,0.018470564382633513,0.021426190415138848,True
46439,22684,0,22685,3541.0,38036.0,28228.0,0.004392,-0.004697,-0.000244,0.0,-1.7325000000000002,-3.3950000000000005,0.973,0.099875,0.1484375,1.23509375,0.9325,-0.3555625,-0.37103125000000003,1.2124062500000001,0.01869952705875711,0.021315008982231723,True
46440,22685,0,22686,3539.0,38033.0,28227.0,0.004697,-0.007503,-0.002257,-0.14,-2.0475000000000003,-3.2375000000000003,0.9676250000000001,0.09778125,0.14803125,1.235625,0.93940625,-0.35240625000000003,-0.37359375,1.211625,0.018486366208678044,0.021401234686616536,True
46441,22686,0,22687,3538.0,38035.0,28227.0,0.005795,-0.004514,-0.0017079999999999999,0.17500000000000002,-2.31,-3.325,0.9683125,0.10059375,0.148375,1.23921875,0.9343750000000001,-0.3550625,-0.37034375,1.21096875,0.018708892658353883,0.021284835180053627,True
46442,22687,0,22688,3537.0,38033.0,28225.0,0.007991,0.002379,-0.002745,0.5425000000000001,-2.5725000000000002,-3.4125000000000005,0.96784375,0.100625,0.1465,1.2215625,0.93559375,-0.35196875,-0.36571875,1.21678125,0.018585509641802576,0.021022107135665758,True
46443,22688,0,22689,3536.0,38032.0,28225.0,0.008723,0.006222,-0.004697,0.7875000000000001,-2.7825,-3.6050000000000004,0.967125,0.0985,0.14746875,1.2305625,0.9392812500000001,-0.353,-0.37071875,1.219,0.01853981029031331,0.021262708962984524,True
46444,22689,0,22690,3533.0,38036.0,28225.0,0.005978,0.007442,-0.0018909999999999999,0.7175,-2.2225,-3.8675,0.967,0.09715625,0.14696875,1.23078125,0.9378125,-0.353375,-0.3705,1.21709375,0.018499745928439077,0.021233407193122833,True
46445,22690,0,22691,3533.0,38035.0,28225.0,0.004331,0.002928,-0.001281,0.4025,-1.715,-3.8675,0.9763437500000001,0.09975,0.14890625,1.2380625,0.9335,-0.35234375,-0.37343750000000003,1.21284375,0.01856469154021366,0.021430860952625166,True
46446,22691,0,22692,3533.0,38034.0,28228.0,0.001647,-0.00042699999999999997,0.00042699999999999997,0.29750000000000004,-1.225,-3.7625,0.9678125000000001,0.09975,0.14684375,1.2305625,0.93871875,-0.35446875,-0.37078125,1.22078125,0.018650324696571345,0.02123957351592904,True
46447,22692,0,22693,3531.0,38035.0,28225.0,-0.002013,-0.000122,0.000976,0.29750000000000004,-0.7350000000000001,-3.8850000000000002,0.97121875,0.09584375,0.1485,1.23640625,0.93240625,-0.35253125,-0.37325,1.2120312500000001,0.018411843738009782,0.02140666509390418,True
46448,22693,0,22694,3530.0,38035.0,28223.0,-0.002623,-0.000366,0.0021349999999999997,0.3325,-0.3325,-3.9200000000000004,0.96709375,0.10028125,0.14590625000000002,1.222,0.9355,-0.3474375,-0.3715625,1.21853125,0.018388742141755163,0.02123248150380182,True
46449,22694,0,22695,3530.0,38035.0,28225.0,0.00183,-0.001647,-0.002257,0.3325,0.035,-3.9200000000000004,0.961125,0.096625,0.1480625,1.2366875,0.9328125,-0.35253125,-0.37290625,1.2124062500000001,0.01844392459202778,0.021374912973293858,True
46450,22695,0,22696,3532.0,38035.0,28226.0,-6.1e-05,-0.003477,-0.0011589999999999999,0.10500000000000001,0.42000000000000004,-4.0075,0.9711875,0.1000625,0.14571875,1.23125,0.9345,-0.35478125,-0.37121875,1.21771875,0.018675747703543837,0.02121098272937212,True
46451,22696,0,22697,3531.0,38034.0,28228.0,-0.001037,-0.005856,0.000793,-0.035,1.0325000000000002,-4.0425,0.96703125,0.09771875000000001,0.148125,1.23075,0.934625,-0.352375,-0.37375,1.2188125,0.018482540203984214,0.02141135442843223,True
46452,22697,0,22698,3531.0,38035.0,28226.0,-0.0050019999999999995,-0.006405,0.001037,-0.052500000000000005,1.6975000000000002,-4.025,0.96809375,0.09828125,0.14846875,1.2306875,0.93190625,-0.34700000000000003,-0.371625,1.21209375,0.018288957571774758,0.02134013427500218,True
46453,22698,0,22699,3532.0,38036.0,28227.0,-0.012993,0.00042699999999999997,0.001281,0.2625,2.0650000000000004,-4.4975000000000005,0.97228125,0.098375,0.1480625,1.2258437500000001,0.933,-0.3525625,-0.36834375,1.21190625,0.018517045177483888,0.021191684395867078,True
46454,22699,0,22700,3531.0,38035.0,28226.0,-0.011346,0.003965,0.002928,0.7000000000000001,1.2600000000000002,-4.550000000000001,0.97059375,0.1048125,0.14865625,1.23115625,0.93265625,-0.35471875,-0.36659375,1.2146875,0.018868263465370547,0.02114575411263628,True
46455,22700,0,22701,3532.0,38035.0,28228.0,-0.009821,0.003538,0.0075639999999999995,0.7000000000000001,0.525,-4.445,0.96728125,0.09953125,0.14803125,1.2313125,0.9360937500000001,-0.35246875,-0.37193750000000003,1.2180625,0.018560746536221303,0.021334731799636367,True
46456,22701,0,22702,3531.0,38034.0,28227.0,-0.012749,-0.001037,0.001769,0.5425000000000001,-0.8225000000000001,-4.532500000000001,0.97084375,0.10084375,0.1476875,1.23234375,0.9328125,-0.35540625000000003,-0.37103125000000003,1.21196875,0.01873300717371528,0.021284234740784717,True
46457,22702,0,22703,3533.0,38036.0,28229.0,0.002013,0.001098,-0.00122,0.0175,-2.7125000000000004,-5.005000000000001,0.96778125,0.0975,0.1475625,1.2309375,0.94596875,-0.35284375,-0.3715625,1.2250625,0.018492450188697163,0.021300439805613615,True
46458,22703,0,22704,3532.0,38034.0,28229.0,-0.004514,0.00042699999999999997,0.001281,0.45500000000000007,-3.6050000000000004,-4.305000000000001,0.97284375,0.10025,0.1465,1.230875,0.93134375,-0.35471875,-0.37115625,1.21390625,0.01868092810556476,0.021240528955207044,True
46459,22704,0,22705,3533.0,38035.0,28230.0,-0.008905999999999999,0.002074,0.008479,0.42000000000000004,-3.7450000000000006,-4.0425,0.9683125,0.097125,0.148375,1.246875,0.93721875,-0.3511875,-0.37590625,1.209625,0.01841029313252177,0.021508174696068992,True
46460,22705,0,22706,3534.0,38038.0,28230.0,0.0070149999999999995,0.001586,0.009821,0.035,-4.6025,-3.9200000000000004,0.9670625,0.10015625,0.14221875,1.2278125,0.9434375,-0.353375,-0.37015625,1.22153125,0.01862293213979582,0.021024690803941808,True
46461,22706,0,22707,3533.0,38035.0,28229.0,0.022082,-0.004392,0.006588,-0.35000000000000003,-5.32,-3.5525,0.9882500000000001,0.100625,0.15146875,1.255875,0.93034375,-0.3575,-0.37046875,1.20996875,0.018808375243764754,0.021416801841367947,True
46462,22707,0,22708,3533.0,38036.0,28228.0,0.02013,-0.009211,0.000366,-0.56,-5.232500000000001,-3.535,0.9573125,0.10409375,0.14284375,1.2225625,0.938875,-0.3524375,-0.36834375,1.22434375,0.018746840023714257,0.02097752334932488,True
46463,22708,0,22709,3533.0,38034.0,28227.0,0.0071979999999999995,-0.003477,-0.008905999999999999,0.22750000000000004,-4.2,-3.9725000000000006,0.9560625,0.09431250000000001,0.14990625,1.23896875,0.92984375,-0.35181250000000003,-0.3745,1.20975,0.018319991581735445,0.021514543888079753,True
46464,22709,0,22710,3534.0,38035.0,28228.0,0.010614,0.004331,-0.011163,0.665,-3.8150000000000004,-4.130000000000001,0.9778125,0.10425,0.13784375000000001,1.22046875,0.93621875,-0.3498125,-0.362,1.22278125,0.018647474184862824,0.020517352844594043,True
46465,22710,0,22711,3532.0,38035.0,28227.0,0.014029999999999999,0.009211,-0.01098,0.77,-3.0100000000000002,-4.2,0.9546875,0.0903125,0.14596875,1.220375,0.9294687500000001,-0.34728125,-0.37384375000000003,1.21859375,0.01797300263248078,0.02132665267454995,True
46466,22711,0,22712,3534.0,38034.0,28225.0,0.011712,0.007442,-0.006527,0.5950000000000001,-1.5575,-4.165,0.98803125,0.10221875,0.14553125,1.23334375,0.93075,-0.35734375,-0.37103125000000003,1.218875,0.01886751300621604,0.021195758796624577,True
46467,22712,0,22713,3535.0,38034.0,28228.0,0.005429,0.002013,-0.0050019999999999995,0.2625,0.21000000000000002,-4.1825,0.95578125,0.094125,0.15234375,1.24353125,0.93484375,-0.35190625000000003,-0.3751875,1.21015625,0.018316071252122205,0.021642141214298354,True
46468,22713,0,22714,3534.0,38035.0,28225.0,-0.0048189999999999995,-0.000183,0.001769,0.28,3.5000000000000004,-4.9175,0.97346875,0.10515625,0.137875,1.20965625,0.9372812500000001,-0.35396875,-0.3695625,1.217,0.018852163469249752,0.020822593758094754,True
46469,22714,0,22715,3532.0,38035.0,28226.0,-0.007808,0.002989,0.0018909999999999999,0.49000000000000005,4.987500000000001,-5.1625000000000005,0.976125,0.0873125,0.1506875,1.2374375,0.93203125,-0.3521875,-0.374375,1.21228125,0.01804765998947733,0.02154157798917921,True
46470,22715,0,22716,3532.0,38033.0,28227.0,-0.010309,0.0050019999999999995,0.002806,0.5950000000000001,5.915000000000001,-5.495,0.981875,0.10365625,0.1460625,1.234875,0.9355625000000001,-0.35615625,-0.370625,1.213,0.01887869724928374,0.021201241248429203,True
46471,22716,0,22717,3533.0,38035.0,28228.0,-0.009455,0.00183,0.00793,0.17500000000000002,6.930000000000001,-5.617500000000001,0.9544375,0.0968125,0.1474375,1.22346875,0.9391875000000001,-0.34521875,-0.37243750000000003,1.2180312500000001,0.018156799268850273,0.021330447559871683,True
46472,22717,0,22718,3535.0,38035.0,28229.0,-0.015067,-0.010431,0.005429,-0.2625,7.2975,-5.5825000000000005,0.9666875,0.09834375000000001,0.150375,1.2345625,0.9330625,-0.35231250000000003,-0.37490625,1.21225,0.01850568606164199,0.021550082884934176,True
46473,22718,0,22719,3536.0,38035.0,28231.0,-0.00183,-0.008662,-0.0034159999999999998,-0.7175,6.072500000000001,-6.825000000000001,0.96096875,0.100375,0.14490625000000001,1.22996875,0.93384375,-0.35021875,-0.36740625,1.217875,0.018504710558298373,0.02102449865791522,True
46474,22719,0,22720,3535.0,38035.0,28234.0,-0.004331,-0.001647,-0.001098,-0.052500000000000005,6.195,-6.9125000000000005,0.9675312500000001,0.10337500000000001,0.1486875,1.23134375,0.9390625,-0.35050000000000003,-0.373375,1.2163125000000001,0.01863924765405228,0.02141937667639381,True
46475,22720,0,22721,3536.0,38034.0,28232.0,-0.017385,0.002623,0.000976,0.525,6.16,-6.6675,0.97596875,0.100875,0.15021875,1.2301250000000001,0.9340625,-0.35478125,-0.37296875,1.21103125,0.018709108709403826,0.021465891388384933,True
46476,22721,0,22722,3535.0,38035.0,28233.0,-0.013115,0.011346,0.00244,0.6475000000000001,5.53,-6.65,0.9677187500000001,0.10040625,0.1454375,1.23065625,0.93734375,-0.35528125,-0.369875,1.211,0.018710007711366505,0.021145471611979955,True
46477,22722,0,22723,3536.0,38035.0,28234.0,-0.0068319999999999995,0.00976,0.000915,0.49000000000000005,4.795000000000001,-6.4750000000000005,0.96725,0.09715625,0.148,1.231125,0.94115625,-0.35181250000000003,-0.36971875,1.2180625,0.01843676933698467,0.02124434653149208,True
46478,22723,0,22724,3537.0,38035.0,28234.0,-0.012505,0.0066489999999999995,-0.002013,0.15750000000000003,2.7300000000000004,-6.580000000000001,0.9764375000000001,0.10003125,0.14825,1.23853125,0.92896875,-0.354375,-0.37071875,1.21178125,0.018658095311417353,0.021294765875544804,True
46479,22724,0,22725,3537.0,38035.0,28236.0,-0.010858,0.004514,-0.000122,-0.052500000000000005,1.4700000000000002,-6.580000000000001,0.9677187500000001,0.1006875,0.1464375,1.230625,0.9363125,-0.35578125,-0.37078125,1.216,0.018741700186685657,0.02122290396414764,True
46480,22725,0,22726,3539.0,38034.0,28235.0,-0.00244,0.002257,0.0046359999999999995,-0.28,0.385,-6.0025,0.9679375,0.09771875000000001,0.147625,1.23025,0.9384687500000001,-0.35278125,-0.37084375,1.2201875,0.01849891375343422,0.02127414033418519,True
46481,22726,0,22727,3537.0,38037.0,28236.0,0.006161,-0.001586,0.0071979999999999995,-0.56,-0.21000000000000002,-5.2675,0.97321875,0.0975,0.1476875,1.22015625,0.93140625,-0.35296875,-0.37175,1.2178437500000001,0.018497488114257117,0.021313098156677302,True
46482,22727,0,22728,3538.0,38037.0,28237.0,0.008845,-0.006161,0.009637999999999999,-0.9275000000000001,-0.10500000000000001,-4.532500000000001,0.97475,0.10396875,0.1484375,1.2261250000000001,0.934125,-0.35271875,-0.37265625,1.21225,0.018753039637514804,0.021380260922524603,True
46483,22728,0,22729,3538.0,38037.0,28237.0,0.003111,-0.007991,0.006771,-0.7875000000000001,0.0175,-3.8850000000000002,0.96959375,0.10015625,0.14559375,1.2316875,0.9323125,-0.35365625,-0.370875,1.21159375,0.01863426564543055,0.021192047885026696,True
46484,22729,0,22730,3539.0,38037.0,28239.0,0.004575,-0.004758,0.002196,-0.45500000000000007,-0.665,-4.165,0.96721875,0.09771875000000001,0.1464375,1.2309375,0.9400000000000001,-0.35259375,-0.371125,1.21790625,0.018491356798492974,0.02123670942560099,True
46485,22730,0,22731,3538.0,38035.0,28240.0,0.008845,-0.001586,-0.004514,-0.31500000000000006,-1.715,-4.567500000000001,0.969,0.09665625,0.148,1.21971875,0.9333125,-0.3525,-0.37240625,1.2174375,0.018443948259932244,0.02135227210074918,True
46486,22731,0,22732,3541.0,38035.0,28239.0,0.009516,-0.0028669999999999998,-0.011651,-0.36750000000000005,-2.2925000000000004,-4.742500000000001,0.97484375,0.1010625,0.1475625,1.2294375,0.9330625,-0.35334375,-0.3701875,1.21684375,0.018658885394331116,0.021245220210144057,True
46487,22732,0,22733,3541.0,38035.0,28239.0,0.0068319999999999995,-0.0032329999999999998,-0.013725,-0.22750000000000004,-2.3625000000000003,-4.760000000000001,0.97590625,0.09925,0.14790625000000002,1.2363125,0.93353125,-0.35471875,-0.37215625,1.2125625,0.01863986830067582,0.021338386914370785,True
46488,22733,0,22734,3542.0,38033.0,28241.0,0.000549,0.000793,-0.008784,0.0175,-1.7850000000000001,-4.760000000000001,0.9599062500000001,0.1003125,0.14503125,1.2244375,0.93803125,-0.3525,-0.37075,1.2178125,0.018594086849399446,0.021163946534267515,True
46489,22734,0,22735,3542.0,38034.0,28241.0,-0.000122,0.0048189999999999995,-0.004758,0.31500000000000006,-1.61,-4.795000000000001,0.96859375,0.09759375,0.14828125,1.236,0.9328125,-0.35246875,-0.3670625,1.2114375,0.018481185814066593,0.02114919473777358,True
46490,22735,0,22736,3542.0,38034.0,28241.0,0.000366,0.008479,0.000244,0.43750000000000006,-1.3650000000000002,-4.987500000000001,0.9673437500000001,0.09759375,0.1484375,1.2243125,0.937875,-0.35275,-0.3701875,1.21353125,0.018492521378489085,0.021281124734883555,True
46491,22736,0,22737,3542.0,38032.0,28239.0,0.001098,0.008662,0.004209,0.43750000000000006,-0.9800000000000001,-5.180000000000001,0.96678125,0.09990625,0.14840625,1.2330625,0.93340625,-0.354875,-0.37075,1.21809375,0.01867310959304862,0.021302432218950996,True
46492,22737,0,22738,3544.0,38034.0,28242.0,-0.002196,0.0070149999999999995,0.002989,0.2625,-0.6475000000000001,-5.3025,0.9665312500000001,0.0985625,0.15296875000000001,1.23615625,0.9266562500000001,-0.3545625,-0.37034375,1.2122187500000001,0.018605343454640173,0.021473332726379787,True
46493,22738,0,22739,3544.0,38033.0,28241.0,-0.011833999999999999,-0.000183,0.000915,0.0175,-1.0150000000000001,-5.3375,0.9565,0.09640625,0.148875,1.233,0.941875,-0.35346875,-0.37509375,1.2055,0.01847272783266244,0.02149607116895704,True
46494,22739,0,22740,3546.0,38030.0,28242.0,-0.011895,-0.001281,0.000732,0.0,-2.0125,-5.460000000000001,0.9697187500000001,0.10003125,0.14615625000000002,1.2303125,0.94471875,-0.3519375,-0.3690625,1.2089375,0.018559868182973123,0.021142329541811472,True
46495,22740,0,22741,3545.0,38031.0,28240.0,-0.010735999999999999,-0.002196,-0.000244,-0.052500000000000005,-3.5000000000000004,-5.442500000000001,0.97565625,0.1001875,0.14728125,1.23128125,0.940625,-0.35096875,-0.37234375000000003,1.22078125,0.018527240317697834,0.021320272080931898,True
46496,22741,0,22742,3544.0,38031.0,28239.0,-0.00732,-0.0030499999999999998,6.1e-05,-0.10500000000000001,-5.075,-5.390000000000001,0.97428125,0.1005,0.1470625,1.2255625,0.9296875,-0.35709375,-0.37040625,1.2128125,0.018786878052723346,0.021233488875467558,True
46497,22742,0,22743,3545.0,38031.0,28236.0,-0.005246,-0.003355,0.000305,-0.22750000000000004,-6.825000000000001,-5.215000000000001,0.97459375,0.1001875,0.14475,1.23053125,0.93125,-0.35734375,-0.37103125000000003,1.224375,0.01878411926587849,0.021163702295117284,True
46498,22743,0,22744,3544.0,38029.0,28236.0,-0.000915,0.001464,0.0077469999999999995,-0.24500000000000002,-10.325000000000001,-4.952500000000001,0.9705312500000001,0.09721875,0.1480625,1.2360625,0.9255625000000001,-0.36012500000000003,-0.36793750000000003,1.22415625,0.018774277636095876,0.02117536619584649,True
46499,22744,0,22745,3542.0,38029.0,28234.0,0.008052,0.005673,0.012199999999999999,-0.24500000000000002,-11.690000000000001,-4.760000000000001,0.96759375,0.09965625,0.1475625,1.23040625,0.9267500000000001,-0.35909375,-0.36840625,1.2253125,0.01883280243133019,0.021173676468890942,True
46500,22745,0,22746,3541.0,38028.0,28233.0,0.01952,0.004697,0.013176,-0.665,-12.302500000000002,-4.48,0.97309375,0.10078125,0.14484375,1.23096875,0.9266562500000001,-0.3559375,-0.3698125,1.223,0.018751844391126395,0.021118597034753554,True
46501,22746,0,22747,3541.0,38028.0,28230.0,0.028975,-0.002623,0.010187,-1.2775,-12.232500000000002,-3.7625,0.9742500000000001,0.09915625,0.151375,1.23484375,0.93659375,-0.35140625000000003,-0.37243750000000003,1.20865625,0.018502524879851653,0.02149200300544416,True
46502,22747,0,22748,3540.0,38028.0,28230.0,0.026108,-0.014457,0.00488,-1.7325000000000002,-11.357500000000002,-3.3600000000000003,0.9677187500000001,0.09715625,0.14881250000000001,1.23509375,0.93090625,-0.35571875000000003,-0.36778125,1.22571875,0.018594195665032467,0.021199868166085083,True
46503,22748,0,22749,3538.0,38024.0,28228.0,0.008113,-0.021471999999999998,-0.0064659999999999995,-1.435,-9.047500000000001,-3.3950000000000005,0.9675312500000001,0.09715625,0.14825,1.23190625,0.92471875,-0.35681250000000003,-0.3675625,1.22534375,0.01863826598821172,0.021167997414595737,True
46504,22749,0,22750,3536.0,38022.0,28228.0,0.008784,-0.014029999999999999,-0.010735999999999999,-0.9100000000000001,-8.435,-3.9375000000000004,0.9670625,0.09840625,0.14815625,1.23721875,0.9267500000000001,-0.35728125,-0.368,1.21753125,0.018708471414476936,0.021181723982271833,True
46505,22750,0,22751,3535.0,38019.0,28227.0,0.012383,-0.003721,-0.013237,-0.14,-7.9625,-4.235,0.9606250000000001,0.1001875,0.14471875,1.2303125,0.926875,-0.35675,-0.37,1.216625,0.018760199944573886,0.021120999179318835,True
46506,22751,0,22752,3535.0,38018.0,28226.0,0.010858,0.005612,-0.01342,0.4025,-6.9125000000000005,-4.41,0.9745312500000001,0.1008125,0.14906250000000001,1.2354375,0.9305625000000001,-0.3546875,-0.3649375,1.2121250000000001,0.018702765124783475,0.021095888302606974,True
46507,22752,0,22753,3532.0,38018.0,28225.0,0.005124,0.011651,-0.013115,1.0150000000000001,-5.3725000000000005,-4.4975000000000005,0.96746875,0.09784375000000001,0.14890625,1.23646875,0.94084375,-0.3525625,-0.37303125,1.21196875,0.018495230224745342,0.02141455014956336,True
46508,22753,0,22754,3532.0,38020.0,28224.0,-0.0053679999999999995,0.015006,-0.006222,1.2425000000000002,-2.1875,-4.550000000000001,0.96759375,0.09834375000000001,0.14940625,1.237625,0.93640625,-0.35321875,-0.3708125,1.21134375,0.018542210154458536,0.021345974821315457,True
46509,22754,0,22755,3533.0,38018.0,28225.0,-0.008173999999999999,0.014335,-0.004209,1.1725,-1.1375000000000002,-4.760000000000001,0.968125,0.097875,0.1483125,1.2265,0.938625,-0.3525,-0.37059375,1.21071875,0.01849399445642131,0.021292310533057898,True
46510,22755,0,22756,3533.0,38019.0,28223.0,-0.009943,0.01342,-0.002745,0.9450000000000001,-0.35000000000000003,-4.865,0.9723437500000001,0.10003125,0.14653125,1.23096875,0.93309375,-0.356,-0.37043750000000003,1.21728125,0.018723569141074068,0.021212944987138615,True
46511,22756,0,22757,3531.0,38019.0,28225.0,-0.011041,0.009699,-0.0011589999999999999,0.6825000000000001,0.08750000000000001,-5.0925,0.975125,0.0994375,0.14715625000000002,1.23425,0.9244375,-0.35196875,-0.3713125,1.212625,0.0185367456173333,0.021273731154200254,True
46512,22757,0,22758,3532.0,38018.0,28226.0,-0.012993,0.006405,0.002257,0.43750000000000006,0.28,-5.1275,0.96740625,0.1001875,0.14584375,1.23059375,0.939125,-0.354875,-0.370625,1.21925,0.018684657589086374,0.0211922652783833,True
46513,22758,0,22759,3532.0,38019.0,28225.0,-0.014395999999999999,-0.002928,0.008845,-0.22750000000000004,-0.35000000000000003,-5.005000000000001,0.9753125,0.09996875000000001,0.14815625,1.23359375,0.92396875,-0.35509375,-0.37165625,1.2003125000000001,0.018684489769208956,0.02132856686750618,True
46514,22759,0,22760,3531.0,38021.0,28225.0,-0.012078,-0.0046359999999999995,0.008418,-0.47250000000000003,-1.0150000000000001,-4.865,0.9669375,0.09875,0.1466875,1.23115625,0.93978125,-0.35278125,-0.36712500000000003,1.2204375,0.018541260046016306,0.021086299676305677,True
46515,22760,0,22761,3532.0,38019.0,28229.0,-0.011712,-0.0073809999999999995,0.010126,-0.45500000000000007,-2.2575000000000003,-4.742500000000001,0.97784375,0.0996875,0.14846875,1.2285,0.9333750000000001,-0.35375,-0.372,1.21271875,0.01861879587332546,0.02135519243394059,True
46516,22761,0,22762,3534.0,38019.0,28229.0,-0.006893,-0.005612,0.008601,-0.525,-3.6400000000000006,-4.4975000000000005,0.96303125,0.096375,0.14896875,1.23934375,0.941125,-0.35265625,-0.37146875,1.2133125,0.018438697010721365,0.02135437569801779,True
46517,22762,0,22763,3536.0,38021.0,28229.0,0.013725,-0.0059169999999999995,0.004575,-0.6300000000000001,-5.0575,-4.0600000000000005,0.9661875,0.10284375,0.14721875,1.2319375000000001,0.93775,-0.354375,-0.36859375,1.21628125,0.01877357764262068,0.021167101610038538,True
46518,22763,0,22764,3536.0,38022.0,28230.0,0.015311,-0.008173999999999999,0.003355,-0.8575,-6.3875,-3.9200000000000004,0.9705625,0.09925,0.1475625,1.2285,0.9334687500000001,-0.35428125,-0.370875,1.216625,0.018622239159695998,0.021272830786748523,True
46519,22764,0,22765,3536.0,38024.0,28230.0,0.013054,-0.0062829999999999995,0.005612,-0.6825000000000001,-6.0375000000000005,-3.7975000000000003,0.9695,0.1019375,0.14671875,1.2314687500000001,0.9244687500000001,-0.355625,-0.37146875,1.21759375,0.018786727911929996,0.021262054630991414,True
46520,22765,0,22766,3537.0,38023.0,28229.0,0.026047,-0.001281,0.013115,-0.805,-4.795000000000001,-3.7975000000000003,0.97984375,0.1054375,0.14525,1.2421875,0.93325,-0.35275,-0.3701875,1.21190625,0.018814610259621604,0.021150329680475376,True
46521,22766,0,22767,3538.0,38020.0,28234.0,-0.027145,-0.012017,-0.036478,0.10500000000000001,-5.495,-3.8325000000000005,0.96409375,0.1005625,0.1469375,1.22590625,0.9294375,-0.357,-0.37053125000000003,1.2138125,0.018785667364617974,0.021233379965814248,True
46522,22767,0,22768,3536.0,38022.0,28229.0,0.028609,0.019032,0.008539999999999999,0.525,-6.615,-4.812500000000001,0.9751562500000001,0.09984375000000001,0.14903125,1.2325625,0.93225,-0.35309375,-0.37293750000000003,1.211625,0.018598766327173524,0.021415914679960103,True
46523,22768,0,22769,3537.0,38019.0,28226.0,0.04758,-0.003477,0.00042699999999999997,-0.9800000000000001,-4.6725,-3.6750000000000003,0.96528125,0.10237500000000001,0.1489375,1.23265625,0.93934375,-0.353125,-0.3721875,1.211875,0.018703965096881818,0.021381954328063498,True
46524,22769,0,22770,3537.0,38018.0,28231.0,-0.022143,-0.023119,-0.026168999999999998,-0.7350000000000001,-3.6400000000000006,-3.6225000000000005,0.9655625,0.09615625,0.14859375,1.2396562500000001,0.9375625,-0.35246875,-0.37053125000000003,1.2064375,0.018422156891177613,0.021301341143312176,True
46525,22770,0,22771,3538.0,38021.0,28232.0,-0.022203999999999998,-0.009455,0.007869,-0.07,-1.8025000000000002,-4.077500000000001,0.9535625,0.10187500000000001,0.14496875,1.2281250000000001,0.93521875,-0.35275,-0.37043750000000003,1.2159375000000001,0.018668322879346274,0.02114883042210465,True
46526,22771,0,22772,3538.0,38020.0,28231.0,0.001281,-0.005124,0.004758,0.0175,-1.6975000000000002,-3.6750000000000003,0.9707187500000001,0.0955,0.14928125,1.2345625,0.9340937500000001,-0.35281250000000003,-0.37234375000000003,1.2124375,0.01840906466142258,0.02140233230544354,True
46527,22772,0,22773,3538.0,38020.0,28231.0,-0.000915,0.010248,-0.007259,0.9100000000000001,-1.9075000000000002,-4.742500000000001,0.97575,0.10065625,0.14959375,1.2354375,0.9331875000000001,-0.353875,-0.37009375,1.20971875,0.018663611026992627,0.02132480512103077,True
46528,22773,0,22774,3536.0,38022.0,28231.0,-0.002806,0.014152,0.009577,0.9275000000000001,-0.42000000000000004,-4.795000000000001,0.9655312500000001,0.100125,0.14384375,1.2311875,0.93425,-0.35253125,-0.37090625,1.2176875,0.018587646818028415,0.021121496046130825,True
46529,22774,0,22775,3539.0,38021.0,28233.0,-0.005307,0.009089,0.004331,0.8575,0.0,-4.357500000000001,0.97321875,0.1,0.1484375,1.2350625,0.9335625000000001,-0.35390625000000003,-0.3723125,1.2121875,0.018637923844352484,0.021366458353100474,True
46530,22775,0,22776,3537.0,38021.0,28232.0,-0.010309,0.00976,-0.00122,0.9625000000000001,-0.22750000000000004,-4.655,0.968,0.1021875,0.15196875,1.23696875,0.9439375,-0.352875,-0.36409375,1.21259375,0.0186861920820437,0.02118127213330067,True
46531,22776,0,22777,3537.0,38023.0,28233.0,-0.006405,0.010675,0.007259,0.5075000000000001,-0.07,-4.8825,0.9676250000000001,0.099375,0.14846875,1.235875,0.93365625,-0.355625,-0.37053125000000003,1.2262187500000001,0.018681516076881625,0.021296211997840632,True
46532,22777,0,22778,3537.0,38022.0,28234.0,-0.002989,-0.012261,-0.00183,-0.6125,0.47250000000000003,-4.112500000000001,0.96890625,0.10053125,0.14684375,1.2311875,0.93034375,-0.35278125,-0.375625,1.1965937500000001,0.018614403642294452,0.02143406579318479,True
46533,22778,0,22779,3537.0,38021.0,28235.0,-0.016042999999999998,-0.011651,-0.00183,-0.4025,0.8750000000000001,-4.340000000000001,0.9673125,0.09865625,0.15184375,1.227375,0.93721875,-0.3529375,-0.36534375,1.2311875,0.01854370750961768,0.021226357621160177,True
46534,22779,0,22780,3538.0,38018.0,28235.0,-0.008113,-0.009699,0.005612,-0.3325,0.9625000000000001,-4.2525,0.9648125000000001,0.10125,0.14846875,1.2356875,0.9221875,-0.349125,-0.38209375,1.20328125,0.018496557884523573,0.021760333851558587,True
46535,22780,0,22781,3538.0,38021.0,28234.0,0.001952,-0.008845,-0.000244,-0.4025,0.3325,-4.165,0.95725,0.0986875,0.14765625000000002,1.22921875,0.93053125,-0.3620625,-0.36653125000000003,1.23559375,0.018912602329954616,0.021102203457868052,True
46536,22781,0,22782,3541.0,38021.0,28235.0,-0.000366,-0.008173999999999999,-0.005307,-0.28,-0.31500000000000006,-4.3925,0.973125,0.10021875,0.14678125,1.21853125,0.92059375,-0.35515625,-0.368,1.2058125,0.018697272779763012,0.021125297521339462,True
46537,22782,0,22783,3540.0,38020.0,28234.0,0.00183,0.00061,0.001464,0.08750000000000001,-0.35000000000000003,-4.2700000000000005,0.9693437500000001,0.10028125,0.14853125,1.2369375,0.95875,-0.34975,-0.37721875,1.20915625,0.018481965933941826,0.02156726759487277,True
46538,22783,0,22784,3540.0,38019.0,28234.0,-0.002379,0.0048189999999999995,-0.0034159999999999998,0.47250000000000003,-0.8925000000000001,-4.322500000000001,0.9676250000000001,0.10337500000000001,0.15159375,1.2316562500000001,0.9371875000000001,-0.35775,-0.3665625,1.2316875,0.018931346286089643,0.021265053287676503,True
46539,22784,0,22785,3542.0,38021.0,28236.0,-0.0046359999999999995,0.011101999999999999,-0.0051849999999999995,0.9800000000000001,-1.5575,-4.4975000000000005,0.96978125,0.09975,0.14578125,1.23153125,0.92596875,-0.357625,-0.371125,1.21353125,0.01877748754240202,0.02120978206791849,True
46540,22785,0,22786,3542.0,38022.0,28236.0,0.001098,0.01525,-0.00366,1.0850000000000002,-2.5200000000000005,-4.62,0.97396875,0.0999375,0.1476875,1.2380625,0.93171875,-0.349375,-0.38134375,1.20121875,0.018452732359660155,0.02169819905845017,True
46541,22786,0,22787,3543.0,38024.0,28237.0,0.003477,0.012322,-0.005307,0.8925000000000001,-3.6050000000000004,-4.6025,0.968125,0.09665625,0.1483125,1.23671875,0.9458125000000001,-0.35375,-0.37284375000000003,1.21359375,0.01849432838885182,0.021382660773837683,True
46542,22787,0,22788,3543.0,38025.0,28238.0,0.004697,0.0011589999999999999,-6.1e-05,0.15750000000000003,-5.0575,-4.4275,0.968125,0.10003125,0.14534375,1.23109375,0.9285625000000001,-0.35996875,-0.3664375,1.21271875,0.01888343965958495,0.021003532009962477,True
46543,22788,0,22789,3543.0,38024.0,28238.0,0.011346,-0.005124,0.003294,-0.36750000000000005,-5.215000000000001,-4.165,0.9738125,0.09996875000000001,0.14821875,1.23571875,0.9314375,-0.3510625,-0.36909375,1.2085937500000001,0.018522035742793562,0.02122822068424272,True
46544,22789,0,22790,3545.0,38025.0,28239.0,0.012749,-0.010065,0.000183,-0.525,-5.0575,-4.025,0.9685,0.0999375,0.1454375,1.2314375,0.9344687500000001,-0.35621875000000003,-0.371625,1.214875,0.01872853313899556,0.021215758079323802,True
46545,22790,0,22791,3545.0,38025.0,28241.0,0.013786,-0.011163,0.0057339999999999995,-0.7525000000000001,-3.9725000000000006,-3.7800000000000002,0.967125,0.10575,0.147875,1.2310625,0.9410000000000001,-0.3529375,-0.37084375,1.2178437500000001,0.018834996804800243,0.021284398493589294,True
46546,22791,0,22792,3547.0,38028.0,28241.0,0.007991,-0.012017,0.010431,-0.7875000000000001,-2.415,-3.7800000000000002,0.9731875,0.097,0.14796875,1.23571875,0.93303125,-0.3521875,-0.37196875,1.2125625,0.018445468194592373,0.021333422233277728,True
46547,22792,0,22793,3547.0,38027.0,28242.0,-0.010735999999999999,-0.005429,0.00122,0.21000000000000002,-1.3125000000000002,-4.0075,0.9679375,0.099625,0.14690625000000002,1.23096875,0.93825,-0.3549375,-0.3715625,1.2161250000000001,0.01866407992219237,0.02127351293131083,True
46548,22793,0,22794,3549.0,38029.0,28246.0,-0.0042699999999999995,0.00488,0.001098,0.5775,-1.4000000000000001,-4.2,0.9683125,0.099375,0.14634375,1.23103125,0.9400625,-0.352625,-0.37065625,1.21928125,0.01856062744775974,0.02121403686041487,True
46549,22794,0,22795,3549.0,38030.0,28244.0,0.0015249999999999999,0.008601,-0.003172,0.6125,-1.4175000000000002,-4.2175,0.97275,0.09978125,0.14584375,1.2241250000000001,0.92621875,-0.3544375,-0.37140625,1.2141875,0.01865034862743186,0.021223641947210166,True
46550,22795,0,22796,3550.0,38029.0,28246.0,-0.0028669999999999998,0.007076,-0.005673,0.7175,-1.1025,-4.2,0.97196875,0.10003125,0.1453125,1.2314687500000001,0.9332812500000001,-0.35353125,-0.37109375,1.2185625,0.018624095838257543,0.021189293155954476,True
46551,22796,0,22797,3551.0,38031.0,28246.0,-0.011041,0.0062829999999999995,-0.0060999999999999995,0.7875000000000001,-0.7875000000000001,-3.9200000000000004,0.97396875,0.0998125,0.148375,1.2321875,0.9335,-0.35528125,-0.3713125,1.21321875,0.018685629015267477,0.021323738719447302,True
46552,22797,0,22798,3553.0,38029.0,28247.0,-0.005795,0.007503,-0.0032329999999999998,0.8400000000000001,-1.4875,-3.9375000000000004,0.96759375,0.09840625,0.14759375,1.22171875,0.93521875,-0.352875,-0.3725,1.21378125,0.018530922940309922,0.021339368140322085,True
46553,22798,0,22799,3554.0,38032.0,28247.0,-0.001403,0.0060999999999999995,-0.000305,0.47250000000000003,-2.0650000000000004,-4.077500000000001,0.96796875,0.09990625,0.1486875,1.24921875,0.92040625,-0.353,-0.36943750000000003,1.21128125,0.018597554716051408,0.021261262185473098,True
46554,22799,0,22800,3555.0,38031.0,28247.0,-0.000183,0.000732,0.002379,0.15750000000000003,-2.415,-4.1475,0.961875,0.0988125,0.1489375,1.234875,0.931875,-0.35225,-0.37353125,1.21171875,0.01852241579320186,0.02143590703542393,True
46555,22800,0,22801,3553.0,38033.0,28249.0,-0.0030499999999999998,-0.0051849999999999995,0.0042699999999999995,-0.08750000000000001,-2.6250000000000004,-4.0600000000000005,0.972875,0.10259375,0.14290625,1.225875,0.93840625,-0.35353125,-0.370625,1.21959375,0.018729316718699675,0.021071730823481138,True
46556,22801,0,22802,3555.0,38033.0,28249.0,-0.0018909999999999999,-0.008113,0.005246,-0.29750000000000004,-3.1325000000000003,-4.025,0.9634375000000001,0.0925625,0.1501875,1.245125,0.9325625000000001,-0.35271875,-0.3720625,1.21175,0.018284662775075164,0.021428223401281695,True
46557,22802,0,22803,3555.0,38031.0,28248.0,0.0059169999999999995,-0.00549,0.003843,-0.21000000000000002,-4.2,-3.9375000000000004,0.96434375,0.1023125,0.14271875,1.22559375,0.93521875,-0.35359375,-0.37075,1.21925,0.018720286405368814,0.021069058194762163,True
46558,22803,0,22804,3555.0,38030.0,28246.0,0.003721,-0.004148,0.0008539999999999999,-0.07,-4.2875000000000005,-4.0425,0.9625,0.09568750000000001,0.14928125,1.2320312500000001,0.93353125,-0.353,-0.371875,1.21178125,0.018424321438837103,0.021383510706500835,True
46559,22804,0,22805,3556.0,38031.0,28242.0,0.0028669999999999998,-0.000976,0.000732,0.10500000000000001,-4.6025,-4.025,0.985125,0.10159375,0.14459375,1.2316875,0.93484375,-0.35578125,-0.3705,1.2190625,0.018778909011592473,0.02113595330419975,True
46560,22805,0,22806,3556.0,38028.0,28244.0,0.010187,0.000122,-0.000183,0.035,-4.69,-3.9375000000000004,0.9617187500000001,0.09365625,0.14984375,1.23059375,0.9322812500000001,-0.35303125,-0.37140625,1.2124375,0.018342172496493635,0.02138776870948922,True
46561,22806,0,22807,3556.0,38028.0,28240.0,0.014213,0.000366,-0.000976,0.07,-4.532500000000001,-3.7450000000000006,0.9873437500000001,0.1014375,0.151875,1.2455625000000001,0.93321875,-0.3540625,-0.3705625,1.21184375,0.01870324509514583,0.021437236009632526,True
46562,22807,0,22808,3555.0,38027.0,28236.0,0.006039,-0.000305,-0.002196,0.15750000000000003,-2.87,-3.7450000000000006,0.96159375,0.09546875,0.14065625,1.2251875,0.9410000000000001,-0.35281250000000003,-0.37134375000000003,1.21834375,0.018407781442081897,0.02100827944704526,True
46563,22808,0,22809,3554.0,38027.0,28235.0,0.0030499999999999998,0.001403,-0.00244,0.36750000000000005,-2.1175,-4.0600000000000005,0.981125,0.1005,0.1453125,1.22878125,0.934,-0.3556875,-0.37121875,1.2174375,0.018730224716506153,0.021194313476834228,True
46564,22809,0,22810,3551.0,38027.0,28233.0,0.0021349999999999997,0.003355,-0.0021349999999999997,0.43750000000000006,-1.4700000000000002,-4.2525,0.9643125,0.09759375,0.150875,1.23628125,0.93178125,-0.35246875,-0.37225,1.2119375000000001,0.018481185814066593,0.021463960036516943,True
46565,22810,0,22811,3551.0,38026.0,28232.0,0.00183,0.003477,-0.00244,0.43750000000000006,-0.5775,-4.340000000000001,0.96375,0.09928125,0.14909375,1.2245,0.941625,-0.3525,-0.372625,1.2125000000000001,0.01855174006775485,0.02140593186002739,True
46566,22811,0,22812,3550.0,38025.0,28231.0,-0.000793,0.002196,-0.002806,0.35000000000000003,0.5075000000000001,-4.322500000000001,0.974125,0.1006875,0.1449375,1.23046875,0.93384375,-0.3551875,-0.37059375,1.22025,0.018717778296718102,0.021153823960485162,True
46567,22812,0,22813,3549.0,38027.0,28231.0,-0.007991,-0.002806,-0.001952,0.17500000000000002,2.3625000000000003,-4.445,0.97446875,0.10009375,0.14840625,1.23321875,0.9336875,-0.354625,-0.37184375000000003,1.2123125000000001,0.01867073502466164,0.021346353822738584,True
46568,22813,0,22814,3548.0,38026.0,28234.0,-0.00671,-0.0015249999999999999,-0.0006709999999999999,0.28,3.0625000000000004,-4.567500000000001,0.958875,0.0999375,0.1489375,1.231375,0.94078125,-0.35303125,-0.374125,1.21234375,0.018600097267152317,0.02145974470878442,True
46569,22814,0,22815,3547.0,38025.0,28231.0,-0.001098,0.00183,0.000488,0.36750000000000005,3.5700000000000003,-4.7250000000000005,0.97296875,0.09996875000000001,0.146,1.23071875,0.934875,-0.35478125,-0.37115625,1.2208125,0.01867189835671384,0.021220012899470047,True
46570,22815,0,22816,3547.0,38024.0,28232.0,-6.1e-05,0.0011589999999999999,0.000976,0.29750000000000004,4.2175,-4.742500000000001,0.96928125,0.0981875,0.14803125,1.23490625,0.92428125,-0.3535625,-0.37146875,1.21171875,0.018549647510502826,0.021315908586756804,True
46571,22816,0,22817,3547.0,38024.0,28234.0,-0.003904,0.0,0.0017079999999999999,0.21000000000000002,4.987500000000001,-4.812500000000001,0.96825,0.09753125,0.14821875,1.230875,0.93278125,-0.3525,-0.37471875,1.21540625,0.01847987886253978,0.02145409370108117,True
46572,22817,0,22818,3547.0,38026.0,28235.0,-0.009699,-6.1e-05,-0.000366,0.3325,5.565,-5.0925,0.9736250000000001,0.100875,0.14971875,1.22671875,0.92528125,-0.35431250000000003,-0.37059375,1.21765625,0.018690221700982116,0.02135001327162987,True
46573,22818,0,22819,3545.0,38025.0,28238.0,-0.008601,0.0023179999999999997,6.1e-05,0.49000000000000005,5.232500000000001,-5.232500000000001,0.9688125,0.09996875000000001,0.14753125,1.23075,0.93225,-0.35571875000000003,-0.36678125,1.2121875,0.018709671624862232,0.021107116886847743,True
46574,22819,0,22820,3547.0,38027.0,28237.0,-0.006893,0.002562,-0.000244,0.5425000000000001,4.865,-5.285,0.9684375000000001,0.1011875,0.147875,1.23359375,0.93375,-0.35325,-0.370375,1.21525,0.018660240419656516,0.021265573467786195,True
46575,22820,0,22821,3546.0,38025.0,28237.0,-0.006039,0.001647,0.002013,0.35000000000000003,4.322500000000001,-5.1275,0.9683125,0.10103125,0.14571875,1.224875,0.9349375,-0.35265625,-0.3716875,1.2197500000000001,0.01862989791924649,0.021229808153415724,True
46576,22821,0,22822,3546.0,38028.0,28241.0,-0.004575,-0.001464,0.002806,0.36750000000000005,3.8850000000000002,-5.0575,0.97528125,0.10046875,0.1443125,1.2316875,0.9338125,-0.354875,-0.37109375,1.21609375,0.018696205585124127,0.021148260939253087,True
46577,22822,0,22823,3545.0,38028.0,28239.0,-0.002928,-0.001037,0.002806,0.24500000000000002,2.8350000000000004,-4.760000000000001,0.9628125000000001,0.0975625,0.1476875,1.23659375,0.93225,-0.35309375,-0.3733125,1.21275,0.018505092397141532,0.02137583884012483,True
46578,22823,0,22824,3546.0,38028.0,28241.0,-0.00244,0.000244,0.002928,0.31500000000000006,2.1350000000000002,-4.69,0.968,0.09784375000000001,0.14828125,1.23025,0.9362812500000001,-0.352625,-0.37259375,1.21225,0.01849774921594695,0.021371340504126687,True
46579,22824,0,22825,3546.0,38029.0,28242.0,-0.001281,0.002806,0.002013,0.5425000000000001,1.435,-4.567500000000001,0.9677187500000001,0.0981875,0.14725,1.23465625,0.9382812500000001,-0.35265625,-0.3713125,1.21246875,0.018513124210013027,0.021277577889988488,True
46580,22825,0,22826,3546.0,38032.0,28243.0,-0.00061,0.001952,-0.000976,0.4025,0.7175,-4.4275,0.968125,0.09765625,0.14796875,1.22978125,0.93796875,-0.3526875,-0.373625,1.21459375,0.018492568838654872,0.02139992512398135,True
46581,22826,0,22827,3547.0,38030.0,28244.0,0.0025009999999999998,0.000183,-0.0035989999999999998,0.385,-0.9450000000000001,-4.1825,0.97359375,0.10090625,0.14715625000000002,1.23559375,0.93309375,-0.3545625,-0.3715,1.21171875,0.01870157798975038,0.021281260899000884,True
46582,22827,0,22828,3547.0,38030.0,28245.0,0.00671,-0.000915,-0.002196,0.08750000000000001,-1.4700000000000002,-4.077500000000001,0.9676875,0.09890625,0.147625,1.2306875,0.9403750000000001,-0.35281250000000003,-0.3731875,1.211625,0.018548935569556908,0.02136825558823605,True
46583,22828,0,22829,3548.0,38033.0,28242.0,0.009271999999999999,-0.00366,-0.002379,0.0175,-1.7675,-3.9550000000000005,0.97259375,0.1004375,0.15081250000000002,1.227625,0.9335,-0.354875,-0.3706875,1.218,0.018694922474453268,0.021398657711236096,True
46584,22829,0,22830,3548.0,38029.0,28242.0,0.00793,-0.004209,-0.000976,0.052500000000000005,-1.61,-3.7450000000000006,0.97075,0.1004375,0.1460625,1.2316562500000001,0.9309375,-0.35331250000000003,-0.37146875,1.2121250000000001,0.0186319622843915,0.02123512765310872,True
46585,22830,0,22831,3549.0,38030.0,28242.0,0.004148,-0.003111,0.0006709999999999999,0.15750000000000003,-1.1900000000000002,-3.6750000000000003,0.9677187500000001,0.09975,0.1480625,1.230875,0.93971875,-0.3525625,-0.37125,1.2199375000000001,0.018573507408101302,0.021308406421500746,True
46586,22831,0,22832,3549.0,38033.0,28241.0,-0.000732,-0.000183,-0.000244,0.28,-0.56,-3.8150000000000004,0.9714375000000001,0.10103125,0.14746875,1.2306875,0.9343125,-0.3555625,-0.368875,1.2226875,0.0187470008134692,0.02118865766269473,True
46587,22832,0,22833,3549.0,38030.0,28242.0,-0.003172,0.00061,-0.000366,0.43750000000000006,-0.525,-3.8325000000000005,0.967875,0.0989375,0.14790625000000002,1.2348125,0.93365625,-0.35325,-0.37193750000000003,1.2118125,0.01856785028692269,0.021329602950114247,True
46588,22833,0,22834,3551.0,38030.0,28243.0,-0.003477,0.0018909999999999999,-0.00183,0.49000000000000005,-0.525,-3.9375000000000004,0.96790625,0.10078125,0.14684375,1.23109375,0.93475,-0.3515625,-0.370875,1.22159375,0.01857555341674687,0.02124333861627865,True
46589,22834,0,22835,3551.0,38030.0,28243.0,-0.003355,0.001769,-0.0015249999999999999,0.6125,-0.5950000000000001,-4.0075,0.9684375000000001,0.09821875000000001,0.148625,1.232,0.93140625,-0.353125,-0.37496875,1.20959375,0.01853329911459002,0.02148079677025227,True
46590,22835,0,22836,3552.0,38031.0,28247.0,-0.002928,0.00366,-0.003294,0.6475000000000001,-0.7350000000000001,-3.99,0.9759375,0.1013125,0.14065625,1.224625,0.933625,-0.35609375,-0.36743750000000003,1.22415625,0.018779951115929665,0.0208513410570972,True
46591,22836,0,22837,3553.0,38032.0,28246.0,-0.0021349999999999997,0.002928,-0.0011589999999999999,0.42000000000000004,-1.0150000000000001,-3.9550000000000005,0.9779375,0.1035625,0.14896875,1.2506875,0.9306562500000001,-0.34884375,-0.37359375,1.21071875,0.018580194388080545,0.02143969844414101,True
46592,22837,0,22838,3552.0,38031.0,28246.0,-0.000976,0.001037,-0.000976,0.525,-1.155,-3.99,0.96025,0.0929375,0.1525,1.242625,0.9475,-0.352375,-0.37459375,1.2100312500000001,0.018286204117668195,0.02162471938634875,True
46593,22838,0,22839,3554.0,38033.0,28246.0,0.00061,-6.1e-05,0.001037,0.49000000000000005,-1.33,-3.9200000000000004,0.95715625,0.09471875,0.1536875,1.2431875000000001,0.93515625,-0.35075,-0.37243750000000003,1.21121875,0.01829384105212365,0.0215868847750661,True
46594,22839,0,22840,3552.0,38031.0,28244.0,0.003965,-0.0006709999999999999,0.003294,0.35000000000000003,-1.4000000000000001,-3.8325000000000005,0.9527187500000001,0.10115625,0.15275,1.25175,0.9345625000000001,-0.35275,-0.37193750000000003,1.2105937500000001,0.018638808758764412,0.021528345869096372,True
46595,22840,0,22841,3553.0,38034.0,28246.0,0.0059169999999999995,-0.002562,0.0040869999999999995,0.1925,-1.1900000000000002,-3.8500000000000005,0.95525,0.093625,0.1533125,1.2318125,0.9285,-0.3501875,-0.37175,1.21465625,0.01822624569112661,0.021543898160780412,True
46596,22841,0,22842,3554.0,38033.0,28245.0,0.0011589999999999999,-0.005429,0.004758,0.17500000000000002,-0.47250000000000003,-3.7975000000000003,0.9811562500000001,0.10334375,0.1396875,1.2198125,0.9305,-0.35478125,-0.37090625,1.2208125,0.018810474842593794,0.02095095458339798,True
46597,22842,0,22843,3555.0,38036.0,28248.0,-0.00042699999999999997,-0.0034159999999999998,0.003477,0.28,-0.14,-3.6925000000000003,0.9928750000000001,0.10384375,0.13771875,1.22925,0.93025,-0.35781250000000003,-0.36971875,1.21171875,0.01895310796074155,0.0208224602510031,True
46598,22843,0,22844,3553.0,38034.0,28247.0,0.000732,-0.0030499999999999998,0.00042699999999999997,0.385,-0.052500000000000005,-3.7275000000000005,0.9643125,0.1044375,0.1470625,1.2377500000000001,0.9353125,-0.3534375,-0.37246875,1.2105625,0.018801247257189055,0.02131631618155219,True
46599,22844,0,22845,3557.0,38036.0,28248.0,0.000122,-6.1e-05,-0.001586,0.5075000000000001,0.12250000000000001,-3.7625,0.9688125,0.10350000000000001,0.14415625,1.2133125,0.938625,-0.35253125,-0.3711875,1.2185625,0.01872623610738617,0.021145615083384837,True
46600,22845,0,22846,3556.0,38036.0,28249.0,-0.000549,0.0028669999999999998,-0.002196,0.665,0.15750000000000003,-3.6400000000000006,0.98703125,0.10221875,0.14625,1.2457500000000001,0.9335625000000001,-0.35575,-0.37175,1.20978125,0.018803311333052772,0.02125411593340651,True
46601,22846,0,22847,3557.0,38035.0,28250.0,-0.003843,0.0032329999999999998,-0.004392,0.8750000000000001,0.49000000000000005,-3.6225000000000005,0.9555,0.09334375,0.15053125,1.2309375,0.94015625,-0.35225,-0.37334375000000003,1.207125,0.018297847221509306,0.021493768166298482,True
46602,22847,0,22848,3558.0,38036.0,28251.0,-0.003111,0.003843,-0.0030499999999999998,0.8925000000000001,0.6475000000000001,-3.6050000000000004,0.9687187500000001,0.1013125,0.1525625,1.2334375,0.936,-0.355125,-0.3720625,1.21284375,0.01874092208518741,0.021525671042407678,True
46603,22848,0,22849,3558.0,38036.0,28252.0,-0.003721,0.004026,-0.001037,0.8225000000000001,0.7525000000000001,-3.5700000000000003,0.9635625,0.10234375,0.147,1.23065625,0.94078125,-0.35275,-0.371125,1.2203125000000001,0.018687571218856187,0.02125979001790028,True
46604,22849,0,22850,3560.0,38039.0,28252.0,-0.001769,0.002257,-0.000305,0.7525000000000001,0.7875000000000001,-3.5000000000000004,0.97271875,0.09853125,0.1478125,1.231625,0.9355,-0.35315625,-0.37340625,1.21553125,0.018547390546143273,0.02138473156578187,True
46605,22850,0,22851,3559.0,38039.0,28252.0,-0.0040869999999999995,-0.000122,-0.0006709999999999999,0.5075000000000001,0.5425000000000001,-3.5875000000000004,0.9755625,0.10003125,0.148125,1.2366875,0.9328125,-0.35184375,-0.37334375000000003,1.20184375,0.018556089823794145,0.021395043509366662,True
46606,22851,0,22852,3561.0,38040.0,28253.0,0.000244,-0.003843,0.000793,0.2625,0.12250000000000001,-3.5525,0.9751875,0.10065625,0.14778125,1.23603125,0.93390625,-0.354625,-0.37278125,1.21171875,0.018693831253817295,0.021358354414312074,True
46607,22852,0,22853,3560.0,38038.0,28256.0,0.000549,-0.0040869999999999995,0.001586,0.17500000000000002,-0.035,-3.4825000000000004,0.9681875,0.100875,0.14471875,1.23078125,0.93875,-0.3555625,-0.3715625,1.2125625,0.01874058544121081,0.021183756683634872,True
46608,22853,0,22854,3561.0,38043.0,28258.0,-0.0011589999999999999,-0.0034159999999999998,0.001403,0.24500000000000002,0.0,-3.43,0.9685312500000001,0.097625,0.1455625,1.23096875,0.9342812500000001,-0.35228125,-0.37159375,1.2189375,0.018474911872989313,0.02121963197421178,True
46609,22854,0,22855,3562.0,38042.0,28258.0,-0.001769,-0.001647,0.0008539999999999999,0.43750000000000006,-0.24500000000000002,-3.4825000000000004,0.96975,0.09871875000000001,0.1470625,1.2315,0.9345,-0.35231250000000003,-0.37078125,1.2202187500000001,0.018521085009893825,0.021248549428426716,True
46610,22855,0,22856,3565.0,38045.0,28258.0,-0.001769,0.00042699999999999997,0.000732,0.56,-0.5775,-3.535,0.968125,0.09971875000000001,0.145625,1.2334687500000001,0.9245625000000001,-0.34990625000000003,-0.37143750000000003,1.208625,0.018465163495239332,0.0212159213013184,True
46611,22856,0,22857,3564.0,38047.0,28260.0,0.002745,0.002074,0.0013419999999999999,0.6125,-1.05,-3.4125000000000005,0.967875,0.100875,0.14621875,1.23115625,0.9396875,-0.35434375,-0.370625,1.215375,0.018691480857495904,0.021207652655604852,True
46612,22857,0,22858,3566.0,38046.0,28260.0,0.0026839999999999998,0.000976,0.001098,0.56,-1.0150000000000001,-3.3425000000000002,0.96890625,0.09903125,0.148125,1.23209375,0.93671875,-0.34778125,-0.37140625,1.2180312500000001,0.01835126147274713,0.02131724549132244,True
46613,22858,0,22859,3567.0,38044.0,28258.0,-0.000122,0.000732,0.001586,0.4025,-0.9275000000000001,-3.3950000000000005,0.97378125,0.09940625,0.14778125,1.23515625,0.93425,-0.34784375,-0.372875,1.2141250000000001,0.018369183102713155,0.021362118748814,True
46614,22859,0,22860,3566.0,38046.0,28260.0,-0.0008539999999999999,0.000122,0.0021349999999999997,0.42000000000000004,-0.7875000000000001,-3.3950000000000005,0.97409375,0.1045,0.14865625,1.2364375,0.93175,-0.3549375,-0.37246875,1.2120625,0.018864244673179723,0.021381707587582816,True
46615,22860,0,22861,3567.0,38045.0,28259.0,-0.000549,-0.000122,0.000244,0.45500000000000007,-0.7350000000000001,-3.3425000000000002,0.9688125,0.1005625,0.14521875,1.23109375,0.9382812500000001,-0.354125,-0.37121875,1.21265625,0.018669835192190235,0.02119046672624856,True
46616,22861,0,22862,3567.0,38045.0,28262.0,0.002257,0.000549,-0.0013419999999999999,0.385,-0.8400000000000001,-3.5525,0.9676250000000001,0.097875,0.14906250000000001,1.23046875,0.94021875,-0.352375,-0.3718125,1.2170625,0.018488956415955323,0.021372025572574872,True
46617,22862,0,22863,3569.0,38045.0,28262.0,-0.00042699999999999997,-0.001037,-0.0034159999999999998,0.56,-0.7000000000000001,-3.5000000000000004,0.968875,0.09809375000000001,0.14721875,1.23134375,0.92878125,-0.35253125,-0.37021875,1.2178125,0.01850423659758162,0.02123236993923167,True
46618,22863,0,22864,3569.0,38046.0,28261.0,-0.0017079999999999999,-0.000549,-0.00244,0.49000000000000005,-0.47250000000000003,-3.4825000000000004,0.9710625,0.099375,0.14790625000000002,1.2303125,0.9344687500000001,-0.3464375,-0.37215625,1.218,0.018311200560656975,0.021338386914370785,True
46619,22864,0,22865,3571.0,38044.0,28259.0,0.001586,0.000183,-0.0021349999999999997,0.42000000000000004,-0.3325,-3.6575,0.9725625,0.09846875000000001,0.1480625,1.2376875,0.934125,-0.35225,-0.3735,1.2115,0.018508300054409756,0.021398752743758593,True
46620,22865,0,22866,3570.0,38042.0,28260.0,0.002196,0.0,-0.001281,0.49000000000000005,-0.14,-3.7450000000000006,0.9704375000000001,0.1005,0.1460625,1.23134375,0.9335,-0.35559375,-0.3716875,1.21653125,0.01872644759481587,0.021243912634281072,True
46621,22866,0,22867,3569.0,38044.0,28257.0,-0.00366,-0.0006709999999999999,0.000915,0.5775,0.10500000000000001,-3.9375000000000004,0.961875,0.09834375000000001,0.14875,1.23590625,0.9338125,-0.352625,-0.37303125,1.2126875,0.018518280883477654,0.021408139375359802,True
46622,22867,0,22868,3569.0,38043.0,28257.0,-0.0032329999999999998,-0.00061,0.002013,0.56,-0.12250000000000001,-3.8150000000000004,0.97484375,0.100625,0.14828125,1.236125,0.934125,-0.35415625,-0.373,1.208,0.018673660681634167,0.021387652320190374,True
46623,22868,0,22869,3567.0,38041.0,28252.0,-0.002745,-0.00042699999999999997,0.0,0.525,-0.36750000000000005,-3.8850000000000002,0.9705312500000001,0.100625,0.14834375,1.2380625,0.9338125,-0.35534375,-0.37378125,1.21271875,0.01872150747205118,0.021421583899707802,True
46624,22869,0,22870,3566.0,38040.0,28252.0,-0.001403,-6.1e-05,0.000732,0.385,-0.6125,-3.9200000000000004,0.9753125,0.0996875,0.1478125,1.22890625,0.9334375,-0.35365625,-0.37609375,1.216,0.018615018022191225,0.02149262533091464,True
46625,22870,0,22871,3567.0,38040.0,28252.0,-0.000732,-0.000549,0.000122,0.3325,-0.8400000000000001,-3.8500000000000005,0.9758125,0.0993125,0.14815625,1.2380625,0.93290625,-0.35134375,-0.37859375,1.2079375,0.01850642225852526,0.021607070752389074,True
46626,22871,0,22872,3565.0,38038.0,28249.0,-0.0006709999999999999,-6.1e-05,-0.0018909999999999999,0.43750000000000006,-1.2600000000000002,-3.9025000000000003,0.9753437500000001,0.1,0.14784375,1.23734375,0.9298125,-0.3491875,-0.3685625,1.22121875,0.018447740812706788,0.02119149416384327,True
46627,22872,0,22873,3564.0,38039.0,28249.0,-6.1e-05,0.002623,-0.002806,0.5075000000000001,-1.4000000000000001,-4.025,0.96890625,0.105875,0.14675,1.23121875,0.927125,-0.35921875000000003,-0.37140625,1.206,0.01909313080904945,0.021260826916789013,True
46628,22873,0,22874,3562.0,38038.0,28247.0,0.0017079999999999999,0.004331,0.000122,0.5075000000000001,-1.54,-4.0075,0.96809375,0.09896875000000001,0.1540625,1.234875,0.9486875,-0.3521875,-0.36971875,1.22284375,0.018526313087889948,0.021493118380777373,True
46629,22874,0,22875,3562.0,38037.0,28247.0,0.002989,0.0026839999999999998,0.001464,0.36750000000000005,-1.2950000000000002,-3.99,0.97346875,0.10109375,0.14881250000000001,1.23715625,0.92703125,-0.35053125,-0.3764375,1.20584375,0.018546823285426266,0.021547447201831684,True
46630,22875,0,22876,3560.0,38040.0,28248.0,-0.000122,0.0006709999999999999,0.002989,0.3325,-1.225,-3.99,0.9684375000000001,0.100625,0.14625,1.23115625,0.9453125,-0.34696875,-0.3698125,1.2244375,0.018383962069200094,0.021176301623165958,True
46631,22876,0,22877,3559.0,38042.0,28249.0,-0.001464,-0.002928,0.001403,0.08750000000000001,-1.1900000000000002,-4.1825,0.9636875,0.1046875,0.15003125,1.23159375,0.9364687500000001,-0.34259375000000003,-0.37109375,1.22996875,0.01837442856721051,0.02138291392851419,True
46632,22877,0,22878,3559.0,38040.0,28249.0,-0.0006709999999999999,-0.0025009999999999998,-0.0018909999999999999,0.14,-1.61,-4.2175,0.97546875,0.10115625,0.1475625,1.23128125,0.9333125,-0.3503125,-0.3675625,1.22490625,0.018540573144595167,0.021139783677583675,True
46633,22878,0,22879,3558.0,38040.0,28247.0,-6.1e-05,-0.000244,-0.00183,0.36750000000000005,-1.8025000000000002,-4.357500000000001,0.97446875,0.100375,0.152125,1.238,0.9345625000000001,-0.35084375,-0.37009375,1.2084062500000001,0.018529902069615144,0.02142867218145191,True
46634,22879,0,22880,3558.0,38041.0,28250.0,0.003294,0.0015249999999999999,-0.000915,0.47250000000000003,-1.9075000000000002,-4.2525,0.9685,0.10078125,0.14540625000000001,1.23134375,0.9374375,-0.357875,-0.36959375,1.22396875,0.018829895875563857,0.021132892295342428,True
46635,22880,0,22881,3557.0,38041.0,28249.0,0.0032329999999999998,0.001098,-0.000122,0.385,-1.9075000000000002,-4.095000000000001,0.97346875,0.10046875,0.14615625000000002,1.2281875,0.92615625,-0.353375,-0.3733125,1.20665625,0.018635764036812146,0.021313013977890777,True
46636,22881,0,22882,3556.0,38039.0,28250.0,-0.000366,0.0,0.0021349999999999997,0.4025,-1.3650000000000002,-3.9200000000000004,0.96796875,0.09821875000000001,0.14784375,1.23675,0.938875,-0.35325,-0.3696875,1.21509375,0.018538336772299387,0.02123667978918482,True
46637,22882,0,22883,3555.0,38041.0,28248.0,-0.000183,0.0018909999999999999,0.0008539999999999999,0.47250000000000003,-1.3650000000000002,-4.025,0.9698125,0.10121875,0.14678125,1.2310625,0.9319375,-0.35328125,-0.37171875,1.21228125,0.018662782864218762,0.021274658768167507,True
46638,22883,0,22884,3557.0,38041.0,28250.0,-0.000183,0.002379,-0.002013,0.45500000000000007,-1.4525000000000001,-4.095000000000001,0.9743437500000001,0.10365625,0.14571875,1.23046875,0.9345625000000001,-0.35296875,-0.37296875,1.2121250000000001,0.01875028070242976,0.021281260617872003,True
46639,22884,0,22885,3556.0,38042.0,28254.0,-0.0015249999999999999,0.003111,-0.003111,0.5425000000000001,-1.4525000000000001,-4.025,0.9714375000000001,0.09853125,0.14978125,1.23678125,0.93590625,-0.3466875,-0.37403125,1.21225,0.018286625233925557,0.02149059770324205,True
46640,22885,0,22886,3557.0,38043.0,28252.0,-0.001098,-0.00122,-0.002379,0.5425000000000001,-1.54,-4.165,0.9680625,0.09965625,0.14546875,1.2315625000000001,0.9333750000000001,-0.35496875,-0.37146875,1.20540625,0.018666622185667964,0.021210765149310095,True
46641,22886,0,22887,3559.0,38044.0,28252.0,-0.004026,-0.0037819999999999998,-0.001647,0.15750000000000003,-1.5050000000000001,-4.2175,0.95846875,0.09846875000000001,0.14796875,1.2355625000000001,0.9383125,-0.35303125,-0.37215625,1.2126875,0.01853978649988387,0.02134095131611509,True
46642,22887,0,22888,3559.0,38042.0,28254.0,-0.0023179999999999997,-0.0050019999999999995,0.000793,0.15750000000000003,-1.4525000000000001,-4.2525,0.9679375,0.0990625,0.1473125,1.231875,0.93578125,-0.35281250000000003,-0.36959375,1.21903125,0.018555351666260315,0.021211114772891938,True
46643,22888,0,22889,3557.0,38044.0,28255.0,-0.001037,-0.005612,0.002623,0.12250000000000001,-1.6625,-4.2175,0.97359375,0.1011875,0.14546875,1.2261250000000001,0.9340625,-0.35359375,-0.37225,1.21228125,0.018674091991043414,0.021242140138887464,True
46644,22889,0,22890,3558.0,38044.0,28257.0,-0.001403,-0.0035989999999999998,0.002257,0.1925,-1.7850000000000001,-4.357500000000001,0.96759375,0.10415625,0.14856250000000001,1.2313125,0.94175,-0.3525625,-0.37065625,1.2195625,0.018754443192579837,0.021305078725567764,True
46645,22890,0,22891,3561.0,38044.0,28256.0,0.003355,0.002623,0.0035989999999999998,0.3325,-2.0300000000000002,-4.340000000000001,0.97084375,0.10096875,0.1491875,1.2416562500000001,0.9334687500000001,-0.3535625,-0.37415625,1.21309375,0.018663850514683427,0.021471256056299386,True
46646,22891,0,22892,3561.0,38044.0,28254.0,0.004575,0.0028669999999999998,0.002013,0.5425000000000001,-2.0125,-4.445,0.9686875,0.10046875,0.14659375,1.23484375,0.936625,-0.35403125,-0.37090625,1.215625,0.018662208130327502,0.021234335510194657,True
46647,22892,0,22893,3562.0,38044.0,28256.0,0.0032329999999999998,0.002745,0.0006709999999999999,0.5425000000000001,-1.8550000000000002,-4.4625,0.96778125,0.10246875,0.1443125,1.23053125,0.933,-0.35334375,-0.37103125000000003,1.2189375,0.018716629005000596,0.021145750654273193,True
46648,22893,0,22894,3563.0,38046.0,28254.0,0.003965,0.002928,6.1e-05,0.525,-1.6450000000000002,-4.585000000000001,0.978875,0.10162500000000001,0.1456875,1.22884375,0.9340937500000001,-0.35431250000000003,-0.37046875,1.21128125,0.018721017068332357,0.021179578254932007,True
46649,22894,0,22895,3564.0,38046.0,28257.0,0.002928,0.00183,-0.001769,0.5775,-1.4525000000000001,-4.6725,0.97890625,0.10059375,0.14990625,1.24225,0.9256562500000001,-0.35181250000000003,-0.374,1.21346875,0.018577929260912302,0.021494471568064333,True
46650,22895,0,22896,3564.0,38047.0,28254.0,0.002013,-0.000976,-0.003965,0.385,-0.9975,-4.69,0.96565625,0.09790625,0.14965625,1.2321875,0.940625,-0.35184375,-0.37065625,1.213375,0.01846882743734753,0.021349958518248762,True
46651,22896,0,22897,3563.0,38047.0,28255.0,-0.001403,-0.0023179999999999997,-0.0021349999999999997,0.24500000000000002,-0.6825000000000001,-4.6375,0.97778125,0.09990625,0.14884375,1.2385625,0.9340937500000001,-0.35431250000000003,-0.37428125,1.21209375,0.01865044435148806,0.021462171320436374,True
46652,22897,0,22898,3563.0,38049.0,28254.0,-0.001952,-0.0030499999999999998,-0.0008539999999999999,0.21000000000000002,-0.49000000000000005,-4.4625,0.97203125,0.10278125,0.14978125,1.24021875,0.934,-0.35278125,-0.37071875,1.21228125,0.018706795553382633,0.021357597424162957,True
46653,22898,0,22899,3563.0,38045.0,28256.0,-0.004941,-0.002074,-0.0006709999999999999,0.35000000000000003,-0.5425000000000001,-4.375,0.966125,0.10203125,0.148625,1.22409375,0.93775,-0.35403125,-0.37153125000000004,1.2168125,0.018726365886551126,0.021342780831631172,True
46654,22899,0,22900,3562.0,38046.0,28255.0,-0.003965,-0.000732,0.001586,0.47250000000000003,-0.5775,-4.1825,0.96225,0.09506250000000001,0.147875,1.22878125,0.93615625,-0.35175,-0.37096875,1.216875,0.01834827065816625,0.021289418378167675,True
46655,22900,0,22901,3563.0,38047.0,28257.0,-0.004697,0.00183,0.000976,0.6125,-1.5050000000000001,-3.8500000000000005,0.9649375,0.099625,0.1426875,1.22953125,0.9334687500000001,-0.3529375,-0.36993750000000003,1.2161250000000001,0.018583487104995036,0.02103513806713702,True
46656,22901,0,22902,3561.0,38047.0,28258.0,-0.002074,0.0035989999999999998,0.001586,0.5950000000000001,-2.0300000000000002,-3.7100000000000004,0.9676875,0.0974375,0.1478125,1.2281875,0.9340937500000001,-0.3525,-0.37125,1.21665625,0.018476029155117545,0.02129814843309227,True
46657,22902,0,22903,3563.0,38047.0,28259.0,0.0023179999999999997,0.001952,0.003111,0.5075000000000001,-2.3800000000000003,-3.4125000000000005,0.97309375,0.0990625,0.1494375,1.23296875,0.9336875,-0.35334375,-0.37015625,1.2122187500000001,0.018576761148045635,0.021320903512877562,True
46658,22903,0,22904,3563.0,38048.0,28259.0,0.006588,0.000976,0.0030499999999999998,0.28,-2.5725000000000002,-3.3075,0.96928125,0.098,0.14828125,1.23078125,0.9335,-0.35215625,-0.37271875,1.21296875,0.018485272736372165,0.02137635958237117,True
46659,22904,0,22905,3562.0,38049.0,28259.0,0.004026,-0.001037,0.002806,0.08750000000000001,-2.5725000000000002,-3.1850000000000005,0.97621875,0.10021875,0.148875,1.23096875,0.9343125,-0.353125,-0.37315625,1.21309375,0.018615424098549983,0.02141828676784526,True
46660,22905,0,22906,3564.0,38051.0,28257.0,-0.00122,-0.00183,0.002562,0.2625,-1.8725000000000003,-2.9575000000000005,0.9748125,0.1029375,0.148625,1.2356875,0.9341875000000001,-0.352625,-0.37409375,1.2125000000000001,0.01870691557891603,0.021445669133852412,True
46661,22906,0,22907,3564.0,38049.0,28259.0,-0.002196,-0.002257,-0.000122,0.36750000000000005,-1.7850000000000001,-3.0100000000000002,0.976,0.1008125,0.148,1.22721875,0.93225,-0.35121875,-0.3765625,1.21740625,0.018562982602256816,0.02151913338888533,True
46662,22907,0,22908,3566.0,38049.0,28260.0,-0.00061,-0.000366,-0.0011589999999999999,0.4025,-1.9775000000000003,-3.1850000000000005,0.96475,0.10075,0.14884375,1.237875,0.93553125,-0.350875,-0.3810625,1.214375,0.01854656146853039,0.021734337869811868,True
46663,22908,0,22909,3567.0,38049.0,28261.0,-0.000488,-0.002257,-0.0030499999999999998,0.2625,-1.9600000000000002,-3.22,0.96909375,0.10003125,0.14881250000000001,1.23140625,0.92471875,-0.35040625000000003,-0.37246875,1.23378125,0.018498151339877547,0.02138811850974268,True
46664,22909,0,22910,3567.0,38049.0,28259.0,-0.000915,-0.004026,-0.0053679999999999995,0.29750000000000004,-1.9075000000000002,-3.115,0.97103125,0.0975,0.14753125,1.231375,0.93303125,-0.34928125,-0.36246875,1.2308125,0.018348847566085756,0.020933839063415935,True
46665,22910,0,22911,3566.0,38050.0,28264.0,-0.000488,-0.000305,-0.004331,0.5075000000000001,-1.7850000000000001,-3.2550000000000003,0.9755,0.09809375000000001,0.15559375,1.229,0.9420000000000001,-0.35003125,-0.36534375,1.2231875,0.01840346714134094,0.02138026474590575,True
46666,22911,0,22912,3566.0,38049.0,28262.0,0.001586,0.001464,-0.002623,0.43750000000000006,-1.8200000000000003,-3.3950000000000005,0.9726875,0.0998125,0.1486875,1.238625,0.95046875,-0.34965625,-0.37328125,1.22478125,0.01845893615027933,0.021415612639352773,True
46667,22912,0,22913,3566.0,38050.0,28262.0,0.0023179999999999997,0.001403,-6.1e-05,0.42000000000000004,-1.54,-3.4650000000000003,0.97084375,0.10096875,0.14778125,1.2304375,0.92121875,-0.35753125,-0.376625,1.201375,0.018823746762102585,0.02151266838621015,True
46668,22913,0,22914,3567.0,38054.0,28264.0,0.0015249999999999999,0.001952,0.003172,0.4025,-1.155,-3.5700000000000003,0.9655625,0.0978125,0.148,1.225875,0.95696875,-0.35159375,-0.36653125000000003,1.2198125,0.018454900924092493,0.02111631092341057,True
46669,22914,0,22915,3570.0,38053.0,28264.0,-0.000183,0.0017079999999999999,0.004209,0.42000000000000004,-0.9800000000000001,-3.6575,0.9678125000000001,0.09965625,0.1479375,1.23109375,0.9594375,-0.3545625,-0.36628125,1.2268125,0.01865025290435827,0.02110370247819412,True
46670,22915,0,22916,3570.0,38052.0,28264.0,-0.0011589999999999999,0.002989,0.001281,0.6125,-1.4000000000000001,-3.8500000000000005,0.9726875,0.099375,0.14784375,1.23890625,0.955875,-0.342,-0.37309375,1.20890625,0.018132240571851123,0.021373466386473815,True
46671,22916,0,22917,3568.0,38052.0,28265.0,0.0008539999999999999,0.002623,-0.000183,0.525,-1.6975000000000002,-4.130000000000001,0.9680625,0.10559375,0.14703125,1.23153125,0.9284687500000001,-0.3635625,-0.36740625,1.2224375,0.019256471626429836,0.02111170531332197,True
46672,22917,0,22918,3570.0,38051.0,28266.0,0.00061,0.0013419999999999999,-0.0017079999999999999,0.45500000000000007,-1.8550000000000002,-3.9200000000000004,0.96384375,0.10187500000000001,0.1485,1.236125,0.94153125,-0.3486875,-0.37715625,1.2015625,0.018504590853203072,0.021563477077027805,True
46673,22918,0,22919,3570.0,38055.0,28268.0,-0.0006709999999999999,0.001037,-0.002013,0.47250000000000003,-1.9075000000000002,-3.8325000000000005,0.96840625,0.0990625,0.14865625,1.23684375,0.9371875000000001,-0.3540625,-0.3685625,1.2119375000000001,0.01860572543081878,0.021224836302921032,True
46674,22919,0,22920,3571.0,38054.0,28269.0,0.000122,0.0013419999999999999,0.0023179999999999997,0.4025,-1.9425000000000001,-3.6400000000000006,0.96840625,0.10365625,0.1478125,1.231125,0.93596875,-0.35165625,-0.37015625,1.21615625,0.018697393529444224,0.021254223595714536,True
46675,22920,0,22921,3571.0,38056.0,28268.0,0.007686,-0.0035989999999999998,0.002623,0.24500000000000002,-1.6450000000000002,-3.3600000000000003,0.9735,0.10078125,0.15,1.22253125,0.93484375,-0.35534375,-0.37143750000000003,1.20928125,0.01872792290192989,0.021395434717381773,True
46676,22921,0,22922,3575.0,38053.0,28269.0,0.006039,-0.002562,0.002562,0.22750000000000004,-0.9975,-3.43,0.96728125,0.09859375000000001,0.14734375,1.231375,0.9292812500000001,-0.3521875,-0.37221875,1.21865625,0.018510914060595175,0.021317817032969144,True
46677,22922,0,22923,3575.0,38056.0,28268.0,0.0018909999999999999,-0.0028669999999999998,0.0011589999999999999,0.3325,-0.4025,-3.5700000000000003,0.96975,0.0995,0.14840625,1.23153125,0.93425,-0.35309375,-0.36709375,1.2115625,0.018584651077442678,0.021155579950932802,True
46678,22923,0,22924,3575.0,38055.0,28268.0,-0.000732,-0.000915,-0.001464,0.5075000000000001,0.14,-3.7275000000000005,0.97284375,0.10028125,0.149125,1.235875,0.93465625,-0.3556875,-0.3720625,1.20946875,0.018721243241440012,0.02138462840393586,True
46679,22924,0,22925,3575.0,38054.0,28267.0,-0.0008539999999999999,-0.000549,-0.0035989999999999998,0.5950000000000001,0.6825000000000001,-3.9375000000000004,0.9579375,0.099,0.149,1.2336875,0.9394375,-0.35253125,-0.37209375,1.21184375,0.018541450388242498,0.021380754371995634,True
46680,22925,0,22926,3575.0,38054.0,28266.0,-0.006344,-0.002745,-0.0051849999999999995,0.49000000000000005,1.4525000000000001,-4.1825,0.96921875,0.10021875,0.145875,1.22646875,0.9341875000000001,-0.35678125,-0.37093750000000003,1.212625,0.018762741895545002,0.021206098452306154,True
46681,22926,0,22927,3576.0,38052.0,28262.0,-0.00915,0.000244,-0.003904,0.5425000000000001,1.6450000000000002,-4.2175,0.9685312500000001,0.098875,0.14725,1.2314687500000001,0.94271875,-0.3525,-0.371125,1.21540625,0.018535058002258496,0.02127004805892219,True
46682,22927,0,22928,3576.0,38051.0,28262.0,-0.0071979999999999995,0.003538,-0.003721,0.8400000000000001,1.61,-4.340000000000001,0.9748125,0.10065625,0.15175,1.23190625,0.93359375,-0.35365625,-0.371625,1.21196875,0.018654796443552495,0.021474768301251963,True
46683,22928,0,22929,3573.0,38050.0,28261.0,-0.006405,0.006405,-0.002257,0.9450000000000001,1.225,-4.357500000000001,0.9683437500000001,0.09468750000000001,0.14675,1.22915625,0.938625,-0.35296875,-0.3741875,1.2115,0.018381999114584335,0.021372507288704497,True
46684,22929,0,22930,3572.0,38053.0,28258.0,-0.005063,0.005612,-0.001098,0.8400000000000001,0.805,-4.515000000000001,0.9848750000000001,0.10071875,0.153125,1.24996875,0.93425,-0.35478125,-0.3716875,1.21253125,0.01870269313135383,0.02153369560478732,True
46685,22930,0,22931,3570.0,38050.0,28256.0,-0.001464,0.00042699999999999997,0.004758,0.42000000000000004,-0.21000000000000002,-4.357500000000001,0.9674375000000001,0.1021875,0.14403125,1.23059375,0.94203125,-0.35365625,-0.37090625,1.22053125,0.018717672012800952,0.02112918964595336,True
46686,22931,0,22932,3570.0,38050.0,28254.0,0.000183,-0.0021349999999999997,0.005673,0.15750000000000003,-0.7875000000000001,-4.2700000000000005,0.9617187500000001,0.09246875,0.1528125,1.22571875,0.93503125,-0.35421875,-0.373375,1.21178125,0.01834127814097917,0.02158861872842805,True
46687,22932,0,22933,3567.0,38051.0,28256.0,-0.00183,-0.005307,0.008235,0.052500000000000005,-1.4700000000000002,-4.1825,0.9855,0.1003125,0.15184375,1.24075,0.93390625,-0.355875,-0.37171875,1.2014375,0.018730080524719393,0.02148237903820386,True
46688,22933,0,22934,3566.0,38050.0,28256.0,0.0051849999999999995,-0.005856,0.001098,-0.12250000000000001,-2.6250000000000004,-4.3925,0.96759375,0.10171875,0.15371875000000002,1.24784375,0.94096875,-0.35590625000000004,-0.3711875,1.21215625,0.018789077084742024,0.021537984146238257,True
46689,22934,0,22935,3566.0,38050.0,28254.0,0.018727,-0.0011589999999999999,-0.0023179999999999997,-0.21000000000000002,-3.2725000000000004,-4.7250000000000005,0.96615625,0.10200000000000001,0.14400000000000002,1.229125,0.93971875,-0.35434375,-0.3711875,1.218625,0.01873767384924917,0.021139203824187887,True
46690,22935,0,22936,3565.0,38046.0,28251.0,-0.009516,-0.0013419999999999999,0.004575,0.49000000000000005,-0.9975,-3.5000000000000004,0.9600625,0.095,0.14253125,1.2155,0.92340625,-0.35453125,-0.37390625,1.21925,0.018457807517851532,0.02118813023661318,True
46691,22936,0,22937,3566.0,38047.0,28253.0,-0.013176,6.1e-05,0.008418,0.665,-0.6300000000000001,-3.2725000000000004,0.9526875,0.09543750000000001,0.14234375,1.22553125,0.9345,-0.35353125,-0.372,1.2193125,0.01843546816234299,0.02110387945182997,True
46692,22937,0,22938,3562.0,38049.0,28252.0,-0.003721,0.00042699999999999997,0.002989,0.45500000000000007,-1.1900000000000002,-3.3950000000000005,0.9616250000000001,0.09540625,0.1430625,1.22509375,0.9338125,-0.354375,-0.37375,1.220625,0.018468191033438552,0.02120365146930612,True
46693,22938,0,22939,3563.0,38051.0,28253.0,0.0042699999999999995,0.0013419999999999999,-0.0017079999999999999,0.24500000000000002,-2.0475000000000003,-3.5700000000000003,0.961375,0.09603125,0.14396875,1.224375,0.9342812500000001,-0.35434375,-0.369625,1.21978125,0.01849259436522489,0.02107516016352324,True
46694,22939,0,22940,3562.0,38049.0,28251.0,0.003904,-0.0017079999999999999,-0.004575,0.2625,-2.3975000000000004,-3.7625,0.9615312500000001,0.096625,0.14715625000000002,1.2256562500000001,0.9332812500000001,-0.353875,-0.37184375000000003,1.21715625,0.018498082953944704,0.021295065130228403,True
46695,22940,0,22941,3561.0,38046.0,28251.0,0.001586,0.001464,-0.0046359999999999995,0.56,-2.2225,-3.6925000000000003,0.96865625,0.098875,0.14653125,1.2295,0.93359375,-0.35390625000000003,-0.37293750000000003,1.2184375,0.01859173002277612,0.021313341898160615,True
46696,22941,0,22942,3558.0,38049.0,28252.0,0.00061,0.00244,-0.00244,0.6475000000000001,-2.0125,-3.7100000000000004,0.966375,0.0974375,0.14865625,1.2315,0.93434375,-0.354875,-0.36875,1.2200625,0.018571743850050556,0.021232367273659916,True
46697,22942,0,22943,3561.0,38047.0,28253.0,-6.1e-05,0.00244,-6.1e-05,0.5775,-1.6625,-3.6400000000000006,0.9681875,0.09740625,0.14759375,1.2308125,0.9334375,-0.35421875,-0.37359375,1.2118125,0.01854401508978809,0.021383284933105116,True
46698,22943,0,22944,3561.0,38049.0,28256.0,0.000549,0.000793,0.000183,0.47250000000000003,-1.54,-3.6750000000000003,0.9740625,0.09840625,0.14803125,1.23425,0.93425,-0.35381250000000003,-0.37334375000000003,1.20375,0.018568704591940172,0.021391197094161526,True
46699,22944,0,22945,3560.0,38050.0,28254.0,0.001037,-0.002196,-0.000732,0.2625,-1.715,-3.8325000000000005,0.9741562500000001,0.0999375,0.14846875,1.2348125,0.9340625,-0.35775,-0.37128125,1.211875,0.018790220771622998,0.02132633055555912,True
46700,22945,0,22946,3561.0,38050.0,28258.0,0.0021349999999999997,-0.001647,-0.0008539999999999999,0.2625,-1.6275000000000002,-4.077500000000001,0.95946875,0.099625,0.1485,1.2313125,0.9400000000000001,-0.35478125,-0.37328125,1.21284375,0.018657784085003844,0.021407919789215905,True
46701,22946,0,22947,3562.0,38051.0,28259.0,0.000976,0.0,-0.000305,0.31500000000000006,-1.2600000000000002,-3.9550000000000005,0.97478125,0.10121875,0.14953125,1.23125,0.933125,-0.35734375,-0.37190625,1.21753125,0.018826457626357554,0.021395023214484915,True
46702,22947,0,22948,3560.0,38050.0,28261.0,-0.002989,0.001403,0.001647,0.47250000000000003,-0.9800000000000001,-3.9725000000000006,0.96790625,0.09715625,0.15565625,1.23215625,0.937,-0.35421875,-0.37334375000000003,1.21734375,0.01853374992782308,0.021704038864179234,True
46703,22948,0,22949,3562.0,38050.0,28258.0,-0.004331,0.0018909999999999999,0.0021349999999999997,0.56,-0.9450000000000001,-3.99,0.97728125,0.10090625,0.14896875,1.2381875,0.9340625,-0.35559375,-0.37190625,1.2125000000000001,0.018743127541286077,0.021371943362042106,True
46704,22949,0,22950,3561.0,38053.0,28261.0,-0.0011589999999999999,0.0013419999999999999,0.001952,0.525,-1.1725,-3.99,0.96821875,0.09840625,0.14834375,1.2313125,0.94165625,-0.35384375,-0.37109375,1.2188125,0.018569963930231755,0.021313672062830583,True
46705,22950,0,22951,3563.0,38051.0,28259.0,-0.000976,0.000793,0.001281,0.47250000000000003,-1.5925000000000002,-3.8500000000000005,0.9715,0.10025,0.1463125,1.23209375,0.93425,-0.35734375,-0.371125,1.21353125,0.018786685227119647,0.02123158040509004,True
46706,22951,0,22952,3563.0,38049.0,28259.0,-0.000549,-0.000244,0.002196,0.45500000000000007,-1.6625,-3.7275000000000005,0.9683437500000001,0.09715625,0.1535625,1.23828125,0.93765625,-0.35365625,-0.3736875,1.2122187500000001,0.018511080856698878,0.021631934027216852,True
46707,22952,0,22953,3564.0,38051.0,28260.0,0.0018909999999999999,-0.000915,0.000488,0.3325,-1.8550000000000002,-3.6225000000000005,0.96909375,0.0976875,0.14878125,1.235125,0.9390937500000001,-0.35421875,-0.365875,1.2125000000000001,0.018555563396998723,0.021122009778019465,True
46708,22953,0,22954,3563.0,38052.0,28260.0,0.0018909999999999999,-0.001586,-0.000976,0.31500000000000006,-1.9250000000000003,-3.5700000000000003,0.96815625,0.10128125,0.146,1.2281250000000001,0.935,-0.35546875,-0.37159375,1.21771875,0.018753488372093022,0.021237583200729333,True
46709,22954,0,22955,3562.0,38051.0,28260.0,0.001647,-0.001464,-0.000366,0.31500000000000006,-1.9600000000000002,-3.6750000000000003,0.97096875,0.0970625,0.14809375,1.2370625,0.9325,-0.3535,-0.37275,1.21271875,0.018500934157307983,0.021369921326071125,True
46710,22955,0,22956,3563.0,38050.0,28260.0,0.001281,-0.001952,-0.001769,0.49000000000000005,-1.9250000000000003,-3.6050000000000004,0.97384375,0.10078125,0.14696875,1.2345625,0.93490625,-0.35534375,-0.3715625,1.2125000000000001,0.01872792290192989,0.02127607739553014,True
46711,22956,0,22957,3564.0,38049.0,28260.0,0.000793,-0.000244,-0.001586,0.43750000000000006,-1.6450000000000002,-3.6575,0.96803125,0.1000625,0.14703125,1.2203125000000001,0.9424375,-0.35428125,-0.37121875,1.214375,0.018655600850466487,0.021264837237571468,True
46712,22957,0,22958,3564.0,38050.0,28258.0,0.002013,-0.0006709999999999999,-0.001281,0.42000000000000004,-1.5050000000000001,-3.6925000000000003,0.96828125,0.09909375000000001,0.146875,1.22096875,0.93925,-0.35471875,-0.3653125,1.21715625,0.018633452706161926,0.021021175082404545,True
46713,22958,0,22959,3563.0,38048.0,28258.0,0.000915,-0.0008539999999999999,-0.000915,0.42000000000000004,-1.3125000000000002,-3.6050000000000004,0.973,0.10025,0.14878125,1.23490625,0.93434375,-0.35381250000000003,-0.374875,1.21225,0.01864441142428932,0.02148344350483849,True
46714,22959,0,22960,3565.0,38048.0,28257.0,-0.0015249999999999999,-0.000793,-0.0015249999999999999,0.4025,-0.7525000000000001,-3.8325000000000005,0.96821875,0.099125,0.14646875,1.23090625,0.9350937500000001,-0.34796875,-0.37159375,1.2186875,0.01836267142407927,0.021256816657712424,True
46715,22960,0,22961,3564.0,38050.0,28261.0,-0.002989,0.001098,-0.001647,0.6300000000000001,-0.5425000000000001,-3.99,0.9722500000000001,0.09953125,0.14934375,1.2350625,0.9344375,-0.35331250000000003,-0.37346875,1.2070625,0.018594749687542506,0.02145006545282973,True
46716,22961,0,22962,3564.0,38052.0,28260.0,-0.0026839999999999998,0.003172,-0.0025009999999999998,0.7175,-0.56,-4.0600000000000005,0.9719375,0.10778125000000001,0.14859375,1.2346875,0.933875,-0.35734375,-0.36759375,1.21278125,0.019095883556678878,0.021183359559250697,True
46717,22962,0,22963,3565.0,38051.0,28260.0,-0.0018909999999999999,0.003965,-0.000915,0.7175,-0.6300000000000001,-4.077500000000001,0.968375,0.10128125,0.1475,1.23215625,0.94415625,-0.35503125,-0.37053125000000003,1.22415625,0.018735861814999723,0.021256461120436186,True
46718,22963,0,22964,3564.0,38050.0,28261.0,-0.000793,0.002562,0.000366,0.6825000000000001,-0.7525000000000001,-3.9025000000000003,0.97321875,0.0998125,0.15240625,1.2315,0.922,-0.35284375,-0.37409375,1.21125,0.01858740829805554,0.021600803106782175,True
46719,22964,0,22965,3565.0,38051.0,28259.0,-0.003477,-0.0018909999999999999,0.0025009999999999998,0.28,-0.9975,-3.6225000000000005,0.97428125,0.10025,0.1494375,1.2450625,0.93153125,-0.3565,-0.37475,1.2095,0.01875269435263687,0.02150534877280793,True
46720,22965,0,22966,3567.0,38050.0,28263.0,-0.0013419999999999999,-0.002013,0.0037819999999999998,0.3325,-1.3650000000000002,-3.6925000000000003,0.96815625,0.1005,0.14981250000000002,1.23140625,0.9415,-0.35284375,-0.3703125,1.2225625,0.01861563908732425,0.021342565878053468,True
46721,22966,0,22967,3567.0,38051.0,28262.0,-0.0026839999999999998,-0.0008539999999999999,0.002623,0.525,-1.6625,-3.6750000000000003,0.98228125,0.09740625,0.15003125,1.26171875,0.931,-0.35715625,-0.3725,1.210625,0.01866237976775306,0.02143937839778439,True
46722,22967,0,22968,3568.0,38053.0,28263.0,-0.001769,0.0013419999999999999,0.001952,0.47250000000000003,-2.1,-3.6225000000000005,0.96375,0.104875,0.14384375,1.22528125,0.94671875,-0.35290625000000003,-0.370125,1.22234375,0.01879780775651777,0.02109011545898923,True
46723,22968,0,22969,3567.0,38052.0,28264.0,0.000305,0.000732,0.0,0.45500000000000007,-2.6250000000000004,-3.535,0.9555625,0.09246875,0.149625,1.2195625,0.93178125,-0.35296875,-0.3701875,1.2109375,0.018290891125953588,0.021329852304172874,True
46724,22969,0,22970,3568.0,38052.0,28263.0,0.00366,-0.001037,-0.001769,0.42000000000000004,-3.2025,-3.4125000000000005,0.99321875,0.1060625,0.1523125,1.23903125,0.931125,-0.3569375,-0.3723125,1.20378125,0.019008957920099767,0.021525450241949753,True
46725,22970,0,22971,3568.0,38050.0,28265.0,0.004758,-0.000793,-0.000915,0.385,-3.2550000000000003,-3.325,0.99075,0.1010625,0.15425,1.25403125,0.9296875,-0.35803125,-0.3705625,1.20971875,0.018847736308738008,0.02153468964862834,True
46726,22971,0,22972,3569.0,38053.0,28265.0,0.0042699999999999995,-0.0013419999999999999,-0.0008539999999999999,0.35000000000000003,-2.9575000000000005,-3.3075,0.95959375,0.10453125,0.1408125,1.22259375,0.9455625,-0.35390625000000003,-0.36990625,1.2221250000000001,0.018823982292368396,0.020956943566411954,True
46727,22972,0,22973,3568.0,38053.0,28264.0,0.004331,-0.0013419999999999999,-0.000549,0.29750000000000004,-2.66,-3.325,0.9818125,0.09975,0.15334375,1.25465625,0.92790625,-0.35565625,-0.372125,1.2103125000000001,0.018698172010865034,0.02156023530980577,True
46728,22973,0,22974,3568.0,38052.0,28266.0,0.004148,-0.000793,-0.000183,0.29750000000000004,-2.3275,-3.5175000000000005,0.9533125,0.096,0.14496875,1.22025,0.9403125,-0.35353125,-0.36559375,1.2099375,0.018458565428781507,0.020954240033654016,True
46729,22974,0,22975,3570.0,38052.0,28266.0,-0.001586,-0.001952,-0.001037,0.31500000000000006,-1.3475000000000001,-3.6225000000000005,0.99028125,0.10250000000000001,0.1439375,1.22346875,0.9322812500000001,-0.35728125,-0.37125,1.218,0.018876542307036014,0.02113914961276094,True
46730,22975,0,22976,3571.0,38052.0,28266.0,-0.002196,-0.000305,-0.0008539999999999999,0.45500000000000007,-1.1375000000000002,-3.8325000000000005,0.9748125,0.09278125,0.1514375,1.2426875,0.9339375,-0.354375,-0.37428125,1.20940625,0.018360407524315444,0.021568584714677486,True
46731,22976,0,22977,3572.0,38053.0,28267.0,-0.00061,0.000122,-0.0017079999999999999,0.525,-1.0325000000000002,-4.025,0.97896875,0.10284375,0.14321875,1.22284375,0.93934375,-0.35731250000000003,-0.37140625,1.2190625,0.01889191387596641,0.021115933759464536,True
46732,22977,0,22978,3572.0,38050.0,28266.0,-0.001403,0.0013419999999999999,-0.002623,0.56,-0.7875000000000001,-4.0600000000000005,0.96628125,0.0995,0.1525,1.23615625,0.93415625,-0.356625,-0.36915625,1.21153125,0.018726937742811246,0.021406414101842366,True
46733,22978,0,22979,3575.0,38055.0,28267.0,-0.002928,0.0023179999999999997,-0.001281,0.5075000000000001,-0.6475000000000001,-4.1475,0.9636875,0.09796875000000001,0.14878125,1.23778125,0.9418125,-0.350625,-0.3728125,1.2116875,0.018422268422268424,0.021400638518841435,True
46734,22979,0,22980,3574.0,38058.0,28271.0,-0.004148,0.002989,0.00183,0.5425000000000001,-0.5775,-4.0425,0.9598125000000001,0.10146875,0.14615625000000002,1.23128125,0.93425,-0.357375,-0.37196875,1.2181875,0.01883798028317912,0.021259054010562856,True
46735,22980,0,22981,3572.0,38054.0,28272.0,-0.0032329999999999998,0.000793,0.001281,0.3325,-0.9625000000000001,-4.077500000000001,0.96815625,0.10046875,0.1481875,1.23125,0.94146875,-0.353125,-0.37003125000000003,1.21225,0.018625689721544977,0.02126459111536839,True
46736,22981,0,22982,3575.0,38054.0,28271.0,-0.000915,0.001403,0.002074,0.3325,-1.1900000000000002,-3.99,0.9752500000000001,0.0991875,0.14890625,1.23809375,0.93421875,-0.35265625,-0.3736875,1.21371875,0.018554187492380837,0.021440898099641264,True
46737,22982,0,22983,3575.0,38055.0,28272.0,0.001586,-0.001281,0.0034159999999999998,0.3325,-1.33,-3.8150000000000004,0.9684375000000001,0.10075,0.14634375,1.234125,0.9274375,-0.34996875,-0.3720625,1.21303125,0.018510034022117587,0.021270512087354115,True
46738,22983,0,22984,3576.0,38056.0,28269.0,0.0,-0.002623,0.002013,0.2625,-1.4525000000000001,-3.6750000000000003,0.96746875,0.10059375,0.14821875,1.2338125,0.94125,-0.35381250000000003,-0.371625,1.20875,0.01865852625743916,0.021329876444430764,True
46739,22984,0,22985,3576.0,38058.0,28270.0,-0.000183,-0.0015249999999999999,0.001586,0.21000000000000002,-1.8550000000000002,-3.6750000000000003,0.9759375,0.1005,0.1486875,1.23778125,0.9331875000000001,-0.35634375,-0.373875,1.21290625,0.018756663754181085,0.021439451051586997,True
46740,22985,0,22986,3577.0,38056.0,28269.0,0.000732,-0.001098,6.1e-05,0.35000000000000003,-2.1700000000000004,-3.6400000000000006,0.9685625,0.10009375,0.151375,1.22678125,0.9353125,-0.3556875,-0.3726875,1.205875,0.018713544834240464,0.021502039937122238,True
46741,22986,0,22987,3577.0,38056.0,28268.0,0.0021349999999999997,-0.000244,-0.000549,0.47250000000000003,-2.3800000000000003,-3.6050000000000004,0.9683437500000001,0.0973125,0.146,1.23109375,0.94159375,-0.3491875,-0.3723125,1.21315625,0.01833736751996345,0.02126644732624366,True
46742,22987,0,22988,3577.0,38054.0,28264.0,0.002989,0.002257,-0.0015249999999999999,0.56,-2.3625000000000003,-3.5525,0.9673125,0.10071875,0.1459375,1.2338437500000001,0.931625,-0.3551875,-0.3718125,1.2128125,0.018719061390925443,0.021243803676891077,True
46743,22988,0,22989,3576.0,38055.0,28263.0,0.00244,0.002745,-0.002623,0.6475000000000001,-2.3275,-3.535,0.96859375,0.1001875,0.14709375,1.2339375000000001,0.9423125,-0.35596875,-0.3718125,1.20503125,0.018728725376608146,0.021291245778294086,True
46744,22989,0,22990,3575.0,38052.0,28261.0,0.001647,0.002806,-0.003721,0.525,-2.1700000000000004,-3.6750000000000003,0.96584375,0.10109375,0.1454375,1.231,0.9285625000000001,-0.35559375,-0.37171875,1.2170625,0.018750825978118474,0.02121952314093564,True
46745,22990,0,22991,3572.0,38052.0,28260.0,0.0030499999999999998,0.000122,-0.00244,0.5775,-1.9600000000000002,-3.6575,0.97596875,0.10078125,0.14840625,1.23884375,0.933875,-0.35353125,-0.373375,1.2089375,0.0186548921935089,0.021407837445573293,True
46746,22991,0,22992,3571.0,38050.0,28258.0,0.002257,-0.001098,-0.0017079999999999999,0.385,-1.6625,-3.7275000000000005,0.9683437500000001,0.10084375,0.1464375,1.23084375,0.93984375,-0.35675,-0.372375,1.213125,0.018787143194391696,0.021286907820842242,True
46747,22992,0,22993,3573.0,38053.0,28257.0,0.001586,-0.002379,0.000915,0.22750000000000004,-1.2600000000000002,-3.6575,0.96825,0.0983125,0.14828125,1.22446875,0.9381875000000001,-0.35403125,-0.37140625,1.21734375,0.0185736704267389,0.021323656692973963,True
