frame_seq,absolute_seq_u64,segment_id,sample_seq,PPG_G,PPG_R,PPG_IR,ACC_X,ACC_Y,ACC_Z,GYRO_X,GYRO_Y,GYRO_Z,Uh1,Uh2,Uh3,Uh4,Uc1,Uc2,Uc3,Uc4,UD1,UD2,parser_valid
24679,43127,0,43128,4739.0,43475.0,42038.0,0.0011589999999999999,0.002806,-0.000732,0.385,-1.1025,-4.0600000000000005,0.97628125,0.18828125,0.135375,1.17665625,0.94175,-0.23490625,-0.37325,1.12715625,0.017461899610195522,0.020868164893889818,True
24680,43128,0,43129,4739.0,43476.0,42039.0,0.002623,0.003538,0.0035989999999999998,0.5950000000000001,-1.33,-4.077500000000001,0.9694375000000001,0.191,0.14053125,1.18025,0.9414375,-0.23190625,-0.37121875,1.13534375,0.01745245486000508,0.020998129196965167,True
24681,43129,0,43130,4737.0,43476.0,42037.0,0.0050019999999999995,0.00122,0.0070149999999999995,0.43750000000000006,-1.6975000000000002,-4.077500000000001,0.97309375,0.18790625,0.13515625,1.1765,0.9472812500000001,-0.2341875,-0.3723125,1.1273125,0.017417284982217784,0.020821526475996072,True
24682,43130,0,43131,4733.0,43474.0,42032.0,0.00549,-0.000366,0.0025009999999999998,0.5075000000000001,-1.9775000000000003,-3.9725000000000006,0.9681875,0.18909375,0.13975,1.17846875,0.94240625,-0.23600000000000002,-0.375,1.1280625,0.017539765225284703,0.02111794871794872,True
24683,43131,0,43132,4729.0,43473.0,42029.0,0.002074,0.003965,-0.001098,0.42000000000000004,-1.6275000000000002,-3.9025000000000003,0.9695312500000001,0.19140625,0.13903125,1.179875,0.93940625,-0.23193750000000002,-0.37215625,1.13284375,0.017470487038025746,0.02097424186667932,True
24684,43132,0,43133,4729.0,43473.0,42032.0,-0.000244,0.004026,-6.1e-05,0.3325,-1.3825,-3.8325000000000005,0.97621875,0.19037500000000002,0.138625,1.17584375,0.9493125,-0.23265625,-0.372125,1.12740625,0.017457073035482853,0.020956317924678298,True
24685,43133,0,43134,4725.0,43473.0,42030.0,-0.002013,0.002074,-0.0015249999999999999,0.3325,-1.2950000000000002,-3.7100000000000004,0.969875,0.1880625,0.1378125,1.1785,0.94253125,-0.23478125,-0.37246875,1.1264375,0.017447805517122213,0.02093678958968816,True
24686,43134,0,43135,4724.0,43469.0,42026.0,-0.001281,0.002928,0.001098,0.42000000000000004,-1.54,-3.8850000000000002,0.9696250000000001,0.19003125,0.13875,1.182375,0.9419062500000001,-0.232125,-0.3656875,1.135625,0.01742134666274625,0.02070278131901675,True
24687,43135,0,43136,4720.0,43471.0,42027.0,0.000793,0.0018909999999999999,0.004941,0.5075000000000001,-1.7500000000000002,-4.0600000000000005,0.9755312500000001,0.19021875,0.1385625,1.17665625,0.9349375,-0.23265625,-0.3711875,1.12753125,0.017450625124928267,0.02091609200413398,True
24688,43136,0,43137,4720.0,43470.0,42026.0,-0.0008539999999999999,-0.000549,0.001403,0.3325,-1.33,-3.9200000000000004,0.96959375,0.1890625,0.14159375,1.18446875,0.9442812500000001,-0.23509375000000002,-0.375,1.12215625,0.017501737537120112,0.02119358974358974,True
24689,43137,0,43138,4719.0,43471.0,42025.0,-0.0048189999999999995,-0.0021349999999999997,0.001037,0.17500000000000002,-1.12,-3.8150000000000004,0.9736250000000001,0.1901875,0.1394375,1.1768125,0.941625,-0.23246875,-0.36762500000000004,1.1274375,0.017441733005433054,0.020808860116650677,True
24690,43138,0,43139,4717.0,43469.0,42025.0,-0.006527,-0.0032329999999999998,6.1e-05,0.052500000000000005,-1.12,-3.7275000000000005,0.9733125,0.18771875000000002,0.1369375,1.178125,0.94828125,-0.23575000000000002,-0.3751875,1.13496875,0.017472896444302326,0.021010094794142606,True
24691,43139,0,43140,4717.0,43469.0,42026.0,-0.006893,-0.005063,-0.003538,-0.035,-1.2950000000000002,-3.7450000000000006,0.97621875,0.19096875,0.14,1.18003125,0.94434375,-0.23146875,-0.370625,1.1321875000000001,0.017433425285043855,0.020952478650014105,True
24692,43140,0,43141,4718.0,43469.0,42028.0,-0.004575,-0.0059169999999999995,-0.006954,-0.12250000000000001,-1.4525000000000001,-3.7450000000000006,0.9775312500000001,0.1908125,0.14659375,1.17946875,0.9442812500000001,-0.2320625,-0.3665,1.13090625,0.017451052711670745,0.021057343073482036,True
24693,43141,0,43142,4719.0,43470.0,42030.0,0.0017079999999999999,-0.000549,-0.0051849999999999995,0.08750000000000001,-2.3625000000000003,-3.8850000000000002,0.9707187500000001,0.196,0.13915625,1.17584375,0.9460937500000001,-0.232875,-0.37184375000000003,1.12234375,0.01769806512846701,0.020966817498163225,True
24694,43142,0,43143,4718.0,43471.0,42032.0,0.006527,0.0008539999999999999,-0.001464,0.28,-2.5375,-4.077500000000001,0.9735625,0.18987500000000002,0.13678125,1.17684375,0.94746875,-0.23553125,-0.37259375,1.12696875,0.017552998760858602,0.020899499053111656,True
24695,43143,0,43144,4717.0,43470.0,42030.0,0.009455,0.002989,0.0015249999999999999,0.5775,-2.7475,-4.2175,0.96884375,0.19134375,0.139375,1.1807812500000001,0.9413125,-0.2325625,-0.37143750000000003,1.1324375,0.01749324901153149,0.020959473564085007,True
24696,43144,0,43145,4720.0,43470.0,42032.0,0.011101999999999999,0.0023179999999999997,0.002806,0.6825000000000001,-2.8525000000000005,-4.1825,0.9716875,0.1918125,0.13909375000000002,1.17959375,0.9390625,-0.232125,-0.3685625,1.1301875000000001,0.017494854454572183,0.02083242497377513,True
24697,43145,0,43146,4721.0,43468.0,42031.0,0.0050019999999999995,0.005307,0.0048189999999999995,0.805,-2.4325,-4.2700000000000005,0.9733125,0.1893125,0.13925,1.176125,0.94928125,-0.23459375000000002,-0.37228125,1.1270625,0.01749178279499734,0.02098823843172251,True
24698,43146,0,43147,4723.0,43469.0,42033.0,-0.001952,0.001464,0.003721,0.5950000000000001,-1.4175000000000002,-3.7275000000000005,0.969,0.19153125000000001,0.13909375000000002,1.18159375,0.941875,-0.23068750000000002,-0.3728125,1.13665625,0.017424959568316006,0.021003166950880208,True
24699,43147,0,43148,4723.0,43470.0,42035.0,-0.007076,-0.001769,0.001647,0.525,-1.1375000000000002,-3.535,0.9738125,0.19090625,0.139125,1.17753125,0.9545625,-0.23446875,-0.37246875,1.1250625,0.017552478842763987,0.02099064133583103,True
24700,43148,0,43149,4727.0,43472.0,42037.0,-0.007991,-0.001647,-0.00122,0.525,-1.0325000000000002,-3.5000000000000004,0.96965625,0.19196875,0.142625,1.18665625,0.93603125,-0.23015625,-0.3733125,1.13915625,0.017421472467805482,0.021168132152738776,True
24701,43149,0,43150,4729.0,43473.0,42040.0,-0.007076,-0.002623,-0.0026839999999999998,0.665,-1.155,-3.6225000000000005,0.9805625,0.1951875,0.1393125,1.1767812500000001,0.95365625,-0.2355625,-0.370375,1.12071875,0.017773468224638895,0.020914224750337246,True
24702,43150,0,43151,4728.0,43474.0,42040.0,-0.004758,-0.0025009999999999998,-0.002074,0.6300000000000001,-1.2950000000000002,-3.8150000000000004,0.9798125,0.18065625,0.1358125,1.17234375,0.95453125,-0.23696875,-0.37109375,1.1238125,0.017230908877579835,0.020799487097291233,True
24703,43151,0,43152,4729.0,43472.0,42042.0,-0.0050019999999999995,0.000244,-0.001037,0.8925000000000001,-1.54,-3.9550000000000005,0.96359375,0.1871875,0.1313125,1.168625,0.9472812500000001,-0.23750000000000002,-0.372,1.12425,0.0175219185146983,0.02065125964221238,True
24704,43152,0,43153,4733.0,43476.0,42043.0,-0.0032329999999999998,0.00122,0.00244,1.0150000000000001,-1.8900000000000001,-4.025,0.9570625,0.18496875000000002,0.1380625,1.176375,0.93940625,-0.238625,-0.3758125,1.11315625,0.017475981001397564,0.021081348570432267,True
24705,43153,0,43154,4735.0,43472.0,42045.0,0.0017079999999999999,0.0006709999999999999,0.005612,0.9625000000000001,-2.205,-3.9725000000000006,0.95678125,0.19446875,0.1431875,1.19909375,0.93840625,-0.23040625,-0.37634375000000003,1.13934375,0.01753478648340863,0.02131292762065681,True
24706,43154,0,43155,4735.0,43476.0,42046.0,0.006893,0.000793,0.0028669999999999998,0.8575,-2.6075000000000004,-4.2700000000000005,0.97675,0.18959375,0.14400000000000002,1.16471875,0.9310625,-0.23078125,-0.3700625,1.13334375,0.017348800918253512,0.02109401648026139,True
24707,43155,0,43156,4737.0,43473.0,42043.0,0.00976,0.0028669999999999998,6.1e-05,0.7175,-2.8525000000000005,-4.2,0.9898750000000001,0.18003125,0.136125,1.1695,0.956125,-0.23315625,-0.37115625,1.124125,0.01705050286216844,0.020814820798664407,True
24708,43156,0,43157,4737.0,43471.0,42041.0,0.007076,0.001769,-0.0023179999999999997,0.43750000000000006,-2.5200000000000005,-4.112500000000001,0.9530625,0.18871875,0.13421875,1.19225,0.94784375,-0.23321875,-0.37640625,1.12765625,0.01741153349676258,0.020947509438558033,True
24709,43157,0,43158,4736.0,43474.0,42042.0,0.0018909999999999999,0.000488,-0.000793,0.28,-2.0475000000000003,-3.9375000000000004,0.9716250000000001,0.19034375,0.14453125,1.16665625,0.9380937500000001,-0.230125,-0.36975,1.1300625,0.017353139944593764,0.021103263266960066,True
24710,43158,0,43159,4737.0,43473.0,42042.0,-0.002806,-0.001098,-6.1e-05,0.2625,-1.6450000000000002,-3.6750000000000003,0.982375,0.17859375,0.13740625,1.164875,0.94575,-0.23215625,-0.37059375,1.1265625000000001,0.016950617013291997,0.020844793738355266,True
24711,43159,0,43160,4738.0,43472.0,42043.0,-0.004941,-6.1e-05,0.000488,0.2625,-1.3125000000000002,-3.6750000000000003,0.967125,0.18415625,0.1345,1.1675,0.9343125,-0.233125,-0.3720625,1.12703125,0.01721945683852165,0.0207845560875285,True
24712,43160,0,43161,4738.0,43471.0,42044.0,-0.007076,0.000732,-0.003477,0.29750000000000004,-1.4525000000000001,-3.7100000000000004,0.95703125,0.186625,0.13534375,1.17540625,0.94234375,-0.231875,-0.37546875,1.127875,0.017270640427123365,0.02095600725627071,True
24713,43161,0,43162,4739.0,43470.0,42042.0,-0.0059169999999999995,-0.000244,-0.001403,0.24500000000000002,-1.6625,-3.7100000000000004,0.956875,0.192625,0.13290625,1.1689375,0.9423125,-0.23496875,-0.37584375000000003,1.125125,0.01764366830470949,0.020871072411596008,True
24714,43162,0,43163,4739.0,43470.0,42047.0,-0.0018909999999999999,-0.0021349999999999997,0.000732,0.24500000000000002,-1.9075000000000002,-3.7100000000000004,0.9702500000000001,0.1916875,0.1423125,1.18446875,0.9475,-0.23209375000000002,-0.36759375,1.1335625,0.01748842895591719,0.020925588928943795,True
24715,43163,0,43164,4739.0,43473.0,42046.0,0.003172,-0.002806,0.001769,0.24500000000000002,-2.31,-3.8500000000000005,0.96975,0.19253125000000001,0.1379375,1.176,0.945625,-0.23153125,-0.37303125,1.1334375,0.017500441702379004,0.020964513800473625,True
24716,43164,0,43165,4740.0,43472.0,42046.0,0.0051849999999999995,-0.00183,0.001037,0.29750000000000004,-2.5900000000000003,-3.99,0.9693125,0.1890625,0.13603125,1.17609375,0.94303125,-0.23175,-0.3751875,1.1213125,0.017366162163277517,0.02097291559295698,True
24717,43165,0,43166,4740.0,43473.0,42047.0,0.0034159999999999998,0.0006709999999999999,0.000366,0.35000000000000003,-2.4850000000000003,-3.9200000000000004,0.9691875,0.1895625,0.138125,1.17659375,0.9423750000000001,-0.23353125,-0.37346875,1.127875,0.017459021784124014,0.02098978012721312,True
24718,43166,0,43167,4740.0,43476.0,42047.0,-0.000366,-0.00061,-0.000732,0.2625,-2.3275,-3.7975000000000003,0.9694375000000001,0.1888125,0.13853125,1.17703125,0.9429062500000001,-0.23421875,-0.37559375,1.1275,0.017455947491602137,0.02109179391784046,True
24719,43167,0,43168,4741.0,43475.0,42050.0,-0.000305,-6.1e-05,-0.00061,0.21000000000000002,-2.0650000000000004,-3.7275000000000005,0.9758125,0.1881875,0.13915625,1.17946875,0.94321875,-0.234,-0.37171875,1.12815625,0.017421288272674754,0.02096179613922387,True
24720,43168,0,43169,4743.0,43475.0,42051.0,-0.000549,0.000915,0.000366,0.31500000000000006,-1.9600000000000002,-3.6925000000000003,0.976875,0.19178125000000001,0.13778125,1.18275,0.95125,-0.2320625,-0.37103125000000003,1.13378125,0.017491030736653142,0.020877758301672194,True
24721,43169,0,43170,4743.0,43477.0,42052.0,-0.000122,0.00122,0.000366,0.21000000000000002,-1.8900000000000001,-3.7275000000000005,0.97021875,0.1883125,0.137125,1.17665625,0.94225,-0.23134375000000001,-0.3755,1.122125,0.017318736192663685,0.02103033783922381,True
24722,43170,0,43171,4745.0,43477.0,42052.0,-0.0021349999999999997,0.000732,-0.00244,0.17500000000000002,-1.9250000000000003,-3.6925000000000003,0.97084375,0.18828125,0.13640625,1.1765625,0.94303125,-0.230875,-0.37125,1.12709375,0.017298436395714146,0.020830127711955686,True
24723,43171,0,43172,4745.0,43479.0,42053.0,-0.003294,0.00122,-0.0018909999999999999,0.24500000000000002,-2.0475000000000003,-3.7800000000000002,0.9728125,0.18853125,0.139,1.17684375,0.94275,-0.22828125,-0.37243750000000003,1.1271875,0.017203552150444022,0.020984257319359215,True
24724,43172,0,43173,4746.0,43478.0,42056.0,-0.0015249999999999999,-0.000305,-0.001464,0.31500000000000006,-2.2750000000000004,-3.7100000000000004,0.978,0.19084375,0.139875,1.180375,0.9450937500000001,-0.2343125,-0.37171875,1.12778125,0.017543565554005297,0.020991287288673475,True
24725,43173,0,43174,4747.0,43478.0,42056.0,0.00183,-0.002928,0.000976,0.42000000000000004,-2.3975000000000004,-3.8150000000000004,0.9753125,0.1901875,0.13878125,1.1824375,0.94671875,-0.22768750000000001,-0.36884375,1.1336875,0.017247828543273065,0.020830902163751615,True
24726,43174,0,43175,4751.0,43480.0,42059.0,0.0011589999999999999,-0.0011589999999999999,0.0017079999999999999,0.47250000000000003,-2.5375,-3.9025000000000003,0.9771562500000001,0.19184375,0.1394375,1.1787812500000001,0.94534375,-0.23271875,-0.3720625,1.12278125,0.01752021737139998,0.0209871446046062,True
24727,43175,0,43176,4750.0,43481.0,42059.0,0.003477,0.0008539999999999999,0.0015249999999999999,0.42000000000000004,-2.4675000000000002,-3.8500000000000005,0.97728125,0.19121875,0.13965625,1.18340625,0.9503125,-0.23234375000000002,-0.36775,1.12778125,0.017479221340279974,0.020822860132757436,True
24728,43176,0,43177,4752.0,43481.0,42060.0,0.0015249999999999999,0.00061,0.00061,0.45500000000000007,-2.3800000000000003,-3.7975000000000003,0.97221875,0.1914375,0.13690625,1.18021875,0.94765625,-0.2320625,-0.371625,1.1341875000000001,0.017476844985852936,0.02086570961107435,True
24729,43177,0,43178,4757.0,43482.0,42060.0,0.001037,0.000488,0.0,0.42000000000000004,-2.24,-3.6225000000000005,0.96975,0.18912500000000002,0.1371875,1.17675,0.9395,-0.231375,-0.3735,1.12721875,0.017353534415607864,0.02095257144029376,True
24730,43178,0,43179,4755.0,43481.0,42064.0,0.000366,0.000549,-0.000244,0.29750000000000004,-2.2225,-3.7100000000000004,0.9775,0.188,0.13859375000000002,1.1765,0.94215625,-0.2330625,-0.3725,1.1284687500000001,0.017375538069115286,0.020970099497384348,True
24731,43179,0,43180,4758.0,43483.0,42065.0,-0.000915,0.000915,-0.0008539999999999999,0.35000000000000003,-2.0300000000000002,-3.7450000000000006,0.9750625,0.19137500000000002,0.13815625,1.18434375,0.94721875,-0.23234375000000002,-0.37246875,1.12740625,0.017485669333986733,0.020950893618439864,True
24732,43180,0,43181,4758.0,43483.0,42066.0,-0.0026839999999999998,0.000122,0.00122,0.22750000000000004,-1.8375000000000001,-3.8500000000000005,0.9748125,0.19153125000000001,0.1355,1.16984375,0.9469375,-0.23153125,-0.37490625,1.13328125,0.017459173158939346,0.020939824127528695,True
24733,43181,0,43182,4761.0,43482.0,42067.0,-0.002928,-0.002196,0.0008539999999999999,0.15750000000000003,-1.8900000000000001,-3.7800000000000002,0.9698125,0.18815625,0.1368125,1.1764375,0.9425,-0.23115625,-0.3728125,1.12715625,0.01730468392320321,0.02090956880745708,True
24734,43182,0,43183,4760.0,43484.0,42070.0,-0.001769,-0.0017079999999999999,-0.000488,0.10500000000000001,-2.0825,-3.7800000000000002,0.9725625,0.1880625,0.13865625,1.17828125,0.94275,-0.2346875,-0.372,1.1276875,0.017444004590527522,0.020952578778926638,True
24735,43183,0,43184,4765.0,43483.0,42069.0,0.00061,-0.00042699999999999997,-0.0023179999999999997,0.17500000000000002,-2.3275,-3.8150000000000004,0.97571875,0.1879375,0.1376875,1.17409375,0.953375,-0.23440625,-0.37253125,1.12834375,0.01742744367834471,0.020934171537886525,True
24736,43184,0,43185,4764.0,43482.0,42069.0,0.005429,0.0006709999999999999,-0.002928,0.28,-2.6075000000000004,-3.7100000000000004,0.974875,0.18887500000000002,0.14009375,1.1766875,0.9380937500000001,-0.2348125,-0.37059375,1.12525,0.017482598637806667,0.0209550700831817,True
24737,43185,0,43186,4766.0,43483.0,42071.0,0.004209,0.000366,0.000549,0.31500000000000006,-2.555,-3.6925000000000003,0.9761875,0.19271875,0.136625,1.17840625,0.9499062500000001,-0.230125,-0.36978125,1.14096875,0.0174511584236565,0.020780090096212907,True
24738,43186,0,43187,4768.0,43483.0,42071.0,0.002989,-0.0006709999999999999,0.002196,0.22750000000000004,-2.1350000000000002,-3.7625,0.969125,0.189,0.13934375000000002,1.17784375,0.94303125,-0.22968750000000002,-0.3753125,1.12396875,0.017279938092474367,0.021113831873950335,True
24739,43187,0,43188,4770.0,43481.0,42075.0,-0.002013,0.000793,-0.0008539999999999999,0.31500000000000006,-1.6800000000000002,-3.6575,0.9778125,0.19137500000000002,0.1395625,1.18259375,0.9354375,-0.23559375000000002,-0.3638125,1.12996875,0.017617424784569184,0.02066076481256782,True
24740,43188,0,43189,4770.0,43486.0,42074.0,-0.007076,0.00244,-0.000183,0.4025,-1.3650000000000002,-3.6225000000000005,0.97046875,0.19221875,0.13593750000000002,1.1801875,0.9569375,-0.23096875,-0.3629375,1.14096875,0.017464737145517554,0.020476800057464335,True
24741,43189,0,43190,4774.0,43485.0,42078.0,-0.008052,0.001037,-0.000183,0.47250000000000003,-1.3125000000000002,-3.7100000000000004,0.97009375,0.19240625,0.1368125,1.17753125,0.9402812500000001,-0.22896875,-0.3683125,1.13440625,0.017391371640610994,0.020728764045520185,True
24742,43190,0,43191,4775.0,43487.0,42082.0,0.000915,-0.001281,0.002074,0.5075000000000001,-1.7675,-4.0075,0.96975,0.18803125,0.1383125,1.177,0.93640625,-0.23093750000000002,-0.376875,1.11565625,0.017290653735539535,0.021134271722688,True
24743,43191,0,43192,4775.0,43487.0,42079.0,0.004026,-0.001586,0.0013419999999999999,0.29750000000000004,-2.0475000000000003,-4.130000000000001,0.978375,0.19090625,0.13978125,1.18340625,0.93621875,-0.238375,-0.37015625,1.1223750000000001,0.017710809821202947,0.020924670928197272,True
24744,43192,0,43193,4776.0,43485.0,42076.0,0.002623,0.00042699999999999997,-0.000732,0.15750000000000003,-1.9250000000000003,-4.2525,0.96975,0.19215625,0.13575,1.17690625,0.94253125,-0.22909375,-0.37425,1.14125,0.017386122830120296,0.020923720729868613,True
24745,43193,0,43194,4774.0,43485.0,42074.0,0.00061,0.001403,-0.000793,0.22750000000000004,-1.6625,-4.375,0.97240625,0.19140625,0.13965625,1.185,0.9353750000000001,-0.2395625,-0.371125,1.12234375,0.01777955975896842,0.02095846006288179,True
24746,43194,0,43195,4770.0,43484.0,42072.0,-0.002806,0.00042699999999999997,0.000793,0.21000000000000002,-1.3825,-4.655,0.9590000000000001,0.1919375,0.13684375000000001,1.17846875,0.9549375,-0.231125,-0.3725,1.13840625,0.017459465872921708,0.020898297261257564,True
24747,43195,0,43196,4769.0,43483.0,42069.0,-0.001403,-0.002196,0.0017079999999999999,-0.052500000000000005,-1.61,-4.8825,0.9705625,0.18909375,0.13809375000000002,1.17609375,0.93553125,-0.23409375000000002,-0.3765,1.1250625,0.017462485057853673,0.021110239369884928,True
24748,43196,0,43197,4766.0,43483.0,42066.0,-6.1e-05,-0.001769,0.000793,-0.052500000000000005,-1.9600000000000002,-4.9,0.970125,0.18865625,0.138875,1.168875,0.937875,-0.230375,-0.37496875,1.12771875,0.017293634539292106,0.0210807962574311,True
24749,43197,0,43198,4764.0,43481.0,42066.0,0.002745,-6.1e-05,-0.0018909999999999999,-0.07,-2.2750000000000004,-5.022500000000001,0.97021875,0.192625,0.13671875,1.183625,0.9423750000000001,-0.23134375000000001,-0.3721875,1.13553125,0.01749670816336795,0.020880614429870114,True
24750,43198,0,43199,4760.0,43478.0,42064.0,0.00488,6.1e-05,-0.003355,-0.052500000000000005,-2.5900000000000003,-4.760000000000001,0.9703125,0.19190625,0.13828125,1.1774375,0.93840625,-0.22959375,-0.37478125,1.1324375,0.017396082012311905,0.02104890684916403,True
24751,43199,0,43200,4758.0,43478.0,42059.0,0.004697,0.000366,-0.0062829999999999995,0.12250000000000001,-2.7825,-4.567500000000001,0.96978125,0.19078125,0.13671875,1.16659375,0.94234375,-0.23240625,-0.37575000000000003,1.1275625,0.017463701113049804,0.021023712090910026,True
24752,43200,0,43201,4757.0,43477.0,42060.0,0.006222,-0.00042699999999999997,0.0006709999999999999,0.5075000000000001,-2.8525000000000005,-4.322500000000001,0.97478125,0.18859375,0.1395,1.17621875,0.9422812500000001,-0.23284375000000002,-0.372375,1.12690625,0.01739116978377744,0.021002261782038067,True
24753,43201,0,43202,4755.0,43477.0,42059.0,0.006161,-0.001098,0.000183,0.5425000000000001,-2.765,-4.1825,0.96515625,0.1886875,0.1388125,1.17659375,0.941625,-0.23390625,-0.3743125,1.12640625,0.017438119370458485,0.021051875822138577,True
24754,43202,0,43203,4756.0,43476.0,42058.0,0.0053679999999999995,-0.000976,0.001586,0.385,-2.5025000000000004,-4.0075,0.97015625,0.19028125,0.139125,1.16678125,0.942875,-0.23193750000000002,-0.3725625,1.1275625,0.01742406070500966,0.020994407133020997,True
24755,43203,0,43204,4753.0,43474.0,42058.0,0.0015249999999999999,-0.000976,-0.000549,0.43750000000000006,-2.0125,-3.7450000000000006,0.97390625,0.1970625,0.13971875,1.1808750000000001,0.94175,-0.23550000000000001,-0.37446875,1.12721875,0.01784830104598626,0.021095331564918725,True
24756,43204,0,43205,4754.0,43475.0,42060.0,-0.0034159999999999998,0.00042699999999999997,0.0006709999999999999,0.47250000000000003,-1.3825,-3.6225000000000005,0.97509375,0.19159375,0.13890625,1.181875,0.94834375,-0.23134375000000001,-0.37121875,1.134875,0.017454149648634322,0.020931452186813592,True
24757,43205,0,43206,4754.0,43478.0,42060.0,-0.007869,-0.002745,-0.0006709999999999999,0.28,-0.8225000000000001,-3.22,0.9697187500000001,0.19196875,0.13490625,1.177,0.9422812500000001,-0.2313125,-0.37396875,1.12746875,0.017468358348314807,0.020877806368730985,True
24758,43206,0,43207,4756.0,43477.0,42061.0,-0.00732,-0.003172,-0.00183,0.3325,-0.9275000000000001,-2.9925,0.985,0.19034375,0.140125,1.19090625,0.94815625,-0.23228125,-0.37190625,1.135125,0.017440578360735228,0.021009076793080145,True
24759,43207,0,43208,4758.0,43479.0,42064.0,-0.006161,0.000244,0.000488,0.45500000000000007,-1.2075,-3.0100000000000002,0.97115625,0.192125,0.14053125,1.18809375,0.9445,-0.231,-0.3716875,1.13421875,0.017462135281251286,0.02101695871490228,True
24760,43208,0,43209,4758.0,43480.0,42067.0,-0.0018909999999999999,0.0021349999999999997,0.002196,0.6125,-1.3825,-3.115,0.96940625,0.1968125,0.13671875,1.18640625,0.9435625,-0.2268125,-0.37528125,1.12309375,0.01748579182672091,0.02100488584106081,True
24761,43209,0,43210,4759.0,43478.0,42067.0,0.003355,0.001281,0.0030499999999999998,0.5950000000000001,-1.5575,-3.22,0.9656250000000001,0.18734375,0.1371875,1.173,0.93040625,-0.23209375000000002,-0.37593750000000004,1.12459375,0.01730917288152205,0.021050472417727527,True
24762,43210,0,43211,4760.0,43480.0,42070.0,0.0040869999999999995,0.0032329999999999998,0.001647,0.6125,-1.9600000000000002,-3.3425000000000002,0.96521875,0.1894375,0.1330625,1.1764375,0.94234375,-0.2341875,-0.372625,1.127125,0.01748047051298914,0.020748175463250265,True
24763,43211,0,43212,4763.0,43482.0,42074.0,0.003843,0.003294,0.001037,0.5425000000000001,-1.9075000000000002,-3.3950000000000005,0.96528125,0.19346875,0.13575,1.17484375,0.9434375,-0.23175,-0.373,1.12684375,0.017548000041268167,0.020873507569851887,True
24764,43212,0,43213,4762.0,43481.0,42074.0,0.002989,0.002745,0.002562,0.42000000000000004,-1.61,-3.3950000000000005,0.96528125,0.18890625,0.13378125,1.17321875,0.94175,-0.2331875,-0.37534375000000003,1.1269375,0.017418003719073274,0.020886884928545884,True
24765,43213,0,43214,4765.0,43482.0,42074.0,-0.00244,0.000366,-0.003965,0.29750000000000004,-1.3650000000000002,-3.3075,0.96509375,0.18434375,0.1373125,1.1733125,0.9438125,-0.234125,-0.37196875,1.12675,0.01726774744291366,0.020896188372143715,True
24766,43214,0,43215,4766.0,43483.0,42076.0,-0.004026,-0.0023179999999999997,-0.000976,0.35000000000000003,-1.3475000000000001,-3.1675000000000004,0.9650625,0.19137500000000002,0.1374375,1.175125,0.9426875,-0.2275,-0.371625,1.12728125,0.017289237436797028,0.020887507501038603,True
24767,43215,0,43216,4768.0,43484.0,42080.0,-0.0013419999999999999,-0.0021349999999999997,0.000244,0.385,-1.4175000000000002,-3.325,0.9657187500000001,0.19253125000000001,0.13484375,1.16596875,0.9429375,-0.23234375000000002,-0.3736875,1.12734375,0.01753338448741674,0.020863943955956605,True
24768,43216,0,43217,4768.0,43484.0,42081.0,-0.000976,-0.0021349999999999997,0.00042699999999999997,0.47250000000000003,-1.6450000000000002,-3.325,0.965,0.18915625,0.13975,1.1748750000000001,0.9429062500000001,-0.2331875,-0.3716875,1.1260625,0.017428320149794577,0.020984903076571942,True
24769,43217,0,43218,4771.0,43483.0,42080.0,0.000488,-0.00061,0.000915,0.45500000000000007,-1.8200000000000003,-3.2900000000000005,0.9663437500000001,0.19087500000000002,0.13593750000000002,1.18403125,0.942125,-0.2335625,-0.37343750000000003,1.13053125,0.017514449227182344,0.02089877556253606,True
24770,43218,0,43219,4773.0,43487.0,42084.0,0.0025009999999999998,0.000305,0.002074,0.49000000000000005,-1.9425000000000001,-3.3600000000000003,0.9671875,0.1929375,0.1399375,1.176,0.9425625,-0.23078125,-0.37315625,1.1300937500000001,0.017486796881549166,0.021051592364037794,True
24771,43219,0,43220,4774.0,43487.0,42083.0,0.0028669999999999998,-0.000976,-0.000244,0.49000000000000005,-2.1700000000000004,-3.5175000000000005,0.970125,0.18959375,0.13878125,1.18390625,0.94178125,-0.2305,-0.3715625,1.127,0.017337395018674814,0.020940132582800138,True
24772,43220,0,43221,4774.0,43488.0,42083.0,0.002806,-0.0015249999999999999,-0.000183,0.5950000000000001,-2.0825,-3.535,0.96975,0.18962500000000002,0.13771875,1.1768750000000001,0.94646875,-0.231,-0.37509375,1.1283125,0.017358961660682598,0.021038380621612993,True
24773,43221,0,43222,4773.0,43488.0,42086.0,0.000915,-0.001098,0.000122,0.5425000000000001,-1.8375000000000001,-3.5175000000000005,0.97684375,0.19403125000000002,0.14021875,1.18465625,0.9295,-0.23640625,-0.37184375000000003,1.12346875,0.017759955645239276,0.021010412886796885,True
24774,43222,0,43223,4776.0,43489.0,42082.0,-0.000183,0.00042699999999999997,6.1e-05,0.56,-1.5575,-3.4650000000000003,0.9634375000000001,0.1893125,0.1395625,1.1816875,0.9445625,-0.22875,-0.37425,1.12059375,0.017254810916782746,0.02108013579905023,True
24775,43223,0,43224,4777.0,43489.0,42085.0,-0.001037,0.0018909999999999999,-0.000244,0.5425000000000001,-1.3475000000000001,-3.4475000000000002,0.9700625,0.19009375,0.1388125,1.1765625,0.967,-0.22896875,-0.37459375,1.1243125,0.01729592804068477,0.021063171565679946,True
24776,43224,0,43225,4776.0,43487.0,42084.0,-0.003111,0.0025009999999999998,0.000244,0.43750000000000006,-1.3650000000000002,-3.5000000000000004,0.97821875,0.19221875,0.1409375,1.18225,0.93075,-0.23946875,-0.36309375,1.13384375,0.01780928057674531,0.020688310572215398,True
24777,43225,0,43226,4776.0,43490.0,42088.0,-0.00244,0.0006709999999999999,0.0017079999999999999,0.42000000000000004,-1.5925000000000002,-3.5700000000000003,0.9700625,0.19075,0.13878125,1.1769375,0.94778125,-0.22693750000000001,-0.37678125,1.1225,0.017240623169973508,0.02114973649361521,True
24778,43226,0,43227,4778.0,43490.0,42087.0,0.000244,-0.001098,0.0023179999999999997,0.525,-1.8375000000000001,-3.4825000000000004,0.9768125,0.19221875,0.13775,1.18109375,0.93040625,-0.24365625000000002,-0.36715625,1.1400625,0.017978930055156182,0.020720770401757488,True
24779,43227,0,43228,4779.0,43489.0,42090.0,0.002806,-0.000793,0.0025009999999999998,0.5075000000000001,-2.0125,-3.5175000000000005,0.97003125,0.19178125000000001,0.13665625,1.17675,0.9446875,-0.2275625,-0.37284375000000003,1.1330625,0.017308540634246635,0.02090441333912872,True
24780,43228,0,43229,4780.0,43489.0,42087.0,0.003355,-0.000976,0.0,0.36750000000000005,-2.1875,-3.5700000000000003,0.96203125,0.18859375,0.1403125,1.1749687500000001,0.9291875,-0.2404375,-0.37084375,1.116875,0.017698989550002965,0.02097408917161516,True
24781,43229,0,43230,4781.0,43490.0,42090.0,0.00042699999999999997,-0.0006709999999999999,-0.003294,0.1925,-1.8550000000000002,-3.6050000000000004,0.97546875,0.1895625,0.13915625,1.176625,0.957875,-0.24053125,-0.3804375,1.121125,0.01774275264697427,0.021311912470807794,True
24782,43230,0,43231,4781.0,43491.0,42092.0,-0.002257,-0.00042699999999999997,-0.0023179999999999997,0.10500000000000001,-1.6450000000000002,-3.6225000000000005,0.97578125,0.19140625,0.1391875,1.1823125,0.93009375,-0.24165625000000002,-0.36646875,1.1284375,0.01786439406342131,0.020752135042136546,True
24783,43231,0,43232,4781.0,43492.0,42092.0,-0.003355,-0.000732,-0.00122,0.10500000000000001,-1.54,-3.5875000000000004,0.97003125,0.19265625,0.13821875,1.16940625,0.9639375,-0.2285,-0.37371875,1.14875,0.01738267948903151,0.021003668141530516,True
24784,43232,0,43233,4783.0,43492.0,42093.0,-0.004026,0.000244,0.000488,0.21000000000000002,-1.5050000000000001,-3.5525,0.9695,0.19259375,0.13915625,1.175875,0.93159375,-0.22771875,-0.37053125000000003,1.145125,0.017348414200160714,0.020914090660210785,True
24785,43233,0,43234,4784.0,43490.0,42096.0,-0.003538,0.000488,0.0006709999999999999,0.2625,-1.6800000000000002,-3.7800000000000002,0.9645625,0.18925,0.13790625,1.176375,0.9289375,-0.23125,-0.37696875,1.11984375,0.017353623936033014,0.02112137096619119,True
24786,43234,0,43235,4785.0,43493.0,42096.0,-0.000244,0.0008539999999999999,0.001403,0.35000000000000003,-2.0125,-3.9725000000000006,0.9674375000000001,0.19190625,0.13871875,1.1848125,0.93978125,-0.23465625,-0.36975,1.1339062500000001,0.01760134311787484,0.02086475035648704,True
24787,43235,0,43236,4785.0,43493.0,42094.0,0.002989,0.001037,0.002257,0.28,-2.1175,-4.095000000000001,0.96296875,0.19221875,0.13903125,1.1768750000000001,0.94284375,-0.23093750000000002,-0.3765625,1.12753125,0.017463469995744076,0.021151208255881036,True
24788,43236,0,43237,4788.0,43494.0,42098.0,0.0055509999999999995,0.000244,0.001281,0.24500000000000002,-2.5725000000000002,-4.2875000000000005,0.96978125,0.18962500000000002,0.1396875,1.18225,0.9440625,-0.234,-0.36853125000000003,1.13375,0.017480605760501776,0.020855534738065104,True
24789,43237,0,43238,4788.0,43491.0,42097.0,0.005307,-0.000915,-0.003111,0.21000000000000002,-2.66,-4.2525,0.970125,0.1924375,0.13646875,1.17609375,0.9429375,-0.23159375000000001,-0.37125,1.1273125,0.01749910692523062,0.020832692209057802,True
24790,43238,0,43239,4791.0,43489.0,42096.0,0.003294,0.0017079999999999999,-0.001769,0.3325,-2.2925000000000004,-4.1825,0.9746875,0.1928125,0.14071875,1.18240625,0.94940625,-0.232875,-0.37140625,1.12709375,0.017566528940540484,0.021013354533040124,True
24791,43239,0,43240,4791.0,43490.0,42099.0,-0.0034159999999999998,-0.0015249999999999999,-0.000305,0.3325,-1.8025000000000002,-3.7975000000000003,0.97003125,0.18959375,0.1393125,1.17659375,0.93775,-0.23359375000000002,-0.3716875,1.12734375,0.017462845352848255,0.020966951919106955,True
24792,43240,0,43241,4793.0,43493.0,42099.0,-0.004941,-0.0021349999999999997,0.0026839999999999998,0.29750000000000004,-1.8025000000000002,-3.7100000000000004,0.97396875,0.18925,0.13928125,1.1790625000000001,0.9515625,-0.23234375000000002,-0.36459375,1.13096875,0.01739797661957482,0.0206806239073861,True
24793,43241,0,43242,4795.0,43493.0,42102.0,-0.00366,-0.001952,0.001403,0.3325,-1.9075000000000002,-3.8850000000000002,0.9745625,0.19225,0.139625,1.18240625,0.9504375,-0.2320625,-0.3726875,1.1340937500000001,0.017510374942289783,0.021019942917661415,True
24794,43242,0,43243,4797.0,43494.0,42103.0,6.1e-05,-0.003477,0.000122,0.28,-2.3275,-3.9550000000000005,0.97309375,0.1918125,0.1395,1.1861875,0.94565625,-0.23153125,-0.37190625,1.1343125,0.01747077993678175,0.02098343251258814,True
24795,43243,0,43244,4798.0,43495.0,42103.0,0.005307,-0.00061,-0.003721,0.22750000000000004,-2.7825,-4.0600000000000005,0.9696875,0.1929375,0.14146875,1.1873125,0.93209375,-0.2315,-0.37503125,1.12790625,0.017515939995460455,0.02118971642344048,True
24796,43244,0,43245,4800.0,43492.0,42103.0,0.0070149999999999995,0.002562,-0.000915,0.385,-2.5200000000000005,-4.305000000000001,0.9569375,0.19215625,0.139125,1.193625,0.94159375,-0.23093750000000002,-0.37521875,1.1326875,0.017460890648576848,0.021101092682501568,True
24797,43245,0,43246,4800.0,43493.0,42104.0,0.002623,0.001952,0.001647,0.31500000000000006,-2.1,-4.112500000000001,0.983625,0.19328125000000002,0.14150000000000001,1.191625,0.942625,-0.2318125,-0.3746875,1.13375,0.01754279627246208,0.021177194579417684,True
24798,43246,0,43247,4802.0,43492.0,42106.0,-0.0013419999999999999,-0.000549,0.002806,0.3325,-1.6625,-3.9025000000000003,0.96984375,0.193375,0.14109375,1.1929687500000001,0.94225,-0.2315625,-0.3745,1.12815625,0.017536529062044594,0.02115299801021559,True
24799,43247,0,43248,4804.0,43493.0,42106.0,-0.002257,-0.001464,0.002013,0.28,-1.2775,-3.8325000000000005,0.9638125000000001,0.18837500000000001,0.13493750000000002,1.1709375,0.94265625,-0.23403125,-0.37234375000000003,1.11621875,0.017430292370362442,0.020813806632774087,True
24800,43248,0,43249,4806.0,43494.0,42107.0,-0.004026,-0.00061,0.001647,0.07,-1.0325000000000002,-3.6925000000000003,0.96309375,0.18565625,0.14221875,1.1895,0.9412812500000001,-0.23590625,-0.3723125,1.13121875,0.017394129835767953,0.02111130201535041,True
24801,43249,0,43250,4807.0,43496.0,42112.0,-0.0035989999999999998,-0.00122,-0.0035989999999999998,0.0175,-1.1025,-3.4825000000000004,0.9589062500000001,0.18525,0.140375,1.1800625,0.9334375,-0.234375,-0.372125,1.1325,0.017315280464216636,0.02102812126558517,True
24802,43250,0,43251,4809.0,43497.0,42111.0,-0.001769,0.002074,-0.0035989999999999998,0.17500000000000002,-1.0150000000000001,-3.6400000000000006,0.9871875,0.194,0.1379375,1.166,0.9430625,-0.23128125,-0.37428125,1.12703125,0.017550918814909965,0.021014722228988803,True
24803,43251,0,43252,4812.0,43497.0,42111.0,-0.001647,0.00183,-0.0026839999999999998,0.35000000000000003,-1.2075,-3.6575,0.964125,0.197,0.1418125,1.18890625,0.9463125,-0.23390625,-0.37103125000000003,1.1343750000000001,0.017781130518320795,0.021043169849449848,True
24804,43252,0,43253,4813.0,43498.0,42114.0,-0.0017079999999999999,0.002074,-0.001586,0.43750000000000006,-1.3825,-3.7975000000000003,0.97221875,0.19321875,0.13384375,1.17078125,0.9429062500000001,-0.23175,-0.3735,1.127125,0.017537682998545297,0.02081538351078015,True
24805,43253,0,43254,4814.0,43498.0,42115.0,-0.000549,0.001037,0.003477,0.525,-1.3825,-3.9550000000000005,0.9849687500000001,0.1891875,0.14190625,1.1784375,0.9500000000000001,-0.23096875,-0.3708125,1.13246875,0.017339638969242614,0.021038229644579968,True
24806,43254,0,43255,4815.0,43499.0,42117.0,0.0011589999999999999,-0.001281,0.002623,0.525,-1.2950000000000002,-3.9725000000000006,0.98409375,0.18984375,0.14150000000000001,1.18953125,0.95059375,-0.23078125,-0.3715,1.1359375,0.01735911837345319,0.021049176291980387,True
24807,43255,0,43256,4816.0,43500.0,42115.0,0.002806,-0.00061,0.001098,0.5425000000000001,-1.3650000000000002,-3.9725000000000006,0.9655,0.19496875,0.13584375,1.1749375,0.943125,-0.22540625,-0.37515625,1.12690625,0.01735265017485517,0.020963968179691157,True
24808,43256,0,43257,4819.0,43497.0,42114.0,0.002928,0.000305,-0.000915,0.28,-1.12,-4.165,0.9626250000000001,0.1913125,0.14128125,1.18003125,0.94271875,-0.23359375000000002,-0.3716875,1.1299375,0.01753376962506851,0.021047732127699403,True
24809,43257,0,43258,4817.0,43498.0,42113.0,0.00042699999999999997,-0.00042699999999999997,-0.0030499999999999998,0.35000000000000003,-0.9275000000000001,-4.235,0.9645312500000001,0.19340625,0.1380625,1.17709375,0.94484375,-0.23143750000000002,-0.3745,1.1276875,0.017532750584854904,0.02102863648485097,True
24810,43258,0,43259,4815.0,43499.0,42110.0,-0.002562,-0.00366,-0.0026839999999999998,0.17500000000000002,-0.8225000000000001,-4.165,0.97809375,0.1946875,0.13959375000000002,1.1831562500000001,0.950875,-0.2310625,-0.37165625,1.1340000000000001,0.017570422262746424,0.020977236620921075,True
24811,43259,0,43260,4811.0,43500.0,42107.0,-0.000244,-0.0006709999999999999,0.0018909999999999999,0.4025,-0.9975,-4.235,0.9701875,0.19290625,0.14003125,1.173125,0.94378125,-0.23075,-0.37521875,1.119125,0.017484240066857195,0.021138271836021984,True
24812,43260,0,43261,4809.0,43495.0,42103.0,0.0,0.000732,0.001098,0.47250000000000003,-1.1900000000000002,-4.1825,0.9702500000000001,0.19028125,0.1380625,1.17728125,0.9430625,-0.22884375,-0.37221875,1.1280000000000001,0.0172985968428642,0.020937004350496405,True
24813,43261,0,43262,4805.0,43495.0,42102.0,-0.000244,0.002806,0.000244,0.42000000000000004,-1.2075,-4.2525,0.97709375,0.1915,0.13996875,1.1836875,0.952125,-0.2315,-0.3710625,1.13496875,0.017456616387759735,0.020968771878534225,True
24814,43262,0,43263,4802.0,43494.0,42100.0,0.000366,0.003538,-0.000244,0.4025,-1.33,-4.235,0.96940625,0.196875,0.13525,1.17634375,0.94253125,-0.23043750000000002,-0.37425,1.1263125,0.017635360484101865,0.020903207278172665,True
24815,43263,0,43264,4799.0,43490.0,42100.0,0.000915,0.003111,0.002623,0.47250000000000003,-1.54,-4.0425,0.97203125,0.1915625,0.14565625000000001,1.18190625,0.9450000000000001,-0.23353125,-0.37203125,1.1334375,0.017541552059194842,0.021241048589251254,True
24816,43264,0,43265,4797.0,43490.0,42096.0,0.0021349999999999997,0.0013419999999999999,0.001098,0.49000000000000005,-1.7500000000000002,-4.130000000000001,0.970375,0.19240625,0.1414375,1.17621875,0.93421875,-0.230625,-0.37403125,1.12746875,0.017458536459542418,0.02114827640585715,True
24817,43265,0,43266,4795.0,43491.0,42098.0,-0.0006709999999999999,0.000305,0.001586,0.6475000000000001,-1.7325000000000002,-4.0600000000000005,0.9695625,0.1905625,0.139,1.18065625,0.9432812500000001,-0.23390625,-0.3723125,1.1309375,0.017515490306066524,0.020979236172193348,True
24818,43266,0,43267,4793.0,43488.0,42096.0,-0.002562,6.1e-05,0.00122,0.525,-1.6625,-4.077500000000001,0.9782500000000001,0.19265625,0.13896875,1.17165625,0.9479375,-0.2273125,-0.37409375,1.12965625,0.017334516570915573,0.02104950055835409,True
24819,43267,0,43268,4792.0,43489.0,42095.0,-0.002623,-0.000488,0.000244,0.5425000000000001,-1.6625,-4.025,0.97015625,0.1949375,0.139875,1.1755625,0.942625,-0.22828125,-0.37225,1.12653125,0.017467964220532563,0.02101262706561766,True
24820,43268,0,43269,4790.0,43489.0,42096.0,-0.0030499999999999998,-0.002379,-0.00061,0.47250000000000003,-1.8025000000000002,-3.9025000000000003,0.9771875,0.19271875,0.13775,1.1780625,0.95065625,-0.23140625,-0.37271875,1.1290625,0.01750311127733249,0.020944267860966474,True
24821,43269,0,43270,4789.0,43489.0,42097.0,0.000244,-0.0017079999999999999,-0.000183,0.43750000000000006,-2.0475000000000003,-3.9375000000000004,0.97040625,0.19015625,0.140125,1.17703125,0.94178125,-0.23353125,-0.371375,1.12859375,0.017483522959535664,0.020987736637756386,True
24822,43270,0,43271,4790.0,43488.0,42096.0,0.0021349999999999997,-0.002013,-0.0006709999999999999,0.47250000000000003,-2.2750000000000004,-4.025,0.979,0.19275,0.13971875,1.1838125,0.9446875,-0.23168750000000002,-0.371625,1.13375,0.017515804460584927,0.02098111020500274,True
24823,43271,0,43272,4790.0,43486.0,42098.0,0.004392,-0.001586,-0.000793,0.35000000000000003,-2.45,-3.8850000000000002,0.973,0.19290625,0.139625,1.182125,0.9429062500000001,-0.23121875,-0.37040625,1.13321875,0.017503246715561922,0.020928303154568874,True
24824,43272,0,43273,4790.0,43487.0,42097.0,0.0042699999999999995,-0.000122,-0.0032329999999999998,0.22750000000000004,-2.5375,-3.8675,0.9713437500000001,0.1928125,0.13775,1.18275,0.94325,-0.23125,-0.37484375000000003,1.1309375,0.017500644828475628,0.021029621984756316,True
24825,43273,0,43274,4790.0,43487.0,42098.0,0.002379,0.001586,-0.0035989999999999998,0.21000000000000002,-2.415,-3.8850000000000002,0.9710625,0.19190625,0.13721875,1.1765625,0.94253125,-0.23278125,-0.37575000000000003,1.1281875000000001,0.01752533048595072,0.021044224280278554,True
24826,43274,0,43275,4790.0,43489.0,42099.0,0.0011589999999999999,0.00042699999999999997,-0.00183,0.21000000000000002,-1.8900000000000001,-3.6925000000000003,0.96996875,0.1914375,0.13734375000000001,1.1771875,0.9426875,-0.23221875,-0.37259375,1.1271875,0.01748318032165338,0.02092257825452,True
24827,43275,0,43276,4790.0,43488.0,42099.0,0.000732,-0.0013419999999999999,0.001647,0.35000000000000003,-1.54,-3.6750000000000003,0.96978125,0.19137500000000002,0.1394375,1.1770625000000001,0.942625,-0.2313125,-0.37184375000000003,1.12796875,0.01744385492944305,0.020978357453978014,True
24828,43276,0,43277,4792.0,43489.0,42100.0,-0.0006709999999999999,-0.000122,0.00183,0.385,-1.3125000000000002,-3.7800000000000002,0.9722500000000001,0.19103125,0.1399375,1.17940625,0.9425,-0.2321875,-0.372875,1.1275,0.017465148369291878,0.02104029582066129,True
24829,43277,0,43278,4791.0,43488.0,42102.0,-0.002989,-0.000732,0.0011589999999999999,0.42000000000000004,-1.1375000000000002,-3.7800000000000002,0.97390625,0.1930625,0.138625,1.179375,0.95059375,-0.23059375000000001,-0.37328125,1.13309375,0.01748435281326938,0.021002763015340823,True
24830,43278,0,43279,4795.0,43490.0,42100.0,-0.0042699999999999995,-0.0006709999999999999,0.002379,0.385,-0.9975,-3.5875000000000004,0.9710625,0.191,0.13740625,1.1774375,0.94371875,-0.229625,-0.36740625,1.122125,0.017359946759390624,0.020716710462361995,True
24831,43279,0,43280,4795.0,43489.0,42104.0,-0.0040869999999999995,0.00042699999999999997,0.0,0.385,-1.3125000000000002,-3.6750000000000003,0.9697187500000001,0.1943125,0.13978125,1.1768125,0.9425,-0.23640625,-0.37403125,1.1240937500000001,0.017771560088451644,0.021080324987275134,True
24832,43280,0,43281,4797.0,43488.0,42105.0,-0.0021349999999999997,0.00122,-0.0011589999999999999,0.36750000000000005,-1.4000000000000001,-3.6750000000000003,0.977125,0.1931875,0.14271875,1.183875,0.95084375,-0.23815625,-0.3705,1.133375,0.01779606276776931,0.021059016023471003,True
24833,43281,0,43282,4797.0,43489.0,42106.0,0.001281,0.000915,0.000122,0.3325,-1.5925000000000002,-3.6575,0.9705,0.19903125,0.13465625,1.17625,0.9519375,-0.23053125,-0.374875,1.1293125,0.017728150306238127,0.020903953353606942,True
24834,43282,0,43283,4797.0,43492.0,42107.0,0.0025009999999999998,0.0,-0.000122,0.45500000000000007,-1.715,-3.6575,0.9702500000000001,0.19165625,0.13559375,1.172625,0.93178125,-0.23234375000000002,-0.37459375,1.124,0.017497275722658898,0.020931118082737277,True
24835,43283,0,43284,4799.0,43489.0,42108.0,0.002806,0.001952,-0.00042699999999999997,0.385,-1.8550000000000002,-4.0075,0.98478125,0.1875,0.14265625,1.167125,0.956375,-0.2324375,-0.36959375,1.12596875,0.017329560841743634,0.02102004675395953,True
24836,43284,0,43285,4799.0,43490.0,42107.0,0.002928,0.0,0.001464,0.385,-1.6625,-3.7975000000000003,0.992,0.19371875,0.14484375,1.199375,0.95446875,-0.22946875,-0.3736875,1.1326875,0.01746581835394142,0.02127422245813236,True
24837,43285,0,43286,4800.0,43489.0,42108.0,0.0035989999999999998,-0.002074,0.00061,0.35000000000000003,-1.7325000000000002,-3.8325000000000005,0.96296875,0.19690625,0.12909375,1.16640625,0.938125,-0.23490625,-0.3775625,1.11915625,0.017817791228303185,0.020783712481508357,True
24838,43286,0,43287,4801.0,43489.0,42106.0,0.001403,0.000488,-0.0013419999999999999,0.24500000000000002,-1.6450000000000002,-3.7275000000000005,0.9659375,0.18721875000000002,0.13946875,1.1655,0.95025,-0.23850000000000002,-0.3703125,1.123625,0.017563741568166348,0.02091812528050266,True
24839,43287,0,43288,4800.0,43489.0,42105.0,0.0,0.002074,-0.000549,0.29750000000000004,-1.3825,-3.5875000000000004,0.99440625,0.1950625,0.136875,1.18553125,0.9509062500000001,-0.23009375,-0.3718125,1.12509375,0.017546620099230942,0.020871960179408074,True
24840,43288,0,43289,4801.0,43488.0,42109.0,-0.0059169999999999995,-0.001464,0.0025009999999999998,0.36750000000000005,-0.9100000000000001,-3.5175000000000005,0.95134375,0.19618750000000001,0.136625,1.19940625,0.9380937500000001,-0.23193750000000002,-0.377625,1.12875,0.017667798953344114,0.021095164110531688,True
24841,43289,0,43290,4800.0,43491.0,42107.0,-0.0068319999999999995,-0.001647,0.000732,0.29750000000000004,-0.9975,-3.5525,0.9679375,0.19453125000000002,0.1443125,1.185125,0.93153125,-0.22968750000000002,-0.37143750000000003,1.133375,0.01750822209324821,0.02116206727649939,True
24842,43290,0,43291,4799.0,43490.0,42108.0,-0.0053679999999999995,0.000915,0.000122,0.29750000000000004,-1.155,-3.5175000000000005,0.98778125,0.1875,0.14425,1.1665625,0.94846875,-0.2278125,-0.3703125,1.13134375,0.017141972681190262,0.021114316855805604,True
24843,43291,0,43292,4801.0,43488.0,42109.0,-0.0034159999999999998,0.001281,-0.001037,0.385,-1.3650000000000002,-3.6575,0.97571875,0.1836875,0.13071875,1.1685,0.946875,-0.234875,-0.37203125,1.127375,0.017271081447707077,0.02062815342894327,True
24844,43292,0,43293,4801.0,43488.0,42109.0,-0.00042699999999999997,0.000793,0.00061,0.43750000000000006,-1.6800000000000002,-3.8850000000000002,0.9577187500000001,0.1861875,0.12787500000000002,1.1729687500000001,0.93953125,-0.2335,-0.3725,1.1240625,0.01731848474219572,0.020530310801107808,True
24845,43293,0,43294,4800.0,43489.0,42111.0,0.003904,0.00042699999999999997,0.00042699999999999997,0.36750000000000005,-2.1350000000000002,-3.9550000000000005,0.9617187500000001,0.18912500000000002,0.14228125,1.169875,0.94221875,-0.23378125,-0.37178125,1.131875,0.017451104540278872,0.021092528885224584,True
24846,43294,0,43295,4800.0,43489.0,42112.0,0.0051849999999999995,-0.000183,0.000305,0.29750000000000004,-2.31,-4.1475,0.9705,0.1918125,0.13459375,1.17359375,0.9470000000000001,-0.231,-0.3750625,1.12253125,0.017449238578680203,0.020908920746357064,True
24847,43295,0,43296,4802.0,43489.0,42108.0,0.0046359999999999995,-0.000732,6.1e-05,0.28,-2.3625000000000003,-4.1475,0.96809375,0.1920625,0.13915625,1.1771562500000001,0.94303125,-0.2349375,-0.3725625,1.12009375,0.017619191301813754,0.020995689312520997,True
24848,43296,0,43297,4803.0,43490.0,42113.0,0.004575,-0.000183,0.000305,0.2625,-2.2925000000000004,-4.0075,0.9741875,0.200375,0.14021875,1.1830625000000001,0.94940625,-0.23121875,-0.3718125,1.13521875,0.017811475124419815,0.021009157607789732,True
24849,43297,0,43298,4804.0,43490.0,42113.0,0.001769,-0.000366,-0.001403,0.21000000000000002,-1.995,-3.9375000000000004,0.97003125,0.19321875,0.13653125,1.17615625,0.943875,-0.2310625,-0.37275,1.1316875,0.017509807917007354,0.020895518560687654,True
24850,43298,0,43299,4804.0,43490.0,42115.0,-0.003477,-0.000732,-0.0017079999999999999,0.21000000000000002,-1.9600000000000002,-3.6925000000000003,0.9702500000000001,0.1925,0.13996875,1.1792500000000001,0.9426875,-0.23321875,-0.37140625,1.12771875,0.017567569310205648,0.020982580765112807,True
24851,43299,0,43300,4805.0,43492.0,42113.0,-0.003721,-0.0015249999999999999,-0.001281,0.2625,-1.9425000000000001,-3.6050000000000004,0.977875,0.19290625,0.14015625,1.18303125,0.9497187500000001,-0.23215625,-0.3718125,1.135,0.017541257806968788,0.021006593169876058,True
24852,43300,0,43301,4805.0,43493.0,42114.0,-0.0011589999999999999,-0.001403,0.000244,0.17500000000000002,-2.0475000000000003,-3.7625,0.97040625,0.1925,0.13634375,1.1771562500000001,0.9390937500000001,-0.230875,-0.37484375000000003,1.127375,0.01747254277858311,0.02097192930723915,True
24853,43301,0,43302,4808.0,43492.0,42114.0,-0.000305,-0.001098,0.0,0.35000000000000003,-2.1,-3.8500000000000005,0.97565625,0.1921875,0.13925,1.17328125,0.9496875,-0.2341875,-0.3720625,1.1331875,0.01759394656825198,0.020979451369780463,True
24854,43302,0,43303,4808.0,43492.0,42115.0,0.002013,-0.000183,0.000122,0.35000000000000003,-2.1875,-3.6575,0.97040625,0.1900625,0.13946875,1.17059375,0.9425625,-0.2339375,-0.37209375,1.1270625,0.01749612501063849,0.02098968210312255,True
24855,43303,0,43304,4810.0,43494.0,42119.0,0.002989,0.002379,-0.000244,0.36750000000000005,-2.0825,-3.7450000000000006,0.973125,0.192375,0.13859375000000002,1.17784375,0.9473125,-0.230875,-0.373875,1.12759375,0.017467384070942546,0.021025329374176244,True
24856,43304,0,43305,4811.0,43494.0,42117.0,0.001403,0.0,0.0021349999999999997,0.29750000000000004,-1.8900000000000001,-3.6925000000000003,0.97775,0.198625,0.13696875,1.17540625,0.95184375,-0.23043750000000002,-0.37359375,1.13203125,0.017707583695094238,0.02094736234782776,True
24857,43305,0,43306,4811.0,43493.0,42117.0,0.00042699999999999997,-0.000793,0.0023179999999999997,0.2625,-1.8550000000000002,-3.535,0.97028125,0.18978125,0.13978125,1.17721875,0.9428125,-0.23396875,-0.372625,1.127125,0.017485786351028453,0.021023843348839118,True
24858,43306,0,43307,4812.0,43494.0,42119.0,-0.001037,-0.000976,0.000488,0.17500000000000002,-1.8200000000000003,-3.43,0.966125,0.1925625,0.13853125,1.18265625,0.94859375,-0.23121875,-0.371625,1.1321875000000001,0.017489060470802772,0.020932385509788532,True
24859,43307,0,43308,4813.0,43493.0,42119.0,-0.000793,0.000122,-0.0037819999999999998,0.1925,-1.6275000000000002,-3.5175000000000005,0.96996875,0.19115625,0.13934375000000002,1.1772500000000001,0.9425,-0.2293125,-0.366375,1.12859375,0.01735372186065948,0.020754779896476186,True
24860,43308,0,43309,4815.0,43495.0,42121.0,-0.001464,0.0017079999999999999,-0.00244,0.42000000000000004,-1.4000000000000001,-3.5175000000000005,0.975375,0.19215625,0.1400625,1.1836875,0.94953125,-0.22984375,-0.372125,1.13434375,0.01741653823087489,0.02101529924042323,True
24861,43309,0,43310,4815.0,43495.0,42121.0,-0.003843,0.000793,0.00122,0.47250000000000003,-1.155,-3.5700000000000003,0.9706875,0.19128125,0.13871875,1.1733437500000001,0.94240625,-0.23075,-0.37396875,1.12784375,0.01741717652156867,0.02103422324277822,True
24862,43310,0,43311,4818.0,43496.0,42124.0,-0.004758,-0.001037,0.004941,0.45500000000000007,-0.9975,-3.6400000000000006,0.97765625,0.19012500000000002,0.1389375,1.1774375,0.94340625,-0.2325,-0.3730625,1.1284375,0.017440420922315073,0.021006797976249394,True
24863,43311,0,43312,4817.0,43496.0,42126.0,-0.0032329999999999998,-0.002013,0.005429,0.43750000000000006,-1.155,-3.7450000000000006,0.96815625,0.19175,0.14009375,1.1848125,0.94534375,-0.23253125,-0.37178125,1.12890625,0.017508746635785315,0.0210027734431598,True
24864,43312,0,43313,4820.0,43496.0,42126.0,-0.002379,0.0,0.00244,0.21000000000000002,-1.4700000000000002,-3.6925000000000003,0.9699375,0.1905625,0.1390625,1.17615625,0.94259375,-0.23071875,-0.373875,1.1274375,0.01738624653880727,0.021044561031021945,True
24865,43313,0,43314,4822.0,43496.0,42124.0,0.004514,0.0013419999999999999,-0.0046359999999999995,0.14,-2.2750000000000004,-3.6750000000000003,0.97709375,0.19190625,0.14296875,1.1828750000000001,0.94578125,-0.23234375000000002,-0.37265625,1.1321875000000001,0.01750759251258971,0.0211558803731128,True
24866,43314,0,43315,4821.0,43496.0,42129.0,0.006771,0.000549,-0.003538,0.10500000000000001,-2.5200000000000005,-3.7625,0.97040625,0.19146875,0.13975,1.17596875,0.94115625,-0.2315,-0.37425,1.1282812500000001,0.017455326744114066,0.02108782834343621,True
24867,43315,0,43316,4826.0,43494.0,42128.0,0.00671,0.002074,-0.003294,0.22750000000000004,-2.5200000000000005,-3.8150000000000004,0.97446875,0.19284375,0.13771875,1.17684375,0.94659375,-0.23115625,-0.37103125000000003,1.1329375,0.017498133214340527,0.020875193781551612,True
24868,43316,0,43317,4823.0,43496.0,42129.0,0.004514,0.0017079999999999999,0.000793,0.47250000000000003,-2.31,-3.6575,0.96959375,0.1903125,0.13884375000000002,1.177125,0.94246875,-0.233375,-0.3769375,1.122,0.017483635688384305,0.021158574574841486,True
24869,43317,0,43318,4825.0,43493.0,42128.0,0.002257,0.000488,0.00061,0.49000000000000005,-1.9075000000000002,-3.6400000000000006,0.977875,0.19178125000000001,0.14003125,1.18159375,0.94503125,-0.2400625,-0.37128125,1.1245,0.01781529028648338,0.02098012389069615,True
24870,43318,0,43319,4825.0,43496.0,42130.0,-0.006344,-0.0008539999999999999,0.0013419999999999999,0.5425000000000001,-1.4175000000000002,-3.5175000000000005,0.9675625,0.1930625,0.1398125,1.18175,0.95525,-0.23240625,-0.36943750000000003,1.1345625,0.01755784157836162,0.020897076512332302,True
24871,43319,0,43320,4829.0,43496.0,42131.0,-0.0059169999999999995,-0.003477,0.0013419999999999999,0.49000000000000005,-1.5050000000000001,-3.3775000000000004,0.970375,0.19003125,0.139125,1.177125,0.952125,-0.22918750000000002,-0.3769375,1.1228125,0.017302220720360518,0.02117011211929308,True
24872,43320,0,43321,4829.0,43497.0,42131.0,-0.0026839999999999998,-0.004514,0.00122,0.42000000000000004,-1.6450000000000002,-3.4475000000000002,0.9763437500000001,0.1925625,0.1396875,1.18390625,0.93375,-0.2361875,-0.36978125,1.121,0.017690488654620286,0.02090575802768029,True
24873,43321,0,43322,4827.0,43495.0,42127.0,-0.000305,-0.003111,-0.001403,0.3325,-1.8375000000000001,-3.6050000000000004,0.97,0.19409375,0.1370625,1.17721875,0.95803125,-0.22903125,-0.3750625,1.14059375,0.0174635541815152,0.021010202537942214,True
24874,43322,0,43323,4826.0,43493.0,42122.0,0.001403,-0.0011589999999999999,-0.0028669999999999998,0.31500000000000006,-1.8900000000000001,-3.6575,0.9699375,0.1919375,0.142375,1.1815,0.93525,-0.2246875,-0.37446875,1.14225,0.017198364271984932,0.021204308299027034,True
24875,43323,0,43324,4823.0,43492.0,42120.0,0.001098,0.000183,-0.00183,0.4025,-2.0475000000000003,-3.7975000000000003,0.971125,0.19290625,0.139375,1.1783125,0.96125,-0.2295625,-0.36712500000000003,1.14428125,0.0174360865987572,0.020786202721905025,True
24876,43324,0,43325,4820.0,43492.0,42120.0,-0.000122,0.0023179999999999997,-6.1e-05,0.525,-1.8550000000000002,-3.8500000000000005,0.97065625,0.19040625,0.14128125,1.1769375,0.9379375,-0.2285625,-0.37559375,1.1225,0.01729234864841858,0.021204611682535936,True
24877,43325,0,43326,4816.0,43488.0,42115.0,0.000122,0.0021349999999999997,0.002745,0.525,-1.9075000000000002,-4.0075,0.97821875,0.18909375,0.1393125,1.18034375,0.9346875,-0.23950000000000002,-0.37390625,1.12290625,0.01768162503351967,0.021056073028917967,True
24878,43326,0,43327,4811.0,43489.0,42112.0,0.002196,0.001098,0.004575,0.5775,-2.0475000000000003,-3.7975000000000003,0.9754375000000001,0.19203125000000001,0.13953125,1.17753125,0.9511875000000001,-0.239625,-0.37034375,1.11478125,0.017807876565747203,0.020921945345969938,True
24879,43327,0,43328,4808.0,43486.0,42108.0,0.002074,0.000732,0.0021349999999999997,0.56,-2.1700000000000004,-3.9025000000000003,0.9745312500000001,0.18953125,0.13925,1.1765,0.93653125,-0.233,-0.37543750000000004,1.126875,0.017436192382288614,0.021115005628104113,True
24880,43328,0,43329,4805.0,43487.0,42106.0,0.0018909999999999999,0.000244,0.000915,0.49000000000000005,-1.9775000000000003,-3.7450000000000006,0.95775,0.1909375,0.13825,1.177,0.936,-0.233125,-0.37328125,1.12425,0.01749929074355866,0.020987377315067085,True
24881,43329,0,43330,4802.0,43486.0,42104.0,-6.1e-05,0.000732,0.000976,0.43750000000000006,-1.9425000000000001,-3.6225000000000005,0.9585625,0.19059375,0.13815625,1.17625,0.939875,-0.2326875,-0.372875,1.127875,0.017467367166765963,0.020967212526220236,True
24882,43330,0,43331,4799.0,43483.0,42106.0,-0.001952,-0.000305,-0.002806,0.28,-1.995,-3.5875000000000004,0.96228125,0.19021875,0.13753125,1.17603125,0.94225,-0.23168750000000002,-0.37493750000000003,1.1289375,0.017411344133585416,0.021024412883109956,True
24883,43331,0,43332,4799.0,43485.0,42103.0,-0.0037819999999999998,0.00122,-0.002989,0.42000000000000004,-1.8375000000000001,-3.6050000000000004,0.97040625,0.193125,0.139,1.17690625,0.942875,-0.23093750000000002,-0.37428125,1.13396875,0.017500870529668942,0.021058313257955045,True
24884,43332,0,43333,4796.0,43485.0,42104.0,-0.0030499999999999998,0.000183,0.000732,0.4025,-1.7500000000000002,-3.5525,0.9699375,0.1923125,0.13665625,1.17609375,0.94240625,-0.229875,-0.37253125,1.12740625,0.01742425414906185,0.020891859560134937,True
24885,43333,0,43334,4795.0,43483.0,42104.0,-0.001281,-0.00042699999999999997,0.000976,0.43750000000000006,-1.9075000000000002,-3.7800000000000002,0.97028125,0.18971875,0.13996875,1.1772500000000001,0.94365625,-0.2325625,-0.37428125,1.12740625,0.017426190482331367,0.021098058019659555,True
24886,43334,0,43335,4794.0,43484.0,42104.0,0.002074,-0.00042699999999999997,0.002074,0.3325,-2.1875,-3.8150000000000004,0.97340625,0.18940625,0.1400625,1.18146875,0.94278125,-0.2318125,-0.37243750000000003,1.12709375,0.01738288252271678,0.02102785164594227,True
24887,43335,0,43336,4795.0,43484.0,42105.0,0.002562,0.00042699999999999997,-0.00183,0.14,-2.45,-3.8675,0.9658125000000001,0.1926875,0.1404375,1.18128125,0.94934375,-0.23084375000000001,-0.37134375000000003,1.13396875,0.0174790137054142,0.020999303741715106,True
24888,43336,0,43337,4796.0,43482.0,42107.0,0.0040869999999999995,-0.00183,-0.002806,0.07,-2.6425,-3.9550000000000005,0.96959375,0.193625,0.1373125,1.17953125,0.9425625,-0.23009375,-0.37243750000000003,1.133375,0.017487293048546293,0.020915019271256722,True
24889,43337,0,43338,4795.0,43484.0,42104.0,0.002745,0.000244,-0.003904,0.052500000000000005,-2.4325,-4.0075,0.97075,0.18987500000000002,0.13721875,1.17746875,0.94278125,-0.22968750000000002,-0.37059375,1.1275,0.017316050815760625,0.020837100039879004,True
24890,43338,0,43339,4795.0,43483.0,42107.0,-0.001464,0.001098,-0.002257,0.21000000000000002,-1.4875,-3.6400000000000006,0.97065625,0.18984375,0.14240625,1.17740625,0.9426875,-0.2335,-0.37515625,1.1282812500000001,0.017469360595869357,0.021233197223094726,True
24891,43339,0,43340,4795.0,43483.0,42107.0,-0.003538,-0.001769,0.00183,0.4025,-1.12,-3.5175000000000005,0.9810625000000001,0.19171875,0.139375,1.1700625,0.946875,-0.2345625,-0.36946875,1.12696875,0.017589805881579254,0.020880379265551287,True
24892,43340,0,43341,4797.0,43484.0,42111.0,-0.003721,-0.002562,0.003721,0.29750000000000004,-1.12,-3.535,0.97703125,0.193,0.1408125,1.17378125,0.9509375,-0.23109375000000001,-0.37159375,1.128125,0.01750204734361197,0.021024732943449788,True
24893,43341,0,43342,4798.0,43486.0,42111.0,-0.003477,-0.0011589999999999999,0.0017079999999999999,0.31500000000000006,-1.3125000000000002,-3.5875000000000004,0.966125,0.18728125,0.1444375,1.179375,0.94459375,-0.2340625,-0.37196875,1.1271875,0.01738642664637842,0.021188532420057363,True
24894,43342,0,43343,4798.0,43483.0,42111.0,-0.0008539999999999999,0.002196,-0.0006709999999999999,0.45500000000000007,-1.5575,-3.8325000000000005,0.98428125,0.19365625,0.141375,1.1871562500000001,0.9520000000000001,-0.2260625,-0.37175,1.12734375,0.017325091520753733,0.021054089263183813,True
24895,43343,0,43344,4799.0,43483.0,42114.0,0.0018909999999999999,0.0021349999999999997,-0.00122,0.4025,-1.7850000000000001,-3.8850000000000002,0.97559375,0.19428125000000002,0.14234375,1.1883125,0.94671875,-0.2315,-0.37134375000000003,1.13384375,0.01757139467222417,0.021077520602449343,True
24896,43344,0,43345,4799.0,43486.0,42112.0,0.002806,0.0017079999999999999,-0.000183,0.36750000000000005,-1.7325000000000002,-3.9200000000000004,0.9656875,0.1948125,0.13325,1.17259375,0.94303125,-0.23071875,-0.3681875,1.12796875,0.017561643729614912,0.020577546032096147,True
24897,43345,0,43346,4800.0,43486.0,42111.0,0.0028669999999999998,-0.000488,6.1e-05,0.36750000000000005,-1.7325000000000002,-3.8500000000000005,0.97371875,0.18812500000000001,0.14240625,1.16965625,0.936625,-0.23240625,-0.37178125,1.12759375,0.01735408550275522,0.02109765776762829,True
24898,43346,0,43347,4801.0,43484.0,42113.0,0.0037819999999999998,-0.00061,0.000915,0.36750000000000005,-1.8900000000000001,-3.7975000000000003,0.9853125,0.19403125000000002,0.137375,1.1741875,0.9479062500000001,-0.23059375000000001,-0.37159375,1.13309375,0.017524333261540487,0.020883687592240453,True
24899,43347,0,43348,4803.0,43483.0,42110.0,-0.000122,0.0,0.00061,0.35000000000000003,-1.3125000000000002,-3.7975000000000003,0.96596875,0.1891875,0.13271875,1.17353125,0.94271875,-0.2320625,-0.3726875,1.12778125,0.017383992798797047,0.020736582701435777,True
24900,43348,0,43349,4803.0,43482.0,42112.0,-0.0018909999999999999,-0.001586,0.002745,0.28,-1.05,-3.5175000000000005,0.96584375,0.19490625,0.14003125,1.173875,0.93515625,-0.23053125,-0.37293750000000003,1.127625,0.017557910539002318,0.02104665266548195,True
24901,43349,0,43350,4801.0,43483.0,42111.0,-0.0025009999999999998,-0.002074,0.00042699999999999997,0.14,-1.0325000000000002,-3.43,0.9715625,0.19253125000000001,0.14190625,1.1853125,0.946625,-0.22990625,-0.37159375,1.13140625,0.01743454950429286,0.021069611009743673,True
24902,43350,0,43351,4801.0,43482.0,42113.0,-0.0042699999999999995,0.000366,-0.004209,0.1925,-1.05,-3.6225000000000005,0.9660625,0.1911875,0.14046875,1.1755625,0.9426875,-0.232375,-0.37221875,1.12690625,0.0174791987991272,0.021035733564470818,True
24903,43351,0,43352,4802.0,43485.0,42113.0,-0.002257,0.0011589999999999999,-0.002257,0.22750000000000004,-1.1375000000000002,-3.7275000000000005,0.97709375,0.1935,0.13953125,1.1770625000000001,0.9463125,-0.23043750000000002,-0.372,1.12790625,0.01749607286290229,0.020988480633513867,True
24904,43352,0,43353,4800.0,43484.0,42110.0,-0.00061,-0.0018909999999999999,0.002013,0.14,-1.1900000000000002,-3.7975000000000003,0.9705,0.1904375,0.14675,1.1831562500000001,0.943875,-0.23153125,-0.37209375,1.12775,0.017414035689552222,0.021288435672458382,True
24905,43353,0,43354,4800.0,43483.0,42111.0,-0.00061,0.000549,0.000183,0.28,-1.3125000000000002,-3.8325000000000005,0.9695625,0.1928125,0.13593750000000002,1.17659375,0.94846875,-0.23025,-0.37215625,1.1278125,0.017460096367144375,0.020847303980336167,True
24906,43354,0,43355,4801.0,43482.0,42112.0,-0.0006709999999999999,0.00244,0.0013419999999999999,0.24500000000000002,-1.3475000000000001,-3.7800000000000002,0.9766875,0.19271875,0.13709375000000001,1.17603125,0.94540625,-0.232875,-0.37115625,1.14225,0.01756266022913088,0.020854570656654838,True
24907,43355,0,43356,4800.0,43483.0,42112.0,0.0013419999999999999,0.001647,0.00183,0.2625,-1.435,-3.9550000000000005,0.9722500000000001,0.19087500000000002,0.14003125,1.18359375,0.93878125,-0.23265625,-0.37396875,1.1210625,0.01747770634925752,0.02108807167482727,True
24908,43356,0,43357,4801.0,43484.0,42113.0,0.001769,-0.000305,0.000915,0.385,-1.61,-3.8675,0.97040625,0.19409375,0.13696875,1.17875,0.9595625,-0.22871875,-0.36725,1.1488125,0.017450881508127625,0.020692476582297965,True
24909,43357,0,43358,4800.0,43483.0,42112.0,0.002257,0.000183,0.000305,0.21000000000000002,-1.5050000000000001,-3.9200000000000004,0.96978125,0.19140625,0.13909375000000002,1.1768125,0.943125,-0.2254375,-0.3773125,1.11990625,0.017206861589186984,0.02118388768245064,True
24910,43358,0,43359,4799.0,43482.0,42113.0,0.00183,-0.0011589999999999999,0.000244,0.21000000000000002,-1.5750000000000002,-3.9200000000000004,0.97240625,0.1938125,0.13915625,1.18334375,0.94865625,-0.24278125,-0.36878125,1.1164687500000001,0.018009226973493397,0.02084377937448144,True
24911,43359,0,43360,4800.0,43485.0,42114.0,0.000488,-0.002257,-0.0037819999999999998,0.08750000000000001,-1.6625,-3.7975000000000003,0.97809375,0.19328125000000002,0.14025,1.18209375,0.9597187500000001,-0.23921875,-0.36821875,1.11775,0.01784298431648091,0.02086606145555879,True
24912,43360,0,43361,4801.0,43485.0,42112.0,-0.000549,0.00042699999999999997,-0.0037819999999999998,0.1925,-1.4525000000000001,-3.7450000000000006,0.9695312500000001,0.19775,0.1374375,1.1770625000000001,0.96625,-0.22884375,-0.36578125,1.14846875,0.01760685546539958,0.020652682745397298,True
24913,43361,0,43362,4801.0,43485.0,42115.0,-0.000244,-6.1e-05,-0.0006709999999999999,0.21000000000000002,-1.155,-3.7275000000000005,0.97003125,0.18953125,0.1401875,1.1774375,0.93278125,-0.22415625,-0.38359375,1.118,0.0170774781887398,0.021480888148409216,True
24914,43362,0,43363,4802.0,43482.0,42116.0,0.000305,0.0011589999999999999,-0.000366,0.35000000000000003,-1.2950000000000002,-3.7975000000000003,0.97565625,0.19284375,0.139625,1.1821875,0.947375,-0.244875,-0.36765625,1.11834375,0.018054073283528996,0.020817810494187353,True
24915,43363,0,43364,4803.0,43483.0,42112.0,-0.00122,0.000183,-0.001464,0.49000000000000005,-1.3475000000000001,-3.7800000000000002,0.97828125,0.19565625,0.14009375,1.18328125,0.96078125,-0.23565625,-0.3656875,1.1459062500000001,0.017796609076760606,0.020757930593996166,True
24916,43364,0,43365,4804.0,43483.0,42118.0,-0.002989,6.1e-05,0.0030499999999999998,0.45500000000000007,-1.225,-3.7450000000000006,0.96978125,0.19643750000000001,0.13834375000000002,1.177,0.9430625,-0.22384375,-0.37571875,1.11825,0.017349899311499647,0.021089121731025878,True
24917,43365,0,43366,4805.0,43487.0,42119.0,-0.002257,-0.00244,0.004209,0.4025,-1.33,-3.7450000000000006,0.9756250000000001,0.19359375,0.1374375,1.173875,0.95234375,-0.23425,-0.365375,1.143875,0.017654507566770172,0.02063635384228644,True
24918,43366,0,43367,4805.0,43484.0,42119.0,-0.0006709999999999999,-0.0017079999999999999,0.001281,0.43750000000000006,-1.6800000000000002,-3.7275000000000005,0.9722500000000001,0.18984375,0.13984375000000002,1.18178125,0.92853125,-0.23078125,-0.3685625,1.1274375,0.01735911837345319,0.020863202332923825,True
24919,43367,0,43368,4806.0,43486.0,42118.0,0.0028669999999999998,0.001952,0.0,0.45500000000000007,-1.7675,-3.8675,0.9695,0.19165625,0.14540625000000001,1.1765625,0.9393750000000001,-0.22996875,-0.36975,1.1203125,0.017400971678925504,0.021139168436278583,True
24920,43368,0,43369,4809.0,43486.0,42120.0,0.001037,0.0008539999999999999,-0.000549,0.35000000000000003,-1.6800000000000002,-3.7275000000000005,0.97559375,0.193625,0.1375,1.17684375,0.94953125,-0.22809375,-0.37375,1.120875,0.017406187806252815,0.020975434637673724,True
24921,43369,0,43370,4809.0,43484.0,42121.0,-0.00061,-0.000488,-0.00042699999999999997,0.22750000000000004,-1.5925000000000002,-3.7625,0.9708125,0.1909375,0.13996875,1.1772500000000001,0.9424375,-0.23296875,-0.3720625,1.12965625,0.017492955748560524,0.021008942103279117,True
24922,43370,0,43371,4811.0,43484.0,42119.0,0.001281,-0.000244,-0.0017079999999999999,0.31500000000000006,-1.6975000000000002,-3.6750000000000003,0.9770625000000001,0.1950625,0.1430625,1.17709375,0.9513125,-0.23040625,-0.37028125,1.128125,0.01755929081874143,0.021064334249322622,True
24923,43371,0,43372,4810.0,43483.0,42122.0,0.002745,0.001037,-0.001037,0.28,-1.6800000000000002,-3.7450000000000006,0.974875,0.194,0.1395625,1.17740625,0.95175,-0.23118750000000002,-0.36528125,1.12996875,0.017547117738245393,0.02071979981761959,True
24924,43372,0,43373,4812.0,43486.0,42122.0,-0.001037,0.00183,0.002806,0.29750000000000004,-1.155,-3.9200000000000004,0.97015625,0.1925,0.13696875,1.17721875,0.94940625,-0.233,-0.36821875,1.1284375,0.017558700944992366,0.020731408609831196,True
24925,43373,0,43374,4813.0,43488.0,42122.0,-0.003538,-0.001037,0.001647,0.1925,-1.0325000000000002,-3.7975000000000003,0.97090625,0.19309375,0.1405625,1.1775,0.9426875,-0.23134375000000001,-0.37396875,1.127625,0.017516052942792328,0.021109867468751882,True
24926,43374,0,43375,4813.0,43487.0,42124.0,-0.004941,-0.001586,0.000488,0.28,-1.2425000000000002,-3.9200000000000004,0.976875,0.193125,0.14171875,1.1807812500000001,0.95140625,-0.23028125,-0.37215625,1.13528125,0.017474260642352222,0.021084511141684484,True
24927,43375,0,43376,4817.0,43486.0,42128.0,-0.005063,-0.001037,-0.001647,0.3325,-1.5050000000000001,-3.9025000000000003,0.9699375,0.1933125,0.1370625,1.17765625,0.9430625,-0.23015625,-0.373375,1.12715625,0.017476930219960923,0.02094242180247914,True
24928,43376,0,43377,4819.0,43487.0,42127.0,-0.001952,-0.0013419999999999999,-0.001281,0.24500000000000002,-1.6975000000000002,-3.8500000000000005,0.970125,0.18887500000000002,0.139875,1.1668125,0.945375,-0.2335,-0.36784375,1.13371875,0.0174293849423319,0.020835604299210924,True
24929,43377,0,43378,4820.0,43488.0,42130.0,0.0071979999999999995,-6.1e-05,-0.00122,0.14,-2.205,-4.095000000000001,0.99109375,0.19365625,0.14609375,1.1955625,0.95084375,-0.23071875,-0.37190625,1.1323125,0.017513925376233423,0.021253979671778857,True
24930,43378,0,43379,4820.0,43488.0,42128.0,0.006527,0.002379,-0.001403,0.15750000000000003,-2.2225,-4.0425,0.963,0.19593750000000001,0.1321875,1.1594375000000001,0.9412812500000001,-0.23325,-0.372375,1.1280000000000001,0.01771068676302188,0.02070222947086609,True
24931,43379,0,43380,4821.0,43488.0,42129.0,0.002989,0.003477,-0.00061,0.42000000000000004,-1.8900000000000001,-3.99,0.9694375000000001,0.18696875000000002,0.14034375,1.171,0.94953125,-0.2300625,-0.37128125,1.13421875,0.01721131548876525,0.020992946359765143,True
24932,43380,0,43381,4821.0,43487.0,42130.0,0.0,0.0025009999999999998,0.002379,0.5075000000000001,-1.4875,-3.8850000000000002,0.975375,0.18825,0.13234375,1.17615625,0.949375,-0.2320625,-0.371875,1.1283125,0.01734530438752376,0.020688549814078732,True
24933,43381,0,43382,4823.0,43488.0,42134.0,-0.00244,0.0006709999999999999,0.002196,0.42000000000000004,-1.4525000000000001,-3.8325000000000005,0.96384375,0.19559375,0.14259375,1.1929375,0.94296875,-0.2290625,-0.37253125,1.12434375,0.01752673055344176,0.02113547397749259,True
24934,43382,0,43383,4825.0,43491.0,42133.0,-0.0021349999999999997,-0.0030499999999999998,-0.0008539999999999999,0.31500000000000006,-1.61,-3.8150000000000004,0.97384375,0.19568750000000001,0.1405625,1.1914375,0.9395625,-0.22993750000000002,-0.37471875,1.12946875,0.01756607915311379,0.021139987512676428,True
24935,43383,0,43384,4826.0,43488.0,42129.0,0.000549,-0.003721,-0.001647,0.22750000000000004,-1.6625,-3.8500000000000005,0.968375,0.1951875,0.134,1.174,0.94271875,-0.23159375000000001,-0.37425,1.12621875,0.017612595126971376,0.02085192364893279,True
24936,43384,0,43385,4826.0,43488.0,42127.0,0.003111,-0.004514,-0.0023179999999999997,0.08750000000000001,-1.5925000000000002,-3.7450000000000006,0.96403125,0.1850625,0.139625,1.1709375,0.94684375,-0.23434375000000002,-0.37128125,1.1293125,0.017306276345939838,0.02096345468090645,True
24937,43385,0,43386,4824.0,43487.0,42125.0,0.0006709999999999999,-0.002928,-0.002623,0.10500000000000001,-1.5575,-3.7625,0.9840625000000001,0.18825,0.14221875,1.18359375,0.9490937500000001,-0.2300625,-0.3710625,1.135875,0.017264194015182584,0.02106109448449365,True
24938,43386,0,43387,4820.0,43485.0,42121.0,-0.0008539999999999999,-0.000244,-0.001952,0.17500000000000002,-1.1900000000000002,-3.7450000000000006,0.98121875,0.19603125,0.13865625,1.1830625000000001,0.94265625,-0.23015625,-0.37428125,1.13378125,0.0175891354394382,0.02104421027799538,True
24939,43387,0,43388,4816.0,43482.0,42117.0,-0.002257,0.003111,0.000549,0.35000000000000003,-1.1900000000000002,-3.6750000000000003,0.9688125,0.19515625,0.13875,1.1875,0.9425625,-0.23090625,-0.37296875,1.1280000000000001,0.01758343231590853,0.020995339355202678,True
24940,43388,0,43389,4811.0,43482.0,42113.0,-0.000976,0.0042699999999999995,0.000183,0.4025,-1.33,-3.8500000000000005,0.96428125,0.198875,0.1405,1.18225,0.9346875,-0.2303125,-0.37365625,1.12815625,0.017712833872860698,0.021094752659441485,True
24941,43389,0,43390,4810.0,43482.0,42111.0,-0.000915,0.0018909999999999999,0.001464,0.43750000000000006,-1.5750000000000002,-3.7625,0.968375,0.1930625,0.138625,1.1720625,0.9430000000000001,-0.23328125,-0.37340625,1.12709375,0.017593314978754684,0.021007783842276865,True
24942,43390,0,43391,4805.0,43481.0,42113.0,0.00042699999999999997,6.1e-05,0.0046359999999999995,0.45500000000000007,-1.6450000000000002,-3.6925000000000003,0.969875,0.19121875,0.1376875,1.16453125,0.9423750000000001,-0.2329375,-0.371625,1.1278125,0.017503294844052646,0.020897765331610012,True
24943,43391,0,43392,4803.0,43480.0,42110.0,0.001769,-0.000244,0.003721,0.49000000000000005,-1.6625,-3.8150000000000004,0.97028125,0.19021875,0.1360625,1.1773437500000001,0.94303125,-0.23209375000000002,-0.37546875,1.1280000000000001,0.017427817189754804,0.020985493868707652,True
24944,43392,0,43393,4799.0,43479.0,42108.0,-0.001281,0.0017079999999999999,0.000122,0.45500000000000007,-1.4700000000000002,-3.7450000000000006,0.97140625,0.19037500000000002,0.1398125,1.17659375,0.9436875,-0.2330625,-0.3725625,1.12296875,0.017473544666506764,0.021022615082021023,True
24945,43393,0,43394,4796.0,43478.0,42106.0,-0.002928,0.0017079999999999999,-0.00042699999999999997,0.47250000000000003,-1.4000000000000001,-3.7625,0.9761562500000001,0.19084375,0.13834375000000002,1.1765625,0.95065625,-0.23278125,-0.36703125000000003,1.1271875,0.017481484920349375,0.020740113755137898,True
24946,43394,0,43395,4795.0,43475.0,42108.0,-0.003965,0.000549,0.002928,0.43750000000000006,-1.2950000000000002,-3.7800000000000002,0.9781562500000001,0.19303125000000002,0.14009375,1.1831875,0.94184375,-0.230375,-0.3710625,1.12928125,0.017474193032505688,0.020973900912198636,True
24947,43395,0,43396,4795.0,43478.0,42107.0,-0.002745,-0.000305,0.0026839999999999998,0.49000000000000005,-1.5575,-3.7450000000000006,0.9734375000000001,0.194,0.14325000000000002,1.17875,0.9323125,-0.2305,-0.3675625,1.13296875,0.017519242277295146,0.020962806599962556,True
24948,43396,0,43397,4793.0,43479.0,42110.0,-0.001769,-0.000183,0.000976,0.31500000000000006,-1.7675,-3.8500000000000005,0.9703125,0.193625,0.136375,1.1769375,0.942625,-0.22975,-0.37534375000000003,1.12803125,0.017473354037907944,0.020993293684319837,True
24949,43397,0,43398,4792.0,43477.0,42108.0,0.001403,-0.000915,-0.0028669999999999998,0.12250000000000001,-2.1350000000000002,-3.8500000000000005,0.97203125,0.19037500000000002,0.139875,1.182375,0.94896875,-0.233125,-0.371875,1.13303125,0.017476078714569417,0.020997563790229518,True
24950,43398,0,43399,4791.0,43477.0,42111.0,0.002928,-0.001586,-0.0051849999999999995,0.052500000000000005,-2.3800000000000003,-3.8325000000000005,0.97596875,0.1938125,0.140125,1.18284375,0.94946875,-0.227,-0.36753125000000003,1.1243750000000001,0.017369567012011394,0.020833306615745083,True
24951,43399,0,43400,4792.0,43476.0,42110.0,0.00549,-0.001098,-0.008235,0.0175,-2.5375,-3.9375000000000004,0.9709375,0.19378125000000002,0.1381875,1.1714375000000001,0.9431875000000001,-0.23015625,-0.37459375,1.1270625,0.017496275947457004,0.021037530112681366,True
24952,43400,0,43401,4792.0,43477.0,42111.0,0.005307,-0.001403,-0.007259,0.22750000000000004,-2.4850000000000003,-4.0425,0.97021875,0.19225,0.13625,1.17728125,0.94315625,-0.233,-0.3750625,1.12709375,0.017548384434448894,0.020976869290078748,True
24953,43401,0,43402,4792.0,43477.0,42112.0,0.003172,-0.0037819999999999998,0.002745,0.4025,-2.2750000000000004,-3.9025000000000003,0.97059375,0.19087500000000002,0.13915625,1.1763125,0.9438125,-0.23265625,-0.372375,1.1273125,0.01747770634925752,0.020988157699034254,True
24954,43402,0,43403,4793.0,43476.0,42111.0,0.000793,-0.003172,0.004514,0.45500000000000007,-1.8025000000000002,-3.7275000000000005,0.97709375,0.1936875,0.14021875,1.1829375,0.9490000000000001,-0.22571875,-0.37121875,1.133875,0.01731243784046655,0.020985306695012942,True
24955,43403,0,43404,4793.0,43477.0,42114.0,0.000244,0.001281,0.003111,0.525,-1.5225000000000002,-3.7450000000000006,0.97546875,0.19375,0.13825,1.1770625000000001,0.94621875,-0.230125,-0.372375,1.12725,0.017493719079039006,0.020950974207478754,True
24956,43404,0,43405,4793.0,43478.0,42115.0,-0.001647,0.0048189999999999995,0.0008539999999999999,0.6125,-1.2075,-3.8325000000000005,0.97003125,0.19034375,0.1389375,1.1739375,0.943125,-0.23193750000000002,-0.37165625,1.12734375,0.017426639945732778,0.020950309850197395,True
24957,43405,0,43406,4795.0,43479.0,42115.0,-0.00549,0.003965,-0.000122,0.5775,-1.0325000000000002,-3.6575,0.9749375,0.18953125,0.1398125,1.18159375,0.94721875,-0.2341875,-0.37153125000000004,1.13290625,0.0174843390148731,0.02098119091306583,True
24958,43406,0,43407,4797.0,43480.0,42119.0,-0.003904,-0.000976,0.000793,0.45500000000000007,-1.4000000000000001,-3.5175000000000005,0.966125,0.1941875,0.138375,1.1767812500000001,0.94321875,-0.23043750000000002,-0.37515625,1.12728125,0.017524446267220724,0.021067813667861104,True
24959,43407,0,43408,4797.0,43480.0,42119.0,0.001037,-0.00183,0.000976,0.47250000000000003,-1.5575,-3.5525,0.96178125,0.19215625,0.139625,1.17121875,0.94278125,-0.23240625,-0.37093750000000003,1.1275,0.01752044331131994,0.02094964545372947,True
24960,43408,0,43409,4798.0,43476.0,42118.0,0.002806,0.000122,-6.1e-05,0.385,-1.7325000000000002,-3.5000000000000004,0.9730625,0.19346875,0.14053125,1.18075,0.94225,-0.23078125,-0.37028125,1.13371875,0.017508721473848476,0.02096046798803358,True
24961,43409,0,43410,4799.0,43478.0,42116.0,0.003904,0.00122,-0.001464,0.36750000000000005,-1.5750000000000002,-3.5000000000000004,0.97246875,0.19346875,0.140375,1.18,0.9445625,-0.22943750000000002,-0.37203125,1.13471875,0.017454233099716,0.021024355530481275,True
24962,43410,0,43411,4799.0,43480.0,42118.0,0.0025009999999999998,-6.1e-05,-0.000915,0.4025,-1.5225000000000002,-3.4125000000000005,0.9700625,0.19421875,0.139375,1.18071875,0.9432812500000001,-0.22968750000000002,-0.37493750000000003,1.130125,0.017495324692074547,0.02110005410270283,True
24963,43411,0,43412,4799.0,43479.0,42118.0,-0.001098,-0.0006709999999999999,-0.001281,0.42000000000000004,-1.2950000000000002,-3.3600000000000003,0.97046875,0.1935625,0.13846875,1.17740625,0.9426875,-0.22978125,-0.377625,1.1262812500000001,0.017472041766782357,0.02117079699109327,True
24964,43412,0,43413,4799.0,43477.0,42117.0,-0.001464,0.001769,-0.002379,0.43750000000000006,-1.2075,-3.4650000000000003,0.97278125,0.19365625,0.13940625,1.1706875,0.93525,-0.23175,-0.37209375,1.12421875,0.017555737823310325,0.020987117694802073,True
24965,43413,0,43414,4798.0,43478.0,42117.0,-0.002379,0.0,-0.000976,0.6475000000000001,-1.0325000000000002,-3.4825000000000004,0.9709375,0.193375,0.13965625,1.1766875,0.9499062500000001,-0.23659375,-0.36946875,1.12434375,0.017740477660974946,0.020891920346027243,True
24966,43414,0,43415,4799.0,43479.0,42117.0,-0.0035989999999999998,-0.0008539999999999999,0.0018909999999999999,0.6475000000000001,-1.2075,-3.3600000000000003,0.97046875,0.18884375,0.13453125,1.1768125,0.94778125,-0.23553125,-0.3751875,1.12675,0.017510447599534257,0.020911377604787656,True
24967,43415,0,43416,4800.0,43478.0,42118.0,-0.0032329999999999998,-0.001037,0.002989,0.7350000000000001,-1.0850000000000002,-3.4650000000000003,0.97090625,0.1949375,0.13990625,1.16075,0.9326875,-0.22868750000000002,-0.36959375,1.13540625,0.01748443864324058,0.020907201212576637,True
24968,43416,0,43417,4799.0,43481.0,42118.0,-0.0021349999999999997,0.0034159999999999998,0.004758,0.7525000000000001,-1.0325000000000002,-3.7975000000000003,0.9783125,0.19025,0.132625,1.19734375,0.95465625,-0.237125,-0.37721875,1.129625,0.017633073229601285,0.020914762886967978,True
24969,43417,0,43418,4799.0,43478.0,42118.0,-0.002928,0.003477,0.0026839999999999998,0.7175,-1.2075,-3.9200000000000004,0.975125,0.19546875,0.14534375,1.16540625,0.9382812500000001,-0.22893750000000002,-0.368875,1.13015625,0.017516502735623465,0.02110145626336874,True
24970,43418,0,43419,4798.0,43480.0,42118.0,-0.0028669999999999998,0.0025009999999999998,0.002013,0.5425000000000001,-1.2950000000000002,-3.9725000000000006,0.98665625,0.1804375,0.14615625000000002,1.166125,0.9577187500000001,-0.2321875,-0.37040625,1.12746875,0.01702797157706047,0.02119630238006394,True
24971,43419,0,43420,4797.0,43477.0,42119.0,-0.00366,0.002257,-0.000549,0.56,-1.4875,-4.095000000000001,0.98240625,0.18434375,0.14496875,1.16565625,0.95759375,-0.23143750000000002,-0.3691875,1.1339375,0.01715875296296392,0.021098620953201662,True
24972,43420,0,43421,4798.0,43478.0,42117.0,-0.000915,0.000793,-0.000366,0.5425000000000001,-1.995,-4.2875000000000005,0.99309375,0.19353125000000002,0.14396875,1.1661875,0.9420625,-0.22915625,-0.365875,1.13471875,0.017445407328206073,0.02092449994100356,True
24973,43421,0,43422,4798.0,43479.0,42119.0,0.007137,-0.004697,-0.0017079999999999999,0.22750000000000004,-3.115,-4.445,0.99184375,0.181375,0.13684375000000001,1.1638125,0.9544375,-0.2265625,-0.3705625,1.1245625000000001,0.016838439213157048,0.020820457057566893,True
24974,43422,0,43423,4799.0,43475.0,42115.0,0.010858,-0.002745,-0.0042699999999999995,0.21000000000000002,-3.3600000000000003,-4.445,0.95809375,0.19778125,0.13853125,1.197875,0.9426875,-0.23271875,-0.369875,1.13534375,0.017765237340527464,0.020862078693468882,True
24975,43423,0,43424,4799.0,43474.0,42116.0,0.010858,-0.0011589999999999999,-0.00488,0.2625,-3.2725000000000004,-4.4275,0.9881562500000001,0.19471875,0.14546875,1.16571875,0.9419062500000001,-0.22984375,-0.3715,1.12759375,0.017522296238497204,0.021212020187514103,True
24976,43424,0,43425,4800.0,43475.0,42117.0,0.007686,0.000183,-0.0066489999999999995,0.24500000000000002,-2.6250000000000004,-4.095000000000001,0.9783437500000001,0.18284375,0.131125,1.18003125,0.94925,-0.2328125,-0.373125,1.1282812500000001,0.017152621058740086,0.02068877093109726,True
24977,43425,0,43426,4801.0,43475.0,42118.0,-0.0006709999999999999,0.000488,-0.004758,0.47250000000000003,-1.9250000000000003,-3.9375000000000004,0.96025,0.1973125,0.13909375000000002,1.1871875,0.9382812500000001,-0.230375,-0.373875,1.13559375,0.017650882415150407,0.021045843141478324,True
24978,43426,0,43427,4799.0,43478.0,42121.0,-0.005978,-0.001403,0.004514,0.6300000000000001,-1.3125000000000002,-3.7975000000000003,0.97140625,0.1941875,0.14350000000000002,1.17584375,0.943625,-0.2295,-0.37075,1.1323750000000001,0.017486431828968817,0.021101115066216678,True
24979,43427,0,43428,4802.0,43478.0,42123.0,-0.005612,-0.0017079999999999999,0.002928,0.5775,-1.4000000000000001,-3.99,0.9724375000000001,0.192375,0.13940625,1.17671875,0.9496875,-0.23190625,-0.37225,1.1275,0.017509198229091034,0.020993394126516837,True
24980,43428,0,43429,4803.0,43477.0,42123.0,-0.003477,0.002013,0.003294,0.6300000000000001,-1.4175000000000002,-4.0425,0.97015625,0.19040625,0.136625,1.1788125,0.94278125,-0.2295,-0.37221875,1.13421875,0.017330372067108277,0.020878023261628572,True
24981,43429,0,43430,4802.0,43480.0,42122.0,-0.001586,0.003294,0.0006709999999999999,0.6825000000000001,-1.5925000000000002,-4.130000000000001,0.96975,0.19415625,0.1365,1.1830625000000001,0.9430625,-0.23075,-0.36628125,1.1358125000000001,0.017535827409386834,0.020634303808670023,True
24982,43430,0,43431,4805.0,43479.0,42127.0,-0.002806,0.001769,-0.00122,0.6125,-1.6800000000000002,-4.1825,0.970875,0.19540625,0.14059375,1.18425,0.9430000000000001,-0.22946875,-0.37090625,1.13425,0.017535464949061254,0.020988140315873562,True
24983,43431,0,43432,4806.0,43482.0,42127.0,0.0013419999999999999,-0.000732,0.001403,0.6300000000000001,-2.0825,-4.112500000000001,0.97278125,0.1945,0.137625,1.18328125,0.9504375,-0.23034375,-0.3711875,1.1338125000000001,0.017533542007632477,0.020877624448952272,True
24984,43432,0,43433,4807.0,43481.0,42129.0,0.0030499999999999998,-0.0011589999999999999,-0.000793,0.5950000000000001,-2.31,-4.095000000000001,0.96978125,0.1938125,0.13628125,1.184625,0.942875,-0.23075,-0.371375,1.1356875,0.017521640890191183,0.020830020874899345,True
24985,43433,0,43434,4807.0,43483.0,42129.0,0.006344,-0.000915,-0.002196,0.5775,-2.5025000000000004,-3.9200000000000004,0.97609375,0.19725,0.14271875,1.1767812500000001,0.9363750000000001,-0.23340625,-0.37215625,1.1279375,0.017771181053014368,0.021125541569593374,True
24986,43434,0,43435,4810.0,43482.0,42130.0,0.006893,0.000122,-0.0006709999999999999,0.5775,-2.31,-3.9725000000000006,0.97103125,0.193875,0.138125,1.1844375,0.94334375,-0.22959375,-0.3706875,1.13425,0.017477335954095393,0.02087805278369763,True
24987,43435,0,43436,4810.0,43486.0,42128.0,0.003355,0.002562,-0.001647,0.6825000000000001,-1.8025000000000002,-4.112500000000001,0.97065625,0.19943750000000002,0.14621875,1.1793125,0.94725,-0.2295,-0.37143750000000003,1.1331875,0.017703109845436348,0.021240283836355574,True
24988,43436,0,43437,4811.0,43487.0,42131.0,-0.0073809999999999995,0.0011589999999999999,0.004026,0.7350000000000001,-0.8225000000000001,-3.9375000000000004,0.97940625,0.19793750000000002,0.139875,1.17628125,0.9485625,-0.23053125,-0.37125,1.12765625,0.017683010974016512,0.02097245730112325,True
24989,43437,0,43438,4813.0,43485.0,42134.0,-0.008113,-0.002196,0.00488,0.5950000000000001,-0.8750000000000001,-4.0075,0.97190625,0.19090625,0.1431875,1.17578125,0.94240625,-0.22803125,-0.37453125,1.12734375,0.017291437990860276,0.02124015205420617,True
24990,43438,0,43439,4816.0,43488.0,42138.0,-0.005063,-0.002806,0.003904,0.5425000000000001,-1.3650000000000002,-4.025,0.9703125,0.19475,0.139375,1.18203125,0.9318125,-0.226,-0.37459375,1.133875,0.01736770411954099,0.02108624887337866,True
24991,43439,0,43440,4816.0,43488.0,42137.0,0.000976,-0.001952,-0.0006709999999999999,0.4025,-1.8550000000000002,-4.165,0.9709375,0.19428125000000002,0.1370625,1.18365625,0.94275,-0.2295,-0.372,1.13459375,0.01749030107926288,0.02088718611521418,True
24992,43440,0,43441,4817.0,43487.0,42138.0,0.005246,0.000366,-0.0068319999999999995,0.29750000000000004,-2.2575000000000003,-4.2525,0.9742500000000001,0.19334375,0.1400625,1.17684375,0.95040625,-0.23068750000000002,-0.37165625,1.1284687500000001,0.017499761407925387,0.020996470028580842,True
24993,43441,0,43442,4819.0,43489.0,42138.0,0.007137,0.00122,-0.0028669999999999998,0.525,-1.9075000000000002,-4.4975000000000005,0.97871875,0.18959375,0.14150000000000001,1.17615625,0.94840625,-0.22959375,-0.37190625,1.12853125,0.017300640874344006,0.021065494210162575,True
24994,43442,0,43443,4819.0,43488.0,42141.0,0.0017079999999999999,-0.00042699999999999997,0.000976,0.7175,-1.4700000000000002,-4.41,0.97596875,0.19340625,0.1395,1.18353125,0.9484375,-0.2321875,-0.37125,1.1328125,0.017563158505603343,0.020957070318510542,True
24995,43443,0,43444,4822.0,43491.0,42142.0,-0.00366,-0.000732,0.003904,0.8225000000000001,-1.0150000000000001,-4.445,0.96959375,0.1935625,0.13790625,1.17746875,0.9452812500000001,-0.2305,-0.372625,1.1280937500000001,0.017501186521120076,0.020946912776116648,True
24996,43444,0,43445,4823.0,43493.0,42146.0,-0.006039,0.000915,0.002745,0.9275000000000001,-0.8925000000000001,-4.41,0.97765625,0.193375,0.1381875,1.18146875,0.937625,-0.23068750000000002,-0.36615625,1.1320000000000001,0.0175010510948152,0.020698535494288312,True
24997,43445,0,43446,4824.0,43492.0,42144.0,-0.006954,0.003172,0.0015249999999999999,0.8225000000000001,-0.8400000000000001,-4.357500000000001,0.9710625,0.19203125000000001,0.139625,1.176625,0.9425625,-0.2295,-0.37390625,1.12740625,0.01739743907220537,0.021068894117043713,True
24998,43446,0,43447,4824.0,43492.0,42144.0,-0.003538,-0.002013,0.002196,0.8925000000000001,-1.1375000000000002,-4.4275,0.9765625,0.19303125000000002,0.145375,1.18178125,0.9428125,-0.2303125,-0.371625,1.13296875,0.017471658691979315,0.02121319362168095,True
24999,43447,0,43448,4825.0,43492.0,42145.0,0.000183,-0.004575,0.002745,0.6825000000000001,-1.61,-4.340000000000001,0.9705625,0.19371875,0.13796875,1.18025,0.9499062500000001,-0.22990625,-0.37084375,1.133875,0.017483559186284515,0.02087791892720169,True
25000,43448,0,43449,4824.0,43491.0,42141.0,0.0037819999999999998,-0.002989,0.001464,0.525,-1.9425000000000001,-4.41,0.9696875,0.19115625,0.13825,1.17646875,0.929125,-0.22921875,-0.377875,1.127625,0.017349919712124434,0.02117186178040539,True
25001,43449,0,43450,4822.0,43488.0,42138.0,0.0059169999999999995,-0.000244,-0.000305,0.43750000000000006,-2.1875,-4.305000000000001,0.969375,0.19428125000000002,0.139875,1.185125,0.934,-0.23625000000000002,-0.37125,1.124125,0.01776393831553974,0.02097245730112325,True
25002,43450,0,43451,4819.0,43488.0,42134.0,0.0068319999999999995,0.0018909999999999999,-0.004209,0.36750000000000005,-2.5025000000000004,-4.130000000000001,0.97040625,0.19409375,0.13721875,1.17578125,0.96040625,-0.22840625,-0.3624375,1.1408125,0.01743820850783365,0.020509288120287638,True
25003,43451,0,43452,4815.0,43487.0,42132.0,0.005063,0.00183,-0.003538,0.6475000000000001,-2.3800000000000003,-4.0075,0.9708125,0.19165625,0.13921875,1.1767812500000001,0.935875,-0.22743750000000001,-0.374375,1.1233125,0.017298311057452942,0.021071053103925746,True
25004,43452,0,43453,4812.0,43486.0,42131.0,0.003111,0.002013,-0.001769,0.6300000000000001,-2.1525000000000003,-4.165,0.97340625,0.19037500000000002,0.14025,1.18246875,0.93578125,-0.232625,-0.37275,1.121375,0.01745580596406704,0.021048096747392067,True
25005,43453,0,43454,4807.0,43486.0,42129.0,-0.0013419999999999999,0.001769,0.002074,0.7525000000000001,-1.9075000000000002,-3.9200000000000004,0.96996875,0.19671875,0.14090625,1.1767812500000001,0.95725,-0.22809375,-0.36712500000000003,1.1400937500000001,0.017533880477080457,0.02084904353714277,True
25006,43454,0,43455,4806.0,43486.0,42124.0,-0.003355,0.000915,0.006039,0.9275000000000001,-1.5050000000000001,-3.8150000000000004,0.9703125,0.19475,0.138875,1.1771562500000001,0.94734375,-0.22803125,-0.374,1.1413125,0.017450086869935006,0.02104188889800607,True
25007,43455,0,43456,4804.0,43485.0,42127.0,-0.006039,0.0013419999999999999,0.002623,0.77,-1.2950000000000002,-3.9025000000000003,0.97065625,0.1923125,0.1395625,1.17340625,0.9249375,-0.23109375000000001,-0.37215625,1.1230625,0.01747367470772961,0.02099603928150592,True
25008,43456,0,43457,4800.0,43484.0,42125.0,-0.007076,0.000915,0.002196,0.9450000000000001,-1.6625,-3.7275000000000005,0.9771562500000001,0.1904375,0.13959375000000002,1.1763125,0.94784375,-0.2356875,-0.37346875,1.1131875,0.017582542273661517,0.021050040323045933,True
25009,43457,0,43458,4800.0,43485.0,42126.0,-0.005673,-0.001464,0.0026839999999999998,0.8925000000000001,-1.9250000000000003,-3.8675,0.9705,0.1909375,0.14240625,1.169625,0.937,-0.22921875,-0.37090625,1.14378125,0.01734089135663939,0.02106251178082473,True
25010,43458,0,43459,4799.0,43485.0,42127.0,-0.000732,-0.001281,0.0035989999999999998,0.7000000000000001,-2.3275,-4.1825,0.970875,0.195,0.13696875,1.17665625,0.9405,-0.22825,-0.37609375,1.13478125,0.017469276567643147,0.02104777349734307,True
25011,43459,0,43460,4798.0,43485.0,42126.0,0.002623,-0.0008539999999999999,0.002074,0.6300000000000001,-2.765,-4.305000000000001,0.9706250000000001,0.19403125000000002,0.1385,1.17965625,0.9375,-0.2280625,-0.3713125,1.13825,0.017421688176675294,0.020918549216419922,True
25012,43460,0,43461,4798.0,43485.0,42129.0,0.0021349999999999997,0.0017079999999999999,0.000549,0.5425000000000001,-2.8000000000000003,-4.322500000000001,0.97028125,0.193875,0.13803125,1.17559375,0.936625,-0.22828125,-0.37046875,1.12734375,0.017424110511347148,0.020865417289111433,True
25013,43461,0,43462,4797.0,43486.0,42125.0,0.003538,-0.000122,-0.0013419999999999999,0.31500000000000006,-2.8875,-4.340000000000001,0.9644375000000001,0.19303125000000002,0.1396875,1.1767812500000001,0.9428125,-0.2321875,-0.37084375,1.12740625,0.017547683220922584,0.020948443773104904,True
25014,43462,0,43463,4797.0,43484.0,42130.0,0.004026,-0.0021349999999999997,-0.006222,0.2625,-3.1325000000000003,-4.357500000000001,0.9761875,0.19315625,0.139875,1.1769687500000001,0.94953125,-0.2310625,-0.37175,1.118125,0.017507228583146114,0.02099254259542298,True
25015,43463,0,43464,4799.0,43486.0,42129.0,0.004331,-0.0028669999999999998,-0.007076,0.1925,-3.3425000000000002,-4.2525,0.9704375000000001,0.19315625,0.1415625,1.17928125,0.9429062500000001,-0.23093750000000002,-0.37215625,1.1338125000000001,0.01750216020325256,0.021078100137323714,True
25016,43464,0,43465,4798.0,43486.0,42131.0,0.006588,-0.002196,-0.003965,0.31500000000000006,-3.2900000000000005,-4.322500000000001,0.96996875,0.19440625,0.13784375000000001,1.1796875,0.9430937500000001,-0.22918750000000002,-0.37140625,1.13459375,0.017482788062950935,0.020895388422652057,True
25017,43465,0,43466,4800.0,43484.0,42130.0,0.003477,-0.003111,0.000122,0.35000000000000003,-3.115,-4.2525,0.9704375000000001,0.19478125000000002,0.1385625,1.17390625,0.93384375,-0.22959375,-0.373875,1.13559375,0.01751473856221795,0.021024047263719862,True
25018,43466,0,43467,4803.0,43487.0,42133.0,0.000305,-0.000915,0.000488,0.56,-2.415,-3.8500000000000005,0.9705,0.19459375,0.1400625,1.18140625,0.94928125,-0.22996875,-0.37065625,1.137,0.01752220584271286,0.02095629862244682,True
25019,43467,0,43468,4802.0,43487.0,42134.0,-0.000244,0.0026839999999999998,-0.001952,0.5950000000000001,-2.0825,-3.8850000000000002,0.9704375000000001,0.194375,0.137875,1.18084375,0.9434375,-0.22993750000000002,-0.37478125,1.1335625,0.01751191062709097,0.021032240032923373,True
25020,43468,0,43469,4805.0,43486.0,42134.0,-0.0032329999999999998,0.001586,-0.0015249999999999999,0.7175,-1.8025000000000002,-3.7275000000000005,0.96203125,0.19365625,0.1391875,1.18403125,0.94196875,-0.22975,-0.369875,1.1341875000000001,0.01747464377469846,0.020889007432331925,True
25021,43469,0,43470,4804.0,43485.0,42137.0,-0.0034159999999999998,0.00061,0.0,0.9625000000000001,-1.8025000000000002,-3.6925000000000003,0.9721875,0.19459375,0.14121875,1.17765625,0.9470000000000001,-0.22971875,-0.37125,1.12634375,0.017512068727582732,0.021027593988818795,True
25022,43470,0,43471,4807.0,43487.0,42137.0,0.000244,0.0006709999999999999,0.0025009999999999998,0.8575,-1.6450000000000002,-3.7450000000000006,0.9743437500000001,0.1920625,0.140125,1.17503125,0.9507187500000001,-0.2305625,-0.371125,1.1276875,0.01744181547580664,0.020977693889797866,True
25023,43471,0,43472,4808.0,43487.0,42138.0,-0.00061,-0.00061,0.0032329999999999998,0.5950000000000001,-1.435,-3.5700000000000003,0.9739375,0.19053125,0.1348125,1.176625,0.9495625,-0.2323125,-0.36878125,1.12803125,0.017449583072189252,0.020665528769519406,True
25024,43472,0,43473,4810.0,43486.0,42139.0,-0.002928,0.003843,0.002196,0.77,-1.0850000000000002,-3.6225000000000005,0.96665625,0.194625,0.1459375,1.1736875,0.94321875,-0.22993750000000002,-0.37140625,1.1280000000000001,0.01752222844157151,0.02122748866820108,True
25025,43473,0,43474,4811.0,43488.0,42138.0,-0.003294,0.00366,0.0011589999999999999,0.6475000000000001,-1.1025,-3.6925000000000003,0.97146875,0.1901875,0.13528125,1.1724375,0.948625,-0.2333125,-0.37496875,1.122625,0.017475943497200393,0.020933360170974576,True
25026,43474,0,43475,4813.0,43490.0,42141.0,-0.0021349999999999997,0.0021349999999999997,0.00042699999999999997,0.5075000000000001,-1.4000000000000001,-3.6050000000000004,0.96621875,0.19543750000000001,0.1398125,1.18703125,0.94275,-0.23,-0.37293750000000003,1.1339062500000001,0.01755829550144449,0.021037677547074498,True
25027,43475,0,43476,4813.0,43491.0,42141.0,0.0008539999999999999,-0.0042699999999999995,-0.002379,0.385,-1.8375000000000001,-3.6925000000000003,0.9833437500000001,0.1905,0.141125,1.1745,0.94903125,-0.22803125,-0.3711875,1.12325,0.017274670223153193,0.021021236654963978,True
25028,43476,0,43477,4814.0,43493.0,42143.0,-0.00122,-0.003294,-0.004514,0.42000000000000004,-1.8725000000000003,-3.6400000000000006,0.95975,0.18965625,0.13653125,1.17565625,0.9362812500000001,-0.2329375,-0.374125,1.12528125,0.017438816486858022,0.020950752078279736,True
25029,43477,0,43478,4815.0,43492.0,42143.0,-0.003477,-0.00122,-0.009821,0.36750000000000005,-1.9600000000000002,-3.6050000000000004,0.965875,0.20015625,0.1421875,1.18428125,0.9430625,-0.22846875,-0.36765625,1.1325,0.017690965302955847,0.020922970382102304,True
25030,43478,0,43479,4813.0,43494.0,42142.0,-0.000122,0.0028669999999999998,-0.006344,0.6300000000000001,-1.9250000000000003,-3.7800000000000002,0.984375,0.193875,0.14065625,1.17209375,0.94821875,-0.23003125,-0.37046875,1.11896875,0.01749507648695253,0.02097312962024992,True
25031,43479,0,43480,4813.0,43492.0,42140.0,0.0042699999999999995,0.003843,0.005978,0.7875000000000001,-1.6975000000000002,-4.077500000000001,0.9738125,0.18937500000000002,0.1373125,1.1823125,0.9462812500000001,-0.2321875,-0.37315625,1.1265625000000001,0.0173967991952852,0.020943891909772663,True
25032,43480,0,43481,4815.0,43492.0,42142.0,0.002928,0.0008539999999999999,0.011773,0.6825000000000001,-1.3125000000000002,-4.095000000000001,0.9665625,0.19503125000000002,0.14009375,1.1743125,0.9428125,-0.2256875,-0.37121875,1.1316875,0.017366638201702225,0.020980177694232053,True
25033,43481,0,43482,4813.0,43488.0,42141.0,0.0011589999999999999,0.003538,0.007625,0.56,-1.2075,-4.0075,0.96215625,0.19509375,0.14150000000000001,1.18253125,0.943125,-0.22990625,-0.371,1.12971875,0.01754030723911695,0.021029091953551352,True
25034,43482,0,43483,4815.0,43489.0,42145.0,-0.0032329999999999998,-0.000244,0.002928,0.45500000000000007,-1.225,-3.99,0.9745312500000001,0.193,0.14,1.17703125,0.94571875,-0.23025,-0.3710625,1.1281875000000001,0.01746783462820235,0.020970054136950328,True
25035,43483,0,43484,4816.0,43492.0,42145.0,-0.007259,-0.005063,-0.004026,0.17500000000000002,-1.54,-3.6750000000000003,0.9703437500000001,0.19221875,0.13975,1.17703125,0.9509062500000001,-0.231,-0.371875,1.1281875000000001,0.017466004292022615,0.020992434927554815,True
25036,43484,0,43485,4814.0,43491.0,42144.0,-0.007259,-0.012139,-0.00732,0.0,-1.8900000000000001,-3.3775000000000004,0.97109375,0.19203125000000001,0.13865625,1.1766875,0.94384375,-0.22928125,-0.37625000000000003,1.1308125,0.017388567809868482,0.021123275729449772,True
25037,43485,0,43486,4815.0,43492.0,42145.0,-0.000122,-0.007869,-0.013054,-0.29750000000000004,-2.2925000000000004,-3.5525,0.964875,0.19715625,0.13728125,1.1774375,0.9415625,-0.2278125,-0.371625,1.14375,0.01754053321982742,0.020881096356931472,True
25038,43486,0,43487,4816.0,43492.0,42145.0,0.002989,0.001952,-0.011224,0.035,-2.0475000000000003,-3.7100000000000004,0.9712500000000001,0.19325,0.140375,1.18190625,0.980375,-0.2308125,-0.36915625,1.118125,0.01750096081177633,0.020908858918740773,True
25039,43487,0,43488,4818.0,43491.0,42147.0,0.005673,0.012261,-0.004758,0.43750000000000006,-1.8025000000000002,-4.0075,0.978125,0.19375,0.14071875,1.18275,0.952625,-0.23565625,-0.37190625,1.117125,0.01771795430544613,0.02103343885954756,True
25040,43488,0,43489,4816.0,43492.0,42148.0,0.00549,0.016531,0.003294,0.6825000000000001,-1.4525000000000001,-4.235,0.97478125,0.19865625,0.144125,1.17034375,0.9530625,-0.2395625,-0.37240625,1.10975,0.01807865756652992,0.02119328082347224,True
25041,43489,0,43490,4819.0,43496.0,42150.0,0.003904,0.015372,0.008905999999999999,0.9100000000000001,-1.2600000000000002,-4.340000000000001,0.97640625,0.19225,0.13740625,1.177,0.92996875,-0.23384375000000002,-0.3805625,1.143875,0.01758259046297598,0.021245151747421746,True
25042,43490,0,43491,4821.0,43495.0,42148.0,0.0055509999999999995,0.001037,0.015067,0.8225000000000001,-1.5050000000000001,-4.165,0.9697187500000001,0.19165625,0.138,1.1796875,0.9328125,-0.22603125000000002,-0.37146875,1.14959375,0.017241268109071724,0.020904310496264206,True
25043,43491,0,43492,4821.0,43494.0,42148.0,0.004026,-0.005612,0.009333,0.42000000000000004,-1.61,-3.9725000000000006,0.97021875,0.19484375,0.13778125,1.1844375,0.94146875,-0.22225,-0.36040625,1.140625,0.017219446996047025,0.020450705743053854,True
25044,43492,0,43493,4822.0,43495.0,42151.0,0.000366,-0.007808,0.002074,0.052500000000000005,-1.2600000000000002,-3.9200000000000004,0.9706250000000001,0.194125,0.14075000000000001,1.1828125,0.96946875,-0.23103125,-0.366875,1.10953125,0.01754594121948483,0.020832585220714597,True
25045,43493,0,43494,4824.0,43495.0,42153.0,-0.003843,-0.010614,-0.004514,-0.2625,-1.05,-3.7275000000000005,0.9775,0.19396875,0.14015625,1.1824375,0.95828125,-0.23515625,-0.36778125,1.11771875,0.017706714806099092,0.02084463475721656,True
25046,43494,0,43495,4825.0,43496.0,42154.0,-0.008601,-0.009455,-0.010858,-0.42000000000000004,-1.0150000000000001,-3.43,0.974875,0.193375,0.1399375,1.17603125,0.9529062500000001,-0.24315625000000002,-0.3721875,1.1163750000000001,0.018006370354520157,0.021012680950366066,True
25047,43495,0,43496,4826.0,43497.0,42156.0,-0.008357,0.001769,-0.011467999999999999,-0.14,-0.9100000000000001,-3.535,0.9704375000000001,0.19209375,0.13721875,1.1775625,0.93071875,-0.23165625,-0.37825000000000003,1.14459375,0.017487455072329197,0.021144616615220536,True
25048,43496,0,43497,4827.0,43501.0,42156.0,-0.006344,0.004758,-0.004697,0.21000000000000002,-0.9975,-3.7450000000000006,0.9629062500000001,0.19484375,0.13775,1.1824375,0.93296875,-0.22575,-0.36646875,1.133375,0.017361433598547,0.020693140034909657,True
25049,43497,0,43498,4828.0,43499.0,42159.0,-0.003294,0.0057339999999999995,0.0021349999999999997,0.5425000000000001,-0.9625000000000001,-4.025,0.9781562500000001,0.1935625,0.13971875,1.1760625,0.94275,-0.23018750000000002,-0.36890625,1.1233125,0.017488515101255406,0.020871884637826126,True
25050,43498,0,43499,4831.0,43500.0,42161.0,-0.000366,0.0048189999999999995,0.008905999999999999,0.6825000000000001,-1.1375000000000002,-4.2175,0.97596875,0.19184375,0.1405,1.16871875,0.95103125,-0.2275625,-0.37140625,1.1283125,0.01731112034072763,0.021004378850727992,True
25051,43499,0,43500,4831.0,43502.0,42160.0,0.002745,0.004331,0.011712,0.6475000000000001,-1.5050000000000001,-4.375,0.97003125,0.194125,0.13771875,1.1789687500000001,0.9430000000000001,-0.23175,-0.37440625,1.1336875,0.017575082278415713,0.021010768211020523,True
25052,43500,0,43501,4834.0,43501.0,42158.0,0.008052,-0.001952,0.005307,0.3325,-2.8000000000000003,-4.3925,0.97540625,0.19340625,0.14053125,1.17659375,0.9449375,-0.2310625,-0.37128125,1.12884375,0.017517545918591063,0.021000639841206543,True
25053,43501,0,43502,4835.0,43501.0,42164.0,0.010187,-0.003172,-0.005978,0.0175,-3.2375000000000003,-4.340000000000001,0.9741875,0.1921875,0.138,1.17653125,0.95225,-0.23075,-0.37153125000000004,1.1281875000000001,0.017454577344902654,0.020906821355346723,True
25054,43502,0,43503,4836.0,43502.0,42160.0,0.009577,-0.002989,-0.009028,0.052500000000000005,-3.22,-4.2,0.970875,0.19309375,0.13853125,1.1765,0.9440000000000001,-0.2328125,-0.3716875,1.12778125,0.017575601263782322,0.020934896280776615,True
25055,43503,0,43504,4836.0,43499.0,42163.0,0.008113,-0.0026839999999999998,-0.0077469999999999995,0.14,-3.0450000000000004,-4.1825,0.9695,0.19246875,0.146125,1.175875,0.94315625,-0.23240625,-0.37475,1.12775,0.017533339265472243,0.021369449943076338,True
25056,43504,0,43505,4839.0,43500.0,42164.0,0.002928,-0.0025009999999999998,-0.003904,0.22750000000000004,-2.3625000000000003,-3.8675,0.9705,0.195,0.14009375,1.1776875,0.9403750000000001,-0.229,-0.3743125,1.1280625,0.01749969045358868,0.021104441407321744,True
25057,43505,0,43506,4842.0,43501.0,42166.0,-0.008601,0.003294,-6.1e-05,0.47250000000000003,-0.7000000000000001,-3.6400000000000006,0.9704375000000001,0.194125,0.13746875,1.1850625000000001,0.9344687500000001,-0.2290625,-0.373625,1.12565625,0.01746611120426141,0.020969131592038524,True
25058,43506,0,43507,4843.0,43501.0,42169.0,-0.011529,0.0044529999999999995,0.003965,0.47250000000000003,-0.2625,-3.6925000000000003,0.9708125,0.2019375,0.14040625,1.17909375,0.94384375,-0.23046875,-0.3740625,1.1338125000000001,0.017845558600677092,0.02110722207264382,True
25059,43507,0,43508,4844.0,43500.0,42168.0,-0.011712,0.002623,0.006527,0.5075000000000001,-0.36750000000000005,-3.6575,0.9706250000000001,0.194875,0.14740625000000002,1.195875,0.94246875,-0.22896875,-0.371375,1.13384375,0.017493264132424125,0.021286499017802645,True
25060,43508,0,43509,4846.0,43503.0,42171.0,-0.00488,-0.002196,0.006344,0.43750000000000006,-1.0325000000000002,-3.6050000000000004,0.9626250000000001,0.2006875,0.1434375,1.1925937500000001,0.9404375,-0.2298125,-0.3725,1.1306875,0.01776736819568868,0.021168837829520976,True
25061,43509,0,43510,4845.0,43504.0,42171.0,0.001647,-0.003294,6.1e-05,0.4025,-1.8200000000000003,-3.7800000000000002,0.9795312500000001,0.1948125,0.142625,1.17140625,0.9422812500000001,-0.22953125,-0.37059375,1.13425,0.017513493992996666,0.021058935012611257,True
25062,43510,0,43511,4846.0,43505.0,42167.0,0.008601,-0.001586,-0.0051849999999999995,0.2625,-2.6250000000000004,-3.9725000000000006,0.978125,0.18703125,0.13878125,1.17059375,0.94871875,-0.22925,-0.36793750000000003,1.1278125,0.01718093832867299,0.020794486607658116,True
25063,43511,0,43512,4846.0,43501.0,42163.0,0.008601,-0.004148,-0.003172,0.28,-2.4850000000000003,-3.9025000000000003,0.97275,0.18703125,0.14178125,1.1715,0.95121875,-0.22996875,-0.3720625,1.136125,0.017210092357217755,0.021083310039927892,True
25064,43512,0,43513,4844.0,43500.0,42161.0,0.007137,-0.0035989999999999998,-0.002928,0.2625,-2.1350000000000002,-3.9200000000000004,0.9885625,0.19653125,0.1431875,1.17196875,0.9505,-0.22940625,-0.3654375,1.1354375,0.017579361854977358,0.020874856033264333,True
25065,43513,0,43514,4839.0,43499.0,42159.0,0.002196,0.0013419999999999999,-0.0008539999999999999,0.31500000000000006,-1.61,-3.7975000000000003,0.98721875,0.19187500000000002,0.1425625,1.1740625,0.9479375,-0.22959375,-0.3703125,1.1329375,0.017394792267204234,0.021045072770404565,True
25066,43514,0,43515,4838.0,43500.0,42158.0,-0.0013419999999999999,0.0042699999999999995,0.0030499999999999998,0.525,-1.1900000000000002,-3.7625,0.9893125,0.19559375,0.1398125,1.178,0.9485625,-0.22934375,-0.37228125,1.1204687500000001,0.017538134931945896,0.02101131792905106,True
25067,43515,0,43516,4834.0,43498.0,42154.0,-0.00793,0.0025009999999999998,0.004697,0.6300000000000001,-0.5425000000000001,-3.4650000000000003,0.9606250000000001,0.18678125,0.14259375,1.1873125,0.9449062500000001,-0.23353125,-0.37140625,1.1345,0.01734425312035364,0.021090288952858437,True
25068,43516,0,43517,4832.0,43499.0,42152.0,-0.006405,0.0028669999999999998,0.0040869999999999995,0.5775,-0.77,-3.4125000000000005,0.968,0.1968125,0.13528125,1.170625,0.943625,-0.2300625,-0.37375,1.12575,0.017617577338069186,0.0208844043284271,True
25069,43517,0,43518,4829.0,43497.0,42151.0,-0.004941,0.0018909999999999999,0.0025009999999999998,0.56,-0.9625000000000001,-3.4650000000000003,0.981875,0.19540625,0.14353125,1.1865937500000001,0.9519375,-0.22953125,-0.3736875,1.13621875,0.01753799921325345,0.021220373404721795,True
25070,43518,0,43519,4827.0,43498.0,42154.0,-0.003172,0.001586,0.0018909999999999999,0.56,-1.3650000000000002,-3.5875000000000004,0.968875,0.19671875,0.14078125,1.17265625,0.9428125,-0.226875,-0.372375,1.1282812500000001,0.017484456827386943,0.02105483154596136,True
25071,43519,0,43520,4826.0,43496.0,42152.0,-0.000915,-6.1e-05,0.001403,0.47250000000000003,-1.8025000000000002,-3.6400000000000006,0.9736250000000001,0.19037500000000002,0.14265625,1.1800625,0.9497187500000001,-0.23115625,-0.3676875,1.1343125,0.017396249921008206,0.02094346252593727,True
25072,43520,0,43521,4823.0,43496.0,42151.0,0.002196,-0.000305,-0.001769,0.2625,-2.3800000000000003,-3.8675,0.97075,0.19475,0.1384375,1.1660625,0.94346875,-0.228625,-0.37303125,1.12721875,0.01747416537257067,0.02098502827792501,True
25073,43521,0,43522,4824.0,43497.0,42153.0,0.003843,-0.0015249999999999999,-0.001586,0.12250000000000001,-2.4675000000000002,-3.8850000000000002,0.9713125,0.19225,0.14090625,1.17578125,0.9430937500000001,-0.23325,-0.37043750000000003,1.12903125,0.017558519802337694,0.02098213255301633,True
25074,43522,0,43523,4823.0,43497.0,42152.0,0.00488,-0.000244,-0.003172,0.15750000000000003,-2.5375,-3.99,0.976,0.19503125000000002,0.1408125,1.1849687500000001,0.9500625,-0.2300625,-0.37125,1.13353125,0.017544063289147524,0.02101092475765503,True
25075,43523,0,43524,4822.0,43496.0,42150.0,0.003965,-0.001464,-0.0034159999999999998,0.17500000000000002,-2.45,-3.9725000000000006,0.9714375000000001,0.19515625,0.1389375,1.17665625,0.9430937500000001,-0.23071875,-0.37321875,1.1283125,0.017575830267106705,0.021013074032333132,True
25076,43524,0,43525,4823.0,43496.0,42153.0,0.003721,-0.002196,-0.0015249999999999999,0.29750000000000004,-2.0650000000000004,-3.7975000000000003,0.97540625,0.19409375,0.14065625,1.182375,0.952125,-0.23015625,-0.37053125000000003,1.13425,0.017509173099121058,0.020975640405869283,True
25077,43525,0,43526,4822.0,43493.0,42154.0,-0.002379,-0.002257,-0.000366,0.10500000000000001,-1.61,-3.7975000000000003,0.969125,0.19490625,0.1386875,1.17653125,0.94621875,-0.22943750000000002,-0.37275,1.1244687500000001,0.01751356175726325,0.020983988265583488,True
25078,43526,0,43527,4822.0,43496.0,42155.0,-0.0018909999999999999,-0.001586,-0.001403,0.14,-1.54,-3.7275000000000005,0.97359375,0.19037500000000002,0.14046875,1.1766875,0.9445625,-0.23240625,-0.37053125000000003,1.13340625,0.01744693637265181,0.02096794668766197,True
25079,43527,0,43528,4823.0,43496.0,42157.0,-0.000183,-0.000305,-0.002196,0.1925,-1.61,-3.7450000000000006,0.976,0.19396875,0.14078125,1.181125,0.9500937500000001,-0.2265,-0.370875,1.13084375,0.017355736486904836,0.020994578569706667,True
25080,43528,0,43529,4824.0,43494.0,42158.0,-6.1e-05,0.001403,-0.0017079999999999999,0.29750000000000004,-1.8200000000000003,-3.8325000000000005,0.97671875,0.19359375,0.1405,1.182,0.95246875,-0.22946875,-0.37075,1.13575,0.017460659346895505,0.020978016679831353,True
25081,43529,0,43530,4825.0,43493.0,42158.0,-0.000793,-0.000122,0.000305,0.31500000000000006,-1.6800000000000002,-3.7975000000000003,0.978875,0.195,0.139125,1.18321875,0.93853125,-0.22890625,-0.37290625,1.1356875,0.01749588882081708,0.02100821480819506,True
25082,43530,0,43531,4827.0,43495.0,42157.0,0.000793,-0.0008539999999999999,0.002257,0.49000000000000005,-1.6975000000000002,-3.8500000000000005,0.963,0.19775,0.13753125,1.1771562500000001,0.9435625,-0.2303125,-0.373625,1.1283750000000001,0.01766640442627391,0.020971695839252468,True
25083,43531,0,43532,4827.0,43496.0,42162.0,0.002257,0.000305,0.0037819999999999998,0.45500000000000007,-1.715,-3.9200000000000004,0.970375,0.1913125,0.135875,1.17675,0.94325,-0.227625,-0.37443750000000003,1.12734375,0.017291727934537537,0.020936380583141664,True
25084,43532,0,43533,4830.0,43497.0,42162.0,0.0015249999999999999,0.002013,0.003477,0.5425000000000001,-1.61,-3.8850000000000002,0.97115625,0.19659375,0.13959375000000002,1.1715625,0.94621875,-0.2323125,-0.371875,1.12296875,0.01769976555064648,0.02098602384921144,True
25085,43533,0,43534,4830.0,43500.0,42165.0,-6.1e-05,0.002806,0.001464,0.56,-1.54,-3.7975000000000003,0.96978125,0.1905625,0.1398125,1.1763125,0.94928125,-0.233125,-0.3711875,1.12840625,0.01748381605756583,0.02096738207770959,True
25086,43534,0,43535,4833.0,43498.0,42164.0,-0.00122,0.000732,0.000488,0.49000000000000005,-1.5750000000000002,-3.7625,0.97265625,0.19062500000000002,0.13790625,1.175875,0.9497187500000001,-0.231,-0.37125,1.12771875,0.017400231108910074,0.020891675642406522,True
25087,43535,0,43536,4833.0,43498.0,42166.0,-0.002806,-0.00122,-0.000244,0.36750000000000005,-1.61,-3.6925000000000003,0.9654375000000001,0.19618750000000001,0.13884375000000002,1.1795,0.93975,-0.23046875,-0.37425,1.1274375,0.017608254070610996,0.0210506477122373,True
25088,43536,0,43537,4835.0,43498.0,42166.0,-0.002562,-0.002257,-0.000549,0.35000000000000003,-1.7675,-3.6750000000000003,0.9707187500000001,0.19446875,0.14071875,1.18090625,0.94303125,-0.22940625,-0.3735625,1.13184375,0.017494238019142544,0.0210999623054693,True
25089,43537,0,43538,4835.0,43498.0,42165.0,-0.002257,-0.002379,-0.001952,0.29750000000000004,-1.9075000000000002,-3.7275000000000005,0.975875,0.1944375,0.14134375,1.18046875,0.9490000000000001,-0.229375,-0.3706875,1.1324375,0.017491681068950396,0.02101012743280221,True
25090,43538,0,43539,4836.0,43498.0,42167.0,0.000915,-0.001586,-0.00061,0.21000000000000002,-2.0825,-3.7975000000000003,0.96209375,0.19865625,0.139875,1.1809375,0.9400937500000001,-0.22925,-0.37053125000000003,1.12465625,0.017660730315630903,0.02094358324667215,True
25091,43539,0,43540,4835.0,43496.0,42164.0,0.00244,0.001769,-0.001952,0.36750000000000005,-2.1700000000000004,-3.7975000000000003,0.97446875,0.19525,0.1415625,1.17946875,0.9495625,-0.22968750000000002,-0.36734375,1.135375,0.017537886115947636,0.020884765086469467,True
25092,43540,0,43541,4835.0,43495.0,42165.0,0.001403,0.002074,6.1e-05,0.29750000000000004,-2.1175,-3.7800000000000002,0.97175,0.19459375,0.1404375,1.17875,0.9449062500000001,-0.2300625,-0.37093750000000003,1.1245625000000001,0.017526007206956237,0.02098298434354444,True
25093,43541,0,43542,4836.0,43497.0,42165.0,0.000793,0.000122,0.001098,0.3325,-2.0300000000000002,-3.7450000000000006,0.9754375000000001,0.19465625,0.1404375,1.1773125,0.9556250000000001,-0.229875,-0.3718125,1.12590625,0.017520983909326812,0.021018133140487602,True
25094,43542,0,43543,4836.0,43496.0,42165.0,0.001464,-0.000488,0.001403,0.24500000000000002,-2.1525000000000003,-3.6925000000000003,0.97471875,0.1946875,0.1403125,1.177375,0.9523125,-0.23125,-0.37059375,1.1261875000000001,0.017578024245550685,0.020964046064737344,True
25095,43543,0,43544,4835.0,43495.0,42166.0,0.000793,0.000122,-0.000976,0.2625,-2.2225,-3.6750000000000003,0.9713125,0.19584375,0.138125,1.17646875,0.93875,-0.23065625,-0.37575000000000003,1.12859375,0.017601669372863147,0.021081402623509025,True
25096,43544,0,43545,4834.0,43497.0,42165.0,-0.000488,-0.001403,0.00042699999999999997,0.24500000000000002,-1.995,-3.6575,0.9713437500000001,0.19325,0.147625,1.176625,0.9395625,-0.234,-0.37203125,1.1242812500000001,0.01763018899067426,0.021321827658496866,True
25097,43545,0,43546,4835.0,43496.0,42165.0,0.000244,-0.001403,0.0,0.22750000000000004,-1.8375000000000001,-3.6225000000000005,0.97128125,0.18325,0.140625,1.1733437500000001,0.9519062500000001,-0.23596875,-0.36990625,1.12553125,0.01729737954048154,0.020949249650888582,True
25098,43546,0,43547,4837.0,43495.0,42164.0,-0.002074,0.00042699999999999997,-0.000793,0.17500000000000002,-1.9250000000000003,-3.6050000000000004,0.9819375,0.18771875000000002,0.142375,1.183,0.95796875,-0.2305,-0.36909375,1.1374375,0.017260013206495946,0.020988418988703673,True
25099,43547,0,43548,4835.0,43497.0,42165.0,-0.00244,0.001769,0.001281,0.29750000000000004,-1.6975000000000002,-3.6575,0.9801562500000001,0.19890625,0.13371875,1.177625,0.942625,-0.22690625,-0.37478125,1.12284375,0.01757601633514391,0.020861725682153553,True
25100,43548,0,43549,4836.0,43497.0,42164.0,-0.001098,0.000732,0.0030499999999999998,0.31500000000000006,-1.61,-3.7275000000000005,0.95715625,0.1914375,0.1368125,1.1660625,0.9390000000000001,-0.2331875,-0.36828125,1.125625,0.017522457580126428,0.02072750822342056,True
25101,43549,0,43550,4836.0,43496.0,42167.0,0.0017079999999999999,0.0015249999999999999,-0.000488,0.052500000000000005,-1.5925000000000002,-3.9550000000000005,0.9792500000000001,0.182625,0.14340625,1.1828750000000001,0.957875,-0.23225,-0.36890625,1.13709375,0.01712077912698986,0.021023204519078485,True
25102,43550,0,43551,4838.0,43496.0,42165.0,0.00061,0.001647,-0.001098,0.0175,-1.3825,-3.9725000000000006,0.99075,0.19818750000000002,0.140125,1.1870625000000001,0.9510000000000001,-0.2265,-0.37293750000000003,1.127125,0.01752987431118816,0.021050499144799433,True
25103,43551,0,43552,4838.0,43496.0,42168.0,0.0017079999999999999,-6.1e-05,0.000793,-0.052500000000000005,-1.2075,-4.095000000000001,0.9587187500000001,0.19059375,0.136625,1.164625,0.93871875,-0.235375,-0.3711875,1.11575,0.01757632180232408,0.020836592390091783,True
25104,43552,0,43553,4837.0,43495.0,42167.0,0.001769,-0.001952,0.000793,-0.08750000000000001,-0.8575,-4.2175,0.99346875,0.20253125,0.1466875,1.19675,0.9535625,-0.22890625,-0.36915625,1.13525,0.01780672621158869,0.021167895380046244,True
25105,43553,0,43554,4839.0,43494.0,42168.0,-0.0021349999999999997,-0.002806,-0.001647,-0.12250000000000001,-0.6300000000000001,-4.340000000000001,0.9608125000000001,0.2014375,0.13659375,1.16621875,0.94121875,-0.23121875,-0.3741875,1.12703125,0.01785532351731173,0.020955826732685957,True
25106,43554,0,43555,4840.0,43494.0,42169.0,-0.0050019999999999995,-0.000732,0.001403,-0.1925,-0.47250000000000003,-4.2,0.978125,0.19040625,0.14603125,1.19803125,0.95315625,-0.22915625,-0.3710625,1.1346875,0.017316430488577166,0.02121753001125823,True
25107,43555,0,43556,4841.0,43495.0,42170.0,-0.000915,-0.001769,0.0015249999999999999,-0.24500000000000002,-0.9100000000000001,-4.2525,0.95865625,0.1900625,0.13259375,1.16559375,0.94325,-0.2321875,-0.37246875,1.12825,0.017425170550533255,0.020722664789548657,True
25108,43556,0,43557,4840.0,43496.0,42172.0,0.003843,-0.002013,-0.00366,-0.24500000000000002,-1.4175000000000002,-4.112500000000001,0.9791562500000001,0.19346875,0.1436875,1.177125,0.94921875,-0.2293125,-0.371375,1.13096875,0.01744916410649291,0.021133912222843394,True
25109,43557,0,43558,4842.0,43495.0,42169.0,0.0060999999999999995,0.0015249999999999999,-0.005429,-0.21000000000000002,-1.6275000000000002,-4.2,0.9673125,0.1968125,0.14,1.17053125,0.9438125,-0.22893750000000002,-0.37215625,1.12778125,0.017571963277382675,0.021013990093716066,True
25110,43558,0,43559,4842.0,43494.0,42172.0,0.005978,0.004697,-0.002562,-0.0175,-1.435,-4.305000000000001,0.97865625,0.19178125000000001,0.14075000000000001,1.1798125,0.94296875,-0.22965625,-0.3715,1.11546875,0.017393457655842725,0.021018402642430708,True
25111,43559,0,43560,4844.0,43494.0,42171.0,-0.0017079999999999999,-0.0030499999999999998,0.000793,0.08750000000000001,-1.0150000000000001,-3.99,0.969375,0.19484375,0.14065625,1.1823125,0.94903125,-0.2295625,-0.37065625,1.13240625,0.017516050898566574,0.020980661938473654,True
25112,43560,0,43561,4845.0,43493.0,42171.0,-0.00366,-0.0028669999999999998,0.000793,0.08750000000000001,-0.9625000000000001,-3.8850000000000002,0.9638125000000001,0.19540625,0.141125,1.1851875,0.9521875,-0.22484375,-0.36993750000000003,1.1342812500000001,0.017347893110765678,0.02097102218665928,True
25113,43561,0,43562,4846.0,43494.0,42173.0,-0.003294,-0.0018909999999999999,0.0013419999999999999,0.15750000000000003,-1.05,-3.9025000000000003,0.97078125,0.19475,0.139375,1.174375,0.94603125,-0.222,-0.369625,1.13521875,0.01720543307736768,0.020886657057710162,True
25114,43562,0,43563,4846.0,43496.0,42172.0,-0.001647,-0.0013419999999999999,-0.000488,0.31500000000000006,-1.3475000000000001,-3.7275000000000005,0.97375,0.1945625,0.14125000000000001,1.18303125,0.951875,-0.22953125,-0.37034375,1.1346875,0.01750317600552012,0.020992471638813057,True
25115,43563,0,43564,4848.0,43495.0,42177.0,0.00183,-0.0017079999999999999,-0.001403,0.29750000000000004,-1.6625,-3.5525,0.9714375000000001,0.19865625,0.1378125,1.183125,0.946125,-0.22943750000000002,-0.37009375,1.1355625,0.017668332168256074,0.02084137448178672,True
25116,43564,0,43565,4849.0,43495.0,42176.0,0.004392,0.00122,0.002257,0.42000000000000004,-1.8375000000000001,-3.3600000000000003,0.9704375000000001,0.195625,0.1410625,1.180125,0.9468125000000001,-0.22915625,-0.36743750000000003,1.13053125,0.017531821810757443,0.020868012896308855,True
25117,43565,0,43566,4848.0,43497.0,42173.0,0.003294,0.002379,0.002196,0.5075000000000001,-1.6800000000000002,-3.2900000000000005,0.9706250000000001,0.19584375,0.1393125,1.1808750000000001,0.9430000000000001,-0.22903125,-0.37328125,1.13415625,0.017535781584333877,0.02103097013250934,True
25118,43566,0,43567,4848.0,43497.0,42175.0,-6.1e-05,0.00366,-0.000305,0.47250000000000003,-1.33,-3.115,0.9714375000000001,0.1950625,0.137875,1.1825,0.9431875000000001,-0.2230625,-0.36965625,1.13559375,0.01726144247862961,0.02082636065086064,True
25119,43567,0,43568,4852.0,43499.0,42175.0,-0.000305,0.004026,0.0013419999999999999,0.6300000000000001,-1.12,-2.9925,0.97421875,0.19475,0.1448125,1.17371875,0.95134375,-0.22803125,-0.37065625,1.12790625,0.017450086869935006,0.021151205150661465,True
25120,43568,0,43569,4852.0,43499.0,42178.0,-0.002989,0.002074,0.001586,0.7000000000000001,-0.9450000000000001,-2.9400000000000004,0.978,0.20265625,0.146125,1.18428125,0.94903125,-0.23115625,-0.370875,1.1325,0.01790308706378797,0.021213846445808777,True
25121,43569,0,43570,4854.0,43499.0,42179.0,-0.001464,-0.002379,-6.1e-05,0.42000000000000004,-0.7175,-2.7300000000000004,0.9781875,0.195,0.145,1.18134375,0.9493125,-0.2295625,-0.371,1.13425,0.01752249963242217,0.021172705264453657,True
25122,43570,0,43571,4856.0,43497.0,42177.0,-0.001037,-0.004026,0.000549,0.385,-0.6125,-2.7825,0.972375,0.19546875,0.14053125,1.18390625,0.9510000000000001,-0.2288125,-0.370375,1.1342812500000001,0.01751143395905185,0.020964234239317203,True
25123,43571,0,43572,4855.0,43498.0,42176.0,-0.0023179999999999997,-0.003904,-0.000915,0.10500000000000001,-0.385,-2.765,0.9712500000000001,0.1919375,0.1403125,1.1774375,0.9434375,-0.22690625,-0.36896875,1.12709375,0.01728837127109451,0.020898760847235277,True
25124,43572,0,43573,4853.0,43498.0,42173.0,-0.004331,-0.004148,-0.000549,0.15750000000000003,-0.21000000000000002,-2.8175000000000003,0.979,0.1953125,0.1420625,1.1832500000000001,0.94734375,-0.23059375000000001,-0.3700625,1.1306875,0.01757721062860872,0.021014513196262834,True
25125,43573,0,43574,4852.0,43498.0,42172.0,-0.00366,0.000549,0.000122,0.24500000000000002,-0.15750000000000003,-2.8875,0.9702500000000001,0.194625,0.13740625,1.177625,0.9433750000000001,-0.228125,-0.37278125,1.1283125,0.017448729524055205,0.0209326746408968,True
