frame_seq,absolute_seq_u64,segment_id,sample_seq,PPG_G,PPG_R,PPG_IR,ACC_X,ACC_Y,ACC_Z,GYRO_X,GYRO_Y,GYRO_Z,Uh1,Uh2,Uh3,Uh4,Uc1,Uc2,Uc3,Uc4,UD1,UD2,parser_valid
26077,24273,0,24274,4103.0,39529.0,40404.0,0.002745,-0.0013419999999999999,0.000305,0.21000000000000002,-1.3825,-3.7800000000000002,0.799625,0.15184375,0.06515625,1.04246875,0.79146875,-0.36325,-0.40871875,1.03725,0.021142242927359854,0.01941416937339245,True
26078,24274,0,24275,4103.0,39531.0,40406.0,-6.1e-05,-0.000183,-0.00061,0.2625,-1.1900000000000002,-3.8150000000000004,0.7974375,0.15075,0.0663125,1.04125,0.79196875,-0.363375,-0.41796875,1.041125,0.021102371900444825,0.01983298672212446,True
26079,24275,0,24276,4103.0,39530.0,40406.0,-0.0021349999999999997,0.002745,-0.0021349999999999997,0.1925,-1.1025,-3.7100000000000004,0.80875,0.15409375,0.06653125,1.04990625,0.77225,-0.3656875,-0.4221875,1.01915625,0.02133250908680496,0.02001126025258794,True
26080,24276,0,24277,4103.0,39531.0,40408.0,-0.002013,0.0032329999999999998,-0.000305,0.29750000000000004,-1.1900000000000002,-3.6400000000000006,0.81590625,0.15375,0.066375,1.03215625,0.7646875,-0.3705,-0.42053125,1.02178125,0.021511663691758477,0.019938397122298477,True
26081,24277,0,24278,4105.0,39532.0,40411.0,0.002196,0.00183,-0.000549,0.385,-1.8025000000000002,-3.7975000000000003,0.81415625,0.153875,0.06675,1.0479375,0.7720312500000001,-0.366875,-0.42212500000000003,1.02040625,0.021371226306204635,0.020017709351663707,True
26082,24278,0,24279,4105.0,39532.0,40411.0,0.00366,0.00042699999999999997,0.001037,0.42000000000000004,-1.7850000000000001,-3.7975000000000003,0.81459375,0.15428125,0.06684375000000001,1.0405625,0.7721250000000001,-0.3669375,-0.42159375,1.028875,0.021390408622339187,0.020000230328948126,True
26083,24279,0,24280,4105.0,39530.0,40411.0,0.0013419999999999999,-0.0018909999999999999,0.001769,0.43750000000000006,-1.6275000000000002,-3.9200000000000004,0.8170000000000001,0.15196875,0.06425,1.041625,0.7721250000000001,-0.3546875,-0.41509375,1.03196875,0.020803233463783922,0.019633090698248905,True
26084,24280,0,24281,4105.0,39532.0,40411.0,0.001464,-0.0026839999999999998,0.000366,0.385,-1.5750000000000002,-3.9725000000000006,0.80815625,0.15315625,0.064125,1.03784375,0.788875,-0.36903125000000003,-0.4045,1.0190937500000001,0.021428324115264123,0.019202401196500647,True
26085,24281,0,24282,4107.0,39531.0,40417.0,0.0011589999999999999,-0.0017079999999999999,-0.001281,0.385,-1.7325000000000002,-3.9725000000000006,0.80875,0.154125,0.066625,1.0426875,0.7850625,-0.3649375,-0.42146875,1.0276875,0.021303666385353952,0.019986256969085858,True
26086,24282,0,24283,4107.0,39534.0,40416.0,-0.001098,-0.000305,-0.000305,0.14,-1.2425000000000002,-3.8150000000000004,0.8140000000000001,0.15584375,0.0649375,1.04165625,0.77265625,-0.36171875000000003,-0.41425,1.02025,0.02124490908507841,0.01962736926180407,True
26087,24283,0,24284,4109.0,39536.0,40419.0,-0.0050019999999999995,-0.000976,-0.000305,0.24500000000000002,-1.12,-3.7450000000000006,0.8005625000000001,0.15321875000000001,0.064,1.0489375,0.79103125,-0.366875,-0.41350000000000003,1.01884375,0.021344294251930133,0.019558850635918654,True
26088,24284,0,24285,4107.0,39535.0,40423.0,-0.0051849999999999995,-0.000122,-0.001769,0.28,-0.9100000000000001,-3.7275000000000005,0.8084375,0.1540625,0.06703125,1.041125,0.77465625,-0.3698125,-0.41834375,1.0190625,0.021496882669901542,0.01987747428610919,True
26089,24285,0,24286,4109.0,39537.0,40424.0,-0.003355,0.000976,-0.000793,0.29750000000000004,-0.9450000000000001,-3.6400000000000006,0.8133750000000001,0.1576875,0.07100000000000001,1.035625,0.776625,-0.36453125000000003,-0.41684375,1.02153125,0.02143356441548614,0.019979803900739626,True
26090,24286,0,24287,4109.0,39536.0,40423.0,-0.0026839999999999998,0.00122,0.001403,0.56,-1.1900000000000002,-3.6925000000000003,0.8123750000000001,0.15056250000000002,0.07334375,1.03696875,0.7866562500000001,-0.364,-0.41628125,1.0246875,0.021119787391232967,0.02005321756358782,True
26091,24287,0,24288,4111.0,39536.0,40426.0,0.0013419999999999999,-0.001098,0.003721,0.6125,-2.0125,-3.9375000000000004,0.80815625,0.152875,0.066875,1.0465,0.78615625,-0.36803125000000003,-0.417625,1.0247187500000001,0.02137662434260051,0.019842224622583074,True
26092,24288,0,24289,4112.0,39537.0,40426.0,0.0032329999999999998,0.000793,0.004331,0.56,-2.5200000000000005,-4.0075,0.807,0.15359375,0.06628125,1.0451875,0.77846875,-0.3659375,-0.41984375,1.02878125,0.021322029985507432,0.019906966030443993,True
26093,24289,0,24290,4113.0,39536.0,40427.0,0.007869,0.001647,0.002806,0.385,-3.0100000000000002,-4.077500000000001,0.8149375,0.15434375,0.06690625,1.04559375,0.77875,-0.364875,-0.42121875000000003,1.0251875,0.021310133953077945,0.01998774119330142,True
26094,24290,0,24291,4115.0,39537.0,40430.0,0.01098,0.001464,-0.003172,0.2625,-3.1675000000000004,-4.2,0.81321875,0.15446875000000002,0.06571875,1.0463125,0.776875,-0.36440625,-0.41671875,1.02565625,0.02129643524557468,0.019758490276257944,True
26095,24291,0,24292,4117.0,39539.0,40430.0,0.010126,0.002257,-0.0055509999999999995,0.17500000000000002,-2.9925,-4.165,0.8150000000000001,0.15425,0.06725,1.039625,0.7788125,-0.3641875,-0.41753125,1.03003125,0.021278669768897484,0.019853819169372417,True
26096,24292,0,24293,4116.0,39540.0,40435.0,-0.000183,-0.0037819999999999998,-0.005673,0.22750000000000004,-1.3825,-3.8675,0.80825,0.1504375,0.06409375,1.045125,0.7866875,-0.36715625,-0.4170625,1.02475,0.02124145077454412,0.01970573855884589,True
26097,24293,0,24294,4118.0,39541.0,40436.0,-0.0064659999999999995,-0.002989,-0.0008539999999999999,0.49000000000000005,-0.6300000000000001,-3.5000000000000004,0.80865625,0.15325,0.0655,1.0511875,0.7795,-0.36796875,-0.41884375,1.02434375,0.021389503382385947,0.01983483554580671,True
26098,24294,0,24295,4121.0,39541.0,40436.0,-0.01098,-0.0017079999999999999,0.0051849999999999995,0.5425000000000001,-0.07,-3.3775000000000004,0.80871875,0.1538125,0.0656875,1.0464375000000001,0.77846875,-0.3643125,-0.419125,1.03328125,0.021265734463059443,0.019853803115385996,True
26099,24295,0,24296,4122.0,39540.0,40437.0,-0.011163,-0.00122,0.0062829999999999995,0.5075000000000001,-0.0175,-3.3075,0.8253125,0.15571875000000002,0.06690625,1.039625,0.7791250000000001,-0.36415625,-0.417625,1.03265625,0.021337697668065154,0.019843504435832722,True
26100,24296,0,24297,4122.0,39541.0,40441.0,-0.006893,0.0,0.002806,0.5075000000000001,-0.035,-3.2725000000000004,0.8096875,0.15071875,0.06809375,1.0402500000000001,0.7857500000000001,-0.36509375,-0.41690625000000003,1.0322500000000001,0.02117014222446815,0.019863286324408935,True
26101,24297,0,24298,4123.0,39542.0,40442.0,-0.008662,0.000122,-0.0006709999999999999,0.35000000000000003,-0.29750000000000004,-3.0625000000000004,0.8215,0.1553125,0.06803125,1.05078125,0.784625,-0.36412500000000003,-0.41709375,1.0268125000000001,0.021319768306885634,0.01986825315768794,True
26102,24298,0,24299,4125.0,39543.0,40444.0,-0.005978,0.005673,-0.000915,0.4025,-0.8925000000000001,-3.3775000000000004,0.8163125,0.1583125,0.06759375000000001,1.0545,0.78,-0.36465625,-0.41759375,1.025125,0.0214642367466194,0.01987040594448419,True
26103,24299,0,24300,4125.0,39542.0,40443.0,-0.001098,0.006771,0.000305,0.7350000000000001,-1.8725000000000003,-3.6925000000000003,0.8146875,0.15525,0.06653125,1.052,0.77240625,-0.36390625,-0.41550000000000004,1.0316875,0.021308416009850638,0.019742837541725542,True
26104,24300,0,24301,4127.0,39543.0,40446.0,0.006161,0.004514,0.001037,0.8225000000000001,-2.9400000000000004,-4.0600000000000005,0.8161875000000001,0.15837500000000002,0.064625,1.0541875,0.778625,-0.36459375,-0.42,1.03096875,0.021464291806630266,0.019845413595413593,True
26105,24301,0,24302,4127.0,39543.0,40445.0,0.014761999999999999,0.0011589999999999999,0.001464,0.6475000000000001,-4.0075,-4.41,0.81640625,0.154875,0.0650625,1.05365625,0.7792187500000001,-0.36384375,-0.41734375,1.01784375,0.02129051373513262,0.01975670469888847,True
26106,24302,0,24303,4129.0,39543.0,40447.0,0.025071,-0.007259,-0.0008539999999999999,0.49000000000000005,-4.235,-4.62,0.8175,0.1546875,0.06796875000000001,1.04228125,0.7798437500000001,-0.35884375,-0.41521875,1.02915625,0.02108192224846469,0.019790422725579716,True
26107,24303,0,24304,4128.0,39541.0,40442.0,0.015555,-0.008052,-0.003294,0.2625,-3.0100000000000002,-4.1825,0.81896875,0.15521875000000002,0.0676875,1.0383437500000001,0.78265625,-0.3640625,-0.41640625000000003,1.02903125,0.021313409863400246,0.019826576648641733,True
26108,24304,0,24305,4127.0,39540.0,40432.0,0.003965,-0.0050019999999999995,-0.0051849999999999995,0.14,-1.155,-3.7275000000000005,0.8143125,0.15790625,0.06771875000000001,1.04315625,0.78259375,-0.364375,-0.416125,1.0286250000000001,0.021436267090783164,0.019816565896513063,True
26109,24305,0,24306,4127.0,39537.0,40425.0,-0.010126,-0.000122,-0.003477,0.15750000000000003,0.5775,-3.3950000000000005,0.81884375,0.15,0.06525,1.0456875,0.7815625,-0.36325,-0.41609375,1.0249375,0.02106656542128,0.01971419977857842,True
26110,24306,0,24307,4125.0,39533.0,40416.0,-0.023972999999999998,0.0026839999999999998,0.000549,0.17500000000000002,1.7850000000000001,-3.115,0.8054375,0.1536875,0.0653125,1.04675,0.772,-0.36440625,-0.4180625,1.0245625,0.021264370027486306,0.01979579665667577,True
26111,24307,0,24308,4122.0,39531.0,40408.0,-0.022997,0.005124,0.005673,0.6825000000000001,1.4700000000000002,-3.1675000000000004,0.80821875,0.153875,0.0706875,1.04965625,0.77990625,-0.3611875,-0.41775,1.0198125,0.021142750122505317,0.02000337868968271,True
26112,24308,0,24309,4119.0,39530.0,40404.0,-0.016836,0.0021349999999999997,0.008967,0.6825000000000001,0.4025,-3.3950000000000005,0.81578125,0.15415625,0.06578125,1.047625,0.77953125,-0.36359375,-0.41925,1.02621875,0.021250970005194735,0.019862659582091997,True
26113,24309,0,24310,4117.0,39528.0,40398.0,-0.0068319999999999995,-0.002562,0.008052,0.7000000000000001,-0.9975,-3.6925000000000003,0.8136875,0.15375,0.06665625,1.0414375,0.77853125,-0.36228125,-0.417125,1.04459375,0.021181565252638233,0.019813194632865256,True
26114,24310,0,24311,4113.0,39528.0,40396.0,0.004941,-0.002257,0.0037819999999999998,0.5425000000000001,-2.5025000000000004,-3.9375000000000004,0.8102812500000001,0.15106250000000002,0.06625,1.04096875,0.76903125,-0.362,-0.41715625,1.03340625,0.02105994992200969,0.019797811221362028,True
26115,24311,0,24312,4111.0,39527.0,40394.0,0.015921,-0.001464,-0.0073809999999999995,0.22750000000000004,-4.077500000000001,-4.4975000000000005,0.8089375,0.1536875,0.063125,1.04178125,0.810125,-0.369625,-0.4110625,1.00434375,0.021473966054052943,0.019425106957142894,True
26116,24312,0,24313,4108.0,39523.0,40390.0,0.014884,-0.00042699999999999997,-0.0064659999999999995,0.21000000000000002,-4.0075,-4.340000000000001,0.7984687500000001,0.15365625,0.06715625,1.04671875,0.7884375,-0.37453125,-0.41771875,1.01384375,0.021669647493221023,0.019857506139880493,True
26117,24313,0,24314,4106.0,39525.0,40390.0,0.013847,0.002196,-0.0059169999999999995,0.14,-3.5175000000000005,-4.2,0.80021875,0.154125,0.0665,1.0415625,0.76684375,-0.36762500000000004,-0.42712500000000003,1.03646875,0.021411606588660162,0.020208067875363965,True
26118,24314,0,24315,4106.0,39526.0,40391.0,0.009882,0.002257,-0.001769,0.21000000000000002,-2.7825,-4.112500000000001,0.8105625,0.15040625,0.06353125,1.0406875,0.770875,-0.3599375,-0.40909375000000003,1.02734375,0.020950125590428956,0.019362660688703365,True
26119,24315,0,24316,4102.0,39524.0,40393.0,0.002989,0.002013,0.003294,0.28,-1.8025000000000002,-3.9375000000000004,0.8075625000000001,0.14990625,0.06575,1.042,0.79984375,-0.35959375,-0.41250000000000003,1.031125,0.020915783950625204,0.01959037378392217,True
26120,24316,0,24317,4104.0,39525.0,40393.0,-0.0068319999999999995,0.0006709999999999999,0.0032329999999999998,0.28,-0.4025,-3.5000000000000004,0.80859375,0.15315625,0.063625,1.04646875,0.80184375,-0.36178125,-0.41196875,1.00996875,0.021137103839646374,0.01948199077552891,True
26121,24317,0,24318,4103.0,39525.0,40397.0,-0.007625,-0.0017079999999999999,0.002562,0.3325,-0.1925,-3.4125000000000005,0.8021875,0.15484375,0.06521875,1.04209375,0.79753125,-0.37034375,-0.41115625,1.04040625,0.02155027050039046,0.01951464302310547,True
26122,24318,0,24319,4100.0,39527.0,40397.0,-0.007076,-0.002257,0.000305,0.15750000000000003,-0.17500000000000002,-3.4475000000000002,0.8100937500000001,0.15209375,0.0673125,1.041625,0.793875,-0.35981250000000004,-0.4141875,1.045375,0.0210143756237861,0.019722139022648202,True
26123,24319,0,24320,4101.0,39527.0,40400.0,-0.005856,-0.003294,-0.004148,0.08750000000000001,-0.35000000000000003,-3.3075,0.815625,0.15140625,0.06715625,1.041875,0.77878125,-0.3579375,-0.4224375,1.04228125,0.02091079140013394,0.02004688311721547,True
26124,24320,0,24321,4102.0,39528.0,40400.0,-0.006344,0.000305,-0.0042699999999999995,0.21000000000000002,-0.77,-3.2375000000000003,0.80825,0.15065625,0.06359375,1.04075,0.77690625,-0.36153125,-0.41215625,1.01828125,0.0210244378624599,0.019488241641907402,True
26125,24321,0,24322,4102.0,39527.0,40403.0,-0.00244,-0.00042699999999999997,0.000915,0.2625,-1.5225000000000002,-3.7800000000000002,0.8008125,0.15365625,0.06665625,1.03975,0.7880625,-0.37134375000000003,-0.41609375,1.02484375,0.021541692792380395,0.01977179498665711,True
26126,24322,0,24323,4100.0,39527.0,40403.0,-0.000549,-0.0008539999999999999,0.003965,0.4025,-1.8900000000000001,-3.8850000000000002,0.81134375,0.15553125,0.06459375,1.042875,0.7811250000000001,-0.36628125,-0.41400000000000003,1.017375,0.021415352414517502,0.01960325018432047,True
26127,24323,0,24324,4102.0,39529.0,40405.0,0.002074,0.0026839999999999998,0.002379,0.45500000000000007,-2.0475000000000003,-3.8675,0.8085,0.15159375,0.06478125,1.04103125,0.7790625,-0.3660625,-0.41625,1.0235625,0.021244969309259547,0.019701274765780985,True
26128,24324,0,24325,4101.0,39527.0,40406.0,0.0040869999999999995,0.0013419999999999999,0.0018909999999999999,0.3325,-2.0475000000000003,-3.9550000000000005,0.80903125,0.15081250000000002,0.066875,1.0425,0.7859375000000001,-0.36371875000000004,-0.41631250000000003,1.031875,0.021118748549007943,0.019789536196344146,True
26129,24325,0,24326,4101.0,39526.0,40408.0,0.0044529999999999995,0.000366,-0.001281,0.3325,-2.1350000000000002,-4.077500000000001,0.81346875,0.1525,0.0664375,1.04684375,0.77890625,-0.36462500000000003,-0.41946875,1.02790625,0.021224418598685596,0.019898313717410417,True
26130,24326,0,24327,4102.0,39528.0,40410.0,0.0032329999999999998,0.000305,-0.003355,0.22750000000000004,-2.1875,-4.077500000000001,0.80834375,0.154125,0.0668125,1.041625,0.765875,-0.36793750000000003,-0.4159375,1.02553125,0.021424156229881995,0.01977192151642754,True
26131,24327,0,24328,4103.0,39528.0,40408.0,0.003294,-0.001464,0.000488,0.24500000000000002,-1.995,-4.165,0.81365625,0.15390625,0.06609375,1.04671875,0.7868125,-0.36453125000000003,-0.41678125,1.028,0.02127836955615553,0.019776357704805993,True
26132,24328,0,24329,4104.0,39530.0,40412.0,0.0008539999999999999,-0.004514,0.0028669999999999998,0.3325,-1.7500000000000002,-4.077500000000001,0.80875,0.15434375,0.06515625,1.04175,0.775625,-0.36328125,-0.4138125,1.0250625,0.02124611191277858,0.01961876089611158,True
26133,24329,0,24330,4103.0,39528.0,40413.0,0.000549,-0.002196,0.001464,0.385,-1.7325000000000002,-3.9550000000000005,0.80884375,0.1584375,0.06659375000000001,1.04228125,0.78596875,-0.36684375,-0.41734375,1.0245312500000001,0.021557213375244792,0.019819416270453253,True
26134,24330,0,24331,4104.0,39529.0,40410.0,-0.000915,-0.000305,0.001403,0.3325,-1.435,-3.8325000000000005,0.8140937500000001,0.15471875000000002,0.0666875,1.0463125,0.787,-0.36234375,-0.4161875,1.03025,0.021223840583892917,0.019776838623966172,True
26135,24331,0,24332,4104.0,39531.0,40407.0,-0.002074,6.1e-05,-0.000793,0.22750000000000004,-1.0850000000000002,-3.7275000000000005,0.80971875,0.15862500000000002,0.06028125,1.04134375,0.7786875,-0.3640625,-0.41759375,1.0243125,0.021453216186750463,0.01957092926079172,True
26136,24332,0,24333,4103.0,39529.0,40409.0,0.0,0.0015249999999999999,-0.003294,0.28,-1.3125000000000002,-3.7800000000000002,0.7961875,0.14596875,0.06828125,1.0379375,0.78140625,-0.36696875,-0.41584375,1.024875,0.021050525621903626,0.019828313326259717,True
26137,24333,0,24334,4102.0,39527.0,40404.0,-6.1e-05,0.0028669999999999998,-0.0051849999999999995,0.29750000000000004,-1.33,-3.7450000000000006,0.82515625,0.15775,0.061875,1.03946875,0.78096875,-0.3648125,-0.41890625000000004,1.0258125,0.021447425462436866,0.019688893723485264,True
26138,24334,0,24335,4104.0,39526.0,40406.0,-0.00183,-0.0006709999999999999,-0.002013,0.385,-1.2950000000000002,-3.6925000000000003,0.80459375,0.1476875,0.0694375,1.03275,0.7792187500000001,-0.36621875,-0.41646875,1.02525,0.021090931476596055,0.019900758581234232,True
26139,24335,0,24336,4102.0,39528.0,40403.0,-0.001952,-0.000549,0.003843,0.4025,-1.3125000000000002,-3.8150000000000004,0.81925,0.1605625,0.064625,1.05384375,0.784875,-0.36375,-0.417125,1.03209375,0.02152018880508953,0.01973000506816425,True
26140,24336,0,24337,4102.0,39524.0,40401.0,0.001647,-0.00122,0.0021349999999999997,0.5425000000000001,-1.7500000000000002,-3.7450000000000006,0.80121875,0.14578125,0.06996875,1.036,0.7789375000000001,-0.3685625,-0.41615625,1.0259375,0.021106856426184352,0.01990997252075662,True
26141,24337,0,24338,4100.0,39525.0,40399.0,0.000793,-0.000183,0.0008539999999999999,0.5425000000000001,-1.7500000000000002,-3.7975000000000003,0.82278125,0.1554375,0.0694375,1.0481875,0.7868437500000001,-0.36334375,-0.41603125,1.0289375,0.02129351600188295,0.019883196619024643,True
26142,24338,0,24339,4101.0,39525.0,40399.0,-0.000244,-0.000244,0.000244,0.385,-1.54,-3.9375000000000004,0.82353125,0.1561875,0.0681875,1.05803125,0.78521875,-0.36465625,-0.4159375,1.03021875,0.021377020248336154,0.019828237191383703,True
26143,24339,0,24340,4100.0,39525.0,40397.0,-0.000122,0.001952,-0.002379,0.35000000000000003,-1.435,-3.7975000000000003,0.8274375,0.156125,0.07159375,1.05240625,0.78525,-0.363875,-0.4171875,1.03215625,0.021343074531452816,0.020017917706533564,True
26144,24340,0,24341,4098.0,39525.0,40399.0,0.000183,0.002806,-0.00244,0.36750000000000005,-1.4875,-3.6400000000000006,0.822875,0.155,0.06540625,1.0539687500000001,0.7867500000000001,-0.36384375,-0.41625,1.03196875,0.021295644288475624,0.019726872472226487,True
26145,24341,0,24342,4098.0,39527.0,40398.0,-0.00061,0.00042699999999999997,0.0017079999999999999,0.5075000000000001,-1.3475000000000001,-3.7275000000000005,0.8018125,0.15178125,0.06265625,1.036125,0.77865625,-0.36453125000000003,-0.41984375,1.02525,0.021191152610416014,0.01975852118218406,True
26146,24342,0,24343,4099.0,39526.0,40398.0,-0.0006709999999999999,0.00042699999999999997,0.000183,0.47250000000000003,-1.3825,-3.6400000000000006,0.8061875000000001,0.151125,0.0698125,1.0366250000000001,0.779,-0.36646875,-0.41550000000000004,1.02565625,0.02124205010215114,0.01987722962871946,True
26147,24343,0,24344,4097.0,39525.0,40400.0,0.00042699999999999997,0.001281,0.001464,0.6125,-1.3475000000000001,-3.5700000000000003,0.81546875,0.1525625,0.06859375,1.0425312500000001,0.78715625,-0.36375,-0.41659375,1.01959375,0.021191832127648656,0.01987121975193612,True
26148,24344,0,24345,4099.0,39529.0,40401.0,0.000122,0.00042699999999999997,0.001281,0.6475000000000001,-1.4000000000000001,-3.6925000000000003,0.81234375,0.15021875,0.06671875000000001,1.043,0.78571875,-0.36390625,-0.416125,1.03121875,0.021101911767535224,0.019775609356521562,True
26149,24345,0,24346,4098.0,39526.0,40404.0,-0.000366,-0.003294,0.000183,0.5425000000000001,-1.4700000000000002,-3.6575,0.81534375,0.15365625,0.06628125,1.04753125,0.78128125,-0.3645,-0.42021875000000003,1.0305,0.021266853413778243,0.019922016464328358,True
26150,24346,0,24347,4098.0,39527.0,40408.0,0.00183,-0.001586,-0.000732,0.43750000000000006,-1.4525000000000001,-3.7625,0.80809375,0.1535625,0.06331250000000001,1.04184375,0.7791250000000001,-0.36515625,-0.41834375,1.02575,0.021289366859693338,0.0197251809922612,True
26151,24347,0,24348,4099.0,39527.0,40408.0,0.000976,-0.0006709999999999999,0.0,0.385,-1.1900000000000002,-3.7625,0.8084375,0.15078125,0.07034375,1.04146875,0.7821875,-0.36615625,-0.41590625000000003,1.027625,0.021215389686257965,0.01991529599684632,True
26152,24348,0,24349,4099.0,39528.0,40410.0,-0.001586,0.000366,-0.001037,0.29750000000000004,-1.05,-3.7975000000000003,0.80875,0.15181250000000002,0.06390625,1.0411875,0.78421875,-0.36562500000000003,-0.41575,1.0250625,0.021236372963960495,0.01964536211257078,True
26153,24349,0,24350,4099.0,39532.0,40412.0,-0.0013419999999999999,0.001037,-0.000549,0.42000000000000004,-0.8925000000000001,-3.7975000000000003,0.80903125,0.15328125,0.0666875,1.048125,0.77965625,-0.36784375,-0.41990625000000004,1.0296875,0.021385765820991037,0.019926110486194026,True
26154,24350,0,24351,4102.0,39531.0,40417.0,-0.001952,0.000976,-0.00061,0.45500000000000007,-1.0150000000000001,-3.8500000000000005,0.8153125,0.1526875,0.0745,1.04196875,0.77896875,-0.36309375,-0.4161875,1.02475,0.021170597432848607,0.020096810773590268,True
26155,24351,0,24352,4101.0,39530.0,40417.0,-0.000244,0.000976,-0.001403,0.45500000000000007,-1.3125000000000002,-3.8675,0.8011875,0.15334375,0.06903125,1.04771875,0.77975,-0.3649375,-0.41853125,1.02575,0.02127160186641152,0.01996690525766164,True
26156,24352,0,24353,4101.0,39531.0,40420.0,0.0011589999999999999,-0.000122,-0.000366,0.385,-1.2075,-3.8500000000000005,0.817625,0.15203125,0.06728125,1.04134375,0.78365625,-0.3634375,-0.41590625000000003,1.0313125,0.021157472134217516,0.019789865469359756,True
26157,24353,0,24354,4104.0,39532.0,40423.0,0.00042699999999999997,-0.001098,-0.001037,0.36750000000000005,-1.1375000000000002,-3.8675,0.81540625,0.151125,0.06715625,1.04371875,0.78253125,-0.36390625,-0.416625,1.03328125,0.02113910818385291,0.019813600364505742,True
26158,24354,0,24355,4104.0,39534.0,40420.0,-0.000366,-0.000915,0.000244,0.49000000000000005,-1.2425000000000002,-3.7800000000000002,0.816375,0.1544375,0.06784375000000001,1.04178125,0.78140625,-0.3641875,-0.41634375,1.03165625,0.02128636549033289,0.019830467041159674,True
26159,24355,0,24356,4103.0,39531.0,40422.0,0.000915,-0.00061,0.001464,0.47250000000000003,-1.1375000000000002,-3.6225000000000005,0.81640625,0.1516875,0.06696875000000001,1.02971875,0.784625,-0.36365625,-0.416375,1.0266250000000001,0.021152151578234486,0.019795884933779075,True
26160,24356,0,24357,4105.0,39533.0,40424.0,-0.000488,-0.000183,0.002379,0.5075000000000001,-1.1025,-3.6575,0.8063125,0.15031250000000002,0.0674375,1.041,0.787,-0.36371875000000004,-0.41325,1.02509375,0.02109822623034507,0.019689615270396196,True
26161,24357,0,24358,4106.0,39533.0,40424.0,-0.00183,0.0006709999999999999,0.003172,0.5075000000000001,-0.9975,-3.5525,0.81190625,0.15081250000000002,0.0644375,1.0416875,0.7841875,-0.365375,-0.41659375,1.02503125,0.02118528854983763,0.019700997400589504,True
26162,24358,0,24359,4107.0,39533.0,40426.0,-0.003111,0.002928,-0.000366,0.3325,-1.0325000000000002,-3.5875000000000004,0.8000625,0.1534375,0.06578125,1.047625,0.78146875,-0.36615625,-0.4194375,1.02525,0.021324403597715584,0.019870185379986742,True
26163,24359,0,24360,4106.0,39534.0,40427.0,-0.002074,0.002928,-0.004392,0.3325,-0.9625000000000001,-3.7100000000000004,0.8085,0.1539375,0.06478125,1.04721875,0.7788125,-0.36453125000000003,-0.41725,1.02478125,0.02127965215829876,0.019741422559870585,True
26164,24360,0,24361,4109.0,39534.0,40428.0,-0.00244,0.003111,-0.0050019999999999995,0.36750000000000005,-1.0675000000000001,-3.6925000000000003,0.80875,0.15425,0.065625,1.043375,0.77909375,-0.36615625,-0.41921875000000003,1.02559375,0.02135774902945556,0.01985500662260131,True
26165,24361,0,24362,4108.0,39533.0,40430.0,0.000122,-0.0064659999999999995,0.0028669999999999998,0.47250000000000003,-1.6625,-3.9200000000000004,0.80896875,0.153875,0.0660625,1.04178125,0.7795625,-0.36609375,-0.4156875,1.0243125,0.021339848534400387,0.01973116669354488,True
26166,24362,0,24363,4109.0,39535.0,40433.0,0.002806,-0.0055509999999999995,0.004514,0.5775,-1.8375000000000001,-3.9025000000000003,0.81078125,0.15181250000000002,0.067375,1.0414375,0.7851875,-0.3634375,-0.416125,1.025,0.0211484935161551,0.019802487085890986,True
26167,24363,0,24364,4110.0,39537.0,40434.0,0.0053679999999999995,-0.00244,0.0028669999999999998,0.42000000000000004,-2.1700000000000004,-3.8325000000000005,0.8105625,0.1539375,0.06709375000000001,1.0415625,0.78690625,-0.3638125,-0.416125,1.031125,0.0212507792037884,0.019790968059018376,True
26168,24364,0,24365,4113.0,39536.0,40436.0,0.004758,0.0013419999999999999,-0.001586,0.29750000000000004,-1.9250000000000003,-3.7800000000000002,0.812,0.15403125,0.06771875000000001,1.043,0.785375,-0.36262500000000003,-0.41665625,1.03421875,0.021206920436529317,0.019837892422309055,True
26169,24365,0,24366,4111.0,39535.0,40433.0,0.000976,0.004514,-0.003172,0.31500000000000006,-1.61,-3.6925000000000003,0.80975,0.1539375,0.067125,1.04190625,0.77853125,-0.364375,-0.41553125,1.02346875,0.021273375573968138,0.019768410732410337,True
26170,24366,0,24367,4112.0,39538.0,40436.0,-0.0013419999999999999,0.00488,-0.002623,0.31500000000000006,-1.1900000000000002,-3.5700000000000003,0.80884375,0.152625,0.067,1.0415,0.7935625000000001,-0.36390625,-0.41446875,1.0393125,0.0212006746660339,0.019720631848686037,True
26171,24367,0,24368,4114.0,39537.0,40438.0,-0.002196,0.0006709999999999999,0.001769,0.45500000000000007,-1.12,-3.6225000000000005,0.808125,0.1536875,0.06540625,1.042125,0.77559375,-0.36262500000000003,-0.421125,1.021875,0.021192810709026635,0.019922556802768096,True
26172,24368,0,24369,4114.0,39537.0,40439.0,-0.002989,-0.001586,0.004392,0.5775,-0.9625000000000001,-3.6925000000000003,0.81471875,0.16518750000000001,0.06871875,1.056875,0.79203125,-0.3620625,-0.4206875,1.0285625,0.02164225627448415,0.0200406417714489,True
26173,24369,0,24370,4115.0,39539.0,40440.0,-0.003294,-0.00244,0.005612,0.4025,-0.7175,-3.7450000000000006,0.8032812500000001,0.142625,0.06790625,1.05890625,0.77815625,-0.3663125,-0.4156875,1.036,0.02088693149609733,0.019806681667268226,True
26174,24370,0,24371,4116.0,39537.0,40440.0,0.0015249999999999999,-0.0037819999999999998,-0.0006709999999999999,0.385,-0.7000000000000001,-3.8675,0.8014375,0.15865625,0.05775,1.03190625,0.77496875,-0.3635625,-0.42171875000000003,1.02221875,0.021434416662177377,0.01963288312785111,True
26175,24371,0,24372,4117.0,39537.0,40435.0,0.004514,-0.002013,-0.004575,0.0175,-1.33,-3.7800000000000002,0.80934375,0.14646875,0.07296875,1.03275,0.7795,-0.36171875000000003,-0.41465625,1.013125,0.02086008402013918,0.01997263426553466,True
26176,24372,0,24373,4117.0,39532.0,40427.0,0.0042699999999999995,-0.002074,-0.0046359999999999995,0.07,-1.155,-3.7975000000000003,0.8325312500000001,0.15196875,0.0761875,1.0426875,0.7861875,-0.36178125,-0.41440625000000003,1.02796875,0.021088359456474474,0.020094437070326054,True
26177,24373,0,24374,4116.0,39533.0,40416.0,0.000183,-0.00183,-0.0037819999999999998,0.12250000000000001,-0.9450000000000001,-3.8675,0.83203125,0.14403125,0.0655,1.03171875,0.79390625,-0.36309375,-0.414375,1.02171875,0.02081529567647787,0.019655428410516346,True
26178,24374,0,24375,4111.0,39527.0,40406.0,-0.002379,0.00122,-0.001464,0.28,-0.7175,-3.8850000000000002,0.79559375,0.15637500000000001,0.06878125,1.062875,0.7661875,-0.3641875,-0.41871875000000003,1.03821875,0.02136588794516542,0.0199641924292199,True
26179,24375,0,24376,4109.0,39524.0,40398.0,-0.003965,0.002379,0.000549,0.4025,-0.805,-3.7450000000000006,0.82965625,0.148875,0.0731875,1.03746875,0.7863125,-0.36303125,-0.41521875,1.02875,0.021011599285290086,0.020004172602385552,True
26180,24376,0,24377,4106.0,39521.0,40391.0,-0.003904,0.002562,0.0021349999999999997,0.525,-0.8575,-3.7800000000000002,0.8185625,0.14931250000000001,0.07134375,1.046875,0.789125,-0.36240625,-0.41465625,1.032875,0.021004442038643042,0.019906075884234493,True
26181,24377,0,24378,4101.0,39519.0,40388.0,-0.003721,0.002013,0.004941,0.5425000000000001,-0.9625000000000001,-3.7800000000000002,0.82803125,0.15771875,0.07078125,1.0380625,0.78128125,-0.36328125,-0.41646875,1.033125,0.02138464005130672,0.019955793157026443,True
26182,24378,0,24379,4099.0,39517.0,40384.0,-0.0015249999999999999,0.0006709999999999999,0.003294,0.6125,-1.3650000000000002,-3.8500000000000005,0.83034375,0.15053125,0.07796875,1.03353125,0.7865625,-0.36715625,-0.41634375,1.02575,0.02124529816646126,0.020245148293343472,True
26183,24379,0,24380,4096.0,39515.0,40379.0,0.003965,0.0006709999999999999,0.0017079999999999999,0.5075000000000001,-1.715,-4.0075,0.8281875,0.14984375,0.0713125,1.04171875,0.787,-0.36340625,-0.41646875,1.0305312500000001,0.021066430314931845,0.0199775510125722,True
26184,24380,0,24381,4091.0,39518.0,40380.0,0.002623,-0.001037,-0.001403,0.31500000000000006,-1.9250000000000003,-4.112500000000001,0.81940625,0.15309375,0.0709375,1.04928125,0.7865,-0.3636875,-0.41640625000000003,1.03146875,0.02121112618933402,0.019959683870348445,True
26185,24381,0,24382,4090.0,39515.0,40377.0,0.0046359999999999995,-0.000549,-0.0023179999999999997,0.42000000000000004,-1.9075000000000002,-4.2,0.80690625,0.15503125,0.06896875,1.0414375,0.77815625,-0.364,-0.41965625,1.0311875,0.021303203496962735,0.020009495424408358,True
26186,24382,0,24383,4087.0,39515.0,40375.0,0.006161,-0.001281,-0.004148,0.36750000000000005,-1.995,-4.112500000000001,0.8083125,0.1536875,0.06728125,1.04915625,0.7795625,-0.35981250000000004,-0.41903125,1.032375,0.02107980100421545,0.019915306836752585,True
26187,24383,0,24384,4085.0,39515.0,40377.0,0.0055509999999999995,0.000244,-0.002806,0.31500000000000006,-1.7675,-4.0075,0.8091875000000001,0.15609375,0.06390625,1.04746875,0.7798437500000001,-0.36671875,-0.41878125,1.025875,0.021456007489724073,0.019767059422754772,True
26188,24384,0,24385,4083.0,39517.0,40377.0,0.0017079999999999999,0.000793,0.000793,0.36750000000000005,-1.3650000000000002,-3.9375000000000004,0.80984375,0.1545625,0.066625,1.04475,0.7746875,-0.36415625,-0.41909375,1.0243125,0.02129024065834416,0.0198909408749045,True
26189,24385,0,24386,4081.0,39516.0,40378.0,-0.0025009999999999998,-0.001586,0.002989,0.385,-0.9275000000000001,-3.8850000000000002,0.8163125,0.15428125,0.06715625,1.0425625,0.77925,-0.36390625,-0.417875,1.0325,0.02126865432344208,0.019863778072416214,True
26190,24386,0,24387,4081.0,39519.0,40380.0,-0.005124,-0.000366,0.001769,0.36750000000000005,-0.6300000000000001,-3.6925000000000003,0.81540625,0.15275,0.06753125,1.04203125,0.785625,-0.36403125000000003,-0.41515625,1.0300625,0.02121082692339758,0.01976999430425517,True
26191,24387,0,24388,4081.0,39520.0,40382.0,-0.009028,0.0013419999999999999,0.000122,0.35000000000000003,-0.36750000000000005,-3.6050000000000004,0.80896875,0.15375,0.06446875,1.04196875,0.7870625,-0.36365625,-0.41565625,1.0225625,0.021236806359882874,0.019664636292542823,True
26192,24388,0,24389,4081.0,39518.0,40383.0,-0.007869,0.000915,-0.0023179999999999997,0.29750000000000004,-0.47250000000000003,-3.6050000000000004,0.80959375,0.15309375,0.06625,1.04128125,0.78509375,-0.36596875,-0.415625,1.0248125000000001,0.021302764742321192,0.019736336874440038,True
26193,24389,0,24390,4080.0,39521.0,40385.0,-0.00244,0.000732,-0.002013,0.4025,-0.9275000000000001,-3.7275000000000005,0.80934375,0.1535,0.06646875000000001,1.041625,0.77746875,-0.3655,-0.4124375,1.0245312500000001,0.021300609468305597,0.01961730572786925,True
26194,24390,0,24391,4080.0,39522.0,40384.0,0.004331,-0.001952,-0.000366,0.49000000000000005,-1.6800000000000002,-3.6575,0.79878125,0.1514375,0.06393750000000001,1.03540625,0.7788125,-0.36825,-0.41615625,1.02521875,0.021326418597970725,0.01966295370509025,True
26195,24391,0,24392,4080.0,39520.0,40387.0,0.0011589999999999999,-0.000488,0.0006709999999999999,0.56,-1.7325000000000002,-3.7275000000000005,0.8093125,0.15325,0.06575,1.04953125,0.7837500000000001,-0.3673125,-0.41153125,1.02546875,0.021363147864582932,0.019551467096108523,True
26196,24392,0,24393,4079.0,39519.0,40388.0,-0.001037,-0.000183,0.001403,0.6125,-1.6625,-3.7275000000000005,0.8143125,0.155,0.06725,1.0414375,0.7788125,-0.36409375,-0.4175,1.0320625,0.021305686775236615,0.01985256475888195,True
26197,24393,0,24394,4081.0,39521.0,40389.0,-0.000488,-0.001464,0.002928,0.5950000000000001,-1.9600000000000002,-3.7975000000000003,0.80825,0.15334375,0.0668125,1.0500625000000001,0.7870312500000001,-0.3658125,-0.4175,1.0246875,0.02130674895409295,0.019834647281662742,True
26198,24394,0,24395,4081.0,39522.0,40390.0,0.000305,-0.001098,0.000549,0.6125,-2.1525000000000003,-3.9025000000000003,0.81503125,0.15190625,0.06459375,1.0439687500000001,0.77065625,-0.3636875,-0.41671875,1.0234375,0.021162385619992865,0.019712415289216533,True
26199,24395,0,24396,4080.0,39520.0,40390.0,0.002074,0.005246,0.000244,0.6475000000000001,-2.31,-3.8675,0.80934375,0.15396875000000002,0.06696875000000001,1.0471875,0.780875,-0.36471875,-0.41903125,1.03065625,0.021288466545504446,0.019902509441278513,True
26200,24396,0,24397,4080.0,39519.0,40391.0,0.00793,0.005246,-0.0018909999999999999,0.49000000000000005,-2.5200000000000005,-3.9025000000000003,0.81615625,0.15125,0.06971875,1.04175,0.77940625,-0.36428125,-0.41646875,1.02978125,0.021159304668591443,0.019912277445934927,True
26201,24397,0,24398,4079.0,39520.0,40390.0,0.009699,6.1e-05,-0.002196,0.43750000000000006,-2.2925000000000004,-3.9200000000000004,0.8094375,0.15278125,0.06528125,1.04940625,0.78425,-0.36509375,-0.41578125,1.0253125,0.021254792011625237,0.01970293291352289,True
26202,24398,0,24399,4080.0,39521.0,40390.0,0.007076,-0.0013419999999999999,-0.00042699999999999997,0.385,-1.6975000000000002,-3.6575,0.8092812500000001,0.1540625,0.06696875000000001,1.0439687500000001,0.78,-0.36328125,-0.4175625,1.02971875,0.02123456790123457,0.019843555227922527,True
26203,24399,0,24400,4080.0,39520.0,40390.0,-0.000732,-0.000244,0.002989,0.4025,-0.77,-3.5175000000000005,0.8155,0.15006250000000002,0.0668125,1.0415625,0.7804375,-0.3633125,-0.41581250000000003,1.02434375,0.021071642043749183,0.019766903108385192,True
26204,24400,0,24401,4080.0,39519.0,40387.0,-0.008173999999999999,-0.0017079999999999999,0.0008539999999999999,0.21000000000000002,0.21000000000000002,-3.1675000000000004,0.80896875,0.15315625,0.0641875,1.04953125,0.78465625,-0.366,-0.41100000000000003,1.0250625,0.021306584995485513,0.019466121830322397,True
26205,24401,0,24402,4078.0,39519.0,40387.0,-0.009028,-0.001464,-0.000366,0.14,0.0175,-3.2375000000000003,0.8144375,0.15662500000000001,0.0673125,1.04340625,0.7795,-0.35921875000000003,-0.41984375,1.03353125,0.02117653095914663,0.019949196030380006,True
26206,24402,0,24403,4077.0,39518.0,40383.0,-0.005124,-0.00244,-0.00244,0.052500000000000005,-0.28,-3.43,0.81378125,0.15425,0.07121875,1.04228125,0.77215625,-0.36412500000000003,-0.41890625000000004,1.02575,0.021276159106883585,0.020071537806899114,True
26207,24403,0,24404,4076.0,39517.0,40382.0,-0.0021349999999999997,-0.001769,-0.0028669999999999998,0.12250000000000001,-0.8750000000000001,-3.4825000000000004,0.8092812500000001,0.15215625,0.067125,1.04259375,0.78021875,-0.3633125,-0.417875,1.04321875,0.021157580686123858,0.019862498272269803,True
26208,24404,0,24405,4077.0,39517.0,40381.0,0.0017079999999999999,-0.002013,-0.000976,0.2625,-1.33,-3.6925000000000003,0.80709375,0.1526875,0.066,1.04134375,0.79109375,-0.36278125,-0.41334375,1.02503125,0.021158042044152902,0.01963449803962229,True
26209,24405,0,24406,4075.0,39515.0,40379.0,0.003477,0.0013419999999999999,0.002013,0.4025,-1.5575,-3.7800000000000002,0.79925,0.15421875000000002,0.0645,1.047125,0.794875,-0.368375,-0.41303125,1.02025,0.0214455723863409,0.0195605062357834,True
26210,24406,0,24407,4073.0,39515.0,40379.0,0.002745,0.003355,0.000366,0.45500000000000007,-1.3125000000000002,-3.7275000000000005,0.80340625,0.154375,0.06625,1.049625,0.77790625,-0.37090625,-0.4196875,1.019875,0.021553619902829835,0.01989941517474374,True
26211,24407,0,24408,4074.0,39515.0,40379.0,0.000793,0.004148,-0.001037,0.43750000000000006,-0.9450000000000001,-3.6575,0.81021875,0.1545,0.06834375,1.0488125,0.7752187500000001,-0.37253125,-0.41828125,1.02075,0.021623984993351886,0.01992871631782028,True
26212,24408,0,24409,4072.0,39514.0,40377.0,-0.0017079999999999999,0.001952,-0.001037,0.31500000000000006,-0.6475000000000001,-3.5525,0.8120625,0.1544375,0.06759375000000001,1.0475,0.7735625,-0.37171875,-0.41871875000000003,1.01103125,0.021588803621000262,0.019915561704071803,True
26213,24409,0,24410,4072.0,39515.0,40379.0,-0.00244,0.000488,0.001647,0.36750000000000005,-0.56,-3.5175000000000005,0.81134375,0.153375,0.0658125,1.04778125,0.77475,-0.36865625,-0.41696875,1.0209062500000001,0.021422241942454255,0.019772366297515945,True
26214,24410,0,24411,4073.0,39517.0,40381.0,-0.002379,-0.004026,-0.000366,0.35000000000000003,-0.5425000000000001,-3.6750000000000003,0.796875,0.15440625,0.063,1.04775,0.7765,-0.367875,-0.4135625,1.02021875,0.02143318816269371,0.01952039977778745,True
26215,24411,0,24412,4071.0,39517.0,40381.0,-0.00366,-0.001647,0.0021349999999999997,0.36750000000000005,-0.6475000000000001,-3.6925000000000003,0.8090937500000001,0.1536875,0.06621875,1.048625,0.7886875,-0.366,-0.4169375,1.0209062500000001,0.021328387917590085,0.01978774979458419,True
26216,24412,0,24413,4071.0,39516.0,40382.0,-0.0042699999999999995,-0.000366,0.000183,0.4025,-0.9275000000000001,-3.7100000000000004,0.81484375,0.15484375,0.06715625,1.04196875,0.775875,-0.36696875,-0.42096875,1.03365625,0.02141474819267374,0.019987945809889298,True
26217,24413,0,24414,4069.0,39517.0,40384.0,-0.003538,-0.000366,0.000244,0.35000000000000003,-1.5575,-3.9025000000000003,0.79721875,0.15171875,0.06725,1.046875,0.783875,-0.3650625,-0.41315625,1.020125,0.021209929176253906,0.019678170453687242,True
26218,24414,0,24415,4070.0,39516.0,40383.0,0.001647,0.0026839999999999998,-0.001037,0.47250000000000003,-2.1525000000000003,-3.99,0.8026875,0.15440625,0.06596875,1.0473125,0.779625,-0.3645625,-0.41481250000000003,1.0246250000000001,0.02130014647297689,0.01969219505576789,True
26219,24415,0,24416,4070.0,39516.0,40385.0,0.0073809999999999995,0.0008539999999999999,-0.0008539999999999999,0.385,-2.5025000000000004,-4.130000000000001,0.81375,0.15403125,0.06703125,1.042375,0.77734375,-0.36378125,-0.41665625,1.0280625,0.021253371744174562,0.01980973541370965,True
26220,24416,0,24417,4070.0,39518.0,40388.0,0.006771,-0.000488,-0.001769,0.49000000000000005,-2.4325,-4.130000000000001,0.81321875,0.15425,0.06609375,1.04653125,0.78515625,-0.36325,-0.4186875,1.025625,0.02124100848614204,0.01985287907058887,True
26221,24417,0,24418,4071.0,39516.0,40387.0,0.0050019999999999995,-0.000183,-0.000976,0.45500000000000007,-2.0300000000000002,-3.9025000000000003,0.808625,0.1505,0.06709375000000001,1.04203125,0.780875,-0.3654375,-0.41531250000000003,1.02715625,0.021174973771761745,0.019758348372563326,True
26222,24418,0,24419,4071.0,39519.0,40390.0,0.003843,-0.000366,-0.000915,0.45500000000000007,-1.54,-3.7975000000000003,0.80921875,0.15090625,0.067875,1.0421562500000001,0.78478125,-0.36421875,-0.4160625,1.03159375,0.021142684905503074,0.01982045630821923,True
26223,24419,0,24420,4072.0,39520.0,40391.0,0.000366,-0.001769,0.002013,0.36750000000000005,-1.05,-3.7625,0.81578125,0.15353125,0.06703125,1.0463125,0.77978125,-0.36365625,-0.41684375,1.03240625,0.021227827822435315,0.0198172624174654,True
26224,24420,0,24421,4071.0,39516.0,40392.0,-0.005246,0.001037,0.000488,0.35000000000000003,-0.56,-3.7275000000000005,0.81371875,0.15415625,0.06675,1.041625,0.77996875,-0.36378125,-0.41975,1.02928125,0.021258502310678887,0.01992239887795739,True
26225,24421,0,24422,4073.0,39519.0,40394.0,-0.004209,0.000488,0.000305,0.3325,-0.5075000000000001,-3.6925000000000003,0.81478125,0.15271875000000001,0.06778125,1.04228125,0.781375,-0.364,-0.4151875,1.02059375,0.021208288868822853,0.01978148846901135,True
26226,24422,0,24423,4074.0,39520.0,40394.0,-0.005124,-0.001037,-0.002928,0.31500000000000006,-0.5950000000000001,-3.6225000000000005,0.80409375,0.152,0.0656875,1.04259375,0.7861875,-0.362875,-0.415625,1.02596875,0.0211335895291504,0.019713298348905672,True
26227,24423,0,24424,4076.0,39520.0,40397.0,-0.003904,0.000244,-0.0023179999999999997,0.35000000000000003,-0.7175,-3.6225000000000005,0.80878125,0.15109375,0.07171875,1.04171875,0.7886562500000001,-0.36278125,-0.41646875,1.0314375,0.021092624636195833,0.019994189372695426,True
26228,24424,0,24425,4076.0,39520.0,40397.0,-0.0025009999999999998,0.00061,0.000183,0.5950000000000001,-1.0675000000000001,-3.7450000000000006,0.81321875,0.15,0.065375,1.0420625000000001,0.7869375000000001,-0.3630625,-0.41596875,1.02565625,0.021059031474388736,0.019714300707400767,True
26229,24425,0,24426,4079.0,39520.0,40398.0,0.002989,-0.000732,0.001647,0.5075000000000001,-1.7325000000000002,-3.7625,0.80675,0.14906250000000001,0.06309375,1.03475,0.781875,-0.36696875,-0.41581250000000003,1.02478125,0.021177490532136873,0.019614594025900225,True
26230,24426,0,24427,4079.0,39520.0,40400.0,0.003477,0.000183,0.002257,0.5425000000000001,-1.7675,-3.7975000000000003,0.80415625,0.150375,0.0655625,1.03859375,0.7800312500000001,-0.36546875,-0.41590625000000003,1.01371875,0.02117109895536075,0.019719470785566275,True
26231,24427,0,24428,4080.0,39522.0,40402.0,0.000183,0.001647,0.0026839999999999998,0.6300000000000001,-1.715,-3.7625,0.8169062500000001,0.15125,0.068375,1.03890625,0.788625,-0.3595625,-0.41590625000000003,1.03109375,0.02096969106074873,0.019834662086319243,True
26232,24428,0,24429,4080.0,39520.0,40402.0,-0.000366,0.0023179999999999997,0.0026839999999999998,0.5425000000000001,-1.3825,-3.7450000000000006,0.8210000000000001,0.14928125,0.0685,1.05309375,0.78759375,-0.36309375,-0.416375,1.0324375000000001,0.021030785550377813,0.019858598993503337,True
26233,24429,0,24430,4081.0,39520.0,40404.0,-0.0013419999999999999,0.0023179999999999997,-0.002013,0.36750000000000005,-1.12,-3.6400000000000006,0.811625,0.1553125,0.067125,1.0421875,0.7793125,-0.3634375,-0.41796875,1.02221875,0.02129215140515373,0.01986626139817629,True
26234,24430,0,24431,4080.0,39523.0,40403.0,-0.001098,-0.001098,-0.003721,0.24500000000000002,-1.4175000000000002,-3.7100000000000004,0.8055,0.14671875,0.06959375,1.03865625,0.780625,-0.3644375,-0.41415625,1.0246875,0.020979603982238457,0.019814323912996173,True
26235,24431,0,24432,4082.0,39523.0,40407.0,-0.00061,-0.002806,-0.000122,0.43750000000000006,-1.6975000000000002,-3.7450000000000006,0.8146875,0.1499375,0.06846875,1.03965625,0.7850625,-0.36346875,-0.4159375,1.020875,0.021072789563267753,0.019839756306715646,True
26236,24432,0,24433,4082.0,39524.0,40406.0,0.002379,-0.003904,0.002257,0.525,-1.8550000000000002,-3.8675,0.80809375,0.1465,0.063375,1.03925,0.78625,-0.364,-0.4149375,1.02571875,0.020953045476933177,0.01959097785935352,True
26237,24433,0,24434,4083.0,39521.0,40407.0,0.005429,-0.002562,0.002074,0.43750000000000006,-1.9250000000000003,-3.7975000000000003,0.80503125,0.14928125,0.06471875,1.04078125,0.773875,-0.3649375,-0.4155625,1.0243125,0.021104866367910858,0.01967111140691516,True
26238,24434,0,24435,4084.0,39523.0,40409.0,0.003111,0.0032329999999999998,-0.001586,0.43750000000000006,-1.9250000000000003,-3.7450000000000006,0.805875,0.1525625,0.06715625,1.052125,0.779375,-0.3639375,-0.41600000000000004,1.0249062500000001,0.021199364839940178,0.019788509583879427,True
26239,24435,0,24436,4084.0,39521.0,40409.0,-0.00042699999999999997,0.00366,6.1e-05,0.42000000000000004,-1.1725,-3.7275000000000005,0.805875,0.1555625,0.06846875,1.0498750000000001,0.78009375,-0.36415625,-0.41634375,1.02790625,0.021331284558643398,0.019856064649319168,True
26240,24436,0,24437,4085.0,39526.0,40411.0,-0.003721,0.004148,0.0,0.49000000000000005,-1.0850000000000002,-3.5175000000000005,0.81371875,0.1546875,0.06846875,1.03003125,0.7800625,-0.3618125,-0.41696875,1.02840625,0.02120121399013312,0.019881153347505513,True
26241,24437,0,24438,4086.0,39525.0,40410.0,-0.003721,0.002623,0.000366,0.49000000000000005,-0.9625000000000001,-3.5000000000000004,0.81071875,0.1525625,0.067,1.0419375,0.7837500000000001,-0.3629375,-0.4156875,1.02975,0.021159189034573523,0.019769564137810985,True
26242,24438,0,24439,4086.0,39525.0,40414.0,-0.0035989999999999998,0.0011589999999999999,-0.000915,0.47250000000000003,-1.05,-3.5175000000000005,0.81490625,0.15425,0.06675,1.05046875,0.7801875,-0.3638125,-0.41740625000000003,1.026375,0.021263605603597545,0.019828324312702136,True
26243,24439,0,24440,4086.0,39524.0,40410.0,-0.00366,-0.002745,0.003294,0.24500000000000002,-0.9450000000000001,-3.6750000000000003,0.8082812500000001,0.1553125,0.06375,1.04259375,0.77975,-0.36709375,-0.41578125,1.02571875,0.02143900521579435,0.019640217328700058,True
26244,24440,0,24441,4088.0,39520.0,40403.0,0.000305,-0.0037819999999999998,0.000732,0.21000000000000002,-1.3475000000000001,-3.8325000000000005,0.809125,0.15115625,0.06775,1.0421562500000001,0.7986875,-0.35381250000000003,-0.4170625,1.0508125,0.020734689897115695,0.019855480158598112,True
26245,24441,0,24442,4085.0,39520.0,40394.0,0.00183,-0.002989,-0.001647,0.14,-1.5050000000000001,-3.8850000000000002,0.8158125,0.1544375,0.06690625,1.04846875,0.7769375000000001,-0.36428125,-0.4215625,1.01434375,0.02129013142959019,0.02000153552828571,True
26246,24442,0,24443,4082.0,39515.0,40382.0,-0.000793,-0.0017079999999999999,-0.003965,0.07,-1.435,-3.8850000000000002,0.809,0.1555625,0.06453125,1.04209375,0.78425,-0.36634375,-0.4114375,1.02409375,0.021419145004059136,0.019497776400918626,True
26247,24443,0,24444,4081.0,39510.0,40371.0,-0.0023179999999999997,0.00042699999999999997,-0.003721,0.29750000000000004,-1.5925000000000002,-4.025,0.8084687500000001,0.15156250000000002,0.067375,1.041625,0.80021875,-0.3586875,-0.41028125,1.04125,0.020947351945789363,0.01956783066561349,True
26248,24444,0,24445,4074.0,39508.0,40363.0,0.005673,-0.0008539999999999999,0.0,0.5425000000000001,-2.4850000000000003,-4.077500000000001,0.81490625,0.15403125,0.06725,1.049,0.76846875,-0.36271875000000003,-0.42484375,1.01815625,0.021210686923026606,0.020147262968673033,True
26249,24445,0,24446,4072.0,39507.0,40357.0,0.0051849999999999995,0.0008539999999999999,0.002806,0.5425000000000001,-2.45,-4.112500000000001,0.81575,0.1538125,0.064875,1.04696875,0.767375,-0.37684375000000003,-0.4098125,1.01421875,0.021768866201146327,0.019446585261562333,True
26250,24446,0,24447,4065.0,39503.0,40350.0,0.003538,0.0021349999999999997,0.003721,0.49000000000000005,-2.1700000000000004,-4.0600000000000005,0.8024687500000001,0.1538125,0.06334375,1.0362500000000001,0.78853125,-0.3675,-0.40725,1.04621875,0.021393762183235864,0.01928090014237573,True
26251,24447,0,24448,4062.0,39506.0,40346.0,0.000366,0.002013,0.0044529999999999995,0.45500000000000007,-1.7325000000000002,-4.025,0.81684375,0.15303125,0.0700625,1.047375,0.78625,-0.3606875,-0.42640625,1.01778125,0.021088023480453907,0.020325083637712772,True
26252,24448,0,24449,4058.0,39503.0,40344.0,-0.00061,0.002989,0.0026839999999999998,0.385,-1.6975000000000002,-4.077500000000001,0.80975,0.153625,0.06528125,1.04153125,0.7675000000000001,-0.37365625,-0.403625,1.0266875,0.021633243883957706,0.019214614632047492,True
26253,24449,0,24450,4056.0,39502.0,40341.0,-0.000488,-0.0021349999999999997,-0.003721,0.15750000000000003,-1.7500000000000002,-3.8675,0.813625,0.15490625,0.0669375,1.04915625,0.78803125,-0.3608125,-0.42675,1.01553125,0.021170014341680927,0.020210936780373976,True
26254,24450,0,24451,4054.0,39501.0,40339.0,0.000793,-0.0008539999999999999,-0.003904,0.10500000000000001,-1.5750000000000002,-3.9200000000000004,0.8093750000000001,0.152,0.06771875000000001,1.04196875,0.78525,-0.36546875,-0.4110625,1.04115625,0.021237791700600875,0.019613290081085165,True
26255,24451,0,24452,4050.0,39500.0,40339.0,-0.001098,-0.001037,-0.002013,0.1925,-1.3475000000000001,-3.7975000000000003,0.81471875,0.1538125,0.0666875,1.04746875,0.7770625,-0.36484375,-0.4184375,1.01940625,0.02128707474268125,0.019867159804962953,True
26256,24452,0,24453,4047.0,39498.0,40338.0,-0.002379,-0.0023179999999999997,-0.0006709999999999999,0.1925,-1.3650000000000002,-3.7450000000000006,0.8089375,0.15671875,0.06778125,1.0421875,0.78125,-0.3643125,-0.4134375,1.0300625,0.021385017533328714,0.019711224607349948,True
26257,24453,0,24454,4046.0,39502.0,40339.0,-0.000244,-0.001037,0.002623,0.22750000000000004,-1.2600000000000002,-3.7975000000000003,0.81596875,0.15375,0.06953125,1.04196875,0.78471875,-0.363375,-0.41675,1.0266250000000001,0.0212255075497545,0.019915887659086487,True
26258,24454,0,24455,4043.0,39500.0,40339.0,-0.0017079999999999999,0.001037,0.001769,0.29750000000000004,-1.1900000000000002,-3.7625,0.8155,0.15478125,0.06540625,1.04190625,0.78615625,-0.36365625,-0.41871875000000003,1.01959375,0.02127913375070706,0.0198259787893253,True
26259,24455,0,24456,4041.0,39499.0,40339.0,-0.000976,0.000488,0.001098,0.14,-1.1725,-3.6925000000000003,0.8146875,0.15971875,0.06771875000000001,1.03934375,0.7844375,-0.36315625,-0.41778125,1.02534375,0.02146171024125825,0.019883051413608677,True
26260,24456,0,24457,4039.0,39499.0,40343.0,-0.000915,0.000244,-0.000183,0.0,-1.33,-3.7275000000000005,0.80965625,0.1546875,0.06684375000000001,1.0464375000000001,0.780625,-0.36140625,-0.41671875,1.03153125,0.02118489157414712,0.01980456526329935,True
26261,24457,0,24458,4037.0,39496.0,40340.0,0.000488,0.000488,-0.0035989999999999998,-0.0175,-1.4000000000000001,-3.7275000000000005,0.8093750000000001,0.15153125,0.0675625,1.04309375,0.77990625,-0.361,-0.41209375,1.02584375,0.02103900701941628,0.019648304439269983,True
26262,24458,0,24459,4039.0,39498.0,40342.0,0.001769,-0.00061,-0.004697,0.15750000000000003,-1.2950000000000002,-3.6050000000000004,0.80978125,0.1540625,0.06803125,1.04190625,0.779625,-0.363875,-0.41575,1.02571875,0.021258420509873734,0.01981431043486274,True
26263,24459,0,24460,4038.0,39499.0,40342.0,-0.001952,0.000366,-0.002257,0.14,-1.2775,-3.5875000000000004,0.8085625,0.15490625,0.06790625,1.04803125,0.786,-0.36312500000000003,-0.418625,1.02996875,0.021262922962468896,0.019924596491407688,True
26264,24460,0,24461,4037.0,39501.0,40344.0,-6.1e-05,0.000122,0.00042699999999999997,0.36750000000000005,-1.2425000000000002,-3.5175000000000005,0.809875,0.151125,0.0688125,1.04084375,0.77540625,-0.3645,-0.41403125,1.02425,0.02116296250692606,0.019777305314950804,True
26265,24461,0,24462,4035.0,39498.0,40346.0,0.000183,0.000183,0.003355,0.6125,-1.2950000000000002,-3.6225000000000005,0.821875,0.15484375,0.06615625,1.0435625,0.7870625,-0.36303125,-0.41909375,1.0263125,0.021256591377561036,0.019871744830825263,True
26266,24462,0,24463,4038.0,39498.0,40348.0,-0.001586,-0.000915,0.0046359999999999995,0.6825000000000001,-1.2425000000000002,-3.6575,0.8070625,0.14615625000000002,0.06921875,1.039125,0.7800312500000001,-0.36421875,-0.4154375,1.0249062500000001,0.02094772687919657,0.019850402025357934,True
26267,24463,0,24464,4037.0,39499.0,40351.0,-0.00061,-0.000305,0.0034159999999999998,0.6300000000000001,-1.2425000000000002,-3.6225000000000005,0.82303125,0.15687500000000001,0.06584375,1.0505,0.77896875,-0.36253125,-0.41634375,1.0281875,0.021319880297742053,0.019748554695049294,True
26268,24464,0,24465,4036.0,39502.0,40350.0,-0.000366,-0.000305,-0.00183,0.47250000000000003,-1.4175000000000002,-3.6575,0.8026875,0.15171875,0.06381250000000001,1.0364375000000001,0.7795,-0.36515625,-0.4175625,1.02515625,0.021213695274373626,0.019714293758846733,True
26269,24465,0,24466,4037.0,39501.0,40351.0,0.001403,0.000793,-0.001769,0.5075000000000001,-1.4525000000000001,-3.7275000000000005,0.8239375,0.15709375,0.07009375,1.04153125,0.7851875,-0.3631875,-0.41559375,1.0310625,0.02135522086344408,0.019892512341625933,True
26270,24466,0,24467,4037.0,39499.0,40349.0,0.001769,0.000305,-0.001403,0.45500000000000007,-1.5225000000000002,-3.7275000000000005,0.8241875,0.1559375,0.0676875,1.0537812500000001,0.7883125,-0.36340625,-0.41581250000000003,1.0338125,0.021316549281773765,0.019802740539558127,True
26271,24467,0,24468,4037.0,39500.0,40351.0,0.000366,-0.002623,-0.000305,0.4025,-1.435,-3.7975000000000003,0.8190000000000001,0.1555,0.06478125,1.05315625,0.7765625,-0.36312500000000003,-0.417125,1.0306875,0.021287293809804778,0.019736404265448943,True
26272,24468,0,24469,4037.0,39498.0,40348.0,-0.000732,-0.0015249999999999999,-0.000732,0.47250000000000003,-1.2600000000000002,-3.6575,0.79478125,0.15459375,0.059187500000000004,1.05903125,0.7790312500000001,-0.3640625,-0.4184375,1.02790625,0.02128775732700571,0.019560014845339715,True
26273,24469,0,24470,4037.0,39499.0,40347.0,-0.003172,0.000122,0.00061,0.42000000000000004,-1.225,-3.6050000000000004,0.8090937500000001,0.15615625,0.06709375000000001,1.057625,0.78009375,-0.36334375,-0.41653125,1.02603125,0.02132301728903694,0.01980727708814085,True
26274,24470,0,24471,4035.0,39497.0,40344.0,-0.0015249999999999999,0.001464,0.000244,0.42000000000000004,-1.3650000000000002,-3.7100000000000004,0.81015625,0.1553125,0.068375,1.056,0.77959375,-0.36296875,-0.416125,1.03303125,0.021273320805782342,0.019843443625882487,True
26275,24471,0,24472,4034.0,39496.0,40344.0,0.000366,0.002074,-0.000122,0.5075000000000001,-1.4700000000000002,-3.6750000000000003,0.81653125,0.155625,0.0665625,1.0523125,0.7799375000000001,-0.36303125,-0.41771875,1.03246875,0.02128865840534519,0.019833189781498322,True
26276,24472,0,24473,4033.0,39498.0,40341.0,0.0011589999999999999,0.0023179999999999997,0.0018909999999999999,0.525,-1.6275000000000002,-3.6925000000000003,0.8024687500000001,0.15325,0.06484375,1.0358125,0.77940625,-0.36296875,-0.4171875,1.024875,0.021188663635255862,0.019741473091444296,True
26277,24473,0,24474,4031.0,39495.0,40336.0,0.002074,0.0008539999999999999,0.0017079999999999999,0.525,-1.7325000000000002,-3.7100000000000004,0.80753125,0.15209375,0.06928125,1.0413125,0.78121875,-0.36628125,-0.41553125,1.0258125,0.021274276311655068,0.01985672541939877,True
26278,24474,0,24475,4030.0,39495.0,40336.0,-0.001769,0.001586,-0.0008539999999999999,0.42000000000000004,-1.7325000000000002,-3.8150000000000004,0.8141875000000001,0.1530625,0.068375,1.04175,0.78715625,-0.36278125,-0.41521875,1.01915625,0.021173434375436916,0.01980706193754664,True
26279,24475,0,24476,4028.0,39496.0,40335.0,0.000732,0.001586,-0.001769,0.47250000000000003,-1.8725000000000003,-3.8150000000000004,0.81134375,0.15175,0.06765625,1.041875,0.78578125,-0.3635,-0.4154375,1.03265625,0.021148439263652594,0.019786405629634938,True
26280,24476,0,24477,4028.0,39497.0,40335.0,0.001037,-0.002013,-0.001281,0.42000000000000004,-1.8900000000000001,-3.7975000000000003,0.81134375,0.15146875,0.068,1.0424375000000001,0.78615625,-0.36215625,-0.415125,1.03075,0.021082903940409625,0.019787938828902167,True
26281,24477,0,24478,4025.0,39495.0,40334.0,0.0025009999999999998,-0.00244,-0.000183,0.49000000000000005,-1.9775000000000003,-3.7275000000000005,0.81625,0.15415625,0.070125,1.04309375,0.78153125,-0.3631875,-0.41621875,1.0319375,0.021234649612247986,0.019918880764450884,True
26282,24478,0,24479,4026.0,39494.0,40336.0,0.002257,-0.0013419999999999999,0.0017079999999999999,0.47250000000000003,-1.995,-3.8325000000000005,0.81525,0.1575,0.0666875,1.0474375,0.77184375,-0.36321875000000003,-0.41565625,1.03290625,0.021373150869073897,0.019755510360283682,True
26283,24479,0,24480,4026.0,39495.0,40336.0,-0.002562,0.000488,-0.000183,0.45500000000000007,-1.2775,-3.7100000000000004,0.81671875,0.15465625,0.0675625,1.04840625,0.77365625,-0.36403125000000003,-0.4195,1.031625,0.021289067259754067,0.01994563770756977,True
26284,24480,0,24481,4025.0,39495.0,40336.0,-0.003172,0.001769,0.001464,0.385,-1.12,-3.7100000000000004,0.80953125,0.1544375,0.06728125,1.0479375,0.77915625,-0.3620625,-0.4186875,1.0255625,0.02120099642630832,0.019901509857972507,True
26285,24481,0,24482,4025.0,39497.0,40339.0,-0.002745,0.000549,0.000244,0.43750000000000006,-1.2425000000000002,-3.8325000000000005,0.81159375,0.16075,0.07446875,1.0500625000000001,0.7799375000000001,-0.363375,-0.4185625,1.03328125,0.021512824064810393,0.02019083842466157,True
26286,24482,0,24483,4024.0,39495.0,40343.0,-0.000488,-0.000366,0.000305,0.36750000000000005,-1.54,-3.8500000000000005,0.81575,0.15434375,0.06765625,1.04090625,0.77965625,-0.363,-0.41640625000000003,1.03203125,0.02123481303616139,0.019825296771509935,True
26287,24483,0,24484,4027.0,39496.0,40341.0,-0.000732,0.001098,-0.001098,0.49000000000000005,-1.5925000000000002,-3.8675,0.81446875,0.1515,0.06815625,1.04165625,0.7867500000000001,-0.36340625,-0.41625,1.0199375,0.02113441136745811,0.0198395023805867,True
26288,24484,0,24485,4024.0,39498.0,40344.0,-0.0008539999999999999,-0.0006709999999999999,0.000793,0.36750000000000005,-1.9600000000000002,-4.0075,0.8168125,0.1504375,0.06725,1.0381875,0.7864375,-0.36290625,-0.41590625000000003,1.02553125,0.021070710724423528,0.019788585566018056,True
26289,24485,0,24486,4025.0,39496.0,40345.0,0.000488,-0.000366,-0.00042699999999999997,0.42000000000000004,-2.0825,-3.9375000000000004,0.80940625,0.15328125,0.0656875,1.05103125,0.784,-0.36628125,-0.41896875,1.01928125,0.02132301169264391,0.0198475314400818,True
26290,24486,0,24487,4027.0,39495.0,40347.0,0.000488,-0.000305,-0.000915,0.5425000000000001,-2.2750000000000004,-3.9725000000000006,0.8096875,0.15378125,0.06753125,1.0420625000000001,0.77925,-0.36359375,-0.414125,1.0323437500000001,0.02123557818722864,0.019728589494810895,True
26291,24487,0,24488,4026.0,39499.0,40349.0,0.004209,0.001403,-0.00061,0.49000000000000005,-2.415,-4.130000000000001,0.812,0.151375,0.06453125,1.0381562500000001,0.785875,-0.3659375,-0.41525,1.0254375,0.021230970489027973,0.019650884180993436,True
26292,24488,0,24489,4026.0,39499.0,40348.0,0.003965,-0.000732,-0.001281,0.4025,-2.345,-4.305000000000001,0.8125,0.15446875000000002,0.068125,1.04203125,0.779375,-0.362,-0.41615625,1.03221875,0.021199768081438308,0.019834458996796433,True
26293,24489,0,24490,4027.0,39498.0,40351.0,0.001037,0.00122,0.0,0.29750000000000004,-1.9775000000000003,-4.095000000000001,0.814875,0.15275,0.06759375000000001,1.0421562500000001,0.78721875,-0.36275,-0.415375,1.0258125,0.021159351879406065,0.019781336555346783,True
26294,24490,0,24491,4028.0,39501.0,40352.0,-0.000122,-0.000976,0.000549,0.4025,-1.995,-4.1475,0.81003125,0.151625,0.0671875,1.0422500000000001,0.7856875,-0.36528125,-0.41528125,1.02515625,0.021214869005462437,0.019760933534197972,True
26295,24491,0,24492,4029.0,39500.0,40353.0,6.1e-05,-0.0017079999999999999,0.000488,0.385,-1.8725000000000003,-4.0425,0.81334375,0.1543125,0.0678125,1.04696875,0.78640625,-0.361375,-0.41600000000000004,1.031,0.02116824276133839,0.0198153874508519,True
26296,24492,0,24493,4030.0,39502.0,40355.0,0.000793,0.0,-0.000366,0.3325,-1.8375000000000001,-3.99,0.80915625,0.15415625,0.06775,1.0455625,0.78025,-0.36221875000000003,-0.41778125,1.027875,0.021195729555625965,0.01988433121866877,True
26297,24493,0,24494,4031.0,39504.0,40357.0,0.000366,0.0006709999999999999,0.00042699999999999997,0.2625,-1.6450000000000002,-3.9025000000000003,0.81140625,0.161,0.07246875,1.04284375,0.7698125,-0.36375,-0.41671875,1.03328125,0.021538145810887078,0.0200349401985064,True
26298,24494,0,24495,4031.0,39504.0,40357.0,-0.0006709999999999999,-0.000915,-0.000488,0.35000000000000003,-1.4525000000000001,-3.6925000000000003,0.8090937500000001,0.15328125,0.06771875000000001,1.0429375,0.7876875,-0.36271875000000003,-0.41453125,1.0230625,0.02117990218148375,0.019752580750449594,True
26299,24495,0,24496,4032.0,39506.0,40360.0,-0.000793,-0.0015249999999999999,-0.000915,0.31500000000000006,-1.2775,-3.6750000000000003,0.809625,0.1525625,0.0671875,1.0425625,0.79415625,-0.3631875,-0.4169375,1.0380625,0.02116923329510968,0.019827425122417586,True
26300,24496,0,24497,4033.0,39504.0,40360.0,-0.002623,-0.000122,0.000183,0.4025,-1.1900000000000002,-3.7450000000000006,0.81465625,0.15434375,0.0675,1.04821875,0.7790625,-0.35978125,-0.42278125,1.0263125,0.021105485091332664,0.020074750904956824,True
26301,24497,0,24498,4034.0,39503.0,40363.0,-0.0035989999999999998,0.002745,0.003477,0.525,-1.2775,-3.6575,0.809,0.1536875,0.065125,1.04915625,0.77565625,-0.36896875,-0.418875,1.0230625,0.021447614602074616,0.019820732937123435,True
26302,24498,0,24499,4035.0,39506.0,40362.0,-0.000976,0.0030499999999999998,0.00122,0.45500000000000007,-1.3475000000000001,-3.7275000000000005,0.809875,0.15584375,0.0615625,1.04465625,0.76984375,-0.36865625,-0.416875,1.023375,0.021523550359901358,0.01959454270867996,True
26303,24499,0,24500,4037.0,39506.0,40366.0,-0.001098,0.002562,-0.000366,0.5425000000000001,-1.4175000000000002,-3.7975000000000003,0.78928125,0.1545,0.06331250000000001,1.0375,0.77815625,-0.36609375,-0.4174375,1.021125,0.021365498932302183,0.019688798220533994,True
26304,24500,0,24501,4036.0,39506.0,40365.0,0.000244,-0.000244,-0.002257,0.29750000000000004,-1.6275000000000002,-3.9375000000000004,0.8024687500000001,0.141375,0.06459375,1.03203125,0.7808437500000001,-0.36840625,-0.41271875,1.0229062500000001,0.02091976162782496,0.019551796130859042,True
26305,24501,0,24502,4039.0,39507.0,40367.0,0.000366,-0.005246,-0.001281,0.2625,-1.7500000000000002,-3.9025000000000003,0.80253125,0.14559375,0.07678125,1.04046875,0.7804375,-0.36790625,-0.4140625,1.027,0.021072799391617814,0.02010496,True
26306,24502,0,24503,4040.0,39507.0,40369.0,0.001098,-0.004941,-0.0023179999999999997,0.24500000000000002,-1.9425000000000001,-3.8850000000000002,0.82178125,0.15812500000000002,0.064375,1.04084375,0.78859375,-0.35831250000000003,-0.42212500000000003,1.02990625,0.021201694493409595,0.019920461466805203,True
26307,24503,0,24504,4041.0,39504.0,40370.0,0.002257,-0.0006709999999999999,-0.000488,0.47250000000000003,-2.0475000000000003,-3.8150000000000004,0.79709375,0.14371875,0.07228125,1.0475625,0.76884375,-0.36893750000000003,-0.4138125,1.03740625,0.02103728363208285,0.01991060388458378,True
26308,24504,0,24505,4042.0,39508.0,40372.0,0.0013419999999999999,0.00042699999999999997,0.000366,0.5425000000000001,-1.9075000000000002,-3.6575,0.83075,0.16053125000000001,0.072875,1.03378125,0.79003125,-0.36140625,-0.41450000000000004,1.0384375000000001,0.021424768941653353,0.019962522271600894,True
26309,24505,0,24506,4043.0,39509.0,40374.0,0.000549,0.0048189999999999995,0.0011589999999999999,0.56,-1.8200000000000003,-3.5700000000000003,0.81725,0.15765625,0.06771875000000001,1.0638125,0.78025,-0.36209375,-0.416625,1.035125,0.021334373200168805,0.019836637946481137,True
26310,24506,0,24507,4043.0,39511.0,40373.0,0.0006709999999999999,0.0068319999999999995,0.001769,0.6125,-1.7325000000000002,-3.535,0.82003125,0.15737500000000001,0.0643125,1.05128125,0.77646875,-0.36212500000000003,-0.41981250000000003,1.0283437500000001,0.021324084003345362,0.019825090794616054,True
26311,24507,0,24508,4045.0,39510.0,40376.0,0.001403,0.00244,0.0017079999999999999,0.4025,-1.715,-3.6750000000000003,0.79796875,0.1413125,0.0680625,1.0326875,0.7778125,-0.36453125000000003,-0.4140625,1.024375,0.020761480892434573,0.019747840000000003,True
26312,24508,0,24509,4044.0,39510.0,40376.0,-0.000122,-0.0008539999999999999,0.000488,0.3325,-1.155,-3.7100000000000004,0.82346875,0.15125,0.07171875,1.03571875,0.784,-0.3633125,-0.4154375,1.02409375,0.021120383363304972,0.019952796258514722,True
26313,24509,0,24510,4047.0,39512.0,40379.0,-0.0021349999999999997,-0.0011589999999999999,-0.002379,0.2625,-0.9800000000000001,-3.6575,0.83053125,0.15825,0.06571875,1.0403125,0.78578125,-0.36284375,-0.41671875,1.026875,0.0213888721426455,0.019758490276257944,True
26314,24510,0,24511,4047.0,39512.0,40377.0,-0.001403,-0.002806,-0.002562,0.22750000000000004,-0.8400000000000001,-3.7100000000000004,0.7973750000000001,0.15140625,0.06575,1.044,0.78015625,-0.36471875,-0.4166875,1.02484375,0.02118329397912709,0.019758515564406515,True
26315,24511,0,24512,4049.0,39510.0,40377.0,-0.00122,-0.0032329999999999998,-0.002257,0.2625,-0.805,-3.7450000000000006,0.7973750000000001,0.15521875000000002,0.06596875,1.0493125,0.7803125,-0.36590625,-0.41581250000000003,1.02675,0.021387466349625312,0.019732345585468436,True
26316,24512,0,24513,4047.0,39507.0,40368.0,-0.001647,-0.00244,6.1e-05,0.28,-0.665,-3.5875000000000004,0.81546875,0.15440625,0.06759375000000001,1.0420625000000001,0.77834375,-0.36365625,-0.41765625,1.03165625,0.021263741972225535,0.019872914706955135,True
26317,24513,0,24514,4045.0,39504.0,40359.0,-0.005124,-0.00122,0.0021349999999999997,0.31500000000000006,-0.6125,-3.7625,0.8171875000000001,0.151,0.06740625,1.042375,0.7804375,-0.3628125,-0.4165625,1.0323437500000001,0.021090032195584973,0.019821330295777713,True
26318,24514,0,24515,4043.0,39502.0,40346.0,-0.004697,-0.0008539999999999999,0.001769,0.36750000000000005,-0.9450000000000001,-3.7275000000000005,0.8125,0.151625,0.06821875,1.042375,0.78578125,-0.36278125,-0.41578125,1.02840625,0.02111443043884819,0.01982324444359117,True
26319,24515,0,24516,4039.0,39498.0,40337.0,-0.002989,0.001403,0.000366,0.45500000000000007,-1.3475000000000001,-3.8325000000000005,0.808625,0.15290625,0.06965625,1.04278125,0.77778125,-0.36259375,-0.41609375,1.0321875,0.021159487585347928,0.019894664763891644,True
26320,24516,0,24517,4034.0,39499.0,40328.0,-0.0008539999999999999,0.003172,-0.001647,0.3325,-1.7500000000000002,-4.025,0.8165625,0.15403125,0.06746875000000001,1.0474375,0.78678125,-0.36353125000000003,-0.41109375000000004,1.0348125,0.021243328591786136,0.019604303883352218,True
26321,24517,0,24518,4030.0,39494.0,40320.0,0.002196,0.0032329999999999998,-0.001281,0.43750000000000006,-2.205,-4.0425,0.8175625,0.15428125,0.06740625,1.048125,0.78040625,-0.35846875,-0.41909375,1.02540625,0.021050173771699012,0.019922934281703227,True
26322,24518,0,24519,4025.0,39493.0,40315.0,0.0071979999999999995,-0.000976,0.000183,0.5075000000000001,-2.6425,-4.130000000000001,0.81403125,0.15425,0.06746875000000001,1.046375,0.78009375,-0.36262500000000003,-0.41828125,1.031375,0.02121589935403102,0.01989288250990229,True
26323,24519,0,24520,4019.0,39493.0,40311.0,0.0040869999999999995,-0.00122,0.001037,0.5425000000000001,-2.6250000000000004,-3.9375000000000004,0.81590625,0.15528125,0.06746875000000001,1.0469375,0.7811875,-0.3643125,-0.4165,1.0314375,0.02132601730502348,0.019821381033317636,True
26324,24520,0,24521,4016.0,39492.0,40308.0,0.005429,0.0,-0.000244,0.385,-2.45,-3.99,0.8165625,0.1540625,0.0673125,1.04196875,0.78034375,-0.36328125,-0.419,1.03475,0.02123456790123457,0.019915332323190958,True
26325,24521,0,24522,4013.0,39489.0,40306.0,0.0034159999999999998,0.000366,-0.001464,0.47250000000000003,-2.1700000000000004,-3.9200000000000004,0.8114687500000001,0.15134375,0.06803125,1.0440625000000001,0.78534375,-0.35996875,-0.41559375,1.03290625,0.020989866828133762,0.019808037639879227,True
26326,24522,0,24523,4009.0,39491.0,40306.0,0.00042699999999999997,0.0,-0.000976,0.47250000000000003,-1.5750000000000002,-3.7625,0.8165625,0.1541875,0.067125,1.0494375,0.78053125,-0.363375,-0.41690625000000003,1.019125,0.021243464831945492,0.019823610945797033,True
26327,24523,0,24524,4007.0,39490.0,40308.0,-0.002989,0.000244,0.002074,0.3325,-1.2425000000000002,-3.7800000000000002,0.8183125,0.1545625,0.06740625,1.0504375,0.77965625,-0.36296875,-0.41615625,1.02646875,0.02124253638013635,0.01980502152135433,True
26328,24524,0,24525,4007.0,39492.0,40309.0,-0.004575,-0.000549,0.001769,0.36750000000000005,-1.3650000000000002,-3.7975000000000003,0.80775,0.15359375,0.06521875,1.0420625000000001,0.77965625,-0.36559375,-0.4111875,1.0255,0.02130822278853763,0.01951589819217111,True
26329,24525,0,24526,4003.0,39490.0,40310.0,-0.004331,-0.00061,0.000793,0.5075000000000001,-1.5050000000000001,-3.8500000000000005,0.81478125,0.16159375,0.063625,1.04259375,0.786375,-0.3630625,-0.4159375,1.02640625,0.02153490555631091,0.019641371542665525,True
26330,24526,0,24527,4004.0,39492.0,40310.0,-0.0034159999999999998,-0.001586,0.00061,0.35000000000000003,-1.4700000000000002,-3.7450000000000006,0.8144375,0.154,0.06696875000000001,1.04746875,0.786625,-0.36240625,-0.41703125,1.0250625,0.0211968491412871,0.01982222961687859,True
26331,24527,0,24528,4002.0,39491.0,40312.0,-0.0013419999999999999,-0.00183,-0.000244,0.29750000000000004,-1.7325000000000002,-3.7975000000000003,0.8100625,0.15746875,0.06571875,1.04284375,0.7799375000000001,-0.36534375,-0.41590625000000003,1.0284375000000001,0.021457218308278535,0.019725870302274774,True
26332,24528,0,24529,4002.0,39490.0,40315.0,0.0021349999999999997,6.1e-05,-0.0032329999999999998,0.43750000000000006,-2.1350000000000002,-3.9375000000000004,0.81475,0.1595625,0.06759375000000001,1.048375,0.77959375,-0.36359375,-0.41746875,1.02803125,0.021472868714206006,0.01986538838101308,True
26333,24529,0,24530,4002.0,39490.0,40317.0,0.005246,0.001952,-0.00122,0.31500000000000006,-2.345,-3.99,0.8094375,0.15459375,0.0649375,1.0426875,0.77990625,-0.36165625,-0.418,1.0265625,0.021191087941732203,0.01977793021541486,True
26334,24530,0,24531,4002.0,39491.0,40318.0,0.003721,0.00061,0.000305,0.45500000000000007,-2.205,-3.9375000000000004,0.80978125,0.153625,0.065125,1.04378125,0.78296875,-0.3650625,-0.4154375,1.0267187500000001,0.021288166201092237,0.01968273146856369,True
26335,24531,0,24532,4000.0,39495.0,40319.0,0.0017079999999999999,0.000793,0.001098,0.525,-2.0125,-3.9550000000000005,0.81015625,0.15228125,0.06646875000000001,1.04209375,0.781625,-0.36559375,-0.41534375,1.02675,0.021254355847577077,0.019734004359451215,True
26336,24532,0,24533,4003.0,39493.0,40320.0,0.000244,0.000915,0.003477,0.5425000000000001,-1.9075000000000002,-3.8150000000000004,0.80996875,0.15309375,0.06475,1.04278125,0.78059375,-0.36562500000000003,-0.415125,1.0258125,0.02128895729126587,0.01965482462203245,True
26337,24533,0,24534,4001.0,39493.0,40323.0,0.0006709999999999999,-0.000183,0.000915,0.385,-1.9600000000000002,-3.6750000000000003,0.809125,0.153125,0.06509375,1.0305,0.7808125,-0.36421875,-0.414375,1.0254375,0.02123375082568572,0.01963878862350562,True
26338,24534,0,24535,4003.0,39494.0,40323.0,0.0015249999999999999,-0.001037,-0.0013419999999999999,0.43750000000000006,-1.8725000000000003,-3.7625,0.8098125,0.15153125,0.06775,1.04296875,0.80240625,-0.3619375,-0.41625,1.0425312500000001,0.02107667955391479,0.01982286387139712,True
26339,24535,0,24536,4003.0,39495.0,40325.0,0.002379,-0.000549,-0.0025009999999999998,0.36750000000000005,-1.61,-3.7100000000000004,0.81665625,0.15425,0.06771875000000001,1.04928125,0.77428125,-0.3620625,-0.41959375,1.016375,0.02119330003360758,0.01995579881422065,True
26340,24536,0,24537,4005.0,39496.0,40330.0,-0.000915,-0.000122,-0.003172,0.22750000000000004,-1.3825,-3.5525,0.81025,0.15259375,0.0654375,1.043,0.7848125,-0.3659375,-0.4129375,1.039125,0.021280989085685702,0.019595142944186867,True
26341,24537,0,24538,4003.0,39495.0,40326.0,-0.000488,0.000122,-0.0013419999999999999,0.36750000000000005,-1.1375000000000002,-3.6925000000000003,0.8169062500000001,0.15315625,0.06521875,1.04284375,0.781375,-0.36175,-0.41334375,1.02375,0.0211358482046651,0.019602497097514552,True
26342,24538,0,24539,4005.0,39494.0,40326.0,-0.0026839999999999998,0.00061,0.001281,0.5075000000000001,-0.8400000000000001,-3.6750000000000003,0.80940625,0.15459375,0.0684375,1.04371875,0.7976875,-0.37146875,-0.42090625,1.0396875,0.021585178365583733,0.020037902975038036,True
26343,24539,0,24540,4005.0,39496.0,40327.0,-0.003477,6.1e-05,0.0035989999999999998,0.45500000000000007,-0.8750000000000001,-3.5700000000000003,0.81490625,0.15131250000000002,0.06575,1.04203125,0.77515625,-0.36140625,-0.41534375,1.0285312500000001,0.021046352773662232,0.019704565904381337,True
26344,24540,0,24541,4004.0,39494.0,40325.0,-0.002379,-0.0008539999999999999,0.002013,0.42000000000000004,-1.0325000000000002,-3.5525,0.80965625,0.1543125,0.0674375,1.04571875,0.79990625,-0.36596875,-0.414125,1.02034375,0.02135278327482875,0.01972474950464127,True
26345,24541,0,24542,4005.0,39495.0,40324.0,-0.001647,0.000122,-0.001098,0.45500000000000007,-1.1375000000000002,-3.5700000000000003,0.81634375,0.1524375,0.06828125,1.04303125,0.77446875,-0.3618125,-0.41250000000000003,1.03871875,0.021108856329963135,0.019694060419866873,True
26346,24542,0,24543,4005.0,39494.0,40323.0,-0.001037,0.000244,-0.00042699999999999997,0.4025,-1.2425000000000002,-3.535,0.8125,0.15353125,0.06759375000000001,1.04315625,0.7724375,-0.36071875000000003,-0.4196875,1.0384375000000001,0.021109804077517214,0.01995444249644882,True
26347,24543,0,24544,4004.0,39496.0,40322.0,0.000976,-0.000549,-0.001586,0.49000000000000005,-1.6450000000000002,-3.7450000000000006,0.8098125,0.15203125,0.0653125,1.04240625,0.78834375,-0.360875,-0.41309375,1.02784375,0.021054508510059675,0.019596297581088017,True
26348,24544,0,24545,4003.0,39493.0,40321.0,0.002745,0.000793,-0.000793,0.49000000000000005,-1.8375000000000001,-3.7975000000000003,0.81021875,0.15365625,0.06590625,1.0478750000000001,0.7878437500000001,-0.36228125,-0.41221875,1.0226250000000001,0.02117771709084099,0.019585479095381282,True
26349,24545,0,24546,4003.0,39492.0,40319.0,0.003355,0.0017079999999999999,-0.000122,0.5075000000000001,-1.8200000000000003,-3.9375000000000004,0.8100937500000001,0.15284375,0.06525,1.04321875,0.7821250000000001,-0.36203125,-0.4140625,1.02409375,0.021134321465908143,0.01963264,True
26350,24546,0,24547,4001.0,39494.0,40318.0,0.001769,-0.000122,0.002013,0.5425000000000001,-1.7850000000000001,-3.9025000000000003,0.810125,0.1523125,0.06653125,1.04315625,0.7858437500000001,-0.36478125,-0.41534375,1.02559375,0.02122299989867547,0.019736564225109464,True
26351,24547,0,24548,4001.0,39490.0,40319.0,0.001281,-0.000244,0.0015249999999999999,0.525,-1.715,-3.7800000000000002,0.80965625,0.15184375,0.066375,1.042625,0.7899375000000001,-0.36275,-0.4146875,1.025125,0.021122153697755795,0.019703815582321094,True
26352,24548,0,24549,4001.0,39492.0,40320.0,0.0015249999999999999,-0.0008539999999999999,-0.001403,0.5075000000000001,-1.6800000000000002,-3.7100000000000004,0.79890625,0.15390625,0.06790625,1.04334375,0.7816875,-0.36496875,-0.415375,1.03109375,0.021295943587040306,0.019794135867255775,True
26353,24549,0,24550,3999.0,39496.0,40321.0,0.001769,-6.1e-05,-0.0008539999999999999,0.42000000000000004,-1.5750000000000002,-3.7800000000000002,0.80734375,0.154875,0.0678125,1.042625,0.77465625,-0.36240625,-0.41659375,1.0286875,0.02123276513378066,0.01983922306935217,True
26354,24550,0,24551,4001.0,39493.0,40319.0,-0.000244,-0.00042699999999999997,-0.001281,0.4025,-1.4700000000000002,-3.6400000000000006,0.81378125,0.15146875,0.066125,1.04646875,0.7855625,-0.36212500000000003,-0.41503125,1.0193125,0.021081648255232253,0.019707378011240517,True
26355,24551,0,24552,4001.0,39496.0,40319.0,-0.002257,-0.000366,0.000244,0.36750000000000005,-1.1900000000000002,-3.5875000000000004,0.8093750000000001,0.154375,0.068,1.04284375,0.7798125,-0.364,-0.4174375,1.03171875,0.021276268264652766,0.019880771682122666,True
26356,24552,0,24553,4000.0,39495.0,40325.0,-0.0013419999999999999,0.0006709999999999999,0.0008539999999999999,0.42000000000000004,-1.12,-3.6050000000000004,0.815625,0.152875,0.06834375,1.04271875,0.78325,-0.36325,-0.41465625,1.03103125,0.021184571023980792,0.01978319887260342,True
26357,24553,0,24554,4002.0,39499.0,40324.0,-0.0025009999999999998,0.001464,0.0011589999999999999,0.43750000000000006,-1.12,-3.7275000000000005,0.81090625,0.15140625,0.0659375,1.04275,0.7888437500000001,-0.36253125,-0.41446875,1.025625,0.021095406496400085,0.019677112572846787,True
26358,24554,0,24555,4003.0,39498.0,40327.0,-0.0018909999999999999,0.001464,0.0011589999999999999,0.45500000000000007,-1.2775,-3.8150000000000004,0.8100625,0.1516875,0.066125,1.04521875,0.78809375,-0.3659375,-0.41525,1.02590625,0.02124379577022226,0.01971616100592867,True
26359,24555,0,24556,4004.0,39498.0,40328.0,-0.000915,0.000488,0.001769,0.385,-1.435,-3.9025000000000003,0.810625,0.15375,0.06471875,1.04725,0.7815,-0.36728125,-0.41675,1.025875,0.021382412122813253,0.01971878935566773,True
26360,24556,0,24557,4003.0,39499.0,40329.0,6.1e-05,-0.000549,0.000976,0.28,-1.5225000000000002,-3.9375000000000004,0.8064375,0.15428125,0.06490625,1.0505625,0.779625,-0.3633125,-0.41584375,1.02621875,0.021244801994802637,0.019690083411514295,True
26361,24557,0,24558,4005.0,39500.0,40332.0,0.002196,-0.00061,-0.000305,0.1925,-1.6625,-3.9725000000000006,0.8059375,0.154625,0.06625,1.05521875,0.78090625,-0.36571875,-0.41825,1.0321875,0.02135556744042283,0.019841716748743257,True
26362,24558,0,24559,4007.0,39500.0,40334.0,0.001952,-0.001464,0.00042699999999999997,-0.07,-1.7500000000000002,-4.0600000000000005,0.81740625,0.1555625,0.069,1.04159375,0.7805625,-0.362875,-0.41875,1.03359375,0.02127981611365654,0.019974404914256463,True
26363,24559,0,24560,4007.0,39502.0,40334.0,0.001281,-0.001647,-0.00061,-0.052500000000000005,-1.5925000000000002,-3.8500000000000005,0.82425,0.152875,0.07040625,1.03840625,0.7876562500000001,-0.3625,-0.4150625,1.03328125,0.021154438173422267,0.01988398555195179,True
26364,24560,0,24561,4009.0,39501.0,40337.0,0.000122,-0.001098,-0.002562,0.052500000000000005,-1.4700000000000002,-3.9375000000000004,0.81815625,0.14856250000000001,0.06525,1.03978125,0.788375,-0.35625,-0.41446875,1.02703125,0.020726199640749295,0.019648953041421387,True
26365,24561,0,24562,4010.0,39503.0,40337.0,-0.001098,0.000549,-0.002928,-0.052500000000000005,-1.4875,-3.8850000000000002,0.80575,0.15290625,0.06621875,1.05346875,0.7808437500000001,-0.36359375,-0.41696875,1.0258125,0.02119966394530774,0.019789004316926113,True
26366,24562,0,24563,4009.0,39503.0,40340.0,-0.0021349999999999997,0.001647,-0.0011589999999999999,0.052500000000000005,-1.61,-3.7625,0.80634375,0.15509375,0.0668125,1.0558750000000001,0.7808125,-0.36112500000000003,-0.4176875,1.0316875,0.02119026728034933,0.019842173834029125,True
26367,24563,0,24564,4010.0,39504.0,40343.0,0.001403,0.0021349999999999997,0.0015249999999999999,0.24500000000000002,-1.8200000000000003,-3.8500000000000005,0.82540625,0.14896875,0.07,1.03371875,0.7808125,-0.35525,-0.41478125,1.02615625,0.02070267190852075,0.019856055437727914,True
26368,24564,0,24565,4013.0,39505.0,40344.0,0.001647,-0.000183,0.0017079999999999999,0.28,-1.8900000000000001,-3.8500000000000005,0.80584375,0.15065625,0.0618125,1.0485625,0.7850312500000001,-0.36453125000000003,-0.4069375,1.0271875,0.021144978933259798,0.01920560496375262,True
26369,24565,0,24566,4011.0,39507.0,40346.0,0.0023179999999999997,-0.000732,0.000244,0.4025,-1.8550000000000002,-3.9375000000000004,0.80559375,0.1601875,0.06840625,1.049125,0.78059375,-0.36315625,-0.417625,1.0313125,0.021480950359213002,0.019904935471815953,True
26370,24566,0,24567,4014.0,39506.0,40347.0,0.0006709999999999999,0.001464,0.000732,0.35000000000000003,-1.6800000000000002,-3.9550000000000005,0.8135,0.153,0.07065625,1.04115625,0.77975,-0.36309375,-0.41478125,1.026875,0.02118342421105694,0.019882934646404008,True
26371,24567,0,24568,4015.0,39507.0,40350.0,-0.001952,-0.003477,0.00061,0.385,-1.61,-3.9025000000000003,0.80978125,0.15075,0.06728125,1.04878125,0.7843125,-0.36475,-0.415125,1.0269375,0.021157614997075695,0.01975850011007521,True
26372,24568,0,24569,4015.0,39506.0,40354.0,-0.001281,-0.0023179999999999997,-0.00042699999999999997,0.28,-1.4525000000000001,-3.7625,0.80865625,0.15421875000000002,0.06846875,1.05059375,0.7806875,-0.36490625,-0.41684375,1.025375,0.021306258873867,0.019876135710619847,True
26373,24569,0,24570,4019.0,39509.0,40353.0,-0.001769,-0.000244,-0.001647,0.4025,-1.5050000000000001,-3.7800000000000002,0.81725,0.1546875,0.068375,1.04284375,0.78028125,-0.36334375,-0.41478125,1.02925,0.0212627320500701,0.019789497397196626,True
26374,24570,0,24571,4019.0,39510.0,40356.0,-0.002196,0.003294,-0.000549,0.5425000000000001,-1.4875,-3.7975000000000003,0.8035625000000001,0.15496875000000002,0.0678125,1.0433125,0.78796875,-0.36621875,-0.42009375,1.04534375,0.021389757079152874,0.019979704213871005,True
26375,24571,0,24572,4020.0,39510.0,40358.0,-0.0013419999999999999,0.004514,0.00183,0.56,-1.4525000000000001,-3.7975000000000003,0.81040625,0.1541875,0.06809375,1.048875,0.783,-0.3615625,-0.41325,1.02028125,0.021170645355773055,0.01971649616499237,True
26376,24572,0,24573,4021.0,39512.0,40358.0,6.1e-05,0.001464,0.0017079999999999999,0.43750000000000006,-1.8900000000000001,-4.095000000000001,0.8159375,0.1523125,0.066125,1.0469375,0.77309375,-0.3574375,-0.41425,1.02359375,0.02092789933259605,0.019676008888251738,True
26377,24573,0,24574,4022.0,39511.0,40359.0,0.0013419999999999999,-0.00244,0.000305,0.49000000000000005,-2.0650000000000004,-4.2700000000000005,0.81659375,0.15365625,0.06871875,1.0429375,0.78021875,-0.36684375,-0.42696875,1.0406875,0.021360993871026072,0.020292632502753743,True
26378,24574,0,24575,4023.0,39514.0,40359.0,0.002074,-0.0051849999999999995,-0.0023179999999999997,0.28,-2.2225,-4.165,0.81103125,0.15215625,0.068,1.0444375000000001,0.7748125,-0.35840625,-0.41284375,1.0313125,0.02096042305723512,0.019696343241454615,True
26379,24575,0,24576,4024.0,39513.0,40360.0,0.004209,-0.003721,-0.0021349999999999997,0.28,-2.345,-4.095000000000001,0.80934375,0.15546875000000002,0.0668125,1.0373125,0.7798437500000001,-0.37543750000000004,-0.41453125,1.02328125,0.021780378300902292,0.01971546146313991,True
26380,24576,0,24577,4026.0,39514.0,40363.0,0.006222,-0.001647,-0.0026839999999999998,0.28,-2.4850000000000003,-4.0425,0.8162812500000001,0.1519375,0.066125,1.04646875,0.76775,-0.3624375,-0.41550000000000004,1.02596875,0.021113445647628654,0.01972619852143106,True
26381,24577,0,24578,4026.0,39516.0,40363.0,0.002928,0.0025009999999999998,-0.002257,0.385,-1.7325000000000002,-3.7275000000000005,0.80996875,0.1539375,0.067375,1.04296875,0.79059375,-0.372125,-0.42053125,1.0456875,0.02158459715761346,0.019979346272411665,True
26382,24578,0,24579,4027.0,39513.0,40368.0,-0.000549,0.004575,-0.0006709999999999999,0.5425000000000001,-1.2950000000000002,-3.6225000000000005,0.80959375,0.15746875,0.06790625,1.04684375,0.7895,-0.3666875,-0.4185625,1.0228125000000001,0.021511182018483226,0.019922087960747074,True
26383,24579,0,24580,4028.0,39518.0,40371.0,-0.0032329999999999998,0.0055509999999999995,0.0030499999999999998,0.7350000000000001,-1.0850000000000002,-3.6225000000000005,0.8191875000000001,0.15284375,0.0686875,1.0425625,0.76846875,-0.36015625,-0.41615625,1.035125,0.021058978223918414,0.019857497021055475,True
26384,24580,0,24581,4030.0,39518.0,40370.0,-0.003111,0.001952,0.0053679999999999995,0.6475000000000001,-0.8400000000000001,-3.6750000000000003,0.8095625,0.15040625,0.06590625,1.04809375,0.79915625,-0.36696875,-0.410125,1.0154375,0.021232636907288684,0.01950138518340238,True
26385,24581,0,24582,4030.0,39516.0,40372.0,-0.002074,-0.0017079999999999999,0.0040869999999999995,0.47250000000000003,-0.6825000000000001,-3.5875000000000004,0.809125,0.15446875000000002,0.0675625,1.04878125,0.7793125,-0.37446875,-0.41471875,1.025,0.021700472959026034,0.019753709020301536,True
26386,24582,0,24583,4033.0,39517.0,40373.0,0.0008539999999999999,-0.003477,-0.000305,0.29750000000000004,-0.47250000000000003,-3.6925000000000003,0.8144375,0.15475,0.06890625,1.043125,0.7671875,-0.36196875,-0.414875,1.0343125,0.021210057171590455,0.019815020556115892,True
26387,24583,0,24584,4034.0,39518.0,40374.0,-0.000122,-0.0034159999999999998,-0.002928,0.17500000000000002,-0.35000000000000003,-3.7275000000000005,0.8105,0.1526875,0.068,1.031125,0.779875,-0.36265625,-0.41325,1.02596875,0.021153019798487695,0.019712656037192917,True
26388,24584,0,24585,4033.0,39518.0,40367.0,-0.002989,-0.0030499999999999998,-0.003172,0.21000000000000002,-0.31500000000000006,-3.6225000000000005,0.80565625,0.15459375,0.06553125,1.050125,0.77575,-0.36212500000000003,-0.4159375,1.03059375,0.02120992113783178,0.019719445546582025,True
26389,24585,0,24586,4033.0,39513.0,40356.0,-0.003904,-0.001098,-0.001037,0.385,-0.10500000000000001,-3.6400000000000006,0.8169375,0.15540625,0.0675,1.043875,0.7806875,-0.3635625,-0.41550000000000004,1.0229375,0.0213010207353707,0.0197825152055047,True
26390,24586,0,24587,4032.0,39511.0,40347.0,-0.007076,0.00042699999999999997,-0.0011589999999999999,0.385,0.0175,-3.6225000000000005,0.81603125,0.1549375,0.06703125,1.04665625,0.78075,-0.362875,-0.418875,1.03003125,0.021254162326901076,0.019898797549027136,True
26391,24587,0,24588,4029.0,39509.0,40337.0,-0.003294,0.001403,0.0021349999999999997,0.6300000000000001,-0.7175,-3.7275000000000005,0.81034375,0.15409375,0.06625,1.0430625,0.77809375,-0.3645625,-0.4174375,1.0266875,0.02128732046799527,0.01980910158979623,True
26392,24588,0,24589,4027.0,39506.0,40329.0,-0.0008539999999999999,0.0013419999999999999,0.004148,0.5775,-1.05,-3.8150000000000004,0.80978125,0.15265625,0.06578125,1.0435,0.7810312500000001,-0.36340625,-0.41431250000000003,1.0225625,0.021181869838089656,0.019664438636148366,True
26393,24589,0,24590,4020.0,39503.0,40322.0,0.003111,0.000976,0.003538,0.47250000000000003,-1.5225000000000002,-3.9200000000000004,0.8113750000000001,0.15378125,0.0680625,1.043625,0.7896875,-0.36215625,-0.41509375,1.0269375,0.021177825751774335,0.019789244102329115,True
26394,24590,0,24591,4015.0,39503.0,40319.0,0.0026839999999999998,0.00183,0.0013419999999999999,0.43750000000000006,-1.9425000000000001,-3.8675,0.81571875,0.15812500000000002,0.068,1.04903125,0.78640625,-0.36325,-0.4189375,1.03209375,0.02140005951586919,0.019940978185475928,True
26395,24591,0,24592,4013.0,39500.0,40314.0,0.003843,0.002989,-0.0011589999999999999,0.35000000000000003,-2.1350000000000002,-3.8325000000000005,0.80984375,0.1543125,0.06609375,1.0393125,0.7801875,-0.36396875,-0.41709375,1.0256875,0.021272447659004653,0.019788903009802305,True
26396,24592,0,24593,4008.0,39498.0,40310.0,0.003965,-0.000122,-0.002196,0.28,-2.1525000000000003,-3.9725000000000006,0.8045,0.1543125,0.063,1.042375,0.78046875,-0.363375,-0.41409375,1.02546875,0.021248595484000057,0.019541734986579216,True
26397,24593,0,24594,4005.0,39499.0,40307.0,0.0042699999999999995,-0.0006709999999999999,-0.003538,0.28,-2.1875,-3.8675,0.8006562500000001,0.15096875,0.06440625,1.03925,0.77359375,-0.36409375,-0.41428125,1.0261875,0.021140228127713556,0.01960686432249567,True
26398,24594,0,24595,4002.0,39498.0,40308.0,0.004758,-0.000732,-0.000915,0.47250000000000003,-1.9425000000000001,-3.8325000000000005,0.81034375,0.14853125,0.07075000000000001,1.0398125,0.78215625,-0.36646875,-0.41515625,1.0263125,0.02113560258911132,0.019901828398087767,True
26399,24595,0,24596,4000.0,39500.0,40308.0,0.000183,-0.00122,0.000244,0.525,-1.5750000000000002,-3.9025000000000003,0.82684375,0.1570625,0.06684375000000001,1.05165625,0.7830625,-0.3624375,-0.40971875,1.02825,0.021323810476681575,0.019523473616425834,True
26400,24596,0,24597,4000.0,39498.0,40309.0,-0.0018909999999999999,-0.001098,0.002562,0.385,-1.225,-3.6750000000000003,0.80440625,0.1529375,0.06281250000000001,1.03690625,0.780625,-0.35946875,-0.41300000000000003,1.0280625,0.021035198068512884,0.019490128210379716,True
26401,24597,0,24598,3997.0,39500.0,40313.0,-0.004941,-0.0008539999999999999,0.000122,0.45500000000000007,-1.2075,-3.7800000000000002,0.80340625,0.14884375,0.07128125,1.03871875,0.78065625,-0.3649375,-0.41481250000000003,1.0210000000000001,0.021086910237303094,0.019909788371301234,True
26402,24598,0,24599,3998.0,39500.0,40315.0,-0.0064659999999999995,-0.000122,-0.000732,0.45500000000000007,-1.4700000000000002,-3.7625,0.8283125,0.15737500000000001,0.06846875,1.05775,0.78896875,-0.36259375,-0.41553125,1.027375,0.021342914278164656,0.01982344742140313,True
26403,24599,0,24600,3998.0,39499.0,40314.0,-0.003477,-0.000976,0.000183,0.45500000000000007,-1.5750000000000002,-3.7625,0.80403125,0.155875,0.062625,1.0374375,0.78040625,-0.3633125,-0.4185,1.02709375,0.021310217976311722,0.019703298728423118,True
26404,24600,0,24601,3997.0,39498.0,40317.0,0.000183,0.000305,-0.000305,0.42000000000000004,-1.9250000000000003,-3.7450000000000006,0.8073750000000001,0.15181250000000002,0.07134375,1.0365312500000001,0.78125,-0.36540625,-0.41484375,1.02628125,0.02122758572925498,0.01991360276471153,True
26405,24601,0,24602,3999.0,39500.0,40319.0,0.0025009999999999998,-0.00122,-0.0013419999999999999,0.4025,-2.205,-3.7625,0.81590625,0.15403125,0.072125,1.0361875,0.7879375000000001,-0.36615625,-0.41546875,1.0259375,0.021348771413217876,0.019970689688273955,True
26406,24602,0,24603,4000.0,39503.0,40321.0,0.0037819999999999998,0.002074,0.001586,0.21000000000000002,-2.5025000000000004,-3.9375000000000004,0.81096875,0.15278125,0.06575,1.050625,0.7877500000000001,-0.36512500000000003,-0.41765625,1.0266875,0.021256047321735475,0.019797405821863023,True
26407,24603,0,24604,4000.0,39503.0,40324.0,0.004331,0.001464,0.000488,0.3325,-2.4850000000000003,-3.9550000000000005,0.802875,0.1550625,0.063375,1.0475625,0.7738125,-0.35915625,-0.41659375,1.02709375,0.021109875265076142,0.019657481912275336,True
26408,24604,0,24605,4000.0,39506.0,40326.0,0.002928,0.000732,-0.0015249999999999999,0.45500000000000007,-2.3975000000000004,-3.9375000000000004,0.804,0.15371875000000002,0.06753125,1.04109375,0.78109375,-0.36525,-0.41578125,1.0248125000000001,0.021299545459209323,0.019795086425915615,True
26409,24605,0,24606,4001.0,39503.0,40328.0,0.001586,0.002623,-0.001769,0.5775,-2.2575000000000003,-3.99,0.8073750000000001,0.15209375,0.0658125,1.04709375,0.78125,-0.36425,-0.414375,1.02696875,0.02119267984854859,0.01966822824667844,True
26410,24606,0,24607,4002.0,39505.0,40330.0,0.0028669999999999998,0.0015249999999999999,-0.0011589999999999999,0.4025,-2.205,-3.9375000000000004,0.8106875,0.1525625,0.06603125,1.0430625,0.77759375,-0.36634375,-0.4140625,1.0265,0.021296024357367938,0.01966464,True
26411,24607,0,24608,4004.0,39505.0,40334.0,0.001403,-0.0023179999999999997,0.001952,0.3325,-1.8550000000000002,-3.8850000000000002,0.8109375,0.15209375,0.06728125,1.0440625000000001,0.78071875,-0.3646875,-0.41540625000000003,1.02628125,0.021210255620967844,0.019769791870655442,True
26412,24608,0,24609,4004.0,39506.0,40335.0,-0.001647,-0.00122,0.00244,0.35000000000000003,-1.5050000000000001,-3.8150000000000004,0.81559375,0.15165625,0.0675625,1.05009375,0.7864375,-0.3624375,-0.41496875,1.03459375,0.021101901236278187,0.019763746369734755,True
26413,24609,0,24610,4006.0,39508.0,40335.0,-0.003477,-0.00061,0.0018909999999999999,0.24500000000000002,-1.1725,-3.7275000000000005,0.81034375,0.15484375,0.06975,1.0429375,0.7808437500000001,-0.36428125,-0.4165625,1.0269062500000001,0.021306805428541013,0.019917320466384242,True
26414,24610,0,24611,4007.0,39507.0,40335.0,-0.004209,-0.000122,0.000244,0.22750000000000004,-1.1375000000000002,-3.6050000000000004,0.81003125,0.1525,0.06878125,1.04271875,0.787125,-0.3646875,-0.41525,1.03046875,0.02122692934190106,0.019824955714154064,True
26415,24611,0,24612,4009.0,39509.0,40336.0,-0.003477,0.001403,-0.00244,0.14,-1.2950000000000002,-3.6225000000000005,0.806125,0.1598125,0.06809375,1.04784375,0.7881875,-0.36259375,-0.41578125,1.035375,0.021442965201519233,0.0198181248040138,True
26416,24612,0,24613,4008.0,39507.0,40337.0,0.000183,0.002074,-0.002806,0.35000000000000003,-1.5750000000000002,-3.5875000000000004,0.81565625,0.15421875000000002,0.0669375,1.04,0.77315625,-0.3628125,-0.4160625,1.0273125,0.021222149536306616,0.019782059453689552,True
26417,24613,0,24614,4009.0,39508.0,40337.0,0.000183,-0.001281,0.0,0.385,-1.5925000000000002,-3.6925000000000003,0.80765625,0.1541875,0.06575,1.04321875,0.7722187500000001,-0.3645,-0.41681250000000003,1.0273125,0.021288657678179317,0.019763533835548765,True
26418,24614,0,24615,4008.0,39509.0,40334.0,0.001281,-0.0013419999999999999,0.000976,0.36750000000000005,-1.6800000000000002,-3.8325000000000005,0.81040625,0.151875,0.0673125,1.04328125,0.781875,-0.3651875,-0.41465625,1.02096875,0.02122136347196179,0.019740959899855234,True
26419,24615,0,24616,4008.0,39508.0,40335.0,0.001281,-0.000793,0.002257,0.525,-1.5575,-3.8150000000000004,0.817625,0.15190625,0.0674375,1.0515,0.78721875,-0.36234375,-0.41528125,1.034,0.021108396026141778,0.01977117302304269,True
26420,24616,0,24617,4008.0,39505.0,40330.0,-0.000793,0.0,0.0025009999999999998,0.42000000000000004,-1.54,-3.7800000000000002,0.8158125,0.154375,0.06725,1.04375,0.78125,-0.36265625,-0.41796875,1.02659375,0.021222285644653383,0.019871380579107343,True
26421,24617,0,24618,4007.0,39508.0,40331.0,-0.00122,0.0013419999999999999,0.000244,0.49000000000000005,-1.4175000000000002,-3.6750000000000003,0.81021875,0.15153125,0.06840625,1.043375,0.78878125,-0.3640625,-0.41534375,1.0288125000000001,0.021162059898672484,0.019813360194856973,True
26422,24618,0,24619,4008.0,39507.0,40332.0,-0.001952,0.000732,-0.001281,0.4025,-1.5750000000000002,-3.6925000000000003,0.81671875,0.15525,0.06809375,1.05096875,0.785,-0.3624375,-0.41559375,1.024,0.021249413159089688,0.019810597479326095,True
26423,24619,0,24620,4007.0,39508.0,40332.0,0.0017079999999999999,0.000488,-0.000915,0.35000000000000003,-1.7675,-3.8150000000000004,0.81,0.15525,0.06515625,1.04309375,0.78075,-0.3621875,-0.41615625,1.02571875,0.021239369412126886,0.019712869424318172,True
26424,24620,0,24621,4007.0,39508.0,40334.0,0.0026839999999999998,-0.001647,-0.001586,0.35000000000000003,-1.8550000000000002,-3.7975000000000003,0.80353125,0.15775,0.06590625,1.04290625,0.78709375,-0.36412500000000003,-0.4145625,1.02709375,0.021419812942184466,0.019679596961854222,True
26425,24621,0,24622,4010.0,39509.0,40332.0,0.0,0.00061,0.002196,0.49000000000000005,-1.8900000000000001,-3.7450000000000006,0.810125,0.15146875,0.0685625,1.0440625000000001,0.7875625,-0.36009375,-0.41531250000000003,1.0265,0.021000021808208355,0.019818505292529025,True
26426,24622,0,24623,4007.0,39509.0,40332.0,-0.0006709999999999999,-0.000488,0.001037,0.4025,-1.9425000000000001,-3.7275000000000005,0.810125,0.15425,0.06846875,1.03921875,0.78690625,-0.36440625,-0.4150625,1.02634375,0.02128745698450994,0.019804628802404252,True
26427,24623,0,24624,4010.0,39511.0,40335.0,0.000549,0.000244,-0.001281,0.45500000000000007,-1.9075000000000002,-3.7100000000000004,0.81121875,0.1521875,0.06796875000000001,1.04325,0.78696875,-0.36075,-0.415125,1.02628125,0.021055899346284497,0.019786658884605342,True
26428,24624,0,24625,4009.0,39509.0,40336.0,-6.1e-05,0.0021349999999999997,-0.001464,0.5425000000000001,-1.7675,-3.6050000000000004,0.81015625,0.15290625,0.06671875000000001,1.043875,0.78690625,-0.36325,-0.41478125,1.02646875,0.021185853693575365,0.01972165939434743,True
26429,24625,0,24626,4011.0,39511.0,40336.0,0.000122,0.001098,-0.0006709999999999999,0.45500000000000007,-1.8375000000000001,-3.7800000000000002,0.8102812500000001,0.15475,0.068,1.04665625,0.780625,-0.36425,-0.411375,1.02721875,0.021301702289214734,0.01963736168077382,True
26430,24626,0,24627,4011.0,39512.0,40340.0,0.000183,-0.001647,0.0015249999999999999,0.385,-1.6800000000000002,-3.7450000000000006,0.81059375,0.1555,0.0660625,1.04628125,0.76746875,-0.366375,-0.419625,1.02665625,0.021417835028805062,0.019889228438192644,True
26431,24627,0,24628,4012.0,39509.0,40339.0,-0.000549,-0.00061,0.001769,0.43750000000000006,-1.6450000000000002,-3.7450000000000006,0.8103750000000001,0.15687500000000001,0.06640625,1.03678125,0.7809375000000001,-0.36671875,-0.418625,1.01940625,0.021488069664693774,0.01986316797116955,True
26432,24628,0,24629,4012.0,39513.0,40343.0,-0.0023179999999999997,-0.000244,0.001464,0.3325,-1.4875,-3.7800000000000002,0.81059375,0.155375,0.06628125,1.04846875,0.77871875,-0.369,-0.41790625000000003,1.0230000000000001,0.021518117280151013,0.019829198091052547,True
26433,24629,0,24630,4013.0,39513.0,40343.0,-0.00183,0.0008539999999999999,0.000915,0.29750000000000004,-1.225,-3.7100000000000004,0.80975,0.15471875000000002,0.06571875,1.04334375,0.77696875,-0.36946875,-0.419,1.01540625,0.02151000932262834,0.019850065522748678,True
26434,24630,0,24631,4015.0,39515.0,40346.0,-0.0017079999999999999,0.001281,-0.0011589999999999999,0.22750000000000004,-1.435,-3.7800000000000002,0.7874375,0.15496875000000002,0.065,1.07003125,0.78065625,-0.3670625,-0.4185,1.027,0.021423643083773435,0.019800561050023546,True
26435,24631,0,24632,4017.0,39514.0,40348.0,0.001586,0.0008539999999999999,-0.0017079999999999999,0.35000000000000003,-2.1350000000000002,-3.8325000000000005,0.80621875,0.1615625,0.0580625,1.0561562500000001,0.774875,-0.3618125,-0.42009375,1.02859375,0.021483417951763645,0.01958044284739898,True
26436,24632,0,24633,4018.0,39515.0,40351.0,0.0030499999999999998,-0.001464,0.0018909999999999999,0.22750000000000004,-2.1350000000000002,-3.9200000000000004,0.80240625,0.15115625,0.06190625,1.0333125,0.77690625,-0.36428125,-0.41875,1.0235,0.021155456822679716,0.019683900691067315,True
26437,24633,0,24634,4017.0,39514.0,40353.0,0.0018909999999999999,-0.0025009999999999998,0.000976,0.29750000000000004,-2.0300000000000002,-3.8325000000000005,0.79953125,0.1420625,0.06296875,1.03209375,0.7790312500000001,-0.36753125000000003,-0.4139375,1.02315625,0.02091281815838443,0.01953418001500168,True
26438,24634,0,24635,4020.0,39519.0,40355.0,0.00061,-0.000183,0.000366,0.385,-1.9775000000000003,-3.7975000000000003,0.7950625,0.1514375,0.06121875,1.038875,0.77515625,-0.36634375,-0.4186875,1.023375,0.021249854114858743,0.019653236890803404,True
26439,24635,0,24636,4022.0,39518.0,40356.0,0.00042699999999999997,0.000732,0.0008539999999999999,0.385,-1.8550000000000002,-3.8675,0.79871875,0.15787500000000002,0.059937500000000005,1.066,0.7762187500000001,-0.36421875,-0.419125,1.0353125,0.021428708851992228,0.019618331942688364,True
26440,24636,0,24637,4022.0,39520.0,40356.0,-0.00183,0.001647,0.0,0.22750000000000004,-1.61,-3.7975000000000003,0.8298125000000001,0.15265625,0.0803125,1.0334375,0.773,-0.36134375,-0.41350000000000003,1.02646875,0.0210990003373685,0.02022702603067975,True
26441,24637,0,24638,4023.0,39520.0,40363.0,-0.0008539999999999999,0.001769,-0.000549,0.14,-1.5750000000000002,-3.7100000000000004,0.81184375,0.14228125,0.06009375,1.0514375,0.7941875,-0.36825,-0.413125,1.02353125,0.020950673519846523,0.019383784337318553,True
26442,24638,0,24639,4025.0,39521.0,40364.0,0.000915,-0.001464,-0.00122,0.08750000000000001,-1.61,-3.7975000000000003,0.79815625,0.15490625,0.058750000000000004,1.05653125,0.77696875,-0.3624375,-0.41603125,1.0279375,0.021235303322994673,0.019445471917144602,True
26443,24639,0,24640,4028.0,39524.0,40366.0,0.0008539999999999999,-0.0028669999999999998,-0.003904,0.22750000000000004,-1.4875,-3.7275000000000005,0.79990625,0.15678125,0.06196875,1.06175,0.77759375,-0.3630625,-0.41621875,1.03134375,0.021337372918531897,0.019584830267790752,True
26444,24640,0,24641,4029.0,39522.0,40367.0,-0.000976,-0.000122,-0.002196,0.3325,-1.54,-3.8325000000000005,0.803,0.1566875,0.05790625,1.057125,0.77896875,-0.3630625,-0.41734375,1.02796875,0.021333524880133604,0.019463624088922448,True
26445,24641,0,24642,4030.0,39524.0,40369.0,0.0013419999999999999,-0.003172,0.0011589999999999999,0.29750000000000004,-1.5225000000000002,-3.7975000000000003,0.798,0.1561875,0.06365625,1.0504375,0.7800312500000001,-0.35671875000000003,-0.41140625000000003,1.02896875,0.021058101268258887,0.019460677321692602,True
26446,24642,0,24643,4030.0,39525.0,40369.0,0.0008539999999999999,-0.000549,0.0021349999999999997,0.3325,-1.5050000000000001,-3.7625,0.805875,0.1578125,0.07365625,1.042625,0.78125,-0.3630625,-0.411625,1.03246875,0.02137970134091311,0.019879104729816223,True
26447,24643,0,24644,4035.0,39527.0,40372.0,-0.001098,0.00183,0.003355,0.47250000000000003,-1.2775,-3.7625,0.80790625,0.15525,0.0685625,1.04953125,0.77790625,-0.36296875,-0.41765625,1.021375,0.021270755436978508,0.019912588866918792,True
26448,24644,0,24645,4034.0,39525.0,40374.0,-0.0028669999999999998,0.0034159999999999998,0.002196,0.385,-1.0850000000000002,-3.6925000000000003,0.8104687500000001,0.155,0.06784375000000001,1.0483437500000001,0.78078125,-0.36390625,-0.4179375,1.0265625,0.02129815492948714,0.019894442354109556,True
26449,24645,0,24646,4034.0,39527.0,40377.0,-0.001281,0.002562,0.0011589999999999999,0.21000000000000002,-1.1900000000000002,-3.7450000000000006,0.8150000000000001,0.15837500000000002,0.068,1.0481562500000001,0.78078125,-0.363375,-0.41681250000000003,1.02678125,0.021415341675773573,0.01985568345581554,True
26450,24646,0,24647,4037.0,39528.0,40377.0,-0.00061,-0.0006709999999999999,-0.003904,0.2625,-1.5050000000000001,-3.8675,0.8086875,0.15446875000000002,0.06784375000000001,1.038875,0.7805625,-0.36475,-0.4170625,1.0315625,0.021310243281790292,0.019859319686796887,True
26451,24647,0,24648,4039.0,39529.0,40377.0,0.000305,-0.0030499999999999998,-0.0008539999999999999,0.31500000000000006,-1.4175000000000002,-3.8150000000000004,0.81125,0.1556875,0.068,1.04321875,0.78028125,-0.36065625,-0.417875,1.03221875,0.02119580625008819,0.01989833267636926,True
26452,24648,0,24649,4041.0,39530.0,40377.0,0.001098,-0.003294,0.000488,0.45500000000000007,-1.4875,-3.7975000000000003,0.81671875,0.15346875000000001,0.06790625,1.0431875,0.78109375,-0.36196875,-0.41528125,1.02646875,0.02115746495241687,0.019790372064626534,True
26453,24649,0,24650,4041.0,39531.0,40379.0,0.0006709999999999999,-0.003294,0.002013,0.43750000000000006,-1.5750000000000002,-3.7975000000000003,0.81871875,0.16078125000000001,0.0675,1.04928125,0.7854375,-0.36309375,-0.41834375,1.032875,0.021502810988444355,0.01989667091978751,True
26454,24650,0,24651,4042.0,39532.0,40383.0,0.002013,0.0008539999999999999,0.000732,0.525,-1.5925000000000002,-3.6400000000000006,0.8180000000000001,0.15459375,0.0673125,1.04865625,0.7755625,-0.36234375,-0.416625,1.02615625,0.021218709714659535,0.01981999969283224,True
26455,24651,0,24652,4045.0,39535.0,40385.0,0.000244,0.003904,6.1e-05,0.5425000000000001,-1.4000000000000001,-3.6400000000000006,0.81025,0.15203125,0.0683125,1.04315625,0.7857500000000001,-0.36271875000000003,-0.4120625,1.03046875,0.021128594278912328,0.019677772003082492,True
26456,24652,0,24653,4047.0,39535.0,40387.0,0.000305,0.003111,0.000732,0.47250000000000003,-1.3825,-3.6400000000000006,0.8112812500000001,0.1553125,0.06909375,1.04296875,0.784875,-0.36234375,-0.41509375,1.034125,0.021248212212751492,0.01983148231818688,True
26457,24653,0,24654,4048.0,39537.0,40389.0,-0.000183,0.0015249999999999999,0.000366,0.35000000000000003,-1.3650000000000002,-3.6750000000000003,0.81778125,0.15453125,0.067375,1.0489375,0.78140625,-0.363,-0.4104375,1.0256875,0.021242509132701228,0.019574106363312825,True
26458,24654,0,24655,4051.0,39535.0,40387.0,-0.001769,0.0011589999999999999,-0.000183,0.21000000000000002,-1.1900000000000002,-3.6925000000000003,0.8020625,0.15496875000000002,0.06846875,1.0491875,0.78178125,-0.36434375,-0.41678125,1.0287187500000001,0.021314446443894065,0.019873626872911433,True
26459,24655,0,24656,4050.0,39539.0,40392.0,-0.00183,-0.00244,0.000366,0.12250000000000001,-1.1375000000000002,-3.7625,0.8160625,0.15465625,0.0685,1.04984375,0.78153125,-0.36296875,-0.4165625,1.0256875,0.0212463844333421,0.019866125708727426,True
26460,24656,0,24657,4051.0,39539.0,40394.0,0.0028669999999999998,-0.003355,-0.003294,0.052500000000000005,-1.0675000000000001,-3.6925000000000003,0.8110625,0.15837500000000002,0.0666875,1.04846875,0.78134375,-0.3640625,-0.41400000000000003,1.027,0.021442955172192652,0.019689010403866634,True
26461,24657,0,24658,4053.0,39537.0,40393.0,0.00244,-0.002257,-0.001281,0.0175,-0.7875000000000001,-3.8500000000000005,0.80325,0.1585,0.06521875,1.04753125,0.77315625,-0.36409375,-0.41515625,1.02625,0.021449340794791515,0.01967527854752107,True
26462,24658,0,24659,4053.0,39535.0,40389.0,-0.002623,-0.001952,-0.001647,0.12250000000000001,-0.7350000000000001,-3.7275000000000005,0.8100937500000001,0.1549375,0.066,1.04990625,0.780625,-0.3649375,-0.41634375,1.02675,0.02133701348505409,0.019754954097089168,True
26463,24659,0,24660,4053.0,39532.0,40378.0,-0.005063,-0.000549,0.000244,0.3325,-0.49000000000000005,-3.6925000000000003,0.8133125,0.15440625,0.06784375000000001,1.04784375,0.78128125,-0.3623125,-0.41278125,1.032875,0.021209757899624676,0.01968743319649415,True
26464,24660,0,24661,4053.0,39529.0,40369.0,-0.006344,0.001281,0.001952,0.385,-0.5775,-3.7275000000000005,0.81771875,0.15509375,0.068125,1.04365625,0.78146875,-0.36246875,-0.415875,1.03003125,0.021244255059331786,0.01982316832798333,True
26465,24661,0,24662,4050.0,39527.0,40363.0,-0.001037,0.001769,0.001037,0.42000000000000004,-1.2775,-3.6575,0.81771875,0.1519375,0.06821875,1.0436875,0.785125,-0.36184375,-0.41490625000000003,1.0311875,0.021089588098191465,0.019788116122706798,True
26466,24662,0,24663,4047.0,39525.0,40355.0,0.001037,0.0021349999999999997,0.001464,0.49000000000000005,-1.5575,-3.8325000000000005,0.81765625,0.15228125,0.06753125,1.0419375,0.78546875,-0.36271875000000003,-0.41521875,1.0320625,0.02113885585942661,0.019772503574230726,True
26467,24663,0,24664,4045.0,39523.0,40349.0,0.00042699999999999997,0.000305,0.0008539999999999999,0.49000000000000005,-1.7500000000000002,-3.8500000000000005,0.81315625,0.154875,0.06765625,1.0501875,0.7815,-0.3624375,-0.41715625,1.0273125,0.021234020610622403,0.01985540392321485,True
26468,24664,0,24665,4043.0,39521.0,40345.0,0.002989,0.000366,0.000244,0.45500000000000007,-1.8900000000000001,-3.8850000000000002,0.8105,0.155,0.06628125,1.043375,0.7813125,-0.36612500000000003,-0.41450000000000004,1.0265312500000001,0.021387274340913875,0.019692447111347766,True
26469,24665,0,24666,4040.0,39522.0,40342.0,0.004392,-0.0006709999999999999,0.000732,0.36750000000000005,-2.1,-3.9725000000000006,0.8108125,0.15571875000000002,0.07365625,1.0491875,0.79353125,-0.36778125,-0.4106875,1.02459375,0.021483285434532536,0.01984146288382906,True
26470,24666,0,24667,4037.0,39521.0,40340.0,0.00183,0.000366,0.000183,0.35000000000000003,-1.8725000000000003,-4.0600000000000005,0.8100625,0.1550625,0.06665625,1.0479687500000001,0.78590625,-0.37053125000000003,-0.41321875,1.0209375,0.02156677442146445,0.01965635932377823,True
26471,24667,0,24668,4036.0,39521.0,40339.0,-0.00042699999999999997,0.000549,-0.000183,0.2625,-1.6275000000000002,-4.025,0.8099375,0.15421875000000002,0.06503125,1.0511875,0.78990625,-0.3661875,-0.4118125,1.02065625,0.021357721637822905,0.019533320190788784,True
26472,24668,0,24669,4034.0,39520.0,40337.0,-0.00042699999999999997,0.000183,-0.000732,0.29750000000000004,-1.5925000000000002,-3.99,0.8100625,0.154375,0.0659375,1.04759375,0.7855,-0.36603125000000003,-0.41084375,1.0214375,0.021357858596688786,0.019531535037579352,True
26473,24669,0,24670,4031.0,39520.0,40340.0,-0.001464,0.0011589999999999999,-0.002806,0.2625,-1.54,-3.9550000000000005,0.8100937500000001,0.1538125,0.06559375,1.03575,0.79390625,-0.36571875,-0.4124375,1.02421875,0.02132222140994712,0.019581463342200057,True
26474,24670,0,24671,4030.0,39520.0,40341.0,-0.001952,0.001769,-0.001403,0.29750000000000004,-1.5575,-3.9375000000000004,0.81071875,0.15203125,0.06865625,1.043,0.786,-0.3600625,-0.412875,1.0421875,0.021021856984151824,0.01972447939867795,True
26475,24671,0,24672,4030.0,39522.0,40343.0,0.00042699999999999997,-0.004331,0.002928,0.31500000000000006,-1.7325000000000002,-4.0075,0.81059375,0.15265625,0.0689375,1.03584375,0.794625,-0.36025,-0.4165,1.040625,0.02105504869613407,0.01988153502754285,True
26476,24672,0,24673,4030.0,39522.0,40344.0,0.000305,-0.0034159999999999998,0.001952,0.1925,-1.8025000000000002,-3.99,0.81571875,0.15265625,0.068,1.04284375,0.77584375,-0.3603125,-0.4175625,1.0441875,0.021057560324811105,0.019885789173264123,True
26477,24673,0,24674,4029.0,39523.0,40347.0,-0.000244,-0.000244,-0.0017079999999999999,0.28,-1.7500000000000002,-3.9725000000000006,0.817125,0.1521875,0.07575,1.043375,0.77646875,-0.35978125,-0.41559375,1.04109375,0.021016968286609716,0.020124177811567657,True
26478,24674,0,24675,4029.0,39524.0,40349.0,-0.0021349999999999997,0.00183,-0.002074,0.31500000000000006,-1.4525000000000001,-3.8850000000000002,0.8095625,0.15165625,0.06925,1.04371875,0.79409375,-0.35990625,-0.41325,1.042125,0.02100018344692931,0.019763857741185626,True
26479,24675,0,24676,4031.0,39524.0,40351.0,-0.002196,0.003111,-0.0037819999999999998,0.29750000000000004,-1.4700000000000002,-3.8850000000000002,0.81415625,0.1516875,0.0691875,1.04165625,0.7794375,-0.36021875000000003,-0.41509375,1.03934375,0.021014025171674618,0.01983532215599213,True
26480,24676,0,24677,4031.0,39523.0,40356.0,0.0042699999999999995,0.000732,-0.0006709999999999999,0.5425000000000001,-2.0475000000000003,-3.9550000000000005,0.8104687500000001,0.15184375,0.06896875,1.04365625,0.7895,-0.3595,-0.412125,1.03159375,0.02099155360331698,0.019707163960531907,True
26481,24677,0,24678,4031.0,39528.0,40359.0,0.004758,-0.001281,0.003721,0.56,-1.9425000000000001,-3.8675,0.81165625,0.15109375,0.069375,1.0441875,0.7840625,-0.360375,-0.412375,1.031,0.020995930891868454,0.01973384400329751,True
26482,24678,0,24679,4033.0,39529.0,40360.0,0.000122,-0.0018909999999999999,0.0042699999999999995,0.5950000000000001,-1.6975000000000002,-3.9025000000000003,0.8155625,0.155375,0.0685,1.04353125,0.77178125,-0.359,-0.4154375,1.03359375,0.021116425140605116,0.019820963683325355,True
26483,24679,0,24680,4033.0,39527.0,40363.0,-0.0008539999999999999,-0.00042699999999999997,0.003111,0.56,-1.5750000000000002,-3.9550000000000005,0.8148125,0.15246875000000001,0.06859375,1.04296875,0.7876875,-0.36146875,-0.4145625,1.0265625,0.02109632655050817,0.019789674707461992,True
26484,24680,0,24681,4033.0,39531.0,40365.0,-0.001098,0.000305,0.00061,0.22750000000000004,-1.4000000000000001,-3.8675,0.8064687500000001,0.15690625,0.06771875000000001,1.0443125,0.79046875,-0.3634375,-0.410625,1.0196875,0.02135756705103703,0.01959571907724608,True
26485,24681,0,24682,4036.0,39530.0,40368.0,0.002257,0.000366,-0.002745,0.29750000000000004,-1.54,-3.6925000000000003,0.81090625,0.15378125,0.06690625,1.043375,0.78453125,-0.36153125,-0.41384375,1.0267187500000001,0.021152713871382782,0.01969169643760008,True
26486,24682,0,24683,4037.0,39529.0,40368.0,0.001586,0.00061,-0.002074,0.43750000000000006,-1.2775,-3.6225000000000005,0.81034375,0.1534375,0.068,1.04365625,0.7840312500000001,-0.36440625,-0.4146875,1.02721875,0.021254109157698025,0.019770373878428713,True
26487,24683,0,24684,4038.0,39531.0,40371.0,-0.00061,-0.001647,-6.1e-05,0.31500000000000006,-1.0675000000000001,-3.5875000000000004,0.7987500000000001,0.15353125,0.06890625,1.04365625,0.78803125,-0.36146875,-0.41496875,1.0340625,0.021139940505434426,0.01981878432672579,True
26488,24684,0,24685,4040.0,39531.0,40370.0,-0.001464,-0.000488,-0.00061,0.2625,-0.9275000000000001,-3.5875000000000004,0.81803125,0.154875,0.067375,1.04859375,0.7754375,-0.3629375,-0.4174375,1.02659375,0.02125410780206615,0.01985517522057751,True
26489,24685,0,24686,4041.0,39532.0,40370.0,-0.00366,0.000366,0.001586,0.49000000000000005,-0.7350000000000001,-3.6575,0.8109375,0.15181250000000002,0.06784375000000001,1.043625,0.783875,-0.3638125,-0.41396875,1.03190625,0.02116355968508623,0.019735115782844606,True
26490,24686,0,24687,4042.0,39531.0,40370.0,-0.001769,-0.001037,0.00122,0.36750000000000005,-1.1025,-3.7100000000000004,0.8171875000000001,0.15409375,0.06834375,1.0435625,0.7870625,-0.361875,-0.41546875,1.0340625,0.021179352984940607,0.01981581860884813,True
26491,24687,0,24688,4043.0,39529.0,40367.0,0.000793,0.001098,0.0,0.45500000000000007,-1.2775,-3.6750000000000003,0.8186875,0.1530625,0.0691875,1.0413125,0.7863125,-0.3623125,-0.4151875,1.0325,0.021154600984615066,0.01983908581492565,True
26492,24688,0,24689,4042.0,39528.0,40363.0,0.00183,0.00042699999999999997,0.000183,0.42000000000000004,-1.3650000000000002,-3.6925000000000003,0.8235625,0.1499375,0.06975,1.04121875,0.78821875,-0.36162500000000003,-0.41431250000000003,1.03528125,0.02099870185178534,0.019826996971551013,True
26493,24689,0,24690,4044.0,39530.0,40364.0,0.000549,-0.002013,0.000915,0.385,-1.2425000000000002,-3.8500000000000005,0.8241875,0.15784375,0.07040625,1.04821875,0.787875,-0.36234375,-0.41525,1.03440625,0.021352112314727518,0.01989151247683313,True
26494,24690,0,24691,4043.0,39529.0,40364.0,-0.00061,0.0034159999999999998,-0.000183,0.385,-1.33,-3.7800000000000002,0.8220000000000001,0.15596875000000002,0.0735625,1.03996875,0.77425,-0.35940625,-0.41550000000000004,1.033875,0.02115712487860824,0.02003082058528394,True
26495,24691,0,24692,4044.0,39528.0,40361.0,-0.000793,0.0013419999999999999,0.001281,0.45500000000000007,-1.3825,-3.8325000000000005,0.82303125,0.15040625,0.07037500000000001,1.039875,0.78928125,-0.36140625,-0.4110625,1.0256875,0.021009152540198698,0.01972210345207219,True
26496,24692,0,24693,4043.0,39528.0,40360.0,-0.000122,-0.00061,-0.002013,0.47250000000000003,-1.5750000000000002,-3.7275000000000005,0.8021875,0.148875,0.06925,1.032375,0.78959375,-0.36321875000000003,-0.4141875,1.02596875,0.02101913360688435,0.019801498616327084,True
26497,24693,0,24694,4042.0,39528.0,40359.0,0.000183,0.000488,-0.001769,0.5075000000000001,-1.6450000000000002,-3.6575,0.811,0.15140625,0.06846875,1.0406875,0.78078125,-0.36312500000000003,-0.414625,1.02646875,0.02111926323080475,0.019787064106042994,True
26498,24694,0,24695,4042.0,39529.0,40361.0,0.000244,0.00042699999999999997,-0.000732,0.47250000000000003,-1.715,-3.6050000000000004,0.80665625,0.1553125,0.06331250000000001,1.05553125,0.7765,-0.366,-0.4175,1.0270625,0.02139507920873348,0.01969130746390908,True
26499,24695,0,24696,4043.0,39530.0,40364.0,0.0017079999999999999,-0.001586,0.0026839999999999998,0.49000000000000005,-1.9075000000000002,-3.7625,0.8094687500000001,0.1565,0.07159375,1.0580625000000001,0.7798437500000001,-0.36240625,-0.415375,1.0320625,0.021299466262697266,0.019945167747781878,True
26500,24696,0,24697,4044.0,39529.0,40364.0,0.002074,0.00042699999999999997,0.001952,0.45500000000000007,-1.7850000000000001,-3.7450000000000006,0.82265625,0.15584375,0.070125,1.04221875,0.7811250000000001,-0.36190625,-0.4146875,1.03140625,0.021252442016929603,0.019857411650261753,True
26501,24697,0,24698,4044.0,39531.0,40367.0,-0.001037,0.001037,0.000305,0.35000000000000003,-1.61,-3.7625,0.82278125,0.15278125,0.06984375,1.04146875,0.7850625,-0.36153125,-0.4154375,1.0307187500000001,0.021111665548527458,0.01987600058364713,True
26502,24698,0,24699,4045.0,39531.0,40367.0,-0.001403,0.003172,-0.000183,0.36750000000000005,-1.4700000000000002,-3.7975000000000003,0.81296875,0.157,0.07053125,1.0420625000000001,0.7772187500000001,-0.362,-0.4149375,1.03,0.02130366964945407,0.019884087354309223,True
26503,24699,0,24700,4044.0,39532.0,40368.0,-0.0008539999999999999,0.000915,0.0006709999999999999,0.385,-1.3825,-3.7975000000000003,0.8179375,0.151,0.0681875,1.041875,0.784625,-0.3625,-0.40940625,1.02746875,0.021077475628527447,0.01956597162210777,True
26504,24700,0,24701,4045.0,39531.0,40370.0,-0.000366,-0.00122,-0.001403,0.14,-1.5750000000000002,-3.8675,0.809625,0.154125,0.06528125,1.0481875,0.7848125,-0.3629375,-0.41421875,1.02728125,0.021223323336933404,0.019640194302756465,True
26505,24701,0,24702,4046.0,39532.0,40372.0,-0.0017079999999999999,-0.00042699999999999997,-0.001952,0.29750000000000004,-1.61,-3.8675,0.8112812500000001,0.1546875,0.068,1.044375,0.77215625,-0.36303125,-0.4161875,1.0291875,0.021250177972004205,0.019830593945103017,True
26506,24702,0,24703,4049.0,39534.0,40373.0,-0.000793,0.000305,-0.0021349999999999997,0.22750000000000004,-1.54,-3.8500000000000005,0.8182812500000001,0.15325,0.06875,1.04321875,0.77340625,-0.3618125,-0.415625,1.0444375000000001,0.02114220770724674,0.01983873032125944,True
26507,24703,0,24704,4046.0,39533.0,40376.0,-0.000732,-0.001098,-0.000183,0.35000000000000003,-1.6450000000000002,-3.8150000000000004,0.8130625,0.15209375,0.065,1.04421875,0.78146875,-0.356,-0.41528125,1.02340625,0.020861132780423713,0.0196713380068067,True
26508,24704,0,24705,4050.0,39536.0,40379.0,0.001586,-0.0008539999999999999,0.0008539999999999999,0.45500000000000007,-1.7500000000000002,-3.8325000000000005,0.81125,0.15534375,0.0654375,1.05,0.81553125,-0.36675,-0.40759375000000003,1.01771875,0.021426482809566317,0.019380495055970032,True
26509,24705,0,24706,4050.0,39536.0,40380.0,0.001098,-0.000976,0.002806,0.47250000000000003,-1.5750000000000002,-3.8500000000000005,0.81659375,0.1548125,0.06784375000000001,1.0459687500000001,0.77128125,-0.36712500000000003,-0.42196875,1.0230625,0.021419740736750847,0.020056224992098557,True
26510,24706,0,24707,4050.0,39538.0,40383.0,-0.000122,-0.000183,0.0021349999999999997,0.4025,-1.5575,-3.8325000000000005,0.81765625,0.155125,0.0675625,1.0495,0.76834375,-0.37425,-0.41425,1.01659375,0.02171861698308666,0.01973488843605681,True
26511,24707,0,24708,4051.0,39538.0,40383.0,-0.000183,0.00061,-0.000732,0.29750000000000004,-1.6275000000000002,-3.9550000000000005,0.81753125,0.15540625,0.06875,1.049625,0.7684375,-0.36609375,-0.41590625000000003,1.0161875,0.021402692009259792,0.01985002092641964,True
26512,24708,0,24709,4054.0,39538.0,40386.0,-0.000244,0.0008539999999999999,-0.002196,0.35000000000000003,-1.8550000000000002,-3.9025000000000003,0.8160000000000001,0.15571875000000002,0.06803125,1.0519687500000001,0.76975,-0.37184375000000003,-0.41759375,1.0170000000000001,0.021646392673923164,0.01988832335291023,True
26513,24709,0,24710,4054.0,39542.0,40388.0,0.000732,0.000793,-0.003111,0.4025,-1.8200000000000003,-3.8150000000000004,0.81546875,0.15471875000000002,0.06815625,1.0475,0.77646875,-0.3685,-0.41484375,1.0161875,0.021471110244783227,0.01978304694249784,True
26514,24710,0,24711,4056.0,39539.0,40388.0,0.000793,-0.000183,0.000183,0.5075000000000001,-1.7500000000000002,-3.9025000000000003,0.8178125,0.15478125,0.068375,1.0481875,0.76859375,-0.36684375,-0.42121875000000003,1.03040625,0.02140716316613636,0.020047883564369613,True
26515,24711,0,24712,4058.0,39542.0,40392.0,0.002196,-0.0017079999999999999,0.00366,0.5075000000000001,-1.6450000000000002,-3.7975000000000003,0.81815625,0.155375,0.0680625,1.04690625,0.76825,-0.36253125,-0.4248125,1.02509375,0.021258310340802538,0.020179274661780922,True
26516,24712,0,24713,4059.0,39542.0,40394.0,-0.000732,-0.0018909999999999999,0.003111,0.4025,-1.54,-3.7100000000000004,0.81671875,0.15575,0.06790625,1.04515625,0.7680625,-0.359375,-0.42546875,1.03534375,0.021146889031430405,0.020199202932389988,True
26517,24713,0,24714,4059.0,39542.0,40394.0,-0.003721,0.00042699999999999997,0.00122,0.35000000000000003,-1.5050000000000001,-3.6225000000000005,0.82053125,0.153125,0.06853125,1.043,0.7684375,-0.35815625,-0.414375,1.046625,0.020990145754566297,0.019779586821288688,True
26518,24714,0,24715,4062.0,39544.0,40397.0,-0.002745,0.004758,-6.1e-05,0.4025,-1.2775,-3.6400000000000006,0.8125,0.1550625,0.0686875,1.04365625,0.7856875,-0.35959375,-0.416875,1.031875,0.021127456199880185,0.019886349092584535,True
26519,24715,0,24716,4062.0,39544.0,40401.0,0.0,0.000488,-0.0040869999999999995,0.3325,-1.6450000000000002,-3.9200000000000004,0.81603125,0.15521875000000002,0.06853125,1.0503125,0.7788125,-0.36021875000000003,-0.416875,1.03284375,0.021158984871595208,0.019879949829779607,True
26520,24716,0,24717,4065.0,39547.0,40401.0,0.0006709999999999999,-0.000366,-0.0026839999999999998,0.45500000000000007,-1.7850000000000001,-3.9025000000000003,0.81315625,0.15503125,0.0680625,1.04771875,0.7775625,-0.3629375,-0.41884375,1.0289375,0.02126052123230214,0.019939774994465084,True
26521,24717,0,24718,4066.0,39546.0,40404.0,6.1e-05,-0.003294,-0.0008539999999999999,0.525,-1.9775000000000003,-3.9025000000000003,0.8105,0.15475,0.0736875,1.0434375,0.78140625,-0.36375,-0.4165625,1.0167187500000001,0.021281617156636394,0.02007858395300321,True
26522,24718,0,24719,4069.0,39547.0,40405.0,0.00061,-0.003965,0.0037819999999999998,0.5950000000000001,-1.9775000000000003,-3.7800000000000002,0.81165625,0.15371875000000002,0.0669375,1.0436875,0.7823125,-0.3610625,-0.4136875,1.02784375,0.021131313545950634,0.019686702387748674,True
26523,24719,0,24720,4069.0,39547.0,40406.0,0.002196,-0.003294,0.005856,0.5425000000000001,-1.9600000000000002,-3.7975000000000003,0.8054375,0.15115625,0.06775,1.043625,0.78128125,-0.36262500000000003,-0.41484375,1.026,0.021088911806506894,0.019766407474960803,True
26524,24720,0,24721,4070.0,39547.0,40406.0,0.001647,0.003294,-0.0032329999999999998,0.22750000000000004,-1.8725000000000003,-3.6050000000000004,0.80659375,0.1525625,0.0690625,1.044,0.7889375000000001,-0.36115625,-0.40875,1.02996875,0.021087617711084628,0.01957545962001331,True
