frame_seq,absolute_seq_u64,segment_id,sample_seq,PPG_G,PPG_R,PPG_IR,ACC_X,ACC_Y,ACC_Z,GYRO_X,GYRO_Y,GYRO_Z,Uh1,Uh2,Uh3,Uh4,Uc1,Uc2,Uc3,Uc4,UD1,UD2,parser_valid
61466,14378,0,14379,3863.0,42289.0,40000.0,0.003904,0.000366,-0.001952,0.35000000000000003,-1.995,-3.5000000000000004,1.04921875,0.3626875,0.20971875,1.2845625,1.02190625,-0.13390625,-0.234375,1.26759375,0.02057660060728876,0.01832495164410058,True
61467,14379,0,14380,3864.0,42288.0,40001.0,0.00122,0.002989,-0.002196,0.45500000000000007,-1.61,-3.5000000000000004,1.053125,0.364375,0.208125,1.2796875,1.028,-0.13121875,-0.23440625,1.26009375,0.020537452133452646,0.018260453564856786,True
61468,14380,0,14381,3865.0,42290.0,40003.0,-0.0034159999999999998,0.00488,-0.001037,0.5425000000000001,-1.2425000000000002,-3.535,1.04878125,0.3620625,0.20903125,1.2844375000000001,1.02215625,-0.132625,-0.23334375000000002,1.2650937500000001,0.020498702482635023,0.01825480645855981,True
61469,14381,0,14382,3865.0,42292.0,40004.0,-0.0051849999999999995,0.003477,0.000549,0.5775,-1.12,-3.5175000000000005,1.05240625,0.36090625,0.20828125,1.2800625,1.03275,-0.13453125,-0.2325,1.2600625,0.0205281592117104,0.018189672959867946,True
61470,14382,0,14383,3865.0,42290.0,40003.0,0.000244,-0.0006709999999999999,0.00183,0.49000000000000005,-1.54,-3.7625,1.0488125,0.36271875000000003,0.2084375,1.280375,1.02225,-0.12809375,-0.23309375000000002,1.2571875000000001,0.020341950967427753,0.018220176695350757,True
61471,14383,0,14384,3866.0,42289.0,40001.0,0.001769,-0.0048189999999999995,0.001403,0.4025,-1.6625,-3.7800000000000002,1.0495625,0.361875,0.21028125,1.2815625,1.02334375,-0.13153125000000002,-0.23646875,1.27190625,0.020446537142146753,0.018432965817266594,True
61472,14384,0,14385,3867.0,42292.0,40002.0,0.001037,-0.006039,0.000122,0.22750000000000004,-1.6450000000000002,-3.7625,1.05759375,0.35928125,0.20875,1.2809375,1.03609375,-0.1326875,-0.23684375,1.26003125,0.02038599099250757,0.01838497432240945,True
61473,14385,0,14386,3868.0,42291.0,40004.0,-0.000549,-0.004697,-0.0018909999999999999,0.22750000000000004,-1.33,-3.5525,1.0453125,0.3673125,0.20815625000000001,1.27028125,1.01721875,-0.13075,-0.23121875,1.2706875,0.020640158304238366,0.018132600119422387,True
61474,14386,0,14387,3866.0,42288.0,40000.0,-0.004148,-0.0015249999999999999,-0.003965,0.28,-0.9100000000000001,-3.535,1.0628125,0.3505625,0.21431250000000002,1.2705312500000001,1.03459375,-0.1250625,-0.23271875,1.25628125,0.01971497483167142,0.018447424517729773,True
61475,14387,0,14388,3863.0,42287.0,39995.0,-0.0032329999999999998,0.004575,0.0051849999999999995,0.7525000000000001,-1.1025,-3.7625,1.0354375,0.36934375,0.20940625000000002,1.2994375,1.02965625,-0.13671875,-0.24009375,1.2571875000000001,0.020966499433565305,0.018543657653964315,True
61476,14388,0,14389,3861.0,42286.0,39987.0,-0.002806,-0.002806,0.012627,0.6300000000000001,-1.5925000000000002,-4.0075,1.0581562500000001,0.36425,0.21381250000000002,1.27,1.01771875,-0.13140625,-0.23103125,1.2669062500000001,0.02053988254414307,0.01835843243361753,True
61477,14389,0,14390,3859.0,42283.0,39985.0,-0.002562,-0.011833999999999999,0.0042699999999999995,-0.052500000000000005,-1.6625,-3.9375000000000004,1.036125,0.36612500000000003,0.2149375,1.26859375,1.03115625,-0.13284375,-0.238625,1.27178125,0.020675920134774838,0.018712385706697473,True
61478,14390,0,14391,3857.0,42281.0,39980.0,-0.003294,-0.016897,-0.006344,-0.6475000000000001,-1.2950000000000002,-3.5700000000000003,1.0363437500000001,0.3705,0.21181250000000001,1.27315625,1.03046875,-0.13215625,-0.231,1.256,0.02082931358444192,0.018274627543229748,True
61479,14391,0,14392,3854.0,42281.0,39977.0,-0.002806,-0.0053679999999999995,-0.02318,-0.4025,-0.8400000000000001,-3.2375000000000003,1.03709375,0.36521875,0.214,1.270125,1.01765625,-0.1309375,-0.23153125,1.2654375,0.02056100182597547,0.01838642574434911,True
61480,14392,0,14393,3851.0,42279.0,39977.0,0.000488,0.021533,-0.000915,1.5225000000000002,-1.5750000000000002,-3.5000000000000004,1.03690625,0.36675,0.21581250000000002,1.27953125,1.0268125000000001,-0.12834375,-0.2339375,1.26428125,0.02051917674622818,0.01855868448946854,True
61481,14393,0,14394,3849.0,42279.0,39975.0,0.008539999999999999,0.022203999999999998,0.017506999999999998,1.995,-3.2550000000000003,-4.2175,1.0560625000000001,0.3585625,0.2023125,1.2990625,1.0285312500000001,-0.1371875,-0.23671875,1.25971875,0.020538846955553542,0.018114302291847982,True
61482,14394,0,14395,3847.0,42277.0,39970.0,0.019093,0.016226,0.020801,1.54,-4.7075000000000005,-5.022500000000001,1.06896875,0.34865625,0.2053125,1.27921875,1.02078125,-0.13259375,-0.2339375,1.26015625,0.019941909476680265,0.01812540780878056,True
61483,14395,0,14396,3847.0,42273.0,39971.0,0.023912,0.0032329999999999998,0.020618,0.8400000000000001,-5.32,-5.11,1.0434375,0.36275,0.2108125,1.26875,1.02190625,-0.13190625,-0.23043750000000002,1.2610000000000001,0.020498018054417064,0.018210566771648264,True
61484,14396,0,14397,3844.0,42271.0,39968.0,0.019703,-0.004575,0.012199999999999999,0.2625,-4.2700000000000005,-4.812500000000001,1.041125,0.36515625,0.21359375,1.28246875,1.01603125,-0.12687500000000002,-0.236625,1.26590625,0.02039349273372536,0.018575967157143373,True
61485,14397,0,14398,3845.0,42269.0,39966.0,-0.014701,-0.011407,-0.010309,-0.17500000000000002,0.15750000000000003,-3.1325000000000003,1.05821875,0.36246875,0.21134375,1.2769375,1.0305625,-0.1333125,-0.23353125,1.2595625,0.02054343969564891,0.018357828061067248,True
61486,14398,0,14399,3845.0,42269.0,39968.0,-0.028364999999999998,-0.014091,-0.014579,-0.43750000000000006,1.8900000000000001,-2.5025000000000004,1.048875,0.358875,0.207375,1.28609375,1.02159375,-0.13353125,-0.23384375000000002,1.26465625,0.020403406567366722,0.018206717619857562,True
61487,14399,0,14400,3844.0,42269.0,39965.0,-0.031842,-0.014518,-0.016104,-0.6300000000000001,2.2225,-2.45,1.05159375,0.36212500000000003,0.2095,1.28078125,1.026875,-0.1281875,-0.23375,1.2593125,0.02032114927820418,0.01829060710785578,True
61488,14400,0,14401,3846.0,42272.0,39964.0,-0.024949,-0.011407,-0.013054,-0.7000000000000001,1.3475000000000001,-2.6425,1.05525,0.35915625,0.20559375,1.28375,1.0261875,-0.13603125,-0.23475000000000001,1.262,0.020516525474750535,0.018169931606474177,True
61489,14401,0,14402,3847.0,42275.0,39969.0,-0.010675,-0.005612,-0.008479,-0.3325,-0.4025,-3.0975,1.04859375,0.36165625,0.21009375,1.28584375,1.0225625,-0.13046875,-0.233625,1.264,0.02039434066111957,0.018310044411432462,True
61490,14402,0,14403,3846.0,42279.0,39974.0,0.016836,0.013297999999999999,0.0048189999999999995,0.9275000000000001,-3.7275000000000005,-4.2175,1.05625,0.35981250000000004,0.20803125,1.28021875,1.02728125,-0.13543750000000002,-0.22871875,1.25871875,0.020519619750004537,0.01802612859996982,True
61491,14403,0,14404,3847.0,42277.0,39976.0,0.021899,0.017385,0.010309,1.3125000000000002,-4.7075000000000005,-4.4275,1.04890625,0.361375,0.21590625,1.2863437500000001,1.02171875,-0.1305,-0.23390625,1.2653125,0.020383953917241664,0.018561287452368517,True
61492,14404,0,14405,3848.0,42279.0,39974.0,0.022692,0.013847,0.015616,1.3650000000000002,-4.812500000000001,-4.515000000000001,1.05671875,0.36625,0.2085625,1.28759375,1.0281875,-0.13565625,-0.23550000000000001,1.26559375,0.02079521869226158,0.018322811578056986,True
61493,14405,0,14406,3849.0,42278.0,39974.0,0.019703,0.0062829999999999995,0.016226,0.8225000000000001,-4.2700000000000005,-4.532500000000001,1.05340625,0.36178125,0.20865625000000002,1.2801875,1.02696875,-0.1325,-0.2341875,1.2595625,0.0204819745156946,0.018273513399201025,True
61494,14406,0,14407,3850.0,42277.0,39975.0,0.002928,-0.008967,-0.003721,0.12250000000000001,-3.1850000000000005,-4.2875000000000005,1.03975,0.3615,0.2100625,1.28021875,1.0155625,-0.13259375,-0.23321875,1.26025,0.020474125372454004,0.018292297633800712,True
61495,14407,0,14408,3850.0,42280.0,39975.0,-0.009637999999999999,-0.010431,-0.010553,-0.4025,0.052500000000000005,-3.2550000000000003,1.05096875,0.36234375,0.21128125,1.28565625,1.0225625,-0.13246875,-0.23640625,1.26621875,0.020504014948739963,0.018471694828931167,True
61496,14408,0,14409,3851.0,42282.0,39976.0,-0.019215,-0.005856,-0.014213,-0.31500000000000006,1.2775,-2.9050000000000002,1.0566875,0.359375,0.20521875,1.2865312500000001,1.0296875,-0.13484375,-0.2378125,1.26409375,0.02047739588121427,0.018278516264617527,True
61497,14409,0,14410,3851.0,42283.0,39979.0,-0.024461,-0.002257,-0.01098,-0.07,1.5050000000000001,-2.9050000000000002,1.0549375,0.35831250000000003,0.20615625,1.2861562500000001,1.02909375,-0.136125,-0.23700000000000002,1.26465625,0.020485372030514426,0.01828428642158683,True
61498,14410,0,14411,3852.0,42283.0,39978.0,-0.021106,-0.0006709999999999999,-0.006405,0.21000000000000002,1.0850000000000002,-3.115,1.05465625,0.35865625,0.2063125,1.2855,1.02803125,-0.13259375,-0.236125,1.2639375,0.020356286816455443,0.018255290398114386,True
61499,14411,0,14412,3853.0,42286.0,39980.0,-0.000793,0.0025009999999999998,0.0048189999999999995,0.31500000000000006,-1.5925000000000002,-3.8500000000000005,1.05696875,0.35971875000000003,0.207625,1.2869375,1.0289375,-0.13475,-0.234125,1.26390625,0.020487833932400376,0.018228427888359905,True
61500,14412,0,14413,3852.0,42290.0,39983.0,0.010797,0.0042699999999999995,0.007869,0.43750000000000006,-2.9225000000000003,-4.235,1.056125,0.36103125,0.2088125,1.28646875,1.02684375,-0.13453125,-0.23659375,1.2638125,0.02053333851263426,0.018377427727442105,True
61501,14413,0,14414,3853.0,42287.0,39982.0,0.017202,0.004209,0.008357,0.5950000000000001,-3.8150000000000004,-4.2175,1.054875,0.35928125,0.20696875,1.28684375,1.01615625,-0.133625,-0.23390625,1.264,0.0204240452895079,0.018192485992636866,True
61502,14414,0,14415,3854.0,42288.0,39982.0,0.019886,0.0021349999999999997,0.006954,0.5950000000000001,-3.9375000000000004,-4.305000000000001,1.04959375,0.35878125,0.21203125,1.28678125,1.0270625,-0.13334375,-0.2351875,1.26425,0.02039191108774556,0.01845328203051864,True
61503,14415,0,14416,3853.0,42285.0,39980.0,0.015921,-0.000244,0.003111,0.43750000000000006,-3.6400000000000006,-4.235,1.05746875,0.3590625,0.20896875,1.2862500000000001,1.0266250000000001,-0.13309375,-0.2344375,1.26521875,0.02039341723437344,0.018296535663350967,True
61504,14416,0,14417,3852.0,42286.0,39983.0,0.0006709999999999999,-0.004209,-0.004209,0.07,-1.4175000000000002,-3.6575,1.05546875,0.36015625,0.20553125,1.28,1.03046875,-0.1330625,-0.2366875,1.25296875,0.02043747037907021,0.018245841144752147,True
61505,14417,0,14418,3853.0,42284.0,39979.0,-0.006893,-0.0030499999999999998,-0.007625,0.035,-0.43750000000000006,-3.535,1.0535,0.359375,0.206375,1.28765625,1.02975,-0.135,-0.23740625,1.2729375,0.020483737310959187,0.018309766541128963,True
61506,14418,0,14419,3854.0,42285.0,39981.0,-0.012688,-0.00061,-0.0064659999999999995,0.12250000000000001,0.21000000000000002,-3.4125000000000005,1.05678125,0.35928125,0.207875,1.2800625,1.027375,-0.138375,-0.2390625,1.25446875,0.020616808297990234,0.018438728808096435,True
61507,14419,0,14420,3853.0,42286.0,39981.0,-0.01464,0.001464,-0.0032329999999999998,0.21000000000000002,0.3325,-3.22,1.04890625,0.3621875,0.2081875,1.28040625,1.02125,-0.1315,-0.233125,1.25396875,0.02045821851107474,0.018211126299228844,True
61508,14420,0,14421,3853.0,42285.0,39982.0,-0.013115,0.002745,0.00122,0.47250000000000003,-0.052500000000000005,-3.3950000000000005,1.0484375,0.36262500000000003,0.20975,1.2798125,1.01571875,-0.1293125,-0.23168750000000002,1.2545,0.02038754730372032,0.018217365175248322,True
61509,14421,0,14422,3852.0,42282.0,39977.0,0.0006709999999999999,0.0032329999999999998,0.006527,0.45500000000000007,-1.61,-3.8325000000000005,1.05046875,0.36165625,0.20703125,1.28528125,1.01571875,-0.13203125,-0.2358125,1.2730000000000001,0.020457768137524684,0.01827228816859348,True
61510,14422,0,14423,3851.0,42281.0,39977.0,0.006893,0.000915,0.003965,0.56,-2.345,-3.8675,1.048625,0.3599375,0.20728125,1.2863125,1.0386875,-0.131375,-0.234375,1.2645,0.02035990489559754,0.01822437137330754,True
61511,14423,0,14424,3853.0,42280.0,39977.0,0.008723,-0.001464,0.0021349999999999997,0.28,-2.6425,-3.8500000000000005,1.04334375,0.358875,0.2093125,1.2815,1.01853125,-0.13290625,-0.2295625,1.25415625,0.020378036731485666,0.018113203653594655,True
61512,14424,0,14425,3853.0,42281.0,39978.0,0.008357,-0.003721,-0.000244,0.12250000000000001,-2.66,-3.7800000000000002,1.051625,0.360375,0.20800000000000002,1.286,1.01559375,-0.129875,-0.23015625,1.25640625,0.020317137987660525,0.018083096348171505,True
61513,14425,0,14426,3851.0,42280.0,39977.0,0.0070149999999999995,-0.0032329999999999998,-0.001464,0.0,-2.3975000000000004,-3.7450000000000006,1.0550625,0.35990625,0.20971875,1.27503125,1.02278125,-0.13321875,-0.229375,1.24478125,0.020433453370160164,0.01812237212061805,True
61514,14426,0,14427,3852.0,42279.0,39977.0,-0.00183,-0.001586,-0.00488,0.17500000000000002,-1.4700000000000002,-3.6050000000000004,1.049,0.3619375,0.2084375,1.28703125,1.016,-0.131125,-0.23446875,1.2749062500000001,0.02043263627369217,0.01827588029962489,True
61515,14427,0,14428,3854.0,42281.0,39979.0,-0.004514,0.00061,-0.003111,0.28,-1.0325000000000002,-3.4475000000000002,1.0539687500000001,0.3605,0.2136875,1.28509375,1.03765625,-0.13934375000000002,-0.2361875,1.27196875,0.020706600609223275,0.01856211914518321,True
61516,14428,0,14429,3851.0,42281.0,39980.0,-0.0060999999999999995,0.0032329999999999998,-0.0017079999999999999,0.4025,-0.8575,-3.5000000000000004,1.0502500000000001,0.36134375,0.208875,1.2809375,1.0335625,-0.13621875,-0.2331875,1.25365625,0.02061476593138683,0.01824202862293704,True
61517,14429,0,14430,3853.0,42278.0,39980.0,-0.006222,0.003904,6.1e-05,0.5075000000000001,-0.8575,-3.6400000000000006,1.04896875,0.36259375,0.20884375,1.28846875,1.01528125,-0.1304375,-0.233375,1.26259375,0.020431923374783407,0.018248335198873457,True
61518,14430,0,14431,3854.0,42279.0,39980.0,-0.004514,0.004026,0.001647,0.43750000000000006,-1.2075,-3.7275000000000005,1.0509375,0.3616875,0.20921875,1.27928125,1.02728125,-0.131875,-0.231875,1.2591875000000001,0.02045272072725389,0.018203038353408477,True
61519,14431,0,14432,3853.0,42280.0,39979.0,0.002257,-0.000732,0.005673,0.3325,-2.0825,-3.7975000000000003,1.05296875,0.36162500000000003,0.207125,1.286,1.0289375,-0.13396875,-0.23740625,1.2599375,0.02053511194672447,0.018340710446275582,True
61520,14432,0,14433,3854.0,42282.0,39981.0,0.0051849999999999995,-0.00244,0.002806,0.28,-2.3800000000000003,-3.9550000000000005,1.056125,0.35962500000000003,0.206375,1.28690625,1.02728125,-0.13375,-0.23321875,1.26684375,0.020443362511006372,0.018140130476889293,True
61521,14433,0,14434,3854.0,42283.0,39981.0,0.0051849999999999995,-0.003294,-0.0008539999999999999,0.07,-2.4325,-3.8150000000000004,1.0542500000000001,0.3663125,0.20828125,1.283375,1.029625,-0.1345625,-0.2344375,1.2654375,0.02075343192983092,0.018268166942187126,True
61522,14434,0,14435,3855.0,42282.0,39981.0,0.005673,-0.002379,-0.003355,0.08750000000000001,-2.345,-3.5875000000000004,1.052375,0.3629375,0.20953125,1.27809375,1.0278125,-0.13365625,-0.22971875,1.259625,0.0205768137598297,0.01812856370856554,True
61523,14435,0,14436,3856.0,42283.0,39983.0,0.003172,-0.0013419999999999999,-0.005978,0.08750000000000001,-1.9775000000000003,-3.5700000000000003,1.04128125,0.36803125000000003,0.20940625000000002,1.2800625,1.02184375,-0.13225,-0.23334375000000002,1.26071875,0.020730816645774846,0.018270281004865458,True
61524,14436,0,14437,3855.0,42286.0,39985.0,-0.001281,-0.00183,-0.002196,0.24500000000000002,-1.5575,-3.6400000000000006,1.04965625,0.3615625,0.2085625,1.27828125,1.0220625,-0.13153125000000002,-0.2341875,1.258375,0.020433587280127532,0.018269644897317062,True
61525,14437,0,14438,3858.0,42286.0,39984.0,-0.002013,-0.001464,6.1e-05,0.31500000000000006,-1.4000000000000001,-3.6750000000000003,1.0525,0.36453125000000003,0.2101875,1.28640625,1.02025,-0.13515625,-0.23546875,1.26478125,0.02070371928915936,0.018388596259356443,True
61526,14438,0,14439,3858.0,42287.0,39986.0,-0.0026839999999999998,0.000549,0.001952,0.24500000000000002,-1.33,-3.6925000000000003,1.05859375,0.358375,0.20703125,1.28678125,1.03090625,-0.13475,-0.2345625,1.267125,0.020432156952112618,0.01822165141211029,True
61527,14439,0,14440,3857.0,42289.0,39990.0,-0.0011589999999999999,0.002928,0.003843,0.385,-1.225,-3.7100000000000004,1.0578750000000001,0.36212500000000003,0.20959375,1.2783125,1.0313125,-0.1345625,-0.235875,1.263875,0.020579925573542095,0.018380551558381943,True
61528,14440,0,14441,3860.0,42288.0,39990.0,-0.00122,0.0026839999999999998,0.0026839999999999998,0.43750000000000006,-1.2775,-3.6575,1.04828125,0.3615625,0.2055625,1.27996875,1.02646875,-0.13553125,-0.23184375000000002,1.2651875000000001,0.020595931568732302,0.018050886037097362,True
61529,14441,0,14442,3861.0,42289.0,39987.0,-0.0030499999999999998,0.0026839999999999998,0.001464,0.525,-1.3475000000000001,-3.7450000000000006,1.03809375,0.36371875000000004,0.21078125,1.27703125,1.0286875,-0.132625,-0.23303125,1.2589375,0.020567333640662797,0.01831436172476359,True
61530,14442,0,14443,3861.0,42290.0,39986.0,-0.0034159999999999998,0.0,-0.00042699999999999997,0.49000000000000005,-1.3650000000000002,-3.7275000000000005,1.04478125,0.3635625,0.21028125,1.27865625,1.02128125,-0.1325625,-0.2333125,1.26,0.02055832239116754,0.018305122339341763,True
61531,14443,0,14444,3863.0,42290.0,39990.0,-0.001769,-0.001464,-0.001098,0.24500000000000002,-1.5750000000000002,-3.8325000000000005,1.03390625,0.36046875,0.2044375,1.2921875,1.0215625,-0.1295,-0.23496875,1.26240625,0.020305797882260303,0.018131083829022888,True
61532,14444,0,14445,3862.0,42290.0,39988.0,0.001098,-0.003477,0.0,0.035,-1.8025000000000002,-3.8150000000000004,1.05909375,0.35896875,0.20753125,1.27721875,1.02925,-0.13434375,-0.23440625,1.26553125,0.02044026989546795,0.018235953274077017,True
61533,14445,0,14446,3862.0,42290.0,39991.0,0.0034159999999999998,-0.0040869999999999995,-0.000976,-0.07,-2.0825,-3.7450000000000006,1.044375,0.36328125,0.210375,1.26534375,1.02571875,-0.132375,-0.234125,1.2627187500000001,0.02053905800817367,0.01834190423627839,True
61534,14446,0,14447,3861.0,42291.0,39991.0,0.008418,0.001098,-0.001952,0.21000000000000002,-2.415,-3.7450000000000006,1.03334375,0.36375,0.20984375,1.2766250000000001,1.02734375,-0.13446875,-0.23428125,1.26003125,0.02064345211659155,0.018326312029575874,True
61535,14447,0,14448,3863.0,42290.0,39994.0,0.005429,0.003111,-0.0008539999999999999,0.4025,-2.1875,-3.6750000000000003,1.0355625,0.35584375,0.20803125,1.2886250000000001,1.02196875,-0.13234375,-0.23500000000000001,1.26390625,0.020229593323275945,0.018280637507736744,True
61536,14448,0,14449,3864.0,42289.0,39992.0,0.001098,0.003355,0.000976,0.43750000000000006,-1.6450000000000002,-3.6575,1.03690625,0.363875,0.21059375,1.269125,1.027125,-0.13493750000000002,-0.23403125,1.25990625,0.020667652443682526,0.01834713322819537,True
61537,14449,0,14450,3865.0,42289.0,39993.0,-0.0055509999999999995,0.0026839999999999998,0.0,0.47250000000000003,-1.05,-3.535,1.04346875,0.36246875,0.203375,1.28478125,1.0226875,-0.12728125,-0.2335625,1.2625,0.02029859870763516,0.0180302627812151,True
61538,14450,0,14451,3864.0,42290.0,39994.0,-0.009028,0.0011589999999999999,-0.001464,0.47250000000000003,-0.7000000000000001,-3.6575,1.04675,0.36371875000000004,0.20953125,1.28040625,1.02615625,-0.13159375,-0.23378125,1.259625,0.020525478140042037,0.01829316256620085,True
61539,14451,0,14452,3865.0,42291.0,39994.0,-0.0073809999999999995,-0.002623,0.001586,0.2625,-0.8225000000000001,-3.535,1.05403125,0.35940625,0.20650000000000002,1.2799375,1.0206875,-0.1345,-0.23459375000000002,1.261625,0.020464739273653897,0.018200996251484518,True
61540,14452,0,14453,3864.0,42291.0,39995.0,-0.001464,-0.0051849999999999995,0.0030499999999999998,0.28,-1.5225000000000002,-3.535,1.0489375,0.36178125,0.206375,1.285125,1.0225312500000001,-0.13253125,-0.23434375000000002,1.26075,0.020483242925459798,0.018185710104074927,True
61541,14453,0,14454,3864.0,42292.0,39995.0,0.004514,-0.004758,0.000915,0.35000000000000003,-2.205,-3.7100000000000004,1.05590625,0.3595,0.2076875,1.2866250000000001,1.02725,-0.13593750000000002,-0.23859375,1.2738125,0.020526963164368483,0.018412010804050874,True
61542,14454,0,14455,3866.0,42291.0,39995.0,0.009089,-0.001098,-0.000976,0.43750000000000006,-2.3625000000000003,-3.9725000000000006,1.05371875,0.36,0.20565625,1.2828125000000001,1.0376875,-0.13815625,-0.227,1.2565625,0.02063770922851657,0.017858432740331037,True
61543,14455,0,14456,3864.0,42295.0,39992.0,0.007442,0.001464,-0.00244,0.525,-2.1875,-3.99,1.04853125,0.36225,0.208375,1.28046875,1.0148125000000001,-0.1285625,-0.22546875,1.25784375,0.020341555780623067,0.01790858020033152,True
61544,14456,0,14457,3865.0,42295.0,39987.0,-0.000488,0.002745,0.000244,0.5425000000000001,-1.3825,-3.7800000000000002,1.03628125,0.36715625,0.208125,1.28146875,1.02303125,-0.1360625,-0.23796875,1.2669375,0.02084924788374243,0.018404749779207467,True
61545,14457,0,14458,3861.0,42290.0,39985.0,-0.003294,0.002196,-0.000793,0.47250000000000003,-1.1900000000000002,-3.9375000000000004,1.0506875,0.363875,0.206125,1.2859375,1.0464375000000001,-0.14190625,-0.23475000000000001,1.26590625,0.020950344383016566,0.01819185260834133,True
61546,14458,0,14459,3857.0,42289.0,39981.0,-0.003477,0.00042699999999999997,0.000732,0.28,-0.9100000000000001,-3.9375000000000004,1.048625,0.36171875000000003,0.21003125,1.28046875,1.00678125,-0.1284375,-0.23040625,1.2530625,0.020314462965121554,0.018177058009499945,True
61547,14459,0,14460,3856.0,42289.0,39977.0,-0.003538,-0.00122,0.002074,0.42000000000000004,-1.1025,-3.8325000000000005,1.048875,0.360375,0.20665625,1.2803125,1.0166875,-0.13190625,-0.24059375,1.2667187500000001,0.020399600632461434,0.01845045565354603,True
61548,14460,0,14461,3853.0,42286.0,39972.0,-0.001403,-0.000305,0.0028669999999999998,0.49000000000000005,-1.4000000000000001,-3.8325000000000005,1.0485,0.36190625,0.2091875,1.27965625,1.011375,-0.12896875,-0.22990625,1.2512812500000001,0.020343803545271696,0.01812197478064943,True
61549,14461,0,14462,3850.0,42282.0,39970.0,0.0018909999999999999,0.0013419999999999999,-0.000976,0.525,-1.8900000000000001,-3.8500000000000005,1.04921875,0.3625,0.208875,1.2806875,1.01071875,-0.1290625,-0.23078125,1.2556875,0.020372217113698472,0.018144534650528447,True
61550,14462,0,14463,3850.0,42279.0,39965.0,0.001769,0.002257,-0.000732,0.56,-1.8200000000000003,-3.7975000000000003,1.04853125,0.3614375,0.2085625,1.2861562500000001,1.02590625,-0.1379375,-0.23865625000000001,1.28375,0.02068838731561054,0.018450641214898207,True
61551,14463,0,14464,3847.0,42279.0,39965.0,-0.000122,0.00244,-0.000793,0.525,-1.8025000000000002,-3.7275000000000005,1.05678125,0.359875,0.20990625000000002,1.2805625,1.0425625,-0.13415625,-0.2353125,1.24875,0.020470210140451875,0.018370662643611466,True
61552,14464,0,14465,3847.0,42279.0,39964.0,-0.000366,0.000244,-0.00042699999999999997,0.42000000000000004,-1.6625,-3.7975000000000003,1.0488125,0.361875,0.20884375,1.2813125,1.0090937500000001,-0.13053125000000002,-0.23143750000000002,1.2579375,0.020405943196961318,0.018169836189041614,True
61553,14465,0,14466,3845.0,42280.0,39962.0,-0.0017079999999999999,0.000244,0.000549,0.4025,-1.7850000000000001,-3.8675,1.053625,0.3605,0.20640625,1.28540625,1.02065625,-0.13684375000000001,-0.2348125,1.26825,0.020605169223917273,0.018205989833839233,True
61554,14466,0,14467,3845.0,42280.0,39960.0,0.0006709999999999999,-0.0028669999999999998,-0.000305,0.15750000000000003,-1.8025000000000002,-3.7975000000000003,1.05496875,0.36,0.20800000000000002,1.2851875,1.0267187500000001,-0.132875,-0.23534375000000002,1.2663125,0.02042338511263163,0.018293272609347662,True
61555,14467,0,14468,3845.0,42281.0,39965.0,0.002257,-0.002074,-0.000732,0.035,-1.8550000000000002,-3.7625,1.0539687500000001,0.36262500000000003,0.208875,1.28128125,1.0313125,-0.13546875,-0.235125,1.2674375,0.020637417700868146,0.018320516192922465,True
61556,14468,0,14469,3846.0,42280.0,39963.0,0.0011589999999999999,-0.001647,-0.00122,0.12250000000000001,-1.9425000000000001,-3.7800000000000002,1.05,0.36340625,0.2090625,1.28021875,1.02078125,-0.13215625,-0.2335,1.25903125,0.020535359329939693,0.018262425980564097,True
61557,14469,0,14470,3846.0,42281.0,39964.0,0.0017079999999999999,-0.001403,-0.0008539999999999999,0.24500000000000002,-1.8900000000000001,-3.7450000000000006,1.048875,0.36296875,0.20903125,1.2809375,1.0226250000000001,-0.1320625,-0.2334375,1.25975,0.02051342482641092,0.018258604459231175,True
61558,14470,0,14471,3845.0,42280.0,39964.0,0.00042699999999999997,-0.000366,-0.003111,0.28,-1.9600000000000002,-3.6575,1.04859375,0.3628125,0.20859375,1.28028125,1.0271875,-0.13240625,-0.2330625,1.26009375,0.020520902261870384,0.018225358433338747,True
61559,14471,0,14472,3847.0,42282.0,39965.0,-0.000244,0.000366,-0.0015249999999999999,0.15750000000000003,-1.7850000000000001,-3.6400000000000006,1.04875,0.3630625,0.2075625,1.2859375,1.0215625,-0.13271875,-0.23415625,1.2618125,0.02054394513672439,0.018227114880469585,True
61560,14472,0,14473,3847.0,42283.0,39969.0,0.000122,0.001952,0.000122,0.1925,-1.7500000000000002,-3.6050000000000004,1.05365625,0.36,0.2074375,1.28628125,1.02675,-0.13568750000000002,-0.23728125,1.26771875,0.02053753389042678,0.01834854105181455,True
61561,14473,0,14474,3847.0,42283.0,39967.0,-0.000305,0.0008539999999999999,0.001281,0.2625,-1.6275000000000002,-3.5875000000000004,1.042125,0.359375,0.2060625,1.2903437500000001,1.03153125,-0.13528125,-0.234375,1.26653125,0.02049515167758818,0.018174081237911026,True
61562,14474,0,14475,3847.0,42284.0,39969.0,-0.000732,0.000244,0.002745,0.3325,-1.7500000000000002,-3.6750000000000003,1.046,0.35775,0.20784375,1.2804375000000001,1.02615625,-0.13346875,-0.230375,1.26678125,0.02035425388238067,0.018085512502385954,True
61563,14475,0,14476,3848.0,42288.0,39971.0,-0.002257,0.000915,0.00183,0.385,-1.5575,-3.7625,1.05,0.3625625,0.20815625000000001,1.29575,1.0301875,-0.13278125,-0.2329375,1.2599375,0.02052576306346787,0.01820224023604237,True
61564,14476,0,14477,3850.0,42285.0,39970.0,-0.00061,0.001037,-0.000549,0.2625,-1.5050000000000001,-3.6050000000000004,1.0689375,0.3619375,0.20825,1.275125,1.0215625,-0.13259375,-0.2378125,1.2650625,0.02049225438106917,0.018403579118371347,True
61565,14477,0,14478,3850.0,42287.0,39972.0,-0.001281,6.1e-05,-0.000488,0.24500000000000002,-1.4700000000000002,-3.6225000000000005,1.0429375,0.36409375,0.21084375,1.2826875,1.02990625,-0.13184375,-0.22928125,1.260375,0.02055116488975278,0.018165004378741113,True
61566,14478,0,14479,3852.0,42287.0,39974.0,0.000366,0.000244,-0.0013419999999999999,0.1925,-1.4175000000000002,-3.6575,1.06278125,0.35481250000000003,0.20259375000000002,1.2966875,1.0218125,-0.13265625,-0.2340625,1.2596875,0.02019954807088424,0.01801828521322003,True
61567,14479,0,14480,3853.0,42289.0,39975.0,0.001037,0.000122,-0.002928,0.12250000000000001,-1.4875,-3.6575,1.06303125,0.35378125,0.201375,1.28590625,1.0226250000000001,-0.13293750000000001,-0.23340625,1.26015625,0.020168234803574988,0.0179414006233647,True
61568,14480,0,14481,3854.0,42291.0,39976.0,0.000366,-0.00122,-0.001769,0.1925,-1.5575,-3.5700000000000003,1.04665625,0.36003125,0.20703125,1.28628125,1.0223125,-0.12978125000000001,-0.234125,1.2605625,0.0202990858029432,0.018203927313241143,True
61569,14481,0,14482,3853.0,42291.0,39977.0,-0.000488,-0.00122,0.000793,0.24500000000000002,-1.4525000000000001,-3.6575,1.05084375,0.36162500000000003,0.20125,1.29521875,1.0173125,-0.13228125,-0.22918750000000002,1.2593125,0.020466620825579845,0.017765246977431665,True
61570,14482,0,14483,3854.0,42294.0,39978.0,0.0008539999999999999,-0.001647,0.003172,0.31500000000000006,-1.4700000000000002,-3.6750000000000003,1.066625,0.35775,0.2125,1.27084375,1.02340625,-0.13315625,-0.23415625,1.26765625,0.020341568459368013,0.018430856242416114,True
61571,14483,0,14484,3855.0,42294.0,39979.0,-0.000183,-0.001281,0.0026839999999999998,0.42000000000000004,-1.5050000000000001,-3.7275000000000005,1.04246875,0.36425,0.21159375,1.27496875,1.03025,-0.13543750000000002,-0.23540625,1.26634375,0.02070347802893567,0.018444089419792583,True
61572,14484,0,14485,3854.0,42292.0,39976.0,0.001464,0.0006709999999999999,0.00122,0.42000000000000004,-1.6625,-3.6575,1.04246875,0.3631875,0.2151875,1.2761875,1.0288125000000001,-0.13393750000000001,-0.23615625,1.2639375,0.020598586534004246,0.018622744685432537,True
61573,14485,0,14486,3856.0,42294.0,39977.0,-0.00061,0.003172,-0.001281,0.5425000000000001,-1.4525000000000001,-3.7975000000000003,1.0425625,0.3639375,0.21103125,1.27434375,1.02784375,-0.13440625,-0.23278125,1.25715625,0.020648684903942893,0.018314550666774992,True
61574,14486,0,14487,3855.0,42293.0,39977.0,-0.000366,0.001098,-0.0006709999999999999,0.43750000000000006,-1.5050000000000001,-3.7625,1.0458125,0.36315625,0.21481250000000002,1.27825,1.01175,-0.1318125,-0.23334375000000002,1.26078125,0.02051104739853254,0.018493372380771846,True
61575,14487,0,14488,3854.0,42293.0,39976.0,-0.000976,-0.00042699999999999997,0.0011589999999999999,0.3325,-1.4875,-3.7800000000000002,1.046375,0.3624375,0.20884375,1.27046875,1.02303125,-0.13471875,-0.2341875,1.2650000000000001,0.020599214565116902,0.018281250402968945,True
61576,14488,0,14489,3854.0,42291.0,39977.0,-0.000122,-0.000915,0.000976,0.31500000000000006,-1.5575,-3.7625,1.04921875,0.36453125000000003,0.208375,1.2810625,1.02621875,-0.1328125,-0.23384375000000002,1.2632812500000001,0.020608611201035937,0.018247982225271218,True
61577,14489,0,14490,3853.0,42291.0,39977.0,0.000366,-0.001403,0.000122,0.22750000000000004,-1.5225000000000002,-3.6750000000000003,1.0495625,0.362875,0.2090625,1.28084375,1.01571875,-0.13009375,-0.23325,1.2593750000000001,0.02042962431507337,0.01825229797901643,True
61578,14490,0,14491,3853.0,42290.0,39977.0,-0.00061,0.000366,-0.000732,0.36750000000000005,-1.3650000000000002,-3.5700000000000003,1.04890625,0.362375,0.2090625,1.2811875,1.02171875,-0.13259375,-0.23315625,1.25965625,0.020510383389684333,0.018248499924561002,True
61579,14491,0,14492,3854.0,42291.0,39977.0,-0.002196,0.000488,0.000122,0.43750000000000006,-1.4175000000000002,-3.6925000000000003,1.04896875,0.36221875000000003,0.20903125,1.2805,1.0221875,-0.13275,-0.233125,1.26,0.02051025059307373,0.018245944342712712,True
61580,14492,0,14493,3852.0,42290.0,39976.0,-0.000976,-0.001037,0.000976,0.385,-1.5750000000000002,-3.6225000000000005,1.053,0.35975,0.20575000000000002,1.28165625,1.02240625,-0.13290625,-0.237125,1.26571875,0.020414294279206425,0.01827258802353827,True
61581,14493,0,14494,3854.0,42291.0,39979.0,0.0,-0.000549,0.0,0.3325,-1.8550000000000002,-3.6225000000000005,1.04875,0.36215625,0.20840625000000002,1.28459375,1.02775,-0.13275,-0.23396875,1.26021875,0.02050766075146844,0.01825433566262233,True
61582,14494,0,14495,3854.0,42290.0,39980.0,0.0011589999999999999,-6.1e-05,-0.000122,0.3325,-1.9425000000000001,-3.6400000000000006,1.0515,0.36003125,0.20671875,1.28571875,1.02259375,-0.1335625,-0.23650000000000002,1.26396875,0.02045258548131881,0.01828724238235719,True
61583,14495,0,14496,3853.0,42291.0,39980.0,0.001464,0.0008539999999999999,0.000305,0.47250000000000003,-1.8900000000000001,-3.6925000000000003,1.0558125,0.359375,0.207875,1.28353125,1.029625,-0.13565625,-0.23765625,1.26615625,0.020510370419283712,0.018381779385125162,True
61584,14496,0,14497,3854.0,42290.0,39980.0,-0.0015249999999999999,0.000366,0.000305,0.49000000000000005,-1.715,-3.7100000000000004,1.05478125,0.36065625,0.20575000000000002,1.28675,1.02025,-0.13325,-0.23650000000000002,1.26096875,0.020465799260356562,0.018247271677016074,True
61585,14497,0,14498,3854.0,42290.0,39980.0,-0.001098,0.001098,0.000244,0.3325,-1.5750000000000002,-3.6400000000000006,1.05259375,0.35921875000000003,0.20753125,1.2884375000000001,1.023125,-0.13221875,-0.23465625,1.26721875,0.020364372836625313,0.018246080961020438,True
61586,14498,0,14499,3854.0,42289.0,39979.0,-0.000122,0.000305,0.000366,0.1925,-1.6275000000000002,-3.6575,1.0531875,0.3620625,0.20940625000000002,1.2803437500000001,1.0296875,-0.132875,-0.2336875,1.2596875,0.020508849442927957,0.01828420664416012,True
61587,14499,0,14500,3855.0,42290.0,39983.0,0.001098,-0.00061,0.000122,0.3325,-1.715,-3.7975000000000003,1.039125,0.3575,0.20700000000000002,1.28528125,1.0113125,-0.13309375,-0.234625,1.2594687500000001,0.020328672116479055,0.018222893896645814,True
61588,14500,0,14501,3855.0,42289.0,39982.0,0.0015249999999999999,0.000305,-0.001952,0.3325,-1.8725000000000003,-3.9200000000000004,1.05428125,0.366875,0.20884375,1.28015625,1.02921875,-0.1338125,-0.23621875,1.2559375,0.020746307695893466,0.018363528757966836,True
61589,14501,0,14502,3856.0,42289.0,39982.0,-0.000366,0.000122,-0.001403,0.28,-1.5225000000000002,-3.8675,1.048375,0.3619375,0.21181250000000001,1.276875,1.0223125,-0.13234375,-0.23303125,1.25434375,0.020482107130601435,0.01835691727587732,True
61590,14502,0,14503,3856.0,42292.0,39982.0,-0.0011589999999999999,-0.001586,0.000305,0.4025,-1.5050000000000001,-3.7275000000000005,1.049375,0.3615,0.20871875,1.2854375,1.02228125,-0.132625,-0.23384375000000002,1.26059375,0.020475393787455776,0.018262166933382167,True
61591,14503,0,14504,3856.0,42292.0,39985.0,-0.0017079999999999999,-0.000793,-0.000549,0.35000000000000003,-1.5750000000000002,-3.8150000000000004,1.0531875,0.3621875,0.20875,1.280875,1.01946875,-0.1355625,-0.23334375000000002,1.26053125,0.020623095069775152,0.018243200548830576,True
61592,14504,0,14505,3858.0,42294.0,39986.0,6.1e-05,-0.000305,-0.00042699999999999997,0.1925,-1.61,-3.8500000000000005,1.0490625,0.35965625,0.208125,1.28378125,1.022,-0.133125,-0.23478125,1.26153125,0.020419288840545932,0.018275644637807488,True
61593,14505,0,14506,3858.0,42294.0,39987.0,0.000976,0.000122,0.001037,0.31500000000000006,-1.7325000000000002,-3.7450000000000006,1.04971875,0.3620625,0.209,1.2807187500000001,1.0296875,-0.1320625,-0.23290625,1.2500625,0.02047587105329269,0.018235792498062422,True
61594,14506,0,14507,3858.0,42294.0,39987.0,0.000122,0.00061,0.000488,0.35000000000000003,-1.61,-3.8150000000000004,1.0524375,0.36140625,0.21175,1.28084375,1.02178125,-0.1335,-0.23653125,1.25315625,0.020507023432158617,0.018496097703750408,True
61595,14507,0,14508,3858.0,42294.0,39987.0,0.0006709999999999999,0.000183,6.1e-05,0.14,-1.4700000000000002,-3.7275000000000005,1.04953125,0.36259375,0.20984375,1.28065625,1.01434375,-0.1315625,-0.23371875,1.2581875,0.020477590292796,0.018303525949767818,True
61596,14508,0,14509,3859.0,42297.0,39987.0,-0.000305,-6.1e-05,0.001098,0.1925,-1.3825,-3.6400000000000006,1.0488125,0.36265625,0.20971875,1.27975,1.01675,-0.1311875,-0.232625,1.26378125,0.020464958469200906,0.018254058320136594,True
61597,14509,0,14510,3857.0,42297.0,39988.0,0.0008539999999999999,0.000915,0.0008539999999999999,0.2625,-1.4700000000000002,-3.5875000000000004,1.0493125,0.36190625,0.21065625000000002,1.29196875,1.0251875,-0.13609375,-0.237125,1.27125,0.020632999074259892,0.01847501508532881,True
61598,14510,0,14511,3860.0,42296.0,39989.0,-0.00061,0.0023179999999999997,0.000488,0.36750000000000005,-1.2775,-3.7800000000000002,1.06215625,0.3565625,0.20421875,1.28921875,1.03640625,-0.138375,-0.23465625,1.25796875,0.02050417644104046,0.01810939653827357,True
61599,14511,0,14512,3861.0,42294.0,39987.0,-0.0018909999999999999,0.002623,-0.000366,0.3325,-1.2075,-3.8150000000000004,1.0645625,0.356625,0.20115625,1.28728125,1.01815625,-0.12678125,-0.23193750000000002,1.2474375,0.020036085418563658,0.01787284859083183,True
61600,14512,0,14513,3862.0,42298.0,39991.0,-0.003965,-0.00042699999999999997,0.00042699999999999997,0.2625,-0.9975,-3.8850000000000002,1.037375,0.35981250000000004,0.2109375,1.26059375,1.00953125,-0.132125,-0.23275,1.25675,0.020385171218862824,0.018309415976313047,True
61601,14513,0,14514,3861.0,42298.0,39991.0,-0.003965,-0.002623,-0.00061,0.035,-1.1375000000000002,-3.9725000000000006,1.03659375,0.3666875,0.2059375,1.2968125,1.02540625,-0.13615625,-0.238625,1.2664375,0.020833630044137623,0.01834107751574192,True
61602,14514,0,14515,3862.0,42298.0,39990.0,-0.0008539999999999999,-0.0037819999999999998,-0.0021349999999999997,-0.035,-1.3825,-3.8675,1.07034375,0.35553125,0.19934375000000001,1.29909375,1.02303125,-0.13375,-0.234875,1.264875,0.020273734914797743,0.01791710293533596,True
61603,14515,0,14516,3861.0,42297.0,39991.0,0.0059169999999999995,-0.00122,0.000183,0.10500000000000001,-2.1,-3.8150000000000004,1.05546875,0.37265625,0.21834375,1.269625,1.03796875,-0.13184375,-0.237125,1.2650000000000001,0.020905986514188332,0.01879219379361207,True
61604,14516,0,14517,3862.0,42300.0,39992.0,0.004575,0.000122,0.000732,0.1925,-2.0300000000000002,-3.7975000000000003,1.041625,0.35484375,0.20459375,1.298875,1.01834375,-0.13053125000000002,-0.23596875,1.26125,0.020114559226705794,0.0181780437392254,True
61605,14517,0,14518,3863.0,42299.0,39993.0,0.004331,0.001464,0.001281,0.4025,-1.9250000000000003,-3.7450000000000006,1.05853125,0.364,0.214125,1.26234375,1.0356875,-0.13659375,-0.23346875,1.2645625,0.020740032963433373,0.01847006528935318,True
61606,14518,0,14519,3864.0,42299.0,39994.0,0.001098,0.004148,0.001464,0.31500000000000006,-1.4875,-3.8500000000000005,1.0361875,0.364,0.21171875,1.27440625,1.01775,-0.13075,-0.23290625,1.2579375,0.02050288532266921,0.018347984984260816,True
61607,14519,0,14520,3864.0,42297.0,39995.0,-0.0030499999999999998,0.0034159999999999998,0.001281,0.385,-0.9800000000000001,-3.6575,1.051375,0.35853125,0.20715625000000001,1.283625,1.0195,-0.12803125,-0.2325625,1.2600625,0.020165859989094634,0.018145780084132663,True
61608,14520,0,14521,3865.0,42298.0,39992.0,-0.00732,-0.000183,-0.003294,0.24500000000000002,-0.6125,-3.6750000000000003,1.05721875,0.35100000000000003,0.19775,1.29978125,1.02190625,-0.1323125,-0.2335,1.25975,0.020027608212018638,0.017795613510223452,True
61609,14521,0,14522,3865.0,42297.0,39996.0,-0.00549,-0.0034159999999999998,-0.0017079999999999999,0.14,-0.8400000000000001,-3.7100000000000004,1.0628125,0.3539375,0.20709375,1.2845312500000001,1.02284375,-0.1350625,-0.2379375,1.26534375,0.020260979228870858,0.018360937270343238,True
61610,14522,0,14523,3865.0,42301.0,39997.0,-6.1e-05,-0.0070149999999999995,0.001769,0.07,-1.3825,-3.8850000000000002,1.052375,0.36221875000000003,0.20775000000000002,1.273625,1.029125,-0.1355,-0.23478125,1.25409375,0.020621853700979884,0.01826017100938347,True
61611,14523,0,14524,3867.0,42302.0,39999.0,0.005124,-0.0077469999999999995,-0.000915,0.21000000000000002,-1.9425000000000001,-3.9200000000000004,1.045625,0.36121875000000003,0.20903125,1.2804375000000001,1.0223125,-0.133375,-0.2338125,1.2598125,0.020494180776621587,0.018273796168060637,True
61612,14524,0,14525,3868.0,42300.0,39997.0,0.007991,-0.003355,-0.001037,0.42000000000000004,-2.1700000000000004,-4.112500000000001,1.0493125,0.362,0.2091875,1.28078125,1.0223125,-0.13228125,-0.2333125,1.25290625,0.020482160177045013,0.018259988187747753,True
61613,14525,0,14526,3865.0,42300.0,39996.0,0.0018909999999999999,0.006588,0.00042699999999999997,0.9100000000000001,-1.3125000000000002,-3.9725000000000006,1.0521875,0.3628125,0.20771875,1.2843437500000001,1.02678125,-0.13275,-0.2359375,1.264625,0.020534854088323957,0.018305718522338987,True
61614,14526,0,14527,3863.0,42298.0,39991.0,-0.001464,0.008539999999999999,0.0021349999999999997,0.7350000000000001,-0.805,-3.8500000000000005,1.0496875,0.3625,0.208375,1.2842500000000001,1.02625,-0.13240625,-0.2344375,1.2630000000000001,0.02050795286939113,0.018272035404164014,True
61615,14527,0,14528,3861.0,42298.0,39984.0,-0.0051849999999999995,0.0057339999999999995,0.0011589999999999999,0.6125,-0.47250000000000003,-3.7625,1.0489375,0.36890625,0.2085625,1.2807187500000001,1.01078125,-0.132625,-0.2328125,1.260375,0.02078229160731582,0.018213940292733252,True
61616,14528,0,14529,3859.0,42293.0,39981.0,-0.006344,0.0006709999999999999,0.002928,0.4025,-0.47250000000000003,-3.6575,1.04909375,0.35909375,0.20659375,1.28584375,1.0226250000000001,-0.134375,-0.23721875,1.2655,0.020446717596788816,0.01831119752549991,True
61617,14529,0,14530,3857.0,42291.0,39976.0,-0.006039,-0.003477,0.003721,0.2625,-0.8400000000000001,-3.6750000000000003,1.05565625,0.36075,0.20609375,1.288,1.029875,-0.135,-0.23700000000000002,1.2656875,0.020540708514605346,0.01828170771960226,True
61618,14530,0,14531,3856.0,42291.0,39970.0,0.002989,-0.004575,-0.00061,0.29750000000000004,-1.715,-3.7450000000000006,1.048875,0.36153125,0.20621875,1.28578125,1.03078125,-0.1358125,-0.23596875,1.26603125,0.02060604962024792,0.018245092843668567,True
61619,14531,0,14532,3853.0,42292.0,39970.0,0.0057339999999999995,-0.0015249999999999999,-0.003172,0.35000000000000003,-1.9075000000000002,-3.8325000000000005,1.0545,0.36090625,0.207375,1.2863437500000001,1.02821875,-0.13493750000000002,-0.23590625,1.2680625,0.020544646117272938,0.018290269215742654,True
61620,14532,0,14533,3852.0,42288.0,39970.0,0.005673,0.001098,-0.005124,0.47250000000000003,-2.0650000000000004,-3.8325000000000005,1.0533125,0.3665,0.2094375,1.28040625,1.02753125,-0.13334375,-0.2326875,1.25965625,0.020711748656876444,0.018244984176847903,True
61621,14533,0,14534,3849.0,42290.0,39967.0,0.0030499999999999998,0.002562,-0.004148,0.6125,-1.8025000000000002,-4.025,1.04309375,0.3618125,0.21315625,1.279375,1.01896875,-0.1315625,-0.23290625,1.25975,0.020445215679672626,0.018407305149377204,True
61622,14534,0,14535,3850.0,42289.0,39967.0,-0.003904,0.0023179999999999997,-0.000244,0.665,-1.61,-3.9025000000000003,1.0495,0.3620625,0.20953125,1.28065625,1.022125,-0.13178125000000002,-0.23446875,1.2556875,0.02046445493947945,0.018321012297824766,True
61623,14535,0,14536,3848.0,42289.0,39965.0,-0.002745,0.000183,0.003843,0.5075000000000001,-1.33,-4.0425,1.04975,0.362,0.206625,1.276125,1.02228125,-0.1275625,-0.23371875,1.2630625,0.020290590895785682,0.01817070481599115,True
61624,14536,0,14537,3849.0,42285.0,39962.0,-0.000732,-0.000305,0.00183,0.22750000000000004,-1.3650000000000002,-3.9725000000000006,1.0554375,0.3601875,0.20653125,1.2805625,1.02725,-0.13540625,-0.2358125,1.26559375,0.020533888879537714,0.01825165754191241,True
61625,14537,0,14538,3848.0,42287.0,39964.0,-0.000793,-0.000183,-0.000915,0.17500000000000002,-1.2425000000000002,-3.7275000000000005,1.0546875,0.36015625,0.20678125,1.27715625,1.0265312500000001,-0.133875,-0.2346875,1.265125,0.02047044869503965,0.018216399530631453,True
61626,14538,0,14539,3849.0,42288.0,39966.0,-0.001098,-0.000732,-0.001403,0.17500000000000002,-1.0325000000000002,-3.6925000000000003,1.05028125,0.36390625,0.20925,1.28075,1.02021875,-0.13209375,-0.2324375,1.2595625,0.020553541898949403,0.018227118093258263,True
61627,14539,0,14540,3848.0,42286.0,39963.0,-0.000183,-0.003477,-0.003172,0.12250000000000001,-1.1900000000000002,-3.6925000000000003,1.04884375,0.3620625,0.20940625000000002,1.2805625,1.02228125,-0.13275,-0.23340625,1.25978125,0.02050377598906051,0.018272812968667996,True
61628,14540,0,14541,3846.0,42287.0,39966.0,0.0018909999999999999,-0.003477,-0.001647,0.1925,-1.61,-3.6925000000000003,1.049625,0.36846875,0.2083125,1.28015625,1.0224375,-0.1324375,-0.23378125,1.24771875,0.02075655432651592,0.01824287119864961,True
61629,14541,0,14542,3849.0,42288.0,39967.0,0.003965,-0.000915,0.000305,0.15750000000000003,-1.9075000000000002,-3.8150000000000004,1.04925,0.36196875,0.20859375,1.2867187500000001,1.0219375,-0.1323125,-0.2336875,1.25565625,0.020482133653788877,0.01825067893608845,True
61630,14542,0,14543,3848.0,42287.0,39969.0,0.0064659999999999995,0.001281,0.001281,0.36750000000000005,-1.9600000000000002,-3.8850000000000002,1.0550625,0.36278125,0.20940625000000002,1.2743125,1.0306250000000001,-0.13553125,-0.23346875,1.25696875,0.02064642766046428,0.01827534491941027,True
61631,14543,0,14544,3848.0,42288.0,39970.0,0.0030499999999999998,0.002745,-0.000915,0.47250000000000003,-1.6800000000000002,-3.7625,1.04865625,0.3624375,0.20890625000000002,1.2806875,1.0220625,-0.1318125,-0.2343125,1.25853125,0.020481263063021067,0.018288893072580456,True
61632,14544,0,14545,3851.0,42288.0,39968.0,-0.002196,0.001769,0.001464,0.385,-0.9275000000000001,-3.6925000000000003,1.04928125,0.3615625,0.20890625000000002,1.2736875,1.0194375,-0.13315625,-0.2371875,1.262875,0.020499546137898974,0.018405343029177786,True
61633,14545,0,14546,3851.0,42286.0,39972.0,-0.004758,0.000305,0.002379,0.4025,-0.56,-3.6400000000000006,1.05103125,0.3615625,0.20865625000000002,1.27528125,1.0236875,-0.14003125,-0.22893750000000002,1.26590625,0.02077850458457878,0.018060789912888255,True
61634,14546,0,14547,3851.0,42287.0,39970.0,-0.006588,-0.0013419999999999999,0.002806,0.3325,-0.36750000000000005,-3.5700000000000003,1.04890625,0.36153125,0.2089375,1.2803125,1.02309375,-0.13284375,-0.23403125,1.260375,0.020485567516260905,0.018278789254264082,True
61635,14547,0,14548,3853.0,42288.0,39970.0,-0.0051849999999999995,-0.001281,0.000305,0.12250000000000001,-0.5075000000000001,-3.5525,1.04859375,0.3620625,0.20875,1.28665625,1.023375,-0.13493750000000002,-0.2391875,1.27659375,0.020592553844400882,0.018479889228960336,True
61636,14548,0,14549,3855.0,42289.0,39971.0,-0.0021349999999999997,-0.0015249999999999999,-0.000366,0.15750000000000003,-0.7000000000000001,-3.5000000000000004,1.05346875,0.3646875,0.20875,1.28021875,1.02328125,-0.1304375,-0.2321875,1.2551875000000001,0.020518691383030252,0.018196355570457682,True
61637,14549,0,14550,3855.0,42290.0,39973.0,0.001281,0.000732,-0.002989,0.22750000000000004,-0.8400000000000001,-3.4475000000000002,1.050625,0.3606875,0.20659375,1.28065625,1.031375,-0.140375,-0.24146875,1.2746875,0.020756202005975465,0.018483306627202614,True
61638,14550,0,14551,3854.0,42289.0,39971.0,0.001952,-0.001281,-0.001586,0.24500000000000002,-0.9800000000000001,-3.4650000000000003,1.05125,0.36012500000000003,0.2056875,1.2869375,1.03721875,-0.137625,-0.23778125,1.27628125,0.02062133287761327,0.018296590163342608,True
61639,14551,0,14552,3855.0,42289.0,39974.0,0.002379,-0.0028669999999999998,0.002562,0.21000000000000002,-1.2425000000000002,-3.6750000000000003,1.05603125,0.36040625,0.2071875,1.28765625,1.0401875,-0.1414375,-0.2416875,1.27625,0.020787649865506144,0.018516656482763422,True
61640,14552,0,14553,3857.0,42292.0,39972.0,0.00366,-0.0015249999999999999,0.0046359999999999995,0.21000000000000002,-1.4000000000000001,-3.6750000000000003,1.0545625,0.35946875,0.20840625000000002,1.2866250000000001,1.0306250000000001,-0.13846875,-0.238625,1.27175,0.020628379751718925,0.01844292941534431,True
61641,14553,0,14554,3855.0,42294.0,39974.0,0.0021349999999999997,-0.000732,0.002806,0.28,-1.2950000000000002,-3.7975000000000003,1.05640625,0.36178125,0.20600000000000002,1.2860625,1.0356875,-0.135,-0.23884375,1.26959375,0.02058343691733996,0.018352515267977664,True
61642,14554,0,14555,3856.0,42291.0,39971.0,0.001769,0.002928,-0.0025009999999999998,0.47250000000000003,-0.9100000000000001,-3.6925000000000003,1.053625,0.36,0.20821875,1.2865,1.0303125,-0.134,-0.237125,1.26571875,0.020469047816358665,0.01837444622660485,True
61643,14555,0,14556,3856.0,42290.0,39971.0,-0.002928,0.0051849999999999995,-0.004148,0.4025,-0.5425000000000001,-3.6925000000000003,1.05040625,0.359875,0.20800000000000002,1.2865,1.0303125,-0.1361875,-0.23659375,1.2666875,0.020552645275895374,0.018343904039733305,True
61644,14556,0,14557,3855.0,42290.0,39970.0,-0.0050019999999999995,0.0017079999999999999,-0.003111,0.4025,-0.31500000000000006,-3.5525,1.0541562500000001,0.3665625,0.20928125,1.28109375,1.01765625,-0.13446875,-0.23334375000000002,1.25884375,0.020759986689162156,0.018265122822763574,True
61645,14557,0,14558,3855.0,42288.0,39969.0,-0.0068319999999999995,-0.0015249999999999999,-0.000183,0.28,-0.10500000000000001,-3.3950000000000005,1.03775,0.36221875000000003,0.2088125,1.2800625,1.0224375,-0.132875,-0.2335625,1.2594687500000001,0.020515324013404952,0.018254641677219352,True
61646,14558,0,14559,3855.0,42288.0,39969.0,-0.006527,-0.0028669999999999998,0.00244,0.14,-0.10500000000000001,-3.4825000000000004,1.04428125,0.36212500000000003,0.20890625000000002,1.27840625,1.02159375,-0.13346875,-0.23390625,1.252625,0.020535537395551563,0.01827243595943184,True
61647,14559,0,14560,3857.0,42288.0,39964.0,-0.000793,-0.00122,0.0011589999999999999,0.22750000000000004,-0.8925000000000001,-3.6925000000000003,1.0515,0.36062500000000003,0.2065625,1.28459375,1.0135625,-0.13296875,-0.23615625,1.2645625,0.02045308868184732,0.018266871422732308,True
61648,14560,0,14561,3856.0,42286.0,39967.0,0.002928,0.000732,0.000305,0.42000000000000004,-1.4000000000000001,-3.7275000000000005,1.05428125,0.35953125,0.21015625000000002,1.28065625,1.02896875,-0.1313125,-0.23653125,1.26446875,0.020340532658553075,0.018430339531363426,True
61649,14561,0,14562,3858.0,42288.0,39965.0,0.0042699999999999995,0.0011589999999999999,-0.00061,0.5775,-1.6625,-3.8850000000000002,1.0503125,0.3620625,0.2073125,1.2841875,1.02521875,-0.13318750000000001,-0.23753125,1.26653125,0.02052153284766051,0.01835350908521263,True
61650,14562,0,14563,3857.0,42288.0,39966.0,0.004941,0.001952,-0.001037,0.47250000000000003,-1.715,-3.9025000000000003,1.04928125,0.36775,0.20796875,1.2863125,1.028,-0.1310625,-0.234,1.26078125,0.020670971284418166,0.018237548485598745,True
61651,14563,0,14564,3856.0,42288.0,39965.0,0.003172,6.1e-05,-0.000122,0.3325,-1.7500000000000002,-3.8500000000000005,1.0526875,0.36225,0.21021875,1.28246875,1.027625,-0.135,-0.2333125,1.25978125,0.020602858918582972,0.018302543244964966,True
61652,14564,0,14565,3859.0,42284.0,39965.0,0.0011589999999999999,0.000305,0.001037,0.22750000000000004,-1.4525000000000001,-3.7275000000000005,1.05175,0.36162500000000003,0.20984375,1.28103125,1.0219375,-0.13596875,-0.23421875,1.2600625,0.020616274206934414,0.018323780295166313,True
61653,14565,0,14566,3857.0,42284.0,39964.0,-0.001952,-0.0008539999999999999,0.001098,0.2625,-1.12,-3.9025000000000003,1.0483437500000001,0.36021875000000003,0.2049375,1.278375,1.0220625,-0.13278125,-0.235125,1.2673125,0.02042864412903092,0.018158045398981852,True
61654,14566,0,14567,3859.0,42284.0,39966.0,-0.002745,0.000244,0.000305,0.22750000000000004,-0.8575,-3.8325000000000005,1.044875,0.36415625,0.2101875,1.29003125,1.01521875,-0.13318750000000001,-0.2335,1.259125,0.0206082909686091,0.018308849320155984,True
61655,14567,0,14568,3859.0,42283.0,39963.0,-0.005429,0.000488,-0.001403,0.28,-0.5950000000000001,-3.8150000000000004,1.0639687500000001,0.36396875,0.21034375,1.27728125,1.0275625,-0.135,-0.23346875,1.2519375,0.020674072923140666,0.018314031085624093,True
61656,14568,0,14569,3859.0,42283.0,39964.0,-0.005246,0.00183,-0.000366,0.24500000000000002,-0.77,-3.7275000000000005,1.0613125,0.36053125,0.211375,1.27728125,1.0225312500000001,-0.1360625,-0.23184375000000002,1.26115625,0.02057476234990691,0.018290756352372074,True
61657,14569,0,14570,3860.0,42284.0,39966.0,0.00122,-0.000183,0.001403,0.24500000000000002,-1.4875,-3.8150000000000004,1.03709375,0.35931250000000003,0.20575000000000002,1.27771875,1.0213125,-0.13293750000000001,-0.23834375,1.26615625,0.020397434004874048,0.018321951144042177,True
61658,14570,0,14571,3860.0,42283.0,39965.0,0.00366,-0.000732,0.000732,0.28,-1.7675,-3.9025000000000003,1.04521875,0.36303125,0.21121875,1.2919375,1.016125,-0.13253125,-0.23340625,1.25853125,0.02053504022707937,0.01834760641624617,True
61659,14571,0,14572,3859.0,42283.0,39965.0,0.0057339999999999995,-0.0018909999999999999,-0.000732,0.24500000000000002,-1.9600000000000002,-3.9200000000000004,1.05346875,0.3635625,0.21028125,1.27721875,1.02909375,-0.135125,-0.23290625,1.26015625,0.020662312708138036,0.018288664819144422,True
61660,14572,0,14573,3860.0,42283.0,39966.0,0.003721,-0.000549,-0.001098,0.31500000000000006,-1.8025000000000002,-3.8150000000000004,1.04859375,0.35853125,0.20184375000000002,1.29178125,1.02234375,-0.13125,-0.23390625,1.2606875,0.0202965552965553,0.017981005435308228,True
61661,14573,0,14574,3859.0,42283.0,39964.0,0.002074,-0.000366,-0.00061,0.31500000000000006,-1.5750000000000002,-3.7625,1.0606875,0.36259375,0.2169375,1.27725,1.0270625,-0.13478125,-0.23528125,1.2618125,0.02060822490363363,0.018659521436335716,True
61662,14574,0,14575,3860.0,42284.0,39965.0,-0.0013419999999999999,-0.000976,-0.000183,0.28,-1.1900000000000002,-3.9550000000000005,1.03703125,0.36284375,0.21071875,1.2745312500000001,1.02534375,-0.13275,-0.2330625,1.26025,0.020536149009126602,0.018313048546794282,True
61663,14575,0,14576,3860.0,42281.0,39964.0,-0.002013,-0.000915,0.001403,0.1925,-1.1900000000000002,-3.9025000000000003,1.0439687500000001,0.36278125,0.2104375,1.27884375,1.02265625,-0.13303125,-0.233,1.26015625,0.0205449740177169,0.01829891057648661,True
61664,14576,0,14577,3860.0,42283.0,39968.0,-0.00042699999999999997,-0.000305,0.001952,0.385,-1.12,-3.8500000000000005,1.0453125,0.36240625,0.2090625,1.28021875,1.02215625,-0.13259375,-0.23390625,1.2594375,0.02051167831887113,0.018278883537399176,True
61665,14577,0,14578,3861.0,42283.0,39969.0,-6.1e-05,0.001769,0.000366,0.31500000000000006,-1.0850000000000002,-3.7800000000000002,1.0541875,0.35896875,0.206625,1.2855,1.0228125000000001,-0.1325,-0.234375,1.26390625,0.020365430436133845,0.018197292069632495,True
61666,14578,0,14579,3861.0,42284.0,39968.0,-0.000183,0.002013,-0.000732,0.43750000000000006,-1.0675000000000001,-3.7100000000000004,1.0425625,0.36025,0.2055625,1.28553125,1.02859375,-0.134375,-0.236625,1.27215625,0.020494626440502397,0.018244598825125198,True
61667,14579,0,14580,3861.0,42283.0,39968.0,-0.0035989999999999998,0.001281,-0.000549,0.5075000000000001,-1.155,-3.7450000000000006,1.05675,0.35896875,0.205875,1.2865,1.03696875,-0.13090625,-0.239375,1.26028125,0.020300729484620993,0.01836887295980198,True
61668,14580,0,14581,3861.0,42284.0,39969.0,-0.003172,-0.001037,0.001586,0.4025,-1.1900000000000002,-3.8500000000000005,1.05253125,0.361875,0.21190625000000002,1.2716875,1.0204375,-0.12571875,-0.23240625,1.25296875,0.02021053776895248,0.018335467613745538,True
61669,14581,0,14582,3863.0,42281.0,39965.0,-0.002074,-0.003172,0.003294,0.15750000000000003,-1.3650000000000002,-3.8850000000000002,1.0498750000000001,0.36312500000000003,0.209875,1.2806875,1.00015625,-0.13009375,-0.226625,1.25625,0.020439984821857562,0.018017367256066414,True
61670,14582,0,14583,3863.0,42282.0,39969.0,0.00042699999999999997,-0.003843,0.00244,0.052500000000000005,-1.6975000000000002,-3.8150000000000004,1.0486875,0.36215625,0.20884375,1.28140625,1.01246875,-0.12375,-0.22990625,1.25271875,0.02014223534898181,0.01810778776744132,True
61671,14583,0,14584,3863.0,42283.0,39969.0,0.0051849999999999995,-0.002196,-0.0011589999999999999,0.07,-1.9600000000000002,-3.6925000000000003,1.0493125,0.36096875,0.20503125,1.2870625,1.02440625,-0.137125,-0.2444375,1.2799375,0.02063600159505326,0.018539046327637008,True
61672,14584,0,14585,3863.0,42287.0,39972.0,0.0062829999999999995,0.0034159999999999998,-0.00366,0.4025,-1.7675,-3.7450000000000006,1.05646875,0.36525,0.20750000000000002,1.28659375,1.04440625,-0.1410625,-0.24171875,1.27465625,0.020973082688469077,0.018530812713104347,True
61673,14585,0,14586,3865.0,42283.0,39973.0,0.001769,0.003111,-0.0013419999999999999,0.45500000000000007,-1.3650000000000002,-3.6400000000000006,1.05665625,0.3601875,0.2075625,1.28609375,1.0326250000000001,-0.137125,-0.23346875,1.2550000000000001,0.020603634442793,0.018199262125856413,True
61674,14586,0,14587,3864.0,42288.0,39972.0,-0.003721,0.0011589999999999999,0.002074,0.3325,-0.9100000000000001,-3.7625,1.049375,0.362375,0.20871875,1.2803125,1.0119375,-0.12921875,-0.23159375000000001,1.2456562500000001,0.02037338030266728,0.01817100866508213,True
61675,14587,0,14588,3864.0,42284.0,39973.0,-0.007442,-0.000122,0.003172,0.24500000000000002,-0.56,-3.8325000000000005,1.054375,0.36025,0.2073125,1.2867187500000001,1.04340625,-0.1435625,-0.240875,1.268,0.020867363712376744,0.0184889159322838,True
61676,14588,0,14589,3865.0,42286.0,39970.0,-0.00732,0.0006709999999999999,0.002806,0.42000000000000004,-0.385,-3.8150000000000004,1.0526875,0.36240625,0.21009375,1.28059375,1.0185625,-0.128375,-0.22728125000000002,1.24825,0.020340418697902367,0.018052995525447164,True
61677,14589,0,14590,3867.0,42288.0,39971.0,-0.002074,0.0,-0.004331,0.1925,-0.8225000000000001,-4.0425,1.04940625,0.36165625,0.2070625,1.2862500000000001,1.0131875000000001,-0.13159375,-0.23540625,1.27546875,0.020440009272077193,0.01825712123146275,True
61678,14590,0,14591,3866.0,42286.0,39970.0,0.002196,-0.000244,-0.002806,0.28,-1.2425000000000002,-3.99,1.0542500000000001,0.35953125,0.205875,1.2847187500000001,1.0361875,-0.134375,-0.23434375000000002,1.26321875,0.020464845267383142,0.018165078227051226,True
61679,14591,0,14592,3867.0,42287.0,39972.0,0.0046359999999999995,-0.001403,-0.000976,0.3325,-1.6275000000000002,-4.0075,1.048875,0.36321875000000003,0.20946875,1.2794375,1.02125,-0.1335625,-0.230875,1.2568125,0.020584662956411846,0.018172837340789387,True
61680,14592,0,14593,3868.0,42286.0,39973.0,0.006344,-0.003355,-0.0006709999999999999,0.28,-1.8200000000000003,-4.0425,1.0493125,0.36259375,0.206375,1.28578125,1.02275,-0.13221875,-0.2338125,1.26075,0.020504227362019914,0.01816418691858741,True
61681,14593,0,14594,3867.0,42284.0,39972.0,0.00488,-0.003355,0.000915,0.3325,-1.7675,-4.077500000000001,1.0541875,0.35940625,0.20775000000000002,1.28628125,1.0235625,-0.13368750000000001,-0.2345625,1.26484375,0.02043176161952043,0.01825130946762501,True
61682,14594,0,14595,3868.0,42286.0,39970.0,0.000183,0.001769,0.001098,0.5425000000000001,-1.155,-3.8850000000000002,1.05315625,0.36125,0.2095,1.2843437500000001,1.0314375,-0.13596875,-0.236125,1.25684375,0.020600737229575675,0.018386808947387423,True
61683,14595,0,14596,3867.0,42285.0,39968.0,-0.0015249999999999999,0.002745,0.000732,0.49000000000000005,-1.0675000000000001,-3.8150000000000004,1.04940625,0.3625625,0.20909375,1.28125,1.03165625,-0.13259375,-0.23253125,1.260875,0.02051815296480512,0.018224468399272154,True
61684,14596,0,14597,3865.0,42283.0,39965.0,-0.0032329999999999998,0.002196,-0.000366,0.45500000000000007,-0.7875000000000001,-3.8850000000000002,1.04925,0.36665625,0.20871875,1.2842500000000001,1.0223125,-0.13265625,-0.2341875,1.2594687500000001,0.020690324961637824,0.018276092400456998,True
61685,14597,0,14598,3865.0,42280.0,39961.0,-0.003111,0.000488,0.000122,0.35000000000000003,-0.7350000000000001,-3.9550000000000005,1.05365625,0.36078125,0.207125,1.2805625,1.023875,-0.134125,-0.238125,1.26684375,0.020506492362992235,0.01836982027281401,True
61686,14598,0,14599,3861.0,42277.0,39957.0,-0.003538,-0.00042699999999999997,0.00061,0.31500000000000006,-0.8750000000000001,-3.8850000000000002,1.042125,0.36162500000000003,0.2095,1.287,1.02678125,-0.13115625,-0.22918750000000002,1.260375,0.020420954756363987,0.018105745394887882,True
61687,14599,0,14600,3860.0,42277.0,39954.0,-0.001037,0.000915,0.00061,0.35000000000000003,-1.1725,-3.8850000000000002,1.05365625,0.35981250000000004,0.20596875,1.28265625,1.0224375,-0.13478125,-0.23759375,1.26565625,0.020492986651784964,0.01830059966245618,True
61688,14600,0,14601,3858.0,42275.0,39950.0,0.001098,0.001586,0.0015249999999999999,0.5425000000000001,-1.5050000000000001,-3.99,1.0638750000000001,0.35903125,0.209625,1.2813125,1.03046875,-0.13509375,-0.235875,1.26653125,0.020473299383807035,0.018381840969224343,True
61689,14601,0,14602,3856.0,42273.0,39949.0,0.00061,0.003965,0.001098,0.5425000000000001,-1.4525000000000001,-4.1475,1.046125,0.36312500000000003,0.2109375,1.276875,1.0305,-0.13121875,-0.2298125,1.2680625,0.020485652014571375,0.018190400771776503,True
61690,14602,0,14603,3856.0,42273.0,39948.0,0.000549,0.002257,-0.000549,0.525,-1.4000000000000001,-4.2525,1.04409375,0.3646875,0.21165625000000002,1.28115625,1.0306875,-0.1340625,-0.22828125,1.26628125,0.02066581206541584,0.018158015232714868,True
61691,14603,0,14604,3855.0,42271.0,39945.0,-0.000976,-0.000732,0.000305,0.385,-1.54,-4.025,1.057625,0.359125,0.21246875,1.2770625,1.02915625,-0.1363125,-0.23534375000000002,1.26678125,0.020526644241948725,0.018477662401631918,True
61692,14604,0,14605,3854.0,42272.0,39945.0,0.0018909999999999999,-0.00244,-0.000244,0.15750000000000003,-1.6800000000000002,-4.112500000000001,1.04884375,0.3638125,0.209375,1.28865625,1.02403125,-0.13521875,-0.23753125,1.26546875,0.02067647511999451,0.01843860438550234,True
61693,14605,0,14606,3854.0,42270.0,39943.0,0.002806,-0.003477,-0.002745,0.12250000000000001,-1.8200000000000003,-4.130000000000001,1.05871875,0.3584375,0.2020625,1.292375,1.028125,-0.1338125,-0.2340625,1.256625,0.02039669447170852,0.017996363589472462,True
61694,14606,0,14607,3854.0,42271.0,39945.0,0.004209,-0.002745,-0.0032329999999999998,0.12250000000000001,-1.8200000000000003,-4.0600000000000005,1.05665625,0.35831250000000003,0.20509375,1.293125,1.0205312500000001,-0.13278125,-0.23325,1.2595625,0.020349654062355536,0.018088525063703797,True
61695,14607,0,14608,3854.0,42272.0,39946.0,0.0023179999999999997,-0.002379,-0.004331,0.14,-1.7325000000000002,-3.9550000000000005,1.0553125,0.358625,0.2069375,1.28,1.0223125,-0.1318125,-0.23303125,1.2600625,0.02032327658769933,0.018155745579703324,True
61696,14608,0,14609,3853.0,42273.0,39946.0,-0.001952,-0.002013,0.0008539999999999999,0.2625,-1.3650000000000002,-3.8675,1.0491875,0.35909375,0.2054375,1.28590625,1.01684375,-0.1325,-0.23315625,1.25965625,0.02037061017300321,0.018098911486199822,True
61697,14609,0,14610,3853.0,42271.0,39948.0,-0.002745,-0.001037,0.003111,0.3325,-1.2775,-3.9025000000000003,1.05440625,0.3620625,0.2020625,1.2833125,1.021875,-0.13171875,-0.2338125,1.26003125,0.020461917989161048,0.01798623307826616,True
61698,14610,0,14611,3853.0,42273.0,39947.0,-0.0013419999999999999,0.0021349999999999997,0.000976,0.385,-1.3825,-3.9200000000000004,1.06390625,0.3618125,0.20565625,1.29265625,1.02171875,-0.13265625,-0.23403125,1.2596875,0.020489611457503772,0.018143390815343607,True
61699,14611,0,14612,3854.0,42274.0,39950.0,-0.002196,0.0037819999999999998,0.001281,0.43750000000000006,-1.2075,-3.99,1.05853125,0.36025,0.21206250000000001,1.27621875,1.02225,-0.13459375,-0.23571875,1.2600625,0.020503504435412344,0.0184760870770544,True
61700,14612,0,14613,3857.0,42278.0,39951.0,-0.0021349999999999997,0.002745,-0.000366,0.4025,-1.2425000000000002,-3.9200000000000004,1.0506875,0.35865625,0.20721875,1.2853125,1.0225,-0.132125,-0.2344375,1.2671875000000001,0.020337257908286156,0.018224324373115736,True
61701,14613,0,14614,3856.0,42278.0,39954.0,0.000366,0.001464,0.001952,0.3325,-1.54,-3.9025000000000003,1.05403125,0.36309375,0.208875,1.28103125,1.02921875,-0.134875,-0.23553125,1.25959375,0.020632746181614776,0.01833697167253142,True
61702,14614,0,14615,3857.0,42277.0,39952.0,0.002013,0.000488,0.002074,0.4025,-1.8550000000000002,-3.9725000000000006,1.04921875,0.3608125,0.212875,1.280375,1.0224375,-0.13196875,-0.23450000000000001,1.266375,0.02042026720260857,0.018460252945181457,True
61703,14615,0,14616,3857.0,42279.0,39956.0,0.004697,-6.1e-05,0.00042699999999999997,0.31500000000000006,-2.0825,-3.9025000000000003,1.049,0.362,0.209,1.28021875,1.0303437500000001,-0.13215625,-0.23353125,1.2594687500000001,0.02047708646010445,0.01826111289496862,True
61704,14616,0,14617,3856.0,42278.0,39955.0,0.0025009999999999998,0.000915,-0.000488,0.43750000000000006,-1.9250000000000003,-3.9200000000000004,1.054875,0.35921875000000003,0.206125,1.286,1.02259375,-0.13296875,-0.23621875,1.26596875,0.020394817773921825,0.01825135160574502,True
61705,14617,0,14618,3858.0,42280.0,39957.0,-0.000549,0.00061,-0.000732,0.42000000000000004,-1.6450000000000002,-3.8150000000000004,1.05028125,0.3624375,0.209875,1.2805,1.02809375,-0.13471875,-0.23221875,1.25896875,0.020599214565116902,0.01824404750390428,True
61706,14618,0,14619,3859.0,42279.0,39959.0,-0.002013,-0.001647,-0.002196,0.2625,-1.4175000000000002,-3.6575,1.04965625,0.36659375,0.2083125,1.27371875,1.0219375,-0.13209375,-0.23315625,1.25984375,0.020664908116395826,0.018217550592486278,True
61707,14619,0,14620,3858.0,42281.0,39958.0,-0.002379,-0.001586,-0.002257,0.15750000000000003,-1.4875,-3.7275000000000005,1.04896875,0.36184375,0.20750000000000002,1.28575,1.0225312500000001,-0.13228125,-0.23459375000000002,1.2598125,0.020475685447267862,0.018242259579861954,True
61708,14620,0,14621,3860.0,42282.0,39960.0,-0.0015249999999999999,-0.002623,-0.0008539999999999999,0.1925,-1.6625,-3.7625,1.0574375,0.36003125,0.20690625,1.2865,1.02125,-0.13421875,-0.23534375000000002,1.267375,0.020479221023054665,0.018248142240606762,True
61709,14621,0,14622,3860.0,42279.0,39958.0,0.000976,-0.0023179999999999997,0.00061,0.31500000000000006,-1.8900000000000001,-3.7975000000000003,1.05521875,0.359875,0.20940625000000002,1.2804375000000001,1.02803125,-0.1345,-0.23615625,1.26034375,0.020484161677266983,0.018384206447753036,True
61710,14622,0,14623,3860.0,42279.0,39960.0,0.0015249999999999999,-0.000488,0.002379,0.3325,-1.9775000000000003,-3.7450000000000006,1.04984375,0.3624375,0.208125,1.28125,1.0264375000000001,-0.13228125,-0.23353125,1.26028125,0.02050028942042104,0.01822500589962513,True
61711,14623,0,14624,3860.0,42280.0,39961.0,0.001586,0.0021349999999999997,-0.001586,0.43750000000000006,-1.8200000000000003,-3.8150000000000004,1.04909375,0.36175,0.2086875,1.28534375,1.0190625,-0.132125,-0.2335,1.260125,0.020465458387937244,0.018246951534033468,True
61712,14624,0,14625,3859.0,42281.0,39959.0,-0.000915,0.002928,-0.000549,0.42000000000000004,-1.5750000000000002,-3.7450000000000006,1.0579375,0.3600625,0.20475000000000002,1.2881875,1.0233125,-0.13528125,-0.2371875,1.2651875000000001,0.02052363694746669,0.018233860673809613,True
61713,14625,0,14626,3860.0,42282.0,39960.0,-0.000976,0.001037,-0.00042699999999999997,0.31500000000000006,-1.33,-3.7800000000000002,1.0571875,0.35896875,0.2066875,1.2815625,1.02896875,-0.13603125,-0.23334375000000002,1.26190625,0.020508757006187588,0.018158090544149526,True
61714,14626,0,14627,3860.0,42280.0,39962.0,-0.002745,-0.001769,0.000976,0.2625,-1.4700000000000002,-3.6750000000000003,1.04890625,0.36275,0.20884375,1.2761875,1.02946875,-0.1318125,-0.22921875,1.25065625,0.02049421277411301,0.018079926741344066,True
61715,14627,0,14628,3860.0,42281.0,39960.0,-0.000244,-0.002379,0.00122,0.2625,-1.6975000000000002,-3.6925000000000003,1.0559375,0.36071875000000003,0.21284375,1.281,1.02196875,-0.13515625,-0.23534375000000002,1.26621875,0.020545754701712365,0.018493135670914512,True
61716,14628,0,14629,3860.0,42284.0,39959.0,0.003111,0.000488,0.000793,0.35000000000000003,-1.8725000000000003,-3.7625,1.04934375,0.36209375,0.20890625000000002,1.28603125,1.02234375,-0.1324375,-0.23346875,1.26034375,0.020492387062019737,0.018254712297429563,True
61717,14629,0,14630,3858.0,42281.0,39960.0,0.001769,0.002196,-0.000488,0.36750000000000005,-1.8550000000000002,-3.6575,1.0536875,0.36090625,0.20765625000000001,1.2803125,1.02615625,-0.13368750000000001,-0.235125,1.26425,0.020493915403520493,0.018270227613845606,True
61718,14630,0,14631,3858.0,42280.0,39959.0,-0.000305,0.0017079999999999999,-0.002196,0.31500000000000006,-1.5750000000000002,-3.6750000000000003,1.0491875,0.362,0.20778125,1.28553125,1.02171875,-0.1319375,-0.233625,1.2612812500000001,0.02046820732898053,0.018214619150044617,True
61719,14631,0,14632,3860.0,42281.0,39958.0,-0.002013,0.0013419999999999999,-0.001098,0.385,-1.3125000000000002,-3.6575,1.0520625000000001,0.3625,0.2096875,1.281125,1.0289375,-0.1325625,-0.23665625,1.25978125,0.020514294741803735,0.018416061415237512,True
61720,14632,0,14633,3859.0,42280.0,39957.0,-0.003721,0.001098,0.000305,0.43750000000000006,-1.4000000000000001,-3.5875000000000004,1.05228125,0.3616875,0.2095,1.28159375,1.02309375,-0.13443750000000002,-0.236875,1.25896875,0.020556725218891056,0.018417184558652877,True
61721,14633,0,14634,3860.0,42280.0,39959.0,-0.001098,-0.002196,0.0021349999999999997,0.17500000000000002,-1.8025000000000002,-3.5525,1.04840625,0.3609375,0.20971875,1.27996875,1.02234375,-0.1330625,-0.23646875,1.25334375,0.020469842979936755,0.018409756990691972,True
61722,14634,0,14635,3861.0,42282.0,39959.0,0.0006709999999999999,-0.001464,0.000549,0.24500000000000002,-1.9600000000000002,-3.5700000000000003,1.05159375,0.3616875,0.2093125,1.28040625,1.0233125,-0.13790625,-0.23590625,1.2592812500000001,0.02069747660901616,0.018370212584891476,True
61723,14635,0,14636,3861.0,42282.0,39961.0,0.0028669999999999998,0.000488,-0.0021349999999999997,0.3325,-2.1700000000000004,-3.535,1.049125,0.36271875000000003,0.20884375,1.28078125,1.01534375,-0.1303125,-0.23984375,1.27121875,0.020432029216364275,0.018510329712830762,True
61724,14636,0,14637,3861.0,42280.0,39961.0,0.003172,0.0013419999999999999,-0.0025009999999999998,0.31500000000000006,-2.0650000000000004,-3.5525,1.04909375,0.3668125,0.20696875,1.2804375000000001,1.0193125,-0.13165625,-0.22796875,1.27059375,0.020656217908789416,0.01795187638253826,True
61725,14637,0,14638,3860.0,42282.0,39962.0,0.000915,0.0,-0.002013,0.3325,-1.9775000000000003,-3.3775000000000004,1.03803125,0.36303125,0.20265625,1.2765,1.01853125,-0.1313125,-0.23640625,1.265625,0.02048557242793984,0.01811582523708522,True
61726,14638,0,14639,3859.0,42284.0,39964.0,-0.000244,-0.000915,0.00042699999999999997,0.21000000000000002,-1.7500000000000002,-3.5000000000000004,1.0451875,0.35725,0.1965,1.28553125,1.022,-0.13078125000000002,-0.23196875,1.26640625,0.02022442808394362,0.017681961974303058,True
61727,14639,0,14640,3859.0,42280.0,39961.0,-0.000244,-0.00122,0.000732,0.22750000000000004,-1.6975000000000002,-3.6050000000000004,1.0365625,0.35075,0.20703125,1.2845312500000001,1.03175,-0.13125,-0.2345625,1.2710000000000001,0.019974099974099973,0.01822165141211029,True
61728,14640,0,14641,3862.0,42282.0,39961.0,-0.00061,-0.001037,6.1e-05,0.21000000000000002,-1.6975000000000002,-3.5700000000000003,1.0363125,0.36571875,0.20834375,1.294,1.03753125,-0.13190625,-0.23168750000000002,1.25790625,0.020621039831861605,0.01815933166024859,True
61729,14641,0,14642,3860.0,42281.0,39964.0,-0.000793,0.00042699999999999997,0.000549,0.35000000000000003,-1.4875,-3.43,1.0574375,0.368125,0.21331250000000002,1.29159375,1.035625,-0.1394375,-0.23253125,1.2475625000000001,0.021026277020746647,0.018398562882282466,True
61730,14642,0,14643,3861.0,42285.0,39965.0,-0.0021349999999999997,0.000732,0.0017079999999999999,0.22750000000000004,-1.4875,-3.4475000000000002,1.07059375,0.36359375,0.21203125,1.30121875,1.01996875,-0.13884375000000002,-0.23475000000000001,1.25659375,0.020814480809587244,0.018435562570276155,True
61731,14643,0,14644,3864.0,42283.0,39966.0,0.000244,6.1e-05,-0.000732,0.21000000000000002,-1.8550000000000002,-3.325,1.06084375,0.370125,0.211375,1.2894375,1.034375,-0.1355625,-0.2326875,1.25703125,0.02095196662601089,0.018324938164617523,True
61732,14644,0,14645,3862.0,42283.0,39966.0,0.00244,0.001647,-0.00042699999999999997,0.47250000000000003,-1.9600000000000002,-3.4650000000000003,1.07215625,0.36653125000000003,0.213,1.28584375,1.021875,-0.13534375,-0.234375,1.25553125,0.020794193163293978,0.018460348162475822,True
61733,14645,0,14646,3864.0,42282.0,39967.0,0.000244,0.0025009999999999998,-0.000183,0.47250000000000003,-1.9600000000000002,-3.6050000000000004,1.0721875,0.35953125,0.21509375,1.269875,1.01946875,-0.13353125,-0.2345625,1.26390625,0.020430599023920297,0.018554337426144995,True
61734,14646,0,14647,3863.0,42283.0,39968.0,-0.0015249999999999999,0.0017079999999999999,0.0011589999999999999,0.42000000000000004,-1.8550000000000002,-3.535,1.053,0.35440625000000003,0.20846875,1.27065625,1.0208125000000001,-0.1319375,-0.23446875,1.267375,0.020153530979433378,0.01827716978528774,True
61735,14647,0,14648,3864.0,42285.0,39969.0,-0.0018909999999999999,-0.00183,0.000732,0.2625,-1.4875,-3.535,1.036375,0.35584375,0.20678125,1.27040625,1.02425,-0.1320625,-0.23171875,1.2656875,0.020218174472239992,0.018096116273221437,True
61736,14648,0,14649,3864.0,42284.0,39968.0,-0.000183,-0.0023179999999999997,0.0015249999999999999,0.035,-1.6975000000000002,-3.5175000000000005,1.03959375,0.35875,0.20925,1.277375,1.01434375,-0.1321875,-0.23484375000000002,1.26653125,0.020343679991712313,0.018324597203148878,True
61737,14649,0,14650,3865.0,42281.0,39969.0,0.002379,-0.001403,-0.0018909999999999999,0.08750000000000001,-2.0475000000000003,-3.325,1.0329375,0.3641875,0.20796875,1.278125,1.0276875,-0.1323125,-0.233875,1.25821875,0.020574074697565763,0.018232484487107403,True
61738,14650,0,14651,3866.0,42282.0,39973.0,0.006588,0.000549,-0.0040869999999999995,0.17500000000000002,-2.31,-3.3600000000000003,1.0530625,0.36253125,0.20853125,1.28628125,1.02878125,-0.134,-0.23334375000000002,1.25965625,0.02057393096875777,0.018234173730152285,True
61739,14651,0,14652,3867.0,42285.0,39974.0,0.0057339999999999995,0.0026839999999999998,-0.004209,0.35000000000000003,-2.1700000000000004,-3.4825000000000004,1.05546875,0.36412500000000003,0.2079375,1.28565625,1.0306250000000001,-0.131375,-0.23375,1.2610937500000001,0.020533434170245172,0.018226130912467116,True
61740,14652,0,14653,3865.0,42286.0,39975.0,0.002928,0.0025009999999999998,-0.001952,0.49000000000000005,-1.715,-3.4650000000000003,1.05390625,0.366,0.20684375,1.28684375,1.02928125,-0.13215625,-0.23390625,1.2655625,0.02064284040096914,0.018187327930262995,True
61741,14653,0,14654,3868.0,42288.0,39976.0,-0.007503,-0.000183,0.003477,0.36750000000000005,-0.8575,-3.5700000000000003,1.0493125,0.36162500000000003,0.2064375,1.2850625,1.02275,-0.13234375,-0.2340625,1.26559375,0.020469157704584746,0.018176894608570065,True
61742,14654,0,14655,3866.0,42287.0,39975.0,-0.0077469999999999995,-0.000183,0.0018909999999999999,0.22750000000000004,-0.8575,-3.7100000000000004,1.049,0.36246875,0.2083125,1.28571875,1.02284375,-0.1320625,-0.2331875,1.262625,0.020492705503311205,0.018218816653814113,True
61743,14655,0,14656,3867.0,42286.0,39976.0,-0.0051849999999999995,-0.000732,-0.00042699999999999997,0.22750000000000004,-1.0150000000000001,-3.6925000000000003,1.0485,0.35946875,0.21015625000000002,1.28075,1.03025,-0.13375,-0.22984375,1.2594687500000001,0.02043688817527322,0.01815942374783164,True
61744,14656,0,14657,3867.0,42287.0,39975.0,-0.002806,0.000549,-0.003477,0.4025,-1.3650000000000002,-3.7100000000000004,1.05071875,0.35896875,0.20990625000000002,1.281625,1.00825,-0.13546875,-0.23578125,1.257875,0.02048592903338577,0.01838964856971549,True
61745,14657,0,14658,3869.0,42288.0,39977.0,0.002379,-0.001586,-0.0013419999999999999,0.5425000000000001,-1.6800000000000002,-3.7625,1.04990625,0.3595625,0.20978125,1.2806875,1.0231875,-0.1365625,-0.23534375000000002,1.26253125,0.02055491539029222,0.018366770638439986,True
61746,14658,0,14659,3870.0,42289.0,39977.0,0.006039,-0.00183,0.001769,0.43750000000000006,-2.45,-3.8850000000000002,1.04909375,0.36262500000000003,0.2060625,1.2861875,1.02225,-0.13253125,-0.23396875,1.261125,0.02051820610405301,0.018157622242539206,True
61747,14659,0,14660,3870.0,42290.0,39977.0,0.005307,-0.001464,0.001769,0.47250000000000003,-2.3275,-3.8325000000000005,1.0419375,0.35831250000000003,0.20703125,1.28065625,1.0230000000000001,-0.132375,-0.2366875,1.2635625,0.020333162401131262,0.018307730790356563,True
61748,14660,0,14661,3869.0,42288.0,39973.0,0.004026,0.001037,0.0,0.49000000000000005,-1.9775000000000003,-3.7975000000000003,1.04903125,0.36059375,0.21456250000000002,1.2805,1.0216875,-0.13246875,-0.23303125,1.2596875,0.02043149853866484,0.018470398745513938,True
61749,14661,0,14662,3868.0,42289.0,39971.0,0.000915,0.0030499999999999998,0.000793,0.5075000000000001,-1.6800000000000002,-3.8150000000000004,1.0385625,0.35925,0.209375,1.27459375,1.02225,-0.13390625,-0.23653125,1.25934375,0.02043416614332792,0.018398105133134512,True
61750,14662,0,14663,3867.0,42285.0,39967.0,-0.002623,0.002379,0.000549,0.47250000000000003,-1.225,-3.5875000000000004,1.0488125,0.35903125,0.20634375,1.28140625,1.02303125,-0.13359375,-0.236875,1.26,0.020412417856333562,0.01828695943680858,True
61751,14663,0,14664,3864.0,42284.0,39963.0,-0.004392,-0.0011589999999999999,-0.000488,0.31500000000000006,-1.3650000000000002,-3.5875000000000004,1.04296875,0.36078125,0.2054375,1.28571875,1.01534375,-0.13253125,-0.23675000000000002,1.2651875000000001,0.02044180508416414,0.01824450472938822,True
61752,14664,0,14665,3862.0,42285.0,39963.0,-0.0035989999999999998,-0.000488,-0.000549,0.35000000000000003,-1.54,-3.6400000000000006,1.04971875,0.35890625,0.206375,1.2814375,1.02215625,-0.13284375,-0.23525000000000001,1.26015625,0.020376794591395804,0.018222423948587287,True
61753,14665,0,14666,3859.0,42284.0,39961.0,-0.001281,-0.000732,-0.000366,0.5950000000000001,-1.6975000000000002,-3.7100000000000004,1.0493125,0.359,0.2061875,1.281,1.022125,-0.1323125,-0.236125,1.26421875,0.020359113947326844,0.018250132807946812,True
61754,14666,0,14667,3857.0,42281.0,39959.0,0.0006709999999999999,0.000793,0.000732,0.56,-1.7500000000000002,-3.9025000000000003,1.05003125,0.35953125,0.20725000000000002,1.2827187500000001,1.02234375,-0.1325,-0.23565625,1.26546875,0.020388739252045998,0.018274984817050293,True
61755,14667,0,14668,3856.0,42282.0,39955.0,0.001586,0.001647,0.000549,0.6300000000000001,-1.8900000000000001,-3.8150000000000004,1.04925,0.36309375,0.2070625,1.28565625,1.0233125,-0.1316875,-0.23334375000000002,1.265375,0.020503383777035897,0.01817356509045517,True
61756,14668,0,14669,3856.0,42279.0,39957.0,6.1e-05,0.001952,0.000488,0.525,-1.9075000000000002,-3.9025000000000003,1.0493125,0.361875,0.205875,1.28559375,1.02625,-0.131875,-0.23403125,1.26640625,0.020460490533785708,0.018152417377938306,True
61757,14669,0,14670,3855.0,42278.0,39954.0,-0.001403,0.000183,0.0011589999999999999,0.5950000000000001,-1.8375000000000001,-3.8150000000000004,1.04934375,0.3623125,0.20553125,1.28503125,1.02315625,-0.13184375,-0.2320625,1.26921875,0.02047735163211472,0.018058460768661355,True
61758,14670,0,14671,3854.0,42277.0,39953.0,-0.0021349999999999997,-0.002379,0.0015249999999999999,0.36750000000000005,-1.8900000000000001,-3.6750000000000003,1.04915625,0.36253125,0.2063125,1.28596875,1.0205625,-0.13209375,-0.23378125,1.2760625,0.020496563834209374,0.01816034177497579,True
61759,14671,0,14672,3854.0,42278.0,39952.0,-6.1e-05,-0.000732,0.000732,0.28,-2.1,-3.7625,1.0493125,0.36228125,0.2063125,1.279875,1.0215625,-0.13371875,-0.23921875,1.25840625,0.020552157963637494,0.01838059446532286,True
61760,14672,0,14673,3852.0,42276.0,39952.0,0.005246,-0.0013419999999999999,-0.002928,0.1925,-2.45,-3.6400000000000006,1.04975,0.35865625,0.205875,1.28025,1.0179375,-0.13821875,-0.23734375,1.25403125,0.020584576067776337,0.01828660576718519,True
61761,14673,0,14674,3853.0,42278.0,39956.0,0.005246,-0.0015249999999999999,-0.002745,0.17500000000000002,-2.4675000000000002,-3.5875000000000004,1.04915625,0.36225,0.20859375,1.28784375,1.014875,-0.13271875,-0.23071875,1.2738125,0.020510277152258283,0.018130394914513213,True
61762,14674,0,14675,3852.0,42279.0,39954.0,0.0035989999999999998,-0.001647,-0.0021349999999999997,0.1925,-2.2750000000000004,-3.4475000000000002,1.0564375,0.3629375,0.20884375,1.28396875,1.0319375,-0.12871875,-0.23171875,1.2643125,0.02037639275811112,0.01818123198545295,True
61763,14675,0,14676,3852.0,42281.0,39957.0,0.000732,-0.0008539999999999999,-0.00061,0.17500000000000002,-1.9425000000000001,-3.5700000000000003,1.05528125,0.36325,0.20915625000000002,1.28075,1.0271875,-0.1295625,-0.23068750000000002,1.2485,0.02042359864585195,0.018152342974172734,True
61764,14676,0,14677,3853.0,42278.0,39958.0,-0.002379,0.001037,0.000183,0.36750000000000005,-1.61,-3.5000000000000004,1.049625,0.36378125,0.2061875,1.28021875,1.0215,-0.1360625,-0.23715625,1.25471875,0.020709415630656407,0.018291904604113778,True
61765,14677,0,14678,3852.0,42279.0,39959.0,-0.0050019999999999995,0.001769,0.001952,0.525,-1.3650000000000002,-3.3950000000000005,1.0489375,0.365,0.20665625,1.287625,1.01571875,-0.13334375,-0.23590625,1.275375,0.020649593987571654,0.018260612804606804,True
61766,14678,0,14679,3853.0,42281.0,39959.0,-0.004209,0.002379,0.0008539999999999999,0.4025,-1.3475000000000001,-3.4650000000000003,1.05509375,0.36209375,0.209375,1.2731875,1.03265625,-0.12984375,-0.23121875,1.24571875,0.020387098445260345,0.018182896805386647,True
61767,14679,0,14680,3853.0,42280.0,39962.0,-0.001952,0.0021349999999999997,0.0006709999999999999,0.35000000000000003,-1.3825,-3.535,1.0501875,0.35959375,0.2063125,1.28725,1.0231875,-0.14203125,-0.24003125,1.265875,0.020778077652434487,0.018413497301081244,True
61768,14680,0,14681,3853.0,42280.0,39961.0,-0.001098,0.001586,0.000183,0.1925,-1.6625,-3.535,1.04896875,0.36221875000000003,0.20953125,1.287,1.01553125,-0.1305625,-0.2341875,1.27003125,0.020421457228773678,0.018309619416784655,True
61769,14681,0,14682,3855.0,42281.0,39964.0,-0.000244,-0.000244,0.000366,0.14,-1.995,-3.4825000000000004,1.05665625,0.36115625,0.20971875,1.2806875,1.03428125,-0.13525,-0.23090625,1.25590625,0.020567686268010487,0.018184420980952787,True
61770,14682,0,14683,3856.0,42283.0,39966.0,0.0040869999999999995,-0.0011589999999999999,-0.000488,0.1925,-2.2225,-3.6750000000000003,1.05259375,0.35953125,0.20946875,1.2813125,1.03134375,-0.13503125,-0.2335625,1.2585,0.020491479579086935,0.01828172188880607,True
61771,14683,0,14684,3857.0,42286.0,39967.0,0.0040869999999999995,-0.001098,-0.000305,0.2625,-2.1875,-3.6750000000000003,1.0565625,0.36021875000000003,0.2105625,1.28134375,1.0209062500000001,-0.13353125,-0.235875,1.2605,0.02045908635935738,0.01842052329449628,True
61772,14684,0,14685,3856.0,42283.0,39966.0,0.00244,-0.0008539999999999999,-0.001037,0.2625,-2.0300000000000002,-3.6225000000000005,1.04925,0.36021875000000003,0.20571875,1.28715625,1.022875,-0.132625,-0.23784375,1.26771875,0.0204223017595475,0.018300410901856728,True
61773,14685,0,14686,3857.0,42285.0,39971.0,0.001586,0.000244,-0.0011589999999999999,0.29750000000000004,-1.8550000000000002,-3.6225000000000005,1.048875,0.36596875,0.20875,1.2815,1.0271875,-0.13334375,-0.23384375000000002,1.26053125,0.020689735544830997,0.018263456452301343,True
61774,14686,0,14687,3857.0,42285.0,39968.0,-0.001464,0.000122,-0.001098,0.24500000000000002,-1.5050000000000001,-3.5700000000000003,1.05421875,0.3600625,0.2098125,1.2809062500000001,1.0266875,-0.13418750000000002,-0.23678125,1.26203125,0.020479247540444445,0.018426281336347005,True
61775,14687,0,14688,3859.0,42288.0,39970.0,-0.002928,-0.001403,6.1e-05,0.29750000000000004,-1.4175000000000002,-3.5700000000000003,1.04665625,0.36290625,0.20859375,1.282,1.0221875,-0.128375,-0.23334375000000002,1.26003125,0.020361141187502266,0.018236752821203222,True
61776,14688,0,14689,3858.0,42287.0,39969.0,-0.003172,-0.0011589999999999999,0.0017079999999999999,0.28,-1.435,-3.5175000000000005,1.0495,0.36684375,0.209625,1.27634375,1.02278125,-0.1324375,-0.23396875,1.2600625,0.020689217572820814,0.018304626641065552,True
61777,14689,0,14690,3858.0,42288.0,39970.0,-0.00042699999999999997,0.000915,0.002562,0.29750000000000004,-1.6975000000000002,-3.5875000000000004,1.04921875,0.36684375,0.20834375,1.28221875,1.022125,-0.1324375,-0.229875,1.25971875,0.020689217572820814,0.01808588570927419,True
61778,14690,0,14691,3858.0,42288.0,39970.0,0.000122,0.000488,0.001586,0.4025,-1.8725000000000003,-3.6050000000000004,1.0540625000000001,0.359375,0.20834375,1.2909375,1.0236875,-0.13496875,-0.2363125,1.2660625,0.02048246903157892,0.018346695686482832,True
61779,14691,0,14692,3859.0,42288.0,39970.0,0.002257,0.0011589999999999999,-0.000122,0.385,-1.995,-3.6050000000000004,1.05625,0.3644375,0.20934375,1.2806250000000001,1.03040625,-0.13568750000000002,-0.23365625,1.2585625,0.02072139026493445,0.01828036163548371,True
61780,14692,0,14693,3860.0,42287.0,39969.0,0.00061,0.0023179999999999997,-0.00042699999999999997,0.42000000000000004,-1.8550000000000002,-3.7450000000000006,1.03671875,0.36146875,0.20578125,1.29496875,1.0224375,-0.13184375,-0.22903125,1.25734375,0.020442387457444068,0.017945930050339922,True
61781,14693,0,14694,3860.0,42288.0,39971.0,6.1e-05,-0.000122,0.000976,0.42000000000000004,-1.8900000000000001,-3.6925000000000003,1.06240625,0.3571875,0.2066875,1.27878125,1.02696875,-0.1364375,-0.23403125,1.26609375,0.02045144400452635,0.0181859446104329,True
61782,14694,0,14695,3860.0,42290.0,39969.0,-0.000488,-0.00122,0.001098,0.24500000000000002,-1.8025000000000002,-3.6400000000000006,1.0454375,0.36315625,0.21053125,1.2776875,1.01803125,-0.13240625,-0.23340625,1.25584375,0.020535146593597564,0.018319236487854444,True
61783,14695,0,14696,3858.0,42287.0,39971.0,-0.0006709999999999999,-0.001586,0.0008539999999999999,0.22750000000000004,-1.8550000000000002,-3.4825000000000004,1.04565625,0.362875,0.20821875,1.2910625,1.0230000000000001,-0.1325,-0.2338125,1.2609062500000001,0.020527297213301564,0.01824026863292765,True
61784,14696,0,14697,3859.0,42289.0,39972.0,0.0,-0.001037,0.000183,0.22750000000000004,-1.9425000000000001,-3.5525,1.06115625,0.3570625,0.21,1.28265625,1.02203125,-0.13465625,-0.23771875,1.26553125,0.020373969486306646,0.01847198387843328,True
61785,14697,0,14698,3860.0,42289.0,39971.0,0.000183,0.001464,-0.0008539999999999999,0.28,-1.8900000000000001,-3.5000000000000004,1.04515625,0.36421875,0.2105625,1.27821875,1.02890625,-0.13628125,-0.23575000000000002,1.260125,0.020736417297092937,0.01841546063150511,True
61786,14698,0,14699,3858.0,42290.0,39971.0,-0.000122,0.0008539999999999999,-0.000976,0.42000000000000004,-1.9075000000000002,-3.5875000000000004,1.0453125,0.36062500000000003,0.20778125,1.2783437500000001,1.0133125,-0.1326875,-0.23325,1.25996875,0.020441672731228135,0.01819942640793125,True
61787,14699,0,14700,3858.0,42288.0,39971.0,-0.000793,0.000122,-0.002013,0.35000000000000003,-1.8200000000000003,-3.6750000000000003,1.04746875,0.3614375,0.20865625000000002,1.27678125,1.02115625,-0.132125,-0.23353125,1.25965625,0.020452508844538142,0.018246928003940822,True
61788,14700,0,14701,3860.0,42290.0,39972.0,-0.000732,-0.0018909999999999999,6.1e-05,0.21000000000000002,-1.8900000000000001,-3.5700000000000003,1.0455,0.3630625,0.20865625000000002,1.27825,1.0227187500000001,-0.13203125,-0.2335625,1.26025,0.02051604130920392,0.01824819400779394,True
61789,14701,0,14702,3860.0,42288.0,39973.0,0.000488,-0.0018909999999999999,0.000183,0.31500000000000006,-1.995,-3.535,1.03975,0.36321875000000003,0.20946875,1.2739375,1.0226250000000001,-0.1315,-0.23359375000000002,1.25984375,0.02050095311107888,0.018282987846158807,True
61790,14702,0,14703,3859.0,42290.0,39973.0,0.000732,6.1e-05,0.000488,0.47250000000000003,-2.1700000000000004,-3.6575,1.0455625,0.36378125,0.21015625000000002,1.28146875,1.0136875,-0.1323125,-0.23334375000000002,1.26028125,0.020557240421944643,0.018301230097476747,True
61791,14703,0,14704,3860.0,42290.0,39973.0,0.000915,0.000915,0.002623,0.35000000000000003,-2.0475000000000003,-3.5875000000000004,1.04778125,0.3621875,0.20840625000000002,1.2806250000000001,1.02275,-0.12728125,-0.23340625,1.25984375,0.020286941778821434,0.018231547618280036,True
61792,14704,0,14705,3857.0,42291.0,39975.0,0.000366,0.000976,0.001403,0.385,-2.1175,-3.5000000000000004,1.04809375,0.362,0.210875,1.281125,1.02246875,-0.13175,-0.23334375000000002,1.26021875,0.020460596517036685,0.018330889644562566,True
61793,14705,0,14706,3859.0,42291.0,39976.0,-0.000183,-0.000549,-0.000305,0.28,-2.0650000000000004,-3.6400000000000006,1.0490625,0.36275,0.20753125,1.2862500000000001,1.02321875,-0.13315625,-0.227375,1.26134375,0.02054875230006436,0.017951026473152786,True
61794,14706,0,14707,3861.0,42290.0,39975.0,0.000549,-6.1e-05,-0.000793,0.2625,-2.1175,-3.5700000000000003,1.0544375,0.3620625,0.20959375,1.28046875,1.031375,-0.1321875,-0.23296875,1.26065625,0.020480944796239464,0.01826282634066451,True
61795,14707,0,14708,3860.0,42291.0,39976.0,0.00061,-0.000183,-0.0006709999999999999,0.28,-2.0475000000000003,-3.5700000000000003,1.0553125,0.3595,0.2101875,1.27184375,1.0269062500000001,-0.136,-0.2305625,1.25521875,0.020529499502817367,0.018189837730758416,True
61796,14708,0,14709,3860.0,42290.0,39981.0,0.0013419999999999999,-0.00042699999999999997,-0.0015249999999999999,0.24500000000000002,-1.995,-3.4125000000000005,1.050125,0.36212500000000003,0.20909375,1.281625,1.01803125,-0.1358125,-0.23859375,1.28184375,0.020630649993655693,0.018470027783686914,True
61797,14709,0,14710,3861.0,42291.0,39979.0,0.001403,-0.001281,-0.001403,0.15750000000000003,-2.0125,-3.4650000000000003,1.0559687500000001,0.35962500000000003,0.2065625,1.28928125,1.04190625,-0.14315625,-0.23178125,1.2606875,0.0208250008736948,0.01808962145529438,True
61798,14710,0,14711,3861.0,42292.0,39980.0,0.000732,0.000244,0.000915,0.24500000000000002,-1.9250000000000003,-3.5000000000000004,1.0485625,0.36459375,0.209375,1.28065625,1.00934375,-0.12909375,-0.2315,1.253875,0.020460258686673637,0.018194292553081734,True
61799,14711,0,14712,3861.0,42290.0,39980.0,-0.000915,0.0013419999999999999,0.002013,0.43750000000000006,-1.7675,-3.5700000000000003,1.04984375,0.36234375,0.20909375,1.2865,1.0240625,-0.13728125,-0.2420625,1.2813125,0.020699307217957697,0.01861047301565203,True
61800,14712,0,14713,3863.0,42289.0,39982.0,-0.003294,0.000549,-0.000366,0.35000000000000003,-1.6625,-3.5525,1.05359375,0.36065625,0.20803125,1.285875,1.03590625,-0.1424375,-0.24506250000000002,1.27990625,0.020838564871504792,0.018688083398423906,True
61801,14713,0,14714,3864.0,42292.0,39983.0,-0.002562,0.0,-0.0017079999999999999,0.22750000000000004,-1.5925000000000002,-3.5700000000000003,1.05246875,0.36840625,0.20578125,1.28759375,1.0475,-0.14490625000000001,-0.244,1.28228125,0.02125966009911511,0.01855227066490678,True
61802,14714,0,14715,3862.0,42294.0,39985.0,-0.001281,0.0,-0.002806,0.24500000000000002,-1.7500000000000002,-3.4475000000000002,1.05684375,0.36590625,0.20884375,1.281375,1.047,-0.145375,-0.23746875,1.265625,0.02117512152948546,0.018414154737177328,True
61803,14715,0,14716,3863.0,42294.0,39986.0,0.000488,-0.000732,0.000122,0.21000000000000002,-1.8900000000000001,-3.4650000000000003,1.04871875,0.36084375,0.20809375,1.28559375,1.03703125,-0.14134375,-0.23821875,1.26740625,0.02080196965009456,0.0184135849504205,True
61804,14716,0,14717,3864.0,42294.0,39989.0,0.003355,-0.001464,0.000732,0.28,-2.1350000000000002,-3.4650000000000003,1.05640625,0.35975,0.20971875,1.28125,1.04028125,-0.13603125,-0.2358125,1.2509375,0.02054112562519988,0.018383177787004254,True
61805,14717,0,14718,3865.0,42295.0,39988.0,0.005124,0.0008539999999999999,0.000549,0.21000000000000002,-2.2575000000000003,-3.4125000000000005,1.04965625,0.36284375,0.20940625000000002,1.281,1.00975,-0.129,-0.22846875,1.25121875,0.020383925981184468,0.018072747581293184,True
61806,14718,0,14719,3865.0,42294.0,39990.0,0.00244,0.00061,0.0017079999999999999,0.22750000000000004,-1.8200000000000003,-3.3775000000000004,1.05565625,0.35925,0.20734375,1.281,1.0249375,-0.1384375,-0.23053125,1.26221875,0.02061804953199643,0.01807120923112241,True
61807,14719,0,14720,3865.0,42295.0,39990.0,-0.00122,0.0021349999999999997,0.000793,0.3325,-1.3650000000000002,-3.3600000000000003,1.049,0.36562500000000003,0.2084375,1.28096875,1.0240625,-0.13303125,-0.2363125,1.2598125,0.020662810437457997,0.018350563849182915,True
61808,14720,0,14721,3866.0,42294.0,39987.0,-0.0059169999999999995,0.000976,-0.002562,0.3325,-1.05,-3.4125000000000005,1.04896875,0.36221875000000003,0.2136875,1.2805625,1.0181875,-0.13253125,-0.23378125,1.259625,0.02050137198102665,0.01846466902477301,True
61809,14721,0,14722,3865.0,42296.0,39990.0,-0.007076,0.001098,-0.0021349999999999997,0.31500000000000006,-0.9625000000000001,-3.2375000000000003,1.0443125,0.3619375,0.20600000000000002,1.28409375,1.0180625,-0.13228125,-0.23365625,1.26046875,0.02047957028513415,0.018142382043568026,True
61810,14722,0,14723,3868.0,42295.0,39990.0,-0.001586,-0.002806,0.0011589999999999999,0.24500000000000002,-1.6450000000000002,-3.3775000000000004,1.0501562500000001,0.35953125,0.207125,1.2862500000000001,1.02178125,-0.133375,-0.2335625,1.2604375,0.020424256864197403,0.01818500684742493,True
61811,14723,0,14724,3867.0,42295.0,39989.0,0.002257,-0.0050019999999999995,-0.0006709999999999999,0.2625,-1.9775000000000003,-3.6400000000000006,1.0479375,0.35990625,0.20871875,1.2839375,1.02365625,-0.13309375,-0.23328125,1.26121875,0.02042837959803641,0.018239378953273197,True
61812,14724,0,14725,3868.0,42294.0,39990.0,0.0046359999999999995,-0.003721,-0.000976,0.35000000000000003,-2.1700000000000004,-3.6925000000000003,1.0539375,0.3613125,0.20878125,1.274375,1.0235,-0.1333125,-0.23534375000000002,1.261625,0.020495528742687105,0.018325508587019732,True
61813,14725,0,14726,3866.0,42294.0,39988.0,0.0057339999999999995,-0.000488,0.0,0.36750000000000005,-2.1175,-3.6400000000000006,1.0554375,0.36003125,0.20709375,1.28675,1.02321875,-0.133375,-0.23621875,1.26621875,0.020444975060471236,0.018291322774927503,True
61814,14726,0,14727,3865.0,42292.0,39984.0,0.0035989999999999998,0.002928,6.1e-05,0.525,-1.7500000000000002,-3.7100000000000004,1.05484375,0.36578125,0.2063125,1.285625,1.0278125,-0.1370625,-0.23715625,1.26625,0.02083284782479227,0.01829706197483461,True
61815,14727,0,14728,3862.0,42291.0,39983.0,-0.001586,0.002623,0.00122,0.525,-1.33,-3.5700000000000003,1.05946875,0.35909375,0.21078125,1.2829062500000001,1.03146875,-0.1343125,-0.23540625,1.2669375,0.020444180873186255,0.01841056408947137,True
61816,14728,0,14729,3856.0,42290.0,39977.0,-0.002928,0.001037,0.002562,0.36750000000000005,-1.2775,-3.6750000000000003,1.03659375,0.36312500000000003,0.2126875,1.2770625,1.03003125,-0.12809375,-0.234375,1.26296875,0.02035878818648904,0.018447453255963895,True
61817,14729,0,14730,3856.0,42285.0,39973.0,-0.0021349999999999997,-0.00061,0.000549,0.35000000000000003,-1.1375000000000002,-3.8150000000000004,1.04628125,0.36428125,0.205375,1.295125,1.0223125,-0.1323125,-0.233875,1.260625,0.020577959530401407,0.018125454554832852,True
61818,14730,0,14731,3855.0,42284.0,39968.0,-0.0025009999999999998,-0.001098,0.000488,0.47250000000000003,-1.2425000000000002,-3.7450000000000006,1.04134375,0.36471875,0.21203125,1.2696875,1.01978125,-0.13459375,-0.22843750000000002,1.2610000000000001,0.0206886639639418,0.018179824844255846,True
61819,14731,0,14732,3852.0,42287.0,39968.0,0.000366,0.0008539999999999999,-0.001647,0.42000000000000004,-1.4700000000000002,-3.7450000000000006,1.04275,0.36471875,0.2114375,1.275125,1.02225,-0.133,-0.2363125,1.266,0.020623989972237185,0.018474345055585498,True
61820,14732,0,14733,3851.0,42284.0,39963.0,0.0025009999999999998,0.0015249999999999999,-0.001586,0.45500000000000007,-1.8550000000000002,-3.7800000000000002,1.0435625,0.36134375,0.20559375,1.289375,1.02371875,-0.131875,-0.234,1.26009375,0.020438476081945562,0.01813954567962367,True
61821,14733,0,14734,3848.0,42279.0,39960.0,0.0011589999999999999,6.1e-05,0.000183,0.47250000000000003,-1.8200000000000003,-3.7625,1.0653125,0.35534375,0.20571875,1.28965625,1.0215625,-0.1280625,-0.234375,1.26703125,0.020035021461006247,0.018159896840747904,True
61822,14734,0,14735,3847.0,42280.0,39958.0,-0.000244,-0.00061,0.001769,0.45500000000000007,-1.6275000000000002,-3.7450000000000006,1.04115625,0.3624375,0.2046875,1.27975,1.0298125,-0.13446875,-0.23709375,1.26840625,0.020589069316058594,0.018227484473050736,True
61823,14735,0,14736,3848.0,42281.0,39956.0,-0.001464,-0.00042699999999999997,0.0018909999999999999,0.42000000000000004,-1.6625,-3.8325000000000005,1.04228125,0.3646875,0.21321875,1.2748125000000001,1.0294375,-0.13421875,-0.2358125,1.25321875,0.020672152480593557,0.018527592173771767,True
61824,14736,0,14737,3847.0,42280.0,39957.0,-0.001037,0.000244,-0.000793,0.36750000000000005,-1.7675,-3.7625,1.0271875,0.3645,0.21209375,1.2761875,1.0288125000000001,-0.133,-0.23459375000000002,1.26821875,0.02061492562051962,0.018431812994595797,True
61825,14737,0,14738,3844.0,42279.0,39957.0,0.000122,0.00061,-0.000366,0.22750000000000004,-1.8375000000000001,-3.8500000000000005,1.044375,0.36409375,0.212625,1.2755,1.0289375,-0.13546875,-0.23534375000000002,1.268,0.020698272122848246,0.018484109597166332,True
61826,14738,0,14739,3848.0,42280.0,39959.0,0.001464,-0.000732,-0.002257,0.1925,-2.0475000000000003,-3.8500000000000005,1.042625,0.3641875,0.211,1.27646875,1.02878125,-0.13493750000000002,-0.2353125,1.26315625,0.02068060047804143,0.018415793070545305,True
61827,14739,0,14740,3846.0,42282.0,39961.0,0.0023179999999999997,-0.002196,-0.002806,0.07,-1.995,-3.8850000000000002,1.04428125,0.3635,0.21034375,1.281,1.02753125,-0.13171875,-0.23321875,1.25996875,0.020521486891604022,0.01830390360339565,True
61828,14740,0,14741,3844.0,42283.0,39960.0,0.0028669999999999998,-0.0030499999999999998,-0.0030499999999999998,-0.07,-2.0825,-3.8325000000000005,1.0476875,0.36153125,0.20921875,1.28109375,1.01515625,-0.13209375,-0.2331875,1.26284375,0.02045512524167117,0.018256213715178823,True
61829,14741,0,14742,3846.0,42285.0,39962.0,0.001464,-0.001098,0.001647,0.21000000000000002,-2.0475000000000003,-3.6750000000000003,1.04678125,0.36262500000000003,0.20909375,1.2805,1.029125,-0.135,-0.23325,1.26475,0.02061839651957738,0.018253587529530706,True
61830,14742,0,14743,3847.0,42284.0,39964.0,0.00183,-6.1e-05,0.001769,0.35000000000000003,-1.9775000000000003,-3.7275000000000005,1.0468125,0.36059375,0.207875,1.28590625,1.02903125,-0.132875,-0.23565625,1.2565,0.02044798848044421,0.018300773266661595,True
61831,14743,0,14744,3847.0,42283.0,39963.0,0.000915,0.0028669999999999998,0.000122,0.45500000000000007,-1.7325000000000002,-3.6925000000000003,1.057375,0.36112500000000003,0.20909375,1.2875,1.028125,-0.13568750000000002,-0.2363125,1.25975,0.020584145365654078,0.01837764098808348,True
61832,14744,0,14745,3848.0,42284.0,39967.0,-0.00122,0.0035989999999999998,-0.000793,0.385,-1.4525000000000001,-3.6575,1.05228125,0.36121875000000003,0.20846875,1.28140625,1.02234375,-0.13353125,-0.23375,1.26,0.020500522483629494,0.01824805281889926,True
61833,14745,0,14746,3848.0,42286.0,39968.0,-0.003721,0.0026839999999999998,0.000732,0.42000000000000004,-1.0675000000000001,-3.6400000000000006,1.0499687500000001,0.36234375,0.2095,1.28603125,1.02225,-0.13134375,-0.22596875,1.266125,0.02045835097765743,0.017975287365959308,True
61834,14746,0,14747,3849.0,42285.0,39969.0,-0.0044529999999999995,-0.00183,0.00061,0.2625,-1.12,-3.7625,1.0565625,0.35959375,0.206125,1.2788125000000001,1.0251875,-0.132625,-0.237875,1.2630625,0.020396403209348338,0.018318437569300114,True
61835,14747,0,14748,3850.0,42287.0,39971.0,-0.001647,-0.002623,0.000366,0.10500000000000001,-1.3650000000000002,-3.7800000000000002,1.05309375,0.3615,0.20859375,1.28190625,1.0231875,-0.13246875,-0.23015625,1.2600625,0.0204690516795966,0.01810760093633321,True
61836,14748,0,14749,3849.0,42288.0,39971.0,0.000793,-0.000366,-0.000183,0.15750000000000003,-1.61,-3.8325000000000005,1.03921875,0.3619375,0.2091875,1.2794375,1.02215625,-0.1324375,-0.23378125,1.2481875,0.02048591237416444,0.01827897782150691,True
61837,14749,0,14750,3850.0,42287.0,39973.0,0.002623,0.000305,0.000793,0.22750000000000004,-1.7850000000000001,-3.9025000000000003,1.048875,0.3620625,0.21146875,1.2813125,1.02215625,-0.13221875,-0.23309375000000002,1.2605625,0.020482213223763358,0.018345263901766568,True
61838,14750,0,14751,3851.0,42287.0,39971.0,0.003843,0.000244,0.000122,0.24500000000000002,-1.995,-3.8500000000000005,1.0495625,0.36162500000000003,0.2083125,1.28359375,1.02215625,-0.1324375,-0.23390625,1.26009375,0.020472962998453845,0.01824793516315596,True
61839,14751,0,14752,3851.0,42286.0,39971.0,0.00244,0.0,-0.00042699999999999997,0.24500000000000002,-1.7500000000000002,-3.9375000000000004,1.05540625,0.3606875,0.2099375,1.2871875,1.022,-0.13253125,-0.23409375000000002,1.2595625,0.020437920286542673,0.01832258530402029,True
61840,14752,0,14753,3853.0,42286.0,39974.0,0.000793,0.0008539999999999999,-0.002074,0.2625,-1.715,-3.9025000000000003,1.05228125,0.36321875000000003,0.20871875,1.2808125000000001,1.0211875,-0.131375,-0.22878125,1.260125,0.020495879327224416,0.018057037020795256,True
61841,14753,0,14754,3852.0,42289.0,39975.0,-0.0006709999999999999,-0.001403,-0.0015249999999999999,0.3325,-1.6275000000000002,-3.8675,1.04915625,0.36271875000000003,0.209375,1.28078125,1.01565625,-0.1325,-0.23396875,1.25959375,0.020520822542214857,0.018294310542923353,True
61842,14754,0,14755,3851.0,42289.0,39974.0,-0.00042699999999999997,-0.001647,0.000549,0.35000000000000003,-1.5225000000000002,-3.9025000000000003,1.05496875,0.364875,0.207875,1.2823437500000001,1.02225,-0.13409375,-0.23690625,1.26453125,0.020674849247239706,0.01835140365738717,True
61843,14755,0,14756,3852.0,42289.0,39974.0,-0.00183,-0.000488,-6.1e-05,0.29750000000000004,-1.54,-3.9025000000000003,1.0496875,0.365375,0.2091875,1.28109375,1.02865625,-0.1314375,-0.2328125,1.2530937500000001,0.020587770620792898,0.01823973176865046,True
61844,14756,0,14757,3851.0,42290.0,39974.0,-0.00061,-0.00042699999999999997,0.001037,0.525,-1.5925000000000002,-3.7975000000000003,1.05165625,0.36090625,0.2084375,1.28396875,1.0227187500000001,-0.13178125000000002,-0.23640625,1.2573125,0.02041654094639201,0.018354361014228333,True
61845,14757,0,14758,3849.0,42287.0,39975.0,0.000305,0.001586,0.002013,0.45500000000000007,-1.435,-3.7975000000000003,1.04353125,0.36221875000000003,0.20753125,1.2842500000000001,1.02840625,-0.13175,-0.234,1.2631875000000001,0.020469661338278412,0.018219495337129653,True
61846,14758,0,14759,3850.0,42285.0,39973.0,-0.000122,0.001952,0.0006709999999999999,0.36750000000000005,-1.4700000000000002,-3.7800000000000002,1.05265625,0.36262500000000003,0.20921875,1.2815,1.02915625,-0.1361875,-0.2334375,1.26025,0.02066658207722326,0.018266341702451415,True
61847,14759,0,14760,3851.0,42287.0,39971.0,-0.000122,-0.000122,-0.0023179999999999997,0.2625,-1.6625,-3.8500000000000005,1.0491875,0.36196875,0.210375,1.2847187500000001,1.0229375,-0.13265625,-0.22946875,1.26,0.020496086086669384,0.01815325604280944,True
61848,14760,0,14761,3851.0,42286.0,39972.0,0.000244,-0.000549,-0.001037,0.28,-1.8200000000000003,-3.8675,1.05403125,0.36162500000000003,0.2074375,1.2815,1.03175,-0.138625,-0.23884375,1.26675,0.020724047040790436,0.018411820902141832,True
61849,14761,0,14762,3850.0,42286.0,39970.0,0.0026839999999999998,-0.0015249999999999999,0.0013419999999999999,0.24500000000000002,-2.0300000000000002,-3.9025000000000003,1.04896875,0.36259375,0.20896875,1.28759375,1.01475,-0.13184375,-0.233,1.27115625,0.02048900635700494,0.0182383010770437,True
61850,14762,0,14763,3851.0,42284.0,39975.0,0.001098,-0.0017079999999999999,-0.0006709999999999999,0.24500000000000002,-1.8025000000000002,-3.8500000000000005,1.0493125,0.3625,0.20909375,1.28678125,1.03303125,-0.13128125000000002,-0.23128125,1.255875,0.020462288963624755,0.018173822319032345,True
61851,14763,0,14764,3849.0,42285.0,39972.0,0.001403,-0.000549,-0.000122,0.42000000000000004,-1.6625,-3.7975000000000003,1.04790625,0.36362500000000003,0.20984375,1.289875,1.03228125,-0.13665625,-0.2323125,1.2553750000000001,0.02072703214638523,0.018246556122120002,True
61852,14764,0,14765,3849.0,42286.0,39972.0,-0.00122,0.0017079999999999999,0.000183,0.47250000000000003,-1.5225000000000002,-3.7975000000000003,1.082,0.3643125,0.213125,1.2666250000000001,1.02246875,-0.13634375,-0.23884375,1.26828125,0.020742837241038217,0.018646464932965297,True
61853,14765,0,14766,3850.0,42287.0,39973.0,-0.001037,0.002196,-0.000122,0.49000000000000005,-1.3475000000000001,-3.7975000000000003,1.04084375,0.36378125,0.209625,1.29221875,1.02715625,-0.12825,-0.23246875,1.24578125,0.02039233056686664,0.018243859284869605,True
61854,14766,0,14767,3851.0,42284.0,39972.0,-0.003355,0.001281,0.000549,0.385,-1.3125000000000002,-3.6750000000000003,1.07234375,0.36125,0.20753125,1.2893125,1.014,-0.13318750000000001,-0.2389375,1.272125,0.02048786551714315,0.018419485177516546,True
61855,14767,0,14768,3851.0,42285.0,39972.0,-0.002379,-0.001403,-6.1e-05,0.3325,-1.5225000000000002,-3.7450000000000006,1.03715625,0.36612500000000003,0.21365625,1.2727187500000001,1.0382500000000001,-0.13709375000000001,-0.230875,1.25634375,0.020848357105958545,0.01834565404674821,True
61856,14768,0,14769,3852.0,42287.0,39972.0,0.0008539999999999999,-0.001281,0.00122,0.31500000000000006,-1.6625,-3.8325000000000005,1.0470625,0.35884375,0.19765625,1.29978125,1.01853125,-0.131,-0.232125,1.256,0.020299355600679626,0.017736011596176562,True
61857,14769,0,14770,3850.0,42285.0,39973.0,0.001098,0.000244,0.000244,0.35000000000000003,-1.9250000000000003,-3.8150000000000004,1.0690625,0.3616875,0.214375,1.27015625,1.0303437500000001,-0.13665625,-0.2345625,1.2568125,0.020646760049872273,0.018524679370630272,True
61858,14770,0,14771,3851.0,42286.0,39973.0,0.0030499999999999998,-0.000122,-0.000183,0.3325,-1.9600000000000002,-3.6925000000000003,1.04121875,0.3576875,0.204875,1.305,1.01790625,-0.1318125,-0.232,1.25715625,0.020284427454423493,0.018028846153846156,True
61859,14771,0,14772,3851.0,42286.0,39976.0,0.000915,0.000793,6.1e-05,0.3325,-1.9075000000000002,-3.7625,1.07346875,0.351875,0.20303125,1.293125,1.02328125,-0.13440625,-0.23471875,1.2655,0.020148879776149452,0.01806292883015199,True
61860,14772,0,14773,3851.0,42289.0,39975.0,-0.0008539999999999999,0.000183,-6.1e-05,0.28,-1.715,-3.7275000000000005,1.04496875,0.36103125,0.21365625,1.271625,1.02984375,-0.13368750000000001,-0.2358125,1.26821875,0.0204990948855205,0.018545643972117706,True
61861,14773,0,14774,3853.0,42288.0,39974.0,-0.00183,-0.0015249999999999999,-6.1e-05,0.17500000000000002,-1.6450000000000002,-3.6925000000000003,1.049625,0.36596875,0.21303125,1.27040625,1.01746875,-0.13390625,-0.2341875,1.2578125,0.020712560777433203,0.018454043487119178,True
61862,14774,0,14775,3852.0,42287.0,39975.0,-0.00061,-0.0017079999999999999,6.1e-05,0.17500000000000002,-1.6975000000000002,-3.7275000000000005,1.04359375,0.360875,0.2093125,1.28734375,1.022875,-0.1316875,-0.2336875,1.25253125,0.02041144035202677,0.01828033806245954,True
61863,14775,0,14776,3853.0,42288.0,39977.0,0.001281,-0.000976,-0.000549,0.22750000000000004,-1.7675,-3.5525,1.0541562500000001,0.35615625,0.20984375,1.286875,1.02309375,-0.1324375,-0.233,1.26465625,0.020246348923518398,0.018274408863945858,True
61864,14776,0,14777,3854.0,42288.0,39978.0,0.00061,0.0023179999999999997,-0.000183,0.45500000000000007,-1.8375000000000001,-3.5875000000000004,1.0560625000000001,0.35978125,0.20978125,1.28059375,1.03046875,-0.1348125,-0.22628125000000002,1.25965625,0.020492960117258006,0.017999564006547644,True
61865,14777,0,14778,3854.0,42287.0,39978.0,-0.0006709999999999999,0.002074,-0.001647,0.47250000000000003,-1.6450000000000002,-3.7275000000000005,1.049375,0.36215625,0.20975,1.28021875,1.0223125,-0.13184375,-0.233125,1.26009375,0.02047087678495349,0.018275604157532304,True
61866,14778,0,14779,3854.0,42291.0,39979.0,-0.0040869999999999995,0.00061,0.000244,0.35000000000000003,-1.435,-3.7800000000000002,1.04971875,0.3621875,0.20734375,1.2761875,1.02228125,-0.132375,-0.23546875,1.26284375,0.020493735075805843,0.018271257905832748,True
61867,14779,0,14780,3857.0,42290.0,39979.0,-0.004148,-0.002013,0.0013419999999999999,0.21000000000000002,-1.4875,-3.6750000000000003,1.04940625,0.36184375,0.20734375,1.285375,1.02265625,-0.13178125000000002,-0.2339375,1.26684375,0.02045539012997642,0.01820922621427079,True
61868,14780,0,14781,3857.0,42291.0,39978.0,-0.002379,-0.003172,0.001403,0.07,-1.6275000000000002,-3.7275000000000005,1.05271875,0.36153125,0.20903125,1.28103125,1.02428125,-0.13215625,-0.233,1.26009375,0.02045766217015937,0.01824088020467957,True
61869,14781,0,14782,3856.0,42292.0,39982.0,0.005063,-0.001586,-0.002928,0.14,-2.1700000000000004,-3.6925000000000003,1.04890625,0.35909375,0.20725000000000002,1.288,1.02234375,-0.133,-0.23565625,1.26853125,0.02039090664235694,0.018274984817050293,True
61870,14782,0,14783,3858.0,42292.0,39981.0,0.005673,-0.000244,-0.003355,0.31500000000000006,-2.205,-3.5875000000000004,1.04846875,0.3630625,0.2086875,1.28125,1.02940625,-0.13440625,-0.23175,1.25915625,0.020612429609698807,0.01817605001702312,True
61871,14783,0,14784,3857.0,42293.0,39983.0,0.004331,0.0025009999999999998,-6.1e-05,0.36750000000000005,-1.9775000000000003,-3.4475000000000002,1.0490625,0.362,0.20603125,1.28628125,1.0221875,-0.13209375,-0.23396875,1.2624375,0.020474549581923452,0.01815633273027143,True
61872,14784,0,14785,3858.0,42294.0,39982.0,0.001464,0.0025009999999999998,0.00244,0.36750000000000005,-1.7325000000000002,-3.4825000000000004,1.054625,0.36296875,0.21075,1.2815,1.0307187500000001,-0.1335625,-0.23103125,1.25996875,0.020574303938757487,0.018232044911419113,True
61873,14785,0,14786,3860.0,42293.0,39984.0,-0.001586,0.0023179999999999997,0.00244,0.47250000000000003,-1.4700000000000002,-3.4125000000000005,1.0488125,0.3620625,0.20928125,1.28025,1.02234375,-0.13240625,-0.2335,1.25975,0.02048982371992018,0.018271452741040296,True
61874,14786,0,14787,3860.0,42293.0,39983.0,-0.005429,0.002196,0.000183,0.5425000000000001,-0.805,-3.3775000000000004,1.04921875,0.36678125,0.20940625000000002,1.2846250000000001,1.0228125000000001,-0.132875,-0.2328125,1.260125,0.020704381471333196,0.018248758785221482,True
61875,14787,0,14788,3860.0,42294.0,39987.0,-0.005612,0.000549,-0.000244,0.385,-0.8750000000000001,-3.325,1.048,0.35975,0.21,1.270125,1.01859375,-0.13468750000000002,-0.23503125,1.25275,0.020486592171537338,0.018363139102616177,True
61876,14788,0,14789,3861.0,42294.0,39985.0,-0.0030499999999999998,-0.002928,0.000183,0.31500000000000006,-1.2425000000000002,-3.3775000000000004,1.0490625,0.36065625,0.20515625,1.2829375,1.02184375,-0.1330625,-0.2371875,1.26640625,0.020458188843624797,0.018250622107041092,True
61877,14789,0,14790,3861.0,42291.0,39984.0,0.00061,-0.003843,-0.000732,0.28,-1.5575,-3.5525,1.049,0.362,0.208625,1.281,1.02265625,-0.1330625,-0.23359375000000002,1.2601875,0.020513869717115264,0.018248170476159772,True
61878,14790,0,14791,3860.0,42289.0,39978.0,0.003538,-0.004209,-0.0023179999999999997,0.17500000000000002,-1.7850000000000001,-3.6925000000000003,1.0502500000000001,0.3584375,0.20609375,1.2862500000000001,1.0220625,-0.132,-0.23525000000000001,1.26615625,0.02032311868059009,0.01821081895173353,True
61879,14791,0,14792,3858.0,42291.0,39978.0,0.0018909999999999999,0.000244,-0.000366,0.47250000000000003,-1.7325000000000002,-3.6750000000000003,1.04959375,0.3620625,0.20871875,1.28084375,1.0279375,-0.13215625,-0.23365625,1.25959375,0.020479676365430462,0.018254571057555544,True
61880,14792,0,14793,3854.0,42287.0,39972.0,0.0011589999999999999,0.001586,0.002989,0.5075000000000001,-1.715,-3.5875000000000004,1.04975,0.361375,0.2054375,1.28728125,1.0215,-0.13265625,-0.23390625,1.26609375,0.020471482495840052,0.01812929972855697,True
61881,14793,0,14794,3852.0,42287.0,39970.0,0.000183,0.0025009999999999998,0.002257,0.49000000000000005,-1.6275000000000002,-3.6225000000000005,1.055125,0.36271875000000003,0.211375,1.28021875,1.02728125,-0.13453125,-0.2338125,1.26034375,0.02060325907510634,0.01837051021171349,True
61882,14794,0,14795,3848.0,42286.0,39965.0,-0.001037,0.001586,-0.000122,0.47250000000000003,-1.54,-3.5525,1.048875,0.3615625,0.208625,1.28775,1.02246875,-0.13246875,-0.23378125,1.26196875,0.020471641551385,0.01825576642109865,True
61883,14795,0,14796,3846.0,42283.0,39962.0,-0.001403,0.0025009999999999998,-0.00061,0.5425000000000001,-1.5050000000000001,-3.535,1.05471875,0.36196875,0.21478125,1.2809062500000001,1.0304375000000001,-0.129,-0.2346875,1.2605625,0.020347662563720004,0.01854650488065918,True
61884,14796,0,14797,3844.0,42279.0,39958.0,-0.0006709999999999999,-0.000305,0.001464,0.5075000000000001,-1.54,-3.5000000000000004,1.049375,0.36778125,0.2080625,1.28509375,1.0225312500000001,-0.13453125,-0.238875,1.2653125,0.020813020762522578,0.018438871441021912,True
61885,14797,0,14798,3841.0,42277.0,39951.0,-0.000549,-0.000915,0.0011589999999999999,0.35000000000000003,-1.7675,-3.4825000000000004,1.04890625,0.36203125,0.2060625,1.2835,1.0190625,-0.13128125000000002,-0.23678125,1.27259375,0.02044286396935513,0.01827155782082243,True
61886,14798,0,14799,3839.0,42276.0,39951.0,0.000732,-0.001586,0.00061,0.29750000000000004,-1.7850000000000001,-3.4825000000000004,1.04915625,0.36178125,0.2093125,1.27209375,1.01596875,-0.13025,-0.23246875,1.2465,0.020390640378777677,0.01823096336397834,True
61887,14799,0,14800,3837.0,42276.0,39948.0,-0.000549,6.1e-05,-6.1e-05,0.43750000000000006,-1.6975000000000002,-3.5875000000000004,1.05559375,0.36459375,0.2088125,1.28596875,1.03809375,-0.13015625,-0.2321875,1.2725312500000001,0.020503389819533393,0.018198934784571144,True
61888,14800,0,14801,3836.0,42276.0,39949.0,-0.002196,0.001464,6.1e-05,0.47250000000000003,-1.3650000000000002,-3.43,1.054875,0.3664375,0.21053125,1.28084375,1.03721875,-0.13103125000000002,-0.23040625,1.25471875,0.020615312493120243,0.01819769323925388,True
61889,14801,0,14802,3836.0,42275.0,39950.0,-0.0011589999999999999,0.0015249999999999999,-0.000793,0.5075000000000001,-1.5925000000000002,-3.4475000000000002,1.04921875,0.35834375,0.21084375,1.28084375,1.020875,-0.14065625,-0.23359375000000002,1.254,0.0206705234038532,0.01833972726393501,True
61890,14802,0,14803,3836.0,42275.0,39950.0,0.000244,-0.000488,-0.001037,0.35000000000000003,-1.9250000000000003,-3.4825000000000004,1.04971875,0.3616875,0.20803125,1.2822500000000001,1.015625,-0.1350625,-0.2355625,1.27215625,0.020582088817876484,0.018303422914157656,True
61891,14803,0,14804,3836.0,42275.0,39950.0,0.002196,-0.0025009999999999998,-0.00061,0.14,-2.1525000000000003,-3.5175000000000005,1.05715625,0.3589375,0.20853125,1.2735625,1.03890625,-0.14034375,-0.237625,1.2559375,0.020682441607733942,0.018407589439971946,True
61892,14804,0,14805,3837.0,42275.0,39952.0,0.003904,-0.0042699999999999995,-6.1e-05,0.052500000000000005,-2.345,-3.5175000000000005,1.04875,0.3624375,0.20925,1.28646875,1.0163125,-0.1305625,-0.2340625,1.26296875,0.02043052249610841,0.018292950263704238,True
61893,14805,0,14806,3836.0,42275.0,39952.0,0.003538,-0.000732,-0.002745,0.15750000000000003,-2.1350000000000002,-3.4825000000000004,1.05646875,0.35946875,0.20846875,1.28109375,1.0365625,-0.1358125,-0.2305625,1.25440625,0.020520595691568288,0.018118904585892298,True
61894,14806,0,14807,3835.0,42274.0,39953.0,0.00122,0.000976,-0.001952,0.24500000000000002,-1.7675,-3.3425000000000002,1.05009375,0.361875,0.20915625000000002,1.28240625,1.0153125,-0.12996875,-0.231875,1.26,0.020383107624206934,0.01820045910603286,True
61895,14807,0,14808,3836.0,42275.0,39954.0,-0.0017079999999999999,0.000915,0.0006709999999999999,0.29750000000000004,-1.5225000000000002,-3.3075,1.0575,0.3600625,0.20865625000000002,1.2801875,1.03109375,-0.13284375,-0.233625,1.25828125,0.020424706474967337,0.018250726005704883,True
61896,14808,0,14809,3836.0,42276.0,39955.0,-0.0035989999999999998,0.000793,0.0023179999999999997,0.31500000000000006,-1.33,-3.43,1.045125,0.3619375,0.20550000000000002,1.2885625,1.0144375,-0.13215625,-0.23409375000000002,1.25575,0.02047449655477844,0.018139475506485567,True
61897,14809,0,14810,3836.0,42276.0,39956.0,-0.002806,0.00042699999999999997,0.0013419999999999999,0.1925,-1.3650000000000002,-3.4475000000000002,1.0541875,0.36115625,0.206125,1.28821875,1.0306250000000001,-0.13468750000000002,-0.2365625,1.263125,0.020544858929704396,0.018265275861624353,True
61898,14810,0,14811,3837.0,42278.0,39956.0,-0.001464,0.0008539999999999999,0.001647,0.385,-1.4700000000000002,-3.3775000000000004,1.05390625,0.3625,0.20990625000000002,1.28103125,1.02975,-0.13303125,-0.23503125,1.260125,0.020533319866313935,0.018359270735415288,True
61899,14811,0,14812,3838.0,42278.0,39956.0,-0.002013,0.000488,-0.000122,0.3325,-1.4000000000000001,-3.3950000000000005,1.04978125,0.36284375,0.209625,1.28096875,1.022375,-0.1319375,-0.2275,1.26215625,0.020503171367819102,0.01804251367247962,True
61900,14812,0,14813,3839.0,42278.0,39956.0,-0.000488,0.000488,0.000122,0.12250000000000001,-1.5750000000000002,-3.4650000000000003,1.05009375,0.36253125,0.2099375,1.28065625,1.02328125,-0.132,-0.23334375000000002,1.2533125,0.020492758577821978,0.018292203278798453,True
61901,14813,0,14814,3839.0,42279.0,39958.0,0.00042699999999999997,0.000244,6.1e-05,0.1925,-1.7325000000000002,-3.6225000000000005,1.0488125,0.362375,0.20828125,1.27065625,1.0258125,-0.13246875,-0.2335,1.2610937500000001,0.02050530988463416,0.018230187550291953,True
61902,14814,0,14815,3841.0,42279.0,39960.0,0.001952,0.0006709999999999999,-0.0015249999999999999,0.21000000000000002,-1.7325000000000002,-3.7450000000000006,1.04953125,0.36153125,0.20896875,1.28109375,1.0225625,-0.13271875,-0.23325,1.25265625,0.02048049393523057,0.018248429327473614,True
61903,14815,0,14816,3841.0,42279.0,39960.0,0.000549,-0.0018909999999999999,-0.002196,0.29750000000000004,-1.8200000000000003,-3.7100000000000004,1.04946875,0.36190625,0.20675000000000002,1.28875,1.0230625,-0.13153125000000002,-0.23328125,1.2667187500000001,0.02044783212834867,0.018158137375639132,True
61904,14816,0,14817,3841.0,42279.0,39961.0,0.000976,-0.001281,-0.000976,0.3325,-1.61,-3.6225000000000005,1.0577812500000001,0.36178125,0.2096875,1.2754375,1.029125,-0.13515625,-0.2328125,1.26159375,0.02058977761952546,0.01826036494938423,True
61905,14817,0,14818,3842.0,42281.0,39957.0,-0.000488,-0.002074,0.000793,0.28,-1.5925000000000002,-3.6575,1.04771875,0.36225,0.2089375,1.28028125,1.02375,-0.13159375,-0.23378125,1.2596875,0.020464613946188284,0.018268661643547682,True
61906,14818,0,14819,3842.0,42283.0,39961.0,0.000122,-0.0018909999999999999,0.0013419999999999999,0.2625,-1.5750000000000002,-3.6925000000000003,1.0541875,0.3566875,0.20428125,1.29115625,1.0220625,-0.13528125,-0.231625,1.26878125,0.020383800168063092,0.017989146415067086,True
61907,14819,0,14820,3843.0,42282.0,39960.0,0.000305,-0.000366,0.00183,0.29750000000000004,-1.5225000000000002,-3.7625,1.06084375,0.355,0.20859375,1.2786875,1.02975,-0.13421875,-0.23625000000000002,1.26675,0.020270751461552904,0.018354479343957914,True
61908,14820,0,14821,3841.0,42282.0,39960.0,-0.000122,0.001098,-0.0008539999999999999,0.36750000000000005,-1.6450000000000002,-3.6575,1.045875,0.364,0.21615625,1.278125,1.03009375,-0.1345625,-0.23515625,1.2603125,0.02065761498680575,0.018622223654943426,True
61909,14821,0,14822,3842.0,42280.0,39960.0,-0.000183,0.002074,-0.001281,0.45500000000000007,-1.6625,-3.6925000000000003,1.045375,0.36296875,0.2105,1.2769375,1.02309375,-0.13293750000000001,-0.2336875,1.2594687500000001,0.020548938561664943,0.018329340097333516,True
61910,14822,0,14823,3841.0,42279.0,39958.0,0.000366,0.000976,-0.000793,0.42000000000000004,-1.54,-3.7275000000000005,1.03984375,0.3635625,0.2101875,1.281875,1.0225312500000001,-0.13246875,-0.23434375000000002,1.25271875,0.020554517448613707,0.018343028166380615,True
61911,14823,0,14824,3840.0,42279.0,39955.0,-0.001403,-6.1e-05,0.001952,0.31500000000000006,-1.435,-3.7100000000000004,1.0415625,0.3604375,0.2038125,1.28846875,1.02228125,-0.13109375,-0.2336875,1.26315625,0.020369207259824267,0.01805338126935903,True
61912,14824,0,14825,3840.0,42280.0,39959.0,-0.001464,-0.000732,0.0008539999999999999,0.2625,-1.4175000000000002,-3.7275000000000005,1.04575,0.3628125,0.20853125,1.29278125,1.0266250000000001,-0.1250625,-0.2336875,1.2601875,0.02022274553692866,0.0182480998816214,True
61913,14825,0,14826,3839.0,42279.0,39956.0,-0.000915,0.0006709999999999999,0.00042699999999999997,0.3325,-1.4700000000000002,-3.6925000000000003,1.06390625,0.3639375,0.21131250000000001,1.277125,1.02575,-0.13353125,-0.23578125,1.2605,0.02061317694649431,0.01844767228207261,True
61914,14826,0,14827,3837.0,42279.0,39958.0,0.000122,0.000732,-0.000366,0.36750000000000005,-1.5575,-3.6225000000000005,1.04575,0.3605,0.20509375,1.28821875,1.02246875,-0.132375,-0.23421875,1.25790625,0.02042380826586691,0.018127776452459398,True
61915,14827,0,14828,3837.0,42277.0,39956.0,0.00042699999999999997,0.000793,-0.0018909999999999999,0.35000000000000003,-1.6275000000000002,-3.7100000000000004,1.0535,0.35925,0.20640625,1.28484375,1.02625,-0.1325625,-0.23450000000000001,1.2629375,0.020379621931985052,0.018193329757164374,True
61916,14828,0,14829,3837.0,42278.0,39958.0,-6.1e-05,-0.000122,-0.0008539999999999999,0.4025,-1.6275000000000002,-3.7800000000000002,1.052625,0.3604375,0.20828125,1.28884375,1.02715625,-0.13353125,-0.23571875,1.2645,0.020468150511541904,0.018320067359256675,True
