frame_seq,absolute_seq_u64,segment_id,sample_seq,PPG_G,PPG_R,PPG_IR,ACC_X,ACC_Y,ACC_Z,GYRO_X,GYRO_Y,GYRO_Z,Uh1,Uh2,Uh3,Uh4,Uc1,Uc2,Uc3,Uc4,UD1,UD2,parser_valid
23372,46464,0,46465,4494.0,44192.0,42625.0,0.00122,-0.005307,-0.0013419999999999999,0.24500000000000002,-1.4000000000000001,-3.7975000000000003,0.9165625000000001,0.00925,-0.25709375,0.942625,0.88384375,-0.45984375,-0.97684375,0.8285625,0.019178117194636617,0.028816691460465255,True
23373,46465,0,46466,4493.0,44191.0,42624.0,-0.0011589999999999999,-0.005246,-0.005612,0.15750000000000003,-1.3475000000000001,-3.7450000000000006,0.9116562500000001,0.0085,-0.25728125,0.93215625,0.87721875,-0.4623125,-0.97796875,0.8287187500000001,0.01924644287002711,0.028852926641602914,True
23374,46466,0,46467,4490.0,44191.0,42624.0,-0.004575,-0.00122,-0.0055509999999999995,0.21000000000000002,-1.1900000000000002,-3.6225000000000005,0.91721875,0.0090625,-0.25684375,0.94253125,0.88046875,-0.4604375,-0.977875,0.8299375,0.01919426011901872,0.02886679711544717,True
23375,46467,0,46468,4491.0,44191.0,42623.0,-0.0060999999999999995,0.0,0.002745,0.5075000000000001,-0.9800000000000001,-3.6925000000000003,0.9114375,0.00940625,-0.25825,0.9359375,0.878125,-0.4600625,-0.9809687500000001,0.82415625,0.019193276795592816,0.02893077355136598,True
23376,46468,0,46469,4490.0,44192.0,42624.0,0.0013419999999999999,-0.010858,0.000183,0.29750000000000004,-2.2925000000000004,-3.9375000000000004,0.91046875,0.0090625,-0.25796875,0.93684375,0.87821875,-0.46403125,-0.97890625,0.82325,0.019338339833096803,0.028861852187783442,True
23377,46469,0,46470,4491.0,44192.0,42626.0,0.008113,-0.002928,-0.013663999999999999,0.0,-3.1850000000000005,-4.2525,0.91628125,0.009375,-0.257,0.94315625,0.8868125,-0.459625,-0.9779375,0.8246875,0.019174455863489325,0.028862971572412657,True
23378,46470,0,46471,4489.0,44192.0,42625.0,0.00976,0.01342,-0.012993,0.10500000000000001,-2.9050000000000002,-4.1475,0.911875,0.0068125,-0.25921875,0.9381875000000001,0.87753125,-0.46328125000000003,-0.979,0.8243125,0.019216299939322327,0.02881545498218504,True
23379,46471,0,46472,4492.0,44194.0,42626.0,0.004575,0.022935999999999998,-0.000488,0.7350000000000001,-1.5750000000000002,-4.0075,0.9116875,0.00665625,-0.2568125,0.9472812500000001,0.871,-0.4618125,-0.9779375,0.82940625,0.019151023661881147,0.028870478197008862,True
23380,46472,0,46473,4492.0,44194.0,42629.0,-0.003111,0.019154,0.012931999999999999,1.0850000000000002,-0.6300000000000001,-3.9725000000000006,0.9115625,0.010125,-0.26578125,0.9284375,0.8783125,-0.46009375,-0.97496875,0.8239375,0.01922391446271542,0.02839593142634063,True
23381,46473,0,46474,4493.0,44196.0,42629.0,0.004514,-0.000305,0.016042999999999998,0.77,-1.61,-4.2,0.90553125,0.00046875,-0.2579375,0.9310625,0.876375,-0.46359375,-0.978,0.83015625,0.018969514648680758,0.028827868524301387,True
23382,46474,0,46475,4494.0,44196.0,42631.0,0.011041,-0.00549,0.00671,0.3325,-2.2925000000000004,-4.357500000000001,0.92671875,0.0115,-0.26106250000000003,0.93515625,0.881,-0.4603125,-0.98203125,0.82453125,0.019288899109526914,0.028859492760421553,True
23383,46475,0,46476,4496.0,44196.0,42633.0,0.008296,-0.008418,-0.00549,0.08750000000000001,-2.4325,-4.0600000000000005,0.90465625,0.00615625,-0.25890625,0.93078125,0.87953125,-0.463125,-0.978125,0.82428125,0.019183209422344853,0.028793944701613915,True
23384,46476,0,46477,4496.0,44196.0,42635.0,-0.0021349999999999997,-0.011346,-0.015189,-0.07,-1.8375000000000001,-3.5000000000000004,0.9278125,0.01115625,-0.25906250000000003,0.9372812500000001,0.88521875,-0.46028125000000003,-0.98078125,0.8235,0.019273592776043815,0.02889095992544268,True
23385,46477,0,46478,4499.0,44198.0,42640.0,-0.010431,-0.013054,-0.012199999999999999,-0.035,-0.9975,-3.08,0.9038125,0.0064375000000000005,-0.25634375,0.9304375,0.8843125000000001,-0.4605625,-0.978125,0.82315625,0.01909195669559929,0.028896534467659205,True
23386,46478,0,46479,4499.0,44198.0,42641.0,-0.01098,-0.00793,-0.006405,0.12250000000000001,-0.9975,-3.4825000000000004,0.9283750000000001,0.0028125,-0.2591875,0.9266875,0.88175,-0.4608125,-0.97771875,0.8244375,0.018953785774695753,0.028766888489366146,True
23387,46479,0,46480,4502.0,44199.0,42642.0,-0.0059169999999999995,-0.000244,-0.0034159999999999998,0.29750000000000004,-1.33,-3.7625,0.9022187500000001,0.0005625000000000001,-0.25906250000000003,0.9318125,0.8795625,-0.4625625,-0.9785312500000001,0.82325,0.018931990465021805,0.028803484992737518,True
23388,46480,0,46481,4504.0,44199.0,42643.0,0.000122,0.008418,0.0008539999999999999,0.5775,-1.5225000000000002,-4.0425,0.9204687500000001,0.0009375,-0.25534375,0.93465625,0.88503125,-0.46059375,-0.9775,0.82875,0.01886835841832335,0.02891227104393955,True
23389,46481,0,46482,4504.0,44199.0,42644.0,0.0013419999999999999,0.01464,0.007259,0.77,-1.4700000000000002,-4.2525,0.92915625,0.01021875,-0.25796875,0.935875,0.8834062500000001,-0.4596875,-0.980375,0.81875,0.01921145762798482,0.02891895137683081,True
23390,46482,0,46483,4508.0,44201.0,42646.0,0.0021349999999999997,0.012749,0.011346,0.77,-1.4875,-4.2,0.9060625,0.000625,-0.2539375,0.94321875,0.879375,-0.46228125000000003,-0.97740625,0.83025,0.01892326579312794,0.028964927052823993,True
23391,46483,0,46484,4509.0,44201.0,42650.0,0.009333,0.001281,0.007503,0.47250000000000003,-2.555,-3.7625,0.90859375,0.01059375,-0.259375,0.9333125,0.8774375,-0.4538125,-0.9806875,0.82421875,0.018991159353986212,0.028874805787470825,True
23392,46484,0,46485,4511.0,44204.0,42651.0,0.015311,-0.002745,0.0006709999999999999,0.15750000000000003,-3.1500000000000004,-3.8500000000000005,0.9167500000000001,0.0098125,-0.260125,0.9369375,0.88503125,-0.46015625,-0.9801562500000001,0.81421875,0.019213644638921716,0.028824129152514814,True
23393,46485,0,46486,4512.0,44199.0,42655.0,0.013908,-0.004941,-0.0062829999999999995,0.0,-2.9925,-3.9200000000000004,0.91628125,0.00903125,-0.2565625,0.936875,0.884375,-0.4610625,-0.97690625,0.8276875,0.01921804296113466,0.02884039131147397,True
23394,46486,0,46487,4514.0,44202.0,42657.0,0.005246,-0.0060999999999999995,-0.011895,0.0,-2.4675000000000002,-3.8500000000000005,0.91090625,0.0073125,-0.25784375,0.93725,0.8780625,-0.4605625,-0.9788125,0.82425,0.019127728563069633,0.028863211571807105,True
23395,46487,0,46488,4515.0,44203.0,42657.0,-0.0048189999999999995,-0.005856,-0.010309,0.0175,-1.2425000000000002,-3.6750000000000003,0.91659375,0.0076875,-0.256875,0.9363750000000001,0.871625,-0.45959375,-0.9782500000000001,0.8230937500000001,0.019104211409889015,0.028880125709367155,True
23396,46488,0,46489,4518.0,44204.0,42660.0,-0.018788,-0.001403,0.001098,0.45500000000000007,0.35000000000000003,-3.5525,0.918,0.00846875,-0.2569375,0.942625,0.884,-0.4610625,-0.97746875,0.8318125000000001,0.01919504723067528,0.02884724858278524,True
23397,46489,0,46490,4520.0,44205.0,42662.0,-0.015799,0.000732,0.0060999999999999995,0.6300000000000001,0.0,-3.5700000000000003,0.9105,0.00915625,-0.25759375,0.9370625,0.8789375,-0.46009375,-0.9806875,0.8236875,0.019184309136182277,0.028946110870647582,True
23398,46490,0,46491,4522.0,44209.0,42669.0,-0.0053679999999999995,0.0021349999999999997,0.008296,0.5950000000000001,-0.8575,-3.7275000000000005,0.9126875,0.00575,-0.25659375,0.9433750000000001,0.8780625,-0.46378125000000003,-0.97771875,0.83128125,0.019192914014467818,0.028870731039038543,True
23399,46491,0,46492,4521.0,44208.0,42668.0,0.005673,0.004331,0.007259,0.45500000000000007,-1.9075000000000002,-3.9025000000000003,0.91078125,0.00675,-0.25775,0.94153125,0.87034375,-0.4630625,-0.975,0.828125,0.019204974847282508,0.028718718718718714,True
23400,46492,0,46493,4521.0,44208.0,42670.0,0.01159,0.0053679999999999995,0.00244,0.35000000000000003,-2.6075000000000004,-3.99,0.91146875,0.0065625,-0.25684375,0.94371875,0.8775937500000001,-0.463,-0.9781562500000001,0.8333125,0.019194804398479336,0.028877731918263583,True
23401,46493,0,46494,4524.0,44207.0,42672.0,0.00976,0.0021349999999999997,-0.0034159999999999998,0.28,-2.5725000000000002,-3.8150000000000004,0.9116562500000001,0.0083125,-0.257,0.94359375,0.8758750000000001,-0.4638125,-0.9774375000000001,0.81903125,0.019298913446136004,0.028843531286986506,True
23402,46494,0,46495,4525.0,44207.0,42673.0,0.0032329999999999998,-0.002623,-0.0040869999999999995,0.385,-1.9775000000000003,-3.7450000000000006,0.9101875,0.006125,-0.25603125,0.94253125,0.87709375,-0.46303125,-0.97759375,0.830125,0.019178173187347745,0.028888391220631495,True
23403,46495,0,46496,4526.0,44208.0,42672.0,-0.002196,-0.0068319999999999995,-0.0044529999999999995,0.4025,-1.4700000000000002,-3.6925000000000003,0.9108437500000001,0.006,-0.25759375,0.93996875,0.8779375,-0.4606875,-0.9785625,0.82396875,0.019079083529438823,0.028863500451637276,True
23404,46496,0,46497,4526.0,44207.0,42668.0,-0.004697,-0.006527,-0.003965,0.45500000000000007,-1.1900000000000002,-3.6225000000000005,0.9109375000000001,0.00609375,-0.25721875,0.94140625,0.880375,-0.45975,-0.974,0.8245,0.019045319351178976,0.02870109914310883,True
23405,46497,0,46498,4523.0,44206.0,42665.0,-0.005856,-0.004026,-0.0013419999999999999,0.43750000000000006,-0.9800000000000001,-3.7100000000000004,0.91209375,0.00871875,-0.257,0.94240625,0.8788750000000001,-0.45971875,-0.97840625,0.8265,0.019151385377233744,0.02888119613316002,True
23406,46498,0,46499,4517.0,44202.0,42656.0,-0.004209,0.00061,0.002013,0.36750000000000005,-0.8400000000000001,-3.7800000000000002,0.907875,0.00684375,-0.25675,0.94284375,0.8713125,-0.461125,-0.97778125,0.82921875,0.01913112132005376,0.02886690546222956,True
23407,46499,0,46500,4511.0,44198.0,42646.0,-0.00183,0.0040869999999999995,0.003721,0.4025,-0.9450000000000001,-3.7975000000000003,0.9107500000000001,0.007875,-0.25615625000000003,0.9369375,0.87840625,-0.46287500000000004,-0.977625,0.8245,0.019243445424955163,0.028884601718538086,True
23408,46500,0,46501,4501.0,44195.0,42636.0,-0.000366,0.0051849999999999995,0.005978,0.4025,-0.8750000000000001,-3.7800000000000002,0.9127500000000001,0.00590625,-0.25675,0.9360625,0.88271875,-0.46171875,-0.9779375,0.825625,0.01911660438823417,0.0288729804052076,True
23409,46501,0,46502,4493.0,44193.0,42627.0,-0.0006709999999999999,0.003355,0.004209,0.31500000000000006,-1.0325000000000002,-3.8675,0.9160625,0.00975,-0.25671875,0.94159375,0.88428125,-0.4601875,-0.9790625000000001,0.82915625,0.01921234250555111,0.028917968798869053,True
23410,46502,0,46503,4486.0,44188.0,42617.0,0.000732,0.000366,0.001098,0.3325,-1.5050000000000001,-3.9550000000000005,0.91059375,0.009625,-0.258375,0.9361875000000001,0.87775,-0.46234375,-0.97684375,0.82321875,0.019293684808921876,0.028765393946142612,True
23411,46503,0,46504,4476.0,44187.0,42610.0,0.00488,-0.0011589999999999999,-0.004209,0.052500000000000005,-1.9425000000000001,-3.99,0.9104375,0.00853125,-0.25275000000000003,0.9373750000000001,0.883625,-0.461,-0.97803125,0.83134375,0.019195096275704183,0.029036766058173617,True
23412,46504,0,46505,4471.0,44180.0,42605.0,0.004697,-0.0008539999999999999,-0.0042699999999999995,0.052500000000000005,-1.8725000000000003,-3.9375000000000004,0.91325,0.0096875,-0.2571875,0.93790625,0.877625,-0.46071875,-0.9782500000000001,0.824625,0.019231088620402865,0.028867614824897664,True
23413,46505,0,46506,4466.0,44180.0,42602.0,0.0035989999999999998,-0.001098,-0.002623,0.08750000000000001,-1.6450000000000002,-3.7800000000000002,0.91440625,0.0093125,-0.2564375,0.9416875,0.8888125,-0.46046875,-0.9835,0.8205625,0.019205733741304527,0.029101707126703628,True
23414,46506,0,46507,4460.0,44177.0,42597.0,-0.001098,0.0006709999999999999,-6.1e-05,0.1925,-1.2950000000000002,-3.8325000000000005,0.911,0.00784375,-0.256375,0.9421875000000001,0.8795937500000001,-0.46184375,-0.97765625,0.83428125,0.01920082168785826,0.028877058871366285,True
23415,46507,0,46508,4460.0,44176.0,42598.0,-0.0035989999999999998,0.002257,0.00042699999999999997,0.07,-0.8225000000000001,-3.7625,0.91125,0.0091875,-0.25371875,0.94090625,0.87375,-0.46484375,-0.97546875,0.8375,0.01937601788280377,0.028898356512327722,True
23416,46508,0,46509,4458.0,44176.0,42597.0,-0.0059169999999999995,-0.000122,0.0026839999999999998,0.2625,-0.5075000000000001,-3.8850000000000002,0.91121875,0.006625,-0.2569375,0.95465625,0.87334375,-0.46315625,-0.9763125,0.83546875,0.01920362381693899,0.02880229016993602,True
23417,46509,0,46510,4457.0,44174.0,42596.0,-0.0048189999999999995,-0.0008539999999999999,0.0030499999999999998,0.29750000000000004,-0.8750000000000001,-3.9200000000000004,0.9125625,0.017656250000000002,-0.25846875,0.93515625,0.87540625,-0.45821875,-0.979,0.82128125,0.019456649924680224,0.02884548020337083,True
23418,46510,0,46511,4456.0,44176.0,42600.0,-0.001281,-0.0034159999999999998,0.001586,0.24500000000000002,-1.12,-3.9025000000000003,0.9097500000000001,0.00309375,-0.25525000000000003,0.95678125,0.8813125,-0.46337500000000004,-0.97503125,0.8348125000000001,0.019068045598777766,0.028820034008966457,True
23419,46511,0,46512,4457.0,44177.0,42600.0,0.0017079999999999999,-0.002013,-0.001586,0.10500000000000001,-1.4525000000000001,-3.9200000000000004,0.89796875,-0.0015,-0.25115625,0.9430625,0.87365625,-0.46740625,-0.97459375,0.82928125,0.019041914179195027,0.028966937650387204,True
23420,46512,0,46513,4459.0,44180.0,42605.0,0.005856,0.000122,-0.0034159999999999998,0.035,-1.6450000000000002,-4.112500000000001,0.91696875,0.01071875,-0.26206250000000003,0.92684375,0.8830625,-0.45909375,-0.9828125,0.820625,0.01920809106020128,0.028849834261054474,True
23421,46513,0,46514,4461.0,44178.0,42607.0,0.0040869999999999995,0.000305,-0.0026839999999999998,0.21000000000000002,-1.6625,-3.9725000000000006,0.9111250000000001,-0.00021875,-0.25015625,0.9576875,0.88109375,-0.45815625,-0.9754375000000001,0.8358125000000001,0.018723304214723874,0.029039781585407664,True
23422,46514,0,46515,4461.0,44178.0,42609.0,0.002989,0.00042699999999999997,-0.000122,0.22750000000000004,-1.435,-3.9200000000000004,0.89859375,0.0055,-0.25906250000000003,0.927125,0.87390625,-0.46175,-0.976625,0.820625,0.019101249910574675,0.02872936195342645,True
23423,46515,0,46516,4463.0,44181.0,42614.0,0.0013419999999999999,0.000732,0.000915,0.15750000000000003,-1.2600000000000002,-4.0075,0.93203125,0.01815625,-0.2623125,0.92621875,0.88834375,-0.4591875,-0.981875,0.819625,0.019515928319368745,0.02880338245227791,True
23424,46516,0,46517,4465.0,44181.0,42617.0,0.000732,0.0015249999999999999,0.002074,0.385,-1.0325000000000002,-4.0600000000000005,0.9098125,0.002125,-0.2524375,0.9577187500000001,0.8758125,-0.4624375,-0.9755,0.82896875,0.01899085076865296,0.02895087185441733,True
23425,46517,0,46518,4467.0,44181.0,42619.0,-0.0034159999999999998,0.0023179999999999997,0.002928,0.47250000000000003,-0.8225000000000001,-3.9200000000000004,0.89896875,0.00484375,-0.24678125,0.94140625,0.8731875,-0.46459375,-0.9752500000000001,0.82584375,0.019188444525059814,0.029167625949690194,True
23426,46518,0,46519,4473.0,44181.0,42622.0,-0.004026,0.00042699999999999997,0.00183,0.42000000000000004,-0.8925000000000001,-3.99,0.8924375,0.00196875,-0.24884375,0.95134375,0.8775937500000001,-0.46003125,-0.97609375,0.82934375,0.018887956244945516,0.029117843938265966,True
23427,46519,0,46520,4474.0,44184.0,42625.0,-0.002196,-0.00122,0.000244,0.3325,-1.1375000000000002,-3.7625,0.8980625,-0.001375,-0.25134375000000003,0.9513125,0.878375,-0.4633125,-0.9770625000000001,0.8319375,0.0188828679681053,0.029055408337149334,True
23428,46520,0,46521,4475.0,44182.0,42627.0,-0.001769,-0.0018909999999999999,-0.0011589999999999999,0.21000000000000002,-1.2600000000000002,-3.7800000000000002,0.8978125,0.000375,-0.25,0.95034375,0.8777812500000001,-0.4618125,-0.975875,0.83140625,0.018894245878141695,0.029063045839234865,True
23429,46521,0,46522,4477.0,44186.0,42628.0,-0.0015249999999999999,-0.0013419999999999999,-0.0034159999999999998,0.12250000000000001,-1.4000000000000001,-3.9725000000000006,0.90240625,0.00434375,-0.24925,0.93375,0.8739375,-0.4594375,-0.9764375000000001,0.8299375,0.018961239398902773,0.029114940831733913,True
23430,46522,0,46523,4476.0,44185.0,42629.0,0.001037,-0.000488,-0.001464,0.24500000000000002,-1.4875,-3.8325000000000005,0.91015625,0.00934375,-0.2566875,0.938125,0.878125,-0.46290625,-0.976,0.82465625,0.019304738168630313,0.02880014814221653,True
23431,46523,0,46524,4478.0,44184.0,42627.0,0.001464,0.0,-6.1e-05,0.31500000000000006,-1.5050000000000001,-3.9025000000000003,0.91840625,0.010625,-0.25646875,0.93390625,0.886125,-0.46009375,-0.9803437500000001,0.82384375,0.019244355921571234,0.028977783782498993,True
23432,46524,0,46525,4478.0,44183.0,42627.0,0.000793,0.000366,0.001281,0.29750000000000004,-1.61,-3.99,0.9050312500000001,0.0061875,-0.25603125,0.94234375,0.88675,-0.45946875000000004,-0.9801875,0.82271875,0.019037872603018004,0.028989223959988295,True
23433,46525,0,46526,4477.0,44184.0,42628.0,0.001037,0.00061,0.000549,0.47250000000000003,-1.6450000000000002,-4.077500000000001,0.9119375000000001,0.008843750000000001,-0.25584375,0.94178125,0.8779375,-0.45984375,-0.976625,0.83203125,0.019161508339561654,0.02885823244733826,True
23434,46526,0,46527,4477.0,44186.0,42627.0,0.00244,6.1e-05,0.000915,0.5075000000000001,-1.5925000000000002,-3.8325000000000005,0.9108437500000001,0.00909375,-0.25365625,0.9363750000000001,0.878375,-0.46221875,-0.9765625,0.8301875,0.01926695631400974,0.028943384422896463,True
23435,46527,0,46528,4475.0,44184.0,42623.0,0.00183,0.0008539999999999999,-0.00042699999999999997,0.28,-1.6625,-3.9200000000000004,0.91709375,0.010125,-0.2570625,0.9350937500000001,0.87771875,-0.46065625,-0.97696875,0.8240937500000001,0.019246468499797505,0.028822803007270446,True
23436,46528,0,46529,4474.0,44184.0,42622.0,0.001647,0.000549,-0.00061,0.1925,-1.5225000000000002,-3.7625,0.91878125,0.008937500000000001,-0.25803125,0.94446875,0.8765000000000001,-0.45825,-0.97984375,0.825125,0.019101427943536434,0.028895797236521945,True
23437,46529,0,46530,4472.0,44186.0,42624.0,-0.000366,-0.00042699999999999997,0.0008539999999999999,0.28,-1.3125000000000002,-3.6400000000000006,0.89875,0.00659375,-0.25565625000000003,0.94484375,0.8839375,-0.4603125,-0.97703125,0.8304375,0.019088319088319088,0.028881534910198747,True
23438,46530,0,46531,4471.0,44188.0,42623.0,0.000183,0.00042699999999999997,-0.000732,0.31500000000000006,-1.33,-3.6575,0.90571875,0.0065625,-0.25609375,0.9366875,0.87790625,-0.46228125000000003,-0.97284375,0.83046875,0.0191659864102004,0.028701176653139475,True
23439,46531,0,46532,4471.0,44188.0,42623.0,-0.002623,-0.001098,-0.001464,0.31500000000000006,-1.2775,-3.6750000000000003,0.9111250000000001,0.006,-0.25090625,0.9371875000000001,0.8789375,-0.46225,-0.97721875,0.8311875,0.01914173880162291,0.029078998237143598,True
23440,46532,0,46533,4471.0,44190.0,42625.0,-0.001647,6.1e-05,0.0013419999999999999,0.24500000000000002,-1.05,-3.5000000000000004,0.9108437500000001,0.00615625,-0.25609375,0.94203125,0.870625,-0.46365625,-0.9765625,0.83059375,0.019204508729147956,0.028845792930872693,True
23441,46533,0,46534,4472.0,44188.0,42628.0,-0.002257,-0.001281,0.000793,0.28,-1.12,-3.5175000000000005,0.91146875,0.00671875,-0.25553125,0.9444375,0.8776875000000001,-0.46246875,-0.96996875,0.828125,0.019179891645237156,0.02861187000884813,True
23442,46534,0,46535,4473.0,44190.0,42627.0,-0.000793,-0.0018909999999999999,0.0011589999999999999,0.31500000000000006,-1.2425000000000002,-3.535,0.91121875,0.00709375,-0.25621875,0.9450625,0.87825,-0.45928125000000003,-0.977875,0.8300000000000001,0.019067404116791045,0.028891819260045144,True
23443,46535,0,46536,4474.0,44188.0,42630.0,0.000305,0.0008539999999999999,-6.1e-05,0.31500000000000006,-1.3650000000000002,-3.5525,0.91134375,0.00628125,-0.25003125,0.9424375,0.87821875,-0.46187500000000004,-0.97696875,0.8276875,0.019138199749610365,0.029104312347750363,True
23444,46536,0,46537,4474.0,44189.0,42632.0,0.000793,0.001464,-0.0006709999999999999,0.385,-1.3475000000000001,-3.5700000000000003,0.91078125,0.00840625,-0.25615625000000003,0.9373750000000001,0.8776875000000001,-0.4600625,-0.9802500000000001,0.8236875,0.019152393825649466,0.02898664945306792,True
23445,46537,0,46538,4476.0,44190.0,42633.0,0.000976,-0.001037,0.000549,0.24500000000000002,-1.5925000000000002,-3.3775000000000004,0.9156875,0.01115625,-0.25784375,0.9370625,0.8825000000000001,-0.45940625,-0.97671875,0.8247187500000001,0.019238508702556913,0.028781803054094123,True
23446,46538,0,46539,4477.0,44190.0,42638.0,0.001037,0.000305,-0.000732,0.35000000000000003,-1.6275000000000002,-3.4825000000000004,0.916625,0.008937500000000001,-0.25528125,0.94384375,0.878375,-0.46268750000000003,-0.97678125,0.8300625,0.01927936168092733,0.028886828642101355,True
23447,46539,0,46540,4477.0,44190.0,42638.0,0.001464,0.001952,-0.001098,0.29750000000000004,-1.61,-3.3425000000000002,0.9108125,0.0090625,-0.258125,0.9421875000000001,0.8785937500000001,-0.46009375,-0.97659375,0.8299062500000001,0.019180476362646814,0.02876568186965046,True
23448,46540,0,46541,4481.0,44191.0,42641.0,-0.000549,0.000732,-0.001464,0.1925,-1.5575,-3.43,0.9111875,0.00671875,-0.257125,0.9363125,0.87615625,-0.45928125000000003,-0.9791875,0.82371875,0.01905207251337363,0.028906564715125347,True
23449,46541,0,46542,4483.0,44193.0,42643.0,-0.0013419999999999999,0.000305,6.1e-05,0.31500000000000006,-1.5225000000000002,-3.4825000000000004,0.9177500000000001,0.00990625,-0.25628125,0.94415625,0.8855937500000001,-0.4601875,-0.9761562500000001,0.83321875,0.01921873043696006,0.028822489449312285,True
23450,46542,0,46543,4485.0,44194.0,42645.0,-0.002745,-0.000793,0.000976,0.36750000000000005,-1.4000000000000001,-3.4825000000000004,0.9110625,0.00603125,-0.25603125,0.93815625,0.8786875000000001,-0.4643125,-0.9771875,0.83365625,0.019225708876961085,0.028872596244072714,True
23451,46543,0,46544,4486.0,44196.0,42650.0,-0.002989,0.0006709999999999999,0.000976,0.36750000000000005,-1.5750000000000002,-3.5525,0.91109375,0.006,-0.25490625,0.943125,0.8794062500000001,-0.46187500000000004,-0.973875,0.8205625,0.019126702266281718,0.028788834331876813,True
23452,46544,0,46545,4488.0,44193.0,42652.0,-0.001098,-6.1e-05,-0.001464,0.42000000000000004,-1.9075000000000002,-3.5525,0.91125,0.0073125,-0.2568125,0.94175,0.88996875,-0.45375,-0.9809687500000001,0.8190625,0.018854470173286307,0.028988317356587707,True
23453,46545,0,46546,4490.0,44196.0,42655.0,0.00042699999999999997,-0.00042699999999999997,-0.000366,0.45500000000000007,-1.9250000000000003,-3.6575,0.91153125,0.00959375,-0.25953125,0.9293750000000001,0.89496875,-0.45996875000000004,-0.972375,0.83384375,0.019197183152574553,0.028545292548265835,True
23454,46546,0,46547,4491.0,44199.0,42657.0,0.000976,-0.0021349999999999997,0.000915,0.385,-2.205,-3.5525,0.917625,0.01415625,-0.25546875,0.9362812500000001,0.8714375,-0.4683125,-0.96784375,0.83890625,0.019718104793700016,0.028531698897707174,True
23455,46547,0,46548,4494.0,44196.0,42658.0,0.003904,-0.00042699999999999997,-0.0021349999999999997,0.4025,-2.3625000000000003,-3.6225000000000005,0.90928125,0.00821875,-0.25675,0.93690625,0.87421875,-0.4581875,-0.98078125,0.8180937500000001,0.01906953448615111,0.028983531089525078,True
23456,46548,0,46549,4497.0,44201.0,42659.0,0.004026,0.001037,-0.0017079999999999999,0.4025,-2.31,-3.6050000000000004,0.91815625,0.010875000000000001,-0.256125,0.94396875,0.8763125,-0.46834375,-0.9736250000000001,0.820625,0.019585254927604163,0.02873031047755382,True
23457,46549,0,46550,4497.0,44200.0,42662.0,0.0040869999999999995,0.000122,0.0,0.49000000000000005,-2.1875,-3.6050000000000004,0.911375,0.007125,-0.2561875,0.9426875,0.8840625,-0.45765625,-0.97840625,0.81940625,0.01900350733729852,0.02891372422930306,True
23458,46550,0,46551,4498.0,44199.0,42666.0,0.000915,0.001403,0.001464,0.47250000000000003,-1.9075000000000002,-3.6400000000000006,0.91225,0.00978125,-0.25906250000000003,0.9380000000000001,0.89471875,-0.4590625,-0.97909375,0.82121875,0.019168508604939374,0.028825355203288744,True
23459,46551,0,46552,4500.0,44200.0,42666.0,-0.0023179999999999997,0.002623,0.0018909999999999999,0.47250000000000003,-1.5925000000000002,-3.6050000000000004,0.91796875,0.0093125,-0.25703125,0.9379375,0.88653125,-0.458625,-0.9792500000000001,0.8100625,0.019131799109721008,0.028912747580491813,True
23460,46552,0,46553,4502.0,44202.0,42669.0,-0.006771,-0.000488,0.001037,0.47250000000000003,-1.4000000000000001,-3.6225000000000005,0.9038437500000001,0.0093125,-0.25671875,0.9440000000000001,0.89325,-0.45796875000000004,-0.97775,0.81853125,0.019105480703502823,0.028866941578004426,True
23461,46553,0,46554,4504.0,44202.0,42670.0,-0.0046359999999999995,-0.001403,0.000305,0.4025,-1.61,-3.6925000000000003,0.90396875,0.009000000000000001,-0.256625,0.9422812500000001,0.8919375,-0.45834375,-0.97678125,0.8185625,0.01910774313980275,0.028833028675382264,True
23462,46554,0,46555,4504.0,44203.0,42671.0,-0.000244,-0.00244,-0.000976,0.4025,-2.0125,-3.7450000000000006,0.9118125,0.0105,-0.25615625000000003,0.9370937500000001,0.886,-0.4589375,-0.97559375,0.8223125,0.019192881947549846,0.028805621487977634,True
23463,46555,0,46556,4507.0,44202.0,42673.0,0.002806,-0.00244,-0.0013419999999999999,0.29750000000000004,-2.3800000000000003,-3.6750000000000003,0.91290625,0.00984375,-0.25759375,0.9308125,0.8830625,-0.46168750000000003,-0.97675,0.82465625,0.019276317302312034,0.028793027515589497,True
23464,46556,0,46557,4506.0,44204.0,42675.0,0.005795,-0.00042699999999999997,-0.003904,0.4025,-2.7125000000000004,-3.6400000000000006,0.9115625,0.01303125,-0.25671875,0.9439375,0.8835625,-0.46037500000000003,-0.972875,0.8300625,0.019354006224352654,0.028677364940960945,True
23465,46557,0,46558,4509.0,44202.0,42676.0,0.005124,0.002928,0.000793,0.47250000000000003,-2.3275,-3.8150000000000004,0.9118125,0.00725,-0.25534375,0.94165625,0.8735937500000001,-0.460125,-0.9764375000000001,0.8240625,0.019107629253734392,0.028870960880629997,True
23466,46558,0,46559,4511.0,44204.0,42679.0,0.001647,0.002196,0.0008539999999999999,0.43750000000000006,-1.9425000000000001,-3.6750000000000003,0.90971875,0.00965625,-0.25671875,0.937625,0.8788125,-0.45978125000000003,-0.97871875,0.8240625,0.01919221988136137,0.028904605045044593,True
23467,46559,0,46560,4514.0,44203.0,42679.0,-0.002989,0.001281,-0.000366,0.6825000000000001,-1.6625,-3.535,0.916875,0.0096875,-0.25828125,0.93671875,0.88515625,-0.46009375,-0.9793125,0.82421875,0.019206028186216584,0.028865135899957216,True
23468,46560,0,46561,4515.0,44204.0,42681.0,-0.0051849999999999995,0.000915,0.000488,0.77,-1.4525000000000001,-3.7100000000000004,0.9138437500000001,0.00978125,-0.25571875,0.94296875,0.8775937500000001,-0.4639375,-0.9756250000000001,0.83040625,0.019363961749820528,0.02882435374490128,True
23469,46561,0,46562,4514.0,44203.0,42677.0,-0.004941,-0.00244,0.0025009999999999998,0.7525000000000001,-1.4175000000000002,-3.7450000000000006,0.910625,0.00659375,-0.25528125,0.93403125,0.87796875,-0.4605,-0.9765,0.83075,0.019095838188099182,0.028875893339739354,True
23470,46562,0,46563,4511.0,44203.0,42669.0,-0.0008539999999999999,-0.003965,0.000366,0.5075000000000001,-2.1,-3.7800000000000002,0.9114375,0.0075,-0.25359375,0.94459375,0.8778750000000001,-0.45921875,-0.97675,0.81815625,0.0190815068449396,0.028953176454102315,True
23471,46563,0,46564,4505.0,44200.0,42660.0,0.002562,-0.0023179999999999997,-0.000793,0.3325,-2.2750000000000004,-3.8325000000000005,0.9120625,0.00509375,-0.25546875,0.9470000000000001,0.87746875,-0.46153125,-0.97603125,0.8279375,0.019075870403656763,0.028850160090987235,True
23472,46564,0,46565,4496.0,44199.0,42652.0,0.003843,0.000488,-0.00244,0.36750000000000005,-2.31,-3.9025000000000003,0.91171875,0.0106875,-0.26206250000000003,0.9354375,0.8846875000000001,-0.46053125,-0.9770625000000001,0.82478125,0.019264452811097472,0.028626264597768458,True
23473,46565,0,46566,4490.0,44192.0,42640.0,0.003843,0.0018909999999999999,-0.001403,0.43750000000000006,-2.3625000000000003,-3.8850000000000002,0.92540625,0.00975,-0.25753125,0.93765625,0.88321875,-0.45984375,-0.97609375,0.83015625,0.019198558862421188,0.028770011323327932,True
23474,46566,0,46567,4479.0,44189.0,42632.0,0.002196,0.00183,0.0006709999999999999,0.47250000000000003,-2.2225,-3.8675,0.9078125,0.00846875,-0.25353125,0.9465,0.8779375,-0.46287500000000004,-0.97571875,0.8305,0.019267716897543728,0.028915584261213705,True
23475,46567,0,46568,4472.0,44184.0,42623.0,6.1e-05,0.0006709999999999999,0.0006709999999999999,0.28,-1.9250000000000003,-3.8150000000000004,0.901875,0.00421875,-0.25478125,0.94584375,0.8784375,-0.46103125,-0.9760625,0.8289062500000001,0.01902004846995157,0.028878901548232434,True
23476,46568,0,46569,4465.0,44182.0,42619.0,0.000244,0.0011589999999999999,0.000549,0.28,-1.7675,-3.9025000000000003,0.90740625,0.00428125,-0.25628125,0.9334375,0.87828125,-0.46059375,-0.97746875,0.823875,0.019005057880085188,0.02887352226193857,True
23477,46569,0,46570,4458.0,44180.0,42614.0,-0.001037,0.001281,-0.000976,0.24500000000000002,-1.7500000000000002,-3.7975000000000003,0.91915625,0.01003125,-0.25284375,0.9464375,0.8855625,-0.46034375,-0.975,0.82165625,0.01923010587289886,0.028915165165165166,True
23478,46570,0,46571,4456.0,44180.0,42608.0,-0.00122,0.0006709999999999999,-0.001769,0.35000000000000003,-1.5050000000000001,-3.8500000000000005,0.90646875,0.0100625,-0.25434375,0.93653125,0.8776875000000001,-0.46075,-0.9765,0.82603125,0.019247672291323854,0.02891342862290553,True
23479,46571,0,46572,4452.0,44177.0,42607.0,-0.002806,0.000305,0.001281,0.4025,-1.3125000000000002,-3.9025000000000003,0.91278125,0.01103125,-0.2616875,0.9330625,0.88028125,-0.45884375,-0.97778125,0.8195,0.019210842703878836,0.028669229777965165,True
23480,46572,0,46573,4450.0,44174.0,42606.0,-0.003111,-0.000305,0.001952,0.385,-1.5225000000000002,-3.8500000000000005,0.9220625,0.0091875,-0.257125,0.93959375,0.8805000000000001,-0.45946875000000004,-0.9758125,0.8249375,0.019160524490132277,0.02877534014158698,True
23481,46573,0,46574,4450.0,44177.0,42605.0,-0.001952,-0.000122,0.000244,0.35000000000000003,-1.6450000000000002,-3.8675,0.90740625,0.00303125,-0.255375,0.93325,0.8788125,-0.458,-0.9760625,0.8246875,0.01884991618284406,0.028855128785812416,True
23482,46574,0,46575,4448.0,44178.0,42608.0,0.0011589999999999999,0.0,-0.001281,0.22750000000000004,-1.8550000000000002,-3.9550000000000005,0.9217500000000001,0.00909375,-0.254875,0.94771875,0.88128125,-0.459625,-0.97509375,0.82696875,0.01916295732252641,0.02883747933879127,True
23483,46575,0,46576,4450.0,44177.0,42607.0,0.001769,-0.001037,-0.000549,0.14,-1.9775000000000003,-3.9550000000000005,0.9080312500000001,0.00815625,-0.2545625,0.9399375,0.87853125,-0.46053125,-0.97596875,0.82521875,0.019160969776566075,0.02888401475918727,True
23484,46576,0,46577,4450.0,44178.0,42612.0,0.0034159999999999998,-0.001464,-0.002745,0.14,-2.0650000000000004,-3.8325000000000005,0.9136562500000001,0.00978125,-0.257125,0.9323750000000001,0.883125,-0.459625,-0.97503125,0.824125,0.019191064867102422,0.02874495902782904,True
23485,46577,0,46578,4451.0,44178.0,42613.0,0.0032329999999999998,0.000915,-0.00244,0.08750000000000001,-1.9075000000000002,-3.7975000000000003,0.9177500000000001,0.00934375,-0.25834375,0.9376875,0.87846875,-0.45975,-0.9758125,0.82028125,0.01917819070104968,0.02872654293028505,True
23486,46578,0,46579,4455.0,44180.0,42617.0,0.0011589999999999999,0.00061,-0.00183,0.31500000000000006,-1.8200000000000003,-3.7800000000000002,0.91815625,0.014375,-0.25546875,0.93759375,0.87746875,-0.46253125,-0.9749375,0.83615625,0.019495376219498952,0.028807629648722844,True
23487,46579,0,46580,4455.0,44176.0,42619.0,-0.0006709999999999999,0.00042699999999999997,0.00042699999999999997,0.43750000000000006,-1.4525000000000001,-3.7625,0.9109375000000001,0.0090625,-0.25521875,0.942625,0.87853125,-0.46559375000000003,-0.97678125,0.8159375,0.019400969984634035,0.028889330966134805,True
23488,46580,0,46581,4456.0,44182.0,42624.0,-0.00042699999999999997,0.000732,0.001586,0.45500000000000007,-1.2075,-3.7800000000000002,0.9110312500000001,0.008375,-0.25553125,0.94040625,0.8765625,-0.45721875,-0.98490625,0.817625,0.019037068554657307,0.02919262504737235,True
23489,46581,0,46582,4459.0,44184.0,42626.0,-0.000976,0.001586,0.002745,0.385,-1.2075,-3.8675,0.9110312500000001,0.00715625,-0.253875,0.94540625,0.87471875,-0.4409375,-0.9849375,0.8140937500000001,0.01833373822096636,0.029260129227859782,True
23490,46582,0,46583,4461.0,44183.0,42627.0,-0.0026839999999999998,0.000366,0.0023179999999999997,0.4025,-1.1375000000000002,-3.7100000000000004,0.9118125,0.0074687500000000006,-0.2561875,0.9411875000000001,0.886875,-0.45506250000000004,-0.9869375,0.81284375,0.018913517395426818,0.029245280659144404,True
23491,46583,0,46584,4464.0,44184.0,42631.0,-0.0023179999999999997,-0.000366,0.000305,0.36750000000000005,-1.2950000000000002,-3.7100000000000004,0.9151875,0.013625,-0.25821875,0.9390000000000001,0.88625,-0.46315625,-0.96996875,0.84128125,0.01948976841449067,0.0285042407191639,True
23492,46584,0,46585,4467.0,44186.0,42634.0,-0.0006709999999999999,-6.1e-05,-0.000732,0.24500000000000002,-1.3650000000000002,-3.5875000000000004,0.9107500000000001,0.0056875,-0.25540625,0.9345625000000001,0.87746875,-0.45571875,-0.98303125,0.80825,0.018867008355663236,0.029124768436576326,True
23493,46585,0,46586,4469.0,44186.0,42634.0,0.000732,-0.001037,-0.0023179999999999997,0.17500000000000002,-1.5925000000000002,-3.6575,0.917625,0.00965625,-0.25646875,0.9385,0.8913125000000001,-0.46184375,-0.97040625,0.84459375,0.019274916675076872,0.028591345004649254,True
23494,46586,0,46587,4469.0,44185.0,42635.0,0.001464,-0.001464,-0.001098,0.28,-1.6800000000000002,-3.6575,0.91071875,0.0081875,-0.25575000000000003,0.9430937500000001,0.8720625,-0.4528125,-0.983625,0.8135,0.018852637094403765,0.029134082824249882,True
23495,46587,0,46588,4469.0,44187.0,42635.0,0.000488,-0.0008539999999999999,-0.0011589999999999999,0.28,-1.5225000000000002,-3.6225000000000005,0.911625,0.009875,-0.25634375,0.93665625,0.90334375,-0.45646875000000003,-0.98475,0.8180937500000001,0.019068319092469147,0.02915403396071604,True
23496,46588,0,46589,4469.0,44187.0,42635.0,-0.000366,0.00061,-0.001098,0.35000000000000003,-1.2950000000000002,-3.6575,0.91234375,0.011875,-0.25659375,0.93725,0.9030625,-0.45859375,-0.9794375000000001,0.8195,0.019235314785830647,0.028937551135809203,True
23497,46589,0,46590,4468.0,44187.0,42634.0,-0.00183,-0.000244,0.000915,0.36750000000000005,-1.1900000000000002,-3.7450000000000006,0.9189375000000001,0.0098125,-0.25625,0.9419375,0.8796875000000001,-0.46315625,-0.96959375,0.8426875,0.01933392180332413,0.028568496433787595,True
23498,46590,0,46591,4468.0,44186.0,42632.0,-0.002013,-0.001037,0.0017079999999999999,0.45500000000000007,-1.225,-3.7800000000000002,0.9115,0.0078125,-0.25484375,0.94090625,0.87190625,-0.45725,-0.983625,0.8140625,0.019015322654836502,0.02917035658356223,True
23499,46591,0,46592,4468.0,44183.0,42631.0,-0.000915,0.002196,0.0006709999999999999,0.42000000000000004,-1.435,-3.7625,0.90096875,0.00871875,-0.25796875,0.93721875,0.8911875,-0.4575,-0.9772500000000001,0.82075,0.01906240417049985,0.028797455684673054,True
23500,46592,0,46593,4467.0,44183.0,42629.0,0.0008539999999999999,0.0021349999999999997,0.002074,0.5075000000000001,-1.5575,-3.8325000000000005,0.9104375,0.00978125,-0.2556875,0.9374375,0.883875,-0.45837500000000003,-0.97990625,0.82475,0.01914093843111,0.028992052362086025,True
23501,46593,0,46594,4466.0,44183.0,42630.0,0.0011589999999999999,0.000549,0.000366,0.45500000000000007,-1.8025000000000002,-3.7625,0.918375,0.00996875,-0.25846875,0.93775,0.88596875,-0.46009375,-0.97778125,0.8255625,0.019217526506822978,0.028798094306314737,True
23502,46594,0,46595,4465.0,44184.0,42628.0,0.000976,0.0,0.00061,0.31500000000000006,-1.8550000000000002,-3.7800000000000002,0.91690625,0.0100625,-0.25609375,0.9380937500000001,0.88628125,-0.45946875000000004,-0.9736250000000001,0.826375,0.01919629795720727,0.028731561797696575,True
23503,46595,0,46596,4464.0,44183.0,42627.0,0.001586,0.0,-0.0006709999999999999,0.28,-1.8025000000000002,-3.9025000000000003,0.91121875,0.0120625,-0.25625,0.9414375,0.87809375,-0.46128125000000003,-0.9758125,0.829875,0.019350734132129732,0.028810374036880682,True
23504,46596,0,46597,4464.0,44181.0,42627.0,0.0011589999999999999,-0.001037,-0.0017079999999999999,0.2625,-1.61,-3.8325000000000005,0.9115,0.009375,-0.2583125,0.93753125,0.88003125,-0.46025,-0.979625,0.824125,0.019199517584652652,0.028876033967683665,True
23505,46597,0,46598,4464.0,44182.0,42626.0,-0.000793,-0.000732,-0.00122,0.2625,-1.54,-3.8150000000000004,0.91471875,0.00946875,-0.2555,0.9376875,0.88053125,-0.46028125000000003,-0.97503125,0.81871875,0.019204603381246896,0.028810024011481465,True
23506,46598,0,46599,4464.0,44183.0,42628.0,-0.001403,-0.000915,-0.000122,0.29750000000000004,-1.4700000000000002,-3.8325000000000005,0.915625,0.01015625,-0.25546875,0.94225,0.87971875,-0.46037500000000003,-0.9754375000000001,0.83153125,0.019236469187410253,0.02882707259882835,True
23507,46599,0,46600,4465.0,44184.0,42630.0,-0.000976,-0.000549,0.001464,0.36750000000000005,-1.5050000000000001,-3.7625,0.9109375000000001,0.007875,-0.2554375,0.94034375,0.87896875,-0.46237500000000004,-0.97471875,0.8250000000000001,0.01922339919979152,0.028800374378590347,True
23508,46600,0,46601,4464.0,44185.0,42631.0,-0.00042699999999999997,-0.000549,0.000732,0.2625,-1.5575,-3.7275000000000005,0.9114375,0.012750000000000001,-0.2554375,0.9378125,0.8788750000000001,-0.4644375,-0.9750625,0.82546875,0.019505353433938548,0.028813741707353086,True
23509,46601,0,46602,4469.0,44187.0,42634.0,0.000305,-0.000183,-0.0008539999999999999,0.4025,-1.715,-3.6225000000000005,0.92584375,0.010125,-0.25640625,0.9364687500000001,0.88675,-0.4590625,-0.97665625,0.82728125,0.019182562700430564,0.028836926480100795,True
23510,46602,0,46603,4469.0,44184.0,42635.0,-6.1e-05,0.000305,6.1e-05,0.24500000000000002,-1.6800000000000002,-3.7450000000000006,0.90909375,0.00825,-0.24940625,0.9499375,0.87871875,-0.46221875,-0.97209375,0.8306250000000001,0.01923246434872143,0.02893980405627782,True
23511,46603,0,46604,4470.0,44185.0,42640.0,0.0006709999999999999,0.000305,-0.000488,0.22750000000000004,-1.715,-3.6400000000000006,0.90465625,0.0046875,-0.25271875,0.9506875,0.87825,-0.4635625,-0.9713125,0.82865625,0.01914071182396268,0.028776771345118524,True
23512,46604,0,46605,4472.0,44187.0,42641.0,0.002745,-0.001037,0.0013419999999999999,0.29750000000000004,-1.7850000000000001,-3.7625,0.9073125,0.00959375,-0.24915625,0.9450625,0.87903125,-0.45725,-0.97284375,0.8290625,0.0190881538194196,0.028978978415303627,True
23513,46605,0,46606,4475.0,44188.0,42643.0,0.001464,-0.000122,0.0006709999999999999,0.31500000000000006,-1.7850000000000001,-3.7625,0.904375,0.00596875,-0.25203125,0.9463125,0.87996875,-0.46034375,-0.97459375,0.82440625,0.019064020717206805,0.028931902045453692,True
23514,46606,0,46607,4475.0,44189.0,42643.0,-0.001464,0.000488,-0.00042699999999999997,0.22750000000000004,-1.6450000000000002,-3.6750000000000003,0.9059375000000001,0.00978125,-0.261625,0.93225,0.87825,-0.46021875,-0.9771562500000001,0.82496875,0.019214873129456377,0.028647426586043,True
23515,46607,0,46608,4477.0,44189.0,42648.0,-0.002013,0.00042699999999999997,-0.002745,0.31500000000000006,-1.6975000000000002,-3.6575,0.91309375,0.00415625,-0.24665625,0.94071875,0.8699687500000001,-0.45715625,-0.9746875,0.82796875,0.01886206618972719,0.029150765149714084,True
23516,46608,0,46609,4479.0,44191.0,42648.0,-0.0013419999999999999,0.000915,-0.000549,0.35000000000000003,-1.61,-3.6225000000000005,0.9199375000000001,0.0111875,-0.26178125,0.932625,0.88546875,-0.4600625,-0.9725,0.82484375,0.01926609958580441,0.02846005606166784,True
23517,46609,0,46610,4480.0,44191.0,42651.0,-0.001403,0.000305,0.000366,0.36750000000000005,-1.5575,-3.7275000000000005,0.91221875,0.01153125,-0.257125,0.9430937500000001,0.8825937500000001,-0.45925,-0.9765,0.83084375,0.01924757504829461,0.028802073949512542,True
23518,46610,0,46611,4483.0,44194.0,42651.0,-0.000488,-0.000549,-0.000549,0.45500000000000007,-1.6450000000000002,-3.7450000000000006,0.9071250000000001,0.00909375,-0.253875,0.95128125,0.87828125,-0.4623125,-0.971125,0.83040625,0.019270714900727397,0.028723175267433884,True
23519,46611,0,46612,4485.0,44191.0,42655.0,0.0013419999999999999,-0.0021349999999999997,0.001647,0.5075000000000001,-1.8725000000000003,-3.7975000000000003,0.90446875,0.005125,-0.2520625,0.94921875,0.87803125,-0.46084375,-0.9753125,0.833125,0.019049577960694834,0.028958596614156475,True
23520,46612,0,46613,4487.0,44191.0,42655.0,0.0023179999999999997,-6.1e-05,0.000366,0.385,-2.0300000000000002,-3.8150000000000004,0.90509375,0.006625,-0.25184375000000003,0.94340625,0.8774375,-0.4629375,-0.9756875,0.83003125,0.01919485343900339,0.0289819349317211,True
23521,46613,0,46614,4487.0,44194.0,42659.0,0.004148,0.00183,-0.000732,0.1925,-2.1700000000000004,-3.7625,0.9065625,0.00721875,-0.25490625,0.94090625,0.87871875,-0.4633125,-0.97509375,0.83234375,0.01923415931509684,0.02883622809223689,True
23522,46614,0,46615,4490.0,44197.0,42661.0,0.003172,0.001586,0.001037,0.35000000000000003,-2.1525000000000003,-3.6925000000000003,0.9120625,0.0074687500000000006,-0.2476875,0.93996875,0.8789375,-0.4629375,-0.975375,0.830125,0.019229344390877017,0.02913619915616883,True
23523,46615,0,46616,4492.0,44197.0,42664.0,0.000488,0.001403,-0.001037,0.3325,-1.9425000000000001,-3.6400000000000006,0.911625,0.00853125,-0.24959375,0.9381875000000001,0.87840625,-0.45915625,-0.97775,0.8251875,0.01912116244811184,0.029152195453954022,True
23524,46616,0,46617,4493.0,44197.0,42666.0,-0.002196,-0.0018909999999999999,0.000183,0.35000000000000003,-1.6975000000000002,-3.6050000000000004,0.9186875,0.0096875,-0.25906250000000003,0.9376875,0.88521875,-0.4595625,-0.9755312500000001,0.82425,0.01918472581020204,0.02868682723215347,True
23525,46617,0,46618,4495.0,44199.0,42668.0,-0.002074,-0.00183,0.001281,0.2625,-1.6275000000000002,-3.5525,0.9134375,0.0054375000000000005,-0.2563125,0.94184375,0.87834375,-0.45684375,-0.97578125,0.83234375,0.018901917791415746,0.028806656448434425,True
23526,46618,0,46619,4496.0,44199.0,42667.0,-0.000366,-0.000915,-0.000793,0.28,-1.6450000000000002,-3.5700000000000003,0.91159375,0.00684375,-0.25596875,0.9369375,0.87815625,-0.46237500000000004,-0.97546875,0.824875,0.01918124262259899,0.028808268113085966,True
23527,46619,0,46620,4498.0,44198.0,42672.0,0.000488,-0.00061,-0.00061,0.2625,-1.8025000000000002,-3.5000000000000004,0.9156875,0.010125,-0.25396875,0.936625,0.88521875,-0.4598125,-0.97709375,0.81946875,0.019212637055169575,0.02895152683646391,True
23528,46620,0,46621,4499.0,44199.0,42676.0,0.00122,-0.001098,-0.0006709999999999999,0.3325,-1.8025000000000002,-3.5000000000000004,0.91309375,0.00984375,-0.254375,0.9314687500000001,0.8873125000000001,-0.45965625,-0.9774375000000001,0.82440625,0.019194873190419428,0.02894862613508692,True
23529,46621,0,46622,4501.0,44200.0,42677.0,-0.00061,0.001952,0.00061,0.385,-1.61,-3.3425000000000002,0.91796875,0.00953125,-0.2560625,0.93765625,0.88096875,-0.46087500000000003,-0.96759375,0.83084375,0.019230965776980587,0.028498190779798312,True
23530,46622,0,46623,4504.0,44199.0,42679.0,-0.001464,0.002379,0.00042699999999999997,0.525,-1.715,-3.3950000000000005,0.9045,0.00615625,-0.25525000000000003,0.94546875,0.8785937500000001,-0.4623125,-0.97521875,0.83225,0.019150632222525978,0.028827325085991493,True
23531,46623,0,46624,4503.0,44198.0,42678.0,-0.001586,0.0025009999999999998,0.000122,0.5950000000000001,-1.6275000000000002,-3.3950000000000005,0.91178125,0.00765625,-0.25484375,0.9452812500000001,0.872,-0.46296875,-0.97359375,0.8297187500000001,0.019238261913734404,0.0287803992967572,True
23532,46624,0,46625,4507.0,44203.0,42681.0,-0.00183,-0.000122,0.000549,0.6125,-1.7325000000000002,-3.3950000000000005,0.9108125,0.0073437500000000005,-0.25453125,0.9451875000000001,0.87853125,-0.46215625,-0.97540625,0.83109375,0.019192911499778354,0.02886339436420579,True
23533,46625,0,46626,4506.0,44200.0,42679.0,-0.00061,-0.001952,0.001098,0.7350000000000001,-1.9425000000000001,-3.3075,0.911375,0.00778125,-0.25625,0.93703125,0.878625,-0.462,-0.97621875,0.8248125000000001,0.01920453151827324,0.02882617089506393,True
23534,46626,0,46627,4504.0,44198.0,42675.0,0.001403,-0.002257,6.1e-05,0.385,-1.8900000000000001,-3.3950000000000005,0.9186875,0.0098125,-0.2575,0.93196875,0.886375,-0.46009375,-0.975375,0.824625,0.019211138550930536,0.028743312162480043,True
23535,46627,0,46628,4500.0,44199.0,42667.0,0.000793,-0.001403,-0.0015249999999999999,0.4025,-1.8550000000000002,-3.3950000000000005,0.91321875,0.00759375,-0.2545,0.9422812500000001,0.878375,-0.46303125,-0.975125,0.8199062500000001,0.019238212762369748,0.028853709440893695,True
23536,46628,0,46629,4493.0,44194.0,42658.0,0.0008539999999999999,6.1e-05,-0.0011589999999999999,0.42000000000000004,-1.8900000000000001,-3.4650000000000003,0.91009375,0.00671875,-0.2550625,0.9374687500000001,0.8779375,-0.46203125,-0.97221875,0.8201875000000001,0.019162349815083326,0.028718163058698978,True
23537,46629,0,46630,4487.0,44189.0,42650.0,0.0015249999999999999,-0.000122,-0.000732,0.385,-1.9250000000000003,-3.4475000000000002,0.91703125,0.0099375,-0.25390625,0.93971875,0.8844375,-0.46015625,-0.97459375,0.8245,0.019218754990577788,0.02885682574916759,True
23538,46630,0,46631,4481.0,44190.0,42642.0,0.0026839999999999998,0.00122,0.000793,0.45500000000000007,-1.8375000000000001,-3.535,0.90465625,0.0073750000000000005,-0.258125,0.93659375,0.87628125,-0.45978125000000003,-0.9755625,0.82503125,0.01909895453378186,0.02872557925372051,True
23539,46631,0,46632,4474.0,44184.0,42636.0,-0.0008539999999999999,0.000488,0.000366,0.29750000000000004,-1.61,-3.3600000000000003,0.914125,0.008968750000000001,-0.2549375,0.9402812500000001,0.8805937500000001,-0.4599375,-0.975,0.83096875,0.019170378092748602,0.028831331331331332,True
23540,46632,0,46633,4468.0,44180.0,42627.0,-0.001769,-0.000183,0.0011589999999999999,0.35000000000000003,-1.4000000000000001,-3.325,0.91153125,0.01634375,-0.25540625,0.937625,0.87825,-0.459625,-0.9765625,0.82546875,0.019459364156237065,0.028873318736315292,True
23541,46633,0,46634,4461.0,44180.0,42626.0,-0.002989,0.0,0.000732,0.2625,-1.2950000000000002,-3.43,0.91159375,0.0079375,-0.2548125,0.940125,0.87821875,-0.46337500000000004,-0.9755625,0.8309062500000001,0.019266045670313276,0.02885820889919897,True
23542,46634,0,46635,4460.0,44179.0,42622.0,-0.003111,0.000122,0.00042699999999999997,0.3325,-1.3125000000000002,-3.43,0.90140625,0.01021875,-0.25503125,0.93825,0.8723125,-0.459625,-0.97875,0.8225,0.01920895148637806,0.028973377370765146,True
23543,46635,0,46636,4457.0,44177.0,42620.0,-0.0021349999999999997,0.001769,-0.000915,0.36750000000000005,-1.3650000000000002,-3.535,0.9164375,0.01053125,-0.25484375,0.9391875000000001,0.8711875,-0.46728125000000004,-0.97378125,0.83628125,0.019528630709633912,0.028787691091031718,True
23544,46636,0,46637,4454.0,44176.0,42620.0,-0.0008539999999999999,0.002196,0.000366,0.29750000000000004,-1.6275000000000002,-3.6050000000000004,0.91134375,0.00625,-0.25496875,0.9363125,0.87446875,-0.466375,-0.9735312500000001,0.83715625,0.01931732837414615,0.028772963374973252,True
23545,46637,0,46638,4455.0,44177.0,42620.0,-0.00183,0.001403,0.001098,0.35000000000000003,-1.6800000000000002,-3.6400000000000006,0.9118125,0.0056875,-0.25553125,0.95221875,0.8740625,-0.46471875,-0.97284375,0.83584375,0.01922794432288334,0.028723701120341973,True
23546,46638,0,46639,4453.0,44179.0,42620.0,-0.001586,-0.000305,0.001464,0.22750000000000004,-1.8200000000000003,-3.7450000000000006,0.912875,0.008375,-0.2528125,0.9379375,0.8696875000000001,-0.46484375,-0.9728125,0.822875,0.019342806961520038,0.02883135409758112,True
23547,46639,0,46640,4455.0,44178.0,42624.0,0.00042699999999999997,-0.002379,0.001281,0.17500000000000002,-2.0475000000000003,-3.7100000000000004,0.88815625,0.00875,-0.254,0.92709375,0.8845000000000001,-0.4601875,-0.97596875,0.821125,0.019171459744533846,0.02890653640812231,True
23548,46640,0,46641,4454.0,44177.0,42625.0,0.0042699999999999995,-0.00244,-0.003111,0.08750000000000001,-2.31,-3.7100000000000004,0.9352812500000001,0.013875,-0.259375,0.92703125,0.8914062500000001,-0.4583125,-0.9812500000000001,0.82171875,0.019305808608014147,0.028896672504378287,True
23549,46641,0,46642,4455.0,44179.0,42627.0,0.004575,-0.000976,-0.0053679999999999995,0.14,-2.7125000000000004,-3.7975000000000003,0.9286875,0.0141875,-0.2548125,0.95596875,0.89315625,-0.45715625,-0.97684375,0.8211875000000001,0.01927222221512364,0.028908026059137275,True
23550,46642,0,46643,4458.0,44178.0,42627.0,0.0044529999999999995,-0.00061,-0.0035989999999999998,0.17500000000000002,-2.6075000000000004,-3.6400000000000006,0.89234375,0.006,-0.2513125,0.9571875,0.87346875,-0.45887500000000003,-0.9739375,0.8370625,0.01900639338481431,0.028935164909418068,True
23551,46643,0,46644,4460.0,44179.0,42631.0,0.0035989999999999998,-6.1e-05,0.000183,0.22750000000000004,-2.2925000000000004,-3.6575,0.90246875,0.00421875,-0.26140625,0.9203125,0.8740625,-0.4625,-0.97359375,0.8213125,0.019078947368421053,0.02851762173796072,True
23552,46644,0,46645,4461.0,44180.0,42634.0,0.00183,-0.000244,0.00042699999999999997,0.22750000000000004,-1.9075000000000002,-3.5525,0.9364687500000001,0.012812500000000001,-0.25815625000000003,0.93125,0.8885937500000001,-0.45853125,-0.97478125,0.8230625,0.019271138776986045,0.028693945017035937,True
23553,46645,0,46646,4464.0,44182.0,42637.0,-0.003721,0.004209,0.001098,0.45500000000000007,-1.0850000000000002,-3.7800000000000002,0.9207500000000001,0.003875,-0.249625,0.961875,0.8828125,-0.4605625,-0.9713125,0.8338125000000001,0.018987196226579007,0.02890066351137931,True
23554,46646,0,46647,4466.0,44183.0,42641.0,-0.007503,0.0028669999999999998,0.001586,0.4025,-1.05,-3.7625,0.892,-0.0003125,-0.254125,0.92709375,0.8753125,-0.46309375,-0.9740625,0.8230625,0.01891752755106864,0.02882740843625262,True
23555,46647,0,46648,4468.0,44183.0,42644.0,-0.007076,-0.0017079999999999999,0.004026,0.36750000000000005,-1.2075,-3.7625,0.9220625,-0.0032187500000000003,-0.252,0.947875,0.88496875,-0.46134375,-0.9749375,0.83096875,0.01872852958047327,0.028946518885182397,True
23556,46648,0,46649,4472.0,44186.0,42646.0,-0.005429,-0.002196,0.002562,0.35000000000000003,-1.435,-3.7975000000000003,0.91196875,0.014750000000000001,-0.26040625,0.9272812500000001,0.87809375,-0.45921875,-0.97828125,0.8250625,0.019377918601754193,0.028739967847067144,True
23557,46649,0,46650,4472.0,44186.0,42649.0,-0.001098,-0.001098,0.00042699999999999997,0.22750000000000004,-1.8900000000000001,-3.9025000000000003,0.91246875,0.0061875,-0.2513125,0.93903125,0.8824062500000001,-0.45984375,-0.97428125,0.83215625,0.019052911979456123,0.02894853080106159,True
23558,46650,0,46651,4475.0,44186.0,42648.0,0.005124,-0.000122,-0.0018909999999999999,0.2625,-2.4675000000000002,-4.0075,0.90846875,0.0161875,-0.25771875,0.9381875000000001,0.8815625,-0.4599375,-0.97178125,0.82415625,0.01946550354022777,0.028594776353809366,True
23559,46651,0,46652,4474.0,44184.0,42645.0,0.00549,-0.001281,-0.00244,0.24500000000000002,-2.5725000000000002,-4.095000000000001,0.9175625000000001,0.0145,-0.25571875,0.9378125,0.883875,-0.4600625,-0.97746875,0.826125,0.019401524423741764,0.02889604255835572,True
23560,46652,0,46653,4475.0,44187.0,42649.0,0.003477,-0.000366,-0.002196,0.24500000000000002,-2.4325,-3.99,0.915125,0.0070625,-0.2551875,0.944125,0.86975,-0.463,-0.96928125,0.82396875,0.019215243428851735,0.028598890887177618,True
23561,46653,0,46654,4474.0,44185.0,42646.0,0.001403,0.0017079999999999999,-0.000183,0.28,-2.1525000000000003,-3.9725000000000006,0.91109375,0.01034375,-0.258,0.93815625,0.88478125,-0.46,-0.9759375,0.8253125,0.01922909852820932,0.02874516722345257,True
23562,46654,0,46655,4474.0,44185.0,42644.0,-0.001098,0.0021349999999999997,0.000488,0.49000000000000005,-1.8725000000000003,-4.077500000000001,0.91496875,0.008875000000000001,-0.25746875,0.93859375,0.8814062500000001,-0.46237500000000004,-0.97259375,0.8319062500000001,0.019264278304947906,0.02863639264543756,True
23563,46655,0,46656,4474.0,44188.0,42643.0,-0.002196,-0.000305,0.002074,0.385,-1.6275000000000002,-4.112500000000001,0.910875,0.00809375,-0.25571875,0.94275,0.87834375,-0.46128125000000003,-0.97575,0.824625,0.01918848792926577,0.02882921433790777,True
23564,46656,0,46657,4472.0,44188.0,42644.0,0.000122,-0.002257,0.002013,0.47250000000000003,-1.9600000000000002,-3.9550000000000005,0.91940625,0.01025,-0.25759375,0.9439062500000001,0.8844375,-0.45953125,-0.97421875,0.83146875,0.019206469870513155,0.02869459129727532,True
23565,46657,0,46658,4470.0,44187.0,42640.0,0.002074,-0.002074,0.001647,0.3325,-2.3975000000000004,-3.9200000000000004,0.902,0.01034375,-0.25478125,0.94334375,0.87225,-0.4595,-0.97459375,0.832375,0.019209049653508864,0.028821790144234076,True
23566,46658,0,46659,4468.0,44190.0,42640.0,0.0040869999999999995,0.000183,-0.001647,0.15750000000000003,-2.555,-3.8850000000000002,0.91128125,0.00753125,-0.25734375,0.92809375,0.87834375,-0.4590625,-0.97203125,0.8246875,0.019076518161724308,0.028619518085858556,True
23567,46659,0,46660,4469.0,44187.0,42638.0,0.004514,0.0008539999999999999,-0.002623,0.21000000000000002,-2.4850000000000003,-3.7975000000000003,0.9115,0.00790625,-0.25509375,0.94425,0.878375,-0.4609375,-0.97471875,0.8240937500000001,0.01916703928457362,0.028814138297353197,True
23568,46660,0,46661,4470.0,44186.0,42638.0,0.000976,0.000305,-0.000183,0.28,-2.0125,-3.6050000000000004,0.91059375,0.00934375,-0.25840625,0.93796875,0.885875,-0.45971875,-0.974,0.8250937500000001,0.01917693759254693,0.028653549691679346,True
23569,46661,0,46662,4468.0,44186.0,42637.0,-0.0013419999999999999,-0.000488,-0.000183,0.24500000000000002,-1.8375000000000001,-3.4475000000000002,0.9184687500000001,0.0094375,-0.25471875,0.9402812500000001,0.8829375,-0.46287500000000004,-0.9735,0.8259375,0.01930731772124086,0.028781758664184035,True
23570,46662,0,46663,4467.0,44186.0,42638.0,-0.002013,0.00061,0.000549,0.385,-1.5750000000000002,-3.4125000000000005,0.91153125,0.00603125,-0.254875,0.944125,0.8778750000000001,-0.4608125,-0.9748125,0.8300000000000001,0.019085373799418968,0.028826542741812372,True
23571,46663,0,46664,4468.0,44188.0,42641.0,-0.002928,0.0015249999999999999,0.000976,0.385,-1.3650000000000002,-3.43,0.91221875,0.010968750000000001,-0.25603125,0.9380000000000001,0.880125,-0.45796875000000004,-0.9778125,0.81753125,0.01917319891906396,0.02889689599519574,True
23572,46664,0,46665,4469.0,44186.0,42641.0,-0.004148,0.000915,0.000793,0.385,-1.3125000000000002,-3.3425000000000002,0.917875,0.0101875,-0.2581875,0.93721875,0.8819375,-0.46087500000000003,-0.9743125,0.8306250000000001,0.019257794334830623,0.02867446301074354,True
23573,46665,0,46666,4470.0,44187.0,42644.0,-0.004026,-0.0006709999999999999,0.001281,0.3325,-1.33,-3.5525,0.91678125,0.01003125,-0.254875,0.9379375,0.87834375,-0.46246875,-0.9744375000000001,0.83021875,0.01931530316211441,0.028811960229334497,True
23574,46666,0,46667,4470.0,44186.0,42643.0,-0.002196,-0.001403,0.000183,0.31500000000000006,-1.5925000000000002,-3.5700000000000003,0.91071875,0.0055625,-0.254125,0.9445625,0.8786875000000001,-0.4620625,-0.9746875,0.82503125,0.0191163357545996,0.028851712358763246,True
23575,46667,0,46668,4472.0,44188.0,42645.0,0.00061,-0.000732,0.001098,0.2625,-1.9075000000000002,-3.6225000000000005,0.9175625000000001,0.00959375,-0.2544375,0.938625,0.88225,-0.45959375,-0.9746875,0.8250000000000001,0.019182146064874853,0.028839199689685808,True
23576,46668,0,46669,4475.0,44185.0,42647.0,0.001403,-0.0008539999999999999,-0.000976,0.22750000000000004,-1.9775000000000003,-3.6925000000000003,0.91734375,0.0078125,-0.2550625,0.9381875000000001,0.8844062500000001,-0.46271875,-0.97496875,0.82453125,0.019234626159449264,0.02882511114253146,True
23577,46669,0,46670,4473.0,44186.0,42649.0,0.0028669999999999998,0.000549,-0.001586,0.2625,-2.0475000000000003,-3.6575,0.9199375000000001,0.0093125,-0.253625,0.9450000000000001,0.8821875,-0.46037500000000003,-0.97503125,0.83203125,0.019201974622220633,0.028885098992618877,True
23578,46670,0,46671,4476.0,44188.0,42650.0,0.00183,0.001037,-0.0008539999999999999,0.35000000000000003,-2.1875,-3.8325000000000005,0.9118125,0.010375,-0.2568125,0.93740625,0.88109375,-0.45909375,-0.980125,0.82453125,0.019194036982666213,0.028955519638112298,True
23579,46671,0,46672,4478.0,44188.0,42652.0,0.001403,0.000488,-0.000183,0.42000000000000004,-2.1175,-3.7800000000000002,0.9166562500000001,0.009125,-0.25856250000000003,0.9376875,0.89296875,-0.46015625,-0.97421875,0.82975,0.01918553770481331,0.028655801295085558,True
23580,46672,0,46673,4480.0,44190.0,42655.0,0.001586,-0.00061,0.000122,0.525,-1.9600000000000002,-3.7625,0.91534375,0.006125,-0.2544375,0.9449375,0.8743125,-0.4618125,-0.9689375,0.8199375,0.019129306137883283,0.02861555482687239,True
23581,46673,0,46674,4481.0,44190.0,42655.0,0.0,-0.000366,0.000183,0.525,-1.9075000000000002,-3.8150000000000004,0.91090625,0.0066875,-0.25528125,0.94434375,0.8904375,-0.45709375,-0.98140625,0.81759375,0.01896305647517911,0.02906661829735866,True
23582,46674,0,46675,4483.0,44191.0,42658.0,-0.000305,-0.0006709999999999999,0.000488,0.385,-1.8200000000000003,-3.7625,0.91153125,0.0090625,-0.25584375,0.9378125,0.8929375,-0.45703125,-0.98,0.8169375,0.019057658521003034,0.028989441553242595,True
23583,46675,0,46676,4484.0,44193.0,42658.0,0.0011589999999999999,0.000366,-0.00061,0.42000000000000004,-1.8375000000000001,-3.7275000000000005,0.91740625,0.010375,-0.2561875,0.9383750000000001,0.885875,-0.46025,-0.9704375000000001,0.8397187500000001,0.019240400241207677,0.028603824021905908,True
23584,46676,0,46677,4485.0,44192.0,42663.0,0.001952,0.002074,0.00061,0.28,-1.6800000000000002,-3.9025000000000003,0.9114375,0.007125,-0.2550625,0.9449062500000001,0.87290625,-0.46428125000000003,-0.9762500000000001,0.80971875,0.01926916410021243,0.028874931184625398,True
23585,46677,0,46678,4487.0,44194.0,42665.0,0.001098,0.001464,0.000549,0.24500000000000002,-1.6625,-3.8675,0.9109375000000001,0.00946875,-0.2536875,0.9390000000000001,0.89625,-0.455,-0.9776875,0.8240937500000001,0.018992792884890617,0.028985869888875818,True
23586,46678,0,46679,4490.0,44195.0,42663.0,-0.00244,0.000793,0.001098,0.3325,-1.3125000000000002,-3.7625,0.9196562500000001,0.0059375,-0.247125,0.9440625,0.87134375,-0.466125,-0.97259375,0.820125,0.019294534790450058,0.029050596716650626,True
23587,46679,0,46680,4492.0,44194.0,42669.0,-0.0051849999999999995,0.0011589999999999999,0.0030499999999999998,0.36750000000000005,-1.0150000000000001,-3.8150000000000004,0.9193125,0.00903125,-0.2556875,0.9410625,0.89596875,-0.462,-0.9710625,0.833125,0.01925563118305944,0.028648160245484153,True
23588,46680,0,46681,4492.0,44196.0,42669.0,-0.007137,-0.002623,0.0011589999999999999,0.24500000000000002,-1.1900000000000002,-3.7100000000000004,0.9118437500000001,0.01025,-0.25725,0.93815625,0.89196875,-0.46037500000000003,-0.97021875,0.838,0.019240301916875764,0.02855276347949495,True
23589,46681,0,46682,4493.0,44197.0,42671.0,-0.002806,-0.0026839999999999998,-0.001281,0.21000000000000002,-1.6275000000000002,-3.8150000000000004,0.91671875,0.00846875,-0.25409375,0.9439375,0.8718125,-0.4639375,-0.9722500000000001,0.82534375,0.01931031135114697,0.028758171570443195,True
23590,46682,0,46683,4495.0,44196.0,42670.0,0.003294,-0.002196,-0.004392,0.10500000000000001,-2.1175,-4.025,0.91153125,0.006625,-0.25590625,0.93796875,0.8835937500000001,-0.4584375,-0.97621875,0.8243125,0.019014399427600394,0.02883993398720533,True
23591,46683,0,46684,4497.0,44197.0,42674.0,0.008845,0.000183,-0.004148,0.17500000000000002,-2.5900000000000003,-4.130000000000001,0.916625,0.00953125,-0.25753125,0.937125,0.8836875000000001,-0.46168750000000003,-0.97440625,0.8319375,0.019263542222914917,0.028704386115285523,True
23592,46684,0,46685,4499.0,44198.0,42675.0,0.010248,0.0026839999999999998,-0.0017079999999999999,0.29750000000000004,-2.6775,-4.1475,0.90359375,0.00915625,-0.25515625000000003,0.93934375,0.8784375,-0.463,-0.97528125,0.8235625,0.019300831868536157,0.028833509132154416,True
23593,46685,0,46686,4500.0,44198.0,42677.0,0.003294,0.002928,0.000488,0.4025,-1.7325000000000002,-4.0075,0.91753125,0.01440625,-0.25646875,0.93759375,0.88653125,-0.46021875,-0.97403125,0.82684375,0.019403955657591985,0.02873234572412093,True
23594,46686,0,46687,4501.0,44199.0,42679.0,-0.001769,0.002013,0.001769,0.5075000000000001,-1.1900000000000002,-4.0600000000000005,0.91534375,0.00871875,-0.25459375,0.9432812500000001,0.87803125,-0.46353125,-0.974,0.832375,0.019304244966678718,0.028806208456795067,True
23595,46687,0,46688,4502.0,44199.0,42680.0,-0.006039,-0.001952,0.003843,0.5075000000000001,-0.8225000000000001,-3.8850000000000002,0.91140625,0.00753125,-0.25509375,0.94340625,0.87253125,-0.46115625,-0.9750625,0.827875,0.01916048020011319,0.028827505436673083,True
23596,46688,0,46689,4503.0,44200.0,42679.0,-0.007137,-0.0040869999999999995,0.000122,0.35000000000000003,-0.7000000000000001,-3.8150000000000004,0.91140625,0.010125,-0.256375,0.9379375,0.87934375,-0.45887500000000003,-0.97778125,0.8246875,0.01917504382356098,0.028881918805338247,True
23597,46689,0,46690,4503.0,44197.0,42671.0,-0.005612,-0.003721,-0.00122,0.2625,-0.9100000000000001,-3.9375000000000004,0.916875,0.00971875,-0.25415625000000003,0.94221875,0.882,-0.45671875,-0.97471875,0.8290625,0.01907195747589811,0.028851676257615512,True
23598,46690,0,46691,4499.0,44194.0,42666.0,-0.000976,-0.001098,-0.002013,0.1925,-1.1375000000000002,-4.025,0.91134375,0.00971875,-0.25634375,0.9382812500000001,0.87796875,-0.46015625,-0.978375,0.8253125,0.019209811875179658,0.02890625390963183,True
23599,46691,0,46692,4494.0,44191.0,42655.0,0.001037,-0.00122,-0.000244,0.15750000000000003,-1.2075,-4.025,0.9116875,0.006500000000000001,-0.25490625,0.93640625,0.87803125,-0.46237500000000004,-0.9715312500000001,0.82428125,0.019167190430201483,0.02869767948251071,True
23600,46692,0,46693,4486.0,44189.0,42646.0,0.001403,0.00042699999999999997,0.0008539999999999999,0.17500000000000002,-1.1900000000000002,-4.235,0.9254375,0.0081875,-0.2536875,0.947625,0.8866875000000001,-0.46078125000000003,-0.97446875,0.818875,0.019172271940414824,0.028860724014399704,True
23601,46693,0,46694,4477.0,44184.0,42640.0,0.001403,0.001037,0.000915,0.22750000000000004,-1.2775,-4.2525,0.923125,0.0106875,-0.25265625,0.95084375,0.88609375,-0.460125,-0.9742500000000001,0.83078125,0.019248164103822036,0.028893510315625093,True
23602,46694,0,46695,4473.0,44185.0,42632.0,0.00244,0.003355,0.001464,0.29750000000000004,-1.4000000000000001,-4.2525,0.9071875,0.00803125,-0.26178125,0.9344375,0.8735,-0.457,-0.977875,0.81634375,0.019014239277098582,0.028669122173123212,True
23603,46695,0,46696,4468.0,44180.0,42626.0,0.0023179999999999997,0.0015249999999999999,0.000976,0.2625,-1.4175000000000002,-4.1475,0.90725,0.003,-0.249875,0.93853125,0.877625,-0.46309375,-0.97421875,0.8265,0.019052935608359023,0.029003660024400166,True
23604,46696,0,46697,4462.0,44180.0,42623.0,0.000915,0.000976,0.001098,0.2625,-1.3125000000000002,-4.112500000000001,0.923875,0.010375,-0.25259375,0.951125,0.877375,-0.46053125,-0.97409375,0.83309375,0.01925167712782199,0.028889937197420827,True
23605,46697,0,46698,4459.0,44176.0,42620.0,0.000305,0.001952,0.000366,0.22750000000000004,-1.2425000000000002,-4.235,0.909875,0.01540625,-0.26128125,0.9352812500000001,0.87796875,-0.4591875,-0.9763437500000001,0.82453125,0.01940349613003294,0.028629590750247423,True
23606,46698,0,46699,4457.0,44176.0,42616.0,-0.002013,0.000183,0.0006709999999999999,0.21000000000000002,-1.0850000000000002,-4.235,0.9048125,0.0045625,-0.25471875,0.9375,0.880125,-0.46253125,-0.975,0.825125,0.01909425256227317,0.028840090090090087,True
23607,46699,0,46700,4454.0,44175.0,42617.0,-0.005124,-0.0013419999999999999,-0.000366,0.2625,-1.12,-4.112500000000001,0.91640625,0.01115625,-0.25421875,0.95146875,0.88421875,-0.456,-0.97509375,0.8295625,0.01910190750736016,0.028863755516433245,True
23608,46700,0,46701,4453.0,44174.0,42617.0,-0.003294,-0.000915,-0.000122,0.31500000000000006,-1.2425000000000002,-4.1475,0.90690625,0.01134375,-0.25584375,0.933125,0.8785000000000001,-0.46246875,-0.97371875,0.8192812500000001,0.019368956782009172,0.028745218410854412,True
23609,46701,0,46702,4454.0,44175.0,42618.0,0.00042699999999999997,-0.000976,-0.000793,0.31500000000000006,-1.6275000000000002,-4.235,0.92484375,0.010125,-0.25865625000000003,0.935125,0.88353125,-0.45987500000000003,-0.9711875,0.8250937500000001,0.019215143168147836,0.028534135591268935,True
23610,46702,0,46703,4453.0,44175.0,42619.0,0.0028669999999999998,-0.002806,-0.00061,0.1925,-2.0475000000000003,-4.1475,0.912875,0.004,-0.25353125,0.94003125,0.87884375,-0.46159375,-0.9745312500000001,0.8249375,0.019033663740736437,0.02886941071216302,True
23611,46703,0,46704,4454.0,44176.0,42619.0,0.0064659999999999995,-0.0008539999999999999,-0.002013,0.1925,-2.2225,-4.095000000000001,0.917375,0.00940625,-0.255125,0.93759375,0.8825000000000001,-0.46015625,-0.97609375,0.82475,0.019197035996039478,0.028866353450487024,True
23612,46704,0,46705,4456.0,44174.0,42622.0,0.004331,0.001037,-0.0008539999999999999,0.21000000000000002,-2.1175,-4.112500000000001,0.91859375,0.008843750000000001,-0.254875,0.943625,0.8785625,-0.4629375,-0.97471875,0.83328125,0.019285551868004406,0.028822897154747732,True
23613,46705,0,46706,4458.0,44175.0,42625.0,0.001403,0.000976,0.0008539999999999999,0.24500000000000002,-1.33,-3.9550000000000005,0.91128125,0.0054375000000000005,-0.255125,0.93959375,0.87234375,-0.4596875,-0.97575,0.8248125000000001,0.019015982931098362,0.028852987397775844,True
23614,46706,0,46707,4459.0,44176.0,42631.0,-0.0028669999999999998,-0.000488,0.001037,0.24500000000000002,-1.12,-3.8150000000000004,0.9156875,0.00934375,-0.2583125,0.9372812500000001,0.89571875,-0.4593125,-0.9742500000000001,0.84421875,0.019160646890627037,0.02866702703784899,True
23615,46707,0,46708,4464.0,44178.0,42631.0,-0.003538,0.000305,0.00061,0.2625,-0.9800000000000001,-3.7100000000000004,0.91153125,0.006625,-0.25465625000000003,0.93821875,0.87284375,-0.45834375,-0.987125,0.8060625,0.019010639262930465,0.029313846631014974,True
23616,46708,0,46709,4466.0,44178.0,42635.0,-0.003172,0.0008539999999999999,0.000366,0.3325,-0.9625000000000001,-3.7100000000000004,0.91940625,0.00934375,-0.25684375,0.9409375,0.87409375,-0.47071875,-0.969,0.840875,0.019617834069544853,0.028521616804837998,True
23617,46709,0,46710,4468.0,44184.0,42638.0,-0.00244,0.000366,6.1e-05,0.45500000000000007,-1.2425000000000002,-3.6575,0.91190625,0.0059375,-0.25465625000000003,0.93790625,0.879125,-0.455125,-0.983375,0.81665625,0.01885341007253081,0.029168146817633727,True
23618,46710,0,46711,4470.0,44181.0,42643.0,-0.0008539999999999999,-0.000915,0.00061,0.45500000000000007,-1.2600000000000002,-3.8150000000000004,0.9203125,0.00959375,-0.25559375,0.9443125,0.88771875,-0.4675,-0.96915625,0.8418125,0.01949908041279248,0.028577757808696484,True
23619,46711,0,46712,4473.0,44182.0,42644.0,-0.0006709999999999999,0.000366,0.0,0.4025,-1.33,-3.7800000000000002,0.9114375,0.0073125,-0.25796875,0.933625,0.87915625,-0.45509375,-0.983375,0.8283125,0.01890838181718277,0.029035558646499926,True
23620,46712,0,46713,4477.0,44184.0,42649.0,-0.000488,0.000549,0.0006709999999999999,0.385,-1.2775,-3.8500000000000005,0.91834375,0.00665625,-0.25471875,0.9390000000000001,0.86575,-0.46215625,-0.9831562500000001,0.8149375,0.01916480686366313,0.0291571446261919,True
23621,46713,0,46714,4476.0,44184.0,42650.0,-0.000244,-0.000305,-0.000366,0.43750000000000006,-1.4525000000000001,-3.7975000000000003,0.9196562500000001,0.00928125,-0.254625,0.934625,0.89296875,-0.463125,-0.9702500000000001,0.835875,0.019310952709435118,0.02865910433415765,True
23622,46714,0,46715,4478.0,44184.0,42647.0,0.003111,-0.000244,-0.000122,0.3325,-1.9075000000000002,-3.7975000000000003,0.91090625,0.01003125,-0.2499375,0.93878125,0.90271875,-0.4563125,-0.9745312500000001,0.8203125,0.019068440918883416,0.029013307306818826,True
23623,46715,0,46716,4478.0,44184.0,42649.0,0.004209,0.000244,0.000549,0.2625,-2.0125,-3.8325000000000005,0.9177500000000001,0.008968750000000001,-0.254375,0.94471875,0.87709375,-0.4655625,-0.9685625,0.83878125,0.019395885543199754,0.02860346886209408,True
23624,46716,0,46717,4478.0,44185.0,42651.0,0.002928,-0.000183,-0.000976,0.28,-1.9075000000000002,-3.7800000000000002,0.9044375,0.01028125,-0.256,0.9380000000000001,0.8964062500000001,-0.45609375,-0.97459375,0.83709375,0.019069889278617934,0.028772990551648114,True
23625,46717,0,46718,4477.0,44182.0,42650.0,-0.00042699999999999997,0.00061,-0.002623,0.21000000000000002,-1.6800000000000002,-3.7625,0.91109375,0.0058125,-0.2551875,0.93834375,0.8644375,-0.463625,-0.97290625,0.8205625,0.019189204379972305,0.028739896863225516,True
23626,46718,0,46719,4476.0,44183.0,42645.0,-0.0008539999999999999,0.000305,-0.000732,0.36750000000000005,-1.2075,-3.7450000000000006,0.9185625000000001,0.0095,-0.2541875,0.9450000000000001,0.8800625,-0.4593125,-0.9724375000000001,0.83221875,0.0191670350505559,0.028761709785038003,True
23627,46719,0,46720,4477.0,44185.0,42646.0,-0.004026,-0.001464,0.00183,0.525,-1.1725,-3.8500000000000005,0.9115625,0.00609375,-0.2545,0.92853125,0.8671562500000001,-0.46315625,-0.974875,0.8258125000000001,0.019181907485874804,0.02884398820814919,True
23628,46720,0,46721,4477.0,44185.0,42643.0,-0.002928,-0.001464,0.002013,0.3325,-1.4000000000000001,-3.9375000000000004,0.91715625,0.00978125,-0.2553125,0.93834375,0.8859375,-0.46025,-0.97475,0.8263125,0.01921612616387813,0.028806594660607213,True
23629,46721,0,46722,4474.0,44180.0,42644.0,-0.00061,0.000366,0.002074,0.31500000000000006,-1.6275000000000002,-3.8675,0.9160625,0.009000000000000001,-0.25484375,0.9429062500000001,0.8808125,-0.45865625,-0.97203125,0.8317187500000001,0.01912027566927353,0.028719630086158892,True
23630,46722,0,46723,4474.0,44183.0,42643.0,0.0034159999999999998,0.001952,0.000549,0.4025,-1.9425000000000001,-3.9200000000000004,0.91140625,0.009875,-0.253625,0.93425,0.87403125,-0.46025,-0.97321875,0.833375,0.019219958912930164,0.028814617659167385,True
23631,46723,0,46724,4475.0,44184.0,42644.0,0.004392,0.000488,-6.1e-05,0.385,-2.0300000000000002,-4.0075,0.91421875,0.0100625,-0.254125,0.9379375,0.8789375,-0.4548125,-0.97375,0.8324375,0.019009550778604417,0.02881525601881976,True
23632,46724,0,46725,4474.0,44182.0,42644.0,0.002013,-0.000366,-0.002623,0.21000000000000002,-1.995,-3.8850000000000002,0.91678125,0.00928125,-0.25521875,0.94446875,0.886125,-0.45821875,-0.97375,0.8228125000000001,0.019114229240426595,0.028771460033034692,True
23633,46725,0,46726,4475.0,44182.0,42643.0,-0.0011589999999999999,0.000244,-0.0034159999999999998,0.385,-1.6800000000000002,-3.8150000000000004,0.9121875,0.00925,-0.25784375,0.9380625,0.87821875,-0.4589375,-0.9765625,0.821625,0.019141775884582067,0.028775727244291525,True
23634,46726,0,46727,4474.0,44182.0,42643.0,-0.0013419999999999999,0.0013419999999999999,0.0006709999999999999,0.43750000000000006,-1.3125000000000002,-3.7800000000000002,0.9111875,0.00553125,-0.257,0.9389375,0.87728125,-0.46265625,-0.9745312500000001,0.8257187500000001,0.01913886600111139,0.028730519216451766,True
23635,46727,0,46728,4476.0,44183.0,42642.0,-0.00244,-0.0015249999999999999,0.002562,0.385,-1.2075,-3.6925000000000003,0.91253125,0.00921875,-0.25540625,0.9340937500000001,0.8826875000000001,-0.463125,-0.9745312500000001,0.82615625,0.019308397843693315,0.028794334227994774,True
23636,46728,0,46729,4477.0,44182.0,42644.0,-0.001586,-0.0028669999999999998,0.001647,0.29750000000000004,-1.4525000000000001,-3.6225000000000005,0.923,0.0032500000000000003,-0.25175000000000003,0.937125,0.88471875,-0.46037500000000003,-0.974,0.83246875,0.018954124783450786,0.02892007687995515,True
23637,46729,0,46730,4479.0,44184.0,42647.0,-0.0006709999999999999,0.001464,-0.001098,0.28,-1.7325000000000002,-3.8675,0.9266875,0.010781250000000001,-0.2565,0.952625,0.8779375,-0.46,-0.977375,0.82828125,0.01924698487326247,0.028861119312978245,True
23638,46730,0,46731,4480.0,44184.0,42648.0,0.000366,0.002562,-0.000793,0.2625,-1.6800000000000002,-3.7625,0.92534375,0.011125,-0.2518125,0.95225,0.87809375,-0.45909375,-0.9770625000000001,0.83178125,0.019224700424560905,0.029036641118225976,True
23639,46731,0,46732,4481.0,44184.0,42650.0,-0.000366,0.000122,0.000549,0.29750000000000004,-1.8025000000000002,-3.8325000000000005,0.90234375,0.01175,-0.257875,0.93965625,0.8775000000000001,-0.45884375,-0.9778125,0.8249062500000001,0.019240228802720895,0.028823080483929484,True
23640,46732,0,46733,4483.0,44184.0,42651.0,0.001464,-0.000976,-0.000732,0.21000000000000002,-1.7850000000000001,-3.7975000000000003,0.90478125,0.01196875,-0.26,0.95015625,0.8776875000000001,-0.4620625,-0.97790625,0.8250000000000001,0.019378220867516796,0.028741650433570666,True
23641,46733,0,46734,4484.0,44187.0,42654.0,-0.000549,-0.00122,-0.000488,0.22750000000000004,-1.8725000000000003,-3.8325000000000005,0.9045,0.004625,-0.26328125,0.93215625,0.87796875,-0.46353125,-0.97496875,0.82528125,0.019136904039558884,0.028496031651691258,True
23642,46734,0,46735,4486.0,44189.0,42654.0,0.000122,0.001098,-0.000305,0.4025,-1.7325000000000002,-3.9025000000000003,0.92071875,0.0124375,-0.25215625,0.95021875,0.885375,-0.46037500000000003,-0.9743125,0.83240625,0.01932973227107107,0.02891596115008171,True
23643,46735,0,46736,4488.0,44187.0,42659.0,0.000793,-0.000915,0.001403,0.525,-1.6450000000000002,-3.99,0.92009375,0.01196875,-0.258,0.9463125,0.87934375,-0.45853125,-0.975875,0.825375,0.019236641611503145,0.028742736740955024,True
23644,46736,0,46737,4492.0,44187.0,42658.0,0.0006709999999999999,-0.002013,0.00122,0.385,-1.8550000000000002,-3.9200000000000004,0.904875,0.0060625,-0.25328125,0.93559375,0.87815625,-0.46387500000000004,-0.974125,0.8305625,0.019209446581949917,0.028863623850685458,True
23645,46737,0,46738,4492.0,44192.0,42661.0,0.0018909999999999999,-0.00122,-0.0008539999999999999,0.28,-1.7675,-3.8500000000000005,0.9226875,0.0111875,-0.25090625,0.94071875,0.88434375,-0.46087500000000003,-0.9764375000000001,0.8255625,0.019298675946792583,0.029048628332203105,True
23646,46738,0,46739,4493.0,44191.0,42664.0,0.0015249999999999999,0.002013,-0.000732,0.24500000000000002,-1.8375000000000001,-3.7975000000000003,0.905,0.00978125,-0.253875,0.9395625,0.8780625,-0.46334375,-0.9738125,0.8289062500000001,0.01934016072516661,0.028827697012620716,True
23647,46739,0,46740,4496.0,44191.0,42666.0,-0.00061,0.002562,0.002074,0.36750000000000005,-1.4700000000000002,-3.9200000000000004,0.9166875,0.01103125,-0.25421875,0.9439062500000001,0.88725,-0.46059375,-0.9735312500000001,0.82696875,0.019281011933735256,0.028802995171137442,True
23648,46740,0,46741,4498.0,44192.0,42667.0,-0.0028669999999999998,-0.000122,0.000732,0.49000000000000005,-1.2775,-3.8675,0.915375,0.0093125,-0.25428125,0.9381875000000001,0.87328125,-0.45978125000000003,-0.97371875,0.83475,0.01917816619884939,0.028807784183122506,True
23649,46741,0,46742,4499.0,44191.0,42670.0,-0.004514,-0.0011589999999999999,0.00061,0.385,-1.3125000000000002,-3.8500000000000005,0.9045625,0.01034375,-0.256875,0.94021875,0.87828125,-0.4595,-0.97678125,0.8270937500000001,0.019209049653508864,0.028823019379248478,True
23650,46742,0,46743,4500.0,44192.0,42672.0,-0.002623,-0.001464,0.000793,0.2625,-1.4875,-3.9725000000000006,0.9113125,0.0065625,-0.2554375,0.9390937500000001,0.87821875,-0.46228125000000003,-0.9700625,0.8258125000000001,0.0191659864102004,0.028619271577714316,True
23651,46743,0,46744,4503.0,44191.0,42674.0,-0.001464,-0.002257,-0.000366,0.08750000000000001,-1.61,-3.9375000000000004,0.9184375,0.0095,-0.2543125,0.94421875,0.88575,-0.46015625,-0.97365625,0.82528125,0.019200868759781532,0.02880410232282267,True
23652,46744,0,46745,4505.0,44195.0,42677.0,0.0044529999999999995,-0.001647,-0.002013,0.12250000000000001,-2.24,-3.8150000000000004,0.910625,0.0065625,-0.25765625000000003,0.9390625,0.87809375,-0.46321875,-0.9779375,0.8255625,0.01920357475444641,0.028836698386325934,True
23653,46745,0,46746,4507.0,44196.0,42680.0,0.006893,0.000915,-0.0032329999999999998,0.1925,-2.3275,-3.8500000000000005,0.9177500000000001,0.0090625,-0.25425000000000003,0.94684375,0.8859375,-0.46015625,-0.973875,0.83465625,0.019182982528985273,0.028815111791822452,True
23654,46746,0,46747,4508.0,44198.0,42683.0,0.006161,0.0030499999999999998,-0.002379,0.21000000000000002,-2.1525000000000003,-3.8675,0.9091250000000001,0.0095625,-0.25603125,0.938125,0.878125,-0.46,-0.976375,0.82246875,0.0191971586263287,0.028841004749488267,True
23655,46747,0,46748,4510.0,44197.0,42683.0,0.00244,0.003843,0.000183,0.4025,-1.6625,-3.8850000000000002,0.91128125,0.00846875,-0.25428125,0.9436875,0.8787812500000001,-0.46365625,-0.9750625,0.8299375,0.01929903670879123,0.028860037887793077,True
23656,46748,0,46749,4512.0,44195.0,42686.0,-0.001281,0.002379,0.0023179999999999997,0.5950000000000001,-1.0150000000000001,-3.7275000000000005,0.91578125,0.0135625,-0.25834375,0.9353750000000001,0.883625,-0.45846875000000004,-0.9764375000000001,0.8253125,0.01929929689486387,0.028750847673932687,True
23657,46749,0,46750,4515.0,44194.0,42684.0,-0.007503,-0.0025009999999999998,0.003294,0.525,-0.7350000000000001,-3.6575,0.9167500000000001,0.008906250000000001,-0.25296875,0.9385,0.8834062500000001,-0.46009375,-0.97771875,0.82559375,0.019174088406754372,0.029015860385568637,True
23658,46750,0,46751,4517.0,44196.0,42686.0,-0.005124,-0.00244,0.001464,0.47250000000000003,-0.9625000000000001,-3.7450000000000006,0.9186875,0.009375,-0.2563125,0.9325,0.88390625,-0.45987500000000003,-0.9765312500000001,0.8254375,0.019184480705645473,0.028835819625673605,True
23659,46751,0,46752,4516.0,44199.0,42686.0,-0.0032329999999999998,-0.0018909999999999999,-0.0018909999999999999,0.42000000000000004,-1.3475000000000001,-3.7975000000000003,0.9166562500000001,0.00903125,-0.25353125,0.9443125,0.87734375,-0.45996875000000004,-0.973875,0.82559375,0.019174186393839936,0.02884389186700102,True
23660,46752,0,46753,4515.0,44197.0,42684.0,0.001098,-0.001281,-0.0013419999999999999,0.36750000000000005,-1.7325000000000002,-3.7625,0.9034375,0.00615625,-0.2571875,0.93803125,0.8778750000000001,-0.45837500000000003,-0.9763125,0.82578125,0.018992727439987325,0.02879228068594994,True
23661,46753,0,46754,4511.0,44195.0,42674.0,0.004331,-0.000122,-0.001586,0.24500000000000002,-1.9425000000000001,-3.8325000000000005,0.9183125,0.00959375,-0.2574375,0.93859375,0.8858125,-0.46028125000000003,-0.9765625,0.8250625,0.019209713706787406,0.028791992492962153,True
23662,46754,0,46755,4506.0,44191.0,42669.0,0.003477,0.000305,0.000183,0.3325,-1.8025000000000002,-3.9375000000000004,0.9153125,0.0095625,-0.25728125,0.9381875000000001,0.88465625,-0.46037500000000003,-0.976375,0.8258125000000001,0.01921219523412867,0.02879095745479478,True
23663,46755,0,46756,4500.0,44189.0,42658.0,0.002196,0.00122,0.00183,0.36750000000000005,-1.5050000000000001,-3.9375000000000004,0.911,0.0123125,-0.254125,0.9413750000000001,0.88209375,-0.46021875,-0.9742500000000001,0.8315625,0.019318357486071136,0.02883469974073296,True
23664,46756,0,46757,4493.0,44185.0,42652.0,-0.000366,0.0013419999999999999,0.0015249999999999999,0.36750000000000005,-1.4175000000000002,-3.8675,0.911875,0.00853125,-0.2563125,0.93834375,0.87753125,-0.46353125,-0.97384375,0.8259062500000001,0.019296580496734297,0.028731310133226887,True
23665,46757,0,46758,4488.0,44181.0,42647.0,-0.0025009999999999998,0.001281,0.000976,0.42000000000000004,-1.155,-3.7975000000000003,0.9156875,0.01503125,-0.25490625,0.940875,0.8864062500000001,-0.4599375,-0.9786875,0.82578125,0.019418232364657513,0.02897595199907922,True
23666,46758,0,46759,4482.0,44179.0,42642.0,-0.002745,0.0011589999999999999,0.001098,0.385,-1.155,-3.8150000000000004,0.912,0.0085625,-0.2541875,0.93821875,0.87865625,-0.4640625,-0.96796875,0.8287187500000001,0.019319154371846458,0.028587878218968053,True
23667,46759,0,46760,4478.0,44180.0,42641.0,-0.003111,0.000793,0.000244,0.36750000000000005,-1.4175000000000002,-3.8850000000000002,0.91546875,0.00953125,-0.25671875,0.93834375,0.86925,-0.45915625,-0.9802500000000001,0.8220937500000001,0.01916204693283318,0.028964131664014573,True
23668,46760,0,46761,4474.0,44178.0,42637.0,-0.001281,0.00244,-0.000244,0.36750000000000005,-1.6275000000000002,-4.0075,0.9165625000000001,0.00959375,-0.25840625,0.93815625,0.89290625,-0.45925,-0.9764375000000001,0.82846875,0.01916836166276562,0.028748345315459826,True
23669,46761,0,46762,4473.0,44179.0,42636.0,0.000549,0.000488,0.001586,0.3325,-1.6625,-4.025,0.92596875,0.009375,-0.25415625000000003,0.9383750000000001,0.8814375,-0.45990625,-0.97640625,0.8153125,0.019185733796506274,0.028917290693091607,True
23670,46762,0,46763,4469.0,44177.0,42633.0,-0.000732,-0.001098,0.000793,0.31500000000000006,-1.8550000000000002,-4.025,0.9420000000000001,0.01615625,-0.2675,0.931125,0.89275,-0.4584375,-0.97703125,0.821875,0.019404091123973066,0.02840734925212539,True
23671,46763,0,46764,4470.0,44177.0,42633.0,0.001281,-0.001586,0.000366,0.31500000000000006,-2.1350000000000002,-4.0425,0.9321875000000001,0.0135,-0.2638125,0.9272812500000001,0.8839375,-0.4595,-0.9773125,0.8135625,0.019338089494879293,0.0285659235756449,True
23672,46764,0,46765,4471.0,44174.0,42630.0,0.003843,-0.002013,-0.0034159999999999998,0.21000000000000002,-2.205,-4.0075,0.9308125,0.0133125,-0.2671875,0.92090625,0.892,-0.45859375,-0.9800625000000001,0.8226875,0.019294087584246337,0.028537758862693,True
23673,46765,0,46766,4472.0,44174.0,42635.0,0.0030499999999999998,-0.000488,-0.003477,0.12250000000000001,-2.1875,-3.99,0.9335625000000001,0.012968750000000001,-0.26109375,0.9279375,0.89334375,-0.45596875000000003,-0.98021875,0.80903125,0.01917476689611815,0.0287877783296033,True
23674,46766,0,46767,4472.0,44173.0,42636.0,0.002806,-0.000244,-0.004148,0.07,-1.995,-4.0600000000000005,0.91615625,0.01375,-0.25825,0.93740625,0.88053125,-0.45878125000000003,-0.977125,0.83028125,0.0193194928712975,0.02878133492145313,True
23675,46767,0,46768,4474.0,44177.0,42638.0,0.000244,-0.000244,-0.000793,0.24500000000000002,-1.7675,-3.99,0.90565625,0.0032187500000000003,-0.251625,0.9489062500000001,0.86278125,-0.45740625,-0.97265625,0.831875,0.018833763290005457,0.028872829657437822,True
23676,46768,0,46769,4477.0,44178.0,42643.0,-6.1e-05,-0.000122,0.0017079999999999999,0.35000000000000003,-1.6450000000000002,-3.8500000000000005,0.9063125,-0.00078125,-0.24959375,0.96021875,0.8775625,-0.46078125000000003,-0.97271875,0.83221875,0.018805613577857413,0.02895659888853712,True
23677,46769,0,46770,4478.0,44179.0,42645.0,0.0006709999999999999,0.000793,0.001952,0.3325,-1.5750000000000002,-3.8850000000000002,0.8985,-0.00140625,-0.2494375,0.94740625,0.8700625000000001,-0.46384375,-0.9722500000000001,0.8319062500000001,0.018902896238453943,0.028944628537676827,True
23678,46770,0,46771,4481.0,44180.0,42647.0,-0.000244,0.002074,0.000976,0.28,-1.4875,-3.8500000000000005,0.9168125,0.01415625,-0.25628125,0.929875,0.87825,-0.45937500000000003,-0.97790625,0.82615625,0.01935990801073208,0.02889053200766177,True
23679,46771,0,46772,4483.0,44180.0,42650.0,-0.001098,0.001647,0.00042699999999999997,0.2625,-1.3125000000000002,-3.8500000000000005,0.90028125,-0.00171875,-0.24953125,0.94284375,0.8766875000000001,-0.4624375,-0.9731875,0.834375,0.01883372210966303,0.02897732818447785,True
23680,46772,0,46773,4488.0,44183.0,42657.0,-0.0021349999999999997,0.0011589999999999999,0.000915,0.3325,-1.2775,-3.8325000000000005,0.9088437500000001,0.00815625,-0.24928125,0.9346875,0.87828125,-0.4604375,-0.9755312500000001,0.8250000000000001,0.01915721049551955,0.029078460543256714,True
23681,46773,0,46774,4489.0,44183.0,42659.0,-0.002257,-0.001281,-6.1e-05,0.36750000000000005,-1.5575,-3.8150000000000004,0.9095,0.0073125,-0.25490625,0.93725,0.877,-0.46228125000000003,-0.97346875,0.82584375,0.019196645856567447,0.02877303538380106,True
23682,46774,0,46775,4492.0,44187.0,42662.0,0.0006709999999999999,-0.001281,-0.0006709999999999999,0.385,-1.7850000000000001,-3.8325000000000005,0.92034375,0.00828125,-0.2578125,0.93815625,0.8869375,-0.46025,-0.97328125,0.83315625,0.019154802179045596,0.028649369013132787,True
23683,46775,0,46776,4496.0,44188.0,42666.0,0.0013419999999999999,-0.002013,-0.000549,0.525,-1.7850000000000001,-3.8675,0.9115,0.0091875,-0.25475000000000003,0.9441875000000001,0.8785000000000001,-0.46125,-0.97384375,0.83440625,0.019231948489958607,0.028793875592338484,True
23684,46776,0,46777,4495.0,44191.0,42666.0,0.002074,-0.000122,-6.1e-05,0.3325,-1.7325000000000002,-3.9200000000000004,0.90025,0.0104375,-0.2559375,0.93871875,0.87884375,-0.4595625,-0.975125,0.81665625,0.01921538866445383,0.028796152171410558,True
23685,46777,0,46778,4497.0,44189.0,42669.0,0.0032329999999999998,6.1e-05,0.00183,0.29750000000000004,-1.7500000000000002,-3.9375000000000004,0.90634375,0.0056875,-0.25484375,0.9392812500000001,0.8783125,-0.46346875,-0.9755312500000001,0.8261875,0.019177830208563534,0.028855742558028676,True
23686,46778,0,46779,4499.0,44190.0,42667.0,0.0,0.001586,-0.0015249999999999999,0.36750000000000005,-1.54,-3.8150000000000004,0.9058437500000001,0.01028125,-0.25696875,0.9389375,0.88678125,-0.46021875,-0.975875,0.8290000000000001,0.019235314483849415,0.02878402658565516,True
23687,46779,0,46780,4499.0,44190.0,42664.0,-0.000305,0.00061,0.000183,0.35000000000000003,-1.4875,-3.8325000000000005,0.9117500000000001,0.0053750000000000004,-0.25478125,0.944875,0.878625,-0.46137500000000004,-0.974375,0.8251875,0.01908110235013363,0.028813283615706103,True
23688,46780,0,46781,4499.0,44189.0,42665.0,-0.002196,0.000305,0.001281,0.29750000000000004,-1.4175000000000002,-3.8325000000000005,0.9121875,0.00790625,-0.25521875,0.9385,0.8707812500000001,-0.45440625,-0.9755312500000001,0.8257187500000001,0.01890507973384142,0.028840727862395325,True
23689,46781,0,46782,4499.0,44191.0,42664.0,-0.001281,-0.0008539999999999999,0.000366,0.3325,-1.3125000000000002,-3.99,0.9163125,0.009625,-0.25365625,0.94546875,0.88475,-0.46368750000000003,-0.97371875,0.8298125000000001,0.019347553389079224,0.028832810492029744,True
23690,46782,0,46783,4496.0,44189.0,42662.0,-0.0006709999999999999,0.000915,0.001281,0.3325,-1.5050000000000001,-3.9550000000000005,0.9065,0.0091875,-0.25534375,0.93825,0.88471875,-0.4599375,-0.9751562500000001,0.81803125,0.01917932128812676,0.028821141008877574,True
23691,46783,0,46784,4498.0,44188.0,42663.0,0.000305,-0.000122,0.0006709999999999999,0.28,-1.61,-4.077500000000001,0.910875,0.00703125,-0.25496875,0.93890625,0.878125,-0.46046875,-0.96928125,0.82628125,0.019112471015094508,0.02860765165196735,True
23692,46784,0,46785,4496.0,44189.0,42661.0,0.00061,0.0,-0.000305,0.17500000000000002,-1.715,-3.9550000000000005,0.91778125,0.01334375,-0.24771875000000002,0.9460625,0.883,-0.46053125,-0.9735,0.831125,0.019373046118939058,0.029062055779125875,True
23693,46785,0,46786,4496.0,44188.0,42662.0,0.0006709999999999999,-0.000122,-0.0018909999999999999,0.28,-1.8375000000000001,-3.9200000000000004,0.910625,0.00921875,-0.25696875,0.9389375,0.88296875,-0.45987500000000003,-0.97096875,0.817625,0.019178092692624146,0.028593203857980077,True
23694,46786,0,46787,4497.0,44186.0,42663.0,0.0017079999999999999,-0.000915,-0.002196,0.24500000000000002,-1.6625,-3.9200000000000004,0.91340625,0.0079375,-0.25365625,0.9452812500000001,0.8783125,-0.4605,-0.9745,0.82765625,0.019150773696367612,0.02886319045426335,True
23695,46787,0,46788,4495.0,44184.0,42660.0,0.000366,-0.001037,-0.00042699999999999997,0.15750000000000003,-1.6450000000000002,-3.9200000000000004,0.9115625,0.0065625,-0.2545,0.9380000000000001,0.87465625,-0.4606875,-0.9761562500000001,0.82603125,0.01910207961243935,0.028893807468873444,True
23696,46788,0,46789,4497.0,44189.0,42665.0,0.000488,-6.1e-05,0.000183,0.36750000000000005,-1.6625,-3.7625,0.917875,0.00909375,-0.25653125,0.938625,0.88421875,-0.45965625,-0.9750625,0.82646875,0.01916421045369352,0.028769948023153098,True
23697,46789,0,46790,4498.0,44189.0,42665.0,0.000488,0.0008539999999999999,0.000244,0.36750000000000005,-1.3650000000000002,-3.8675,0.91634375,0.008812500000000001,-0.2541875,0.9445,0.87846875,-0.454625,-0.9736250000000001,0.83115625,0.01895091419312298,0.02880789232640436,True
23698,46790,0,46791,4498.0,44189.0,42666.0,0.0006709999999999999,0.001281,0.000183,0.31500000000000006,-1.3475000000000001,-3.9200000000000004,0.91140625,0.00728125,-0.254375,0.9458125000000001,0.8785937500000001,-0.46215625,-0.9742500000000001,0.81621875,0.01919035653285879,0.028824689430113015,True
23699,46791,0,46792,4500.0,44187.0,42669.0,-0.00061,0.000488,0.000793,0.31500000000000006,-1.435,-3.8675,0.9115625,0.006125,-0.255125,0.938875,0.881625,-0.4600625,-0.97609375,0.8254375,0.019059129550466195,0.028866353450487024,True
23700,46792,0,46793,4502.0,44186.0,42669.0,-0.0013419999999999999,0.0008539999999999999,0.000366,0.22750000000000004,-1.4525000000000001,-3.8150000000000004,0.919875,0.009000000000000001,-0.253625,0.9439062500000001,0.8739375,-0.4600625,-0.9735312500000001,0.83890625,0.019176668089053328,0.02882677034310076,True
23701,46793,0,46794,4502.0,44190.0,42673.0,-0.000732,-0.000366,0.000488,0.3325,-1.4700000000000002,-3.9375000000000004,0.90353125,0.0049375,-0.254375,0.94440625,0.87528125,-0.455,-0.97565625,0.8224375,0.01880750357800041,0.028879371287791486,True
23702,46794,0,46795,4505.0,44190.0,42674.0,-0.0006709999999999999,-0.00061,0.0006709999999999999,0.21000000000000002,-1.5225000000000002,-3.8150000000000004,0.9115625,0.01028125,-0.25815625000000003,0.93840625,0.8946875,-0.4589375,-0.9765,0.83028125,0.019183938386530486,0.028760785138029748,True
23703,46795,0,46796,4507.0,44193.0,42676.0,-0.000488,-0.001281,6.1e-05,0.2625,-1.6275000000000002,-3.8500000000000005,0.91653125,0.00871875,-0.251375,0.94478125,0.8717812500000001,-0.46415625,-0.9715,0.8211875000000001,0.01932929937037988,0.028837875177702584,True
23704,46796,0,46797,4509.0,44193.0,42679.0,-0.000549,-0.000732,-0.0006709999999999999,0.3325,-1.7500000000000002,-3.8325000000000005,0.91909375,0.0085625,-0.25375000000000003,0.9408125,0.8925000000000001,-0.464125,-0.96846875,0.83965625,0.019321659777327006,0.02862485309596729,True
23705,46797,0,46798,4510.0,44193.0,42681.0,-0.0008539999999999999,-0.0008539999999999999,-0.002013,0.22750000000000004,-1.7500000000000002,-3.7800000000000002,0.9123125,0.00703125,-0.25678125,0.9381875000000001,0.87953125,-0.457,-0.9801562500000001,0.81459375,0.018973351187798995,0.02895798540091198,True
23706,46798,0,46799,4512.0,44195.0,42685.0,0.002562,0.001281,0.000122,0.2625,-1.6800000000000002,-3.9200000000000004,0.9188125,0.006,-0.25303125,0.943125,0.87221875,-0.45928125000000003,-0.9734375000000001,0.818125,0.01902268694015692,0.02884689983107052,True
23707,46799,0,46800,4513.0,44196.0,42684.0,0.000976,0.001098,0.001769,0.45500000000000007,-1.61,-3.99,0.91296875,0.00934375,-0.25878125,0.937125,0.89578125,-0.45853125,-0.97021875,0.8250937500000001,0.019129317096667445,0.028491440428410342,True
23708,46800,0,46801,4517.0,44194.0,42688.0,-0.0008539999999999999,0.0015249999999999999,0.0018909999999999999,0.385,-1.4525000000000001,-4.0425,0.917875,0.009125,-0.25375000000000003,0.9414375,0.86753125,-0.46928125,-0.97184375,0.84009375,0.019551299652497963,0.028756136598844444,True
23709,46801,0,46802,4518.0,44196.0,42689.0,-0.0028669999999999998,0.001098,0.00183,0.31500000000000006,-1.2950000000000002,-3.9200000000000004,0.8981875,0.005875,-0.2540625,0.94359375,0.87371875,-0.46387500000000004,-0.97428125,0.82684375,0.0192017822197015,0.02883841752202578,True
23710,46802,0,46803,4521.0,44196.0,42694.0,-0.003294,-0.000488,0.001098,0.29750000000000004,-1.3825,-4.095000000000001,0.910875,0.00678125,-0.25790625,0.9394375,0.87784375,-0.45778125000000003,-0.9786875,0.8225625,0.01899446622943363,0.028855849611794056,True
23711,46803,0,46804,4520.0,44197.0,42695.0,0.001281,-0.0008539999999999999,-0.002074,0.15750000000000003,-2.1175,-4.025,0.9185,0.010937500000000001,-0.25334375,0.942875,0.872375,-0.465875,-0.97128125,0.82346875,0.01948887991947968,0.028750527168084336,True
23712,46804,0,46805,4523.0,44199.0,42697.0,0.004514,-0.001037,-0.002806,0.14,-2.3975000000000004,-3.9725000000000006,0.91121875,0.00725,-0.25525000000000003,0.94053125,0.8670625000000001,-0.459,-0.97646875,0.8255625,0.019062512776483093,0.028875929468612335,True
23713,46805,0,46806,4524.0,44201.0,42698.0,0.0044529999999999995,0.0,-0.003172,0.1925,-2.2225,-3.9200000000000004,0.9116875,0.00665625,-0.25434375,0.9400937500000001,0.88096875,-0.46271875,-0.9738125,0.826375,0.01918736035830032,0.02880892735140059,True
23714,46806,0,46807,4528.0,44202.0,42701.0,0.0050019999999999995,0.000305,-0.00042699999999999997,0.2625,-1.9250000000000003,-3.8850000000000002,0.917125,0.0086875,-0.25409375,0.9408125,0.886,-0.46009375,-0.9684375000000001,0.8338125000000001,0.019165145268504952,0.028609869960825544,True
23715,46807,0,46808,4529.0,44205.0,42704.0,0.0037819999999999998,0.002013,0.0013419999999999999,0.5075000000000001,-1.6975000000000002,-3.9375000000000004,0.911625,0.00721875,-0.2543125,0.9450625,0.87834375,-0.46228125000000003,-0.97384375,0.827375,0.019192813425771567,0.02881139392088973,True
23716,46808,0,46809,4532.0,44202.0,42707.0,-0.003843,0.001281,0.001403,0.56,-1.2075,-3.8325000000000005,0.912125,0.0069375,-0.25378125,0.9434375,0.87896875,-0.46118750000000003,-0.97421875,0.83375,0.019137460108999204,0.028847248725247916,True
23717,46809,0,46810,4533.0,44201.0,42706.0,-0.006405,0.00122,0.00061,0.5075000000000001,-1.05,-3.8150000000000004,0.9115625,0.00721875,-0.255125,0.94253125,0.86575,-0.46003125,-0.97690625,0.81753125,0.019102592111365353,0.028897944476209903,True
23718,46810,0,46811,4534.0,44204.0,42707.0,-0.00732,-0.0011589999999999999,-0.000976,0.49000000000000005,-1.1900000000000002,-3.8150000000000004,0.9115625,0.009125,-0.25784375,0.93596875,0.8840625,-0.45953125,-0.977375,0.8260000000000001,0.019160475530372232,0.028807320625165774,True
23719,46811,0,46812,4535.0,44205.0,42708.0,-0.0046359999999999995,-0.002928,-0.002379,0.49000000000000005,-1.4700000000000002,-3.6925000000000003,0.91853125,0.008906250000000001,-0.25528125,0.93775,0.885125,-0.46118750000000003,-0.96684375,0.83315625,0.019217944754317425,0.02850029852091336,True
23720,46812,0,46813,4536.0,44202.0,42706.0,0.0006709999999999999,-0.003111,-0.003111,0.6125,-1.9075000000000002,-3.7975000000000003,0.9001250000000001,0.0060625,-0.254375,0.9499375,0.87065625,-0.46268750000000003,-0.9736250000000001,0.826375,0.019161835754963556,0.028800384405547858,True
23721,46813,0,46814,4535.0,44202.0,42701.0,0.008479,-0.0008539999999999999,0.001281,0.4025,-2.24,-4.0600000000000005,0.9064375,0.010781250000000001,-0.25940625,0.93725,0.8788125,-0.4605,-0.97596875,0.8260000000000001,0.019267032562703134,0.02869007833780221,True
23722,46814,0,46815,4530.0,44198.0,42694.0,0.006893,0.000793,0.001098,0.385,-2.0475000000000003,-4.0425,0.92440625,0.01634375,-0.25803125,0.9360937500000001,0.88653125,-0.4605,-0.9690625,0.82515625,0.019494440015535252,0.028476489655949237,True
23723,46815,0,46816,4526.0,44199.0,42685.0,0.0032329999999999998,0.002074,0.001464,0.385,-1.8200000000000003,-3.9200000000000004,0.922625,0.010625,-0.25734375,0.94034375,0.88490625,-0.46118750000000003,-0.97696875,0.8260937500000001,0.019288209127214285,0.028811542633651252,True
23724,46816,0,46817,4520.0,44194.0,42678.0,-0.00042699999999999997,0.002928,0.0017079999999999999,0.385,-1.3475000000000001,-3.8675,0.9000312500000001,0.00521875,-0.25334375,0.93440625,0.87246875,-0.46365625,-0.9703125,0.8261875,0.01916618657523852,0.02871284650522496,True
23725,46817,0,46818,4513.0,44189.0,42670.0,-0.0030499999999999998,0.001586,0.00122,0.35000000000000003,-1.0850000000000002,-3.7800000000000002,0.91059375,0.0055625,-0.2535,0.94675,0.881,-0.45959375,-0.97178125,0.83084375,0.01901733343383923,0.02876371704561524,True
23726,46818,0,46819,4508.0,44188.0,42667.0,-0.004575,-0.000915,-0.000732,0.22750000000000004,-1.0675000000000001,-3.7800000000000002,0.9070625,0.01040625,-0.254875,0.9449062500000001,0.8753125,-0.46053125,-0.97640625,0.82696875,0.019252954696149537,0.028888513534648323,True
23727,46819,0,46820,4504.0,44187.0,42662.0,-0.004514,-0.000976,-0.001586,0.24500000000000002,-1.0850000000000002,-3.8150000000000004,0.90896875,0.011125,-0.25684375,0.93590625,0.87871875,-0.4595,-0.972,0.8259062500000001,0.019240990208303523,0.02863832492391478,True
23728,46820,0,46821,4499.0,44183.0,42656.0,-0.004148,0.00122,-0.000976,0.29750000000000004,-1.2075,-3.8500000000000005,0.9144375,0.0105,-0.2544375,0.945625,0.8850625,-0.45987500000000003,-0.9745,0.82403125,0.019230474399399018,0.028831908546717654,True
23729,46821,0,46822,4497.0,44182.0,42656.0,-0.002989,0.00183,0.00183,0.42000000000000004,-1.4875,-3.7625,0.90759375,0.0016250000000000001,-0.2534375,0.9400000000000001,0.8794062500000001,-0.462,-0.96609375,0.82846875,0.01895286566920121,0.028544964107570896,True
23730,46822,0,46823,4495.0,44182.0,42654.0,-0.0006709999999999999,-0.000122,0.00244,0.43750000000000006,-1.715,-3.9725000000000006,0.9018125,0.0069375,-0.25315625,0.9470625,0.8788125,-0.46028125000000003,-0.97403125,0.8285,0.01910111928905151,0.028864983501612297,True
23731,46823,0,46824,4492.0,44183.0,42654.0,0.003172,-0.00042699999999999997,-0.000915,0.3325,-2.205,-4.1475,0.907375,0.0076875,-0.25390625,0.94171875,0.8785625,-0.45996875000000004,-0.97478125,0.8263125,0.019119249692418353,0.028864116677698632,True
23732,46824,0,46825,4494.0,44183.0,42655.0,0.0055509999999999995,-0.000366,-0.000305,0.31500000000000006,-2.3625000000000003,-4.0600000000000005,0.90928125,0.00696875,-0.2535625,0.94515625,0.88021875,-0.45953125,-0.973375,0.8259062500000001,0.0190723197117688,0.02882319670449028,True
23733,46825,0,46826,4492.0,44182.0,42656.0,0.0059169999999999995,-0.0013419999999999999,-0.0011589999999999999,0.12250000000000001,-2.3975000000000004,-4.025,0.91146875,0.006625,-0.2545,0.93934375,0.87765625,-0.46003125,-0.9751562500000001,0.82621875,0.019078317816948822,0.028854924581302666,True
23734,46826,0,46827,4494.0,44183.0,42657.0,0.0030499999999999998,-0.00244,-0.002745,-0.0175,-2.2575000000000003,-3.9725000000000006,0.918875,0.00959375,-0.2521875,0.9385625,0.88475,-0.45953125,-0.9775,0.82559375,0.019179639838764286,0.029038634771294168,True
23735,46827,0,46828,4496.0,44182.0,42661.0,0.002257,-0.001586,-0.004514,0.052500000000000005,-2.0300000000000002,-3.8850000000000002,0.915375,0.00915625,-0.25409375,0.9469062500000001,0.8786875000000001,-0.46825,-0.9753125,0.8260000000000001,0.019511254380677,0.028877266300471716,True
23736,46828,0,46829,4497.0,44183.0,42660.0,-0.001403,0.001403,0.000549,0.28,-1.4525000000000001,-3.7800000000000002,0.912625,0.0094375,-0.2538125,0.94384375,0.9075625,-0.45771875,-0.96940625,0.82040625,0.019100565133450965,0.028658821232483252,True
23737,46829,0,46830,4499.0,44185.0,42665.0,-0.00122,0.000122,0.001647,0.35000000000000003,-1.2775,-3.7800000000000002,0.9117500000000001,0.0095625,-0.2575,0.9391875000000001,0.90075,-0.4596875,-0.96659375,0.8486875,0.019184627767627856,0.028401701773995505,True
23738,46830,0,46831,4501.0,44185.0,42669.0,-0.002928,0.0011589999999999999,0.0026839999999999998,0.49000000000000005,-1.2775,-3.6400000000000006,0.91234375,0.00575,-0.254875,0.93884375,0.871375,-0.45490625,-0.97821875,0.81671875,0.018836966508509922,0.028958980511770878,True
23739,46831,0,46832,4503.0,44186.0,42669.0,-0.001037,0.000915,0.0026839999999999998,0.42000000000000004,-1.3475000000000001,-3.7975000000000003,0.9197500000000001,0.009125,-0.2560625,0.94271875,0.8830625,-0.47353125,-0.968875,0.84540625,0.01972156143180196,0.028548042312679288,True
23740,46832,0,46833,4506.0,44189.0,42672.0,-0.001769,0.000244,0.0008539999999999999,0.3325,-1.4175000000000002,-3.7450000000000006,0.9054375,0.00628125,-0.25446875,0.94496875,0.8744375,-0.45984375,-0.9687187500000001,0.81646875,0.01905674479216573,0.028605792998489362,True
23741,46833,0,46834,4508.0,44188.0,42677.0,-0.00042699999999999997,-0.000244,-0.000305,0.385,-1.4700000000000002,-3.7625,0.91209375,0.00909375,-0.25846875,0.93940625,0.9035,-0.4570625,-0.9695,0.82740625,0.019060189669139537,0.02847599070866457,True
23742,46834,0,46835,4512.0,44190.0,42679.0,0.0008539999999999999,-0.00122,0.000183,0.28,-1.4875,-3.7625,0.91778125,0.01134375,-0.2538125,0.9464375,0.86634375,-0.46809375000000003,-0.9726875,0.8166875,0.019594395251979937,0.028786449195746355,True
23743,46835,0,46836,4513.0,44190.0,42683.0,0.001037,-0.001098,-0.001403,0.28,-1.5925000000000002,-3.7450000000000006,0.91190625,0.00965625,-0.25753125,0.93940625,0.904375,-0.4575625,-0.97459375,0.8505312500000001,0.019103242606453522,0.028711678243014464,True
23744,46836,0,46837,4517.0,44193.0,42684.0,0.00042699999999999997,-0.000305,-0.00122,0.3325,-1.4700000000000002,-3.8150000000000004,0.91121875,0.0063125,-0.25453125,0.93871875,0.8669375,-0.46365625,-0.9808125,0.81559375,0.01921089575479953,0.02907356396033956,True
23745,46837,0,46838,4518.0,44194.0,42686.0,-0.00042699999999999997,0.000305,0.000549,0.22750000000000004,-1.5225000000000002,-3.7975000000000003,0.91828125,0.00853125,-0.254,0.947125,0.88975,-0.46453125,-0.9679375,0.83115625,0.019336667241478415,0.02859417202562286,True
23746,46838,0,46839,4519.0,44193.0,42685.0,0.0,6.1e-05,-0.001281,0.31500000000000006,-1.4875,-3.7100000000000004,0.911375,0.0085625,-0.25540625,0.9393750000000001,0.88865625,-0.45828125000000003,-0.96984375,0.8316250000000001,0.019087348993502968,0.028612013240971925,True
23747,46839,0,46840,4521.0,44190.0,42684.0,0.000488,0.0006709999999999999,0.000549,0.385,-1.4000000000000001,-3.7450000000000006,0.9111875,0.00596875,-0.2545625,0.94321875,0.8661875,-0.46346875,-0.9733437500000001,0.8267187500000001,0.01918932694285229,0.028781938742183853,True
23748,46840,0,46841,4519.0,44192.0,42684.0,0.000366,6.1e-05,0.002562,0.47250000000000003,-1.4700000000000002,-3.7100000000000004,0.91146875,0.01421875,-0.25678125,0.93978125,0.87875,-0.4598125,-0.97490625,0.8265,0.019380003423983726,0.028753861688669998,True
23749,46841,0,46842,4519.0,44191.0,42682.0,-6.1e-05,0.000366,0.001647,0.45500000000000007,-1.4175000000000002,-3.8850000000000002,0.91796875,0.0099375,-0.25309375,0.94371875,0.88546875,-0.46046875,-0.9738125,0.831875,0.01923128517314289,0.02885897978132093,True
23750,46842,0,46843,4518.0,44191.0,42680.0,-0.002013,0.000488,0.000732,0.385,-1.5575,-3.9025000000000003,0.91225,0.0070625,-0.25478125,0.9392812500000001,0.87828125,-0.46271875,-0.96696875,0.82646875,0.019203967261406708,0.028525188905841842,True
23751,46843,0,46844,4517.0,44192.0,42679.0,0.000122,0.00122,0.000183,0.28,-1.5925000000000002,-3.9025000000000003,0.91671875,0.0094375,-0.255375,0.93940625,0.885375,-0.45921875,-0.9768125,0.826625,0.019160720331674534,0.02888429017914115,True
23752,46844,0,46845,4518.0,44191.0,42682.0,0.000793,0.000366,6.1e-05,0.29750000000000004,-1.6625,-3.9200000000000004,0.9156875,0.00721875,-0.2539375,0.94115625,0.88321875,-0.46271875,-0.9735312500000001,0.82375,0.01921035453183224,0.028814257094699012,True
23753,46845,0,46846,4518.0,44191.0,42680.0,0.000915,-0.001281,-0.002013,0.28,-1.8900000000000001,-3.8675,0.91525,0.008937500000000001,-0.25615625000000003,0.93853125,0.8774375,-0.45928125000000003,-0.97628125,0.8226875,0.01914278450026,0.02883235469651832,True
23754,46846,0,46847,4518.0,44193.0,42681.0,0.002806,-0.000549,-0.0025009999999999998,0.22750000000000004,-1.9600000000000002,-3.9375000000000004,0.919375,0.00940625,-0.25453125,0.94696875,0.8872187500000001,-0.46028125000000003,-0.9731562500000001,0.83025,0.01920204821847664,0.028775898120607005,True
23755,46847,0,46848,4517.0,44191.0,42679.0,0.00122,-0.001098,0.000122,0.28,-1.6450000000000002,-3.9375000000000004,0.9115625,0.01184375,-0.25946875,0.939125,0.8786875000000001,-0.46359375,-0.9762500000000001,0.82703125,0.01943449130404236,0.028698513587908515,True
23756,46848,0,46849,4519.0,44191.0,42681.0,-0.000366,-0.001769,0.000244,0.36750000000000005,-1.54,-3.7975000000000003,0.9219375,0.00153125,-0.2496875,0.9544375,0.886625,-0.4606875,-0.9740625,0.8321875,0.018896392425601285,0.029005092783763155,True
23757,46849,0,46850,4519.0,44191.0,42684.0,-0.001647,-0.000549,0.000732,0.4025,-1.435,-3.7450000000000006,0.9079375000000001,0.0111875,-0.26240625,0.9333125,0.87640625,-0.46168750000000003,-0.9734375000000001,0.8266875,0.019331250143719645,0.02847150096978039,True
23758,46850,0,46851,4520.0,44193.0,42684.0,-0.00183,0.000793,0.0015249999999999999,0.3325,-1.4175000000000002,-3.8850000000000002,0.9226875,0.00946875,-0.25259375,0.95203125,0.88478125,-0.4558125,-0.97596875,0.82578125,0.01902538506950035,0.02896284053045991,True
23759,46851,0,46852,4519.0,44192.0,42682.0,-0.0018909999999999999,0.001769,0.000732,0.28,-1.5050000000000001,-3.7450000000000006,0.9051250000000001,0.010843750000000001,-0.26206250000000003,0.9325625000000001,0.87740625,-0.46268750000000003,-0.9751875,0.82628125,0.01935728647966418,0.028553339189145228,True
23760,46852,0,46853,4522.0,44193.0,42684.0,-0.000793,0.000488,-0.000244,0.47250000000000003,-1.5575,-3.7975000000000003,0.90571875,0.00140625,-0.2550625,0.93415625,0.883875,-0.46446875,-0.9741875,0.83259375,0.019042923219005112,0.02879473055930248,True
23761,46853,0,46854,4523.0,44192.0,42687.0,0.000976,0.0,-0.001037,0.36750000000000005,-1.6450000000000002,-3.8325000000000005,0.9225,0.010375,-0.2495625,0.95596875,0.88478125,-0.4599375,-0.974,0.830125,0.019227870063036754,0.02900766797469368,True
23762,46854,0,46855,4525.0,44196.0,42689.0,0.000244,-0.000488,-0.00061,0.35000000000000003,-1.5925000000000002,-3.7800000000000002,0.9049375000000001,0.004125,-0.25540625,0.93371875,0.87834375,-0.463,-0.973,0.8263125,0.01909516412541389,0.028734783566251552,True
23763,46855,0,46856,4526.0,44195.0,42689.0,-0.00042699999999999997,-0.000244,0.000732,0.3325,-1.6625,-3.8150000000000004,0.930125,0.010968750000000001,-0.26196875000000003,0.92875,0.8848125,-0.46009375,-0.9753125,0.82503125,0.01925840942453461,0.02856195493049386,True
23764,46856,0,46857,4528.0,44196.0,42693.0,0.000244,-0.000366,0.00042699999999999997,0.29750000000000004,-1.6275000000000002,-3.7275000000000005,0.90428125,-0.0015,-0.251375,0.9469375,0.8861875,-0.46071875,-0.9736875,0.8336250000000001,0.018773722665038205,0.0289229413958191,True
23765,46857,0,46858,4529.0,44196.0,42694.0,0.002562,0.000366,-0.002562,0.21000000000000002,-1.715,-3.8675,0.912375,0.011375,-0.25934375,0.93315625,0.87275,-0.45878125000000003,-0.975375,0.8259062500000001,0.019222390731345212,0.0286694894471054,True
23766,46858,0,46859,4531.0,44198.0,42696.0,0.0013419999999999999,0.002074,-0.000732,0.31500000000000006,-1.5050000000000001,-3.9025000000000003,0.913,0.00571875,-0.249625,0.94153125,0.8834062500000001,-0.4623125,-0.9733125,0.83403125,0.019132747568325767,0.028978434478806128,True
23767,46859,0,46860,4533.0,44198.0,42700.0,6.1e-05,0.002013,0.00122,0.4025,-1.33,-3.8500000000000005,0.90921875,0.009125,-0.25446875,0.94571875,0.8773125,-0.46309375,-0.9726250000000001,0.8319375,0.019303312770895958,0.028757739724998874,True
23768,46860,0,46861,4535.0,44201.0,42702.0,-0.0026839999999999998,0.0011589999999999999,0.001464,0.49000000000000005,-1.155,-3.8850000000000002,0.9115,0.00871875,-0.25340625,0.944125,0.8776875000000001,-0.4634375,-0.971375,0.8221875000000001,0.019300486695706602,0.028751670662909033,True
23769,46861,0,46862,4538.0,44202.0,42704.0,-0.006039,-0.000793,0.0035989999999999998,0.5775,-1.2075,-3.9025000000000003,0.911375,0.00653125,-0.25528125,0.9389375,0.87828125,-0.46159375,-0.9756875,0.82565625,0.019137142280437065,0.028844301082803028,True
23770,46862,0,46863,4538.0,44202.0,42709.0,-0.000915,-0.002562,0.001037,0.29750000000000004,-1.715,-4.0425,0.9205,0.01,-0.25446875,0.9390937500000001,0.8778125,-0.46,-0.97484375,0.82696875,0.019215044971381847,0.02884402429945132,True
23771,46863,0,46864,4542.0,44203.0,42711.0,0.002074,-0.0013419999999999999,-0.000183,0.15750000000000003,-2.1,-4.0075,0.91221875,0.0053125,-0.25434375,0.94446875,0.87734375,-0.4576875,-0.9733125,0.8325312500000001,0.018930653194419958,0.02878948277286003,True
23772,46864,0,46865,4543.0,44203.0,42716.0,0.006039,-0.00122,-0.0032329999999999998,0.10500000000000001,-2.45,-4.025,0.91259375,0.0083125,-0.25371875,0.9470937500000001,0.87840625,-0.45796875000000004,-0.97290625,0.8355,0.01906459423373006,0.028798710602615584,True
23773,46865,0,46866,4544.0,44205.0,42712.0,0.0068319999999999995,0.000732,-0.00488,0.12250000000000001,-2.415,-4.025,0.91125,0.00796875,-0.2535,0.946125,0.87790625,-0.46387500000000004,-0.97309375,0.833,0.01928736759814216,0.028814761887481402,True
23774,46866,0,46867,4546.0,44204.0,42718.0,0.006893,0.001769,-0.003172,0.2625,-2.2925000000000004,-4.0075,0.90665625,0.00878125,-0.25709375,0.93978125,0.87853125,-0.45703125,-0.97590625,0.822875,0.019046158760581376,0.028780236953363802,True
23775,46867,0,46868,4549.0,44203.0,42719.0,-6.1e-05,0.001464,0.0023179999999999997,0.49000000000000005,-1.4700000000000002,-3.9375000000000004,0.91728125,0.00946875,-0.2568125,0.93225,0.88596875,-0.46003125,-0.9754375000000001,0.82678125,0.019194578911259568,0.02877326973751711,True
23776,46868,0,46869,4550.0,44207.0,42722.0,-0.003172,0.000122,0.0017079999999999999,0.5425000000000001,-1.0675000000000001,-3.9375000000000004,0.91825,0.0138125,-0.25725,0.93890625,0.88015625,-0.4524375,-0.976,0.82653125,0.019067628738443764,0.028777626521460604,True
23777,46869,0,46870,4551.0,44207.0,42724.0,-0.008173999999999999,-0.001037,0.000244,0.5775,-0.7525000000000001,-3.8850000000000002,0.9169375000000001,0.00928125,-0.257,0.9390000000000001,0.8851875,-0.46015625,-0.97665625,0.82603125,0.019191925644383403,0.028813154282811573,True
23778,46870,0,46871,4555.0,44210.0,42724.0,-0.007991,-0.00244,0.001952,0.6125,-0.7525000000000001,-3.7625,0.9186875,0.008812500000000001,-0.25640625,0.9393125,0.88671875,-0.4534375,-0.97446875,0.8263125,0.01890327280162554,0.028751862839925275,True
23779,46871,0,46872,4555.0,44206.0,42722.0,-0.006161,-0.002074,0.000366,0.6125,-1.1725,-3.7800000000000002,0.91728125,0.0091875,-0.25646875,0.9392812500000001,0.8841875,-0.4604375,-0.97209375,0.82615625,0.01919937041191516,0.02865698836326049,True
23780,46872,0,46873,4555.0,44205.0,42719.0,0.003172,-0.000793,-0.001464,0.4025,-2.1875,-3.8675,0.91853125,0.00859375,-0.25528125,0.9400625,0.878375,-0.45959375,-0.972,0.82659375,0.019141262311439658,0.028700895002402686,True
23781,46873,0,46874,4551.0,44202.0,42712.0,0.007869,0.000366,-0.0018909999999999999,0.29750000000000004,-2.1175,-3.9725000000000006,0.9163125,0.008812500000000001,-0.25453125,0.9400625,0.88425,-0.4548125,-0.97303125,0.8317187500000001,0.018958436095144873,0.028771036755900432,True
23782,46874,0,46875,4547.0,44199.0,42704.0,0.006954,0.000549,0.0,0.31500000000000006,-2.0300000000000002,-3.9200000000000004,0.911625,0.0064062500000000005,-0.253625,0.94384375,0.878,-0.46087500000000003,-0.973,0.8305,0.019103210739599464,0.028806110599447404,True
23783,46875,0,46876,4540.0,44200.0,42699.0,0.005124,0.000244,0.001037,0.29750000000000004,-1.7325000000000002,-3.8675,0.9108125,0.0096875,-0.2509375,0.9418125,0.87875,-0.45796875000000004,-0.97340625,0.825125,0.019120813129667607,0.028929523780921954,True
23784,46876,0,46877,4534.0,44194.0,42691.0,-6.1e-05,0.000122,0.00061,0.29750000000000004,-1.2950000000000002,-3.8325000000000005,0.90546875,0.00975,-0.25471875,0.9389375,0.88309375,-0.46009375,-0.96915625,0.8265625,0.01920858336857356,0.028612801043287155,True
23785,46877,0,46878,4528.0,44193.0,42687.0,-0.004209,0.001098,0.00061,0.24500000000000002,-0.9975,-3.7975000000000003,0.9135,0.00634375,-0.25384375,0.94140625,0.875,-0.46153125,-0.97296875,0.8333125,0.019126971047652628,0.028796135821857385,True
23786,46878,0,46879,4524.0,44191.0,42683.0,-0.006161,0.000549,0.000732,0.22750000000000004,-0.9625000000000001,-3.8325000000000005,0.9115625,0.0105625,-0.25578125,0.93940625,0.870625,-0.46,-0.9783437500000001,0.8263125,0.019238041700735894,0.0289275584975485,True
23787,46879,0,46880,4520.0,44190.0,42679.0,-0.0042699999999999995,0.000366,0.000366,0.4025,-1.225,-3.7625,0.9133125,0.0074687500000000006,-0.2539375,0.94384375,0.8785625,-0.46596875,-0.973375,0.829125,0.019350858526703547,0.028808180712458765,True
23788,46880,0,46881,4516.0,44187.0,42673.0,-0.0028669999999999998,0.0018909999999999999,0.0011589999999999999,0.4025,-1.4525000000000001,-3.9550000000000005,0.90125,0.00975,-0.256875,0.9394687500000001,0.8905000000000001,-0.45990625,-0.97565625,0.823625,0.01920106500817026,0.028779273817880157,True
23789,46881,0,46882,4513.0,44185.0,42673.0,-0.000366,0.001586,0.000549,0.24500000000000002,-1.5225000000000002,-4.077500000000001,0.912,0.0056875,-0.2543125,0.93984375,0.86603125,-0.4658125,-0.9725312500000001,0.82246875,0.019271789972231664,0.028760350435040508,True
23790,46882,0,46883,4512.0,44185.0,42672.0,0.000976,-0.0011589999999999999,-0.000244,0.36750000000000005,-1.8550000000000002,-4.1475,0.93053125,0.008906250000000001,-0.25428125,0.9651875,0.89025,-0.4584375,-0.97090625,0.8380625,0.019107669899191233,0.028698397760393658,True
23791,46883,0,46884,4512.0,44188.0,42671.0,0.001647,-0.0006709999999999999,-0.000244,0.385,-1.9600000000000002,-4.2,0.90828125,0.002375,-0.25296875,0.944125,0.87425,-0.4649375,-0.972,0.83709375,0.01910131591384609,0.02879349871856479,True
23792,46884,0,46885,4510.0,44186.0,42672.0,0.0034159999999999998,-0.0011589999999999999,-0.00042699999999999997,0.2625,-2.1875,-4.1825,0.9138125,0.01384375,-0.256625,0.9315625000000001,0.8763125,-0.45859375,-0.977875,0.82253125,0.019315807966269527,0.02887555486605646,True
23793,46885,0,46886,4512.0,44187.0,42673.0,0.0057339999999999995,-0.002928,-0.001769,0.24500000000000002,-2.24,-4.2175,0.91709375,0.0034375,-0.247125,0.945625,0.875375,-0.4606875,-0.96803125,0.83121875,0.018974323595769744,0.02887317156814276,True
23794,46886,0,46887,4513.0,44185.0,42675.0,0.004392,-0.001647,-0.0034159999999999998,0.22750000000000004,-2.24,-4.112500000000001,0.89865625,0.007625,-0.248125,0.958125,0.8741875,-0.465875,-0.9709375,0.8385312500000001,0.019353487255207507,0.028946149899257884,True
23795,46887,0,46888,4515.0,44186.0,42676.0,0.0,0.000366,-0.000488,0.21000000000000002,-1.61,-3.9550000000000005,0.9010625,0.004,-0.26140625,0.9276875,0.87425,-0.46415625,-0.9733125,0.8240937500000001,0.01913641513796332,0.028506680881841367,True
23796,46888,0,46889,4517.0,44188.0,42680.0,-0.000915,0.001281,0.000793,0.24500000000000002,-1.435,-3.8500000000000005,0.93621875,0.01359375,-0.2668125,0.92940625,0.89046875,-0.45278125,-0.97690625,0.8150937500000001,0.019072472584279142,0.028430012223791726,True
23797,46889,0,46890,4519.0,44188.0,42681.0,-0.002196,0.0008539999999999999,0.000488,0.28,-1.3475000000000001,-3.8500000000000005,0.92621875,0.0069375,-0.25275000000000003,0.9590000000000001,0.884875,-0.45884375,-0.9718125,0.83053125,0.019043469706126234,0.028794966324530907,True
23798,46890,0,46891,4520.0,44189.0,42684.0,-0.00183,0.001403,0.000305,0.35000000000000003,-1.2950000000000002,-3.8325000000000005,0.89871875,-0.001875,-0.24896875000000002,0.9565,0.87503125,-0.45953125,-0.97275,0.82528125,0.018710753093438778,0.028982841297013746,True
23799,46891,0,46892,4522.0,44188.0,42689.0,-0.0015249999999999999,0.000732,0.000732,0.4025,-1.3125000000000002,-3.9025000000000003,0.8979375,0.003625,-0.2475,0.9570625,0.87896875,-0.4590625,-0.9725,0.83265625,0.018916812531142597,0.02903193512864151,True
23800,46892,0,46893,4526.0,44190.0,42693.0,-0.000732,-0.001098,0.0015249999999999999,0.43750000000000006,-1.4525000000000001,-3.8500000000000005,0.8996875,0.00471875,-0.252,0.9364375,0.8749375,-0.46278125000000003,-0.9692500000000001,0.82934375,0.019110664287201606,0.028725332158555026,True
23801,46893,0,46894,4526.0,44192.0,42693.0,-0.001403,-0.001037,0.000366,0.47250000000000003,-1.4875,-3.7625,0.90734375,0.00728125,-0.2518125,0.94315625,0.87821875,-0.4620625,-0.9726250000000001,0.8301875,0.019186597614162748,0.028864106196284933,True
23802,46894,0,46895,4530.0,44192.0,42695.0,0.000244,0.000122,-0.00122,0.31500000000000006,-1.4525000000000001,-3.7275000000000005,0.9091250000000001,0.00709375,-0.24921875000000002,0.9393750000000001,0.87909375,-0.45953125,-0.9752500000000001,0.825625,0.01907743019400668,0.029070029329035747,True
23803,46895,0,46896,4531.0,44194.0,42700.0,0.0017079999999999999,0.0,-0.0006709999999999999,0.385,-1.5925000000000002,-3.7275000000000005,0.91903125,0.00940625,-0.2565,0.938625,0.88665625,-0.460125,-0.9721875,0.83309375,0.019195782932425732,0.02865938356421519,True
23804,46896,0,46897,4534.0,44195.0,42699.0,0.000305,-0.000183,-0.00061,0.3325,-1.5225000000000002,-3.6400000000000006,0.91440625,0.0138125,-0.25325000000000003,0.93896875,0.8785625,-0.46171875,-0.9686875,0.82865625,0.01943981348407908,0.028653388368932085,True
23805,46897,0,46898,4534.0,44197.0,42698.0,-0.000244,-0.000244,0.0006709999999999999,0.4025,-1.5925000000000002,-3.6925000000000003,0.9183125,0.008937500000000001,-0.2571875,0.93975,0.878375,-0.4633125,-0.97209375,0.826625,0.019304417584495148,0.028628206235210053,True
23806,46898,0,46899,4534.0,44194.0,42698.0,0.0,0.000244,0.000122,0.45500000000000007,-1.5925000000000002,-3.7100000000000004,0.9198125,0.00953125,-0.2544375,0.9432812500000001,0.88578125,-0.46028125000000003,-0.97478125,0.82646875,0.01920715854401715,0.028842845220115796,True
23807,46899,0,46900,4533.0,44197.0,42696.0,0.000244,0.000305,-0.00042699999999999997,0.35000000000000003,-1.4700000000000002,-3.7625,0.9113125,0.00978125,-0.25234375,0.9394687500000001,0.8865000000000001,-0.4588125,-0.9762500000000001,0.826375,0.019158483266511817,0.0289837845953656,True
23808,46900,0,46901,4535.0,44195.0,42696.0,-0.001098,0.000183,0.00061,0.42000000000000004,-1.2600000000000002,-3.7275000000000005,0.9176562500000001,0.00915625,-0.25615625000000003,0.94446875,0.88415625,-0.4599375,-0.9733125,0.83403125,0.019178043688787023,0.02871690529640391,True
23809,46901,0,46902,4535.0,44198.0,42695.0,-0.001769,0.000488,0.000793,0.385,-1.3125000000000002,-3.8500000000000005,0.9115625,0.0075,-0.25409375,0.93925,0.876625,-0.4595,-0.9766875,0.82575,0.0190927860340563,0.028930727903770267,True
23810,46902,0,46903,4532.0,44194.0,42696.0,-0.0021349999999999997,0.000366,0.001281,0.385,-1.435,-3.8500000000000005,0.91778125,0.00934375,-0.2564375,0.94225,0.88696875,-0.4608125,-0.972875,0.83434375,0.019220794485056456,0.028688627160469115,True
23811,46903,0,46904,4532.0,44196.0,42694.0,0.00042699999999999997,0.000122,0.000183,0.42000000000000004,-1.61,-3.8850000000000002,0.90690625,0.004625,-0.25384375,0.9400625,0.87903125,-0.46228125000000003,-0.9765625,0.82621875,0.01908678284041886,0.028935877385048485,True
23812,46904,0,46905,4532.0,44195.0,42695.0,0.002257,0.000732,6.1e-05,0.31500000000000006,-1.715,-3.9025000000000003,0.9184687500000001,0.0093125,-0.25565625000000003,0.939625,0.88675,-0.46009375,-0.975,0.8254375,0.019190697092074722,0.028802552552552547,True
23813,46905,0,46906,4531.0,44195.0,42696.0,0.0032329999999999998,-0.000183,0.000488,0.1925,-1.9250000000000003,-3.7975000000000003,0.91771875,0.00903125,-0.25628125,0.93875,0.88015625,-0.45996875000000004,-0.97275,0.82665625,0.019174186393839936,0.028690022124115283,True
23814,46906,0,46907,4533.0,44195.0,42693.0,0.001647,-0.001403,-0.002013,0.28,-1.8375000000000001,-3.6925000000000003,0.919,0.00946875,-0.25734375,0.93940625,0.88015625,-0.46028125000000003,-0.97065625,0.827375,0.019204603381246896,0.02856602937698123,True
23815,46907,0,46908,4533.0,44194.0,42694.0,6.1e-05,0.000793,-0.002562,0.29750000000000004,-1.5925000000000002,-3.6400000000000006,0.91659375,0.0085625,-0.25628125,0.9390937500000001,0.87990625,-0.46021875,-0.9720625,0.8267187500000001,0.019165047328123345,0.02866328121675973,True
23816,46908,0,46909,4534.0,44196.0,42695.0,-0.001281,0.000915,-0.001647,0.31500000000000006,-1.4175000000000002,-3.6750000000000003,0.91703125,0.00878125,-0.253625,0.9475625,0.8784375,-0.463125,-0.97378125,0.8299375,0.019290513783500676,0.028836492271269495,True
23817,46909,0,46910,4533.0,44195.0,42698.0,-0.00183,-0.0006709999999999999,0.000488,0.31500000000000006,-1.435,-3.6225000000000005,0.9110625,0.00684375,-0.253375,0.9333125,0.8785937500000001,-0.4601875,-0.9741562500000001,0.82659375,0.019093526981344686,0.028861085146770476,True
