frame_seq,absolute_seq_u64,segment_id,sample_seq,PPG_G,PPG_R,PPG_IR,ACC_X,ACC_Y,ACC_Z,GYRO_X,GYRO_Y,GYRO_Z,Uh1,Uh2,Uh3,Uh4,Uc1,Uc2,Uc3,Uc4,UD1,UD2,parser_valid
1445,196249,0,196250,4928.0,43342.0,39972.0,-0.01159,-6.1e-05,0.0025009999999999998,0.385,-0.49000000000000005,-3.5175000000000005,1.09259375,0.36521875,0.2814375,1.3335000000000001,1.05725,-0.1171875,-0.196625,1.29915625,0.020002591512795594,0.019757404183434673,True
1446,196250,0,196251,4927.0,43342.0,39970.0,0.0035989999999999998,0.003904,0.003111,0.385,-1.6800000000000002,-3.5875000000000004,1.0825625,0.36234375,0.2880625,1.3230625,1.06265625,-0.1176875,-0.19643750000000001,1.3,0.01990370138098854,0.020023608847376813,True
1447,196251,0,196252,4927.0,43344.0,39972.0,0.012627,0.0030499999999999998,-0.001769,0.3325,-2.6425,-3.6925000000000003,1.0910312500000001,0.354,0.2836875,1.3239687500000001,1.05809375,-0.1170625,-0.19915625,1.30165625,0.019532333176977917,0.019952916746839054,True
1448,196252,0,196253,4927.0,43343.0,39973.0,0.015555,-0.0008539999999999999,-0.00671,0.28,-3.08,-3.8500000000000005,1.0772187500000001,0.35965625,0.27940625,1.34378125,1.06325,-0.11621875,-0.19593750000000001,1.2946250000000001,0.019732571052416745,0.019645601663502398,True
1449,196253,0,196254,4927.0,43348.0,39972.0,0.012199999999999999,-0.00244,-0.0062829999999999995,0.29750000000000004,-2.8525000000000005,-3.8675,1.0919375,0.36240625,0.29265625,1.32659375,1.0646875,-0.1189375,-0.1983125,1.2945,0.0199570876619254,0.020289379682984093,True
1450,196254,0,196255,4928.0,43350.0,39972.0,0.0026839999999999998,-0.0026839999999999998,-0.003538,0.3325,-2.3625000000000003,-3.9375000000000004,1.0910312500000001,0.3545625,0.28250000000000003,1.32765625,1.05684375,-0.11625,-0.19928125,1.3026875,0.019522624786191885,0.019908907418479633,True
1451,196255,0,196256,4929.0,43356.0,39974.0,-0.011712,-0.003172,0.004209,0.4025,-0.6125,-3.8150000000000004,1.075875,0.36146875,0.2869375,1.3265,1.064875,-0.1191875,-0.19693750000000002,1.29384375,0.019928376525950555,0.019997365369067883,True
1452,196256,0,196257,4929.0,43361.0,39973.0,-0.01586,-0.000732,0.006161,0.4025,-0.1925,-3.7100000000000004,1.08840625,0.354125,0.28175,1.325125,1.057,-0.11665625,-0.19809375,1.29671875,0.019521000138648992,0.01982981613995937,True
1453,196257,0,196258,4929.0,43368.0,39972.0,-0.013725,0.003843,0.006771,0.5425000000000001,-0.12250000000000001,-3.5700000000000003,1.0775625,0.3608125,0.2785,1.340375,1.0634375,-0.114375,-0.196,1.295625,0.01970556981053832,0.01961067945114895,True
1454,196258,0,196259,4931.0,43370.0,39971.0,-0.007808,0.004575,0.007076,0.56,-0.5075000000000001,-3.4650000000000003,1.07828125,0.36246875,0.28500000000000003,1.33634375,1.0635937500000001,-0.1191875,-0.1960625,1.295125,0.019969837292404646,0.019881850611024005,True
1455,196259,0,196260,4929.0,43375.0,39973.0,-0.000305,0.003843,0.000549,0.4025,-1.2775,-3.5000000000000004,1.08996875,0.35896875,0.28634375,1.32915625,1.05721875,-0.11971875,-0.1965,1.295375,0.019846313506454133,0.01995510714359515,True
1456,196260,0,196261,4930.0,43379.0,39972.0,0.013786,0.0032329999999999998,-0.007076,0.28,-2.7475,-3.7100000000000004,1.08228125,0.35684375,0.28484375,1.324,1.057,-0.11734375,-0.19734375,1.30284375,0.019661680196435397,0.019927290572958032,True
1457,196261,0,196262,4932.0,43383.0,39972.0,0.013786,-0.000793,-0.0051849999999999995,0.36750000000000005,-2.87,-3.7450000000000006,1.0845,0.36090625,0.281875,1.33659375,1.0577812500000001,-0.11615625,-0.19768750000000002,1.3001875,0.019781863040466908,0.01981852604716876,True
1458,196262,0,196263,4931.0,43380.0,39972.0,0.007259,-0.005246,-0.003721,0.15750000000000003,-2.0125,-3.7275000000000005,1.08315625,0.36078125,0.2840625,1.32553125,1.06484375,-0.1161875,-0.196625,1.29559375,0.019777949976545837,0.01986589038760571,True
1459,196263,0,196264,4932.0,43384.0,39973.0,-0.002989,-0.006954,0.000366,0.12250000000000001,-0.9975,-3.7275000000000005,1.08946875,0.36078125,0.2846875,1.33728125,1.06328125,-0.12021875,-0.19621875,1.2948125,0.01994177602555947,0.019875264601002997,True
1460,196264,0,196265,4932.0,43385.0,39979.0,-0.0075639999999999995,-0.0017079999999999999,0.004331,0.24500000000000002,-0.6125,-3.6225000000000005,1.083375,0.36062500000000003,0.28465625,1.33646875,1.06496875,-0.116375,-0.195875,1.29321875,0.019779092006986954,0.019860048458673223,True
1461,196265,0,196266,4933.0,43383.0,39980.0,-0.000488,-0.00061,-0.00122,0.29750000000000004,-1.715,-3.8150000000000004,1.0891250000000001,0.3611875,0.28434375,1.3326875,1.06534375,-0.11900000000000001,-0.19603125,1.294875,0.01990909656287574,0.019853462538406995,True
1462,196266,0,196267,4936.0,43383.0,39983.0,0.003294,0.000732,-0.000732,0.36750000000000005,-2.1,-3.7100000000000004,1.08325,0.36071875000000003,0.28309375000000003,1.335625,1.06509375,-0.1131875,-0.19643750000000001,1.29153125,0.01965340542389927,0.019818258369646364,True
1463,196267,0,196268,4935.0,43380.0,39984.0,0.004941,0.003355,0.000122,0.5075000000000001,-2.1175,-3.6575,1.08553125,0.36109375,0.28509375,1.329375,1.06078125,-0.11984375,-0.196,1.294375,0.01993949484021844,0.019883193503058356,True
1464,196268,0,196269,4936.0,43381.0,39986.0,0.000244,0.0013419999999999999,-0.000122,0.45500000000000007,-1.715,-3.6575,1.08446875,0.35815625,0.2839375,1.3375000000000001,1.05753125,-0.1171875,-0.19646875,1.30128125,0.019709750566893426,0.019854395075727733,True
1465,196269,0,196270,4938.0,43382.0,39984.0,-0.001952,0.0023179999999999997,0.001098,0.4025,-1.33,-3.7275000000000005,1.0910625,0.36665625,0.28603125,1.3295625,1.0501875,-0.1185625,-0.1965,1.298125,0.0201180625918315,0.01994219205256959,True
1466,196270,0,196271,4940.0,43380.0,39985.0,-0.005673,-0.000183,0.0015249999999999999,0.1925,-0.9800000000000001,-3.7450000000000006,1.08325,0.36075,0.28521875,1.33665625,1.057125,-0.11653125,-0.1946875,1.2945312500000001,0.01979062598399179,0.019835191093086034,True
1467,196271,0,196272,4941.0,43378.0,39987.0,-0.007442,-0.00488,-0.0018909999999999999,0.12250000000000001,-1.1900000000000002,-3.7800000000000002,1.09015625,0.36225,0.28896875,1.33046875,1.0617812500000001,-0.11821875,-0.19271875,1.28953125,0.01992140277772379,0.01991043276192346,True
1468,196272,0,196273,4940.0,43378.0,39988.0,-0.0015249999999999999,-0.002623,-0.002257,0.1925,-1.7325000000000002,-3.8675,1.09028125,0.36046875,0.28521875,1.330375,1.057125,-0.11890625,-0.1968125,1.28503125,0.019875486683812622,0.01992127062190526,True
1469,196273,0,196274,4943.0,43376.0,39990.0,0.006161,-0.00183,-0.00061,0.42000000000000004,-2.345,-3.8500000000000005,1.08665625,0.3579375,0.2866875,1.3256875000000001,1.0495,-0.11484375000000001,-0.1995625,1.2943437500000001,0.0196054038293323,0.020093338464280085,True
1470,196274,0,196275,4946.0,43369.0,39989.0,0.01159,-0.0006709999999999999,-0.000976,0.3325,-2.6775,-3.8325000000000005,1.083625,0.358,0.28628125,1.332375,1.05690625,-0.11209375,-0.19925,1.30021875,0.019496181247221633,0.02006389660836596,True
1471,196275,0,196276,4947.0,43371.0,39991.0,0.004575,0.003477,-0.003111,0.5425000000000001,-2.0825,-3.6225000000000005,1.08384375,0.3668125,0.2834375,1.33525,1.061125,-0.116125,-0.19643750000000001,1.29828125,0.02002550160940035,0.01983246500647048,True
1472,196276,0,196277,4949.0,43370.0,39993.0,-0.0018909999999999999,0.005246,0.003477,0.6475000000000001,-1.5050000000000001,-3.6925000000000003,1.08296875,0.36103125,0.285375,1.33375,1.06184375,-0.115875,-0.195875,1.2939375,0.01977561461070768,0.019889753935329883,True
1473,196277,0,196278,4948.0,43367.0,39993.0,-0.007259,0.00122,0.0037819999999999998,0.47250000000000003,-1.12,-3.6925000000000003,1.086125,0.36140625,0.28534375,1.33003125,1.0643125,-0.1191875,-0.197625,1.294375,0.019925785228047173,0.019959345183669885,True
1474,196278,0,196279,4952.0,43367.0,39994.0,-0.010003999999999999,-0.001952,0.0015249999999999999,0.36750000000000005,-1.0150000000000001,-3.7275000000000005,1.0831250000000001,0.36046875,0.28375,1.33309375,1.0580625000000001,-0.11625,-0.19825,1.30465625,0.019767532265588555,0.01991879578068662,True
1475,196279,0,196280,4954.0,43368.0,39997.0,-0.008173999999999999,-6.1e-05,0.001769,0.42000000000000004,-1.2775,-3.7100000000000004,1.0763125,0.36175,0.290625,1.3300625,1.05434375,-0.116125,-0.19621875,1.29203125,0.019815579824702355,0.020120654182794576,True
1476,196280,0,196281,4952.0,43371.0,39998.0,0.003294,-0.0011589999999999999,-0.0032329999999999998,0.35000000000000003,-2.0125,-3.6750000000000003,1.08834375,0.3596875,0.28553125,1.3301875,1.0615937500000001,-0.12009375,-0.19871875,1.2976875,0.01989135096127062,0.02001139006584801,True
1477,196281,0,196282,4954.0,43373.0,39998.0,0.0042699999999999995,-0.00061,-0.008539999999999999,0.36750000000000005,-2.1175,-3.6225000000000005,1.082375,0.361375,0.29084375,1.33115625,1.051125,-0.1153125,-0.19425,1.28065625,0.019767004885381433,0.02004996021782035,True
1478,196282,0,196283,4954.0,43375.0,39999.0,0.001586,0.001281,-0.00244,0.35000000000000003,-1.715,-3.5000000000000004,1.09603125,0.3565,0.2854375,1.3314375,1.065,-0.1198125,-0.1993125,1.29778125,0.019747769598126023,0.020031560813969406,True
1479,196283,0,196284,4957.0,43376.0,39999.0,0.00042699999999999997,-6.1e-05,0.004026,0.28,-1.54,-3.5700000000000003,1.06909375,0.349375,0.28084375,1.32509375,1.0536875,-0.1165,-0.19675,1.3005,0.01931768706072606,0.01973792968063893,True
1480,196284,0,196285,4956.0,43377.0,39998.0,0.00183,-0.0030499999999999998,-0.001037,0.0,-1.7325000000000002,-3.7800000000000002,1.06815625,0.36290625,0.28271875,1.35009375,1.06634375,-0.11625,-0.19425,1.29090625,0.01986860519359353,0.019714136623371258,True
1481,196285,0,196286,4953.0,43374.0,39992.0,-0.00244,0.0006709999999999999,0.000305,0.14,-1.8550000000000002,-3.5700000000000003,1.1034375,0.35115625,0.28346875,1.32909375,1.058,-0.12053125,-0.2021875,1.30528125,0.019555435786680696,0.02006662620889124,True
1482,196286,0,196287,4949.0,43374.0,39988.0,6.1e-05,0.001769,0.003843,0.2625,-2.1700000000000004,-3.6750000000000003,1.071375,0.35853125,0.27809375000000003,1.32465625,1.06696875,-0.115375,-0.19575,1.30609375,0.019651622668111112,0.019583759544548114,True
1483,196287,0,196288,4943.0,43374.0,39985.0,0.005673,0.000183,0.0035989999999999998,0.22750000000000004,-2.3800000000000003,-3.7975000000000003,1.06990625,0.36409375,0.28840625000000003,1.32425,1.06928125,-0.1165625,-0.19359375,1.29125,0.019930545657159886,0.019922629311736707,True
1484,196288,0,196289,4938.0,43372.0,39981.0,0.0075639999999999995,-0.00042699999999999997,-0.000244,0.22750000000000004,-2.5025000000000004,-3.7450000000000006,1.07615625,0.353625,0.28025,1.34578125,1.05315625,-0.115375,-0.1970625,1.3057812500000001,0.019448173623673695,0.019726051457692437,True
1485,196289,0,196290,4933.0,43375.0,39978.0,-0.001952,6.1e-05,-0.000244,0.24500000000000002,-1.4525000000000001,-3.6225000000000005,1.0703125,0.3644375,0.28575,1.3538125,1.06421875,-0.1178125,-0.193625,1.2920625000000001,0.019995594542415486,0.019814103922004247,True
1486,196290,0,196291,4929.0,43370.0,39971.0,-0.007503,0.000793,0.00061,0.07,-0.7875000000000001,-3.6225000000000005,1.09709375,0.3545625,0.2885,1.31934375,1.0566875,-0.12,-0.19868750000000002,1.29928125,0.019675062189054727,0.02013280678962444,True
1487,196291,0,196292,4924.0,43370.0,39971.0,-0.009028,0.001586,0.001769,0.1925,-0.77,-3.6400000000000006,1.06565625,0.3660625,0.2778125,1.34746875,1.057375,-0.11671875,-0.19634375,1.29471875,0.020018529676637704,0.019596194156400182,True
1488,196292,0,196293,4919.0,43367.0,39969.0,-0.002989,0.0006709999999999999,0.003294,0.28,-1.1025,-3.7275000000000005,1.09071875,0.364375,0.290125,1.32609375,1.066375,-0.11840625,-0.1960625,1.29490625,0.02001712903397172,0.02009366193363073,True
1489,196293,0,196294,4917.0,43363.0,39965.0,0.000976,-0.002623,0.000244,0.1925,-1.3825,-3.7625,1.08796875,0.3560625,0.28621875,1.32953125,1.05784375,-0.11737500000000001,-0.1985625,1.2916875,0.019630556808110336,0.020033473062707755,True
1490,196294,0,196295,4913.0,43363.0,39963.0,0.001037,0.002989,-0.002745,0.35000000000000003,-1.7500000000000002,-3.7450000000000006,1.08146875,0.36071875000000003,0.2845625,1.33715625,1.0569375,-0.11159375,-0.19459375,1.297625,0.019588605585228062,0.019804269290531074,True
1491,196295,0,196296,4911.0,43360.0,39963.0,0.004331,0.001098,-0.000915,0.35000000000000003,-1.9600000000000002,-3.8850000000000002,1.08965625,0.36134375,0.2855625,1.33578125,1.062125,-0.11659375,-0.19203125000000001,1.29546875,0.019817786249353726,0.019741779640764977,True
1492,196296,0,196297,4910.0,43359.0,39960.0,0.006588,-0.0018909999999999999,-0.0015249999999999999,0.14,-1.995,-3.9025000000000003,1.0911875,0.35981250000000004,0.29309375,1.32346875,1.06590625,-0.11290625,-0.19621875,1.2956875,0.01960438717336281,0.020222684587855283,True
1493,196297,0,196298,4908.0,43359.0,39959.0,0.002989,-0.0008539999999999999,-0.003721,0.21000000000000002,-1.6800000000000002,-3.8675,1.0835625,0.35775,0.28350000000000003,1.33734375,1.05678125,-0.11721875,-0.19928125,1.300375,0.019694175971265344,0.019950230959855476,True
1494,196298,0,196299,4907.0,43358.0,39956.0,-0.000366,0.002379,-0.00183,0.42000000000000004,-1.2950000000000002,-3.7450000000000006,1.08759375,0.36159375,0.28534375,1.33065625,1.06534375,-0.11484375000000001,-0.19618750000000001,1.29515625,0.019757022062396736,0.019901120786074252,True
1495,196299,0,196300,4907.0,43360.0,39958.0,-0.003538,-0.0011589999999999999,0.001281,0.36750000000000005,-0.9625000000000001,-3.6575,1.088875,0.3581875,0.28546875,1.33015625,1.0635000000000001,-0.11884375,-0.19671875,1.29590625,0.019778363131524496,0.019927805293847953,True
1496,196300,0,196301,4907.0,43363.0,39955.0,-0.002562,-6.1e-05,0.002379,0.385,-0.8750000000000001,-3.5875000000000004,1.08371875,0.36012500000000003,0.28178125,1.33459375,1.05734375,-0.1164375,-0.1985625,1.3037812500000001,0.019760899593897315,0.019850094401268666,True
1497,196301,0,196302,4907.0,43365.0,39954.0,-0.003477,0.000793,0.002623,0.5075000000000001,-0.9275000000000001,-3.6050000000000004,1.0839375,0.36121875000000003,0.28509375,1.336875,1.05759375,-0.116125,-0.1965,1.296875,0.019793550995443922,0.019903446779492903,True
1498,196302,0,196303,4906.0,43369.0,39954.0,-0.002806,0.000122,-0.000305,0.42000000000000004,-1.155,-3.6225000000000005,1.0891250000000001,0.35953125,0.28500000000000003,1.3297812500000001,1.06528125,-0.11703125,-0.19203125000000001,1.29465625,0.019760413089815937,0.01971852818270479,True
1499,196303,0,196304,4908.0,43365.0,39953.0,-0.0018909999999999999,0.000244,-0.000305,0.3325,-1.3825,-3.5875000000000004,1.08778125,0.3576875,0.28221875,1.33040625,1.0543125,-0.1181875,-0.199625,1.29640625,0.019730960297078708,0.01991120730176604,True
1500,196304,0,196305,4911.0,43368.0,39952.0,0.004026,-0.000549,-0.000183,0.29750000000000004,-1.6800000000000002,-3.7100000000000004,1.080125,0.3656875,0.28446875,1.33846875,1.05746875,-0.1171875,-0.1965,1.28759375,0.020022027858762552,0.019877616597441777,True
1501,196305,0,196306,4910.0,43367.0,39954.0,0.00366,-0.001464,-0.0035989999999999998,0.35000000000000003,-1.7325000000000002,-3.6925000000000003,1.09040625,0.36184375,0.2851875,1.329375,1.0626875,-0.11603125,-0.19643750000000001,1.29490625,0.01981565685688851,0.01990478970302963,True
1502,196306,0,196307,4912.0,43370.0,39955.0,0.000976,-0.00042699999999999997,-0.002989,0.43750000000000006,-1.5225000000000002,-3.6050000000000004,1.08603125,0.36228125,0.28321875,1.33265625,1.05771875,-0.11775000000000001,-0.1993125,1.29603125,0.01990364980149475,0.019939874324942083,True
1503,196307,0,196308,4913.0,43371.0,39956.0,-0.000915,0.0,-0.000976,0.45500000000000007,-1.3650000000000002,-3.6575,1.0861875,0.358875,0.28371875,1.334375,1.057625,-0.1183125,-0.19853125,1.30103125,0.019785277265977876,0.0199288954779022,True
1504,196308,0,196309,4915.0,43368.0,39955.0,-0.0013419999999999999,-0.000976,0.001098,0.36750000000000005,-1.2425000000000002,-3.6925000000000003,1.09078125,0.35896875,0.28350000000000003,1.3354375,1.0616875000000001,-0.11790625,-0.19715625,1.299,0.01977265335791742,0.019864162756728903,True
1505,196309,0,196310,4914.0,43366.0,39956.0,0.000122,0.000488,0.0008539999999999999,0.35000000000000003,-1.2775,-3.5525,1.08375,0.35931250000000003,0.285375,1.33034375,1.06403125,-0.11796875,-0.19568750000000001,1.2946875,0.01978944640601212,0.019882158752463637,True
1506,196310,0,196311,4915.0,43362.0,39959.0,0.000122,0.0017079999999999999,0.001281,0.385,-1.33,-3.5525,1.083625,0.3610625,0.28450000000000003,1.33315625,1.0575625,-0.11609375,-0.19603125,1.29484375,0.01978580175323792,0.019859920209021883,True
1507,196311,0,196312,4916.0,43355.0,39955.0,0.000488,0.00061,0.0,0.29750000000000004,-1.2950000000000002,-3.5875000000000004,1.07965625,0.36109375,0.28521875,1.3343125,1.06490625,-0.1168125,-0.19012500000000002,1.295125,0.019816310716849497,0.019650322187256167,True
1508,196312,0,196313,4916.0,43352.0,39956.0,-0.000976,6.1e-05,0.00061,0.21000000000000002,-1.2425000000000002,-3.5875000000000004,1.08965625,0.3585,0.28475,1.3297812500000001,1.063625,-0.12084375,-0.200625,1.2942500000000001,0.019872594630940304,0.0200563001988585,True
1509,196313,0,196314,4916.0,43352.0,39957.0,-0.001403,0.000244,0.000976,0.22750000000000004,-1.2600000000000002,-3.6575,1.0829375,0.3609375,0.28209375000000003,1.3370625,1.044125,-0.11596875000000001,-0.19503125000000002,1.31071875,0.01977553773368528,0.0197199579975744,True
1510,196314,0,196315,4916.0,43352.0,39960.0,-0.001647,-0.00122,0.0018909999999999999,0.1925,-1.0850000000000002,-3.6225000000000005,1.08828125,0.36128125,0.2864375,1.32996875,1.07396875,-0.1135625,-0.18965625,1.28959375,0.019691978321328504,0.019681707961434963,True
1511,196315,0,196316,4918.0,43351.0,39958.0,-0.002074,-0.001281,-0.00042699999999999997,0.24500000000000002,-1.1900000000000002,-3.6925000000000003,1.08328125,0.3585,0.28278125,1.33134375,1.05165625,-0.12046875,-0.2015,1.2959687500000001,0.01985735662786404,0.020010381587918104,True
1512,196316,0,196317,4916.0,43351.0,39957.0,-0.000793,0.0008539999999999999,-0.000305,0.22750000000000004,-1.2775,-3.6750000000000003,1.0835937500000001,0.36262500000000003,0.28278125,1.33553125,1.05059375,-0.11821875,-0.202,1.3050625,0.019936951189647868,0.020030627634079826,True
1513,196317,0,196318,4917.0,43351.0,39957.0,0.001464,6.1e-05,-0.000976,0.24500000000000002,-1.4700000000000002,-3.6050000000000004,1.0830625,0.36109375,0.2846875,1.336375,1.05703125,-0.1144375,-0.1949375,1.299625,0.01971977368329657,0.019823361808642817,True
1514,196318,0,196319,4916.0,43354.0,39958.0,0.002745,-0.000183,-0.000488,0.3325,-1.8200000000000003,-3.6925000000000003,1.0830625,0.36090625,0.285125,1.3218125,1.06834375,-0.11353125,-0.19353125000000002,1.2981875,0.019675156453910082,0.01978447234733458,True
1515,196319,0,196320,4917.0,43355.0,39956.0,0.003355,6.1e-05,-0.000793,0.28,-1.6625,-3.7625,1.09175,0.35990625,0.28978125,1.3306875,1.075125,-0.114875,-0.1926875,1.2887187500000001,0.019688314784961563,0.019942751296233623,True
1516,196320,0,196321,4916.0,43356.0,39955.0,-0.000244,0.000488,-0.00122,0.29750000000000004,-1.4000000000000001,-3.6575,1.0832187500000001,0.36496875,0.28250000000000003,1.3318125,1.05909375,-0.1251875,-0.20346875,1.31003125,0.02031719960725694,0.02007847532184824,True
1517,196321,0,196322,4915.0,43364.0,39956.0,-0.003355,0.0008539999999999999,0.000976,0.28,-1.2075,-3.6750000000000003,1.08459375,0.3621875,0.2894375,1.3297812500000001,1.0619375,-0.11334375000000001,-0.19425,1.28890625,0.019720668146656354,0.01999183690339647,True
1518,196322,0,196323,4916.0,43368.0,39956.0,-0.00244,-0.000366,0.00122,0.29750000000000004,-1.1900000000000002,-3.7100000000000004,1.083875,0.35784375,0.28121875,1.331625,1.04971875,-0.12153125000000001,-0.19825,1.2982500000000001,0.019873323755099502,0.019814191108861175,True
1519,196323,0,196324,4917.0,43372.0,39954.0,-0.002379,-0.0006709999999999999,-0.000793,0.17500000000000002,-1.3125000000000002,-3.7275000000000005,1.07528125,0.36165625,0.2854375,1.3324375,1.050875,-0.11578125,-0.194625,1.29446875,0.019797720631588495,0.019841700377666527,True
1520,196324,0,196325,4917.0,43378.0,39956.0,-0.000366,0.0013419999999999999,0.00183,0.45500000000000007,-1.5575,-3.8500000000000005,1.08734375,0.36565625,0.28315625,1.330375,1.0628125,-0.11746875,-0.19921875,1.2981562500000001,0.02003216029874611,0.019933494753833738,True
1521,196325,0,196326,4917.0,43378.0,39954.0,0.00042699999999999997,-0.000122,0.001098,0.35000000000000003,-1.6275000000000002,-3.8150000000000004,1.08253125,0.36059375,0.2821875,1.3361875,1.0571875,-0.1156875,-0.19653125,1.30203125,0.019749851626664178,0.019784602390063657,True
1522,196326,0,196327,4919.0,43384.0,39958.0,0.002196,-0.000488,-0.00122,0.31500000000000006,-1.7500000000000002,-3.8500000000000005,1.08815625,0.360875,0.28646875,1.33034375,1.06428125,-0.11659375,-0.19,1.2939375,0.019798349424864362,0.01969693054981397,True
1523,196327,0,196328,4921.0,43384.0,39956.0,0.0018909999999999999,-0.000183,-0.000122,0.24500000000000002,-1.8375000000000001,-3.9375000000000004,1.0835000000000001,0.35759375,0.28725,1.33565625,1.0575625,-0.11634375,-0.19684375,1.302625,0.01965212906703571,0.020006483283589414,True
1524,196328,0,196329,4921.0,43385.0,39958.0,0.001403,0.000488,0.0,0.2625,-1.7500000000000002,-3.9200000000000004,1.08334375,0.3615,0.29028125,1.33475,1.05878125,-0.1159375,-0.19137500000000002,1.296125,0.019797592359824284,0.01991024693718319,True
1525,196329,0,196330,4921.0,43386.0,39958.0,-0.0006709999999999999,0.000732,-0.0011589999999999999,0.31500000000000006,-1.5575,-4.077500000000001,1.0886875,0.36046875,0.2868125,1.33040625,1.06603125,-0.11875000000000001,-0.19565625,1.29296875,0.019869137082145636,0.019940304367648636,True
1526,196330,0,196331,4922.0,43384.0,39958.0,0.000488,0.0006709999999999999,-0.000244,0.3325,-1.6975000000000002,-3.9725000000000006,1.08428125,0.35971875000000003,0.2860625,1.33071875,1.05690625,-0.11837500000000001,-0.19775,1.29465625,0.019822801080089353,0.019994111022719054,True
1527,196331,0,196332,4922.0,43385.0,39960.0,-0.000732,-0.001281,0.000976,0.31500000000000006,-1.6275000000000002,-3.8675,1.08384375,0.35840625,0.28221875,1.3301875,1.054625,-0.116,-0.19734375,1.299125,0.01967184649195555,0.01981880759122579,True
1528,196332,0,196333,4924.0,43382.0,39961.0,0.000244,-0.000244,0.000732,0.35000000000000003,-1.6450000000000002,-3.9200000000000004,1.07725,0.35884375,0.2815625,1.33046875,1.05809375,-0.11153125,-0.20021875,1.30078125,0.019508300618609614,0.019908136160959287,True
1529,196333,0,196334,4926.0,43377.0,39961.0,0.001037,-0.00042699999999999997,-0.00061,0.22750000000000004,-1.6275000000000002,-3.8850000000000002,1.08175,0.36015625,0.28625,1.328125,1.06065625,-0.11603125,-0.1955,1.28715625,0.019745682656635302,0.019910727201339094,True
1530,196334,0,196335,4928.0,43376.0,39963.0,0.000244,-0.000244,0.000183,0.17500000000000002,-1.3475000000000001,-3.99,1.09771875,0.35609375,0.28296875,1.3384375,1.05725,-0.11784375,-0.19915625,1.3008125,0.019650906810439885,0.019923215298054037,True
1531,196335,0,196336,4930.0,43374.0,39962.0,0.001464,-0.000305,-0.00061,0.15750000000000003,-1.2425000000000002,-4.025,1.08040625,0.3620625,0.2860625,1.32928125,1.06225,-0.116,-0.1960625,1.2849375,0.019823457455631115,0.019925762714491254,True
1532,196336,0,196337,4930.0,43367.0,39965.0,0.000915,0.001403,-0.00122,0.08750000000000001,-0.9975,-3.99,1.0951250000000001,0.35340625000000003,0.28528125,1.3374062500000001,1.05721875,-0.1180625,-0.1990625,1.2925625,0.019548367535742146,0.02001497991916009,True
1533,196337,0,196338,4931.0,43366.0,39964.0,-0.000915,0.0025009999999999998,0.000122,0.14,-0.6475000000000001,-4.025,1.08028125,0.36228125,0.2866875,1.33175,1.065625,-0.115625,-0.195625,1.29534375,0.01981728651030193,0.019933872342623924,True
1534,196338,0,196339,4933.0,43363.0,39963.0,-0.002745,0.0015249999999999999,0.000976,0.14,-0.47250000000000003,-3.99,1.09040625,0.35678125,0.28153125,1.3193125,1.05584375,-0.11696875,-0.1980625,1.300875,0.019643845166072125,0.0198195103430285,True
1535,196339,0,196340,4934.0,43363.0,39966.0,-0.0044529999999999995,-0.0006709999999999999,0.001464,0.12250000000000001,-0.7350000000000001,-4.025,1.07984375,0.360375,0.27853125,1.3424375,1.05709375,-0.116125,-0.19643750000000001,1.2885625,0.01975856403132759,0.019629697553617143,True
1536,196340,0,196341,4935.0,43361.0,39965.0,-0.001281,-0.000732,0.001586,0.10500000000000001,-1.05,-3.9550000000000005,1.09034375,0.3625625,0.28578125,1.33896875,1.06078125,-0.11887500000000001,-0.196125,1.2895,0.019961026374571783,0.019916670541254025,True
1537,196341,0,196342,4935.0,43358.0,39966.0,0.001403,-0.0017079999999999999,0.000488,0.29750000000000004,-1.4700000000000002,-3.9200000000000004,1.0966875,0.3575,0.2879375,1.32575,1.05690625,-0.1091875,-0.19634375,1.29521875,0.019357247107560135,0.020014645807798957,True
1538,196342,0,196343,4939.0,43358.0,39965.0,0.0044529999999999995,0.000976,-0.0008539999999999999,0.36750000000000005,-1.715,-3.7800000000000002,1.0852187500000001,0.357375,0.28153125,1.3269375,1.05809375,-0.11678125,-0.19578125000000002,1.29746875,0.019660843007397597,0.01972709602009648,True
1539,196343,0,196344,4938.0,43359.0,39967.0,0.00549,0.002623,-0.0023179999999999997,0.49000000000000005,-1.8550000000000002,-3.5700000000000003,1.08215625,0.361875,0.29015625,1.32934375,1.0618125,-0.11596875000000001,-0.19546875,1.29496875,0.0198144123901305,0.020070906871767054,True
1540,196344,0,196345,4940.0,43359.0,39968.0,0.002928,0.0008539999999999999,0.000549,0.36750000000000005,-1.2950000000000002,-3.5875000000000004,1.08834375,0.36109375,0.28584375,1.3295625,1.057625,-0.11787500000000001,-0.1955,1.29384375,0.01985949218162877,0.019893936889090948,True
1541,196345,0,196346,4941.0,43360.0,39966.0,-0.003843,-0.001647,-0.00061,0.21000000000000002,-0.7175,-3.5525,1.08584375,0.35953125,0.2839375,1.33075,1.057375,-0.11896875,-0.19790625,1.3,0.019839156680361802,0.01991262157237261,True
1542,196346,0,196347,4944.0,43362.0,39968.0,-0.007686,-0.001098,0.00061,0.2625,-0.31500000000000006,-3.6575,1.08475,0.36040625,0.28171875,1.3311875,1.0583125,-0.1154375,-0.19993750000000002,1.30265625,0.019731914463504967,0.0199032022293446,True
1543,196347,0,196348,4943.0,43362.0,39967.0,-0.0060999999999999995,-0.002806,0.0015249999999999999,0.15750000000000003,-0.42000000000000004,-3.5875000000000004,1.08315625,0.36112500000000003,0.28521875,1.3305625,1.0541875,-0.115125,-0.19153125000000001,1.3036875,0.019749016436779825,0.01970730976361821,True
1544,196348,0,196349,4945.0,43365.0,39968.0,-0.0025009999999999998,-0.001037,-0.0034159999999999998,0.14,-0.56,-3.5700000000000003,1.083875,0.35831250000000003,0.2910625,1.33634375,1.07225,-0.12646875,-0.20221875,1.30553125,0.020093336286521418,0.020381654058060274,True
1545,196349,0,196350,4945.0,43367.0,39971.0,0.000793,0.0025009999999999998,-0.0013419999999999999,0.28,-0.7525000000000001,-3.5000000000000004,1.0915,0.36090625,0.2851875,1.32878125,1.062375,-0.1120625,-0.1904375,1.29178125,0.019615441441394738,0.019661694832927266,True
1546,196350,0,196351,4948.0,43368.0,39970.0,0.0025009999999999998,0.002074,0.001403,0.31500000000000006,-1.1025,-3.5875000000000004,1.0911875,0.3576875,0.284625,1.33234375,1.08128125,-0.1253125,-0.19884375,1.29521875,0.02002046605613917,0.019979002095916253,True
1547,196351,0,196352,4948.0,43369.0,39971.0,0.0059169999999999995,0.001586,0.001647,0.24500000000000002,-1.4000000000000001,-3.5525,1.08265625,0.36075,0.28815625,1.33025,1.0451875,-0.1130625,-0.1855625,1.28675,0.019649619371243283,0.019586840289532236,True
1548,196352,0,196353,4944.0,43368.0,39967.0,0.006527,6.1e-05,0.0011589999999999999,0.14,-1.5750000000000002,-3.5700000000000003,1.08615625,0.36409375,0.28221875,1.33315625,1.0678125,-0.12909375,-0.20128125,1.301625,0.02043953681434886,0.019978281108567343,True
1549,196353,0,196354,4943.0,43367.0,39964.0,-0.002074,0.000366,0.0023179999999999997,0.07,-1.2950000000000002,-3.5700000000000003,1.082125,0.36096875,0.28559375,1.33028125,1.04478125,-0.11103125,-0.1898125,1.2805625,0.01957610170655807,0.019653159775421987,True
1550,196354,0,196355,4938.0,43366.0,39960.0,-0.004148,0.000244,0.004697,0.08750000000000001,-1.1725,-3.5175000000000005,1.08403125,0.3615625,0.2858125,1.33115625,1.0453125,-0.112625,-0.1914375,1.27821875,0.019665527913281942,0.01972805460609772,True
1551,196355,0,196356,4932.0,43365.0,39954.0,-0.0023179999999999997,-0.00042699999999999997,0.002623,0.14,-1.33,-3.6750000000000003,1.0835937500000001,0.3613125,0.28596875,1.32946875,1.04528125,-0.109,-0.19059375,1.28275,0.019507756439503917,0.01970032256856035,True
1552,196356,0,196357,4925.0,43364.0,39950.0,-0.002379,-0.002989,0.00183,0.17500000000000002,-1.4700000000000002,-3.7100000000000004,1.08328125,0.36175,0.28525,1.32353125,1.05390625,-0.111875,-0.1904375,1.2838125,0.019642810855646856,0.01966427849847693,True
1553,196357,0,196358,4921.0,43365.0,39947.0,-0.000793,-0.0021349999999999997,0.00122,0.15750000000000003,-1.6625,-3.7275000000000005,1.08328125,0.36496875,0.28596875,1.3310625,1.044375,-0.116625,-0.19484375,1.29775,0.019969367604297867,0.019872519325527777,True
1554,196358,0,196359,4918.0,43366.0,39945.0,0.001403,-0.000244,-0.0035989999999999998,0.17500000000000002,-2.1350000000000002,-3.8675,1.0850312500000001,0.36090625,0.28421875,1.32696875,1.061625,-0.11853125,-0.197125,1.30171875,0.01987838708047365,0.019892600877170326,True
1555,196359,0,196360,4912.0,43364.0,39943.0,0.00366,0.003172,-0.0035989999999999998,0.35000000000000003,-2.2225,-3.9375000000000004,1.08915625,0.36165625,0.28225,1.33215625,1.0639375,-0.11684375,-0.19715625,1.2934375,0.01984090476184306,0.0198125037937051,True
1556,196360,0,196361,4908.0,43362.0,39941.0,0.0046359999999999995,0.003111,-0.001647,0.42000000000000004,-2.24,-3.9375000000000004,1.0830625,0.3614375,0.285375,1.3305625,1.0570625,-0.11684375,-0.19621875,1.2949375,0.019831834337774818,0.019903678131526232,True
1557,196361,0,196362,4906.0,43358.0,39938.0,0.00244,0.001769,-0.000183,0.35000000000000003,-1.995,-3.8500000000000005,1.08471875,0.36134375,0.28428125,1.33046875,1.05746875,-0.11659375,-0.195375,1.2951875,0.019817786249353726,0.01982429493239927,True
1558,196362,0,196363,4902.0,43354.0,39937.0,-0.000366,0.000488,0.0006709999999999999,0.42000000000000004,-1.6625,-3.6750000000000003,1.084,0.36125,0.28596875,1.32915625,1.05740625,-0.1155,-0.19590625,1.295125,0.01976944288942796,0.019915559062806336,True
1559,196363,0,196364,4899.0,43354.0,39936.0,-0.0037819999999999998,-0.003904,0.00183,0.42000000000000004,-1.4000000000000001,-3.7275000000000005,1.08315625,0.36162500000000003,0.28490625,1.32984375,1.05775,-0.1165,-0.19515625,1.29503125,0.0198256380486389,0.01984126471594909,True
1560,196364,0,196365,4898.0,43356.0,39935.0,-0.001464,-0.004209,0.00061,0.2625,-1.3125000000000002,-3.7625,1.0846875,0.36134375,0.285875,1.33053125,1.050125,-0.1161875,-0.19471875,1.2973125,0.019801274558841443,0.019863580765947113,True
1561,196365,0,196366,4898.0,43356.0,39932.0,-0.001037,-0.00183,-0.00122,0.35000000000000003,-1.3125000000000002,-3.7975000000000003,1.0845625,0.3623125,0.2858125,1.3304375,1.06175,-0.11478125,-0.196,1.29765625,0.01978428686762398,0.019912898826252273,True
1562,196366,0,196367,4896.0,43354.0,39931.0,0.0006709999999999999,-0.001647,-0.003355,0.28,-1.5575,-3.7275000000000005,1.07965625,0.36178125,0.28609375,1.330625,1.06309375,-0.1183125,-0.1938125,1.29740625,0.01990577698999464,0.019835908457999332,True
1563,196367,0,196368,4896.0,43356.0,39932.0,0.0017079999999999999,0.000122,-0.003111,0.31500000000000006,-1.6450000000000002,-3.8675,1.07309375,0.3625625,0.2808125,1.3415625,1.0665,-0.11846875,-0.19725,1.30140625,0.01994451865854875,0.019756893861905798,True
1564,196368,0,196369,4896.0,43354.0,39930.0,0.002989,0.0051849999999999995,0.000976,0.35000000000000003,-1.6275000000000002,-3.8325000000000005,1.10159375,0.35409375,0.28140625,1.34515625,1.06459375,-0.1158125,-0.19618750000000001,1.29440625,0.01948539988026528,0.019738388537450375,True
1565,196369,0,196370,4898.0,43356.0,39929.0,0.00244,0.002013,0.001647,0.36750000000000005,-1.5050000000000001,-3.7800000000000002,1.10028125,0.356875,0.28078125,1.34009375,1.0579687500000001,-0.1163125,-0.19646875,1.29190625,0.01962105525046584,0.01972395248790177,True
1566,196370,0,196371,4898.0,43354.0,39931.0,-0.000244,0.001769,-0.0015249999999999999,0.36750000000000005,-1.0675000000000001,-3.6050000000000004,1.09690625,0.3605625,0.287625,1.32446875,1.05825,-0.1185625,-0.19778125,1.29565625,0.019865404499128006,0.020059948678145856,True
1567,196371,0,196372,4900.0,43352.0,39933.0,-0.0032329999999999998,0.000366,-0.00183,0.3325,-0.7000000000000001,-3.5000000000000004,1.06909375,0.35325,0.279125,1.33265625,1.0575625,-0.1159375,-0.19615625,1.29940625,0.019455494939808995,0.019642840998764007,True
1568,196372,0,196373,4902.0,43347.0,39932.0,-0.0040869999999999995,0.000122,0.0011589999999999999,0.42000000000000004,-0.385,-3.4825000000000004,1.08346875,0.36309375,0.28740625000000003,1.3211875,1.06440625,-0.11453125,-0.196,1.28859375,0.01980652226030726,0.019978767151595304,True
1569,196373,0,196374,4902.0,43349.0,39934.0,-0.002379,-0.002257,0.0015249999999999999,0.36750000000000005,-0.2625,-3.4650000000000003,1.1008437500000001,0.35871875000000003,0.288375,1.3254375,1.057125,-0.11750000000000001,-0.199625,1.2903125,0.01974577588887737,0.02016560173969638,True
1570,196374,0,196375,4904.0,43349.0,39932.0,-0.0037819999999999998,-0.002928,-0.0013419999999999999,0.29750000000000004,-0.5425000000000001,-3.4825000000000004,1.07803125,0.3618125,0.28250000000000003,1.34003125,1.059125,-0.11634375,-0.19490625,1.29440625,0.01982706230085147,0.01973168422588949,True
1571,196375,0,196376,4905.0,43351.0,39934.0,0.000122,-0.0025009999999999998,-0.002013,0.36750000000000005,-0.7875000000000001,-3.43,1.10109375,0.35903125,0.28190625,1.3406875,1.0577812500000001,-0.11659375,-0.19421875,1.29728125,0.019721897915206205,0.019679288053060195,True
1572,196376,0,196377,4907.0,43353.0,39932.0,0.002196,-0.000183,-0.000915,0.42000000000000004,-1.0325000000000002,-3.3775000000000004,1.08953125,0.3633125,0.2885625,1.32453125,1.065375,-0.11912500000000001,-0.19743750000000002,1.29990625,0.020002280348064033,0.02008477137300179,True
1573,196377,0,196378,4907.0,43356.0,39936.0,0.002379,0.000793,-0.00061,0.385,-1.1375000000000002,-3.4825000000000004,1.07603125,0.362,0.2876875,1.3288125,1.05759375,-0.11615625,-0.19578125000000002,1.29478125,0.019827216453699996,0.019981530871213345,True
1574,196378,0,196379,4908.0,43355.0,39934.0,0.004514,0.002623,-0.000244,0.35000000000000003,-0.8575,-3.535,1.08403125,0.3576875,0.28284375,1.3361875,1.05265625,-0.11684375,-0.19640625,1.29759375,0.019676341353747833,0.019806660338247545,True
1575,196379,0,196380,4909.0,43356.0,39938.0,0.0018909999999999999,0.0023179999999999997,0.001037,0.2625,-0.6125,-3.4650000000000003,1.08990625,0.36112500000000003,0.28571875,1.33059375,1.06490625,-0.11753125,-0.198375,1.29578125,0.019846817862006504,0.020005217292483484,True
1576,196380,0,196381,4908.0,43357.0,39937.0,-0.0034159999999999998,-0.000488,-0.000305,0.28,-0.385,-3.3775000000000004,1.0835937500000001,0.36062500000000003,0.28153125,1.33728125,1.05784375,-0.11678125,-0.196625,1.30115625,0.019795603942793984,0.019761278690726497,True
1577,196381,0,196382,4909.0,43359.0,39938.0,-0.006771,-0.0011589999999999999,0.0034159999999999998,0.28,-0.17500000000000002,-3.325,1.08953125,0.3586875,0.28640625000000003,1.3185625,1.06303125,-0.11965625,-0.19653125,1.2875625,0.019832113071677794,0.019958955893729605,True
1578,196382,0,196383,4909.0,43359.0,39939.0,-0.0044529999999999995,-0.000366,0.0037819999999999998,0.31500000000000006,-0.08750000000000001,-3.115,1.0843125,0.36346875,0.28553125,1.3285,1.0633125,-0.1188125,-0.199,1.3015625,0.019996061165946707,0.02002277986693665,True
1579,196383,0,196384,4909.0,43359.0,39941.0,0.0017079999999999999,-0.002806,-0.00061,0.31500000000000006,-0.6825000000000001,-3.1500000000000004,1.0776875000000001,0.36121875000000003,0.2854375,1.32915625,1.0578750000000001,-0.11584375000000001,-0.19771875,1.2943437500000001,0.019782119379505435,0.019967016518860896,True
1580,196384,0,196385,4908.0,43361.0,39940.0,0.0006709999999999999,-0.001403,-0.001403,0.385,-0.8575,-3.0625000000000004,1.0756875000000001,0.3585625,0.28365625,1.33175,1.0631875,-0.11934375,-0.19909375,1.29859375,0.019814231056763307,0.0199490941680409,True
1581,196385,0,196386,4908.0,43363.0,39941.0,0.000366,0.0,-0.0006709999999999999,0.385,-0.8225000000000001,-3.0625000000000004,1.08375,0.3609375,0.28500000000000003,1.32971875,1.06375,-0.1156875,-0.19575,1.2882500000000001,0.019764105833598982,0.019869191903536778,True
1582,196386,0,196387,4907.0,43365.0,39941.0,0.0017079999999999999,0.002623,0.0,0.28,-0.5425000000000001,-3.0975,1.08375,0.36134375,0.28378125,1.3364375,1.05734375,-0.116375,-0.19603125,1.2938125,0.019808895408202933,0.019830214924193405,True
1583,196387,0,196388,4909.0,43370.0,39945.0,0.00183,0.002745,-0.00061,0.35000000000000003,-0.47250000000000003,-3.2025,1.0905,0.35775,0.28221875,1.33609375,1.056875,-0.11659375,-0.19693750000000002,1.2963125,0.019668770594935284,0.01980235102066119,True
1584,196388,0,196389,4910.0,43373.0,39942.0,-0.005063,-0.000488,6.1e-05,0.15750000000000003,-0.035,-3.1500000000000004,1.0912187500000001,0.35771875000000003,0.283375,1.33778125,1.05921875,-0.1174375,-0.1968125,1.30103125,0.019701771798931792,0.01984507256895924,True
1585,196389,0,196390,4909.0,43374.0,39944.0,-0.00671,0.003172,0.0015249999999999999,0.4025,-0.2625,-3.1675000000000004,1.0900625,0.359375,0.2858125,1.3313125000000001,1.05059375,-0.11765625,-0.196125,1.3003437500000001,0.019779336974338046,0.01991796207037284,True
1586,196390,0,196391,4910.0,43378.0,39942.0,-0.0030499999999999998,0.002257,0.00183,0.4025,-0.6825000000000001,-3.2025,1.0872187500000001,0.359375,0.28390625,1.33478125,1.0621875,-0.11846875,-0.19753125,1.3006875,0.019812358527114205,0.019896141264411013,True
1587,196391,0,196392,4910.0,43378.0,39941.0,0.001464,-0.004026,-0.0008539999999999999,0.12250000000000001,-0.9625000000000001,-3.3075,1.0900625,0.35921875000000003,0.2848125,1.3348125,1.06490625,-0.11971875,-0.19834375,1.3025625,0.01985667846976864,0.019966500806485984,True
1588,196392,0,196393,4910.0,43379.0,39940.0,0.00183,-0.003355,-0.0025009999999999998,0.1925,-1.3825,-3.535,1.08828125,0.35878125,0.28565625,1.3305,1.06128125,-0.11871875,-0.1965,1.29746875,0.01979790074877008,0.019926693943338913,True
1589,196393,0,196394,4910.0,43382.0,39940.0,0.00061,0.000305,0.001281,0.42000000000000004,-1.715,-3.5700000000000003,1.08240625,0.3630625,0.28696875,1.3293125000000001,1.05878125,-0.1131875,-0.19575,1.2944375000000001,0.019750603274660394,0.01995055949908558,True
1590,196394,0,196395,4910.0,43385.0,39944.0,0.00061,0.000122,-0.00061,0.47250000000000003,-1.6975000000000002,-3.6225000000000005,1.088875,0.3585,0.28371875,1.32084375,1.056875,-0.117,-0.1963125,1.299125,0.01971638263465605,0.019839025058053784,True
1591,196395,0,196396,4913.0,43381.0,39944.0,0.0006709999999999999,6.1e-05,-0.00061,0.4025,-1.8550000000000002,-3.7800000000000002,1.086125,0.36396875,0.28396875,1.32934375,1.06321875,-0.110625,-0.194875,1.3017812500000001,0.0196840086061643,0.01979112312008225,True
1592,196396,0,196397,4912.0,43378.0,39946.0,0.00042699999999999997,0.000549,-0.000366,0.35000000000000003,-1.8900000000000001,-3.7975000000000003,1.08434375,0.3666875,0.28600000000000003,1.33084375,1.06171875,-0.11478125,-0.195625,1.2945,0.019965710864576058,0.019905458114845145,True
1593,196397,0,196398,4912.0,43373.0,39946.0,-0.001098,-0.0006709999999999999,0.0006709999999999999,0.385,-1.8375000000000001,-3.8325000000000005,1.0859375,0.36062500000000003,0.28528125,1.330625,1.05803125,-0.1163125,-0.20078125,1.30384375,0.01977655165979459,0.020084578881105337,True
1594,196398,0,196399,4914.0,43371.0,39948.0,-0.000732,-0.00042699999999999997,-0.001647,0.47250000000000003,-2.1,-3.8150000000000004,1.08390625,0.36103125,0.28503125,1.333625,1.056625,-0.1159375,-0.1965625,1.304,0.01977815500641433,0.019903395368660325,True
1595,196399,0,196400,4916.0,43368.0,39950.0,0.001403,-6.1e-05,0.000793,0.4025,-2.2750000000000004,-3.7625,1.0923125,0.36046875,0.28490625,1.33284375,1.0710625,-0.11887500000000001,-0.19815625,1.30575,0.019874216770060793,0.019962781255286756,True
1596,196400,0,196401,4915.0,43367.0,39953.0,0.00122,0.000549,-0.000915,0.4025,-2.3800000000000003,-3.7975000000000003,1.0845625,0.3620625,0.29246875,1.3163125,1.06303125,-0.11928125,-0.19915625,1.30221875,0.019956803231854184,0.020315790968951652,True
1597,196401,0,196402,4917.0,43365.0,39954.0,0.001037,-0.000122,-0.000915,0.525,-2.3800000000000003,-3.7625,1.08084375,0.3653125,0.294,1.321125,1.0694375,-0.1200625,-0.1963125,1.30275,0.020123289481526013,0.020263934845443907,True
1598,196402,0,196403,4917.0,43364.0,39955.0,0.001098,-0.000183,-0.00122,0.49000000000000005,-2.2925000000000004,-3.6925000000000003,1.0705,0.36715625,0.28796875,1.32565625,1.0585,-0.11546875000000001,-0.19371875,1.29184375,0.020013088072360193,0.019909609803164304,True
1599,196403,0,196404,4920.0,43364.0,39956.0,0.0013419999999999999,-0.001037,0.000732,0.43750000000000006,-2.1875,-3.7100000000000004,1.0898125,0.34840625000000003,0.28278125,1.33034375,1.05315625,-0.115375,-0.1934375,1.30390625,0.01923176604137402,0.019683798550743356,True
1600,196404,0,196405,4919.0,43366.0,39959.0,0.000366,0.000732,0.000732,0.5425000000000001,-2.0475000000000003,-3.6400000000000006,1.07053125,0.36471875,0.28925,1.31896875,1.06765625,-0.12025,-0.1935,1.27946875,0.020106290357687004,0.019953706574079817,True
1601,196405,0,196406,4921.0,43364.0,39960.0,-0.0017079999999999999,0.001647,0.000793,0.665,-1.8725000000000003,-3.7100000000000004,1.0729375,0.36312500000000003,0.28515625,1.351375,1.05371875,-0.11446875000000001,-0.1950625,1.2900625000000001,0.0198052776924642,0.01984779952521305,True
1602,196406,0,196407,4922.0,43369.0,39960.0,-0.003843,0.00042699999999999997,-0.000183,0.56,-1.8725000000000003,-3.6925000000000003,1.09275,0.36534375,0.28971875,1.3258125,1.06834375,-0.122,-0.19753125,1.29115625,0.020203289528231493,0.0201363517197648,True
1603,196407,0,196408,4923.0,43369.0,39962.0,-0.004575,0.00042699999999999997,-0.000732,0.5775,-2.0650000000000004,-3.7275000000000005,1.086,0.35328125,0.2816875,1.31421875,1.042125,-0.1169375,-0.199625,1.29959375,0.0194974486292051,0.019889254482249208,True
1604,196408,0,196409,4925.0,43370.0,39963.0,0.005429,-0.002806,-0.0008539999999999999,0.42000000000000004,-2.8350000000000004,-3.8500000000000005,1.08471875,0.35415625,0.2895625,1.3219375,1.05371875,-0.11578125,-0.1985625,1.29603125,0.019486720962025642,0.020171652758299175,True
1605,196409,0,196410,4928.0,43369.0,39964.0,0.0060999999999999995,-0.001281,-0.000244,0.45500000000000007,-2.9225000000000003,-3.8150000000000004,1.08709375,0.34996875,0.281875,1.3350625,1.0568125,-0.116,-0.19859375,1.3023437500000001,0.01932197503731962,0.019855234356335273,True
1606,196410,0,196411,4929.0,43372.0,39964.0,0.00549,0.00183,-0.0011589999999999999,0.56,-2.7475,-3.7100000000000004,1.07065625,0.3585625,0.27878125,1.328125,1.0578750000000001,-0.11628125,-0.1930625,1.2998750000000001,0.01968975834530873,0.019503266690606036,True
1607,196411,0,196412,4930.0,43372.0,39966.0,0.003538,0.003538,-0.001281,0.47250000000000003,-2.3275,-3.7100000000000004,1.074875,0.356625,0.2858125,1.3274375,1.057625,-0.117,-0.196375,1.299,0.019638636646349048,0.019928088401671738,True
1608,196412,0,196413,4932.0,43374.0,39968.0,-0.004331,0.0008539999999999999,0.000549,0.43750000000000006,-1.9425000000000001,-3.6400000000000006,1.08353125,0.35884375,0.28550000000000003,1.33028125,1.05740625,-0.11715625,-0.19696875,1.29534375,0.019736987025574377,0.019939222759049108,True
1609,196413,0,196414,4935.0,43377.0,39971.0,-0.007137,-0.000305,0.0034159999999999998,0.47250000000000003,-1.435,-3.7450000000000006,1.0834062500000001,0.3579375,0.28571875,1.33034375,1.05696875,-0.11640625,-0.19671875,1.2883437500000001,0.019668923515500987,0.019938137273261484,True
1610,196414,0,196415,4933.0,43377.0,39972.0,-0.004392,-0.001769,0.001952,0.42000000000000004,-1.5750000000000002,-3.7625,1.08953125,0.368375,0.28578125,1.3353125000000001,1.065375,-0.1191875,-0.19478125000000002,1.29559375,0.02021471494427414,0.01986223785346272,True
1611,196415,0,196416,4934.0,43379.0,39974.0,-0.00122,-0.001403,-0.003721,0.36750000000000005,-1.9250000000000003,-3.7800000000000002,1.0871875,0.3595625,0.2856875,1.33090625,1.0653125,-0.11625,-0.19603125,1.2945312500000001,0.019729953869279015,0.019908998505695018,True
1612,196416,0,196417,4937.0,43381.0,39976.0,0.0023179999999999997,6.1e-05,-0.005307,0.45500000000000007,-2.0300000000000002,-3.6575,1.090375,0.35775,0.2854375,1.33025,1.05840625,-0.120125,-0.19568750000000001,1.29465625,0.019812293675924148,0.019884741857407445,True
1613,196417,0,196418,4938.0,43383.0,39976.0,0.001281,0.00244,-0.0018909999999999999,0.525,-1.9600000000000002,-3.5700000000000003,1.0891250000000001,0.35831250000000003,0.28553125,1.3303125,1.06321875,-0.11834375,-0.19509375,1.2943437500000001,0.019763224827575483,0.0198645644842769,True
1614,196418,0,196419,4940.0,43382.0,39979.0,0.003294,0.000488,0.003172,0.43750000000000006,-1.8375000000000001,-3.6050000000000004,1.08915625,0.36034375,0.285125,1.32596875,1.0594375,-0.11878125,-0.19578125000000002,1.28890625,0.01986522432595967,0.019875623978870285,True
1615,196419,0,196420,4939.0,43386.0,39976.0,0.003172,-0.0023179999999999997,0.0026839999999999998,0.4025,-1.715,-3.7275000000000005,1.09109375,0.35878125,0.2855625,1.33034375,1.06321875,-0.11987500000000001,-0.19840625,1.29475,0.01984488932882115,0.020000025828147257,True
1616,196420,0,196421,4937.0,43382.0,39972.0,0.000183,-0.003721,0.0023179999999999997,0.15750000000000003,-1.5225000000000002,-3.6575,1.084,0.35759375,0.28275,1.3308125,1.05753125,-0.11715625,-0.19884375,1.2999687500000001,0.019685156702503016,0.019901519055016834,True
1617,196421,0,196422,4934.0,43381.0,39968.0,-0.0048189999999999995,-0.002013,0.002257,0.10500000000000001,-1.33,-3.6750000000000003,1.0834375,0.3609375,0.28603125,1.3348125,1.05021875,-0.1158125,-0.197,1.3024375000000001,0.01976918671100134,0.0199624436913667,True
1618,196422,0,196423,4931.0,43382.0,39961.0,0.000244,0.0017079999999999999,0.00488,0.385,-1.8025000000000002,-3.7100000000000004,1.08621875,0.36162500000000003,0.2850625,1.3292187500000001,1.05275,-0.11571875000000001,-0.18962500000000002,1.29459375,0.019793884434814953,0.019623598960298062,True
1619,196423,0,196424,4923.0,43382.0,39959.0,0.005246,-0.0008539999999999999,0.000793,0.35000000000000003,-2.0825,-3.6400000000000006,1.0838125,0.35775,0.28328125,1.3216875000000001,1.05775,-0.12040625,-0.19853125,1.2943437500000001,0.0198237229109688,0.019910815868215144,True
1620,196424,0,196425,4917.0,43378.0,39955.0,0.005124,-0.000976,-0.000976,0.21000000000000002,-2.0300000000000002,-3.7275000000000005,1.07809375,0.359125,0.28278125,1.3355937500000001,1.0568125,-0.1169375,-0.19740625,1.2993125,0.019739757587380242,0.01984458561545207,True
1621,196425,0,196426,4913.0,43377.0,39950.0,0.0015249999999999999,0.00042699999999999997,-0.001952,0.24500000000000002,-1.7675,-3.7450000000000006,1.08396875,0.3605625,0.2848125,1.3351875,1.06053125,-0.11640625,-0.19609375,1.29384375,0.019777770578897923,0.019875367279067517,True
1622,196426,0,196427,4908.0,43377.0,39947.0,-0.0026839999999999998,0.0017079999999999999,-0.0013419999999999999,0.385,-1.5925000000000002,-3.8325000000000005,1.0903125,0.36140625,0.28540625000000003,1.33021875,1.0636875000000001,-0.116375,-0.19540625,1.2953125,0.01981148700830867,0.019872057324931258,True
1623,196427,0,196428,4905.0,43376.0,39944.0,-0.0006709999999999999,0.00122,6.1e-05,0.525,-1.7325000000000002,-3.9200000000000004,1.0828125,0.36371875000000004,0.2850625,1.33653125,1.05809375,-0.1164375,-0.19725,1.29975,0.019909916213785725,0.019932533655684016,True
1624,196428,0,196429,4902.0,43373.0,39942.0,0.002806,-0.000122,0.000488,0.43750000000000006,-2.0125,-3.8325000000000005,1.0818125,0.36053125,0.29128125,1.3328125,1.0595,-0.11553125,-0.194125,1.29159375,0.019740908672704446,0.020062980165639385,True
1625,196429,0,196430,4898.0,43373.0,39940.0,0.00244,-0.0013419999999999999,-0.002013,0.385,-1.9250000000000003,-3.8150000000000004,1.08971875,0.35725,0.2856875,1.329375,1.0597812500000001,-0.116125,-0.19693750000000002,1.294375,0.019628982682748576,0.01994570593902637,True
1626,196430,0,196431,4894.0,43373.0,39938.0,-0.002196,-0.0021349999999999997,-0.0018909999999999999,0.5075000000000001,-1.715,-3.7800000000000002,1.08409375,0.3604375,0.28500000000000003,1.3365625,1.050375,-0.11678125,-0.1965,1.30303125,0.019787829273444194,0.019899572252185235,True
1627,196431,0,196432,4893.0,43372.0,39938.0,-0.005246,0.000488,0.0,0.6300000000000001,-1.4700000000000002,-3.7275000000000005,1.08946875,0.36046875,0.2856875,1.329,1.07059375,-0.12125,-0.19425,1.2926875,0.01997072083743587,0.01983684139826612,True
1628,196432,0,196433,4892.0,43373.0,39938.0,-0.002562,6.1e-05,0.0026839999999999998,0.56,-1.5925000000000002,-3.7625,1.080125,0.36096875,0.282375,1.332625,1.0525,-0.1193125,-0.2024375,1.30046875,0.01991272553892239,0.02003155673886153,True
1629,196433,0,196434,4890.0,43372.0,39935.0,0.002196,0.00183,0.002928,0.6475000000000001,-1.61,-3.7450000000000006,1.08346875,0.35709375,0.28275,1.3300625,1.05003125,-0.11865625,-0.1963125,1.28828125,0.01972539411270062,0.019798987965624928,True
1630,196434,0,196435,4890.0,43372.0,39934.0,0.0030499999999999998,0.000976,-0.000183,0.5950000000000001,-1.6800000000000002,-3.7975000000000003,1.0839375,0.3590625,0.2844375,1.329875,1.0538125,-0.11775000000000001,-0.198625,1.28928125,0.019770190005286563,0.01996239455754201,True
1631,196435,0,196436,4891.0,43370.0,39934.0,0.000122,0.0006709999999999999,-0.002196,0.5425000000000001,-1.7850000000000001,-3.7100000000000004,1.08434375,0.35796875,0.283125,1.329875,1.0521562500000001,-0.12078125,-0.19884375,1.2882500000000001,0.0198480304198273,0.01991701566319672,True
1632,196436,0,196437,4892.0,43368.0,39932.0,-0.001037,0.0008539999999999999,-0.002806,0.49000000000000005,-1.8200000000000003,-3.6925000000000003,1.0836875,0.362,0.2821875,1.3304375,1.050125,-0.12428125,-0.19396875,1.28934375,0.02015733629369787,0.019680783046394566,True
1633,196437,0,196438,4891.0,43368.0,39934.0,0.003172,-0.001281,0.0025009999999999998,0.5075000000000001,-2.0300000000000002,-3.9200000000000004,1.0800625,0.3606875,0.282125,1.33646875,1.050125,-0.1155625,-0.20428125,1.311375,0.019748658153837383,0.02009587663339518,True
1634,196438,0,196439,4893.0,43365.0,39935.0,0.002989,-0.001647,0.000244,0.49000000000000005,-1.9600000000000002,-3.8325000000000005,1.0761875,0.36078125,0.28553125,1.3375937500000001,1.048875,-0.115375,-0.19765625,1.310375,0.019744924140719353,0.01996835953895328,True
1635,196439,0,196440,4894.0,43362.0,39935.0,0.000549,-0.0013419999999999999,-0.001037,0.5775,-1.8375000000000001,-3.7100000000000004,1.08953125,0.3594375,0.2854375,1.3295937500000001,1.057375,-0.1186875,-0.19334375,1.29246875,0.01982383991666213,0.01978979238866062,True
1636,196440,0,196441,4894.0,43357.0,39935.0,-0.003965,-0.000488,0.000244,0.5950000000000001,-1.6275000000000002,-3.6225000000000005,1.0929375000000001,0.358625,0.284875,1.3234375,1.07009375,-0.12109375,-0.19278125000000002,1.28875,0.019887935222672067,0.019743751041439273,True
1637,196441,0,196442,4897.0,43353.0,39937.0,-0.0048189999999999995,-0.0011589999999999999,-0.002623,0.5075000000000001,-1.435,-3.6400000000000006,1.09134375,0.3591875,0.28515625,1.32903125,1.06709375,-0.11884375,-0.1934375,1.2826875,0.019819824488891597,0.01978196566734264,True
1638,196442,0,196443,4897.0,43352.0,39936.0,0.000976,0.0032329999999999998,0.0025009999999999998,0.525,-1.6800000000000002,-3.7625,1.0893125000000001,0.3594375,0.2863125,1.33065625,1.06103125,-0.1163125,-0.19896875,1.29459375,0.01972731113017382,0.02005379878016496,True
1639,196443,0,196444,4897.0,43349.0,39936.0,0.0035989999999999998,0.00122,0.0006709999999999999,0.36750000000000005,-1.7325000000000002,-3.7975000000000003,1.08834375,0.35781250000000003,0.28290625,1.33715625,1.057375,-0.11759375,-0.19725,1.3017812500000001,0.01971201003416852,0.01984342228972301,True
1640,196444,0,196445,4900.0,43350.0,39937.0,0.0011589999999999999,-0.000366,-0.002074,0.31500000000000006,-1.8025000000000002,-3.8675,1.083375,0.36062500000000003,0.28471875,1.33425,1.06503125,-0.11659375,-0.1970625,1.30175,0.019787983118470038,0.019910732966036685,True
1641,196445,0,196446,4901.0,43356.0,39938.0,0.001037,0.00042699999999999997,-0.001647,0.385,-1.8725000000000003,-3.8500000000000005,1.08875,0.36084375,0.28515625,1.3294375,1.06484375,-0.1145625,-0.196125,1.29475,0.01971448787428758,0.019890839958877714,True
1642,196446,0,196447,4904.0,43356.0,39938.0,0.0018909999999999999,-0.000366,-0.001464,0.36750000000000005,-1.9775000000000003,-3.9025000000000003,1.08465625,0.35815625,0.28421875,1.33009375,1.0501875,-0.11646875,-0.19884375,1.3003125,0.019680534696855236,0.01996221410372138,True
1643,196447,0,196448,4904.0,43360.0,39938.0,0.0023179999999999997,-0.00042699999999999997,0.0008539999999999999,0.525,-1.9600000000000002,-3.9725000000000006,1.08346875,0.36062500000000003,0.283125,1.3366875,1.057,-0.11678125,-0.19693750000000002,1.3016875,0.019795603942793984,0.019839804107441284,True
1644,196448,0,196449,4904.0,43360.0,39937.0,0.001769,0.0011589999999999999,0.0035989999999999998,0.43750000000000006,-1.8025000000000002,-3.9375000000000004,1.08996875,0.3605625,0.28596875,1.32775,1.06428125,-0.1145,-0.19790625,1.29334375,0.0197002840614568,0.01999656478543469,True
1645,196449,0,196450,4905.0,43363.0,39939.0,0.000976,-0.00183,0.002745,0.2625,-1.6800000000000002,-3.9550000000000005,1.075,0.3609375,0.28471875,1.3345625,1.05771875,-0.11690625,-0.1960625,1.29065625,0.01981364214159932,0.019870226818929734,True
1646,196450,0,196451,4905.0,43363.0,39938.0,-0.0040869999999999995,-0.00244,0.001281,0.29750000000000004,-1.435,-3.9200000000000004,1.08375,0.36743750000000003,0.28503125,1.33565625,1.0534375,-0.113125,-0.19571875,1.2950625,0.019929498976179984,0.019869217565607552,True
1647,196451,0,196452,4906.0,43360.0,39938.0,-0.00732,-0.001403,-0.001037,0.36750000000000005,-1.225,-3.7100000000000004,1.0945,0.360375,0.2869375,1.3193125,1.06334375,-0.11987500000000001,-0.19818750000000002,1.29378125,0.019910965541902685,0.020047989131417386,True
1648,196452,0,196453,4906.0,43364.0,39939.0,-0.0015249999999999999,0.000732,0.003538,0.47250000000000003,-1.5225000000000002,-3.6750000000000003,1.0860625,0.35625,0.28590625000000003,1.32634375,1.0575625,-0.11659375,-0.19965625,1.29984375,0.019606572756569324,0.02006485112779236,True
1649,196453,0,196454,4910.0,43366.0,39938.0,0.002928,0.000793,-0.000122,0.4025,-1.8375000000000001,-3.7100000000000004,1.079625,0.36053125,0.2789375,1.3412187500000001,1.049625,-0.1165,-0.19615625,1.3018750000000001,0.01978028528186097,0.019635091834059384,True
1650,196454,0,196455,4909.0,43365.0,39938.0,0.0050019999999999995,0.001281,-0.001647,0.29750000000000004,-1.9250000000000003,-3.7100000000000004,1.08115625,0.36284375,0.28525,1.33515625,1.06440625,-0.11659375,-0.19640625,1.29446875,0.019879984087719686,0.019906106924452882,True
1651,196455,0,196456,4907.0,43369.0,39937.0,0.0050019999999999995,0.002623,-0.002257,0.31500000000000006,-1.8550000000000002,-3.6925000000000003,1.0950312500000001,0.357,0.28778125,1.3272187500000001,1.0589375,-0.11940625,-0.19590625,1.28984375,0.01975198912701261,0.01999046842893103,True
1652,196456,0,196457,4908.0,43373.0,39938.0,0.004575,0.0006709999999999999,-0.0018909999999999999,0.2625,-1.7500000000000002,-3.8675,1.080125,0.36221875000000003,0.28046875,1.34025,1.0571875,-0.11634375,-0.19371875,1.29940625,0.019843907723367065,0.0195996119860656,True
1653,196457,0,196458,4907.0,43378.0,39938.0,0.00061,-0.000183,-0.000305,0.2625,-1.155,-3.7625,1.08334375,0.36246875,0.28859375,1.33728125,1.06365625,-0.11778125,-0.19640625,1.29346875,0.019912694083333227,0.020044298933855106,True
1654,196458,0,196459,4909.0,43381.0,39936.0,-0.001403,0.000366,0.001281,0.24500000000000002,-1.155,-3.7275000000000005,1.0981875,0.36303125,0.28684375,1.3260625,1.0549375,-0.1181875,-0.19725,1.2944375000000001,0.019952525454079002,0.020006147392782236,True
1655,196459,0,196460,4909.0,43385.0,39938.0,-0.0025009999999999998,-0.001098,0.000732,0.17500000000000002,-1.0675000000000001,-3.7275000000000005,1.09784375,0.35696875,0.28234375,1.320375,1.0578125,-0.11571875000000001,-0.19615625,1.29121875,0.019600804972897606,0.019775868326193338,True
1656,196460,0,196461,4910.0,43385.0,39934.0,-0.004575,-0.00061,0.0,0.10500000000000001,-0.9975,-3.6750000000000003,1.07928125,0.36103125,0.28678125,1.3390312500000001,1.0581562500000001,-0.11628125,-0.19565625,1.2946875,0.019792126947433077,0.019939012813508624,True
1657,196461,0,196462,4909.0,43387.0,39937.0,-0.00244,-6.1e-05,0.000549,0.21000000000000002,-0.9800000000000001,-3.6225000000000005,1.08475,0.36221875000000003,0.2861875,1.32946875,1.06040625,-0.11709375,-0.19609375,1.29575,0.019874388886513328,0.01993219463368958,True
1658,196462,0,196463,4910.0,43387.0,39935.0,-0.001769,0.000488,0.000122,0.45500000000000007,-1.12,-3.5700000000000003,1.08653125,0.35781250000000003,0.28603125,1.330375,1.05684375,-0.1185625,-0.19096875,1.29484375,0.019751384436779765,0.019718102442672948,True
1659,196463,0,196464,4910.0,43388.0,39938.0,-0.0008539999999999999,0.000793,0.0013419999999999999,0.5075000000000001,-1.12,-3.5175000000000005,1.07375,0.35740625,0.28271875,1.33,1.05334375,-0.11640625,-0.1983125,1.2949375,0.019646894943146843,0.01987871055058075,True
1660,196464,0,196465,4913.0,43384.0,39937.0,-6.1e-05,0.0006709999999999999,-0.000244,0.5075000000000001,-1.2425000000000002,-3.5175000000000005,1.084125,0.35825,0.28396875,1.33009375,1.05775,-0.11709375,-0.20171875,1.294875,0.019709827184297445,0.020068306099127773,True
1661,196465,0,196466,4915.0,43383.0,39939.0,0.0021349999999999997,0.0008539999999999999,6.1e-05,0.42000000000000004,-1.4000000000000001,-3.43,1.08446875,0.35884375,0.2831875,1.3308125,1.04978125,-0.122375,-0.19078125,1.2907187500000001,0.019949061815016142,0.019592949276906878,True
1662,196466,0,196467,4914.0,43380.0,39940.0,0.002928,0.001403,0.000244,0.4025,-1.4000000000000001,-3.5000000000000004,1.08484375,0.359375,0.28590625000000003,1.33034375,1.0630625,-0.12859375,-0.19746875,1.2823437500000001,0.020223671344294567,0.019976263013047595,True
1663,196467,0,196468,4914.0,43378.0,39941.0,0.001952,-0.001098,-0.002074,0.35000000000000003,-1.5050000000000001,-3.5875000000000004,1.0844375,0.35990625,0.28350000000000003,1.3286875,1.05590625,-0.11828125,-0.197,1.2844375000000001,0.019826765226066845,0.01985783361573749,True
1664,196468,0,196469,4917.0,43374.0,39941.0,0.000732,-0.001586,0.0,0.35000000000000003,-1.33,-3.5700000000000003,1.08384375,0.36096875,0.28528125,1.3296875000000001,1.04475,-0.113,-0.19353125000000002,1.2946875,0.0196561502094306,0.01979093068524257,True
1665,196469,0,196470,4917.0,43373.0,39943.0,-0.002196,-0.0006709999999999999,0.000366,0.47250000000000003,-1.1725,-3.5700000000000003,1.090625,0.35746875,0.2824375,1.33484375,1.0815937500000001,-0.12453125,-0.19893750000000002,1.2865,0.01997966281728272,0.019892402300720848,True
1666,196470,0,196471,4919.0,43371.0,39943.0,-0.0015249999999999999,0.000793,0.0011589999999999999,0.43750000000000006,-1.0850000000000002,-3.5875000000000004,1.08384375,0.36565625,0.28321875,1.33203125,1.04465625,-0.1166875,-0.20803125,1.3038125,0.020000414650643873,0.020292852191356948,True
1667,196471,0,196472,4922.0,43371.0,39948.0,-0.002989,-0.000244,0.000549,0.4025,-1.0150000000000001,-3.6400000000000006,1.08203125,0.35984375,0.28621875,1.3305625,1.0455,-0.12340625000000001,-0.19796875,1.2831875,0.020032411467596954,0.02000942744419405,True
1668,196472,0,196473,4922.0,43367.0,39948.0,-0.0006709999999999999,0.001586,0.002257,0.385,-1.2950000000000002,-3.5525,1.08525,0.36065625,0.28959375,1.33040625,1.0498125,-0.1235625,-0.191,1.27925,0.020072439549506837,0.01986663428547807,True
1669,196473,0,196474,4922.0,43367.0,39946.0,0.000915,0.00042699999999999997,0.00061,0.3325,-1.4700000000000002,-3.5700000000000003,1.0800625,0.3585,0.28515625,1.3320625,1.07146875,-0.121125,-0.19037500000000002,1.28109375,0.01988402282231861,0.019657870123964593,True
1670,196474,0,196475,4925.0,43367.0,39946.0,0.002013,0.001098,-6.1e-05,0.24500000000000002,-1.61,-3.5875000000000004,1.0905,0.3613125,0.28665625,1.3294375,1.07725,-0.116,-0.19128125,1.28603125,0.01979235777077459,0.01975660135818561,True
1671,196475,0,196476,4926.0,43367.0,39948.0,0.002074,0.002806,-0.000549,0.36750000000000005,-1.6450000000000002,-3.6925000000000003,1.0914062500000001,0.35975,0.2845625,1.3239375,1.0680625,-0.12059375,-0.193625,1.28265625,0.01991425895144061,0.019765020744100976,True
1672,196476,0,196477,4928.0,43366.0,39950.0,0.000183,-0.0011589999999999999,-0.001098,0.4025,-1.6800000000000002,-3.6925000000000003,1.0835625,0.3605625,0.29131250000000003,1.3352187500000001,1.0518125,-0.11509375000000001,-0.19568750000000001,1.3009375,0.01972442051982485,0.02012755372212507,True
1673,196477,0,196478,4930.0,43370.0,39949.0,0.001464,-0.004514,-0.001586,0.14,-2.1,-3.9025000000000003,1.0846875,0.36096875,0.28278125,1.3354062500000001,1.0605,-0.10878125,-0.19640625,1.296625,0.019484601694662602,0.019804077310034418,True
1674,196478,0,196479,4930.0,43368.0,39951.0,0.002257,-0.005063,-0.000366,0.12250000000000001,-2.0300000000000002,-3.9725000000000006,1.0874062500000001,0.3611875,0.2848125,1.33325,1.06571875,-0.11909375,-0.19596875,1.2945,0.019912906138938157,0.01987030380835651,True
1675,196479,0,196480,4932.0,43371.0,39950.0,0.000732,-0.0030499999999999998,-0.000915,0.24500000000000002,-1.8550000000000002,-3.8675,1.0868125,0.36134375,0.285625,1.33578125,1.06275,-0.11896875,-0.19596875,1.28878125,0.019914305001120746,0.019903883782293283,True
1676,196480,0,196481,4935.0,43370.0,39954.0,-0.000183,0.001281,0.0008539999999999999,0.2625,-1.6625,-3.6225000000000005,1.0848125,0.36309375,0.28525,1.3340625,1.06371875,-0.11546875000000001,-0.19643750000000001,1.2996875,0.019844627735050763,0.019907372727906745,True
1677,196481,0,196482,4935.0,43374.0,39956.0,-0.001647,0.003721,0.000915,0.36750000000000005,-1.5225000000000002,-3.6225000000000005,1.0839375,0.36103125,0.28365625,1.3354375,1.0605625,-0.11584375000000001,-0.19621875,1.2958125,0.019774344407916478,0.019832644305218146,True
1678,196482,0,196483,4938.0,43375.0,39955.0,-0.0011589999999999999,0.001586,0.000793,0.3325,-1.5575,-3.6750000000000003,1.084,0.36090625,0.2860625,1.33515625,1.06403125,-0.11578125,-0.19609375,1.2949375,0.01976662066463221,0.019927028510542122,True
1679,196483,0,196484,4938.0,43376.0,39956.0,-0.001464,0.001037,0.0013419999999999999,0.31500000000000006,-1.7500000000000002,-3.8150000000000004,1.0836875,0.361875,0.28403125,1.336875,1.05521875,-0.11628125,-0.196625,1.29553125,0.01982711368486798,0.0198645988851751,True
1680,196484,0,196485,4938.0,43375.0,39957.0,-0.00122,-0.0008539999999999999,-0.00122,0.24500000000000002,-1.9250000000000003,-3.8325000000000005,1.084875,0.3611875,0.28450000000000003,1.34815625,1.0535,-0.11909375,-0.1963125,1.29496875,0.019912906138938157,0.01987131303581899,True
1681,196485,0,196486,4941.0,43375.0,39960.0,6.1e-05,-0.001952,-0.003721,0.2625,-2.1350000000000002,-3.8500000000000005,1.07096875,0.3620625,0.28521875,1.3376875,1.065375,-0.11696875,-0.1955,1.29353125,0.019862829983556703,0.01986810563947842,True
1682,196486,0,196487,4944.0,43377.0,39959.0,0.001586,0.000366,-0.0055509999999999995,0.36750000000000005,-1.7850000000000001,-3.7275000000000005,1.1009375000000001,0.3639375,0.28721875,1.33746875,1.0576875000000001,-0.11921875,-0.19715625,1.29575,0.020032002487642763,0.020017848171724726,True
1683,196487,0,196488,4944.0,43379.0,39962.0,-0.00122,0.000244,-0.002379,0.36750000000000005,-1.5050000000000001,-3.6050000000000004,1.08065625,0.36412500000000003,0.29359375,1.32984375,1.04990625,-0.1184375,-0.19793750000000002,1.29509375,0.02000803327329973,0.020312939894154204,True
1684,196488,0,196489,4944.0,43377.0,39962.0,-0.002074,0.0017079999999999999,0.003721,0.29750000000000004,-1.2075,-3.5875000000000004,1.09990625,0.3570625,0.28815625,1.32890625,1.05721875,-0.11884375,-0.19984375000000001,1.294125,0.019731719104486508,0.020165419456478928,True
1685,196489,0,196490,4944.0,43380.0,39960.0,-0.001403,0.000488,0.006893,0.15750000000000003,-1.5050000000000001,-3.6750000000000003,1.09809375,0.35746875,0.28921875,1.32409375,1.0579687500000001,-0.11321875,-0.19921875,1.30053125,0.019519895078296007,0.02018401937046005,True
1686,196490,0,196491,4943.0,43374.0,39954.0,0.0011589999999999999,-0.0026839999999999998,0.003721,0.10500000000000001,-1.8375000000000001,-3.7625,1.09728125,0.3531875,0.28259375000000003,1.32828125,1.0517812500000001,-0.116375,-0.19584375,1.3034375,0.019470691594404215,0.01977354065199731,True
1687,196491,0,196492,4939.0,43374.0,39948.0,-0.002013,-0.000488,0.000793,0.0,-2.0475000000000003,-3.7625,1.0654375,0.36234375,0.281375,1.347,1.06390625,-0.1165625,-0.19146875,1.29515625,0.019857981418371713,0.019545888465329335,True
1688,196492,0,196493,4932.0,43371.0,39943.0,0.003721,0.0,0.0021349999999999997,0.14,-2.5375,-3.7275000000000005,1.09115625,0.3623125,0.2845625,1.34615625,1.064,-0.11840625,-0.195625,1.29475,0.019931613433205188,0.019846046547671324,True
1689,196493,0,196494,4929.0,43369.0,39937.0,0.009455,-0.000122,0.00042699999999999997,0.052500000000000005,-2.66,-3.7975000000000003,1.093625,0.362875,0.28296875,1.34334375,1.0599687500000001,-0.11915625,-0.19459375,1.294375,0.01998541097390171,0.01973839713675705,True
1690,196494,0,196495,4922.0,43370.0,39934.0,0.008723,-0.000122,-0.001586,0.0175,-2.3975000000000004,-3.9200000000000004,1.0769375,0.359125,0.2855625,1.3246875,1.06490625,-0.1158125,-0.19618750000000001,1.29659375,0.01969402855491599,0.019910161466553358,True
1691,196495,0,196496,4917.0,43370.0,39930.0,0.0018909999999999999,0.003294,-0.001403,0.15750000000000003,-1.7675,-3.8675,1.087375,0.3613125,0.28715625,1.3321875,1.0575,-0.11812500000000001,-0.19665625,1.2935625,0.019878721915571794,0.019995014807056243,True
1692,196496,0,196497,4914.0,43369.0,39928.0,-0.0075639999999999995,0.0011589999999999999,0.000183,0.14,-1.1025,-3.9550000000000005,1.08928125,0.36065625,0.285625,1.3373125000000001,1.05825,-0.11815625,-0.195625,1.2946250000000001,0.019852782071598032,0.019889959445147626,True
1693,196497,0,196498,4911.0,43369.0,39928.0,-0.0037819999999999998,-0.0013419999999999999,0.002379,0.15750000000000003,-1.1725,-3.9550000000000005,1.0875000000000001,0.36875,0.2848125,1.3351875,1.0649375,-0.11928125,-0.196875,1.29609375,0.020234071029790742,0.019907012785741963,True
1694,196498,0,196499,4906.0,43369.0,39925.0,0.000732,-0.0021349999999999997,0.0025009999999999998,0.14,-1.5225000000000002,-3.9375000000000004,1.08971875,0.36546875,0.2845625,1.3368125,1.06446875,-0.1184375,-0.195875,1.295625,0.020063747910701098,0.019856173831283224,True
1695,196499,0,196500,4905.0,43369.0,39920.0,0.0015249999999999999,-0.0040869999999999995,-0.0026839999999999998,0.2625,-1.6800000000000002,-3.9200000000000004,1.084125,0.36284375,0.283375,1.3373125000000001,1.0640625,-0.1164375,-0.19609375,1.2959687500000001,0.01987363390633463,0.019815956862871718,True
1696,196500,0,196501,4901.0,43363.0,39922.0,-0.00244,-0.00244,-0.004758,0.31500000000000006,-1.6275000000000002,-3.8150000000000004,1.08425,0.36103125,0.28471875,1.3365,1.06625,-0.1163125,-0.1973125,1.29475,0.01979339710413854,0.019920858979690412,True
1697,196501,0,196502,4900.0,43365.0,39919.0,0.000793,0.0008539999999999999,0.0013419999999999999,0.31500000000000006,-1.7500000000000002,-3.9200000000000004,1.09146875,0.3616875,0.28600000000000003,1.32171875,1.0581875,-0.11790625,-0.1958125,1.295375,0.019885380804977627,0.019913053136777284,True
1698,196502,0,196503,4899.0,43361.0,39919.0,0.0042699999999999995,-0.0011589999999999999,-0.0008539999999999999,0.24500000000000002,-1.715,-3.9200000000000004,1.09075,0.357875,0.29028125,1.3309375,1.057125,-0.11959375,-0.1978125,1.2998750000000001,0.019795886902116665,0.020170986530290702,True
1699,196503,0,196504,4897.0,43356.0,39914.0,0.00366,0.0011589999999999999,-0.002013,0.29750000000000004,-1.715,-3.8500000000000005,1.084,0.3614375,0.2845625,1.3268125,1.0595625,-0.115875,-0.196,1.29525,0.01979246036065455,0.019861237394610678,True
1700,196504,0,196505,4899.0,43353.0,39918.0,-0.0011589999999999999,0.003294,-0.0011589999999999999,0.47250000000000003,-1.5575,-3.7625,1.08209375,0.3615,0.28559375,1.33046875,1.0651875,-0.11828125,-0.1953125,1.2945625,0.019892845805502827,0.019876009041007427,True
1701,196505,0,196506,4898.0,43348.0,39918.0,-0.0017079999999999999,0.003111,-0.000305,0.36750000000000005,-1.33,-3.6925000000000003,1.08978125,0.36253125,0.2855625,1.33065625,1.05690625,-0.1164375,-0.200375,1.298625,0.019860675939387815,0.020079750830307382,True
1702,196506,0,196507,4899.0,43350.0,39920.0,-0.000244,-0.000549,0.001952,0.4025,-1.5225000000000002,-3.7100000000000004,1.0843125,0.357125,0.28309375000000003,1.32928125,1.0573125,-0.11646875,-0.19665625,1.3018750000000001,0.019637773461340605,0.019827119707914186,True
1703,196507,0,196508,4899.0,43350.0,39916.0,0.001281,-0.00061,-0.000976,0.29750000000000004,-1.5750000000000002,-3.7100000000000004,1.08328125,0.3618125,0.2846875,1.33465625,1.0585625,-0.11615625,-0.19315625,1.30184375,0.019819441582860038,0.01975119513395446,True
1704,196508,0,196509,4899.0,43354.0,39915.0,-0.000793,-0.00183,0.001037,0.385,-1.4700000000000002,-3.6400000000000006,1.0771875,0.36096875,0.28540625000000003,1.33775,1.06421875,-0.11240625,-0.19584375,1.29490625,0.019632009974118615,0.019889779623824856,True
1705,196509,0,196510,4902.0,43356.0,39914.0,-0.001952,-0.001281,0.0021349999999999997,0.43750000000000006,-1.5575,-3.6750000000000003,1.08596875,0.36071875000000003,0.28534375,1.3308125,1.06390625,-0.1188125,-0.19746875,1.2946875,0.019882042285456633,0.019953016779905956,True
1706,196510,0,196511,4902.0,43362.0,39915.0,-0.000366,-0.00122,0.001281,0.35000000000000003,-1.3650000000000002,-3.6050000000000004,1.09209375,0.35765625,0.2858125,1.3290625,1.05690625,-0.11828125,-0.19728125,1.2999375,0.01973347499627487,0.01996479459856673,True
1707,196511,0,196512,4903.0,43364.0,39915.0,-0.002074,0.002562,0.002623,0.385,-1.5750000000000002,-3.5875000000000004,1.08434375,0.36009375,0.28509375,1.33290625,1.05746875,-0.11471875000000001,-0.19675,1.2985625,0.019689738243370555,0.019913573103825927,True
1708,196512,0,196513,4905.0,43369.0,39917.0,0.0042699999999999995,0.005612,-0.000305,0.6475000000000001,-1.7325000000000002,-3.7450000000000006,1.0835000000000001,0.36190625,0.28290625,1.33378125,1.06065625,-0.11628125,-0.19403125000000002,1.29971875,0.01982840948995816,0.019713023227578085,True
1709,196513,0,196514,4907.0,43370.0,39917.0,0.000732,0.0018909999999999999,0.003904,0.22750000000000004,-1.5225000000000002,-3.6925000000000003,1.08490625,0.3633125,0.28509375,1.33325,1.0631875,-0.11596875000000001,-0.19228125000000001,1.29490625,0.019874020196679845,0.019732533491441613,True
1710,196514,0,196515,4909.0,43370.0,39917.0,0.006527,0.000244,0.0011589999999999999,0.29750000000000004,-1.5750000000000002,-3.7800000000000002,1.0881875,0.3615,0.28571875,1.3345,1.0543125,-0.11725000000000001,-0.195875,1.295625,0.019850936570297194,0.019903960902426552,True
1711,196515,0,196516,4909.0,43371.0,39919.0,-0.002562,-0.0050019999999999995,-0.005307,-0.0175,-1.4175000000000002,-3.7100000000000004,1.087625,0.36115625,0.28621875,1.33265625,1.0663125,-0.12046875,-0.19575,1.294,0.01996748093877736,0.019919562319828898,True
1712,196516,0,196517,4910.0,43373.0,39919.0,-0.004148,0.00122,0.002745,0.3325,-1.2075,-3.6050000000000004,1.08596875,0.36140625,0.28559375,1.33584375,1.0638125,-0.1151875,-0.19609375,1.30546875,0.0197632197551854,0.019907655548739144,True
1713,196517,0,196518,4910.0,43372.0,39919.0,-0.0008539999999999999,-0.001281,0.004575,0.35000000000000003,-1.2425000000000002,-3.6750000000000003,1.082,0.3616875,0.28959375,1.33309375,1.0715937500000001,-0.1183125,-0.1905625,1.2896875,0.01990188990212313,0.01984890801939806,True
1714,196518,0,196519,4912.0,43373.0,39918.0,0.004392,0.001037,0.002562,0.2625,-1.4000000000000001,-3.6050000000000004,1.0932187500000001,0.3619375,0.28578125,1.325,1.0698750000000001,-0.1193125,-0.1945625,1.29190625,0.019952890448266303,0.019853376145983214,True
1715,196519,0,196520,4912.0,43369.0,39920.0,0.001952,0.001647,6.1e-05,0.36750000000000005,-1.4175000000000002,-3.535,1.1155625,0.3561875,0.2874375,1.31290625,1.05434375,-0.12071875,-0.1960625,1.3019687500000001,0.01977164341340367,0.01998259014250769,True
1716,196520,0,196521,4912.0,43371.0,39920.0,-0.0006709999999999999,0.002379,-0.0015249999999999999,0.35000000000000003,-1.3825,-3.5875000000000004,1.0951250000000001,0.35078125,0.29181250000000003,1.31909375,1.05353125,-0.111875,-0.2019375,1.3063437500000001,0.01918790015293294,0.020401259196706878,True
1717,196521,0,196522,4913.0,43368.0,39919.0,-0.001952,0.000793,0.001403,0.21000000000000002,-1.2075,-3.6050000000000004,1.0775625,0.35381250000000003,0.27918750000000003,1.3194375,1.05309375,-0.11534375000000001,-0.19721875,1.3076875000000001,0.019454678103023103,0.01968847142814709,True
1718,196522,0,196523,4912.0,43369.0,39921.0,0.002013,-0.00122,0.001464,0.17500000000000002,-1.3650000000000002,-3.6400000000000006,1.062875,0.3505625,0.28240625,1.3185,1.06403125,-0.11496875000000001,-0.19403125000000002,1.308375,0.019304659061604633,0.01969235697337541,True
1719,196523,0,196524,4912.0,43371.0,39918.0,0.000366,-0.0025009999999999998,-0.0032329999999999998,0.14,-1.4875,-3.6050000000000004,1.0758125,0.3506875,0.282625,1.31878125,1.04384375,-0.11546875000000001,-0.20075,1.29671875,0.019330175781882737,0.01997355453859901,True
1720,196524,0,196525,4912.0,43374.0,39920.0,-0.001403,0.000305,-0.00122,0.31500000000000006,-1.435,-3.5525,1.06028125,0.35496875,0.2815625,1.319375,1.0460625000000001,-0.11484375000000001,-0.20171875,1.3015625,0.01948229500761331,0.019968881342363336,True
1721,196525,0,196526,4914.0,43375.0,39920.0,0.001281,0.0037819999999999998,0.00244,0.45500000000000007,-1.4700000000000002,-3.5700000000000003,1.08596875,0.35271875,0.291375,1.3201875,1.05375,-0.1155625,-0.19775,1.297625,0.019418218007562545,0.02021365622836834,True
1722,196526,0,196527,4915.0,43377.0,39921.0,0.001647,-0.001281,-0.000732,0.3325,-1.33,-3.6575,1.0884375,0.3498125,0.2900625,1.3175625,1.05453125,-0.11678125,-0.19621875,1.3030625,0.01934726467695601,0.020097406748730107,True
1723,196527,0,196528,4913.0,43378.0,39921.0,6.1e-05,-0.001037,-0.002074,0.29750000000000004,-1.3125000000000002,-3.535,1.0780625,0.35415625,0.28321875,1.3475625,1.0526875,-0.11534375000000001,-0.19568750000000001,1.2982500000000001,0.019468932513143213,0.019793041631902382,True
1724,196528,0,196529,4915.0,43383.0,39921.0,-0.0034159999999999998,-0.00122,-0.000244,0.385,-1.2075,-3.4475000000000002,1.07459375,0.36425,0.28459375,1.3431875,1.0658750000000001,-0.11675,-0.19571875,1.29509375,0.019944644282500753,0.0198511358543544,True
1725,196529,0,196530,4917.0,43384.0,39920.0,-0.003843,-0.000488,0.002623,0.42000000000000004,-1.1025,-3.5175000000000005,1.07803125,0.362,0.28828125,1.3343125,1.06528125,-0.1166875,-0.197,1.29446875,0.019848808008977186,0.02005543042525933,True
1726,196530,0,196531,4915.0,43384.0,39920.0,0.00042699999999999997,-0.001281,0.002806,0.31500000000000006,-1.33,-3.6750000000000003,1.0914375,0.35928125,0.28240625,1.3363125,1.04540625,-0.11778125,-0.19771875,1.29553125,0.01978053018455004,0.019841746445623105,True
1727,196531,0,196532,4917.0,43384.0,39921.0,-0.000915,0.000305,-0.002074,0.3325,-1.61,-3.6400000000000006,1.0905625,0.3614375,0.2858125,1.3305,1.063125,-0.11965625,-0.19596875,1.29284375,0.019946127963577427,0.019911633007047923,True
1728,196532,0,196533,4917.0,43381.0,39927.0,-0.001769,0.002074,0.0013419999999999999,0.43750000000000006,-1.3825,-3.6225000000000005,1.09090625,0.3590625,0.28546875,1.3335625,1.060125,-0.1203125,-0.19578125000000002,1.29515625,0.019874327913454688,0.019889831001013866,True
1729,196533,0,196534,4918.0,43378.0,39923.0,-6.1e-05,0.0017079999999999999,0.000976,0.2625,-1.435,-3.8325000000000005,1.08996875,0.35803125,0.2855625,1.33034375,1.064625,-0.11875000000000001,-0.19643750000000001,1.2940625000000001,0.019768074630733354,0.019920287852292305,True
1730,196534,0,196535,4919.0,43380.0,39928.0,0.0015249999999999999,0.001647,0.000366,0.22750000000000004,-1.5575,-3.8150000000000004,1.084125,0.35890625,0.28484375,1.3370312500000001,1.05721875,-0.1165625,-0.20028125,1.3003125,0.019715444520752076,0.02004625462772256,True
1731,196535,0,196536,4922.0,43376.0,39929.0,0.002379,0.0008539999999999999,6.1e-05,0.28,-1.4700000000000002,-3.7625,1.08334375,0.3613125,0.28615625,1.32896875,1.06171875,-0.11634375,-0.195,1.29490625,0.019806329473139976,0.01988659847075842,True
1732,196536,0,196537,4922.0,43370.0,39928.0,-0.0023179999999999997,-0.002196,-0.0023179999999999997,0.2625,-1.6275000000000002,-3.7450000000000006,1.0761875,0.3595625,0.2820625,1.33484375,1.05775,-0.11765625,-0.19784375,1.30065625,0.019787111361619147,0.01983260388645166,True
1733,196537,0,196538,4925.0,43370.0,39929.0,0.000183,-0.000976,-0.001586,0.24500000000000002,-1.5750000000000002,-3.7100000000000004,1.0914375,0.358125,0.28596875,1.32115625,1.06484375,-0.1163125,-0.198,1.29509375,0.01967288738690876,0.020000361600132244,True
1734,196538,0,196539,4924.0,43367.0,39930.0,0.001647,-0.00183,0.000793,0.2625,-1.6275000000000002,-3.7625,1.084375,0.3601875,0.28159375000000003,1.3366875,1.049125,-0.1166875,-0.18975,1.30290625,0.019773652579774894,0.01948526752033403,True
1735,196539,0,196540,4927.0,43367.0,39930.0,0.000915,-0.001464,-0.000122,0.29750000000000004,-1.61,-3.8325000000000005,1.08990625,0.3615,0.28509375,1.3296875000000001,1.06615625,-0.11959375,-0.19571875,1.29496875,0.019946179649066434,0.019871800667215143,True
1736,196540,0,196541,4927.0,43366.0,39929.0,0.000244,0.001098,0.000122,0.2625,-1.4525000000000001,-3.8150000000000004,1.0840625,0.3613125,0.28650000000000003,1.3360625,1.05784375,-0.11609375,-0.19959375000000001,1.30184375,0.019796168274557314,0.020086855796907752,True
1737,196541,0,196542,4928.0,43368.0,39931.0,-0.002257,0.0025009999999999998,0.0025009999999999998,0.2625,-1.3475000000000001,-3.7275000000000005,1.08453125,0.36175,0.28428125,1.33228125,1.0645,-0.115375,-0.19571875,1.29471875,0.01978509560809235,0.01983822034631643,True
1738,196542,0,196543,4929.0,43367.0,39934.0,0.000915,0.00183,0.000976,0.22750000000000004,-1.435,-3.7450000000000006,1.0899375,0.36803125000000003,0.284625,1.33584375,1.0649375,-0.1160625,-0.19625,1.29553125,0.02007349873139531,0.019873947409205974,True
1739,196543,0,196544,4930.0,43368.0,39933.0,0.001403,-0.00122,-0.0021349999999999997,0.22750000000000004,-1.54,-3.7450000000000006,1.08959375,0.36140625,0.28503125,1.330375,1.06525,-0.11896875,-0.196125,1.2943437500000001,0.019916896322526228,0.019885673842402453,True
1740,196544,0,196545,4933.0,43368.0,39936.0,0.000488,-0.0013419999999999999,-0.0026839999999999998,0.17500000000000002,-1.5575,-3.6225000000000005,1.0871250000000001,0.3579375,0.2851875,1.33096875,1.0578125,-0.11290625,-0.19653125,1.29496875,0.019526627985790804,0.019908587103781662,True
1741,196545,0,196546,4936.0,43368.0,39934.0,0.000732,0.0,0.002745,0.29750000000000004,-1.5750000000000002,-3.6575,1.07625,0.3595,0.2839375,1.33415625,1.05753125,-0.11859375,-0.1980625,1.300375,0.019822621291923373,0.0199189501225563,True
1742,196546,0,196547,4935.0,43368.0,39936.0,0.002379,6.1e-05,0.000915,0.29750000000000004,-1.5050000000000001,-3.7100000000000004,1.0843125,0.3611875,0.284625,1.33015625,1.057375,-0.10896875,-0.19543750000000001,1.2951875,0.019501300734814715,0.019841034079255648,True
1743,196547,0,196548,4937.0,43369.0,39938.0,-0.000122,0.000915,-0.000305,0.31500000000000006,-1.4525000000000001,-3.8150000000000004,1.09025,0.35828125,0.28665625,1.329625,1.0611875,-0.11765625,-0.19896875,1.29475,0.019733986381864948,0.020068003930952635,True
1744,196548,0,196549,4940.0,43369.0,39938.0,-0.00244,-0.001098,0.000122,0.3325,-1.54,-3.99,1.08403125,0.35996875,0.2856875,1.32909375,1.05803125,-0.11746875,-0.195625,1.29353125,0.01979633538449179,0.019892542556763877,True
1745,196549,0,196550,4939.0,43368.0,39938.0,-0.002257,-0.002196,-0.000732,0.17500000000000002,-1.6800000000000002,-3.8675,1.08353125,0.36715625,0.28484375,1.337,1.05371875,-0.1161875,-0.201875,1.3101875,0.0200422952425627,0.020110786870851948,True
1746,196550,0,196551,4941.0,43366.0,39940.0,0.002196,0.0013419999999999999,0.000305,0.45500000000000007,-1.435,-3.6225000000000005,1.09003125,0.36178125,0.28650000000000003,1.33021875,1.0643125,-0.11534375000000001,-0.1943125,1.2913125,0.019785121246716626,0.019872955679149804,True
1747,196551,0,196552,4944.0,43367.0,39938.0,0.0013419999999999999,0.001098,-6.1e-05,0.35000000000000003,-1.3650000000000002,-3.6050000000000004,1.08403125,0.36384375,0.2838125,1.32928125,1.05753125,-0.1238125,-0.202625,1.28934375,0.020214725595301325,0.020098543029939932,True
1748,196552,0,196553,4945.0,43367.0,39941.0,0.00061,0.00122,0.0013419999999999999,0.45500000000000007,-1.1725,-3.4650000000000003,1.08390625,0.3636875,0.28340625,1.33690625,1.03784375,-0.11453125,-0.20253125,1.3110625,0.019831144343724287,0.020077961886734472,True
1749,196553,0,196554,4945.0,43367.0,39941.0,-0.000366,0.0018909999999999999,0.00042699999999999997,0.42000000000000004,-1.0850000000000002,-3.43,1.09096875,0.360875,0.2900625,1.330375,1.072125,-0.11821875,-0.1935,1.2901875,0.019864391934002173,0.01998728997457995,True
1750,196554,0,196555,4947.0,43371.0,39941.0,-0.001098,6.1e-05,-0.000183,0.4025,-1.1375000000000002,-3.5700000000000003,1.09109375,0.36171875000000003,0.28609375,1.3370625,1.0736875000000001,-0.1216875,-0.19175,1.2906250000000001,0.020040316416502786,0.019752343257515476,True
1751,196555,0,196556,4950.0,43370.0,39943.0,-0.001769,-0.00042699999999999997,-0.002623,0.2625,-1.2600000000000002,-3.6925000000000003,1.0894375,0.36128125,0.2841875,1.33840625,1.069125,-0.114375,-0.1973125,1.311375,0.01972500842339891,0.019898904062176325,True
1752,196556,0,196557,4950.0,43370.0,39944.0,-0.002989,0.0008539999999999999,-0.002806,0.22750000000000004,-1.4000000000000001,-3.7625,1.08584375,0.3670625,0.28634375,1.3353125000000001,1.06884375,-0.1135,-0.19559375,1.30284375,0.019929189043481867,0.019918399398650838,True
1753,196557,0,196558,4951.0,43370.0,39944.0,6.1e-05,0.001403,-0.0015249999999999999,0.35000000000000003,-1.54,-3.7450000000000006,1.0890625,0.36146875,0.28534375,1.332625,1.07096875,-0.11403125,-0.1920625,1.28990625,0.01971880997707507,0.01973400366339166,True
1754,196558,0,196559,4953.0,43372.0,39946.0,0.002196,0.000793,-0.001098,0.3325,-1.4175000000000002,-3.6925000000000003,1.08859375,0.35875,0.2858125,1.3296875000000001,1.07575,-0.12275,-0.19328125000000002,1.28909375,0.019960410815516475,0.019802760322145226,True
1755,196559,0,196560,4953.0,43374.0,39947.0,6.1e-05,-0.000549,-0.002074,0.28,-1.225,-3.6050000000000004,1.08409375,0.3575625,0.2816875,1.33659375,1.0529375,-0.1215625,-0.197125,1.29928125,0.019862933837722994,0.019787991341946615,True
1756,196560,0,196561,4955.0,43374.0,39946.0,-0.001952,-0.0006709999999999999,0.0046359999999999995,0.15750000000000003,-1.2425000000000002,-3.4475000000000002,1.08965625,0.36196875,0.28546875,1.3372187500000001,1.05990625,-0.1168125,-0.19053125,1.2941875,0.019852592460135432,0.01967712056757745,True
1757,196561,0,196562,4952.0,43372.0,39939.0,-0.000976,-0.0011589999999999999,0.003111,0.052500000000000005,-1.3475000000000001,-3.5175000000000005,1.0910625,0.3604375,0.28790625000000003,1.32503125,1.0615937500000001,-0.11878125,-0.19643750000000001,1.29575,0.019869111338285388,0.020017151285184033,True
1758,196562,0,196563,4950.0,43373.0,39935.0,-0.001098,0.0,0.002379,0.10500000000000001,-1.54,-3.6225000000000005,1.0914375,0.35940625,0.284875,1.32653125,1.05725,-0.11762500000000001,-0.196125,1.294375,0.019779362603075553,0.019879216196808373,True
1759,196563,0,196564,4945.0,43374.0,39930.0,0.0021349999999999997,-0.000549,0.000244,0.08750000000000001,-1.8200000000000003,-3.7275000000000005,1.08428125,0.35996875,0.28584375,1.3285625,1.05790625,-0.11728125,-0.19909375,1.296,0.0197887147830977,0.02003949011520318,True
1760,196564,0,196565,4941.0,43372.0,39927.0,0.00549,-0.000793,-6.1e-05,0.0175,-2.24,-3.6575,1.08365625,0.3614375,0.28271875,1.33465625,1.057125,-0.1164375,-0.1925625,1.30265625,0.01981532305507395,0.019645758898008427,True
1761,196565,0,196566,4936.0,43373.0,39923.0,0.0073809999999999995,-0.00061,-0.00042699999999999997,0.052500000000000005,-2.0300000000000002,-3.8850000000000002,1.08909375,0.36175,0.28559375,1.32996875,1.06471875,-0.1179375,-0.1950625,1.29040625,0.019889242187479755,0.019865881726901926,True
1762,196566,0,196567,4933.0,43375.0,39919.0,0.000366,-0.0013419999999999999,-0.001037,0.0,-1.4525000000000001,-3.8850000000000002,1.0826875,0.36121875000000003,0.28521875,1.33040625,1.05715625,-0.1159375,-0.1955625,1.29521875,0.01978592994777831,0.01987063743610011,True
1763,196567,0,196568,4929.0,43373.0,39918.0,-0.004575,-0.00042699999999999997,-0.000183,0.1925,-0.9800000000000001,-3.8675,1.08415625,0.36784375,0.28540625000000003,1.33021875,1.05721875,-0.1165625,-0.1965625,1.2955625,0.020086040454563126,0.019918893437859204,True
1764,196568,0,196569,4924.0,43372.0,39914.0,-0.009028,0.0008539999999999999,0.000183,0.1925,-0.6825000000000001,-3.8150000000000004,1.08471875,0.36165625,0.291875,1.33378125,1.05328125,-0.1168125,-0.19634375,1.2942500000000001,0.019839634694676173,0.02017737700556515,True
1765,196569,0,196570,4922.0,43370.0,39912.0,-0.007137,0.002745,0.002562,0.14,-0.8400000000000001,-3.7100000000000004,1.0935625,0.3624375,0.28965625,1.3291250000000001,1.0619375,-0.11737500000000001,-0.19603125,1.2945312500000001,0.019894889058199743,0.020073023339313135,True
1766,196570,0,196571,4919.0,43369.0,39907.0,0.0026839999999999998,-0.001037,0.000183,0.22750000000000004,-1.5575,-3.7975000000000003,1.094875,0.358375,0.28553125,1.32621875,1.057625,-0.1205,-0.19809375,1.2953125,0.019853444165751126,0.019986078448844757,True
1767,196571,0,196572,4917.0,43363.0,39906.0,0.0023179999999999997,-0.000732,-0.003538,0.385,-1.7850000000000001,-3.7975000000000003,1.094875,0.3624375,0.290125,1.3235625,1.05671875,-0.1174375,-0.19590625,1.29515625,0.019897428986806746,0.02008733398857503,True
1768,196572,0,196573,4917.0,43358.0,39904.0,0.0026839999999999998,6.1e-05,-0.001464,0.385,-1.7850000000000001,-3.7625,1.097,0.36265625,0.28634375,1.33309375,1.05775,-0.1150625,-0.19475,1.29503125,0.01980997353832278,0.0198842207503694,True
1769,196573,0,196574,4914.0,43355.0,39904.0,0.00042699999999999997,-0.000549,-0.002074,0.31500000000000006,-1.6800000000000002,-3.8150000000000004,1.09184375,0.36184375,0.28484375,1.3410312500000001,1.05965625,-0.11940625,-0.19328125000000002,1.3005625,0.019952812893144913,0.019762718213346943,True
1770,196574,0,196575,4913.0,43350.0,39900.0,0.000366,-0.0013419999999999999,-0.003111,0.1925,-1.435,-3.7625,1.0715625,0.35940625,0.28440625,1.32696875,1.06475,-0.11628125,-0.19934375000000001,1.3001875,0.019724745082743633,0.019990211511417538,True
1771,196575,0,196576,4913.0,43344.0,39905.0,0.000305,0.002562,0.001952,0.4025,-1.4000000000000001,-3.6225000000000005,1.08553125,0.35584375,0.28471875,1.32603125,1.0578125,-0.11634375,-0.198,1.298,0.01957956417004547,0.019948704438383338,True
1772,196576,0,196577,4914.0,43346.0,39903.0,0.000183,0.001403,0.000488,0.31500000000000006,-1.4525000000000001,-3.5875000000000004,1.08471875,0.35640625,0.283375,1.3270625,1.05584375,-0.1159375,-0.19768750000000002,1.297375,0.019586373119436055,0.019880515441816494,True
1773,196577,0,196578,4914.0,43348.0,39901.0,0.00061,-0.000244,0.00042699999999999997,0.31500000000000006,-1.5750000000000002,-3.6400000000000006,1.08978125,0.35646875,0.28721875,1.32678125,1.0559687500000001,-0.11634375,-0.19037500000000002,1.29421875,0.01960548020468484,0.019743131307389822,True
1774,196578,0,196579,4914.0,43351.0,39902.0,0.003172,-0.000305,6.1e-05,0.36750000000000005,-1.715,-3.5700000000000003,1.09634375,0.36312500000000003,0.2868125,1.33971875,1.05834375,-0.11784375,-0.1955625,1.29503125,0.01994244406695769,0.019936506952462872,True
1775,196579,0,196580,4914.0,43355.0,39901.0,0.001281,-0.0011589999999999999,0.000122,0.385,-1.5750000000000002,-3.6750000000000003,1.08915625,0.36240625,0.28715625,1.32796875,1.0585625,-0.1166875,-0.19559375,1.29503125,0.019865653191384596,0.01995197989303321,True
1776,196580,0,196581,4916.0,43355.0,39900.0,-0.005978,0.000122,0.000549,0.4025,-1.0675000000000001,-3.6575,1.08809375,0.361,0.28540625000000003,1.33528125,1.057125,-0.11640625,-0.196375,1.295375,0.019795911756130744,0.019911298696602284,True
1777,196581,0,196582,4915.0,43355.0,39900.0,-0.005124,0.0013419999999999999,0.002257,0.5775,-1.1375000000000002,-3.6575,1.0895,0.36165625,0.285125,1.3268125,1.06134375,-0.11875000000000001,-0.1955,1.2953125,0.019918372635397773,0.019864230952036536,True
1778,196582,0,196583,4918.0,43358.0,39901.0,-0.000549,-0.000732,0.0008539999999999999,0.42000000000000004,-1.435,-3.6750000000000003,1.09040625,0.361375,0.286125,1.327375,1.059,-0.11934375,-0.19596875,1.294125,0.01993083870700255,0.019924548381638988,True
1779,196583,0,196584,4919.0,43357.0,39904.0,0.001037,-0.00042699999999999997,0.000244,0.35000000000000003,-1.5750000000000002,-3.7100000000000004,1.09128125,0.36109375,0.285625,1.33271875,1.0580625000000001,-0.114875,-0.1960625,1.29565625,0.019737558249835422,0.01990768126012239,True
1780,196584,0,196585,4922.0,43360.0,39903.0,0.003721,-0.000732,-0.0021349999999999997,0.42000000000000004,-1.7325000000000002,-3.7100000000000004,1.08890625,0.3644375,0.286125,1.330375,1.07828125,-0.11390625,-0.19309375,1.287,0.019836842071159665,0.01980808056018053,True
1781,196585,0,196586,4922.0,43361.0,39902.0,0.0026839999999999998,0.000549,-0.001647,0.42000000000000004,-1.5925000000000002,-3.6400000000000006,1.08415625,0.36040625,0.2826875,1.330125,1.04859375,-0.12284375,-0.20190625,1.28384375,0.020032878586298514,0.020022957902334656,True
1782,196586,0,196587,4922.0,43361.0,39904.0,0.001586,-0.000183,-0.000549,0.385,-1.4700000000000002,-3.6750000000000003,1.0834375,0.3600625,0.282125,1.32925,1.04440625,-0.12046875,-0.203875,1.2847187500000001,0.01992213563428364,0.020079429430204875,True
1783,196587,0,196588,4924.0,43363.0,39902.0,-0.001403,0.00042699999999999997,-0.000244,0.36750000000000005,-1.2950000000000002,-3.6750000000000003,1.08409375,0.35725,0.28221875,1.3334375,1.045375,-0.12475,-0.203375,1.296625,0.019979481652659614,0.020063059387378828,True
1784,196588,0,196589,4926.0,43363.0,39903.0,-0.002623,0.000488,0.001037,0.3325,-1.1725,-3.6925000000000003,1.084125,0.36112500000000003,0.28578125,1.3304375,1.0361562500000001,-0.11253125,-0.193125,1.29728125,0.01964357226079282,0.019795138081583095,True
1785,196589,0,196590,4926.0,43363.0,39902.0,-0.0025009999999999998,0.0006709999999999999,0.0023179999999999997,0.31500000000000006,-1.05,-3.5000000000000004,1.0749375,0.35759375,0.28250000000000003,1.3331250000000001,1.0812187500000001,-0.12459375,-0.19921875,1.29159375,0.019987383207230175,0.019906376109765943,True
1786,196590,0,196591,4926.0,43364.0,39903.0,0.000793,-0.000793,0.000976,0.385,-1.1900000000000002,-3.5000000000000004,1.0839375,0.36134375,0.28490625,1.33053125,1.04559375,-0.1073125,-0.19321875,1.29590625,0.01944041875260878,0.019762769267731274,True
1787,196591,0,196592,4927.0,43366.0,39901.0,0.001647,-0.001098,-0.000305,0.24500000000000002,-1.3825,-3.535,1.08290625,0.359,0.28190625,1.33709375,1.0679687500000001,-0.1226875,-0.20771875,1.31209375,0.01996823529716579,0.020225986804312156,True
1788,196592,0,196593,4927.0,43367.0,39903.0,0.000183,-0.000488,-0.0008539999999999999,0.21000000000000002,-1.4175000000000002,-3.535,1.0886875,0.359375,0.285875,1.3301875,1.077625,-0.1201875,-0.19609375,1.28459375,0.0198822044812048,0.01991927932582093,True
1789,196593,0,196594,4929.0,43369.0,39904.0,-0.0015249999999999999,0.001098,-0.000793,0.24500000000000002,-1.3650000000000002,-3.7100000000000004,1.08390625,0.36153125,0.28528125,1.3296875000000001,1.0479375,-0.11209375,-0.1913125,1.28665625,0.019642632651923893,0.019701029036766814,True
1790,196594,0,196595,4927.0,43369.0,39906.0,-0.000915,-0.000488,-6.1e-05,0.21000000000000002,-1.2775,-3.6750000000000003,1.08596875,0.36171875000000003,0.28153125,1.33646875,1.05621875,-0.11646875,-0.19625,1.2956875,0.019828255328633054,0.019746086686986623,True
1791,196595,0,196596,4928.0,43370.0,39904.0,0.001098,-0.000244,0.0008539999999999999,0.35000000000000003,-1.4000000000000001,-3.5700000000000003,1.08875,0.36165625,0.2856875,1.329875,1.0595,-0.1181875,-0.19559375,1.2955625,0.019895514536488284,0.019891276691649692,True
1792,196596,0,196597,4929.0,43372.0,39903.0,0.0017079999999999999,-6.1e-05,0.00042699999999999997,0.28,-1.33,-3.5700000000000003,1.0892187500000001,0.35846875,0.2856875,1.321375,1.05740625,-0.120875,-0.1935,1.29884375,0.01987256888483523,0.019806456279579224,True
1793,196597,0,196598,4929.0,43372.0,39903.0,0.0,0.0008539999999999999,-0.000549,0.15750000000000003,-1.225,-3.6750000000000003,1.0838125,0.36062500000000003,0.28528125,1.33209375,1.057625,-0.1158125,-0.19621875,1.29509375,0.019756228408228004,0.019899803559182156,True
1794,196598,0,196599,4929.0,43375.0,39905.0,-0.0021349999999999997,0.001403,0.000122,0.3325,-1.2075,-3.6575,1.08690625,0.35981250000000004,0.284125,1.3334062500000001,1.05690625,-0.11665625,-0.2005,1.30221875,0.019756832997941003,0.02002541269808475,True
1795,196599,0,196600,4930.0,43376.0,39906.0,-0.0030499999999999998,0.000549,0.000366,0.42000000000000004,-1.33,-3.6750000000000003,1.08375,0.3614375,0.2829375,1.33421875,1.06475,-0.115125,-0.19203125000000001,1.29828125,0.019761975108982435,0.019633272836484125,True
1796,196600,0,196601,4932.0,43375.0,39906.0,6.1e-05,-0.000549,-0.000366,0.4025,-1.4875,-3.7625,1.08446875,0.36178125,0.28500000000000003,1.32325,1.0645,-0.11571875000000001,-0.19578125000000002,1.29428125,0.019800363611389357,0.019870457788999894,True
1797,196601,0,196602,4932.0,43376.0,39904.0,0.000549,-0.000488,0.00061,0.5425000000000001,-1.6275000000000002,-3.8500000000000005,1.08003125,0.3615,0.28459375,1.33575,1.0574375,-0.11228125,-0.19693750000000002,1.2950625,0.019648960008709256,0.019900503937740052,True
1798,196602,0,196603,4930.0,43374.0,39905.0,0.001281,-0.000244,0.00061,0.5075000000000001,-1.8900000000000001,-3.7625,1.08696875,0.3579375,0.28921875,1.340875,1.05703125,-0.11628125,-0.19684375,1.2961562500000001,0.019663842243505102,0.020087847201145814,True
1799,196603,0,196604,4933.0,43374.0,39907.0,0.0032329999999999998,-0.000976,0.000488,0.35000000000000003,-1.9075000000000002,-3.7275000000000005,1.0985625,0.3575,0.28478125,1.3255000000000001,1.05846875,-0.11890625,-0.19940625,1.29990625,0.019752398598091487,0.020008238838504562,True
1800,196604,0,196605,4935.0,43372.0,39909.0,-6.1e-05,-0.00122,-0.000793,0.29750000000000004,-1.8025000000000002,-3.8150000000000004,1.082875,0.359125,0.2846875,1.3440625,1.0568125,-0.116375,-0.19771875,1.2861562500000001,0.01971689360444926,0.019936021861564946,True
1801,196605,0,196606,4935.0,43369.0,39911.0,-0.0011589999999999999,0.0011589999999999999,-0.000549,0.36750000000000005,-1.7675,-3.7975000000000003,1.10009375,0.3589375,0.283875,1.33084375,1.0581875,-0.116875,-0.19334375,1.30125,0.019729442558374582,0.019725208509055306,True
1802,196606,0,196607,4935.0,43365.0,39911.0,0.0008539999999999999,0.0,0.0008539999999999999,0.35000000000000003,-1.8550000000000002,-3.7800000000000002,1.09346875,0.3555625,0.28903125,1.32453125,1.06403125,-0.120125,-0.19815625,1.3002500000000001,0.01972160177445183,0.020133248788324523,True
1803,196607,0,196608,4937.0,43360.0,39909.0,0.0017079999999999999,-0.0013419999999999999,0.000549,0.47250000000000003,-1.8200000000000003,-3.7275000000000005,1.076875,0.36096875,0.27759375000000003,1.3445,1.0591875,-0.11565625,-0.196125,1.2941875,0.019764131444691663,0.01957828991212436,True
1804,196608,0,196609,4938.0,43359.0,39911.0,0.000488,0.000183,0.000366,0.42000000000000004,-1.6625,-3.6925000000000003,1.09253125,0.35681250000000003,0.29190625000000003,1.3235625,1.05634375,-0.1159375,-0.19934375000000001,1.29128125,0.01960321882572469,0.020300137271284477,True
1805,196609,0,196610,4940.0,43359.0,39913.0,-0.002623,0.001403,-0.001037,0.3325,-1.54,-3.7800000000000002,1.0808125,0.3580625,0.27709375,1.34678125,1.0578750000000001,-0.11565625,-0.19471875,1.294875,0.019643618448077688,0.019500639989873825,True
1806,196610,0,196611,4942.0,43354.0,39916.0,-0.0032329999999999998,0.001098,6.1e-05,0.4025,-1.4700000000000002,-3.6750000000000003,1.09534375,0.35521875,0.28200000000000003,1.34078125,1.05446875,-0.11603125,-0.1975,1.301125,0.019540943329968526,0.01981609670420498,True
1807,196611,0,196612,4941.0,43356.0,39914.0,-0.000793,0.000488,0.001037,0.42000000000000004,-1.5575,-3.6750000000000003,1.0870312500000001,0.36334375,0.2926875,1.319625,1.064625,-0.11837500000000001,-0.19625,1.29159375,0.019973101421633922,0.020207160200444284,True
1808,196612,0,196613,4943.0,43358.0,39913.0,0.00366,-0.000549,0.00061,0.35000000000000003,-1.7675,-3.7275000000000005,1.08025,0.35828125,0.28240625,1.3404375,1.0578125,-0.1156875,-0.19646875,1.296125,0.019653959689102787,0.019791111047970586,True
1809,196613,0,196614,4944.0,43358.0,39914.0,0.003172,-0.001647,-0.00042699999999999997,0.29750000000000004,-1.9600000000000002,-3.7975000000000003,1.08465625,0.362375,0.2873125,1.32709375,1.0574375,-0.11759375,-0.195625,1.29546875,0.01990118728158774,0.019959703458786456,True
1810,196614,0,196615,4946.0,43359.0,39916.0,-6.1e-05,-6.1e-05,-0.001037,0.42000000000000004,-1.61,-3.6225000000000005,1.08334375,0.35781250000000003,0.28184375,1.3346875,1.05065625,-0.11659375,-0.1955625,1.2945312500000001,0.019671362171533865,0.019731149048508378,True
1811,196615,0,196616,4948.0,43359.0,39918.0,-0.000183,-0.0008539999999999999,0.002013,0.35000000000000003,-1.5750000000000002,-3.7450000000000006,1.0890312500000001,0.35840625,0.2904375,1.33078125,1.0635625,-0.11778125,-0.19590625,1.29659375,0.019744249898609557,0.020100249396527565,True
1812,196616,0,196617,4949.0,43361.0,39916.0,-0.000244,-0.000793,0.0008539999999999999,0.3325,-1.5050000000000001,-3.7625,1.08428125,0.35953125,0.2853125,1.3305625,1.058,-0.11671875,-0.19775,1.30221875,0.019747711325778926,0.019963116405450922,True
1813,196617,0,196618,4951.0,43362.0,39917.0,-0.000793,0.0,0.00042699999999999997,0.385,-1.4175000000000002,-3.6050000000000004,1.08371875,0.36790625,0.28296875,1.331,1.05740625,-0.11634375,-0.19778125,1.3009375,0.02007974363858535,0.019867524011111557,True
1814,196618,0,196619,4952.0,43362.0,39920.0,-0.001647,0.003965,0.001281,0.43750000000000006,-1.155,-3.5875000000000004,1.08428125,0.36003125,0.2846875,1.3360625,1.06528125,-0.1153125,-0.1968125,1.29440625,0.019711283028158975,0.019899315250717423,True
1815,196619,0,196620,4954.0,43360.0,39922.0,-0.001464,0.000793,-0.001647,0.36750000000000005,-1.33,-3.7100000000000004,1.08103125,0.3605625,0.2849375,1.3208125,1.05209375,-0.11890625,-0.19884375,1.3010625,0.01987937367599329,0.01999191593606616,True
1816,196620,0,196621,4956.0,43361.0,39924.0,0.001464,-0.002013,-0.0006709999999999999,0.22750000000000004,-1.4875,-3.7450000000000006,1.083875,0.361,0.2854375,1.33296875,1.05765625,-0.1165625,-0.19565625,1.29471875,0.019802262449302218,0.0198834759854881,True
1817,196621,0,196622,4957.0,43362.0,39925.0,0.001952,-0.004392,-0.001281,0.22750000000000004,-1.6275000000000002,-3.7275000000000005,1.09096875,0.3595625,0.28600000000000003,1.33015625,1.05809375,-0.11846875,-0.19953125,1.300875,0.019820132652492706,0.020063663423232632,True
1818,196622,0,196623,4958.0,43359.0,39926.0,0.002257,-0.001952,-0.001952,0.24500000000000002,-1.5050000000000001,-3.7275000000000005,1.08090625,0.3605625,0.28390625,1.33775,1.05696875,-0.1163125,-0.19621875,1.29521875,0.019773960052972443,0.019842976498135687,True
1819,196623,0,196624,4960.0,43361.0,39925.0,0.000305,0.00061,0.001281,0.385,-1.1900000000000002,-3.6400000000000006,1.08396875,0.362,0.29015625,1.32990625,1.064625,-0.117,-0.19921875,1.29334375,0.01986150847949579,0.0202227602905569,True
1820,196624,0,196625,4962.0,43361.0,39927.0,-0.000732,0.001037,0.000915,0.35000000000000003,-1.12,-3.5875000000000004,1.08421875,0.3564375,0.28253125,1.3374062500000001,1.05671875,-0.11640625,-0.19671875,1.29953125,0.019606725193559882,0.019806404535738963,True
1821,196625,0,196626,4963.0,43364.0,39927.0,-0.001281,0.000244,0.000793,0.22750000000000004,-1.12,-3.7275000000000005,1.09028125,0.3649375,0.29021875,1.32975,1.0659687500000001,-0.11759375,-0.1983125,1.28309375,0.020007437516439634,0.02018864951843233,True
1822,196626,0,196627,4964.0,43362.0,39929.0,-0.001769,0.000976,0.001464,0.22750000000000004,-1.155,-3.7450000000000006,1.0845,0.3613125,0.2895,1.33225,1.0581875,-0.11615625,-0.1949375,1.29478125,0.019798708593953482,0.020022267054833266,True
1823,196627,0,196628,4965.0,43361.0,39928.0,-0.003355,-0.000183,-0.00061,0.29750000000000004,-1.1725,-3.8325000000000005,1.0878125,0.35959375,0.2846875,1.31834375,1.05734375,-0.1169375,-0.19978125,1.30103125,0.01975919413482744,0.020019550796559368,True
1824,196628,0,196629,4965.0,43365.0,39928.0,-0.0017079999999999999,0.000793,-0.0008539999999999999,0.2625,-1.4700000000000002,-3.9200000000000004,1.0839375,0.36003125,0.283875,1.3355937500000001,1.05740625,-0.116375,-0.19628125,1.2994375,0.01975447180598245,0.0198442167636814,True
1825,196629,0,196630,4969.0,43367.0,39929.0,0.004026,-0.0013419999999999999,-0.004148,0.2625,-1.715,-3.8325000000000005,1.090375,0.3586875,0.28653125,1.33109375,1.062375,-0.1194375,-0.19743750000000002,1.2984375000000001,0.019823223489353763,0.02000082653380136,True
1826,196630,0,196631,4971.0,43367.0,39931.0,0.000793,-0.000732,-0.0042699999999999995,0.21000000000000002,-1.3650000000000002,-3.6575,1.08390625,0.358375,0.2836875,1.333625,1.050625,-0.116625,-0.1965,1.3005625,0.019695956627430247,0.019845328869877873,True
1827,196631,0,196632,4971.0,43368.0,39933.0,-0.00244,0.000305,-0.000366,0.36750000000000005,-0.8575,-3.5525,1.08509375,0.3615,0.28550000000000003,1.3300625,1.0584375,-0.11596875000000001,-0.196,1.29515625,0.019798862527552412,0.019899983468341875,True
1828,196632,0,196633,4971.0,43370.0,39929.0,-0.0030499999999999998,0.001037,0.004575,0.2625,-0.8400000000000001,-3.5525,1.08378125,0.35909375,0.284875,1.3336875000000001,1.05834375,-0.11734375,-0.19715625,1.29978125,0.01975497405264624,0.01992098761605509,True
1829,196633,0,196634,4970.0,43371.0,39929.0,-0.002257,0.000305,0.0059169999999999995,0.15750000000000003,-1.4000000000000001,-3.6225000000000005,1.08684375,0.3619375,0.28528125,1.3309375,1.06453125,-0.11953125,-0.19609375,1.295625,0.01996177890065753,0.01989474024087049,True
1830,196634,0,196635,4968.0,43369.0,39924.0,-0.001037,0.000244,0.000366,0.07,-1.7500000000000002,-3.6575,1.0725625,0.36015625,0.283375,1.334,1.05771875,-0.116875,-0.19259375,1.3045,0.01977997771270117,0.01967415130922041,True
1831,196635,0,196636,4964.0,43371.0,39921.0,0.0008539999999999999,0.00183,0.000366,0.17500000000000002,-2.1350000000000002,-3.6575,1.08925,0.3616875,0.28565625,1.33065625,1.0745625,-0.11900000000000001,-0.19525,1.29309375,0.019929827107259837,0.019876060383753006,True
1832,196636,0,196637,4959.0,43369.0,39917.0,0.003965,-0.0011589999999999999,0.00183,-0.0175,-2.3625000000000003,-3.6925000000000003,1.08525,0.3595625,0.2840625,1.33065625,1.0543125,-0.11928125,-0.20209375000000002,1.30075,0.01985315171860687,0.020087363309217825,True
1833,196637,0,196638,4956.0,43367.0,39912.0,0.007808,-0.000976,0.000488,0.035,-2.5200000000000005,-3.7975000000000003,1.0756875000000001,0.361875,0.2864375,1.33053125,1.06371875,-0.114125,-0.194125,1.2922500000000001,0.01973946805036467,0.019862776603824277,True
1834,196638,0,196639,4952.0,43367.0,39907.0,0.004941,-0.00244,-0.000976,0.12250000000000001,-2.2225,-3.8850000000000002,1.06171875,0.347375,0.277875,1.31884375,1.053375,-0.11578125,-0.19984375000000001,1.297,0.019205525427462566,0.019740571672079495,True
1835,196639,0,196640,4949.0,43363.0,39906.0,-0.004575,-0.000122,-0.00061,0.21000000000000002,-1.4525000000000001,-3.9025000000000003,1.07290625,0.36503125000000003,0.29128125,1.31875,1.07203125,-0.122375,-0.19940625,1.2939375,0.02020556640878023,0.020276840470001202,True
1836,196640,0,196641,4944.0,43364.0,39903.0,-0.0057339999999999995,0.000366,0.000976,0.2625,-1.4175000000000002,-3.9025000000000003,1.08034375,0.35859375,0.27840625,1.3515,1.05421875,-0.1151875,-0.19446875,1.29221875,0.019646592007630043,0.019544756484888723,True
1837,196641,0,196642,4940.0,43360.0,39903.0,-0.002806,0.000976,0.002013,0.29750000000000004,-1.6975000000000002,-3.8325000000000005,1.10584375,0.35753125,0.29009375,1.306375,1.0558125,-0.113875,-0.20025,1.30546875,0.019549170342800567,0.020261929112302558,True
1838,196642,0,196643,4937.0,43360.0,39901.0,-0.000549,0.00122,-0.0025009999999999998,0.35000000000000003,-1.7850000000000001,-3.8325000000000005,1.071125,0.36775,0.2773125,1.3471250000000001,1.05340625,-0.11425,-0.19478125000000002,1.29696875,0.0199881812621168,0.01951221402342706,True
1839,196643,0,196644,4937.0,43353.0,39905.0,0.0011589999999999999,0.000366,-0.0015249999999999999,0.43750000000000006,-1.9775000000000003,-3.9375000000000004,1.0788125,0.36453125000000003,0.2861875,1.35175,1.06928125,-0.12053125,-0.19378125000000002,1.29159375,0.020109942644816334,0.019838517387603477,True
1840,196644,0,196645,4935.0,43348.0,39900.0,0.004331,-0.000915,-0.0017079999999999999,0.4025,-2.2750000000000004,-3.9550000000000005,1.10634375,0.35515625,0.29503125,1.3196875000000001,1.06134375,-0.12221875,-0.19909375,1.2985625,0.019789846238750325,0.020419153093284747,True
1841,196645,0,196646,4934.0,43341.0,39900.0,0.0028669999999999998,-0.002013,-0.002379,0.4025,-2.1175,-3.8675,1.0669375,0.35553125,0.273875,1.3468125,1.05484375,-0.1150625,-0.1958125,1.2939687500000001,0.019514515046353292,0.01941193336656911,True
1842,196646,0,196647,4932.0,43339.0,39897.0,-0.000488,0.000305,-0.00061,0.43750000000000006,-1.8550000000000002,-3.7275000000000005,1.101,0.3576875,0.28665625,1.319625,1.06034375,-0.12009375,-0.19809375,1.3005,0.019808432543924087,0.02003256971429826,True
1843,196647,0,196648,4931.0,43341.0,39896.0,-0.0046359999999999995,0.000488,0.000732,0.49000000000000005,-1.5050000000000001,-3.6750000000000003,1.0708125,0.3605,0.277,1.33784375,1.0611875,-0.11653125,-0.19659375,1.29790625,0.019780259650732317,0.019572744614105034,True
1844,196648,0,196649,4932.0,43344.0,39898.0,-0.004209,0.000549,0.00244,0.47250000000000003,-1.33,-3.6050000000000004,1.07546875,0.3619375,0.288875,1.3269375,1.06440625,-0.1171875,-0.19187500000000002,1.29490625,0.019866537091026888,0.019872374505903324,True
1845,196649,0,196650,4934.0,43347.0,39896.0,-0.0025009999999999998,0.00042699999999999997,-0.000122,0.385,-1.5925000000000002,-3.7800000000000002,1.0820625,0.356875,0.28440625,1.3359375,1.05775,-0.11478125,-0.19971875,1.30290625,0.0195588027571264,0.02000539779000531,True
1846,196650,0,196651,4933.0,43351.0,39897.0,0.001464,0.0017079999999999999,0.000976,0.5425000000000001,-1.9250000000000003,-3.7275000000000005,1.0910625,0.36746875,0.285875,1.33059375,1.06496875,-0.1190625,-0.19590625,1.2946250000000001,0.02017206307251785,0.019911684440420577,True
1847,196651,0,196652,4934.0,43351.0,39896.0,0.0034159999999999998,0.000549,0.001769,0.49000000000000005,-2.1175,-3.7800000000000002,1.08371875,0.36059375,0.28571875,1.33296875,1.05746875,-0.11628125,-0.196625,1.29865625,0.019773985676170534,0.01993434001642791,True
1848,196652,0,196653,4935.0,43352.0,39896.0,0.004331,-0.000305,-0.002074,0.43750000000000006,-1.995,-3.8850000000000002,1.0901875,0.36090625,0.28603125,1.324,1.0578125,-0.1199375,-0.19828125,1.2955,0.01993553051287965,0.02001433469577514,True
1849,196653,0,196654,4937.0,43354.0,39896.0,0.004209,0.000122,-0.003965,0.43750000000000006,-1.8725000000000003,-3.7800000000000002,1.08228125,0.36015625,0.28203125,1.326125,1.04765625,-0.115375,-0.19828125,1.30240625,0.019719007064994843,0.019849033699449212,True
1850,196654,0,196655,4939.0,43356.0,39896.0,-0.002379,-0.000915,0.0023179999999999997,0.28,-1.3650000000000002,-3.6225000000000005,1.08953125,0.3605,0.2860625,1.32953125,1.06465625,-0.11946875,-0.19703125,1.28575,0.019899640202481656,0.019965000871749506,True
1851,196655,0,196656,4939.0,43361.0,39898.0,-0.0040869999999999995,-0.002013,-0.0028669999999999998,0.31500000000000006,-1.0850000000000002,-3.5875000000000004,1.08459375,0.36165625,0.28490625,1.3365,1.05771875,-0.116375,-0.19621875,1.3015625,0.01982185340873162,0.019884305269805846,True
1852,196656,0,196657,4942.0,43364.0,39899.0,-0.0051849999999999995,-0.000244,-0.000793,0.42000000000000004,-0.9975,-3.5875000000000004,1.0924375,0.36078125,0.2858125,1.3243125,1.05875,-0.11815625,-0.19828125,1.29559375,0.019857964889003488,0.020005294797538563,True
1853,196657,0,196658,4942.0,43366.0,39902.0,-0.003538,-0.000122,0.00366,0.43750000000000006,-1.1900000000000002,-3.535,1.083375,0.35990625,0.2828125,1.33084375,1.05734375,-0.11953125,-0.1939375,1.28484375,0.019877562919055482,0.019705349738958364,True
1854,196658,0,196659,4944.0,43367.0,39901.0,0.000915,0.001037,0.0021349999999999997,0.35000000000000003,-1.435,-3.5875000000000004,1.08415625,0.358875,0.28546875,1.3312187500000001,1.0569375,-0.11621875,-0.1978125,1.2955625,0.01970017584120645,0.019972104916508464,True
1855,196659,0,196660,4944.0,43369.0,39902.0,0.0034159999999999998,0.001952,-0.00042699999999999997,0.47250000000000003,-1.8375000000000001,-3.6575,1.08365625,0.35846875,0.28500000000000003,1.3314375,1.0585,-0.11878125,-0.1978125,1.295875,0.019787484079445347,0.019952733330750455,True
1856,196660,0,196661,4945.0,43370.0,39903.0,0.003355,0.000244,0.000915,0.4025,-1.7675,-3.6400000000000006,1.0826875,0.35834375,0.2899375,1.32296875,1.0579687500000001,-0.11759375,-0.196,1.29509375,0.019734037521881718,0.02008338155066953,True
1857,196661,0,196662,4946.0,43371.0,39901.0,0.0023179999999999997,-0.000183,-0.000305,0.29750000000000004,-1.6800000000000002,-3.6050000000000004,1.0845,0.3595625,0.28378125,1.3328125,1.0579375,-0.10903125,-0.19815625,1.30240625,0.019436440441795023,0.019916290109912818,True
1858,196662,0,196663,4947.0,43372.0,39902.0,0.000122,-0.0006709999999999999,-0.000793,0.21000000000000002,-1.2600000000000002,-3.5525,1.077125,0.36165625,0.2851875,1.3310625,1.057625,-0.117,-0.196,1.295,0.019847255048306173,0.019887068110431474,True
1859,196663,0,196664,4944.0,43373.0,39899.0,-0.003904,-0.001037,0.0018909999999999999,0.31500000000000006,-0.9975,-3.535,1.08971875,0.3589375,0.28240625,1.329875,1.057375,-0.11909375,-0.19778125,1.29759375,0.019819619051814497,0.01984427807818124,True
1860,196664,0,196665,4946.0,43371.0,39899.0,-0.005063,0.000305,0.001464,0.29750000000000004,-1.0675000000000001,-3.4825000000000004,1.08328125,0.36003125,0.28434375,1.33490625,1.0578125,-0.1165625,-0.19690625,1.3001562500000001,0.019762092959973047,0.019888906252219743,True
1861,196665,0,196666,4945.0,43372.0,39902.0,-0.001647,-0.000549,0.000122,0.24500000000000002,-1.33,-3.5175000000000005,1.08390625,0.3615625,0.28484375,1.32971875,1.05640625,-0.11596875000000001,-0.19634375,1.2959687500000001,0.019801454171315427,0.019886785580982662,True
1862,196666,0,196667,4944.0,43374.0,39901.0,0.002562,-0.000183,-0.00061,0.29750000000000004,-1.715,-3.6050000000000004,1.092625,0.35990625,0.29203125,1.32934375,1.06403125,-0.1183125,-0.198875,1.2953125,0.01982803523256447,0.02028632529404776,True
1863,196667,0,196668,4945.0,43374.0,39904.0,0.005307,0.000244,-0.000122,0.36750000000000005,-2.0300000000000002,-3.6925000000000003,1.08425,0.35965625,0.2834375,1.33425,1.0579687500000001,-0.11659375,-0.19921875,1.30571875,0.019747813681192022,0.019945117029862795,True
1864,196668,0,196669,4946.0,43376.0,39902.0,0.0075639999999999995,0.00061,-0.001952,0.29750000000000004,-2.205,-3.7275000000000005,1.08353125,0.36190625,0.2858125,1.33546875,1.0581875,-0.11621875,-0.19634375,1.29309375,0.019825869260702404,0.01992682262170292,True
1865,196669,0,196670,4945.0,43376.0,39904.0,-0.000976,0.0006709999999999999,-0.000732,0.24500000000000002,-1.435,-3.7625,1.08959375,0.36196875,0.2859375,1.33025,1.07684375,-0.12015625,-0.194875,1.29115625,0.019988469187466395,0.019872493658264403,True
1866,196670,0,196671,4947.0,43380.0,39906.0,-0.005307,0.000244,0.000488,0.3325,-1.1025,-3.6925000000000003,1.07821875,0.35984375,0.282875,1.33596875,1.04828125,-0.11909375,-0.19978125,1.30471875,0.019857193017461527,0.019944653425327967,True
1867,196671,0,196672,4947.0,43380.0,39904.0,-0.006893,-0.0011589999999999999,0.000183,0.35000000000000003,-0.8400000000000001,-3.5700000000000003,1.092,0.35915625,0.29,1.3299375,1.0723125,-0.11503125,-0.1926875,1.29059375,0.01966356564435304,0.019951793284644376,True
1868,196672,0,196673,4948.0,43378.0,39906.0,-0.0062829999999999995,0.00042699999999999997,0.001647,0.36750000000000005,-1.0675000000000001,-3.6400000000000006,1.08346875,0.3611875,0.28528125,1.330375,1.05134375,-0.1141875,-0.19446875,1.28334375,0.01971349853690903,0.019828912341793,True
1869,196673,0,196674,4949.0,43377.0,39905.0,0.00122,-0.000305,-6.1e-05,0.29750000000000004,-1.33,-3.6225000000000005,1.08421875,0.36662500000000003,0.28565625,1.32109375,1.0519375,-0.1153125,-0.19740625,1.30021875,0.01998470888569244,0.019963400002841213,True
1870,196674,0,196675,4949.0,43376.0,39908.0,0.003294,0.000305,-0.000915,0.36750000000000005,-2.1175,-3.7450000000000006,1.0911875,0.35953125,0.282375,1.3353125000000001,1.07565625,-0.12159375,-0.20190625,1.2996875,0.01994582136597007,0.020010045696297166,True
1871,196675,0,196676,4950.0,43375.0,39908.0,0.0046359999999999995,0.000122,-0.0028669999999999998,0.3325,-2.3275,-3.7800000000000002,1.08425,0.3610625,0.28590625000000003,1.33046875,1.0518125,-0.11534375000000001,-0.18962500000000002,1.292875,0.019755316571010935,0.019658479616777857,True
1872,196676,0,196677,4950.0,43372.0,39908.0,0.00366,0.000366,-0.002562,0.35000000000000003,-2.3800000000000003,-3.8150000000000004,1.088875,0.35865625,0.2829375,1.3369375000000001,1.06709375,-0.121375,-0.203625,1.30459375,0.019900658648190662,0.020102877151666334,True
1873,196677,0,196678,4952.0,43370.0,39911.0,0.0034159999999999998,-0.000549,0.00061,0.42000000000000004,-2.2575000000000003,-3.8150000000000004,1.08996875,0.3614375,0.2863125,1.33034375,1.06128125,-0.115875,-0.1929375,1.28915625,0.01979246036065455,0.019809500189879797,True
1874,196678,0,196679,4953.0,43369.0,39911.0,-0.00244,-0.0013419999999999999,-0.00122,0.36750000000000005,-1.5050000000000001,-3.8150000000000004,1.0843125,0.36175,0.286125,1.3314375,1.050125,-0.1141875,-0.1931875,1.28903125,0.019736825053715785,0.019811878860526336,True
1875,196679,0,196680,4954.0,43367.0,39913.0,-0.005429,0.000305,-0.001098,0.1925,-1.3650000000000002,-3.8150000000000004,1.07575,0.3601875,0.281625,1.33509375,1.05153125,-0.1158125,-0.19665625,1.30115625,0.019738086784345334,0.01976641917207052,True
1876,196680,0,196681,4954.0,43364.0,39916.0,-0.0048189999999999995,0.001098,0.001098,0.43750000000000006,-1.4525000000000001,-3.7975000000000003,1.08715625,0.36221875000000003,0.28453125,1.3381875,1.0620625000000001,-0.11553125,-0.1960625,1.2959375,0.019810884323769564,0.01986247762420022,True
1877,196681,0,196682,4953.0,43360.0,39915.0,-0.0015249999999999999,0.00061,0.002562,0.45500000000000007,-1.7325000000000002,-3.8500000000000005,1.09034375,0.36090625,0.29125,1.33353125,1.065,-0.11559375000000001,-0.1955625,1.294875,0.01975899929894946,0.020119908350963115,True
1878,196682,0,196683,4958.0,43361.0,39914.0,0.0032329999999999998,-0.000793,0.0015249999999999999,0.28,-1.995,-3.8850000000000002,1.091375,0.358375,0.285625,1.330375,1.06075,-0.11975000000000001,-0.19618750000000001,1.29465625,0.01982296665595622,0.019912744518118815,True
1879,196683,0,196684,4959.0,43361.0,39916.0,0.001647,0.0,-0.003904,0.4025,-2.0475000000000003,-3.7625,1.083625,0.36096875,0.28390625,1.32803125,1.0573125,-0.1171875,-0.19646875,1.30328125,0.019826368642695172,0.01985310356495718,True
1880,196684,0,196685,4960.0,43362.0,39918.0,-0.000305,-0.000549,-0.0021349999999999997,0.36750000000000005,-1.8550000000000002,-3.8150000000000004,1.08634375,0.36115625,0.28625,1.3309375,1.06503125,-0.1160625,-0.195125,1.2906250000000001,0.01978841902570123,0.019895536807518044,True
1881,196685,0,196686,4961.0,43363.0,39919.0,0.000976,0.000366,0.000305,0.36750000000000005,-1.715,-3.8325000000000005,1.0835937500000001,0.35975,0.28534375,1.33628125,1.05846875,-0.1120625,-0.19965625,1.30275,0.019567488264431963,0.020041606995967142,True
1882,196686,0,196687,4963.0,43363.0,39919.0,0.00244,-0.00061,0.001586,0.35000000000000003,-1.7675,-3.7975000000000003,1.08428125,0.3615625,0.289125,1.33034375,1.06340625,-0.11621875,-0.19593750000000001,1.29646875,0.019811615367769875,0.020047270332054713,True
1883,196687,0,196688,4964.0,43365.0,39922.0,0.001281,-0.0025009999999999998,0.000305,0.3325,-1.6975000000000002,-3.8675,1.09153125,0.3575,0.2831875,1.33009375,1.05890625,-0.1196875,-0.19925,1.30159375,0.019784149359314874,0.019936051737140612,True
1884,196688,0,196689,4967.0,43365.0,39921.0,-0.003904,0.003172,6.1e-05,0.5775,-1.4175000000000002,-3.7450000000000006,1.08465625,0.358625,0.28221875,1.3334375,1.05775,-0.11690625,-0.19678125,1.2959687500000001,0.019717755049945513,0.019796021423303976,True
1885,196689,0,196690,4967.0,43365.0,39923.0,-0.005124,0.002196,0.001647,0.47250000000000003,-1.4525000000000001,-3.8325000000000005,1.096,0.35631250000000003,0.28571875,1.33071875,1.06046875,-0.12040625,-0.20021875,1.3014375,0.019764126070637805,0.020079880476287018,True
1886,196690,0,196691,4970.0,43365.0,39923.0,-0.001098,0.001403,0.0017079999999999999,0.43750000000000006,-1.61,-3.9200000000000004,1.0748125,0.36262500000000003,0.28703125,1.3283125,1.064125,-0.1173125,-0.19584375,1.2890625,0.019900123614519653,0.019956939918658552,True
1887,196691,0,196692,4972.0,43367.0,39926.0,0.00183,-0.000244,-0.00042699999999999997,0.4025,-1.8900000000000001,-3.99,1.090875,0.35459375,0.2824375,1.34196875,1.05053125,-0.1165625,-0.1995,1.2901562500000001,0.019536625503738355,0.01991518419802062,True
1888,196692,0,196693,4971.0,43369.0,39927.0,0.001403,-0.0021349999999999997,-0.0011589999999999999,0.2625,-2.0475000000000003,-3.8325000000000005,1.09753125,0.3626875,0.28671875,1.3272187500000001,1.0624375,-0.11181250000000001,-0.1893125,1.29540625,0.01967915103852106,0.019679403868960724,True
1889,196693,0,196694,4973.0,43367.0,39928.0,0.000976,0.001098,-0.0017079999999999999,0.45500000000000007,-1.995,-3.7450000000000006,1.0804375,0.36184375,0.2851875,1.32928125,1.058125,-0.117125,-0.1898125,1.2935625,0.01986010977676651,0.019636365515441675,True
1890,196694,0,196695,4975.0,43370.0,39927.0,0.0030499999999999998,0.0015249999999999999,-0.000244,0.5775,-1.8200000000000003,-3.6925000000000003,1.09203125,0.35659375,0.2813125,1.3335937500000001,1.05846875,-0.11678125,-0.1936875,1.2846875,0.019628448551773467,0.01963322044231579,True
1891,196695,0,196696,4976.0,43368.0,39931.0,0.0021349999999999997,0.001403,0.0006709999999999999,0.6300000000000001,-1.9425000000000001,-3.5875000000000004,1.08759375,0.3574375,0.28296875,1.3378125,1.05840625,-0.1163125,-0.19659375,1.2948125,0.019644379711865154,0.019819421896935387,True
1892,196696,0,196697,4977.0,43369.0,39929.0,-0.000244,-0.00042699999999999997,0.001098,0.525,-1.5575,-3.5700000000000003,1.09934375,0.35846875,0.285125,1.330125,1.0526875,-0.11653125,-0.19615625,1.29465625,0.019696033192999094,0.019890814269311885,True
1893,196697,0,196698,4977.0,43371.0,39929.0,-0.0048189999999999995,-0.0008539999999999999,0.0011589999999999999,0.47250000000000003,-1.1900000000000002,-3.6400000000000006,1.0864375,0.358375,0.28500000000000003,1.321,1.0578750000000001,-0.11715625,-0.19634375,1.29528125,0.019717550654422617,0.01989324316819561,True
