frame_seq,absolute_seq_u64,segment_id,sample_seq,PPG_G,PPG_R,PPG_IR,ACC_X,ACC_Y,ACC_Z,GYRO_X,GYRO_Y,GYRO_Z,Uh1,Uh2,Uh3,Uh4,Uc1,Uc2,Uc3,Uc4,UD1,UD2,parser_valid
43924,67016,0,67017,4235.0,43492.0,42175.0,-0.003843,-0.005673,-0.004758,0.14,-1.3475000000000001,-4.0425,0.925,0.03684375,-0.202125,0.93940625,0.8934375,-0.44890625,-0.92128125,0.83690625,0.01986796444114959,0.02885711383719487,True
43925,67017,0,67018,4235.0,43489.0,42174.0,-0.011712,0.004392,0.008052,0.49000000000000005,-0.35000000000000003,-3.6925000000000003,0.923125,0.03434375,-0.20209375000000002,0.9340937500000001,0.9013125000000001,-0.45246875000000003,-0.92171875,0.8315,0.019908521506647462,0.028875416146809697,True
43926,67018,0,67019,4234.0,43488.0,42169.0,-0.007625,-0.007137,0.0070149999999999995,0.47250000000000003,-0.8400000000000001,-3.4650000000000003,0.925625,0.0405625,-0.20475000000000002,0.93403125,0.8934375,-0.452625,-0.920875,0.830875,0.02016910249922043,0.028735949279469524,True
43927,67019,0,67020,4231.0,43488.0,42164.0,-0.0006709999999999999,-0.014213,-0.001586,0.12250000000000001,-1.995,-3.5175000000000005,0.92453125,0.03325,-0.2054375,0.93365625,0.89425,-0.4524375,-0.9245625000000001,0.83034375,0.01986253926627969,0.02885206109435221,True
43928,67020,0,67021,4226.0,43483.0,42158.0,0.006954,0.000915,-0.009882,0.0175,-2.66,-3.6925000000000003,0.9258125,0.03403125,-0.20446875,0.9279375,0.893875,-0.44753125,-0.9221875,0.835375,0.019697796684481177,0.028798384973229178,True
43929,67021,0,67022,4222.0,43483.0,42153.0,0.008905999999999999,0.017934,-0.010065,0.3325,-2.31,-3.7450000000000006,0.92440625,0.03696875,-0.20484375,0.94078125,0.8934062500000001,-0.4495,-0.9225625000000001,0.83684375,0.019896879281784904,0.028797951655252143,True
43930,67022,0,67023,4218.0,43481.0,42147.0,0.0032329999999999998,0.013725,0.013908,0.8225000000000001,-1.3650000000000002,-3.6225000000000005,0.925875,0.039093750000000003,-0.20359375000000002,0.9395625,0.89346875,-0.4493125,-0.92090625,0.8410625,0.01997627745156433,0.02878356400060692,True
43931,67023,0,67024,4215.0,43479.0,42140.0,0.005856,0.007869,0.014701,0.8400000000000001,-1.8200000000000003,-4.095000000000001,0.93159375,0.0371875,-0.20175,0.9342812500000001,0.89996875,-0.45056250000000003,-0.92128125,0.8325,0.019948416319665447,0.02887216121763403,True
43932,67024,0,67025,4210.0,43477.0,42136.0,0.009089,0.0015249999999999999,0.011956,0.5075000000000001,-2.415,-4.2,0.9335625000000001,0.03565625,-0.2019375,0.93440625,0.8985,-0.4513125,-0.92140625,0.83159375,0.019915853187840123,0.028869508517401582,True
43933,67025,0,67026,4207.0,43473.0,42131.0,0.010492,-0.00488,0.004209,0.12250000000000001,-2.4850000000000003,-4.0600000000000005,0.9256875,0.0379375,-0.20128125,0.9395,0.8935000000000001,-0.44865625000000003,-0.92109375,0.83959375,0.0199026787003887,0.028883664064704224,True
43934,67026,0,67027,4206.0,43471.0,42130.0,0.001281,-0.009271999999999999,-0.007869,-0.28,-2.0125,-4.0075,0.932625,0.03609375,-0.201625,0.93478125,0.9010312500000001,-0.449625,-0.92159375,0.82521875,0.019866102240831914,0.028889354237226505,True
43935,67027,0,67028,4202.0,43473.0,42127.0,-0.014701,-0.013725,-0.011163,-0.35000000000000003,-0.9625000000000001,-3.0450000000000004,0.92396875,0.03396875,-0.2048125,0.93978125,0.893375,-0.4503125,-0.922625,0.83778125,0.019806750936209917,0.028801641079139937,True
43936,67028,0,67029,4201.0,43472.0,42126.0,-0.01281,-0.008905999999999999,-0.0068319999999999995,-0.21000000000000002,-0.6825000000000001,-3.3075,0.92540625,0.0365,-0.2010625,0.9342812500000001,0.8964375,-0.45015625000000004,-0.920875,0.8313125,0.019904013905841605,0.02888391759920147,True
43937,67029,0,67030,4202.0,43472.0,42129.0,-0.008845,-0.002196,-0.0030499999999999998,0.0175,-0.8225000000000001,-3.5875000000000004,0.930875,0.035250000000000004,-0.2044375,0.9335,0.9002187500000001,-0.45196875000000003,-0.9246562500000001,0.83053125,0.019925542805218906,0.028895834822195394,True
43938,67030,0,67031,4202.0,43473.0,42132.0,-0.007808,0.0055509999999999995,0.002074,0.36750000000000005,-0.8925000000000001,-3.5875000000000004,0.92534375,0.0369375,-0.20140625,0.9301875000000001,0.8935000000000001,-0.44521875,-0.9205,0.82753125,0.019723949085135514,0.028855510523464616,True
43939,67031,0,67032,4200.0,43473.0,42132.0,-0.0046359999999999995,0.013359,0.008601,0.5950000000000001,-1.05,-3.8150000000000004,0.9306875,0.035687500000000004,-0.20028125,0.93478125,0.8978125,-0.44978125,-0.91853125,0.83315625,0.01985575024316424,0.028823929981828283,True
43940,67032,0,67033,4201.0,43472.0,42135.0,0.0071979999999999995,0.007503,0.009333,0.49000000000000005,-2.7300000000000004,-4.0075,0.92496875,0.03625,-0.2016875,0.93459375,0.893625,-0.44925,-0.9210625,0.8340625,0.0198574598402814,0.02886614485237136,True
43941,67033,0,67034,4201.0,43472.0,42135.0,0.014701,0.000244,0.00488,0.22750000000000004,-3.5000000000000004,-4.357500000000001,0.93171875,0.03390625,-0.2060625,0.9369375,0.8960625,-0.4524375,-0.91709375,0.83434375,0.01988937708152817,0.028535882119077392,True
43942,67034,0,67035,4203.0,43472.0,42135.0,0.018178,-0.00488,-0.00366,-0.07,-3.8850000000000002,-4.41,0.9247500000000001,0.03703125,-0.2000625,0.94165625,0.8924375,-0.44996875000000003,-0.92115625,0.83990625,0.019918225866853104,0.028935003768133752,True
43943,67035,0,67036,4204.0,43472.0,42136.0,0.014029999999999999,-0.009577,-0.009637999999999999,-0.17500000000000002,-3.7800000000000002,-4.305000000000001,0.9316562500000001,0.035312500000000004,-0.2011875,0.93396875,0.90328125,-0.4518125,-0.9204687500000001,0.8324375,0.019921836060210262,0.028863070643484586,True
43944,67036,0,67037,4207.0,43476.0,42140.0,-0.000488,-0.005978,-0.011407,-0.15750000000000003,-3.1325000000000003,-3.9025000000000003,0.9323125,0.03728125,-0.20209375000000002,0.93659375,0.89371875,-0.456125,-0.92725,0.84103125,0.020175160619272266,0.029090904532188665,True
43945,67037,0,67038,4208.0,43477.0,42144.0,-0.007137,-0.0015249999999999999,-0.005612,0.035,-1.12,-3.7100000000000004,0.9259375,0.0368125,-0.20500000000000002,0.93871875,0.8900625,-0.4405,-0.9183125,0.84759375,0.019529571817270514,0.028626035571228992,True
43946,67038,0,67039,4210.0,43477.0,42146.0,-0.012199999999999999,0.0028669999999999998,0.00244,0.43750000000000006,-0.12250000000000001,-3.7450000000000006,0.9254375,0.036625,-0.201,0.9342812500000001,0.9006875,-0.45225,-0.919375,0.82575,0.019993047674549378,0.028827970203907604,True
43947,67039,0,67040,4212.0,43478.0,42151.0,-0.015433,0.0050019999999999995,0.007503,0.6475000000000001,0.21000000000000002,-3.8150000000000004,0.9325,0.03284375,-0.202125,0.9340937500000001,0.88696875,-0.451875,-0.925625,0.830875,0.019823377552846154,0.029026353401369075,True
43948,67040,0,67041,4214.0,43479.0,42152.0,-0.012871,0.0050019999999999995,0.010492,0.6475000000000001,-0.052500000000000005,-3.7450000000000006,0.9248125,0.03278125,-0.20125,0.92634375,0.8864062500000001,-0.44815625000000003,-0.92859375,0.8201875000000001,0.019671728824131676,0.029177087054900557,True
43949,67041,0,67042,4216.0,43479.0,42154.0,0.00183,0.002257,0.006161,0.47250000000000003,-1.715,-4.2,0.9303750000000001,0.03421875,-0.20484375,0.93378125,0.88728125,-0.45484375,-0.9235625000000001,0.8475,0.0199985943480011,0.028836918879473997,True
43950,67042,0,67043,4217.0,43479.0,42156.0,0.00671,0.001281,-0.000488,0.385,-2.5900000000000003,-4.095000000000001,0.9251875,0.03653125,-0.20434375,0.9400937500000001,0.89225,-0.44821875,-0.91715625,0.8415312500000001,0.01982762036600315,0.028607297431864843,True
43951,67043,0,67044,4217.0,43480.0,42157.0,0.010431,-0.002196,-0.0051849999999999995,0.15750000000000003,-3.0625000000000004,-3.9375000000000004,0.92896875,0.0380625,-0.2028125,0.94165625,0.913875,-0.45184375,-0.9167500000000001,0.82621875,0.02003555457857856,0.028652914204300325,True
43952,67044,0,67045,4221.0,43479.0,42156.0,0.012565999999999999,-0.0025009999999999998,-0.0070149999999999995,0.15750000000000003,-3.115,-4.077500000000001,0.925625,0.036125,-0.20115625,0.94040625,0.89628125,-0.450875,-0.9167500000000001,0.825875,0.019917487615473885,0.02871938555389447,True
43953,67045,0,67046,4220.0,43479.0,42154.0,0.010492,-0.0030499999999999998,-0.0075639999999999995,0.12250000000000001,-2.8350000000000004,-4.1475,0.92896875,0.035875000000000004,-0.20128125,0.9393125,0.91096875,-0.45106250000000003,-0.91796875,0.82525,0.01991477875450198,0.028761874902022262,True
43954,67046,0,67047,4221.0,43479.0,42154.0,0.0013419999999999999,0.0,-0.001769,0.31500000000000006,-1.5750000000000002,-3.9725000000000006,0.91971875,0.035687500000000004,-0.2015625,0.93215625,0.8931250000000001,-0.4535,-0.9194375,0.825875,0.0200048050381336,0.028807833242624356,True
43955,67047,0,67048,4219.0,43479.0,42154.0,-0.006588,0.001464,0.001647,0.45500000000000007,-0.665,-3.8325000000000005,0.9334687500000001,0.036375,-0.20203125,0.9391875000000001,0.8996875,-0.4544375,-0.91859375,0.8255,0.020070488229385768,0.028756137171665235,True
43956,67048,0,67049,4221.0,43479.0,42153.0,-0.011041,0.002013,0.0048189999999999995,0.525,-0.17500000000000002,-3.7275000000000005,0.93334375,0.036375,-0.20140625,0.93378125,0.8993125000000001,-0.45006250000000003,-0.9199375000000001,0.8320625,0.019895143417322552,0.02883358957059985,True
43957,67049,0,67050,4221.0,43480.0,42153.0,-0.011467999999999999,0.001586,0.007625,0.49000000000000005,-0.1925,-3.7100000000000004,0.93253125,0.0343125,-0.20090625,0.9334375,0.8905937500000001,-0.45359375,-0.9196562500000001,0.8316250000000001,0.019952333182111526,0.028842693205288497,True
43958,67050,0,67051,4219.0,43476.0,42152.0,-0.008113,0.000244,0.006405,0.36750000000000005,-0.6125,-3.7275000000000005,0.93140625,0.034125,-0.20096875,0.9341875000000001,0.9013125000000001,-0.45303125,-0.92121875,0.83178125,0.019922121107173577,0.028901074511052952,True
43959,67051,0,67052,4220.0,43478.0,42151.0,0.0011589999999999999,-0.0006709999999999999,-0.001098,0.15750000000000003,-1.8550000000000002,-3.8150000000000004,0.9256562500000001,0.03371875,-0.20265625,0.9345625000000001,0.8939375,-0.45321875,-0.9223125,0.83225,0.019913022697676558,0.02887598211442056,True
43960,67052,0,67053,4218.0,43479.0,42151.0,0.005429,-0.001586,-0.005307,0.052500000000000005,-2.3975000000000004,-3.9025000000000003,0.925625,0.03553125,-0.20059375000000002,0.9386875,0.894,-0.44956250000000003,-0.92040625,0.83934375,0.019840590194609823,0.028884460902398008,True
43961,67053,0,67054,4220.0,43478.0,42153.0,0.010065,-0.001037,-0.005429,-0.0175,-2.6950000000000003,-3.9200000000000004,0.9304687500000001,0.03615625,-0.2020625,0.93703125,0.89996875,-0.44965625000000004,-0.92103125,0.83584375,0.019869911258977312,0.028849879557050834,True
43962,67054,0,67055,4218.0,43477.0,42152.0,0.010187,0.000549,-0.003294,0.10500000000000001,-2.5375,-4.0425,0.9296562500000001,0.0361875,-0.19643750000000001,0.93984375,0.8989375000000001,-0.4493125,-0.9208437500000001,0.8368125000000001,0.01985740907847613,0.029068287465186648,True
43963,67055,0,67056,4220.0,43477.0,42151.0,0.005795,0.001464,-0.001586,0.14,-2.2750000000000004,-3.99,0.922625,0.03659375,-0.203375,0.933125,0.8970312500000001,-0.44921875,-0.92371875,0.8265625,0.019870266815785267,0.028901937035379206,True
43964,67056,0,67057,4221.0,43474.0,42151.0,-0.0025009999999999998,0.0011589999999999999,0.000793,0.36750000000000005,-1.1900000000000002,-3.7625,0.92496875,0.0328125,-0.20515625,0.9329375,0.8797812500000001,-0.45153125,-0.923875,0.826875,0.019808319775474186,0.028836557317030356,True
43965,67057,0,67058,4221.0,43479.0,42150.0,-0.006344,-6.1e-05,0.002806,0.29750000000000004,-0.805,-3.7275000000000005,0.9253125,0.035687500000000004,-0.20484375,0.93178125,0.8942187500000001,-0.45284375,-0.9238437500000001,0.8316250000000001,0.0199785045451002,0.02884787784789415,True
43966,67058,0,67059,4224.0,43478.0,42152.0,-0.008662,-0.0025009999999999998,0.002196,0.2625,-0.6475000000000001,-3.5875000000000004,0.92103125,0.029468750000000002,-0.2004375,0.9306562500000001,0.893875,-0.45403125,-0.92121875,0.83146875,0.01977179120518217,0.028922391686803033,True
43967,67059,0,67060,4223.0,43476.0,42153.0,-0.007869,-0.003355,0.0006709999999999999,0.15750000000000003,-0.6825000000000001,-3.535,0.93978125,0.03665625,-0.199,0.94303125,0.8953125000000001,-0.45059375,-0.9217500000000001,0.83696875,0.0199279414226904,0.0290007724176673,True
43968,67060,0,67061,4225.0,43478.0,42155.0,-0.0044529999999999995,0.000488,-0.0018909999999999999,0.10500000000000001,-0.9625000000000001,-3.5525,0.93434375,0.0381875,-0.2048125,0.935125,0.9,-0.44734375,-0.9226562500000001,0.8366250000000001,0.019860286457501132,0.028802858844550333,True
43969,67061,0,67062,4226.0,43479.0,42156.0,0.002806,0.0017079999999999999,0.001403,0.36750000000000005,-1.4525000000000001,-3.8500000000000005,0.91990625,0.039375,-0.20425000000000001,0.9310625,0.89275,-0.4504375,-0.9243125,0.83134375,0.0200328726224224,0.02888996436712146,True
43970,67062,0,67063,4226.0,43478.0,42160.0,0.002562,0.000122,0.002013,0.29750000000000004,-1.6275000000000002,-3.9025000000000003,0.9225625000000001,0.02896875,-0.2013125,0.93140625,0.8929375,-0.45340625,-0.92228125,0.831125,0.019726290688030425,0.02892868204029276,True
43971,67063,0,67064,4228.0,43479.0,42158.0,0.001952,0.00122,0.001647,0.28,-1.7500000000000002,-3.8850000000000002,0.931,0.03740625,-0.20550000000000002,0.9308125,0.89971875,-0.44996875000000003,-0.9234687500000001,0.83146875,0.019933563309769056,0.02880693523047429,True
43972,67064,0,67065,4228.0,43480.0,42160.0,0.002196,0.0017079999999999999,-0.000366,0.22750000000000004,-1.7850000000000001,-3.9550000000000005,0.9373750000000001,0.0409375,-0.19896875,0.9448125,0.9001250000000001,-0.4506875,-0.92034375,0.83834375,0.020106796588030502,0.028947233121533484,True
43973,67065,0,67066,4228.0,43478.0,42160.0,0.001464,6.1e-05,-0.002196,0.14,-2.0125,-3.9025000000000003,0.93209375,0.03765625,-0.19778125,0.9470937500000001,0.89459375,-0.44906250000000003,-0.9203125,0.8356250000000001,0.01990746066439153,0.028993667314565173,True
43974,67066,0,67067,4232.0,43478.0,42163.0,0.00366,-0.003477,-0.001464,0.035,-2.0650000000000004,-3.8850000000000002,0.924875,0.03865625,-0.2066875,0.9328125,0.89353125,-0.45034375,-0.9238125,0.8316250000000001,0.01999971881785916,0.028772684756796337,True
43975,67067,0,67068,4232.0,43480.0,42163.0,0.0042699999999999995,-0.0008539999999999999,-0.0021349999999999997,0.14,-1.7325000000000002,-3.9025000000000003,0.92071875,0.035187500000000003,-0.203125,0.92325,0.89190625,-0.44634375,-0.9228125,0.83125,0.01969747521037783,0.028876656677491758,True
43976,67068,0,67069,4232.0,43480.0,42166.0,0.002074,0.000732,-0.0008539999999999999,0.24500000000000002,-1.435,-3.7800000000000002,0.93115625,0.035,-0.19909375,0.939125,0.89884375,-0.45053125,-0.9214375,0.83359375,0.01985769736598259,0.028984834843495687,True
43977,67069,0,67070,4235.0,43482.0,42168.0,-0.0008539999999999999,0.001769,0.0008539999999999999,0.29750000000000004,-1.1375000000000002,-3.7275000000000005,0.9323750000000001,0.03615625,-0.20078125,0.9383125,0.8925625,-0.45059375,-0.921125,0.836125,0.019907492021538332,0.028904945101796167,True
43978,67070,0,67071,4234.0,43483.0,42168.0,-0.003721,0.001281,0.003904,0.43750000000000006,-0.9800000000000001,-3.6575,0.9251875,0.03596875,-0.20421875,0.93475,0.89384375,-0.449875,-0.924125,0.8317187500000001,0.01987101161048881,0.028883912674968527,True
43979,67071,0,67072,4237.0,43480.0,42170.0,-0.00793,0.000732,6.1e-05,0.29750000000000004,-0.6825000000000001,-3.7800000000000002,0.92559375,0.03721875,-0.2010625,0.933875,0.89375,-0.45178125,-0.92215625,0.8325312500000001,0.01999854305092804,0.028933842752871752,True
43980,67072,0,67073,4239.0,43481.0,42172.0,-0.006405,0.00061,-0.0021349999999999997,0.31500000000000006,-0.8750000000000001,-3.7975000000000003,0.93315625,0.03421875,-0.20071875,0.9360937500000001,0.89371875,-0.4593125,-0.92159375,0.8275,0.02017764195130178,0.02892571828396809,True
43981,67073,0,67074,4240.0,43483.0,42176.0,-0.0006709999999999999,-0.0021349999999999997,-0.001403,0.31500000000000006,-1.225,-3.8500000000000005,0.93290625,0.04025,-0.20096875,0.94134375,0.9010312500000001,-0.46415625,-0.920625,0.8235,0.02061817480420973,0.02887793745140822,True
43982,67074,0,67075,4241.0,43483.0,42174.0,0.0050019999999999995,-0.0042699999999999995,-0.001464,0.24500000000000002,-1.6450000000000002,-4.095000000000001,0.9275625000000001,0.0363125,-0.2,0.9400625,0.9143125,-0.4585625,-0.91740625,0.82053125,0.020233200540710435,0.028791369486942487,True
43983,67075,0,67076,4240.0,43482.0,42171.0,0.006222,-0.0021349999999999997,-0.000732,0.24500000000000002,-1.7500000000000002,-4.077500000000001,0.93209375,0.03653125,-0.200875,0.9415625,0.9145,-0.459,-0.91809375,0.82046875,0.02025966924240566,0.028783050469099385,True
43984,67076,0,67077,4240.0,43480.0,42167.0,0.0023179999999999997,0.001281,-0.000244,0.31500000000000006,-1.5575,-3.9375000000000004,0.92890625,0.03615625,-0.20034375000000001,0.9396875,0.913625,-0.45553125,-0.9146875,0.8463125,0.02010536982303339,0.028671591807041527,True
43985,67077,0,67078,4239.0,43477.0,42159.0,-0.000732,0.0006709999999999999,0.001403,0.385,-1.3475000000000001,-3.9025000000000003,0.92521875,0.03646875,-0.19934375000000001,0.9393750000000001,0.90965625,-0.44825,-0.915125,0.83103125,0.01982631681204176,0.028728784222435164,True
43986,67078,0,67079,4235.0,43477.0,42156.0,-0.000305,6.1e-05,0.002989,0.385,-1.155,-3.9550000000000005,0.92971875,0.0364375,-0.19971875,0.94015625,0.91590625,-0.44846875,-0.908625,0.8472500000000001,0.019833808610201818,0.028460272295239102,True
43987,67079,0,67080,4231.0,43474.0,42152.0,-0.0011589999999999999,0.002074,0.001952,0.4025,-1.12,-4.0425,0.9249375,0.0405,-0.204125,0.93321875,0.9048125,-0.4455,-0.92325,0.82834375,0.01988095968583175,0.028853580492110783,True
43988,67080,0,67081,4228.0,43472.0,42144.0,-0.002074,0.0018909999999999999,0.001647,0.4025,-1.05,-4.077500000000001,0.92478125,0.034125,-0.201125,0.93434375,0.8804062500000001,-0.4531875,-0.928125,0.82075,0.019928383569626663,0.029163846057415066,True
43989,67081,0,67082,4223.0,43472.0,42138.0,-0.002806,0.0006709999999999999,-0.0006709999999999999,0.24500000000000002,-1.3125000000000002,-3.9725000000000006,0.93278125,0.03590625,-0.2003125,0.9391875000000001,0.890625,-0.46078125000000003,-0.91653125,0.84090625,0.020305463465113163,0.028744721438703474,True
43990,67082,0,67083,4218.0,43468.0,42134.0,-0.000183,0.000366,-0.001769,0.12250000000000001,-1.5750000000000002,-4.0075,0.9254687500000001,0.0365625,-0.20253125,0.9398125,0.9140312500000001,-0.44846875,-0.9156875,0.8438125,0.019838921404842585,0.02862278032665163,True
43991,67083,0,67084,4216.0,43467.0,42130.0,0.0017079999999999999,6.1e-05,-0.000183,0.08750000000000001,-1.6450000000000002,-3.9200000000000004,0.92509375,0.0361875,-0.197,0.938125,0.8965,-0.446875,-0.91640625,0.83046875,0.01975968298606673,0.028872793402941084,True
43992,67084,0,67085,4213.0,43468.0,42128.0,0.000976,-0.00122,-0.000366,0.052500000000000005,-1.6275000000000002,-3.9025000000000003,0.925625,0.03628125,-0.19990625,0.93940625,0.8814375,-0.448875,-0.917875,0.83821875,0.019843704464929366,0.02881340202565428,True
43993,67085,0,67086,4212.0,43466.0,42128.0,0.000915,-0.002379,6.1e-05,0.10500000000000001,-1.6625,-3.9550000000000005,0.92503125,0.03603125,-0.201375,0.9405625,0.89425,-0.45021875,-0.92134375,0.8378125000000001,0.01988734763364847,0.028889644042568937,True
43994,67086,0,67087,4210.0,43464.0,42126.0,-0.0026839999999999998,0.000488,-0.001464,0.22750000000000004,-1.61,-3.9725000000000006,0.92559375,0.0341875,-0.2015,0.9346875,0.8924375,-0.45353125,-0.9223125,0.82959375,0.019944716573398778,0.028922376284303473,True
43995,67087,0,67088,4207.0,43467.0,42125.0,-0.0011589999999999999,0.000366,0.0006709999999999999,0.1925,-1.715,-3.9550000000000005,0.914125,0.03365625,-0.2003125,0.93403125,0.89359375,-0.45375,-0.92103125,0.82759375,0.019931758932679036,0.02892010137020313,True
43996,67088,0,67089,4208.0,43466.0,42127.0,0.000793,0.0006709999999999999,0.00061,0.15750000000000003,-1.9425000000000001,-3.9025000000000003,0.925,0.03625,-0.20115625,0.93371875,0.893625,-0.448875,-0.9214375,0.8318125000000001,0.019842426287508118,0.028902074769964613,True
43997,67089,0,67090,4206.0,43466.0,42126.0,0.00244,-0.000488,-0.00042699999999999997,0.17500000000000002,-1.9250000000000003,-3.9025000000000003,0.92034375,0.034125,-0.19653125,0.9345625000000001,0.8951875,-0.45209375,-0.9204687500000001,0.83125,0.019884544651723332,0.02904991504222809,True
43998,67090,0,67091,4209.0,43467.0,42126.0,0.003355,0.000183,-0.00042699999999999997,0.17500000000000002,-1.9775000000000003,-3.9375000000000004,0.92971875,0.036625,-0.200125,0.94065625,0.9010312500000001,-0.4508125,-0.91978125,0.84059375,0.01993543159353089,0.028878915219209638,True
43999,67091,0,67092,4209.0,43467.0,42130.0,0.001281,-0.000366,-0.001769,0.21000000000000002,-1.8725000000000003,-3.8500000000000005,0.9283125,0.03571875,-0.1998125,0.93940625,0.8961875,-0.45096875000000003,-0.9226875,0.8384375000000001,0.01990463056806287,0.02900469702555152,True
44000,67092,0,67093,4211.0,43469.0,42130.0,0.000488,0.0,-0.000366,0.28,-1.6625,-3.8325000000000005,0.925125,0.03609375,-0.2029375,0.93871875,0.88325,-0.44959375,-0.9236875,0.83278125,0.01986484949264239,0.02891827302841925,True
44001,67093,0,67094,4214.0,43469.0,42134.0,-0.0018909999999999999,-0.00042699999999999997,0.000732,0.42000000000000004,-1.5750000000000002,-3.7975000000000003,0.9261875,0.035812500000000004,-0.2081875,0.9290625,0.8814062500000001,-0.44565625000000003,-0.9240625,0.8258125000000001,0.019695472482969243,0.028722243815589854,True
44002,67094,0,67095,4214.0,43468.0,42136.0,-0.003172,-0.000732,0.001647,0.49000000000000005,-1.4875,-3.6925000000000003,0.9235625000000001,0.036875,-0.20459375,0.94703125,0.89271875,-0.45446875000000003,-0.9233750000000001,0.8321875,0.020092186627444115,0.028839643507350028,True
44003,67095,0,67096,4215.0,43470.0,42138.0,-0.002379,-0.000793,0.00122,0.43750000000000006,-1.5750000000000002,-3.8500000000000005,0.9204375,0.037625,-0.19559375,0.94196875,0.89371875,-0.45065625000000004,-0.92071875,0.8375,0.019970067265576975,0.029097274732495428,True
44004,67096,0,67097,4217.0,43473.0,42141.0,0.001098,0.000488,-0.000366,0.43750000000000006,-1.8200000000000003,-3.8325000000000005,0.94171875,0.03490625,-0.19771875,0.9413125,0.8924062500000001,-0.45071875,-0.919375,0.8375312500000001,0.019861379330617837,0.028959644854656273,True
44005,67097,0,67098,4219.0,43474.0,42144.0,0.00183,0.0013419999999999999,0.0008539999999999999,0.43750000000000006,-1.7675,-3.8150000000000004,0.94225,0.034125,-0.19771875,0.9416875,0.89409375,-0.4509375,-0.919875,0.83928125,0.019838196388175303,0.02897912810557838,True
44006,67098,0,67099,4222.0,43476.0,42146.0,-0.000488,0.001037,0.000732,0.45500000000000007,-1.6975000000000002,-3.8500000000000005,0.9403750000000001,0.03734375,-0.1963125,0.95025,0.89353125,-0.4503125,-0.92296875,0.827875,0.019944785981774262,0.029156087193665484,True
44007,67099,0,67100,4222.0,43474.0,42148.0,-0.00061,0.000976,0.000976,0.385,-1.6275000000000002,-3.8150000000000004,0.9185,0.0388125,-0.20450000000000002,0.9519062500000001,0.89271875,-0.45290625,-0.92259375,0.833125,0.020108806085166256,0.028812962134007417,True
44008,67100,0,67101,4225.0,43475.0,42148.0,0.0008539999999999999,-0.00042699999999999997,6.1e-05,0.43750000000000006,-1.715,-3.7100000000000004,0.92784375,0.03834375,-0.1938125,0.9504375,0.8925000000000001,-0.45046875000000003,-0.9204375,0.83896875,0.019991948007131766,0.029157794681574114,True
44009,67101,0,67102,4225.0,43474.0,42150.0,0.000244,-0.00061,-0.0021349999999999997,0.3325,-1.7325000000000002,-3.7800000000000002,0.9254375,0.0383125,-0.204625,0.9294687500000001,0.8931250000000001,-0.45390625,-0.9233125,0.8313125,0.020128430401584615,0.028835954289783906,True
44010,67102,0,67103,4228.0,43476.0,42151.0,0.000244,-0.001098,-0.00122,0.4025,-1.7325000000000002,-3.6925000000000003,0.93396875,0.02665625,-0.198875,0.9165625000000001,0.90259375,-0.44478125,-0.9176562500000001,0.8366250000000001,0.019285813817622118,0.028846262376703267,True
44011,67103,0,67104,4227.0,43475.0,42148.0,-0.000183,-0.000488,-0.001952,0.36750000000000005,-1.8025000000000002,-3.7450000000000006,0.938125,0.0404375,-0.19453125000000002,0.9449375,0.9020312500000001,-0.45078125,-0.9193125,0.8350625,0.020090104482857786,0.02908512223200379,True
44012,67104,0,67105,4228.0,43476.0,42148.0,0.00122,-0.000366,-0.0006709999999999999,0.45500000000000007,-1.8200000000000003,-3.6575,0.9324687500000001,0.037375,-0.19625,0.94003125,0.89353125,-0.450625,-0.91990625,0.83859375,0.01995859001559265,0.02903928460806308,True
44013,67105,0,67106,4227.0,43476.0,42148.0,-0.0006709999999999999,0.000366,0.002989,0.4025,-1.5050000000000001,-3.7975000000000003,0.9255625000000001,0.03721875,-0.19884375,0.93175,0.894,-0.450625,-0.92215625,0.8390625,0.01995219958590016,0.02902286996134213,True
44014,67106,0,67107,4227.0,43474.0,42147.0,-0.000732,0.001098,0.0021349999999999997,0.42000000000000004,-1.5750000000000002,-3.7975000000000003,0.93215625,0.035,-0.1945,0.9341875000000001,0.898875,-0.45184375,-0.91971875,0.8244375,0.019910308399545537,0.029102204454053076,True
44015,67107,0,67108,4227.0,43472.0,42147.0,-0.002013,0.0017079999999999999,0.000915,0.43750000000000006,-1.6625,-3.8500000000000005,0.93225,0.03628125,-0.20009375000000001,0.9360625,0.8894375,-0.45156250000000003,-0.91309375,0.8363125,0.019951434596459837,0.028619488496887304,True
44016,67108,0,67109,4227.0,43476.0,42146.0,-0.000976,0.0015249999999999999,6.1e-05,0.28,-1.7325000000000002,-4.0075,0.92871875,0.035687500000000004,-0.19993750000000002,0.9393125,0.89965625,-0.45159375,-0.91971875,0.83815625,0.01992840446238806,0.028884003757064874,True
44017,67109,0,67110,4225.0,43475.0,42143.0,0.0006709999999999999,-0.00122,-0.000305,0.22750000000000004,-1.9600000000000002,-3.9725000000000006,0.9273750000000001,0.03746875,-0.2024375,0.93621875,0.8952187500000001,-0.45103125,-0.921875,0.8270000000000001,0.01997870744204296,0.02886771159874608,True
44018,67110,0,67111,4225.0,43475.0,42145.0,0.0023179999999999997,-0.0011589999999999999,-0.001769,0.17500000000000002,-2.1,-3.8850000000000002,0.9253125,0.036000000000000004,-0.1968125,0.9394687500000001,0.8904375,-0.449875,-0.91940625,0.8365,0.019872289735632598,0.02899722981963103,True
44019,67111,0,67112,4227.0,43476.0,42146.0,0.0013419999999999999,-0.00244,-0.001037,0.21000000000000002,-2.0650000000000004,-3.8850000000000002,0.92525,0.035687500000000004,-0.20128125,0.9419062500000001,0.89365625,-0.45078125,-0.92234375,0.838,0.019895836661660865,0.028932371177971577,True
44020,67112,0,67113,4225.0,43473.0,42147.0,0.000122,-0.000549,-0.000244,0.2625,-1.995,-3.8325000000000005,0.9273125,0.03815625,-0.19965625,0.9401875000000001,0.89403125,-0.44509375,-0.9194687500000001,0.8361875,0.01976879307325217,0.02888554757011022,True
44021,67113,0,67114,4225.0,43477.0,42146.0,0.000732,-0.0006709999999999999,-0.0011589999999999999,0.22750000000000004,-1.9425000000000001,-3.8325000000000005,0.9254687500000001,0.035937500000000004,-0.20278125,0.9383750000000001,0.8932187500000001,-0.4501875,-0.922125,0.83275,0.019882260616610817,0.02886366030184023,True
44022,67114,0,67115,4225.0,43474.0,42147.0,0.000976,0.0008539999999999999,-0.000549,0.3325,-1.9250000000000003,-3.8675,0.9241875,0.033875,-0.2024375,0.9334687500000001,0.8934375,-0.45378125,-0.92215625,0.83159375,0.019941956829273595,0.028878670961707015,True
44023,67115,0,67116,4224.0,43476.0,42146.0,0.000488,0.00061,0.002257,0.29750000000000004,-1.715,-3.9200000000000004,0.917,0.03340625,-0.1995625,0.93378125,0.89546875,-0.44740625,-0.9127500000000001,0.82159375,0.019667219298570782,0.028627409659712402,True
44024,67116,0,67117,4228.0,43477.0,42148.0,0.0,-0.0008539999999999999,0.0028669999999999998,0.1925,-1.6625,-3.8150000000000004,0.9262812500000001,0.031656250000000004,-0.2014375,0.93384375,0.89328125,-0.45446875000000003,-0.92028125,0.83209375,0.019878779824239693,0.02884573182736451,True
44025,67117,0,67118,4226.0,43478.0,42148.0,-0.001952,-0.0008539999999999999,-6.1e-05,0.12250000000000001,-1.5750000000000002,-3.7625,0.91296875,0.0328125,-0.19696875,0.9335625000000001,0.8949375,-0.45265625,-0.921375,0.8316250000000001,0.019853415720429146,0.02906766781527905,True
44026,67118,0,67119,4226.0,43476.0,42150.0,-6.1e-05,0.000915,-0.0030499999999999998,0.08750000000000001,-1.4700000000000002,-3.7100000000000004,0.925875,0.03278125,-0.20159375000000002,0.93475,0.89346875,-0.4533125,-0.9208437500000001,0.83159375,0.019878441826644142,0.028861382351871617,True
44027,67119,0,67120,4230.0,43478.0,42150.0,0.000244,0.0025009999999999998,0.000244,0.1925,-1.2775,-3.8500000000000005,0.930875,0.033375,-0.20025,0.93834375,0.899625,-0.45471875,-0.9188125,0.83575,0.019959082539029404,0.02883614538212846,True
44028,67120,0,67121,4230.0,43478.0,42152.0,-0.004697,-0.001281,0.003111,0.1925,-0.8925000000000001,-3.7275000000000005,0.93059375,0.035312500000000004,-0.19918750000000002,0.937625,0.89953125,-0.45109375,-0.9195625000000001,0.83746875,0.019893026257772214,0.028908011527088405,True
44029,67121,0,67122,4231.0,43479.0,42151.0,-0.0060999999999999995,-0.0013419999999999999,0.0030499999999999998,0.22750000000000004,-0.8400000000000001,-3.7975000000000003,0.9278125,0.035812500000000004,-0.19865625,0.93859375,0.8981875,-0.45206250000000003,-0.9196562500000001,0.83534375,0.019952304636878793,0.028932983375322446,True
44030,67122,0,67123,4234.0,43477.0,42152.0,-0.005612,-0.000549,0.0,0.052500000000000005,-1.0675000000000001,-3.8150000000000004,0.926625,0.03590625,-0.20040625,0.93884375,0.894,-0.45078125,-0.92096875,0.83740625,0.019904783206058093,0.028913904079270594,True
44031,67123,0,67124,4232.0,43479.0,42156.0,-0.0026839999999999998,-0.0008539999999999999,-0.001586,0.0175,-1.5225000000000002,-3.9725000000000006,0.9238125,0.03609375,-0.2013125,0.93771875,0.89359375,-0.44715625000000003,-0.9215625000000001,0.83703125,0.019767125266358945,0.028900675870543832,True
44032,67124,0,67125,4234.0,43478.0,42159.0,0.0037819999999999998,-0.00183,-0.002562,-0.08750000000000001,-2.45,-4.0600000000000005,0.92584375,0.04046875,-0.1998125,0.9332812500000001,0.89359375,-0.4515,-0.9220625,0.83178125,0.020120186900599146,0.028980346229370065,True
44033,67125,0,67126,4236.0,43478.0,42161.0,0.017141,0.000732,-0.0048189999999999995,-0.08750000000000001,-3.43,-4.1825,0.92875,0.03346875,-0.20028125,0.9345625000000001,0.89515625,-0.45446875000000003,-0.9203125,0.8318125000000001,0.01995289715708913,0.028893347545300645,True
44034,67126,0,67127,4237.0,43479.0,42162.0,0.015921,0.003965,-0.001647,0.0,-2.9225000000000003,-4.130000000000001,0.921875,0.03521875,-0.19893750000000002,0.9375625,0.905625,-0.45365625,-0.91940625,0.832125,0.019991897939597478,0.028911954914656122,True
44035,67127,0,67128,4239.0,43481.0,42162.0,0.010065,0.005307,0.000488,0.22750000000000004,-1.8550000000000002,-3.8850000000000002,0.925125,0.03584375,-0.20228125,0.92571875,0.90175,-0.45071875,-0.9210625,0.82140625,0.019899721761758027,0.028842319624213453,True
44036,67128,0,67129,4240.0,43479.0,42164.0,-0.000305,0.003111,0.003721,0.35000000000000003,-0.6125,-3.6575,0.92540625,0.0329375,-0.1995,0.934625,0.8911875,-0.45540625,-0.92259375,0.829375,0.019968744129940593,0.029013583307315273,True
44037,67129,0,67130,4241.0,43482.0,42166.0,-0.011285,-0.000549,0.005429,0.35000000000000003,0.56,-3.5700000000000003,0.9198437500000001,0.035312500000000004,-0.20290625,0.93378125,0.90525,-0.44971875,-0.9221875,0.8356875,0.01983790713338983,0.028861080111848132,True
44038,67130,0,67131,4244.0,43482.0,42168.0,-0.023058,-0.004331,0.0032329999999999998,0.22750000000000004,1.1375000000000002,-3.325,0.92371875,0.02728125,-0.19978125,0.9306875,0.889375,-0.45284375,-0.919875,0.82828125,0.019634730623099818,0.02889636284291153,True
44039,67131,0,67132,4245.0,43482.0,42169.0,-0.013237,-0.00549,-0.00061,0.17500000000000002,0.385,-3.4475000000000002,0.95884375,0.04275,-0.19340625,0.9547187500000001,0.90740625,-0.44946875000000003,-0.91840625,0.83540625,0.02013208364701176,0.029094958671363663,True
44040,67132,0,67133,4246.0,43484.0,42170.0,-0.004514,-0.003111,-0.0040869999999999995,0.052500000000000005,-0.6125,-3.7975000000000003,0.91196875,0.028625,-0.19453125000000002,0.94121875,0.88984375,-0.45678125,-0.91753125,0.84484375,0.019847511618071165,0.029015715591808478,True
44041,67133,0,67134,4246.0,43482.0,42168.0,0.0028669999999999998,0.000305,-0.003721,0.0,-1.33,-4.130000000000001,0.92096875,0.03025,-0.20215625,0.92128125,0.8771875,-0.45478125,-0.914625,0.8296250000000001,0.019833800394350287,0.028596406728979465,True
44042,67134,0,67135,4243.0,43480.0,42162.0,0.008723,0.001281,-0.001586,0.10500000000000001,-1.6625,-4.025,0.9439062500000001,0.0395625,-0.20140625,0.94996875,0.909,-0.44946875000000003,-0.92471875,0.8327187500000001,0.02000171271615053,0.029019886132115334,True
44043,67135,0,67136,4242.0,43477.0,42153.0,0.010675,0.003111,0.00244,0.15750000000000003,-1.8200000000000003,-4.2,0.91325,0.039781250000000004,-0.20909375,0.92621875,0.889875,-0.44046875,-0.9221875,0.81734375,0.01964978679060728,0.028612807362917082,True
44044,67136,0,67137,4238.0,43476.0,42147.0,0.008723,0.003843,0.00122,0.29750000000000004,-1.9075000000000002,-4.1825,0.9230625,0.025437500000000002,-0.19593750000000001,0.9415625,0.90084375,-0.45284375,-0.91209375,0.826875,0.01955933039485438,0.028747332808989612,True
44045,67137,0,67138,4232.0,43471.0,42137.0,0.0062829999999999995,0.0026839999999999998,0.000244,0.36750000000000005,-1.54,-4.077500000000001,0.92571875,0.04040625,-0.20803125,0.9227500000000001,0.89090625,-0.45,-0.923625,0.8289375,0.020057515337423313,0.02871146352105683,True
44046,67138,0,67139,4229.0,43470.0,42132.0,0.002013,0.000183,0.00042699999999999997,0.3325,-1.1725,-4.095000000000001,0.94121875,0.03534375,-0.19521875,0.9223125,0.8995,-0.45065625000000004,-0.92134375,0.8319062500000001,0.019876767111312196,0.029136671251926375,True
44047,67139,0,67140,4224.0,43465.0,42127.0,-0.001952,-0.002013,0.000915,0.21000000000000002,-0.7000000000000001,-3.8500000000000005,0.94440625,0.0394375,-0.208625,0.923875,0.9001250000000001,-0.45165625000000004,-0.92340625,0.83178125,0.02008427343239786,0.028679115640543713,True
44048,67140,0,67141,4219.0,43463.0,42122.0,-0.009333,-0.002989,0.000732,0.12250000000000001,-0.2625,-3.7800000000000002,0.94671875,0.03809375,-0.20484375,0.92353125,0.9025,-0.44890625,-0.92228125,0.83246875,0.01991909147265023,0.02878699156001219,True
44049,67141,0,67142,4216.0,43464.0,42118.0,-0.009455,-0.001464,-0.001037,-0.0175,-0.385,-3.7275000000000005,0.9253750000000001,0.035187500000000003,-0.20021875,0.9271875,0.90171875,-0.452375,-0.9205,0.8263125,0.019939269702840726,0.028903162055335968,True
44050,67142,0,67143,4213.0,43465.0,42117.0,-0.00793,-0.000122,-6.1e-05,-0.035,-0.5950000000000001,-3.7800000000000002,0.9341875000000001,0.0369375,-0.202375,0.9343125,0.90165625,-0.4508125,-0.92078125,0.83165625,0.019948212354906406,0.028827597449417843,True
44051,67143,0,67144,4211.0,43464.0,42117.0,-0.00488,0.0011589999999999999,0.000915,-0.035,-0.9100000000000001,-3.8675,0.9323125,0.03503125,-0.20209375000000002,0.934125,0.89565625,-0.45325,-0.91896875,0.8286250000000001,0.019967949045627882,0.028768245074347224,True
44052,67144,0,67145,4210.0,43463.0,42115.0,-0.00042699999999999997,0.001769,0.000915,0.0,-1.4175000000000002,-3.9725000000000006,0.92571875,0.03240625,-0.1998125,0.9354687500000001,0.8940625,-0.454,-0.9138437500000001,0.83259375,0.01989066205937679,0.02866001959252073,True
44053,67145,0,67146,4209.0,43463.0,42116.0,0.008235,0.000976,-0.00244,0.0175,-2.345,-4.077500000000001,0.9319375,0.03546875,-0.2025,0.93425,0.900875,-0.4515,-0.9185625000000001,0.83328125,0.01991570046827393,0.028736107871391057,True
44054,67146,0,67147,4209.0,43464.0,42116.0,0.010492,0.000183,-0.0025009999999999998,-0.0175,-2.5025000000000004,-4.2,0.93025,0.03884375,-0.19290625,0.94134375,0.893875,-0.4543125,-0.91821875,0.838375,0.020166432812208483,0.029107718624550562,True
44055,67147,0,67148,4209.0,43464.0,42115.0,0.007503,-0.000549,-0.002013,-0.052500000000000005,-2.24,-4.112500000000001,0.92303125,0.035625000000000004,-0.20065625,0.929,0.8960625,-0.45096875000000003,-0.91721875,0.83559375,0.019900796364152238,0.028757724013640167,True
44056,67148,0,67149,4210.0,43467.0,42118.0,0.004209,-0.002745,-0.001769,-0.035,-1.8550000000000002,-3.9725000000000006,0.92540625,0.031125,-0.199875,0.9345,0.8936875,-0.4538125,-0.92109375,0.83265625,0.019830752362233906,0.02894009216589862,True
44057,67149,0,67150,4211.0,43469.0,42119.0,-0.002562,-0.00183,-0.000793,-0.052500000000000005,-1.33,-3.8325000000000005,0.934125,0.0350625,-0.19890625,0.9344375,0.8995625,-0.4559375,-0.9186875,0.83215625,0.02007692405985254,0.02888519911010562,True
44058,67150,0,67151,4212.0,43468.0,42123.0,-0.010369999999999999,0.002196,0.0011589999999999999,0.35000000000000003,-0.8750000000000001,-3.7275000000000005,0.92696875,0.035437500000000004,-0.199875,0.93365625,0.8914062500000001,-0.45171875,-0.92225,0.83246875,0.019923190471017503,0.028985143797209324,True
44059,67151,0,67152,4212.0,43471.0,42127.0,-0.010248,0.001403,0.004148,0.29750000000000004,-0.9450000000000001,-3.7450000000000006,0.9329375,0.03496875,-0.19365625,0.937,0.90134375,-0.4524375,-0.9188125,0.8376250000000001,0.019932828782406663,0.029100754700891143,True
44060,67152,0,67153,4216.0,43472.0,42131.0,-0.002562,-0.002013,-0.0011589999999999999,0.21000000000000002,-1.3650000000000002,-3.6575,0.92478125,0.03446875,-0.19918750000000002,0.93425,0.88928125,-0.4543125,-0.922875,0.83284375,0.019987527762230076,0.029037079389917897,True
44061,67153,0,67154,4217.0,43472.0,42132.0,0.005063,-0.001647,0.002623,0.14,-1.8725000000000003,-3.8325000000000005,0.9332812500000001,0.035500000000000004,-0.20040625,0.93475,0.9010625,-0.44825,-0.91696875,0.8250937500000001,0.01978669229903981,0.028758012549178962,True
44062,67154,0,67155,4221.0,43472.0,42132.0,0.0064659999999999995,-0.00042699999999999997,-6.1e-05,0.15750000000000003,-2.5375,-3.9375000000000004,0.92509375,0.03384375,-0.19918750000000002,0.9401875000000001,0.89390625,-0.45437500000000003,-0.92,0.832125,0.01996447465944233,0.028925060192616373,True
44063,67155,0,67156,4223.0,43473.0,42134.0,0.0068319999999999995,6.1e-05,-0.003843,0.10500000000000001,-2.7125000000000004,-3.6225000000000005,0.92678125,0.0346875,-0.20184375000000002,0.93225,0.89971875,-0.4519375,-0.91925,0.8385312500000001,0.019901285941042502,0.028789239242754096,True
44064,67156,0,67157,4223.0,43474.0,42136.0,0.003538,0.002013,-0.003477,0.15750000000000003,-2.3800000000000003,-3.6400000000000006,0.9256562500000001,0.031625,-0.19840625,0.93484375,0.8932187500000001,-0.45440625,-0.91934375,0.8319375,0.01987499696501525,0.028930838116473272,True
44065,67157,0,67158,4226.0,43477.0,42139.0,0.00061,0.000244,0.000305,0.28,-1.8725000000000003,-3.535,0.93175,0.043312500000000004,-0.19971875,0.93440625,0.89846875,-0.45184375,-0.919875,0.83334375,0.02025026231406374,0.028898870881174165,True
44066,67158,0,67159,4228.0,43475.0,42141.0,-0.001952,-0.000183,0.002013,0.42000000000000004,-1.435,-3.5875000000000004,0.92540625,0.031843750000000004,-0.19946875,0.9353750000000001,0.89396875,-0.4516875,-0.91896875,0.832125,0.019774964406853314,0.028873586512282938,True
44067,67159,0,67160,4229.0,43476.0,42140.0,-0.0011589999999999999,-0.001769,0.002989,0.24500000000000002,-1.155,-3.6400000000000006,0.9316562500000001,0.03440625,-0.19859375,0.9393750000000001,0.897375,-0.44621875,-0.91609375,0.8364375000000001,0.01966050475597581,0.02879664875237516,True
44068,67160,0,67161,4229.0,43473.0,42138.0,-0.003904,0.0028669999999999998,0.0015249999999999999,0.31500000000000006,-0.7175,-3.5525,0.9247500000000001,0.0321875,-0.202875,0.93434375,0.8932187500000001,-0.45184375,-0.9199375000000001,0.8317187500000001,0.01979528639839276,0.028774650819248647,True
44069,67161,0,67162,4229.0,43475.0,42140.0,-0.004392,0.002196,0.0035989999999999998,0.17500000000000002,-0.56,-3.6225000000000005,0.9255625000000001,0.03359375,-0.20171875,0.93715625,0.89378125,-0.4516875,-0.92,0.8366250000000001,0.019846534109353393,0.02882348515248796,True
44070,67162,0,67163,4229.0,43474.0,42141.0,-0.0026839999999999998,-0.001037,0.003294,0.10500000000000001,-0.6300000000000001,-3.4825000000000004,0.92521875,0.03296875,-0.20196875,0.93425,0.8940625,-0.4518125,-0.9248125,0.82328125,0.01982598427008223,0.02900097041853374,True
44071,67163,0,67164,4227.0,43474.0,42138.0,-0.000549,-0.002013,-0.000122,-0.035,-0.9100000000000001,-3.6750000000000003,0.933,0.031875,-0.1988125,0.93471875,0.89365625,-0.4594375,-0.921,0.8305,0.020086827426019097,0.02897907387344007,True
44072,67164,0,67165,4228.0,43474.0,42137.0,-0.00061,0.002806,-0.004514,-0.17500000000000002,-0.9625000000000001,-3.8675,0.9319375,0.03290625,-0.20153125,0.9388125,0.889375,-0.4566875,-0.9196875,0.847,0.020018808761407283,0.028818830492958632,True
44073,67165,0,67166,4227.0,43471.0,42135.0,-0.003843,0.0,-0.002928,0.15750000000000003,-0.9450000000000001,-3.6050000000000004,0.9267500000000001,0.035187500000000003,-0.198375,0.93371875,0.9111250000000001,-0.45487500000000003,-0.9191875,0.8260625,0.020039460434780387,0.028926003305685632,True
44074,67166,0,67167,4227.0,43473.0,42136.0,-0.000183,-0.002379,0.000976,0.15750000000000003,-0.8575,-3.7100000000000004,0.9245625000000001,0.035437500000000004,-0.196375,0.93859375,0.8786875000000001,-0.4493125,-0.9145,0.84546875,0.019826733369292082,0.02882357663208172,True
44075,67167,0,67168,4225.0,43474.0,42133.0,0.0017079999999999999,-0.002074,0.002013,0.15750000000000003,-1.2075,-4.0425,0.9277500000000001,0.035125,-0.19825,0.93284375,0.90934375,-0.45456250000000004,-0.91909375,0.82653125,0.020024381953265367,0.028927366188828595,True
44076,67168,0,67169,4226.0,43472.0,42132.0,0.002196,-0.001281,0.00183,0.10500000000000001,-1.2775,-3.9550000000000005,0.92596875,0.040625,-0.20153125,0.9400625,0.8770625,-0.44565625000000003,-0.9221875,0.8476250000000001,0.01989233772359865,0.028916251833832805,True
44077,67169,0,67170,4224.0,43473.0,42132.0,-0.00244,0.00042699999999999997,0.000915,0.28,-1.12,-3.9025000000000003,0.925125,0.03421875,-0.1980625,0.93621875,0.91034375,-0.45396875000000003,-0.9159375000000001,0.82046875,0.01996352841499399,0.028811879946319504,True
44078,67170,0,67171,4225.0,43473.0,42132.0,-0.001403,-0.00042699999999999997,0.000305,0.22750000000000004,-1.1025,-3.8150000000000004,0.92528125,0.034375,-0.19884375,0.9366875,0.89934375,-0.4565625,-0.917375,0.826125,0.020073855432463168,0.028836554813659147,True
44079,67171,0,67172,4225.0,43473.0,42133.0,-0.00042699999999999997,-0.000488,-0.001037,0.22750000000000004,-1.4175000000000002,-3.8325000000000005,0.9324687500000001,0.03353125,-0.19921875,0.93490625,0.90559375,-0.46034375,-0.9196875,0.8264375,0.020190844619671383,0.028911628606899668,True
44080,67172,0,67173,4223.0,43474.0,42133.0,0.002257,0.000366,-0.002257,0.15750000000000003,-1.7325000000000002,-3.9550000000000005,0.9314687500000001,0.03409375,-0.19853125,0.94003125,0.8965625,-0.45871875,-0.91940625,0.822875,0.02014874552658242,0.02892825747001897,True
44081,67173,0,67174,4225.0,43476.0,42133.0,0.00366,-0.001037,-0.002257,0.15750000000000003,-1.7675,-3.7975000000000003,0.92725,0.03478125,-0.198625,0.934625,0.90496875,-0.45140625,-0.91509375,0.8401875,0.019883825700208958,0.028756413970948833,True
44082,67174,0,67175,4225.0,43475.0,42133.0,0.0011589999999999999,-0.000976,-0.000244,0.3325,-1.2775,-3.7975000000000003,0.92484375,0.03559375,-0.2023125,0.9298125,0.88984375,-0.45075,-0.9184375,0.8365,0.019890749772501864,0.028738760205169366,True
44083,67175,0,67176,4225.0,43475.0,42135.0,0.000732,-6.1e-05,0.0011589999999999999,0.35000000000000003,-1.225,-3.8675,0.92525,0.0379375,-0.19765625,0.94184375,0.8934062500000001,-0.45228125,-0.9185625000000001,0.82746875,0.02004797609629981,0.028930491074675758,True
44084,67176,0,67177,4226.0,43476.0,42138.0,-0.000976,0.002257,-0.00061,0.29750000000000004,-1.0325000000000002,-3.99,0.92659375,0.03609375,-0.19843750000000002,0.93490625,0.88909375,-0.44778125,-0.9135625,0.8319062500000001,0.019792184617980418,0.02870424492683453,True
44085,67177,0,67178,4227.0,43475.0,42137.0,-0.00244,0.001281,0.001952,0.21000000000000002,-0.5950000000000001,-3.9375000000000004,0.93140625,0.03309375,-0.19943750000000002,0.9340625,0.89925,-0.45284375,-0.922,0.83209375,0.01987243303756848,0.028992958029050636,True
44086,67178,0,67179,4228.0,43477.0,42141.0,-0.006405,0.0008539999999999999,0.0046359999999999995,0.28,-0.56,-3.9200000000000004,0.92590625,0.03359375,-0.19959375000000001,0.9381875000000001,0.89346875,-0.451875,-0.92125,0.8405625,0.019854050047286763,0.02895746601795656,True
44087,67179,0,67180,4231.0,43478.0,42142.0,-0.002928,-0.0006709999999999999,0.001098,0.29750000000000004,-1.155,-3.9550000000000005,0.9250625,0.03440625,-0.19843750000000002,0.94040625,0.89365625,-0.45228125,-0.9188125,0.8373125,0.019903562167640294,0.02890888159297318,True
44088,67180,0,67181,4232.0,43478.0,42142.0,0.001952,-0.00061,-0.0011589999999999999,0.15750000000000003,-1.5925000000000002,-3.9375000000000004,0.9308125,0.0349375,-0.1978125,0.935,0.90184375,-0.45278125,-0.9155625000000001,0.8226875,0.01994532830493464,0.02880729664441652,True
44089,67181,0,67182,4235.0,43478.0,42144.0,0.0046359999999999995,0.000488,-0.004697,0.08750000000000001,-2.1,-3.9200000000000004,0.9298125,0.039125,-0.19903125,0.9318125,0.8991250000000001,-0.45571875,-0.92171875,0.83440625,0.02023427546982237,0.028998300929786395,True
44090,67182,0,67183,4236.0,43480.0,42146.0,0.006527,-0.001769,-0.005063,0.07,-2.2925000000000004,-3.9375000000000004,0.92509375,0.03475,-0.2031875,0.94146875,0.8941875,-0.4495,-0.9220625,0.8343125,0.019806131004724024,0.02884492405072815,True
44091,67183,0,67184,4238.0,43480.0,42147.0,0.008296,-0.001952,-0.002623,0.12250000000000001,-2.0650000000000004,-3.99,0.92725,0.03340625,-0.19384375,0.93334375,0.8956875,-0.45356250000000004,-0.91678125,0.835125,0.019914020707616734,0.02901408062086671,True
44092,67184,0,67185,4239.0,43480.0,42149.0,-0.000366,0.000915,0.0011589999999999999,0.385,-1.3125000000000002,-3.7800000000000002,0.92715625,0.03759375,-0.19684375,0.9380000000000001,0.9023125000000001,-0.4529375,-0.91178125,0.82946875,0.020060217714129434,0.028698770787416093,True
44093,67185,0,67186,4241.0,43480.0,42150.0,-0.004331,0.001464,0.003721,0.47250000000000003,-0.7525000000000001,-3.7100000000000004,0.9368125,0.035312500000000004,-0.196125,0.94503125,0.9009375000000001,-0.45234375,-0.91828125,0.83728125,0.01994312917345602,0.028980981583551235,True
44094,67186,0,67187,4243.0,43482.0,42151.0,-0.006588,0.002196,0.002928,0.45500000000000007,-0.45500000000000007,-3.9025000000000003,0.92371875,0.03571875,-0.19818750000000002,0.94753125,0.89390625,-0.45265625,-0.92121875,0.838,0.019972267839000107,0.02901267619586221,True
44095,67187,0,67188,4243.0,43481.0,42153.0,-0.005246,0.000793,0.0021349999999999997,0.43750000000000006,-0.5075000000000001,-3.9200000000000004,0.922875,0.03490625,-0.201625,0.9433125,0.89409375,-0.45256250000000003,-0.92153125,0.83878125,0.019935282856346857,0.028886918816435084,True
44096,67188,0,67189,4241.0,43484.0,42155.0,-0.0051849999999999995,0.001281,0.000488,0.35000000000000003,-0.6125,-4.025,0.92034375,0.03596875,-0.20071875,0.93040625,0.8940625,-0.4531875,-0.92090625,0.83378125,0.020003782737935495,0.028898928986581293,True
44097,67189,0,67190,4245.0,43480.0,42156.0,-0.0006709999999999999,-0.003355,-0.000915,0.385,-1.0850000000000002,-4.095000000000001,0.92121875,0.0368125,-0.2041875,0.9303125,0.8942187500000001,-0.4523125,-0.92096875,0.8319375,0.02000322055429318,0.028762174423897547,True
44098,67190,0,67191,4246.0,43479.0,42155.0,0.00366,-0.0032329999999999998,-0.000488,0.3325,-1.4175000000000002,-4.165,0.92584375,0.028375,-0.19365625,0.93053125,0.89396875,-0.4556875,-0.9184687500000001,0.83221875,0.01979345295445078,0.029087361156571876,True
44099,67191,0,67192,4243.0,43480.0,42149.0,0.004209,-0.0018909999999999999,-0.001769,0.31500000000000006,-1.5750000000000002,-4.235,0.936125,0.02640625,-0.19853125,0.9303750000000001,0.89709375,-0.45428125,-0.91840625,0.8308125000000001,0.01965657853877836,0.02888928741179023,True
44100,67192,0,67193,4244.0,43479.0,42143.0,0.004026,-0.000122,-0.0013419999999999999,0.36750000000000005,-1.5050000000000001,-4.1475,0.921375,0.03021875,-0.20059375000000002,0.9432812500000001,0.8932187500000001,-0.4535,-0.92015625,0.8331875,0.019781166295213367,0.02887471863263297,True
44101,67193,0,67194,4239.0,43477.0,42136.0,0.002013,0.000549,-0.00061,0.385,-1.5050000000000001,-4.1825,0.9238125,0.03540625,-0.200625,0.932625,0.89384375,-0.45234375,-0.9146562500000001,0.835,0.019946963161762355,0.028659084951252342,True
44102,67194,0,67195,4233.0,43474.0,42131.0,-0.001586,0.0013419999999999999,0.002196,0.49000000000000005,-1.4000000000000001,-4.0075,0.9209375,0.03596875,-0.1993125,0.94146875,0.89378125,-0.45271875,-0.9206875,0.83534375,0.019984996555853323,0.028946833830326712,True
44103,67195,0,67196,4230.0,43472.0,42126.0,-0.000244,0.00244,0.00183,0.56,-1.54,-3.8675,0.92409375,0.03521875,-0.200375,0.93625,0.89409375,-0.4521875,-0.92003125,0.8343125,0.019933032576328807,0.028878625503328773,True
44104,67196,0,67197,4227.0,43467.0,42120.0,-0.00042699999999999997,0.0026839999999999998,0.0015249999999999999,0.5775,-1.61,-4.0600000000000005,0.9253750000000001,0.031593750000000004,-0.201625,0.9344375,0.89409375,-0.45184375,-0.9185625000000001,0.83215625,0.019771003975927175,0.02877122225650055,True
44105,67197,0,67198,4219.0,43467.0,42115.0,-0.000732,0.000915,0.000549,0.5075000000000001,-1.5750000000000002,-4.0425,0.91978125,0.0319375,-0.20196875,0.92996875,0.89428125,-0.45228125,-0.9221875,0.83234375,0.019802600217515495,0.028898697195019498,True
44106,67198,0,67199,4217.0,43466.0,42111.0,-0.0018909999999999999,-0.000488,0.001403,0.45500000000000007,-1.5750000000000002,-3.9375000000000004,0.9295,0.032125,-0.19940625,0.93465625,0.88215625,-0.45721875,-0.9265625000000001,0.8270937500000001,0.02000815198989051,0.02917194258133267,True
44107,67199,0,67200,4213.0,43465.0,42106.0,-0.001647,-0.000915,-0.00061,0.2625,-1.6975000000000002,-4.0425,0.93090625,0.0331875,-0.19796875,0.93375,0.88671875,-0.4608125,-0.92484375,0.8190625,0.02019556791091874,0.029162670277521795,True
44108,67200,0,67201,4210.0,43466.0,42104.0,-0.003172,-0.001586,-0.00183,0.1925,-2.0300000000000002,-3.9550000000000005,0.9273750000000001,0.03421875,-0.1985,0.94125,0.887,-0.4605,-0.91803125,0.82121875,0.02022521003250138,0.028875926945472467,True
44109,67201,0,67202,4210.0,43463.0,42103.0,-0.001464,-0.001464,-0.0011589999999999999,0.385,-2.1,-3.9200000000000004,0.92859375,0.0348125,-0.19990625,0.9425625,0.91390625,-0.45584375,-0.91034375,0.8358125000000001,0.020062945078310784,0.028519779057645484,True
44110,67202,0,67203,4209.0,43463.0,42102.0,0.001037,-0.0018909999999999999,-0.001281,0.28,-2.2750000000000004,-4.077500000000001,0.925625,0.03475,-0.20134375000000002,0.9353750000000001,0.91346875,-0.45053125,-0.914125,0.8471875,0.019847472639270364,0.028609523713957443,True
44111,67203,0,67204,4208.0,43463.0,42104.0,0.003843,-0.001281,-0.002745,0.17500000000000002,-2.6075000000000004,-4.025,0.9251875,0.03540625,-0.20025,0.93434375,0.912,-0.44965625000000004,-0.9168437500000001,0.85490625,0.01983923598107847,0.028759410990808174,True
44112,67204,0,67205,4208.0,43463.0,42102.0,0.0059169999999999995,0.00244,-0.000976,0.1925,-2.5375,-3.8500000000000005,0.9154375,0.031375,-0.19903125,0.9350625,0.88034375,-0.45546875000000003,-0.9245,0.82640625,0.019907357122320543,0.029106652089309716,True
44113,67205,0,67206,4209.0,43466.0,42105.0,0.004026,0.002562,0.001281,0.45500000000000007,-2.2575000000000003,-4.0075,0.93284375,0.0348125,-0.1978125,0.9351875000000001,0.8770625,-0.45484375,-0.92178125,0.824625,0.020022873791618483,0.029049639058203357,True
44114,67206,0,67207,4208.0,43466.0,42109.0,-6.1e-05,0.000488,0.002074,0.5950000000000001,-1.8900000000000001,-3.9200000000000004,0.92834375,0.031281250000000003,-0.20040625,0.9343750000000001,0.8716875000000001,-0.45690625,-0.9231875,0.8349062500000001,0.01996113061111317,0.029000353586394197,True
44115,67207,0,67208,4211.0,43465.0,42109.0,-0.002196,-0.000183,0.001952,0.6300000000000001,-1.7325000000000002,-3.7100000000000004,0.92584375,0.031343750000000004,-0.19446875,0.9339375,0.88096875,-0.4541875,-0.92553125,0.8248125000000001,0.01985472835685095,0.029329866339358367,True
44116,67208,0,67209,4212.0,43469.0,42112.0,-0.0032329999999999998,0.001586,-0.000183,0.7175,-1.6625,-3.6575,0.9265,0.03671875,-0.19903125,0.928125,0.88084375,-0.46009375,-0.92225,0.82121875,0.020311144555609076,0.029018999087161074,True
44117,67209,0,67210,4212.0,43467.0,42113.0,-0.005246,-0.002013,0.00244,0.7525000000000001,-1.7675,-3.6400000000000006,0.928625,0.03203125,-0.20021875,0.93365625,0.89003125,-0.45684375,-0.9206875,0.82825,0.019989292363206106,0.028910468461193134,True
44118,67210,0,67211,4215.0,43469.0,42117.0,-0.0044529999999999995,-0.002074,0.0015249999999999999,0.665,-1.8200000000000003,-3.6050000000000004,0.92359375,0.0323125,-0.20115625,0.93396875,0.8899375,-0.4536875,-0.917,0.83146875,0.019874303210916554,0.02872913071397038,True
44119,67211,0,67212,4216.0,43470.0,42116.0,-0.001586,6.1e-05,0.000976,0.5950000000000001,-2.0125,-3.6575,0.92609375,0.034375,-0.1985625,0.93434375,0.8911875,-0.45434375,-0.922625,0.83184375,0.019984946437174377,0.029052417231330972,True
44120,67212,0,67213,4219.0,43472.0,42124.0,6.1e-05,0.001037,0.000915,0.6475000000000001,-2.3625000000000003,-3.7275000000000005,0.926125,0.03103125,-0.20175,0.9336875,0.8935625,-0.45528125,-0.91921875,0.83121875,0.0198857864290561,0.028791783450273698,True
44121,67213,0,67214,4220.0,43472.0,42123.0,0.00042699999999999997,0.0015249999999999999,0.000122,0.6475000000000001,-2.6425,-3.7975000000000003,0.93,0.031125,-0.19821875,0.933625,0.9001250000000001,-0.45428125,-0.91853125,0.8327187500000001,0.019849540660697194,0.028906699707672377,True
44122,67214,0,67215,4222.0,43475.0,42126.0,0.0028669999999999998,-0.002074,6.1e-05,0.5950000000000001,-3.0450000000000004,-3.8150000000000004,0.9302812500000001,0.033875,-0.198,0.9360937500000001,0.90078125,-0.45296875000000003,-0.91771875,0.8326250000000001,0.01990939239228366,0.028883813852341518,True
44123,67215,0,67216,4222.0,43473.0,42126.0,0.0023179999999999997,-0.00122,-0.002745,0.525,-2.9400000000000004,-3.8500000000000005,0.93140625,0.0345,-0.19743750000000002,0.9345,0.901375,-0.45206250000000003,-0.918,0.83359375,0.019898628183205404,0.028917348904406455,True
44124,67216,0,67217,4223.0,43471.0,42122.0,0.00122,-0.001952,-0.002379,0.45500000000000007,-2.8350000000000004,-3.8850000000000002,0.9306562500000001,0.03371875,-0.19843750000000002,0.9394687500000001,0.8928125,-0.45403125,-0.9175625000000001,0.8400625,0.019945586681132586,0.028860166398699715,True
44125,67217,0,67218,4224.0,43472.0,42122.0,-0.0011589999999999999,-0.0028669999999999998,-0.001281,0.42000000000000004,-2.765,-3.9725000000000006,0.925125,0.03628125,-0.194,0.93353125,0.8893125000000001,-0.45334375,-0.9199375000000001,0.8255625,0.020022824076973113,0.029130791359328254,True
44126,67218,0,67219,4225.0,43472.0,42121.0,0.000244,-0.0013419999999999999,-0.001281,0.36750000000000005,-2.7825,-3.9375000000000004,0.92684375,0.029750000000000002,-0.1985625,0.9334375,0.89315625,-0.4565625,-0.9156562500000001,0.8306250000000001,0.019884744636536715,0.028780849390631646,True
44127,67219,0,67220,4225.0,43473.0,42120.0,0.003477,0.000366,-0.000488,0.4025,-2.765,-3.99,0.943125,0.035500000000000004,-0.19959375000000001,0.948875,0.8995,-0.45221875,-0.92025,0.8324375,0.019945787128213058,0.028918500015048004,True
44128,67220,0,67221,4221.0,43472.0,42120.0,0.003904,0.001281,0.000122,0.42000000000000004,-2.5725000000000002,-4.025,0.91025,0.0275625,-0.19918750000000002,0.928125,0.893875,-0.45734375,-0.9188125,0.836125,0.019826611383339614,0.028878783850554673,True
44129,67221,0,67222,4221.0,43472.0,42117.0,0.003904,0.0015249999999999999,0.00183,0.49000000000000005,-2.5025000000000004,-4.1475,0.9354375,0.03625,-0.20550000000000002,0.927625,0.89684375,-0.45315625,-0.92196875,0.82996875,0.02001403193094961,0.028748481196935936,True
44130,67222,0,67223,4220.0,43468.0,42112.0,0.004514,0.000305,0.0006709999999999999,0.49000000000000005,-2.2750000000000004,-4.112500000000001,0.93275,0.02815625,-0.19640625,0.92821875,0.8999375000000001,-0.4529375,-0.9184375,0.8286875,0.01967427226279051,0.028975783493648027,True
44131,67223,0,67224,4218.0,43471.0,42113.0,0.0026839999999999998,0.000305,6.1e-05,0.1925,-1.9775000000000003,-4.0600000000000005,0.9352812500000001,0.0321875,-0.19646875,0.93315625,0.89971875,-0.453,-0.91828125,0.83675,0.01984163497321392,0.028967186490841942,True
44132,67224,0,67225,4217.0,43467.0,42111.0,-0.001281,-0.0025009999999999998,-0.00061,0.28,-1.4000000000000001,-3.8325000000000005,0.94215625,0.03321875,-0.1950625,0.9490625,0.89859375,-0.45309375,-0.91903125,0.8395,0.019887565351521218,0.029052844901424485,True
44133,67225,0,67226,4217.0,43471.0,42111.0,-0.0023179999999999997,-0.002379,-0.000549,0.28,-1.2425000000000002,-3.7975000000000003,0.91878125,0.029,-0.20103125,0.928875,0.89346875,-0.45465625,-0.9168437500000001,0.82534375,0.0197776752637854,0.0287280566985937,True
44134,67226,0,67227,4215.0,43469.0,42111.0,-0.0034159999999999998,0.0,-0.002013,0.43750000000000006,-1.0325000000000002,-3.7625,0.94103125,0.02384375,-0.19428125000000002,0.9268125,0.8991875,-0.453625,-0.918375,0.83109375,0.019525479351220933,0.029058626415245776,True
44135,67227,0,67228,4218.0,43472.0,42114.0,-0.004331,0.0008539999999999999,-6.1e-05,0.49000000000000005,-0.77,-3.6750000000000003,0.91878125,0.034625,-0.20278125,0.93384375,0.9000625,-0.45459375,-0.9150312500000001,0.8308125000000001,0.020005188186779835,0.028587160612130482,True
44136,67228,0,67229,4217.0,43472.0,42111.0,-0.0042699999999999995,0.003172,0.004331,0.525,-0.77,-3.6750000000000003,0.921625,0.0363125,-0.195875,0.93121875,0.89425,-0.45353125,-0.91821875,0.83825,0.020031616088167226,0.028988578888689623,True
44137,67229,0,67230,4215.0,43474.0,42113.0,-0.001098,0.003355,0.005612,0.7350000000000001,-1.3650000000000002,-3.9025000000000003,0.93603125,0.0320625,-0.195875,0.92784375,0.9,-0.45328125,-0.9159375000000001,0.82665625,0.019847796499702877,0.02889967515771783,True
44138,67230,0,67231,4217.0,43472.0,42115.0,0.00183,0.000976,0.002928,0.5950000000000001,-1.7325000000000002,-3.7450000000000006,0.92134375,0.034625,-0.20015625,0.93953125,0.89475,-0.45578125,-0.9204375,0.8336250000000001,0.02005277382009622,0.028903234543936077,True
44139,67231,0,67232,4216.0,43472.0,42116.0,0.002196,-0.001098,-0.00042699999999999997,0.5075000000000001,-1.9600000000000002,-3.6050000000000004,0.9289375,0.0345625,-0.19971875,0.9339375,0.8939375,-0.45353125,-0.91240625,0.829875,0.01996005178188733,0.0286077343492261,True
44140,67232,0,67233,4216.0,43473.0,42120.0,0.003477,6.1e-05,-0.0028669999999999998,0.5075000000000001,-2.0650000000000004,-3.6925000000000003,0.926625,0.03109375,-0.19959375000000001,0.9344687500000001,0.89975,-0.456,-0.9228125,0.831125,0.01991714712136081,0.029018344137524608,True
44141,67233,0,67234,4218.0,43473.0,42119.0,0.002623,-0.0030499999999999998,-0.001952,0.45500000000000007,-1.8025000000000002,-3.9550000000000005,0.925125,0.03659375,-0.201125,0.9394687500000001,0.8943125000000001,-0.4563125,-0.918875,0.8256875,0.020154561322357982,0.02880346725123024,True
44142,67234,0,67235,4220.0,43474.0,42119.0,-0.0030499999999999998,-0.003904,-0.00122,0.36750000000000005,-1.5925000000000002,-4.0425,0.9261875,0.03475,-0.19959375000000001,0.94171875,0.89459375,-0.45306250000000003,-0.9206562500000001,0.836875,0.01994893277682499,0.028934330330887655,True
44143,67235,0,67236,4221.0,43476.0,42126.0,-0.0073809999999999995,0.00061,-0.00122,0.45500000000000007,-1.5050000000000001,-3.9375000000000004,0.9251875,0.034625,-0.2001875,0.9395625,0.8939375,-0.45275,-0.92071875,0.8336875,0.01993129607099406,0.02891294016148712,True
44144,67236,0,67237,4223.0,43475.0,42126.0,-0.005795,0.002745,0.001586,0.525,-1.8025000000000002,-3.8500000000000005,0.92525,0.03365625,-0.19915625,0.93440625,0.8939375,-0.45306250000000003,-0.91925,0.8327187500000001,0.01990420422799803,0.028897087592925145,True
44145,67237,0,67238,4223.0,43475.0,42125.0,-0.002745,0.001281,0.00122,0.43750000000000006,-2.1350000000000002,-4.130000000000001,0.92578125,0.03453125,-0.20178125,0.93403125,0.89409375,-0.44906250000000003,-0.9185625000000001,0.83146875,0.019779643902501375,0.028764951830588144,True
44146,67238,0,67239,4224.0,43475.0,42130.0,0.0070149999999999995,-0.00061,-0.001403,0.49000000000000005,-2.765,-3.8325000000000005,0.9246875,0.03425,-0.20046875,0.93940625,0.89328125,-0.452375,-0.92103125,0.83846875,0.01990092986877553,0.02891383156545739,True
44147,67239,0,67240,4226.0,43477.0,42131.0,0.010187,0.0011589999999999999,0.000183,0.45500000000000007,-2.8350000000000004,-3.9725000000000006,0.925125,0.03465625,-0.19796875,0.940125,0.8940625,-0.45465625,-0.917625,0.8378125000000001,0.020008970684263862,0.028881414259986655,True
44148,67240,0,67241,4227.0,43478.0,42131.0,0.008723,0.000366,0.00122,0.42000000000000004,-2.7825,-4.0425,0.92203125,0.033875,-0.1973125,0.943875,0.896625,-0.4536875,-0.9133125,0.83734375,0.01993819950467593,0.028739654752855524,True
44149,67241,0,67242,4230.0,43477.0,42131.0,0.004209,0.000915,-0.000244,0.5075000000000001,-2.3275,-3.7800000000000002,0.93390625,0.035,-0.198625,0.9346875,0.8964062500000001,-0.4526875,-0.9186875,0.8319375,0.01994412679587878,0.028896485820129974,True
44150,67242,0,67243,4228.0,43478.0,42135.0,-0.00122,0.0011589999999999999,0.001098,0.49000000000000005,-1.6975000000000002,-3.6925000000000003,0.9120625,0.031406250000000004,-0.20053125,0.9343125,0.89359375,-0.4539375,-0.9214687500000001,0.8315,0.0198472638608813,0.028928371246177056,True
44151,67243,0,67244,4231.0,43480.0,42135.0,-0.007686,-0.002379,-0.00042699999999999997,0.56,-1.2775,-3.7275000000000005,0.925875,0.03615625,-0.2015625,0.93425,0.89465625,-0.4565625,-0.92153125,0.829875,0.020146688644407815,0.028889426688017014,True
44152,67244,0,67245,4231.0,43479.0,42136.0,-0.004392,-0.002074,0.0013419999999999999,0.49000000000000005,-1.3125000000000002,-3.6400000000000006,0.91990625,0.0315,-0.20128125,0.9311875000000001,0.8885625,-0.45571875,-0.92228125,0.83103125,0.019922487455004776,0.028929935938348344,True
44153,67245,0,67246,4231.0,43480.0,42135.0,-0.002745,-0.000305,-0.00183,0.43750000000000006,-1.3825,-3.7450000000000006,0.92559375,0.0316875,-0.197875,0.9343750000000001,0.8941250000000001,-0.45537500000000003,-0.92215625,0.83084375,0.019916378301293683,0.029061740996026375,True
44154,67246,0,67247,4232.0,43480.0,42133.0,-0.0028669999999999998,-0.0021349999999999997,-0.000976,0.4025,-1.2425000000000002,-3.8850000000000002,0.927875,0.0339375,-0.1968125,0.9390937500000001,0.8935625,-0.45434375,-0.9181875,0.83709375,0.019967055955038664,0.028949738017662808,True
44155,67247,0,67248,4231.0,43478.0,42128.0,-0.0008539999999999999,-0.00042699999999999997,-0.000732,0.385,-1.2950000000000002,-3.7800000000000002,0.9255,0.03428125,-0.20028125,0.92996875,0.8951250000000001,-0.4531875,-0.9200625,0.83075,0.019934773329652832,0.028883605328036396,True
44156,67248,0,67249,4225.0,43475.0,42119.0,0.0028669999999999998,0.0017079999999999999,0.001098,0.31500000000000006,-1.5925000000000002,-4.0425,0.926,0.0316875,-0.19765625,0.92509375,0.89446875,-0.45640625,-0.91840625,0.8320625,0.019957705355830847,0.028924402017083257,True
44157,67249,0,67250,4222.0,43470.0,42112.0,0.0034159999999999998,0.0018909999999999999,0.001647,0.45500000000000007,-1.8200000000000003,-4.112500000000001,0.92996875,0.0335,-0.198,0.93478125,0.89928125,-0.45421875,-0.91759375,0.8316250000000001,0.019944155852453883,0.028878942213270493,True
44158,67250,0,67251,4217.0,43469.0,42103.0,0.002257,0.0034159999999999998,0.001037,0.43750000000000006,-2.1,-4.095000000000001,0.9262812500000001,0.033625,-0.1985,0.9383125,0.89384375,-0.45637500000000003,-0.92259375,0.838125,0.020035675769610174,0.029053707541976843,True
44159,67251,0,67252,4209.0,43467.0,42097.0,0.00183,0.0011589999999999999,0.001098,0.4025,-2.0125,-3.9550000000000005,0.9284375,0.0329375,-0.19875,0.93434375,0.9002187500000001,-0.4574375,-0.92090625,0.8298125000000001,0.020050138122605855,0.028977928922628966,True
44160,67252,0,67253,4205.0,43462.0,42088.0,0.00366,-0.0011589999999999999,0.000976,0.3325,-2.1350000000000002,-3.8850000000000002,0.9263750000000001,0.034625,-0.19921875,0.93471875,0.88871875,-0.45246875000000003,-0.92221875,0.83909375,0.019920023412768904,0.02901025816571809,True
44161,67253,0,67254,4198.0,43460.0,42084.0,-0.000244,0.000122,-0.002989,0.22750000000000004,-1.9600000000000002,-3.9200000000000004,0.926125,0.0341875,-0.20134375000000002,0.9332812500000001,0.88353125,-0.45140625,-0.91921875,0.8338125000000001,0.019859542843266936,0.028808086128302074,True
44162,67254,0,67255,4193.0,43459.0,42082.0,-0.002562,-0.0011589999999999999,-0.0008539999999999999,0.28,-1.8725000000000003,-3.7975000000000003,0.9261875,0.03628125,-0.19384375,0.96015625,0.8885625,-0.45178125,-0.9205625000000001,0.84590625,0.019960202285876413,0.02916141038148718,True
44163,67255,0,67256,4193.0,43458.0,42077.0,-0.003111,-0.000244,-0.000183,0.31500000000000006,-1.7850000000000001,-3.8150000000000004,0.9374375,0.03559375,-0.196,0.95734375,0.8944062500000001,-0.45359375,-0.920875,0.84284375,0.020004728343865612,0.029087060546630083,True
44164,67256,0,67257,4188.0,43457.0,42078.0,-0.004026,-0.000366,0.00042699999999999997,0.35000000000000003,-1.61,-3.9375000000000004,0.9323750000000001,0.035187500000000003,-0.19375,0.92725,0.8892187500000001,-0.4524375,-0.9148125,0.8423125,0.01994177472082282,0.02894111685568575,True
44165,67257,0,67258,4188.0,43458.0,42077.0,-0.003294,-6.1e-05,0.001586,0.47250000000000003,-1.715,-4.0075,0.9364687500000001,0.02453125,-0.1993125,0.92328125,0.90553125,-0.4555,-0.91621875,0.8286250000000001,0.019628764490605386,0.028772674425167344,True
44166,67258,0,67259,4187.0,43458.0,42075.0,-0.0026839999999999998,0.000549,0.000915,0.385,-2.1525000000000003,-4.0075,0.91609375,0.030375,-0.20665625,0.9394687500000001,0.89353125,-0.45721875,-0.91971875,0.828375,0.019936598473610168,0.028614387953315085,True
44167,67259,0,67260,4187.0,43459.0,42078.0,0.000915,-0.0006709999999999999,0.0,0.3325,-2.6250000000000004,-3.8850000000000002,0.917125,0.03821875,-0.20384375000000002,0.92796875,0.88953125,-0.45621875,-0.9246875,0.82825,0.020217250469269702,0.028920874133326644,True
44168,67260,0,67261,4186.0,43460.0,42080.0,0.003843,-0.000366,-0.000183,0.29750000000000004,-2.9575000000000005,-4.0425,0.91240625,0.0279375,-0.20809375,0.93203125,0.88990625,-0.45978125000000003,-0.91940625,0.82796875,0.01993962026949853,0.028544520397631865,True
44169,67261,0,67262,4187.0,43461.0,42083.0,0.007259,0.000244,-0.00061,0.385,-3.3600000000000003,-4.0425,0.91225,0.02396875,-0.21103125,0.92378125,0.8892187500000001,-0.45515625,-0.91821875,0.8288125000000001,0.0195919827745938,0.02838033918455748,True
44170,67262,0,67263,4189.0,43459.0,42084.0,0.007137,-0.001281,-0.001769,0.2625,-3.5000000000000004,-4.0600000000000005,0.9139375000000001,0.02484375,-0.19946875,0.92209375,0.89196875,-0.4568125,-0.9170625,0.8304375,0.019694154747271337,0.02879929165004904,True
44171,67263,0,67264,4191.0,43461.0,42085.0,0.002013,0.0,-0.003172,0.4025,-2.8525000000000005,-4.0075,0.9356875,0.02728125,-0.19421875,0.93703125,0.89853125,-0.4468125,-0.9148437500000001,0.8386250000000001,0.019392865634323492,0.028923520742529244,True
44172,67264,0,67265,4191.0,43464.0,42088.0,0.000122,-0.000549,-0.0030499999999999998,0.45500000000000007,-2.5200000000000005,-3.9025000000000003,0.94546875,0.029343750000000002,-0.19596875,0.9239375,0.9000312500000001,-0.45384375,-0.91834375,0.823875,0.01975916362841731,0.028989687567015768,True
44173,67265,0,67266,4194.0,43466.0,42094.0,-0.003477,-0.0006709999999999999,-0.001281,0.6475000000000001,-2.205,-3.8325000000000005,0.93009375,0.026875,-0.19578125000000002,0.92696875,0.90159375,-0.4584375,-0.9156562500000001,0.83228125,0.019842334572680694,0.028892475990874213,True
44174,67266,0,67267,4194.0,43465.0,42097.0,-0.0035989999999999998,-0.001586,0.001464,0.7000000000000001,-2.1525000000000003,-3.8850000000000002,0.92459375,0.034375,-0.19728125,0.9313750000000001,0.9001250000000001,-0.45240625,-0.9176875,0.83278125,0.019907294399707596,0.028911440919226556,True
44175,67267,0,67268,4198.0,43468.0,42100.0,-0.002928,0.0,0.0018909999999999999,0.6825000000000001,-2.1875,-3.7975000000000003,0.92603125,0.0308125,-0.19665625,0.92990625,0.89825,-0.45678125,-0.9138437500000001,0.8320000000000001,0.019936955113420744,0.028786706186194173,True
44176,67268,0,67269,4198.0,43470.0,42102.0,0.000488,0.00244,0.003111,0.665,-2.2750000000000004,-3.9200000000000004,0.92859375,0.0366875,-0.19903125,0.93484375,0.8931250000000001,-0.4575,-0.922,0.82484375,0.02020596953899622,0.02900925888772972,True
44177,67269,0,67270,4200.0,43471.0,42106.0,0.000122,0.000732,0.001586,0.5950000000000001,-2.2225,-4.0600000000000005,0.93134375,0.031968750000000004,-0.19040625,0.9322812500000001,0.89315625,-0.4561875,-0.9186875,0.8325625,0.01996043945933928,0.029226308568619432,True
44178,67270,0,67271,4202.0,43471.0,42107.0,6.1e-05,0.000732,-0.000183,0.5425000000000001,-2.2575000000000003,-3.9550000000000005,0.93275,0.03359375,-0.19765625,0.94196875,0.902375,-0.45446875000000003,-0.915125,0.8377187500000001,0.019958008697285645,0.028796514165592185,True
44179,67271,0,67272,4203.0,43474.0,42107.0,-0.000305,0.00061,-0.002074,0.56,-2.3975000000000004,-4.0600000000000005,0.92525,0.03421875,-0.1970625,0.93471875,0.8940625,-0.45265625,-0.92015625,0.8323125,0.019910924810060255,0.02901642119519214,True
44180,67272,0,67273,4202.0,43471.0,42108.0,0.0011589999999999999,-0.001281,-0.00042699999999999997,0.47250000000000003,-2.345,-3.9025000000000003,0.93296875,0.03040625,-0.19768750000000002,0.9398125,0.89378125,-0.45671875,-0.91690625,0.8315625,0.019917839550736952,0.02886468901009731,True
44181,67273,0,67274,4202.0,43475.0,42106.0,0.0023179999999999997,-0.002196,-0.000732,0.43750000000000006,-2.3975000000000004,-3.8500000000000005,0.9272812500000001,0.0339375,-0.2006875,0.933125,0.9000312500000001,-0.4538125,-0.9168437500000001,0.837375,0.019945765103089753,0.02874185258716807,True
44182,67274,0,67275,4203.0,43471.0,42103.0,0.000915,-0.000122,-0.0011589999999999999,0.385,-2.2575000000000003,-3.8675,0.9245,0.030875,-0.19778125,0.9409375,0.8941875,-0.45425,-0.9180625,0.83103125,0.01983806495803388,0.02890598938019358,True
44183,67275,0,67276,4202.0,43472.0,42103.0,0.000732,-0.000122,0.000183,0.36750000000000005,-1.9775000000000003,-3.8850000000000002,0.9275625000000001,0.03371875,-0.20009375000000001,0.9388125,0.9006875,-0.454,-0.9168125,0.83784375,0.019944334260243723,0.028764463753138573,True
44184,67276,0,67277,4202.0,43472.0,42101.0,0.000366,0.000976,0.000366,0.385,-1.8900000000000001,-3.8325000000000005,0.92528125,0.03115625,-0.198125,0.93925,0.8933125000000001,-0.45590625,-0.91896875,0.8309062500000001,0.01991594566241028,0.02892751129598812,True
44185,67277,0,67278,4199.0,43473.0,42099.0,-0.000305,0.001586,0.0018909999999999999,0.385,-1.7675,-3.8500000000000005,0.9283750000000001,0.0338125,-0.2013125,0.9338125,0.90153125,-0.45371875,-0.921125,0.8335625,0.019936896100925347,0.028883627845853667,True
44186,67278,0,67279,4197.0,43470.0,42099.0,-0.003111,0.0023179999999999997,-0.000793,0.35000000000000003,-1.5925000000000002,-3.7100000000000004,0.9312812500000001,0.033875,-0.1975625,0.94165625,0.89384375,-0.45828125000000003,-0.91746875,0.83321875,0.020122274536359747,0.02889162848854782,True
44187,67279,0,67280,4195.0,43471.0,42099.0,-0.003477,-6.1e-05,-0.0013419999999999999,0.525,-1.5925000000000002,-3.5875000000000004,0.9260625,0.03378125,-0.20015625,0.93378125,0.89415625,-0.4543125,-0.91734375,0.835875,0.019959414111519184,0.028782662678480727,True
44188,67280,0,67281,4195.0,43470.0,42096.0,0.000305,-0.0023179999999999997,0.001647,0.5075000000000001,-1.8200000000000003,-3.7100000000000004,0.922875,0.0344375,-0.19759375,0.94165625,0.88409375,-0.45303125,-0.91553125,0.83196875,0.01993490070888451,0.028814858202150514,True
44189,67281,0,67282,4195.0,43468.0,42094.0,0.00122,-0.001464,-0.0013419999999999999,0.47250000000000003,-2.0125,-3.7800000000000002,0.9294687500000001,0.03884375,-0.197625,0.93396875,0.89925,-0.45406250000000004,-0.9175,0.831375,0.020156415728470475,0.028890338115782083,True
44190,67282,0,67283,4193.0,43467.0,42097.0,0.002806,-0.0006709999999999999,0.0,0.35000000000000003,-1.9250000000000003,-3.7800000000000002,0.9333125,0.029500000000000002,-0.19840625,0.9344375,0.9006875,-0.45687500000000003,-0.91809375,0.8320000000000001,0.019887046076001128,0.02888212506223515,True
44191,67283,0,67284,4194.0,43471.0,42099.0,0.0,0.001586,0.001281,0.49000000000000005,-1.7850000000000001,-3.7275000000000005,0.91978125,0.03340625,-0.19718750000000002,0.934,0.88665625,-0.44759375,-0.9175,0.83128125,0.01967473792794025,0.028907896056988056,True
44192,67284,0,67285,4193.0,43470.0,42096.0,-0.000915,-6.1e-05,0.0015249999999999999,0.42000000000000004,-1.7325000000000002,-3.6750000000000003,0.91178125,0.03371875,-0.19775,0.93771875,0.8950312500000001,-0.44953125,-0.919,0.831875,0.01976520511001617,0.028943777840202255,True
44193,67285,0,67286,4194.0,43470.0,42102.0,-0.0013419999999999999,-0.00042699999999999997,0.0023179999999999997,0.42000000000000004,-1.6800000000000002,-3.6925000000000003,0.9315,0.03296875,-0.20134375000000002,0.9412812500000001,0.9001875,-0.45690625,-0.9201875,0.83878125,0.020030129526296892,0.028845840345302378,True
44194,67286,0,67287,4193.0,43472.0,42101.0,-0.0008539999999999999,-0.00122,-0.000488,0.36750000000000005,-1.7500000000000002,-3.6400000000000006,0.92434375,0.031968750000000004,-0.198125,0.9340937500000001,0.90140625,-0.45509375,-0.91925,0.830875,0.019916607353018225,0.02893847126217683,True
44195,67287,0,67288,4194.0,43471.0,42102.0,0.000305,-0.000122,-0.00183,0.29750000000000004,-1.8200000000000003,-3.6050000000000004,0.9251875,0.03421875,-0.19743750000000002,0.9416875,0.880875,-0.45465625,-0.91628125,0.8409375,0.01999108043074619,0.028850362651930653,True
44196,67288,0,67289,4194.0,43475.0,42107.0,0.001586,0.002013,-0.000488,0.385,-1.8550000000000002,-3.8150000000000004,0.9310625,0.033,-0.19796875,0.9348125,0.909625,-0.46225,-0.921125,0.826125,0.020245480280840885,0.029017801162668215,True
44197,67289,0,67290,4195.0,43474.0,42109.0,-0.000122,0.0006709999999999999,0.00244,0.36750000000000005,-1.7675,-3.8325000000000005,0.9256562500000001,0.03734375,-0.19978125,0.9410000000000001,0.8872187500000001,-0.45165625000000004,-0.9140625,0.8345312500000001,0.019998645286042744,0.02866980244590781,True
44198,67290,0,67291,4196.0,43477.0,42109.0,-0.0015249999999999999,-0.000488,0.0017079999999999999,0.385,-1.6450000000000002,-3.8500000000000005,0.93034375,0.03053125,-0.20140625,0.9386875,0.91009375,-0.46196875,-0.9218437500000001,0.84640625,0.020133293645876314,0.028907873238712526,True
44199,67291,0,67292,4198.0,43479.0,42114.0,-0.003965,0.000244,0.001586,0.3325,-1.61,-3.9725000000000006,0.928,0.03278125,-0.19765625,0.9350937500000001,0.90940625,-0.45259375,-0.91590625,0.82728125,0.019849632515977985,0.028826966709268306,True
44200,67292,0,67293,4198.0,43475.0,42112.0,-0.001403,-0.001281,-0.001952,0.21000000000000002,-1.6800000000000002,-3.9375000000000004,0.92784375,0.03221875,-0.2006875,0.9405,0.88771875,-0.4515,-0.9188125,0.84659375,0.01978278428726254,0.028818588365717667,True
44201,67293,0,67294,4200.0,43475.0,42115.0,0.001769,-0.003111,-0.003904,0.21000000000000002,-2.3800000000000003,-3.8150000000000004,0.9309375,0.03059375,-0.201625,0.9343750000000001,0.89525,-0.46128125000000003,-0.9245625000000001,0.84728125,0.02010830892188037,0.02900502265586407,True
44202,67294,0,67295,4200.0,43481.0,42117.0,0.006588,-0.001037,-0.002623,0.2625,-2.555,-3.8150000000000004,0.9194687500000001,0.03415625,-0.19746875,0.93496875,0.8990312500000001,-0.45646875000000003,-0.91690625,0.825875,0.02006115457694603,0.02887346818989617,True
44203,67295,0,67296,4204.0,43480.0,42120.0,0.008967,0.002074,0.000244,0.36750000000000005,-2.3975000000000004,-3.8500000000000005,0.92525,0.0344375,-0.19771875,0.93959375,0.88715625,-0.44928125,-0.91453125,0.8336250000000001,0.01978457955691438,0.02877086037892044,True
44204,67296,0,67297,4204.0,43482.0,42122.0,0.0046359999999999995,0.0021349999999999997,0.000366,0.42000000000000004,-2.0300000000000002,-3.7975000000000003,0.93371875,0.03334375,-0.201875,0.93990625,0.89684375,-0.46218750000000003,-0.92171875,0.8450625,0.020257029343757588,0.028884193631308033,True
44205,67297,0,67298,4206.0,43482.0,42122.0,-0.0059169999999999995,0.000244,0.0026839999999999998,0.5425000000000001,-1.2775,-3.7275000000000005,0.92340625,0.0328125,-0.20040625,0.9350937500000001,0.90946875,-0.45353125,-0.9223750000000001,0.8405312500000001,0.019888487475607435,0.028968697806689776,True
44206,67298,0,67299,4206.0,43484.0,42129.0,-0.007808,0.000122,0.0011589999999999999,0.5075000000000001,-1.2775,-3.6750000000000003,0.9255625000000001,0.03434375,-0.19834375,0.93415625,0.8924062500000001,-0.4518125,-0.91540625,0.8290000000000001,0.019882217320290677,0.02877988393225577,True
44207,67299,0,67300,4207.0,43482.0,42129.0,-0.0055509999999999995,0.0008539999999999999,0.000793,0.6125,-1.54,-3.7275000000000005,0.925875,0.03415625,-0.1926875,0.9393750000000001,0.88253125,-0.45375,-0.91871875,0.840125,0.019952205694423145,0.029135978349609168,True
44208,67300,0,67301,4208.0,43482.0,42125.0,-0.00042699999999999997,-0.0006709999999999999,0.000732,0.5950000000000001,-1.8725000000000003,-3.9200000000000004,0.92584375,0.03384375,-0.2003125,0.94196875,0.89415625,-0.45406250000000004,-0.91490625,0.83840625,0.01995195072393391,0.028681374227526944,True
44209,67301,0,67302,4206.0,43482.0,42122.0,0.0013419999999999999,-0.0028669999999999998,-0.001647,0.5075000000000001,-1.8900000000000001,-3.9725000000000006,0.9263125,0.0335,-0.19965625,0.94059375,0.89634375,-0.45425,-0.91746875,0.8394375000000001,0.019945408262367483,0.028807601093108627,True
44210,67302,0,67303,4202.0,43479.0,42115.0,0.001037,-0.000793,-0.000122,0.45500000000000007,-1.9775000000000003,-3.9550000000000005,0.92625,0.03484375,-0.20078125,0.933,0.89553125,-0.45290625,-0.9167500000000001,0.83890625,0.01994650431377661,0.028734435670783712,True
44211,67303,0,67304,4196.0,43477.0,42104.0,0.0015249999999999999,0.00042699999999999997,0.000976,0.45500000000000007,-2.0300000000000002,-4.130000000000001,0.924625,0.03278125,-0.2016875,0.9349375,0.88615625,-0.45215625,-0.9215,0.83184375,0.019832095584617408,0.028883193226731933,True
44212,67304,0,67305,4189.0,43473.0,42096.0,0.002074,-0.000305,0.000244,0.3325,-2.0125,-4.2175,0.9264687500000001,0.03271875,-0.2008125,0.9343125,0.8875625,-0.45346875000000003,-0.91978125,0.83196875,0.019882148621552926,0.028851326694531075,True
44213,67305,0,67306,4183.0,43468.0,42087.0,0.002013,0.000915,-0.000183,0.35000000000000003,-2.1,-4.235,0.92553125,0.034,-0.20065625,0.9384375,0.89359375,-0.4533125,-0.9193125,0.83815625,0.019928281700076423,0.02883932893413492,True
44214,67306,0,67307,4175.0,43465.0,42080.0,0.002196,0.002196,0.000366,0.31500000000000006,-1.9775000000000003,-4.112500000000001,0.93090625,0.033,-0.197625,0.9333125,0.9008125,-0.45553125,-0.91396875,0.832125,0.01997630904051614,0.028752695212399672,True
44215,67307,0,67308,4168.0,43464.0,42072.0,0.0011589999999999999,0.000183,0.000793,0.31500000000000006,-1.7325000000000002,-3.9550000000000005,0.92578125,0.038375,-0.198125,0.9315625000000001,0.89484375,-0.45365625,-0.917875,0.83696875,0.020120968617934176,0.028884886853313134,True
44216,67308,0,67309,4162.0,43461.0,42066.0,0.000549,-0.000244,-0.000183,0.3325,-1.6275000000000002,-3.9375000000000004,0.938125,0.02859375,-0.2,0.93415625,0.891875,-0.45634375,-0.9185625000000001,0.82828125,0.019828699864426792,0.02883643468598961,True
44217,67309,0,67310,4156.0,43458.0,42060.0,-0.001464,-0.000244,-0.0008539999999999999,0.2625,-1.5225000000000002,-3.9375000000000004,0.92503125,0.03496875,-0.19628125,0.94546875,0.8945000000000001,-0.4543125,-0.9195625000000001,0.8399375,0.02000797405365618,0.029024636768803628,True
44218,67310,0,67311,4153.0,43459.0,42061.0,-0.0025009999999999998,-0.00061,-0.001098,0.385,-1.4875,-3.8500000000000005,0.9403125,0.03821875,-0.19846875,0.937,0.9028437500000001,-0.45690625,-0.91746875,0.8320625,0.020244792817979584,0.028855258421865183,True
44219,67311,0,67312,4150.0,43459.0,42059.0,-0.001037,-0.000549,-0.000122,0.3325,-1.4175000000000002,-3.7975000000000003,0.92496875,0.034875,-0.19643750000000001,0.92959375,0.89446875,-0.45421875,-0.91640625,0.825375,0.020000383369433956,0.028895368889725014,True
44220,67312,0,67313,4147.0,43458.0,42057.0,-0.00042699999999999997,6.1e-05,0.0006709999999999999,0.36750000000000005,-1.4525000000000001,-3.8675,0.92328125,0.0405,-0.195375,0.93221875,0.89665625,-0.44959375,-0.91234375,0.83809375,0.020045067210983824,0.02877965867824058,True
44221,67313,0,67314,4146.0,43459.0,42060.0,-0.0023179999999999997,-0.000549,0.0018909999999999999,0.43750000000000006,-1.33,-3.7800000000000002,0.9246875,0.0290625,-0.202,0.94275,0.9001250000000001,-0.45734375,-0.9194375,0.82978125,0.019887942655260754,0.02879027666655798,True
44222,67314,0,67315,4147.0,43458.0,42061.0,-0.000732,0.000488,0.0018909999999999999,0.36750000000000005,-1.4525000000000001,-3.8325000000000005,0.92325,0.04,-0.19628125,0.928875,0.89390625,-0.45428125,-0.91740625,0.83196875,0.020212462797286262,0.028940612548707795,True
44223,67315,0,67316,4147.0,43459.0,42064.0,-0.001464,0.000183,0.0,0.28,-1.6800000000000002,-3.8325000000000005,0.92221875,0.0348125,-0.19453125000000002,0.9406875,0.89396875,-0.45403125,-0.91928125,0.8341875,0.019990313458031587,0.029083904657161812,True
44224,67316,0,67317,4146.0,43461.0,42065.0,0.002623,-0.000793,-0.0018909999999999999,0.1925,-1.7500000000000002,-3.8150000000000004,0.9400625,0.031125,-0.20503125,0.9400625,0.89825,-0.457,-0.9174375,0.83221875,0.01995849858936092,0.028590670689953575,True
44225,67317,0,67318,4146.0,43463.0,42068.0,0.003294,-0.0013419999999999999,-0.0015249999999999999,0.12250000000000001,-1.8900000000000001,-3.9375000000000004,0.93015625,0.03440625,-0.196625,0.9314687500000001,0.89325,-0.45521875,-0.9176875,0.8328125000000001,0.0200212889120037,0.02893777763285618,True
44226,67318,0,67319,4149.0,43464.0,42072.0,0.002928,0.001037,0.00042699999999999997,0.22750000000000004,-1.5925000000000002,-3.8500000000000005,0.92584375,0.031593750000000004,-0.198625,0.94146875,0.896875,-0.45609375,-0.91890625,0.83275,0.01994134897360704,0.028905010628225307,True
44227,67319,0,67320,4151.0,43466.0,42072.0,0.001037,0.00122,-0.000732,0.2625,-1.4700000000000002,-3.9025000000000003,0.92584375,0.03453125,-0.196625,0.93465625,0.89396875,-0.45428125,-0.9177500000000001,0.83246875,0.019988831199035956,0.028940213301762798,True
44228,67320,0,67321,4151.0,43468.0,42077.0,0.000549,0.000305,-0.000366,0.29750000000000004,-1.435,-3.7975000000000003,0.92809375,0.033125,-0.1965,0.9340625,0.89765625,-0.455,-0.91421875,0.8316875,0.019960130852586386,0.02880759606399458,True
44229,67321,0,67322,4152.0,43466.0,42078.0,-0.0021349999999999997,0.000122,-0.000183,0.385,-1.1725,-3.6925000000000003,0.92253125,0.033625,-0.196625,0.93540625,0.894625,-0.45515625,-0.91721875,0.83275,0.019986838154019155,0.02891950972658214,True
44230,67322,0,67323,4154.0,43468.0,42082.0,-0.005429,-0.002074,-0.000732,0.4025,-1.155,-3.8500000000000005,0.926,0.0335,-0.19690625,0.93084375,0.89415625,-0.45384375,-0.909,0.83359375,0.01992912668381632,0.028587809627042434,True
44231,67323,0,67324,4153.0,43469.0,42085.0,-0.003965,0.001098,-0.000488,0.4025,-1.0675000000000001,-3.6925000000000003,0.925125,0.03375,-0.19768750000000002,0.9354375,0.894,-0.45456250000000004,-0.91728125,0.81884375,0.019968155226657604,0.028879304398428302,True
44232,67324,0,67325,4157.0,43470.0,42084.0,-0.0021349999999999997,0.003477,-0.0006709999999999999,0.42000000000000004,-1.0675000000000001,-3.8325000000000005,0.92603125,0.03371875,-0.197625,0.9416875,0.8905000000000001,-0.4531875,-0.9154375,0.82625,0.019911770193558612,0.028809949654707047,True
44233,67325,0,67326,4158.0,43470.0,42086.0,-0.000183,0.00122,0.001037,0.4025,-1.33,-3.8325000000000005,0.9322812500000001,0.03209375,-0.197875,0.934125,0.90834375,-0.4615,-0.9270625,0.8375312500000001,0.020178392576088954,0.029252845175800395,True
44234,67326,0,67327,4155.0,43469.0,42085.0,0.0006709999999999999,0.000488,0.002989,0.42000000000000004,-1.435,-3.9200000000000004,0.9250625,0.0315,-0.19928125,0.93484375,0.8814375,-0.45053125,-0.9168437500000001,0.84240625,0.01971455119201142,0.028798290313154132,True
44235,67327,0,67328,4156.0,43468.0,42086.0,0.003477,0.0,-0.000732,0.31500000000000006,-1.9075000000000002,-4.0075,0.9277500000000001,0.033375,-0.197875,0.9353125,0.9176875,-0.46096875,-0.913,0.82159375,0.02020949190738817,0.028704893027736524,True
44236,67328,0,67329,4156.0,43468.0,42083.0,0.002562,-0.000305,-0.0026839999999999998,0.3325,-1.8725000000000003,-3.8325000000000005,0.9336875,0.031875,-0.1980625,0.93534375,0.89228125,-0.46203125,-0.914375,0.82321875,0.020190729255159464,0.02875097207937185,True
44237,67329,0,67330,4153.0,43469.0,42081.0,0.001464,-0.001769,-0.001647,0.36750000000000005,-1.6275000000000002,-3.8675,0.932,0.03071875,-0.19771875,0.9345,0.87715625,-0.46546875,-0.91428125,0.8213125,0.020281136039954274,0.028761114671931386,True
44238,67330,0,67331,4151.0,43467.0,42080.0,-0.000305,-0.002196,-0.00122,0.3325,-1.5050000000000001,-3.8675,0.92671875,0.03259375,-0.1985,0.9409375,0.90071875,-0.46428125000000003,-0.91625,0.818125,0.020310222684347207,0.028806501780966234,True
44239,67331,0,67332,4150.0,43467.0,42078.0,-0.000244,-0.002257,-0.000244,0.28,-1.5225000000000002,-3.7450000000000006,0.934125,0.03278125,-0.196875,0.94221875,0.9156875,-0.45903125,-0.91196875,0.84240625,0.02010760340313969,0.028704826871621698,True
44240,67332,0,67333,4149.0,43469.0,42081.0,-0.002745,0.0025009999999999998,0.000915,0.385,-1.1725,-3.9025000000000003,0.92521875,0.03334375,-0.19768750000000002,0.93975,0.9155625000000001,-0.4506875,-0.90996875,0.84796875,0.019796222498856115,0.028594224952610586,True
44241,67333,0,67334,4145.0,43467.0,42077.0,-0.003294,0.0017079999999999999,0.001037,0.42000000000000004,-1.2075,-3.7450000000000006,0.9163125,0.0343125,-0.19890625,0.93878125,0.89525,-0.45106250000000003,-0.91159375,0.8515312500000001,0.019850875601009163,0.028608667400093577,True
44242,67334,0,67335,4145.0,43468.0,42077.0,-0.002013,0.000488,0.002745,0.4025,-1.435,-3.7975000000000003,0.9257500000000001,0.032,-0.19743750000000002,0.9349375,0.889125,-0.45325,-0.9244687500000001,0.8244375,0.019843988017952622,0.02916937798323184,True
44243,67335,0,67336,4144.0,43468.0,42077.0,-0.000305,0.001586,0.0011589999999999999,0.47250000000000003,-1.7675,-3.8325000000000005,0.93103125,0.03359375,-0.19696875,0.93121875,0.8905937500000001,-0.4605625,-0.91478125,0.8314375,0.02020216215387524,0.028810708502608265,True
44244,67336,0,67337,4143.0,43468.0,42077.0,0.001647,-0.000976,-0.000549,0.385,-2.1,-3.7275000000000005,0.93225,0.03378125,-0.19578125000000002,0.94015625,0.89790625,-0.4543125,-0.91571875,0.8378125000000001,0.019959414111519184,0.028894911971985557,True
44245,67337,0,67338,4142.0,43469.0,42077.0,0.003477,-0.000488,-0.0023179999999999997,0.22750000000000004,-2.1175,-3.8850000000000002,0.9263125,0.0330625,-0.19878125,0.93496875,0.8934062500000001,-0.454,-0.920125,0.83309375,0.019917498159810258,0.028946233215122314,True
44246,67338,0,67339,4141.0,43467.0,42076.0,0.003172,-0.0015249999999999999,-0.001586,0.385,-2.0825,-3.8850000000000002,0.92490625,0.0380625,-0.20071875,0.93571875,0.8935625,-0.45778125000000003,-0.919125,0.832125,0.020273455917020275,0.028829513476095164,True
44247,67339,0,67340,4140.0,43469.0,42077.0,0.001586,-0.000183,-0.000183,0.36750000000000005,-1.9250000000000003,-3.7800000000000002,0.9255,0.031656250000000004,-0.19915625,0.9356875,0.8940625,-0.45637500000000003,-0.9187500000000001,0.83340625,0.019955175286607275,0.028877602207173315,True
44248,67340,0,67341,4142.0,43470.0,42080.0,-0.000366,0.000793,-0.001037,0.5075000000000001,-1.7675,-3.7800000000000002,0.925,0.033875,-0.1985,0.93521875,0.8856875000000001,-0.45728125000000003,-0.91921875,0.831875,0.020082209669155273,0.02892220487450073,True
44249,67341,0,67342,4143.0,43472.0,42082.0,-0.001769,0.0008539999999999999,0.001037,0.5950000000000001,-1.54,-3.7625,0.9259375,0.0306875,-0.19971875,0.934,0.89384375,-0.45787500000000003,-0.9188437500000001,0.83321875,0.019975672457235142,0.028858682498059327,True
44250,67342,0,67343,4144.0,43473.0,42083.0,-0.0037819999999999998,-0.002074,0.000305,0.4025,-1.4525000000000001,-3.5875000000000004,0.925625,0.03046875,-0.19978125,0.9355,0.8931250000000001,-0.4568125,-0.91940625,0.83328125,0.0199241520128594,0.0288780957612102,True
44251,67343,0,67344,4144.0,43471.0,42088.0,-0.001098,-0.000915,-0.001403,0.385,-1.6450000000000002,-3.5175000000000005,0.9262812500000001,0.03425,-0.200375,0.9350937500000001,0.89275,-0.45590625,-0.91928125,0.832875,0.020042448846073736,0.02884939749215279,True
44252,67344,0,67345,4146.0,43472.0,42087.0,0.001403,0.002196,-0.000549,0.525,-1.7675,-3.7275000000000005,0.927,0.03071875,-0.20234375000000002,0.9346875,0.89334375,-0.45846875000000004,-0.91753125,0.83365625,0.02000074105211513,0.02870218132063143,True
44253,67345,0,67346,4146.0,43473.0,42087.0,0.002257,0.0035989999999999998,0.001586,0.56,-1.9250000000000003,-3.8325000000000005,0.9267500000000001,0.035562500000000004,-0.20503125,0.93725,0.893875,-0.45628125,-0.9194375,0.8316875,0.02011114220400945,0.028668634675240962,True
44254,67346,0,67347,4147.0,43473.0,42088.0,0.000793,0.001403,0.002196,0.6300000000000001,-1.9075000000000002,-3.9025000000000003,0.91528125,0.03459375,-0.194625,0.94134375,0.89378125,-0.454625,-0.9194375,0.83503125,0.020005162622612285,0.029086230377391144,True
44255,67347,0,67348,4149.0,43474.0,42094.0,-0.002928,-0.0028669999999999998,-0.000183,0.4025,-1.8725000000000003,-4.0075,0.930125,0.03121875,-0.19896875,0.9473125,0.9031250000000001,-0.458125,-0.913625,0.83834375,0.020007410625303455,0.028685357911584525,True
44256,67348,0,67349,4150.0,43477.0,42094.0,-0.0013419999999999999,-0.002562,-0.001403,0.24500000000000002,-2.0825,-3.8325000000000005,0.93859375,0.025812500000000002,-0.202375,0.944125,0.88046875,-0.45471875,-0.918375,0.8325312500000001,0.019649837518577063,0.028733815908942698,True
44257,67349,0,67350,4149.0,43476.0,42100.0,0.001403,-0.0015249999999999999,-0.004758,0.052500000000000005,-2.345,-3.7450000000000006,0.9294687500000001,0.03290625,-0.19525,0.9290625,0.893375,-0.45484375,-0.9164375,0.833125,0.019944923998952153,0.02894424614273208,True
44258,67350,0,67351,4148.0,43478.0,42097.0,0.005978,-0.001037,-0.005307,0.21000000000000002,-2.4850000000000003,-3.8325000000000005,0.91940625,0.039281250000000004,-0.19428125000000002,0.9350937500000001,0.89625,-0.45687500000000003,-0.91609375,0.8379375,0.020286984743553706,0.02896972965515511,True
44259,67351,0,67352,4153.0,43478.0,42099.0,0.008235,-0.000183,-0.0040869999999999995,0.29750000000000004,-2.345,-3.7975000000000003,0.93665625,0.03078125,-0.20525000000000002,0.9500000000000001,0.892625,-0.458125,-0.9184687500000001,0.8273125,0.01998952290905374,0.028622093803416394,True
44260,67352,0,67353,4154.0,43479.0,42101.0,0.0008539999999999999,0.00244,0.0040869999999999995,0.7000000000000001,-1.4700000000000002,-3.7450000000000006,0.91571875,0.031843750000000004,-0.19643750000000001,0.9289375,0.8940625,-0.4515,-0.91653125,0.8335625,0.01976744780483815,0.028900240678565562,True
44261,67353,0,67354,4152.0,43479.0,42100.0,-0.0055509999999999995,0.0006709999999999999,0.005124,0.6300000000000001,-1.0675000000000001,-3.6050000000000004,0.91925,0.036625,-0.19087500000000002,0.93215625,0.8960312500000001,-0.45746875000000004,-0.91925,0.83978125,0.020202162171831458,0.029229410997521993,True
44262,67354,0,67355,4154.0,43481.0,42103.0,-0.008967,-0.000122,0.0048189999999999995,0.665,-0.8925000000000001,-3.5700000000000003,0.9358125,0.02478125,-0.20053125,0.94846875,0.89953125,-0.4553125,-0.917625,0.8327187500000001,0.019631470667160762,0.02877857540596265,True
44263,67355,0,67356,4157.0,43478.0,42103.0,-0.010187,0.000366,0.000549,0.5425000000000001,-0.9800000000000001,-3.6050000000000004,0.93703125,0.02709375,-0.1988125,0.9322812500000001,0.89375,-0.4535,-0.917125,0.8325312500000001,0.019653372727830375,0.02882806503559299,True
44264,67356,0,67357,4156.0,43480.0,42100.0,0.0030499999999999998,-0.000732,-0.002745,0.47250000000000003,-1.5925000000000002,-3.7450000000000006,0.9225,0.03246875,-0.1963125,0.9251875,0.89325,-0.45428125,-0.916625,0.8330625,0.01990449013912441,0.028908911218915083,True
44265,67357,0,67358,4152.0,43480.0,42095.0,0.007625,-0.0017079999999999999,-0.0015249999999999999,0.43750000000000006,-2.24,-3.9725000000000006,0.92428125,0.03403125,-0.18840625,0.94134375,0.8902187500000001,-0.45346875000000003,-0.91940625,0.8394375000000001,0.019935821988444895,0.029334567311370026,True
44266,67358,0,67359,4147.0,43474.0,42087.0,0.006222,-0.001464,-0.000915,0.4025,-2.24,-4.112500000000001,0.932875,0.0333125,-0.19696875,0.9345625000000001,0.90178125,-0.4553125,-0.9166875,0.83325,0.019980321249217323,0.02888500929347049,True
44267,67359,0,67360,4138.0,43468.0,42076.0,0.003355,-0.001403,-0.000183,0.47250000000000003,-1.8900000000000001,-3.9025000000000003,0.9315,0.0336875,-0.19784375,0.9255,0.90109375,-0.4569375,-0.915,0.83296875,0.020060770078019784,0.0287841159943809,True
44268,67360,0,67361,4128.0,43468.0,42064.0,-0.001037,0.000244,0.0015249999999999999,0.45500000000000007,-1.5050000000000001,-3.9025000000000003,0.925875,0.033125,-0.19815625,0.94025,0.8945625,-0.45359375,-0.9188437500000001,0.84021875,0.01990377181268091,0.02892138604946307,True
44269,67361,0,67362,4118.0,43461.0,42056.0,-0.001281,0.001037,0.000549,0.5075000000000001,-1.7675,-3.9025000000000003,0.9313750000000001,0.029468750000000002,-0.19771875,0.9264687500000001,0.90165625,-0.45553125,-0.91553125,0.83265625,0.019831914303640407,0.028809841251127243,True
44270,67362,0,67363,4110.0,43456.0,42044.0,-0.0013419999999999999,6.1e-05,0.0006709999999999999,0.35000000000000003,-1.9075000000000002,-3.99,0.92609375,0.03315625,-0.1965,0.93753125,0.89434375,-0.454625,-0.9165,0.840875,0.01994638028593773,0.028896514357955573,True
44271,67363,0,67364,4102.0,43455.0,42040.0,0.000305,0.0006709999999999999,-0.0023179999999999997,0.28,-1.9250000000000003,-3.99,0.93434375,0.03084375,-0.20003125,0.93778125,0.9006875,-0.4564375,-0.91825,0.8334375,0.019924457517575895,0.02882300121396968,True
44272,67364,0,67365,4095.0,43454.0,42034.0,0.000305,0.000122,-0.0013419999999999999,0.28,-1.8900000000000001,-4.025,0.92478125,0.0325,-0.19715625,0.9353125,0.8936875,-0.45471875,-0.91653125,0.83484375,0.019923302123439877,0.02887139436794598,True
44273,67365,0,67366,4091.0,43452.0,42030.0,0.000366,-0.000122,-0.000183,0.42000000000000004,-1.8900000000000001,-3.9375000000000004,0.9319375,0.0306875,-0.201125,0.93465625,0.8951250000000001,-0.45878125000000003,-0.919625,0.8327187500000001,0.02001198444832569,0.028832697121244803,True
44274,67366,0,67367,4085.0,43450.0,42028.0,0.00183,-0.000732,0.000793,0.385,-1.8025000000000002,-3.9200000000000004,0.9265,0.0310625,-0.20071875,0.93759375,0.89453125,-0.45821875,-0.9184375,0.83346875,0.020004778557310105,0.0288027188703144,True
44275,67367,0,67368,4082.0,43452.0,42027.0,0.000488,0.001403,0.00042699999999999997,0.42000000000000004,-1.6975000000000002,-3.8325000000000005,0.9261875,0.03253125,-0.2,0.94153125,0.8870625,-0.45425,-0.917,0.84109375,0.019905793471482462,0.02877553477545451,True
44276,67368,0,67369,4082.0,43450.0,42029.0,-0.0017079999999999999,0.002013,0.001403,0.43750000000000006,-1.3650000000000002,-3.7975000000000003,0.92615625,0.03265625,-0.19934375000000001,0.94265625,0.8859375,-0.45403125,-0.9197500000000001,0.827125,0.01990213781214498,0.028909048044221952,True
44277,67369,0,67370,4080.0,43451.0,42031.0,-0.0023179999999999997,0.000122,0.0021349999999999997,0.45500000000000007,-1.2950000000000002,-3.8150000000000004,0.92534375,0.033625,-0.19640625,0.93296875,0.89515625,-0.45425,-0.91890625,0.84046875,0.01995051984828813,0.028994049447896617,True
44278,67370,0,67371,4081.0,43455.0,42031.0,-0.003904,0.001403,0.00122,0.45500000000000007,-1.3825,-3.9200000000000004,0.93015625,0.0333125,-0.196875,0.93978125,0.894375,-0.4546875,-0.91715625,0.8375625,0.019955274423359533,0.028907040706139968,True
44279,67371,0,67372,4080.0,43454.0,42034.0,-0.000122,-0.001403,-0.002379,0.1925,-2.0125,-3.9375000000000004,0.93421875,0.0324375,-0.198125,0.93553125,0.899375,-0.45534375,-0.91659375,0.8325625,0.019945794055747017,0.028834950603952435,True
44280,67372,0,67373,4081.0,43454.0,42036.0,0.0037819999999999998,-0.002745,-0.002257,0.21000000000000002,-2.31,-3.8675,0.92309375,0.03265625,-0.198125,0.9344687500000001,0.8981875,-0.456,-0.91671875,0.83278125,0.01998103737324174,0.02883982265923357,True
44281,67373,0,67374,4084.0,43457.0,42037.0,0.0051849999999999995,-0.00042699999999999997,-0.002745,0.14,-2.24,-4.025,0.92559375,0.0325625,-0.199125,0.9340937500000001,0.89396875,-0.451625,-0.9186875,0.83240625,0.01980185366003282,0.028876420557864452,True
44282,67374,0,67375,4084.0,43458.0,42038.0,0.005307,0.000549,-0.000915,0.17500000000000002,-2.0475000000000003,-3.9200000000000004,0.9256875,0.033125,-0.1990625,0.93953125,0.89390625,-0.45446875000000003,-0.9191875,0.8389375,0.019938840421548722,0.028898414123654716,True
44283,67375,0,67376,4085.0,43457.0,42041.0,0.00122,0.0,-0.001037,0.385,-1.8900000000000001,-3.6750000000000003,0.92584375,0.03346875,-0.196875,0.93921875,0.89371875,-0.44784375,-0.9169375000000001,0.8404375000000001,0.019687319050376375,0.028898515317141205,True
44284,67376,0,67377,4084.0,43460.0,42044.0,-0.0006709999999999999,0.000244,0.0015249999999999999,0.35000000000000003,-1.3125000000000002,-3.8325000000000005,0.9290625,0.033375,-0.197125,0.935,0.9001250000000001,-0.45487500000000003,-0.9165,0.8335,0.0199653443331851,0.028871430578130956,True
44285,67377,0,67378,4088.0,43459.0,42049.0,-0.0023179999999999997,0.000732,0.0017079999999999999,0.4025,-1.3650000000000002,-3.6750000000000003,0.92875,0.0310625,-0.19646875,0.9345,0.89553125,-0.45896875000000004,-0.916875,0.83365625,0.02003482873741355,0.028912383675721774,True
44286,67378,0,67379,4090.0,43460.0,42049.0,-0.0040869999999999995,0.000793,0.001098,0.45500000000000007,-1.2950000000000002,-3.8325000000000005,0.91646875,0.03378125,-0.19718750000000002,0.93884375,0.9080312500000001,-0.45578125,-0.9171875,0.837375,0.020018272775481256,0.028895717062770426,True
44287,67379,0,67380,4091.0,43460.0,42050.0,-0.0032329999999999998,0.000183,-0.000244,0.43750000000000006,-1.2950000000000002,-3.8150000000000004,0.92834375,0.0338125,-0.1975625,0.93725,0.9078437500000001,-0.4555,-0.9156562500000001,0.84259375,0.020008280345934455,0.028820984797460435,True
44288,67380,0,67381,4091.0,43458.0,42051.0,-0.002623,-0.000915,-0.000244,0.385,-1.4700000000000002,-3.8500000000000005,0.93075,0.033,-0.1973125,0.9434375,0.90540625,-0.45128125,-0.91453125,0.8429375,0.019805966200646438,0.028787166124187066,True
44289,67381,0,67382,4092.0,43461.0,42050.0,0.000488,-0.00042699999999999997,-0.000793,0.47250000000000003,-1.6450000000000002,-3.8500000000000005,0.9278125,0.03309375,-0.19553125000000002,0.9335,0.90715625,-0.45346875000000003,-0.91515625,0.84178125,0.019897483869236343,0.02888302175508131,True
44290,67382,0,67383,4092.0,43462.0,42050.0,0.000488,-6.1e-05,-0.001403,0.35000000000000003,-1.7675,-3.7975000000000003,0.9509062500000001,0.03075,-0.1968125,0.93221875,0.90409375,-0.45525,-0.9153125,0.82996875,0.019873033397736682,0.028837687666971864,True
44291,67383,0,67384,4089.0,43460.0,42051.0,0.002379,0.00042699999999999997,-0.000976,0.31500000000000006,-1.7675,-3.99,0.933875,0.0231875,-0.20125,0.9246562500000001,0.89984375,-0.4603125,-0.913375,0.829875,0.019766713937117524,0.02858404371146021,True
44292,67384,0,67385,4088.0,43459.0,42050.0,0.0032329999999999998,-0.000244,-0.000793,0.385,-1.6275000000000002,-3.8675,0.91290625,0.0378125,-0.19928125,0.9551875,0.89509375,-0.45909375,-0.92171875,0.8349375,0.020315807898647103,0.028988269518931156,True
44293,67385,0,67386,4087.0,43459.0,42048.0,0.0011589999999999999,-0.00061,0.0011589999999999999,0.42000000000000004,-1.5050000000000001,-3.7450000000000006,0.94296875,0.03728125,-0.1934375,0.9576250000000001,0.8910625,-0.4534375,-0.9198125,0.8448125,0.02006747517603609,0.029148493793843756,True
44294,67386,0,67387,4084.0,43462.0,42046.0,-0.001281,0.0015249999999999999,0.00061,0.28,-1.1025,-3.6575,0.93234375,0.03603125,-0.19075,0.95446875,0.87540625,-0.4536875,-0.9158125,0.84621875,0.020026376390063872,0.029100495920010638,True
44295,67387,0,67388,4083.0,43461.0,42046.0,-0.002379,0.0013419999999999999,0.000244,0.35000000000000003,-1.0325000000000002,-3.7275000000000005,0.93459375,0.029781250000000002,-0.19225,0.925,0.886875,-0.4541875,-0.9135625,0.8406875,0.019790833369540493,0.028952603627040493,True
44296,67388,0,67389,4082.0,43460.0,42046.0,-0.001769,0.00061,0.001037,0.4025,-1.1725,-3.7450000000000006,0.93178125,0.03115625,-0.20575000000000002,0.9415625,0.9045625,-0.45790625,-0.9189375000000001,0.8307187500000001,0.019996090221336915,0.028620301327052976,True
44297,67389,0,67390,4079.0,43457.0,42044.0,-0.0017079999999999999,0.000305,0.001403,0.2625,-1.225,-3.7275000000000005,0.9117500000000001,0.03678125,-0.19146875,0.948875,0.8903125000000001,-0.453125,-0.91734375,0.8405625,0.020034504792332267,0.029131315411579536,True
44298,67390,0,67391,4078.0,43459.0,42044.0,-0.00061,0.000366,-0.00061,0.29750000000000004,-1.4875,-3.7275000000000005,0.9485,0.0280625,-0.19859375,0.92703125,0.9021875,-0.45390625,-0.9155625000000001,0.8330625,0.019709274464074632,0.028775940739848842,True
44299,67391,0,67392,4077.0,43460.0,42045.0,-0.001098,-0.001403,0.0,0.385,-1.4700000000000002,-3.8675,0.9128437500000001,0.036375,-0.19703125,0.95559375,0.89428125,-0.45890625,-0.91725,0.8365312500000001,0.020249525671247055,0.02890442364225587,True
44300,67392,0,67393,4076.0,43460.0,42043.0,0.000305,-0.000732,0.000976,0.22750000000000004,-1.6275000000000002,-3.8150000000000004,0.93009375,0.0339375,-0.192375,0.92509375,0.89446875,-0.45337500000000003,-0.91734375,0.83496875,0.019928230765691852,0.02909494516244333,True
44301,67393,0,67394,4076.0,43461.0,42046.0,0.001769,-0.000549,0.000366,0.15750000000000003,-1.8375000000000001,-3.8150000000000004,0.9201875,0.03534375,-0.19528125000000002,0.935875,0.8983125000000001,-0.45596875000000003,-0.9194375,0.83875,0.02008967647212912,0.029059895513291585,True
44302,67394,0,67395,4077.0,43461.0,42047.0,0.002989,-0.000122,-0.0025009999999999998,0.17500000000000002,-1.8900000000000001,-3.7975000000000003,0.9288125,0.03025,-0.19793750000000002,0.9355,0.9018125,-0.45878125000000003,-0.91759375,0.8338125000000001,0.01999409721201869,0.028881450481148485,True
44303,67395,0,67396,4077.0,43464.0,42049.0,0.0018909999999999999,0.0006709999999999999,-0.00183,0.28,-1.8375000000000001,-3.6575,0.92521875,0.03303125,-0.19765625,0.9363125,0.89384375,-0.455125,-0.916375,0.8337187500000001,0.01996130667907034,0.028845237318831495,True
44304,67396,0,67397,4078.0,43465.0,42051.0,0.000488,6.1e-05,-6.1e-05,0.28,-1.4175000000000002,-3.5875000000000004,0.92753125,0.029687500000000002,-0.20028125,0.94353125,0.89375,-0.457,-0.91996875,0.84059375,0.019899721960992763,0.028879951946167673,True
44305,67397,0,67398,4078.0,43464.0,42055.0,-0.00042699999999999997,-0.000366,0.000122,0.29750000000000004,-1.3475000000000001,-3.7100000000000004,0.93425,0.03515625,-0.19846875,0.935875,0.89975,-0.4560625,-0.91759375,0.83384375,0.020085766054940363,0.028860130204185545,True
44306,67398,0,67399,4080.0,43467.0,42056.0,-0.000366,0.000305,0.0008539999999999999,0.31500000000000006,-1.225,-3.7975000000000003,0.92640625,0.0336875,-0.19715625,0.936125,0.894625,-0.4546875,-0.91621875,0.8339375,0.01997060890677912,0.028859214442400093,True
44307,67399,0,67400,4080.0,43468.0,42058.0,-0.001769,-0.00061,0.001464,0.45500000000000007,-1.2425000000000002,-3.8150000000000004,0.93221875,0.0303125,-0.2004375,0.9431875000000001,0.89775,-0.4568125,-0.920125,0.83934375,0.0199177631999264,0.028879770867923017,True
44308,67400,0,67401,4083.0,43471.0,42063.0,-0.001403,-0.001769,0.001403,0.35000000000000003,-1.225,-3.7975000000000003,0.93421875,0.03103125,-0.19743750000000002,0.93453125,0.8999375000000001,-0.45787500000000003,-0.9088437500000001,0.83321875,0.019989727235092992,0.02856038831589684,True
44309,67401,0,67402,4083.0,43472.0,42065.0,-0.002013,0.00061,-0.000915,0.31500000000000006,-1.2775,-3.6225000000000005,0.925625,0.0336875,-0.1968125,0.93540625,0.892375,-0.45484375,-0.91671875,0.8324375,0.01997687063529081,0.028892498134410253,True
44310,67402,0,67403,4085.0,43474.0,42067.0,0.0013419999999999999,0.002745,-0.000915,0.35000000000000003,-1.3125000000000002,-3.6925000000000003,0.9261875,0.033375,-0.20053125,0.94265625,0.8945625,-0.45725,-0.91915625,0.83915625,0.02006051375359045,0.028838255709400275,True
44311,67403,0,67404,4085.0,43472.0,42068.0,0.003111,0.002196,0.000793,0.43750000000000006,-1.2950000000000002,-3.7800000000000002,0.9273125,0.029406250000000002,-0.20184375000000002,0.9415625,0.9009375000000001,-0.45584375,-0.9195,0.84025,0.0198418833944341,0.02879898272437248,True
44312,67404,0,67405,4089.0,43475.0,42069.0,0.002257,0.001281,0.0032329999999999998,0.43750000000000006,-1.2600000000000002,-4.025,0.932875,0.029406250000000002,-0.19959375000000001,0.9419375,0.9021875,-0.45846875000000004,-0.9187500000000001,0.840875,0.019947078657571317,0.028860045146726864,True
44313,67405,0,67406,4089.0,43474.0,42072.0,-0.002196,0.0013419999999999999,0.0015249999999999999,0.35000000000000003,-1.1725,-4.0425,0.93415625,0.031406250000000004,-0.2001875,0.941875,0.90140625,-0.44884375,-0.92015625,0.8395625,0.019643055717103185,0.02889102069735217,True
44314,67406,0,67407,4090.0,43476.0,42073.0,-0.003355,-0.001098,-0.000549,0.22750000000000004,-1.3475000000000001,-3.8500000000000005,0.9321875000000001,0.03546875,-0.20053125,0.94203125,0.89934375,-0.4584375,-0.91915625,0.83978125,0.020193695938262615,0.028838255709400275,True
44315,67407,0,67408,4090.0,43475.0,42074.0,0.000305,-0.002989,-0.0028669999999999998,0.15750000000000003,-1.5750000000000002,-3.8500000000000005,0.9259375,0.03275,-0.19693750000000002,0.9365625,0.8974062500000001,-0.45521875,-0.91496875,0.83465625,0.01995356308149973,0.028819271547350426,True
44316,67408,0,67409,4092.0,43477.0,42077.0,0.0050019999999999995,-0.0025009999999999998,-0.0035989999999999998,0.15750000000000003,-1.8900000000000001,-3.7975000000000003,0.9319375,0.03,-0.19396875,0.93078125,0.89728125,-0.4561875,-0.919375,0.8346875,0.019879938359157575,0.0291101301697976,True
44317,67409,0,67410,4093.0,43475.0,42080.0,0.006222,0.000305,-0.004026,0.07,-1.9600000000000002,-3.7450000000000006,0.92525,0.0336875,-0.2004375,0.9410937500000001,0.89365625,-0.45453125,-0.91871875,0.83846875,0.01996434709824994,0.028824967174526178,True
44318,67410,0,67411,4094.0,43478.0,42078.0,0.005795,0.0030499999999999998,-0.00061,0.31500000000000006,-1.61,-3.7975000000000003,0.9315625000000001,0.03265625,-0.19753125,0.9245,0.89971875,-0.45465625,-0.9163125,0.8345625,0.019927186668183078,0.028847818070992647,True
44319,67411,0,67412,4095.0,43476.0,42082.0,-0.002928,0.002562,0.004148,0.6125,-0.77,-3.7800000000000002,0.927125,0.03325,-0.19871875,0.936,0.8935000000000001,-0.456,-0.9199375000000001,0.83465625,0.020005315668956494,0.028941434945412684,True
44320,67412,0,67413,4096.0,43479.0,42084.0,-0.0064659999999999995,-0.000915,0.0037819999999999998,0.5950000000000001,-0.6125,-3.7275000000000005,0.9256562500000001,0.031906250000000004,-0.19959375000000001,0.943625,0.89459375,-0.4545,-0.91940625,0.84115625,0.019890255372221884,0.028885620017531515,True
44321,67413,0,67414,4096.0,43477.0,42083.0,-0.00793,-0.000183,0.00183,0.42000000000000004,-0.8400000000000001,-3.7975000000000003,0.91509375,0.03409375,-0.19675,0.9434375,0.8945000000000001,-0.45384375,-0.91690625,0.84103125,0.019953407120301893,0.028902314066378127,True
44322,67414,0,67415,4094.0,43479.0,42081.0,-0.0070149999999999995,-0.0021349999999999997,-0.001769,0.31500000000000006,-0.9800000000000001,-3.8675,0.9325625000000001,0.03325,-0.196125,0.935625,0.90553125,-0.45553125,-0.91709375,0.83515625,0.01998653167675513,0.028934704714509495,True
44323,67415,0,67416,4090.0,43475.0,42072.0,-0.003355,-0.0032329999999999998,-0.003111,0.36750000000000005,-1.4175000000000002,-3.9200000000000004,0.9250625,0.030625,-0.2004375,0.9433125,0.8928125,-0.45375,-0.9171875,0.8359062500000001,0.019807800439605377,0.02876528500658431,True
44324,67416,0,67417,4083.0,43471.0,42061.0,0.004758,-0.000976,-0.00122,0.45500000000000007,-2.0825,-4.077500000000001,0.92825,0.03215625,-0.19946875,0.9420625,0.9040312500000001,-0.4635,-0.92159375,0.847375,0.020261052179778038,0.02897587558981857,True
44325,67417,0,67418,4075.0,43466.0,42049.0,0.006222,0.000732,-0.000244,0.47250000000000003,-2.0125,-4.2,0.9283125,0.03290625,-0.19109375,0.9370625,0.9084375,-0.45896875000000004,-0.91953125,0.8476875,0.020110210083979934,0.029231589177665617,True
44326,67418,0,67419,4064.0,43464.0,42039.0,0.003477,0.002257,0.001281,0.42000000000000004,-1.9250000000000003,-4.1825,0.9155625000000001,0.0334375,-0.19725,0.93153125,0.9072187500000001,-0.46334375,-0.92325,0.84103125,0.020307168761424937,0.029129427341939754,True
44327,67419,0,67420,4055.0,43458.0,42030.0,0.000488,0.002745,0.003294,0.385,-1.8900000000000001,-4.095000000000001,0.9258125,0.03415625,-0.1970625,0.93565625,0.9000625,-0.4581875,-0.91825,0.83525,0.020130017811009093,0.028942140800417362,True
44328,67420,0,67421,4047.0,43457.0,42024.0,-0.0006709999999999999,0.0011589999999999999,-0.000732,0.385,-1.8900000000000001,-4.095000000000001,0.9267500000000001,0.03696875,-0.1978125,0.9359375,0.8998125,-0.45884375,-0.91840625,0.83265625,0.020271297575135783,0.028918131551852355,True
44329,67421,0,67422,4039.0,43454.0,42018.0,0.000793,0.0,0.00042699999999999997,0.35000000000000003,-2.1700000000000004,-4.025,0.9249375,0.03290625,-0.19771875,0.9359375,0.8894375,-0.45528125,-0.9185,0.8345312500000001,0.01996245698462372,0.028925547284146313,True
44330,67422,0,67423,4034.0,43450.0,42012.0,0.002623,-0.000366,-0.0017079999999999999,0.2625,-2.1700000000000004,-3.9550000000000005,0.9260625,0.03265625,-0.19759375,0.9247500000000001,0.8895625,-0.4565625,-0.9188125,0.83384375,0.020003577771814822,0.028942741553193995,True
44331,67423,0,67424,4030.0,43449.0,42008.0,0.002989,-0.002623,-0.001647,0.28,-2.1175,-3.8850000000000002,0.92553125,0.0335625,-0.19943750000000002,0.94196875,0.8881875,-0.45265625,-0.91659375,0.84121875,0.01988408723489907,0.02878227486451674,True
44332,67424,0,67425,4028.0,43451.0,42009.0,0.000488,0.000244,-0.002196,0.31500000000000006,-1.7500000000000002,-3.7975000000000003,0.92684375,0.033,-0.19715625,0.9365625,0.890125,-0.45006250000000003,-0.912625,0.82896875,0.01975710696036053,0.02871912333605953,True
44333,67425,0,67426,4026.0,43450.0,42009.0,-0.002562,0.000488,0.002562,0.28,-1.5575,-3.7450000000000006,0.925625,0.0334375,-0.197,0.94303125,0.88803125,-0.4533125,-0.9136562500000001,0.83475,0.019905278681569216,0.028765599188196232,True
44334,67426,0,67427,4027.0,43450.0,42008.0,-0.002074,0.000183,0.001952,0.35000000000000003,-1.5925000000000002,-3.8325000000000005,0.9313750000000001,0.031343750000000004,-0.1995,0.9408125,0.89753125,-0.4580625,-0.91596875,0.8395,0.020010017146697534,0.028755404102037974,True
44335,67427,0,67428,4026.0,43453.0,42011.0,-0.002562,0.001586,0.001098,0.4025,-1.715,-3.8325000000000005,0.9322812500000001,0.0305625,-0.19984375000000001,0.93734375,0.9012187500000001,-0.45234375,-0.91671875,0.83303125,0.019748873765935013,0.028770842870311727,True
44336,67428,0,67429,4027.0,43454.0,42014.0,-0.001586,0.001464,-0.000183,0.43750000000000006,-1.8025000000000002,-3.8150000000000004,0.9264687500000001,0.031468750000000004,-0.19653125,0.935,0.89346875,-0.4568125,-0.91640625,0.8349375,0.019965040415630613,0.028891606308594362,True
44337,67429,0,67430,4028.0,43455.0,42017.0,0.000183,-0.000305,-0.0013419999999999999,0.31500000000000006,-1.9425000000000001,-3.8325000000000005,0.9257500000000001,0.0330625,-0.197,0.93665625,0.89425,-0.4545,-0.91121875,0.834,0.01993753705861907,0.02867056634874598,True
44338,67430,0,67431,4030.0,43458.0,42021.0,0.0051849999999999995,-0.002196,-0.001464,0.24500000000000002,-2.24,-3.8500000000000005,0.92621875,0.03371875,-0.19596875,0.93634375,0.89484375,-0.4543125,-0.9155,0.837875,0.019956858325090924,0.028878860548654448,True
44339,67431,0,67432,4033.0,43456.0,42020.0,0.005612,-0.000122,-0.002196,0.35000000000000003,-2.0825,-3.7975000000000003,0.9267500000000001,0.03325,-0.192875,0.94053125,0.8954062500000001,-0.4554375,-0.9186875,0.832125,0.019982774791904665,0.029127236336183436,True
44340,67432,0,67433,4034.0,43459.0,42025.0,0.002745,-0.000183,-0.001647,0.45500000000000007,-1.8550000000000002,-3.8150000000000004,0.93190625,0.0405,-0.19878125,0.9353750000000001,0.89278125,-0.45371875,-0.9178437500000001,0.8395312500000001,0.020210371888733692,0.028857332408627857,True
44341,67433,0,67434,4038.0,43461.0,42027.0,0.000122,0.000549,-0.000976,0.42000000000000004,-1.5050000000000001,-3.6050000000000004,0.9259375,0.033,-0.19721875,0.9368125,0.8939375,-0.45571875,-0.9099375000000001,0.834875,0.019983822802182007,0.028611824096306946,True
44342,67434,0,67435,4040.0,43461.0,42032.0,-0.0028669999999999998,0.0013419999999999999,0.002623,0.45500000000000007,-0.9450000000000001,-3.6050000000000004,0.926,0.033375,-0.19690625,0.9318125,0.893,-0.45503125,-0.916125,0.8319062500000001,0.019971606047324106,0.02886559406809847,True
44343,67435,0,67436,4041.0,43462.0,42033.0,-0.004941,-0.000122,0.0023179999999999997,0.5775,-0.9100000000000001,-3.6050000000000004,0.9255625000000001,0.03253125,-0.19621875,0.933875,0.89396875,-0.4553125,-0.9161875,0.8346250000000001,0.01994837522521947,0.02889562257468162,True
44344,67436,0,67437,4042.0,43462.0,42035.0,-0.004392,0.000183,0.00183,0.5075000000000001,-1.0675000000000001,-3.6225000000000005,0.92459375,0.03103125,-0.203375,0.94940625,0.89746875,-0.455625,-0.917,0.84259375,0.01989956298397608,0.028640085082473815,True
44345,67437,0,67438,4045.0,43464.0,42035.0,-0.0021349999999999997,0.00122,0.000549,0.47250000000000003,-1.33,-3.535,0.9402812500000001,0.03,-0.20240625,0.9364375,0.9016875,-0.4593125,-0.91671875,0.82440625,0.020005161633222523,0.028668000275919155,True
44346,67438,0,67439,4045.0,43463.0,42036.0,0.000305,0.000244,-0.000305,0.36750000000000005,-1.61,-3.6225000000000005,0.9238437500000001,0.03434375,-0.196,0.9326875,0.89375,-0.45534375,-0.9159375000000001,0.83484375,0.02002374225469638,0.02889465828849507,True
44347,67439,0,67440,4045.0,43464.0,42039.0,0.001403,-0.000976,-0.0008539999999999999,0.29750000000000004,-1.7500000000000002,-3.7275000000000005,0.92215625,0.035187500000000003,-0.19371875,0.9468125000000001,0.8824062500000001,-0.4574375,-0.91896875,0.84115625,0.02014213467784595,0.02910433442395163,True
44348,67440,0,67441,4045.0,43465.0,42037.0,0.002989,-0.000488,-0.0011589999999999999,0.24500000000000002,-1.7325000000000002,-3.7975000000000003,0.9374375,0.02534375,-0.202375,0.9403750000000001,0.89946875,-0.4590625,-0.9147500000000001,0.8349062500000001,0.019804775837176915,0.028592500426454212,True
44349,67441,0,67442,4045.0,43466.0,42034.0,0.0028669999999999998,0.000183,-0.000488,0.3325,-1.6800000000000002,-3.7625,0.9336875,0.029375000000000002,-0.2005625,0.9455,0.8938125,-0.45587500000000003,-0.9204687500000001,0.83134375,0.019841858040245956,0.028888150428550828,True
44350,67442,0,67443,4042.0,43467.0,42035.0,0.000549,-0.000183,6.1e-05,0.47250000000000003,-1.5750000000000002,-3.7275000000000005,0.9343750000000001,0.02859375,-0.19821875,0.9445,0.90078125,-0.45684375,-0.91878125,0.8398125000000001,0.019848738658274332,0.028916442291895796,True
44351,67443,0,67444,4041.0,43463.0,42032.0,0.0013419999999999999,0.000976,0.000122,0.3325,-1.5925000000000002,-3.6575,0.9384375,0.029750000000000002,-0.19890625,0.94365625,0.89846875,-0.4568125,-0.91740625,0.83796875,0.019894763473367594,0.02883526450510875,True
44352,67444,0,67445,4040.0,43462.0,42031.0,0.000183,0.000793,0.00061,0.28,-1.3825,-3.7275000000000005,0.93653125,0.029375000000000002,-0.19390625,0.9375625,0.8905625,-0.457125,-0.917625,0.8377187500000001,0.019891953776251296,0.02904445146758569,True
44353,67445,0,67446,4037.0,43464.0,42030.0,-0.003843,0.00042699999999999997,0.000305,0.45500000000000007,-1.2075,-3.6400000000000006,0.92259375,0.03340625,-0.198125,0.94115625,0.8981875,-0.45353125,-0.91753125,0.83790625,0.01991276822238097,0.02887148982706704,True
44354,67446,0,67447,4037.0,43462.0,42028.0,-0.002257,-6.1e-05,0.000244,0.49000000000000005,-1.2600000000000002,-3.7450000000000006,0.9321875000000001,0.02884375,-0.19871875,0.93653125,0.897875,-0.4581875,-0.91646875,0.83421875,0.019912810383026135,0.028806248879067187,True
44355,67447,0,67448,4035.0,43463.0,42030.0,0.000244,6.1e-05,0.001952,0.49000000000000005,-1.4875,-3.8850000000000002,0.92415625,0.03478125,-0.196375,0.9364687500000001,0.89453125,-0.45528125,-0.9166562500000001,0.828375,0.020039127540191347,0.028907620780777923,True
44356,67448,0,67449,4035.0,43462.0,42028.0,0.001037,-0.000549,0.000732,0.4025,-1.5575,-3.8850000000000002,0.92590625,0.03278125,-0.19715625,0.93571875,0.89425,-0.455625,-0.91009375,0.83540625,0.019971121163331544,0.028620426207749617,True
44357,67449,0,67450,4035.0,43462.0,42027.0,-0.000488,6.1e-05,0.000366,0.31500000000000006,-1.6975000000000002,-3.7975000000000003,0.9259375,0.032625,-0.19678125,0.9290625,0.894625,-0.455625,-0.909625,0.8351875,0.019964732040174807,0.028617201182273923,True
44358,67450,0,67451,4035.0,43465.0,42030.0,0.000122,-0.000793,-0.000549,0.35000000000000003,-1.6800000000000002,-3.8500000000000005,0.9264375,0.032625,-0.19746875,0.9416875,0.8925625,-0.45190625,-0.9170625,0.849375,0.019815684104383478,0.028879557933444204,True
44359,67451,0,67452,4034.0,43466.0,42032.0,0.002196,-0.000732,-0.002074,0.31500000000000006,-1.7675,-3.9025000000000003,0.93396875,0.031906250000000004,-0.19965625,0.94353125,0.91909375,-0.46015625,-0.9176562500000001,0.84603125,0.020116899294132677,0.02881490910687076,True
44360,67452,0,67453,4034.0,43467.0,42034.0,0.0011589999999999999,-0.001464,-0.00244,0.22750000000000004,-1.715,-3.7625,0.9349375,0.03446875,-0.19890625,0.94178125,0.91025,-0.46096875,-0.91659375,0.8421875,0.02025420599909805,0.02880359599714548,True
44361,67453,0,67454,4038.0,43468.0,42035.0,0.001037,0.001769,-0.000244,0.2625,-1.6975000000000002,-3.7625,0.9225,0.0323125,-0.19334375,0.9359375,0.90965625,-0.4615,-0.9279375,0.83615625,0.02018733520021258,0.029468693509039807,True
44362,67454,0,67455,4038.0,43468.0,42037.0,0.000122,0.000549,-0.000549,0.3325,-1.5750000000000002,-3.7975000000000003,0.92809375,0.0329375,-0.19728125,0.93915625,0.90696875,-0.4639375,-0.9197500000000001,0.8565625,0.020310508069275438,0.028991813722047777,True
44363,67455,0,67456,4040.0,43469.0,42042.0,-6.1e-05,0.000183,0.0026839999999999998,0.3325,-1.4000000000000001,-3.7275000000000005,0.9262812500000001,0.0311875,-0.1955625,0.9405625,0.91653125,-0.45715625,-0.92803125,0.85690625,0.019967315292431023,0.029383337282201136,True
44364,67456,0,67457,4042.0,43470.0,42042.0,-0.000122,0.000488,0.0011589999999999999,0.35000000000000003,-1.435,-3.7625,0.9253750000000001,0.0315625,-0.19953125,0.93965625,0.918375,-0.46634375,-0.926625,0.85465625,0.020350660282045616,0.029169362077698047,True
