frame_seq,absolute_seq_u64,segment_id,sample_seq,PPG_G,PPG_R,PPG_IR,ACC_X,ACC_Y,ACC_Z,GYRO_X,GYRO_Y,GYRO_Z,Uh1,Uh2,Uh3,Uh4,Uc1,Uc2,Uc3,Uc4,UD1,UD2,parser_valid
45925,179268,2,179267,4006.0,41356.0,30935.0,0.001464,0.003172,-0.000366,0.22750000000000004,-1.715,-3.7450000000000006,1.14759375,0.33671875,0.2413125,1.44146875,1.117375,-0.16028125000000001,-0.3095,1.39803125,0.02057095258359213,0.022658322877887247,True
45926,179269,2,179268,4007.0,41360.0,30936.0,-0.010735999999999999,-0.003538,0.0044529999999999995,0.0,0.43750000000000006,-3.6050000000000004,1.1494375000000001,0.3364375,0.24506250000000002,1.43634375,1.111625,-0.15971875,-0.31240625,1.40359375,0.020536507694237954,0.022929394329284047,True
45927,179270,2,179269,4010.0,41361.0,30937.0,-0.017506999999999998,-0.011041,0.0046359999999999995,-0.14,2.0475000000000003,-3.43,1.1420000000000001,0.3365625,0.2449375,1.4355625,1.11409375,-0.15934375,-0.30678125,1.39921875,0.02052647849757922,0.022698141079456995,True
45928,179271,2,179270,4010.0,41361.0,30938.0,-0.021533,-0.006527,0.001098,0.035,2.6425,-3.3775000000000004,1.1553437500000001,0.33587500000000003,0.24431250000000002,1.4365937500000001,1.10984375,-0.16009375,-0.32003125,1.3934375,0.020528428206119855,0.023204894113777096,True
45929,179272,2,179271,4010.0,41359.0,30941.0,-0.020191,0.000488,0.0021349999999999997,0.17500000000000002,2.1,-3.0975,1.1535,0.33678125000000003,0.24478125,1.4351562500000001,1.10909375,-0.1681875,-0.31275000000000003,1.385875,0.020893943743195472,0.02293164080575007,True
45930,179273,2,179272,4013.0,41361.0,30942.0,-0.0018909999999999999,-0.001281,0.001952,-0.052500000000000005,-0.052500000000000005,-3.2725000000000004,1.1556875,0.3331875,0.24525,1.4331562500000001,1.1026875,-0.16553125,-0.31721875,1.41740625,0.020637607542768173,0.023130472106313554,True
45931,179274,2,179273,4014.0,41362.0,30943.0,0.0050019999999999995,-0.003111,0.000366,0.07,-1.2950000000000002,-3.3425000000000002,1.1537187500000001,0.33378125000000003,0.24596875,1.4356875,1.10128125,-0.15859375,-0.31709375,1.41640625,0.020380946221259254,0.023155007986922778,True
45932,179275,2,179274,4014.0,41360.0,30943.0,0.005673,0.00366,-0.002379,0.36750000000000005,-2.2925000000000004,-3.5000000000000004,1.14803125,0.3354375,0.241,1.44234375,1.1259375,-0.154125,-0.30521875,1.3894375,0.020268277157628356,0.022473311415886762,True
45933,179276,2,179275,4018.0,41362.0,30944.0,0.0070149999999999995,0.007869,-0.0023179999999999997,0.525,-2.7825,-3.5525,1.1535,0.3365,0.24578125,1.4359375,1.11171875,-0.16634375,-0.316375,1.3975,0.020807605618868186,0.023118423284720687,True
45934,179277,2,179276,4016.0,41366.0,30944.0,0.004697,0.000366,0.0017079999999999999,0.5950000000000001,-2.8000000000000003,-3.7275000000000005,1.156125,0.33378125000000003,0.2455,1.4349687500000001,1.101625,-0.16284375,-0.31740625,1.4076250000000001,0.020553251311737675,0.02314828498619173,True
45935,179278,2,179277,4018.0,41365.0,30946.0,0.0006709999999999999,-0.00061,0.0008539999999999999,0.49000000000000005,-1.8900000000000001,-3.7100000000000004,1.1559375,0.34034375,0.24334375,1.44221875,1.1035,-0.17225000000000001,-0.31084375000000003,1.387375,0.0212058765733434,0.022795897406892758,True
45936,179279,2,179278,4021.0,41366.0,30945.0,-0.003294,0.000183,-0.000976,0.525,-1.4875,-3.7100000000000004,1.14896875,0.3354375,0.2418125,1.43634375,1.13903125,-0.160875,-0.3040625,1.397875,0.02054199196014217,0.022460236843120363,True
45937,179280,2,179279,4020.0,41368.0,30950.0,-0.0059169999999999995,-0.000915,-0.000976,0.5775,-1.4525000000000001,-3.7275000000000005,1.14909375,0.3394375,0.24331250000000001,1.4350625000000001,1.1213125,-0.15740625,-0.30759375,1.415875,0.020566932760010193,0.022663956608210144,True
45938,179281,2,179280,4022.0,41367.0,30947.0,-0.006344,-0.002806,0.0013419999999999999,0.4025,-1.6450000000000002,-3.6750000000000003,1.15015625,0.33365625,0.2451875,1.4296875,1.12225,-0.15534375,-0.31340625,1.39921875,0.020243967755582033,0.022974722021929773,True
45939,179282,2,179281,4024.0,41367.0,30950.0,0.003355,-0.0025009999999999998,-0.0011589999999999999,0.1925,-2.6075000000000004,-3.7450000000000006,1.15525,0.3375625,0.24456250000000002,1.44071875,1.10278125,-0.15959375,-0.30921875,1.40203125,0.02057800537312429,0.0227807094787857,True
45940,179283,2,179282,4026.0,41368.0,30947.0,0.0060999999999999995,-0.000732,-0.002074,0.24500000000000002,-3.1325000000000003,-3.8325000000000005,1.14865625,0.33596875,0.24840625,1.4312500000000001,1.09840625,-0.16371875,-0.30971875,1.39715625,0.020679246649483535,0.02295892460705659,True
45941,179284,2,179283,4027.0,41367.0,30947.0,0.00732,0.003172,-0.00122,0.17500000000000002,-3.2550000000000003,-3.9725000000000006,1.15546875,0.33553125,0.24531250000000002,1.43446875,1.12071875,-0.15862500000000002,-0.31015625,1.40471875,0.02045465128913587,0.02284924639264711,True
45942,179285,2,179284,4028.0,41367.0,30947.0,0.006893,0.0021349999999999997,-0.002013,0.12250000000000001,-3.1500000000000004,-4.077500000000001,1.153,0.33587500000000003,0.2495625,1.44021875,1.11725,-0.15959375,-0.31196875,1.39740625,0.020508157344326206,0.02309690571644882,True
45943,179286,2,179285,4028.0,41365.0,30945.0,0.005307,0.0018909999999999999,-0.000366,0.22750000000000004,-2.6250000000000004,-4.0425,1.148625,0.3365625,0.24546875,1.43546875,1.11321875,-0.15959375,-0.30996875,1.39328125,0.02053661394865135,0.022848137145384032,True
45944,179287,2,179286,4030.0,41367.0,30947.0,-0.003721,0.0028669999999999998,0.000366,0.24500000000000002,-1.5225000000000002,-4.0600000000000005,1.14934375,0.33490625,0.245125,1.43565625,1.12075,-0.15815625,-0.3105,1.4037187500000001,0.0204097736142426,0.022855350568684315,True
45945,179288,2,179287,4033.0,41367.0,30946.0,-0.007686,0.0,0.001464,0.21000000000000002,-0.9800000000000001,-3.8675,1.15240625,0.33559375,0.24778125,1.44071875,1.1194375,-0.15859375,-0.30946875,1.396125,0.020455971283510656,0.022923166513048543,True
45946,179289,2,179288,4033.0,41368.0,30946.0,-0.007259,-0.002013,0.00366,0.12250000000000001,-0.8400000000000001,-3.7625,1.143,0.336625,0.24446875,1.4387812500000001,1.114,-0.15965625,-0.31209375,1.3975312500000001,0.0205417347359816,0.02289241336937507,True
45947,179290,2,179289,4036.0,41367.0,30950.0,-0.005063,-0.0035989999999999998,0.000122,-0.07,-1.0150000000000001,-3.8850000000000002,1.14578125,0.3351875,0.245875,1.43484375,1.10915625,-0.15940625,-0.31040625,1.4017187500000001,0.020472098729661457,0.022882433320093123,True
45948,179291,2,179290,4039.0,41367.0,30949.0,-0.002562,-0.004331,-0.0008539999999999999,-0.1925,-1.4000000000000001,-3.6575,1.16196875,0.33775,0.24331250000000001,1.445375,1.1196875,-0.15865625,-0.3135,1.39865625,0.0205477591494767,0.022901371665946902,True
45949,179292,2,179291,4039.0,41367.0,30946.0,0.005673,-0.00061,-0.000122,-0.052500000000000005,-2.0650000000000004,-3.6925000000000003,1.13690625,0.33396875,0.240625,1.43303125,1.1128125,-0.15978125,-0.31328125,1.3980937500000001,0.020436857225269785,0.022782044278782818,True
45950,179293,2,179292,4041.0,41369.0,30947.0,0.006893,-0.002074,-6.1e-05,-0.035,-2.3800000000000003,-3.7100000000000004,1.1561875,0.33540625,0.24571875,1.44771875,1.12003125,-0.15837500000000002,-0.310375,1.40325,0.020439340394376695,0.02287474997814719,True
45951,179294,2,179293,4041.0,41366.0,30947.0,0.005429,0.000488,-0.000793,0.0175,-2.2750000000000004,-3.8325000000000005,1.142875,0.33096875000000003,0.24984375,1.42978125,1.113875,-0.1621875,-0.307,1.39878125,0.020410248451221566,0.02290878142098984,True
45952,179295,2,179294,4045.0,41367.0,30946.0,0.001769,0.0023179999999999997,-0.0013419999999999999,0.17500000000000002,-1.9600000000000002,-3.8325000000000005,1.16409375,0.33925,0.240625,1.43003125,1.12059375,-0.158,-0.31203125,1.39821875,0.020583243645997184,0.022731800741659543,True
45953,179296,2,179295,4046.0,41367.0,30947.0,0.000244,0.002623,-0.001952,0.22750000000000004,-1.5575,-3.7450000000000006,1.1625625,0.3379375,0.24490625,1.44965625,1.1206562500000001,-0.15853125,-0.31128125,1.4035625,0.020550452544585054,0.022877753512065516,True
45954,179297,2,179296,4048.0,41368.0,30947.0,-0.005063,0.000244,0.000976,0.4025,-0.7525000000000001,-3.5875000000000004,1.14315625,0.33159375,0.2493125,1.43040625,1.1135,-0.1625625,-0.31059375,1.397125,0.020451318025561237,0.023031368783413612,True
45955,179298,2,179297,4049.0,41368.0,30950.0,-0.008601,0.000732,0.0008539999999999999,0.45500000000000007,-0.6475000000000001,-3.6050000000000004,1.1660625,0.33878125000000003,0.24021875,1.44646875,1.12115625,-0.15903125,-0.3145,1.40146875,0.020605648250072113,0.02281431861646343,True
45956,179299,2,179298,4051.0,41369.0,30950.0,-0.005673,0.0011589999999999999,0.001769,0.5425000000000001,-0.9100000000000001,-3.5700000000000003,1.1425,0.33515625,0.24065625000000002,1.4309687500000001,1.1140625,-0.16140625,-0.3125,1.39796875,0.020551887372035726,0.022751928020565554,True
45957,179300,2,179299,4053.0,41372.0,30952.0,0.0,0.000366,0.0011589999999999999,0.42000000000000004,-0.9625000000000001,-3.4825000000000004,1.15715625,0.3298125,0.248625,1.43053125,1.11975,-0.160625,-0.31025,1.39959375,0.020299040277310706,0.02298927407163645,True
45958,179301,2,179300,4053.0,41370.0,30950.0,0.0055509999999999995,-0.002379,-0.000793,0.28,-1.2075,-3.4125000000000005,1.161125,0.33528125000000003,0.248125,1.44284375,1.12109375,-0.15812500000000002,-0.31075,1.40346875,0.02042402918272838,0.022988801250475616,True
45959,179302,2,179301,4055.0,41373.0,30954.0,0.002257,-0.000732,-0.0021349999999999997,0.45500000000000007,-1.4175000000000002,-3.43,1.145125,0.33718750000000003,0.2459375,1.43434375,1.11359375,-0.16209375,-0.3130625,1.3979375,0.020663823887364895,0.0229917559747975,True
45960,179303,2,179302,4056.0,41374.0,30956.0,0.002257,0.0023179999999999997,-0.000976,0.45500000000000007,-1.4700000000000002,-3.4475000000000002,1.1484375,0.33565625,0.24546875,1.4358125,1.12025,-0.15840625,-0.31009375,1.39915625,0.020450955865517824,0.022853161559691637,True
45961,179304,2,179303,4060.0,41373.0,30955.0,0.003294,0.001098,0.000183,0.29750000000000004,-1.2075,-3.4650000000000003,1.15084375,0.33540625,0.24531250000000002,1.43578125,1.11390625,-0.1590625,-0.30728125,1.40175,0.020467215977441177,0.02273367162360044,True
45962,179305,2,179304,4061.0,41373.0,30958.0,0.003172,-0.000244,-0.0008539999999999999,0.28,-0.8575,-3.5525,1.15425,0.343625,0.24415625,1.4410625000000001,1.1131875,-0.15887500000000002,-0.31515625,1.3988125,0.020799809593782827,0.0230026282475565,True
45963,179306,2,179305,4063.0,41375.0,30957.0,-0.0017079999999999999,-0.000915,0.000183,0.29750000000000004,-0.5075000000000001,-3.5700000000000003,1.143875,0.3435625,0.24253125,1.4376875,1.1136875,-0.162875,-0.31146875,1.3977187500000001,0.020959322928252536,0.022787598959853054,True
45964,179307,2,179306,4062.0,41372.0,30957.0,-0.007259,0.00183,0.003294,0.31500000000000006,0.22750000000000004,-3.5000000000000004,1.1483125,0.33553125,0.24184375,1.42865625,1.11340625,-0.1603125,-0.31209375,1.39775,0.020523068565441775,0.02278444241356218,True
45965,179308,2,179307,4065.0,41373.0,30958.0,-0.0071979999999999995,-0.001098,0.0013419999999999999,0.3325,0.17500000000000002,-3.4125000000000005,1.1481875,0.33534375,0.24825,1.44134375,1.12034375,-0.15859375,-0.31128125,1.4044375,0.020445622999062187,0.023015292540371563,True
45966,179309,2,179308,4063.0,41377.0,30959.0,-0.0050019999999999995,-0.00061,0.00042699999999999997,0.45500000000000007,-0.07,-3.3775000000000004,1.15309375,0.337125,0.24478125,1.4419375,1.11328125,-0.15909375,-0.30515625,1.403,0.020539625994869946,0.022626371718963954,True
45967,179310,2,179309,4063.0,41373.0,30956.0,-0.003538,-0.000183,0.001586,0.5075000000000001,-0.36750000000000005,-3.4650000000000003,1.155375,0.33671875,0.25009375,1.4408125,1.11375,-0.15865625,-0.31303125,1.39796875,0.020505072586559942,0.02316144762903638,True
45968,179311,2,179310,4063.0,41369.0,30955.0,-0.000244,-0.000122,-0.000305,0.49000000000000005,-0.9275000000000001,-3.43,1.145375,0.33278125000000003,0.2415625,1.43109375,1.11309375,-0.16096875,-0.304875,1.3975312500000001,0.020435852763561066,0.02248262951362638,True
45969,179312,2,179311,4060.0,41369.0,30951.0,0.0066489999999999995,-0.002074,-0.0011589999999999999,0.47250000000000003,-1.61,-3.3075,1.14878125,0.33325,0.242375,1.43596875,1.1194375,-0.16053125000000001,-0.30996875,1.38740625,0.02043751624873729,0.02272087453835168,True
45970,179313,2,179312,4058.0,41371.0,30951.0,0.006893,-0.000915,-6.1e-05,0.3325,-1.6450000000000002,-3.43,1.15278125,0.34078125,0.24559375,1.43553125,1.1199375,-0.15809375,-0.31046875,1.401375,0.0206504290099462,0.022873376310360124,True
45971,179314,2,179313,4055.0,41369.0,30950.0,0.003965,-0.000305,-0.001586,0.31500000000000006,-1.4175000000000002,-3.5175000000000005,1.15453125,0.3368125,0.24706250000000002,1.43590625,1.12075,-0.15875,-0.31046875,1.40275,0.020512754178092823,0.02293379266905333,True
45972,179315,2,179314,4051.0,41370.0,30945.0,0.001586,0.001098,-0.002806,0.47250000000000003,-0.9800000000000001,-3.5175000000000005,1.152875,0.33375,0.24565625,1.4364375,1.1186562500000001,-0.15859375,-0.31009375,1.4037187500000001,0.020379652685703197,0.022860874405307464,True
45973,179316,2,179315,4048.0,41370.0,30943.0,-0.002745,0.002257,-0.000488,0.47250000000000003,-0.665,-3.4825000000000004,1.14546875,0.333,0.2511875,1.43609375,1.1208125,-0.1560625,-0.3111875,1.402125,0.02024595274995666,0.023132354188786546,True
45974,179317,2,179316,4043.0,41368.0,30940.0,-0.0048189999999999995,0.0026839999999999998,0.003294,0.5425000000000001,-0.47250000000000003,-3.4125000000000005,1.1554375000000001,0.33537500000000003,0.24781250000000002,1.43628125,1.1135,-0.1581875,-0.30884375000000003,1.3980000000000001,0.02043044412996629,0.0228993306191291,True
45975,179318,2,179317,4042.0,41368.0,30941.0,-0.0044529999999999995,-0.000732,0.0032329999999999998,0.49000000000000005,-0.6825000000000001,-3.4650000000000003,1.14240625,0.335,0.24303125,1.43903125,1.12071875,-0.15540625,-0.30903125,1.3980937500000001,0.02030213215726811,0.022710181015543347,True
45976,179319,2,179318,4036.0,41364.0,30939.0,-0.0013419999999999999,-0.002562,-0.000488,0.42000000000000004,-0.8575,-3.43,1.14809375,0.336625,0.24328125,1.43846875,1.11453125,-0.16034375,-0.3126875,1.3979062500000001,0.02056960592706799,0.022867432898975075,True
45977,179320,2,179319,4032.0,41366.0,30937.0,0.00042699999999999997,-0.0008539999999999999,-0.001952,0.35000000000000003,-0.9800000000000001,-3.4825000000000004,1.15178125,0.33640625,0.24528125,1.43615625,1.11403125,-0.15940625,-0.31165625,1.40521875,0.020522544919745284,0.022908250029242665,True
45978,179321,2,179320,4029.0,41366.0,30937.0,0.001952,0.001098,-0.000915,0.35000000000000003,-1.1900000000000002,-3.5875000000000004,1.15228125,0.33584375,0.24653125,1.4367812500000001,1.1135625,-0.1586875,-0.31121875,1.4035,0.020470120738140266,0.022942083066074176,True
45979,179322,2,179321,4027.0,41365.0,30937.0,0.000976,-0.000122,0.002196,0.28,-1.715,-3.7800000000000002,1.148625,0.33671875,0.24471875,1.43615625,1.12159375,-0.15737500000000001,-0.31090625,1.4029375,0.02045312249364842,0.022854968641903263,True
45980,179323,2,179322,4024.0,41367.0,30935.0,0.0030499999999999998,-0.0021349999999999997,6.1e-05,0.22750000000000004,-1.6625,-3.8150000000000004,1.1490625,0.3363125,0.24515625,1.43634375,1.11671875,-0.1584375,-0.307125,1.40528125,0.020479387377598406,0.022720961446489454,True
45981,179324,2,179323,4023.0,41363.0,30935.0,0.003111,-0.000366,-0.001952,0.17500000000000002,-1.7500000000000002,-3.7975000000000003,1.1530625,0.33746875,0.2446875,1.44075,1.1025,-0.15725,-0.313625,1.39296875,0.020479100477082447,0.022962947729925094,True
45982,179325,2,179324,4021.0,41363.0,30932.0,-0.0011589999999999999,-0.000366,-0.00061,0.10500000000000001,-1.61,-3.7800000000000002,1.15234375,0.33709375,0.237625,1.4367812500000001,1.1106562500000001,-0.16415625,-0.310125,1.3958125000000001,0.02074353413436482,0.022531764028362666,True
45983,179326,2,179325,4018.0,41363.0,30930.0,-0.0032329999999999998,0.0015249999999999999,0.000732,0.08750000000000001,-1.5925000000000002,-3.8675,1.1464375,0.32556250000000003,0.24590625,1.44825,1.12365625,-0.161375,-0.30921875,1.3996250000000001,0.02015355086372361,0.022835986861980087,True
45984,179327,2,179326,4014.0,41362.0,30930.0,0.000122,-0.0006709999999999999,-0.000122,-0.0175,-1.7850000000000001,-3.7975000000000003,1.1596250000000001,0.34025,0.23603125,1.4419375,1.11178125,-0.15778125,-0.31265625,1.39559375,0.02061576950490849,0.02256797835489489,True
45985,179328,2,179327,4016.0,41361.0,30929.0,0.003477,-0.00061,-0.002745,0.0175,-1.8200000000000003,-3.7450000000000006,1.12875,0.3303125,0.2513125,1.4400625,1.1125625000000001,-0.16246875,-0.30843750000000003,1.40109375,0.02039449093958994,0.02302698394333243,True
45986,179329,2,179328,4014.0,41357.0,30928.0,0.003721,-0.000305,-0.002745,0.22750000000000004,-1.9250000000000003,-3.6400000000000006,1.14740625,0.33959375,0.23746875,1.4455,1.11040625,-0.15753125,-0.31325000000000003,1.3964375,0.020578468671131285,0.02265097220651291,True
45987,179330,2,179329,4013.0,41359.0,30926.0,0.003538,-0.000305,0.000366,0.21000000000000002,-1.6975000000000002,-3.5525,1.12953125,0.33159375,0.24481250000000002,1.425625,1.1104687500000001,-0.16115625,-0.3015625,1.39575,0.020394305425676804,0.022483122227223047,True
45988,179331,2,179330,4015.0,41362.0,30928.0,0.0028669999999999998,0.00042699999999999997,0.000732,0.10500000000000001,-1.3475000000000001,-3.7100000000000004,1.167375,0.3320625,0.25115625,1.43671875,1.12496875,-0.1566875,-0.30965625,1.39925,0.02023249255511543,0.02306953641107122,True
45989,179332,2,179331,4014.0,41359.0,30927.0,-0.000366,-0.001464,0.00122,0.12250000000000001,-0.5950000000000001,-3.6400000000000006,1.16765625,0.34084375,0.243625,1.45653125,1.11575,-0.15640625,-0.31571875,1.4015625,0.020584601651994487,0.0230033813004191,True
45990,179333,2,179332,4013.0,41358.0,30930.0,-0.003904,0.001037,0.000183,0.0175,-0.3325,-3.6575,1.162,0.34165625,0.2505,1.4505625,1.11128125,-0.15815625,-0.31340625,1.40471875,0.020689182354303216,0.023193222874725753,True
45991,179334,2,179333,4013.0,41359.0,30927.0,-0.005856,0.000549,0.0013419999999999999,0.10500000000000001,-0.24500000000000002,-3.6575,1.1365,0.33237500000000003,0.24334375,1.42628125,1.1128437500000001,-0.16215625,-0.3105625,1.39646875,0.020467182021472113,0.022784592088315524,True
45992,179335,2,179334,4014.0,41357.0,30930.0,-0.0032329999999999998,-0.0017079999999999999,0.00042699999999999997,0.10500000000000001,-0.24500000000000002,-3.7100000000000004,1.1497187500000001,0.32784375,0.245,1.4261875,1.12034375,-0.1579375,-0.31075,1.39821875,0.0201085564527187,0.022860257293584114,True
45993,179336,2,179335,4015.0,41359.0,30927.0,-0.000366,-0.0028669999999999998,0.000488,0.22750000000000004,-0.22750000000000004,-3.6225000000000005,1.14903125,0.33615625,0.24940625,1.43259375,1.1134375,-0.15725,-0.30503125000000003,1.39153125,0.020424768961698866,0.022811634936696492,True
45994,179337,2,179336,4013.0,41358.0,30928.0,-0.0035989999999999998,0.00244,-0.000732,0.47250000000000003,-0.56,-3.6750000000000003,1.1445,0.33278125000000003,0.24546875,1.4354375,1.12196875,-0.1604375,-0.30975,1.39896875,0.020414313689476857,0.02283934429601292,True
45995,179338,2,179337,4014.0,41359.0,30928.0,-0.000793,0.000915,-0.0006709999999999999,0.42000000000000004,-0.8925000000000001,-3.535,1.1491875,0.33325,0.242875,1.43603125,1.11871875,-0.1576875,-0.31071875,1.39946875,0.020322205923062792,0.0227715912348334,True
45996,179339,2,179338,4015.0,41361.0,30929.0,0.0025009999999999998,-0.000122,-0.0017079999999999999,0.35000000000000003,-1.0675000000000001,-3.3950000000000005,1.147875,0.33387500000000003,0.24321875,1.4363125,1.1184375,-0.15965625,-0.3105,1.40375,0.020427908613145106,0.022776937948623024,True
45997,179340,2,179339,4015.0,41359.0,30927.0,0.004697,-0.000122,-0.001647,0.4025,-1.225,-3.3775000000000004,1.1520625,0.33434375,0.24546875,1.43284375,1.11984375,-0.15825,-0.310625,1.39815625,0.020390291101383587,0.022874514744067667,True
45998,179341,2,179340,4015.0,41361.0,30929.0,0.003294,0.001037,0.000244,0.35000000000000003,-1.1375000000000002,-3.43,1.15634375,0.33778125000000003,0.245,1.4351875,1.112875,-0.15859375,-0.31103125,1.40478125,0.020546518772434758,0.022871561649611225,True
45999,179342,2,179341,4013.0,41358.0,30927.0,0.002745,-0.000976,0.0008539999999999999,0.43750000000000006,-0.665,-3.535,1.15278125,0.334,0.24603125,1.43646875,1.114,-0.1588125,-0.31078125,1.4057187500000001,0.02039887101238937,0.022903932797305723,True
46000,179343,2,179342,4014.0,41360.0,30926.0,-0.002257,0.00042699999999999997,0.0015249999999999999,0.3325,-0.2625,-3.5700000000000003,1.14965625,0.33340625,0.24531250000000002,1.43640625,1.1186875,-0.1584375,-0.310875,1.40321875,0.020359087792826004,0.022878135813704775,True
46001,179344,2,179343,4016.0,41358.0,30929.0,-0.007076,0.000183,0.0025009999999999998,0.2625,-0.22750000000000004,-3.5175000000000005,1.15346875,0.336625,0.2416875,1.4367812500000001,1.11325,-0.16109375,-0.309875,1.39815625,0.020600009053811978,0.022688825014525987,True
46002,179345,2,179344,4013.0,41362.0,30929.0,-0.0071979999999999995,0.000244,-0.000183,0.28,-0.14,-3.5875000000000004,1.148375,0.33471875,0.24553125,1.44228125,1.11340625,-0.1583125,-0.31215625,1.40321875,0.02040834805825117,0.022938627666972154,True
46003,179346,2,179345,4017.0,41363.0,30929.0,-0.002379,-0.000122,0.002379,0.28,-0.9975,-3.4825000000000004,1.156,0.33709375,0.24546875,1.442,1.11359375,-0.16309375,-0.31390625,1.39828125,0.020700474251150063,0.02300638137896908,True
46004,179347,2,179346,4015.0,41364.0,30930.0,0.0006709999999999999,-0.001037,-0.000366,0.35000000000000003,-1.33,-3.4825000000000004,1.1495,0.33703125,0.24275,1.44175,1.11296875,-0.1593125,-0.30903125,1.3861875000000001,0.0205446140075385,0.022698611241449614,True
46005,179348,2,179347,4013.0,41360.0,30934.0,0.002196,-0.000976,-0.001281,0.385,-1.6625,-3.4650000000000003,1.14853125,0.334125,0.24359375,1.43615625,1.120125,-0.15778125,-0.31028125,1.40496875,0.02036222800883256,0.0227835702229895,True
46006,179349,2,179348,4017.0,41361.0,30931.0,0.003965,0.0013419999999999999,0.0008539999999999999,0.4025,-1.8200000000000003,-3.5875000000000004,1.1509375,0.33409375,0.24478125,1.441875,1.11878125,-0.15275,-0.31421875,1.39859375,0.020156866195360775,0.0229906626138255,True
46007,179350,2,179349,4015.0,41362.0,30933.0,0.003111,0.0018909999999999999,0.000122,0.45500000000000007,-1.715,-3.6225000000000005,1.1496875,0.33387500000000003,0.24581250000000002,1.4315,1.1173125,-0.1575,-0.3103125,1.40434375,0.02034047397288627,0.022876094250125333,True
46008,179351,2,179350,4014.0,41360.0,30932.0,0.0025009999999999998,-0.000732,-0.0006709999999999999,-0.035,-1.5575,-3.6575,1.1483125,0.33603125,0.244,1.4369375,1.113875,-0.16115625,-0.31046875,1.4041875,0.02057796799356405,0.022807818133905793,True
46009,179352,2,179351,4015.0,41360.0,30931.0,0.0032329999999999998,-0.000549,-0.0013419999999999999,-0.052500000000000005,-1.4175000000000002,-3.7450000000000006,1.153,0.3365625,0.24446875,1.4416875,1.11478125,-0.1589375,-0.31284375000000003,1.3980625,0.020510007942195305,0.022922555079555436,True
46010,179353,2,179352,4017.0,41361.0,30930.0,0.002623,-0.00244,-0.002013,-0.12250000000000001,-1.2425000000000002,-3.6575,1.151125,0.3365,0.243875,1.4315,1.1139375,-0.15934375,-0.30546875,1.398375,0.020523891506779857,0.022601652148757676,True
46011,179354,2,179353,4018.0,41359.0,30930.0,0.001098,-0.002257,-0.001647,0.052500000000000005,-1.0675000000000001,-3.6750000000000003,1.1405,0.3344375,0.24609375,1.43553125,1.1175625,-0.1583125,-0.31128125,1.40103125,0.020396706102713092,0.02292659914828635,True
46012,179355,2,179354,4017.0,41360.0,30931.0,-0.002074,-0.001281,-0.000793,0.42000000000000004,-0.8400000000000001,-3.6925000000000003,1.153875,0.33768750000000003,0.2459375,1.43471875,1.118,-0.15790625,-0.3133125,1.3975,0.02051476418822513,0.023001801996334316,True
46013,179356,2,179355,4018.0,41359.0,30930.0,-0.005612,0.002196,0.0037819999999999998,0.6475000000000001,-0.9450000000000001,-3.6225000000000005,1.15484375,0.33659375,0.2409375,1.43684375,1.11415625,-0.15737500000000001,-0.30890625,1.397875,0.02044794809038648,0.022619024663028595,True
46014,179357,2,179356,4019.0,41359.0,30932.0,-0.002013,0.000366,0.000488,0.5075000000000001,-1.0850000000000002,-3.5875000000000004,1.14846875,0.33484375,0.24625,1.43809375,1.12371875,-0.1586875,-0.30903125,1.40615625,0.02042872776097625,0.022842590652393847,True
46015,179358,2,179357,4020.0,41364.0,30933.0,0.000305,0.00042699999999999997,-0.0008539999999999999,0.525,-1.225,-3.535,1.156875,0.33615625,0.24534375,1.44215625,1.1126875,-0.16375,-0.306625,1.39225,0.020688272722569966,0.02270857225139237,True
46016,179359,2,179358,4022.0,41361.0,30932.0,0.002562,0.000488,0.000244,0.43750000000000006,-1.2950000000000002,-3.4825000000000004,1.149125,0.33715625,0.243625,1.442125,1.11315625,-0.16125,-0.3060625,1.39203125,0.020628330487867972,0.022615242596368705,True
46017,179360,2,179359,4024.0,41362.0,30935.0,0.002989,0.000122,-0.00122,0.28,-1.12,-3.5700000000000003,1.14853125,0.33618750000000003,0.243125,1.442,1.129625,-0.156125,-0.30709375,1.39490625,0.020380441813411716,0.022636138884353462,True
46018,179361,2,179360,4024.0,41363.0,30935.0,0.000915,-0.000915,-0.0008539999999999999,0.052500000000000005,-0.805,-3.5700000000000003,1.14825,0.3368125,0.24496875,1.44159375,1.1270625,-0.1668125,-0.30565625,1.39303125,0.02083952941663283,0.02265419186120515,True
46019,179362,2,179361,4025.0,41364.0,30934.0,-0.001464,0.00244,-0.000488,0.14,-0.56,-3.6050000000000004,1.14846875,0.336875,0.24453125,1.44153125,1.11390625,-0.1636875,-0.307,1.392375,0.02071548475372395,0.022690222981034274,True
46020,179363,2,179362,4025.0,41364.0,30935.0,-0.0035989999999999998,0.001586,-0.000244,0.10500000000000001,-0.5775,-3.6400000000000006,1.15440625,0.33646875,0.24484375,1.44396875,1.11034375,-0.1609375,-0.30609375,1.387,0.020587208174351678,0.022666640952950328,True
46021,179364,2,179363,4028.0,41362.0,30935.0,-0.002928,-0.0015249999999999999,0.001098,-0.0175,-0.7875000000000001,-3.7800000000000002,1.1555625,0.3449375,0.24531250000000002,1.43625,1.1091875,-0.162125,-0.31778125,1.39309375,0.02098584044242797,0.023155638428156353,True
46022,179365,2,179364,4029.0,41363.0,30934.0,-0.003172,-0.0015249999999999999,0.0008539999999999999,0.0175,-0.805,-3.6575,1.15296875,0.3420625,0.245625,1.440375,1.10715625,-0.1623125,-0.3126875,1.39325,0.020874450655333592,0.02296383318380578,True
46023,179366,2,179365,4029.0,41363.0,30935.0,-0.002623,0.000488,0.001647,0.42000000000000004,-1.3825,-3.5700000000000003,1.14871875,0.3373125,0.2441875,1.4372500000000001,1.1185,-0.16596875,-0.30671875,1.40021875,0.02082603247593788,0.02266477247160314,True
46024,179367,2,179366,4031.0,41361.0,30937.0,0.00183,0.0011589999999999999,0.0013419999999999999,0.43750000000000006,-1.5575,-3.6575,1.14871875,0.3355625,0.24496875,1.42759375,1.1224687500000001,-0.15625,-0.31221875,1.3975312500000001,0.020359637774902975,0.022918002907488647,True
46025,179368,2,179367,4032.0,41364.0,30938.0,0.006527,-0.0008539999999999999,-0.001403,0.35000000000000003,-1.5575,-3.6050000000000004,1.1468125,0.3378125,0.24746875000000002,1.43684375,1.109625,-0.16290625,-0.31175,1.3960625,0.020722621063018858,0.023001994920151782,True
46026,179369,2,179368,4035.0,41364.0,30937.0,0.0042699999999999995,-0.002013,-0.0023179999999999997,0.3325,-1.4175000000000002,-3.5875000000000004,1.15515625,0.33718750000000003,0.245375,1.4409375,1.1179375,-0.1593125,-0.31143750000000003,1.3983125,0.020551081492902586,0.022903314540738285,True
46027,179370,2,179369,4034.0,41365.0,30939.0,0.0006709999999999999,0.000366,-0.001647,0.15750000000000003,-1.2425000000000002,-3.6750000000000003,1.1495,0.335625,0.24684375,1.43578125,1.1109375000000001,-0.15996875,-0.30984375000000003,1.396875,0.020513012873826668,0.022899674128921542,True
46028,179371,2,179370,4038.0,41365.0,30941.0,-0.0008539999999999999,-0.0013419999999999999,-0.000305,0.0175,-0.7525000000000001,-3.7800000000000002,1.14840625,0.33328125000000003,0.2459375,1.4359375,1.1185625000000001,-0.15775,-0.31046875,1.39559375,0.02032603408843953,0.022887516309203212,True
46029,179372,2,179371,4038.0,41364.0,30939.0,-0.0040869999999999995,-0.001403,-6.1e-05,-0.0175,-0.7000000000000001,-3.6750000000000003,1.1438125000000001,0.3370625,0.24306250000000001,1.43684375,1.12090625,-0.1605625,-0.31040625,1.39734375,0.02059658172279722,0.0227667421230363,True
46030,179373,2,179372,4039.0,41365.0,30940.0,-0.003904,0.002928,0.0008539999999999999,0.10500000000000001,-1.0150000000000001,-3.6575,1.1428125,0.3360625,0.24684375,1.4355,1.1204375,-0.1539375,-0.31021875,1.40278125,0.0202865474832002,0.022914746499350196,True
46031,179374,2,179373,4040.0,41361.0,30942.0,-0.002745,0.0032329999999999998,0.0008539999999999999,0.21000000000000002,-1.1375000000000002,-3.5175000000000005,1.15275,0.3370625,0.244125,1.43590625,1.1130625,-0.160625,-0.31309375,1.39909375,0.020599115296065396,0.02291846343084166,True
46032,179375,2,179374,4041.0,41364.0,30942.0,-0.000976,0.0011589999999999999,0.001098,0.15750000000000003,-1.3825,-3.4475000000000002,1.14865625,0.33628125000000003,0.2445,1.44109375,1.11740625,-0.16165625,-0.30946875,1.39746875,0.020608583072611177,0.02278818824454977,True
46033,179376,2,179375,4045.0,41367.0,30943.0,0.002623,0.00042699999999999997,-0.001464,0.28,-1.7850000000000001,-3.5700000000000003,1.14959375,0.3365,0.24434375,1.4439375,1.1176875,-0.1591875,-0.31203125,1.39721875,0.02051755672660763,0.0228847599889458,True
46034,179377,2,179376,4047.0,41368.0,30944.0,0.005307,0.001037,0.001281,0.22750000000000004,-1.6450000000000002,-3.6225000000000005,1.14996875,0.33675,0.24521875,1.43421875,1.11459375,-0.161,-0.3111875,1.398375,0.020601382393112867,0.02288683964944123,True
46035,179378,2,179377,4048.0,41366.0,30944.0,0.002379,-0.0018909999999999999,0.0013419999999999999,0.07,-1.33,-3.6575,1.147375,0.33353125,0.24415625,1.43396875,1.1141875,-0.162,-0.31071875,1.39784375,0.020508701680324478,0.022824294324905552,True
46036,179379,2,179378,4050.0,41368.0,30946.0,0.00122,-0.0062829999999999995,-0.002989,-0.052500000000000005,-1.2075,-3.6400000000000006,1.16078125,0.33859375,0.24634375,1.4428125,1.122125,-0.15659375,-0.3130625,1.39903125,0.020499061462256035,0.02300846509977918,True
46037,179380,2,179379,4051.0,41369.0,30947.0,-0.002196,-0.004026,-0.00042699999999999997,0.08750000000000001,-0.9625000000000001,-3.6575,1.1520625,0.33734375,0.24175,1.4443125,1.11365625,-0.15421875000000002,-0.311625,1.3975625,0.02035099976065258,0.022761744638624525,True
46038,179381,2,179380,4052.0,41368.0,30947.0,-0.0059169999999999995,0.0015249999999999999,0.0011589999999999999,0.21000000000000002,-1.0850000000000002,-3.7100000000000004,1.14465625,0.3351875,0.243375,1.43415625,1.11584375,-0.1608125,-0.30943750000000003,1.39775,0.020529110931182468,0.02274065370702222,True
46039,179382,2,179381,4052.0,41367.0,30948.0,-0.003172,0.000549,-0.000183,0.22750000000000004,-1.3125000000000002,-3.5875000000000004,1.15609375,0.3364375,0.24406250000000002,1.44571875,1.11853125,-0.15821875,-0.3143125,1.3977187500000001,0.020475692149281497,0.022964868942932277,True
46040,179383,2,179382,4053.0,41370.0,30947.0,0.000366,0.00183,-0.00122,0.385,-1.54,-3.535,1.14746875,0.3308125,0.24656250000000002,1.4331875,1.11328125,-0.15946875,-0.310875,1.40253125,0.02029354432721125,0.02292955313208595,True
46041,179384,2,179383,4057.0,41366.0,30947.0,0.000366,0.004514,-0.000183,0.47250000000000003,-1.8900000000000001,-3.535,1.15871875,0.3398125,0.25109375,1.4464062500000001,1.11834375,-0.15796875,-0.31403125,1.400875,0.020605260945210885,0.0232427520631734,True
46042,179385,2,179384,4057.0,41368.0,30948.0,0.002074,0.00366,-0.00183,0.45500000000000007,-2.1350000000000002,-3.4825000000000004,1.14596875,0.33618750000000003,0.2471875,1.43384375,1.1136875,-0.1609375,-0.30975,1.3906875,0.0205755674836707,0.02291004638056747,True
46043,179386,2,179385,4058.0,41366.0,30950.0,0.004514,0.001281,0.001281,0.5075000000000001,-2.45,-3.4650000000000003,1.14125,0.33340625,0.24590625,1.4403125,1.10953125,-0.15865625,-0.31159375,1.39975,0.020367958172342472,0.022931446030764642,True
46044,179387,2,179386,4060.0,41371.0,30954.0,0.00549,0.0006709999999999999,-0.00061,0.36750000000000005,-2.1700000000000004,-3.4650000000000003,1.14646875,0.33525,0.24409375,1.43484375,1.11434375,-0.1595,-0.31043750000000003,1.40096875,0.020478486723649082,0.022810418364539925,True
46045,179388,2,179387,4060.0,41371.0,30952.0,0.0032329999999999998,-0.002196,-0.001647,0.12250000000000001,-1.8900000000000001,-3.43,1.15340625,0.33728125000000003,0.24528125,1.4418125,1.115,-0.15815625,-0.31134375000000003,1.38928125,0.020508084096856522,0.022895690412011886,True
46046,179389,2,179388,4063.0,41370.0,30953.0,0.0013419999999999999,-0.003538,-0.002196,0.07,-1.54,-3.3950000000000005,1.14871875,0.336375,0.2466875,1.4381875,1.11734375,-0.1585,-0.312,1.3983125,0.020484508558064447,0.022979907041790062,True
46047,179390,2,179389,4062.0,41372.0,30952.0,-0.000488,-0.0030499999999999998,0.001281,0.035,-1.1025,-3.4650000000000003,1.1494375000000001,0.334125,0.24521875,1.43753125,1.12071875,-0.15778125,-0.312,1.39934375,0.02036222800883256,0.022919494488318523,True
46048,179391,2,179390,4064.0,41372.0,30952.0,-0.002623,-0.00366,0.00042699999999999997,0.12250000000000001,-0.24500000000000002,-3.6050000000000004,1.1488125,0.335,0.246,1.4356875,1.1226562500000001,-0.15712500000000001,-0.31153125,1.4135625,0.020371836466466932,0.02293279038110773,True
46049,179392,2,179391,4065.0,41367.0,30952.0,-0.0068319999999999995,-0.001647,0.002745,0.35000000000000003,-0.08750000000000001,-3.6050000000000004,1.1568125,0.33709375,0.2455,1.4423125,1.102125,-0.16593750000000002,-0.31365625,1.39034375,0.020815714267240826,0.022997620935765267,True
46050,179393,2,179392,4066.0,41366.0,30952.0,-0.010492,0.0035989999999999998,0.002074,0.49000000000000005,-0.15750000000000003,-3.6750000000000003,1.15225,0.3375,0.24328125,1.43490625,1.1169375,-0.16925,-0.303875,1.4090625,0.020966724246718454,0.022513128050568067,True
46051,179394,2,179393,4067.0,41368.0,30950.0,-0.008357,0.0032329999999999998,-0.000793,0.6300000000000001,-0.665,-3.5875000000000004,1.148125,0.33403125,0.24521875,1.437625,1.1234375,-0.15496875000000002,-0.318125,1.39796875,0.02024428203824524,0.023165591508391377,True
46052,179395,2,179394,4064.0,41366.0,30950.0,-0.002379,0.001952,-0.00122,0.5775,-1.2950000000000002,-3.4825000000000004,1.1536250000000001,0.33768750000000003,0.24525,1.4406875000000001,1.10384375,-0.171625,-0.31359375,1.381875,0.021070676878364614,0.022984827160731844,True
46053,179396,2,179395,4062.0,41367.0,30949.0,0.001952,0.001769,0.000122,0.45500000000000007,-2.4325,-3.5700000000000003,1.14890625,0.33678125000000003,0.25065625,1.43646875,1.1216875,-0.1629375,-0.30653125000000003,1.4096250000000001,0.020681208565804552,0.02292336550489902,True
46054,179397,2,179396,4062.0,41367.0,30948.0,0.001952,0.000549,0.000122,0.36750000000000005,-2.9925,-3.5700000000000003,1.156625,0.3359375,0.24634375,1.44303125,1.1015,-0.15840625,-0.314875,1.3804687500000001,0.0204625977758777,0.023081292830006324,True
46055,179398,2,179397,4059.0,41367.0,30945.0,0.004514,0.001586,-0.000183,0.35000000000000003,-3.3775000000000004,-3.6750000000000003,1.15253125,0.33703125,0.24315625000000002,1.43565625,1.11346875,-0.16703125,-0.30409375,1.39925,0.020857443960974723,0.022516782795079533,True
46056,179399,2,179398,4055.0,41368.0,30943.0,0.009455,0.00122,-0.000793,0.22750000000000004,-3.3425000000000002,-3.6925000000000003,1.1483125,0.33440625,0.24734375,1.44090625,1.125125,-0.15459375,-0.318125,1.39696875,0.020244596330666914,0.023252974890128248,True
46057,179400,2,179399,4052.0,41364.0,30941.0,0.008905999999999999,-0.000732,0.000488,0.21000000000000002,-3.1675000000000004,-3.7100000000000004,1.15028125,0.33609375,0.24203125,1.43628125,1.09959375,-0.169625,-0.30559375,1.4156250000000001,0.020923731750078868,0.02253082173728013,True
46058,179401,2,179400,4049.0,41366.0,30938.0,0.002013,-0.00244,-0.0018909999999999999,0.10500000000000001,-2.0825,-3.7975000000000003,1.1563125,0.34034375,0.24531250000000002,1.4405937500000001,1.1181875000000001,-0.1571875,-0.31093750000000003,1.3965,0.02059557843809425,0.02288064785654605,True
46059,179402,2,179401,4047.0,41363.0,30937.0,-0.0011589999999999999,0.0006709999999999999,0.000488,0.0175,-1.3475000000000001,-3.7800000000000002,1.14834375,0.3345625,0.24365625000000002,1.43628125,1.1134375,-0.15978125,-0.30653125000000003,1.40071875,0.020461433192819158,0.0226353770655778,True
46060,179403,2,179402,4042.0,41362.0,30936.0,-0.005978,0.001281,0.0013419999999999999,0.10500000000000001,-0.8225000000000001,-3.8675,1.1523125,0.33496875,0.24828125,1.43571875,1.117375,-0.1506875,-0.30943750000000003,1.40453125,0.020109417174976902,0.02294247861555826,True
46061,179404,2,179403,4039.0,41364.0,30936.0,-0.007442,-0.0018909999999999999,0.000915,0.035,-0.47250000000000003,-3.7450000000000006,1.15546875,0.33690625,0.248875,1.4407812500000001,1.11221875,-0.1595625,-0.3130625,1.39946875,0.02054957534930527,0.023112575801588136,True
46062,179405,2,179404,4036.0,41361.0,30935.0,-0.0068319999999999995,0.000305,0.000366,0.035,-0.5775,-3.7625,1.14928125,0.33590625,0.24340625000000002,1.43603125,1.11365625,-0.1615625,-0.30965625,1.397875,0.020589262387314563,0.022750733054894598,True
46063,179406,2,179405,4035.0,41363.0,30936.0,-0.002745,0.0015249999999999999,0.0015249999999999999,0.1925,-1.5050000000000001,-3.7450000000000006,1.1534375000000001,0.33621875,0.243125,1.43884375,1.1200625,-0.1593125,-0.30846875,1.39934375,0.02051098308364528,0.022691423127999374,True
46064,179407,2,179406,4033.0,41361.0,30934.0,0.003172,-0.001098,-6.1e-05,0.035,-1.9075000000000002,-3.6925000000000003,1.14925,0.33678125000000003,0.2451875,1.43590625,1.11503125,-0.1610625,-0.3100625,1.4040000000000001,0.020605209311469645,0.022840336177663057,True
46065,179408,2,179407,4032.0,41359.0,30934.0,0.0064659999999999995,-0.001952,-0.0032329999999999998,0.052500000000000005,-2.1700000000000004,-3.5875000000000004,1.15428125,0.336625,0.24581250000000002,1.442,1.11425,-0.15940625,-0.3095625,1.40165625,0.02053159936411931,0.02284594796800642,True
46066,179409,2,179408,4030.0,41359.0,30933.0,0.005795,0.000366,-0.001403,0.21000000000000002,-2.1875,-3.6225000000000005,1.15240625,0.33621875,0.242875,1.43671875,1.11334375,-0.16128125000000001,-0.3115625,1.39846875,0.02059079544881338,0.022805506639073485,True
46067,179410,2,179409,4029.0,41362.0,30932.0,0.0017079999999999999,0.0015249999999999999,-0.000488,0.28,-1.9075000000000002,-3.7625,1.14840625,0.3369375,0.24125,1.43628125,1.12053125,-0.16065625,-0.31003125,1.3977187500000001,0.020595208377255897,0.02267710988647947,True
46068,179411,2,179410,4028.0,41360.0,30933.0,-0.001952,-0.001281,0.000732,0.22750000000000004,-1.8375000000000001,-3.8150000000000004,1.1480625,0.3309375,0.247375,1.4354375,1.1146875,-0.16065625,-0.30546875,1.38925,0.02034687075190683,0.022745652663045228,True
46069,179412,2,179411,4027.0,41358.0,30932.0,-0.000976,0.0006709999999999999,0.000915,0.21000000000000002,-1.7325000000000002,-3.7800000000000002,1.1603125,0.33187500000000003,0.246875,1.4384375,1.12075,-0.15778125,-0.3095,1.40465625,0.020269090316396503,0.022887142886525845,True
46070,179413,2,179412,4025.0,41360.0,30934.0,-0.000549,0.001586,0.0023179999999999997,0.15750000000000003,-1.5050000000000001,-3.7450000000000006,1.1525625,0.3315,0.24946875000000002,1.4321875,1.11796875,-0.15925,-0.30959375,1.39740625,0.02031313058145431,0.022997607683180637,True
46071,179414,2,179413,4029.0,41361.0,30932.0,-0.000305,-0.002257,0.000244,0.08750000000000001,-1.4525000000000001,-3.6750000000000003,1.16296875,0.33740625,0.24840625,1.43965625,1.12015625,-0.1591875,-0.31075,1.40378125,0.020555068335803926,0.02300037020659585,True
46072,179415,2,179414,4028.0,41360.0,30933.0,-0.0018909999999999999,0.001769,-0.001403,0.28,-1.4700000000000002,-3.6400000000000006,1.16109375,0.33868750000000003,0.24306250000000001,1.44759375,1.1184687500000001,-0.15921875,-0.3145,1.4000625,0.02060936883565409,0.022931275576302205,True
46073,179416,2,179415,4029.0,41359.0,30933.0,-0.00244,0.002745,0.002196,0.24500000000000002,-1.5050000000000001,-3.6400000000000006,1.14228125,0.334,0.24225,1.4318125,1.11359375,-0.1626875,-0.31165625,1.3986875,0.020555970853821624,0.022783567038958938,True
46074,179417,2,179416,4030.0,41360.0,30934.0,-0.001647,-0.0013419999999999999,0.00042699999999999997,0.15750000000000003,-1.7675,-3.6750000000000003,1.16409375,0.3390625,0.24671875000000001,1.4496875,1.1189375,-0.15912500000000002,-0.31153125,1.40640625,0.02062109037475488,0.022962354541119247,True
46075,179418,2,179417,4028.0,41358.0,30933.0,6.1e-05,-0.0011589999999999999,0.000183,0.24500000000000002,-1.8550000000000002,-3.6400000000000006,1.143875,0.33678125000000003,0.24428125,1.43071875,1.1150625,-0.1606875,-0.31346875,1.3978125000000001,0.020590008045093915,0.02293995997588785,True
46076,179419,2,179418,4028.0,41360.0,30933.0,0.003477,0.0,0.00042699999999999997,0.2625,-1.8900000000000001,-3.6225000000000005,1.1633437500000001,0.3415625,0.24256250000000001,1.44453125,1.11953125,-0.15915625,-0.31121875,1.39796875,0.020725837641784366,0.02277883538849734,True
46077,179420,2,179419,4028.0,41358.0,30934.0,0.0025009999999999998,-0.0021349999999999997,-0.000915,0.29750000000000004,-1.8200000000000003,-3.5525,1.14240625,0.3349375,0.24871875000000002,1.435375,1.114,-0.16234375,-0.30978125,1.40446875,0.020580836658281546,0.02297429146961164,True
46078,179421,2,179420,4030.0,41360.0,30933.0,0.002379,-0.000915,6.1e-05,0.29750000000000004,-1.6975000000000002,-3.535,1.1531875,0.33784375,0.2409375,1.43790625,1.1006562500000001,-0.1599375,-0.31290625,1.39859375,0.020603581859431546,0.02277982501577737,True
46079,179422,2,179421,4030.0,41361.0,30933.0,0.000549,0.000976,-0.00042699999999999997,0.4025,-1.4525000000000001,-3.6925000000000003,1.1411875,0.33475,0.2469375,1.4355,1.11453125,-0.1623125,-0.30975,1.40396875,0.02057180992092541,0.022899762440995897,True
46080,179423,2,179422,4031.0,41361.0,30935.0,-0.001769,0.001281,0.001403,0.49000000000000005,-1.4000000000000001,-3.4825000000000004,1.1525625,0.33303125,0.2455,1.4359375,1.12109375,-0.15903125,-0.31075,1.404875,0.020367642017930666,0.022880824326686755,True
46081,179424,2,179423,4032.0,41362.0,30938.0,0.000122,0.000549,-0.000488,0.36750000000000005,-0.9975,-3.4825000000000004,1.15296875,0.33390625,0.24640625,1.43584375,1.11434375,-0.15912500000000002,-0.3105625,1.4057187500000001,0.020407661701324034,0.02291056613766136,True
46082,179425,2,179424,4032.0,41362.0,30935.0,-0.001281,0.000244,0.0,0.36750000000000005,-0.5075000000000001,-3.3950000000000005,1.15234375,0.336625,0.245875,1.44290625,1.1184687500000001,-0.159,-0.312375,1.3980625,0.02051512893745602,0.02296155764296989,True
46083,179426,2,179425,4034.0,41363.0,30937.0,-0.002989,0.003355,0.000122,0.5950000000000001,-0.29750000000000004,-3.4125000000000005,1.1490625,0.3363125,0.2445,1.439125,1.1135625,-0.15909375,-0.31140625,1.3988125,0.02050599476646346,0.022866067239528772,True
46084,179427,2,179426,4034.0,41360.0,30937.0,-0.002623,0.000183,0.00122,0.45500000000000007,-0.47250000000000003,-3.4125000000000005,1.148625,0.333,0.24525,1.43528125,1.1141875,-0.1606875,-0.31043750000000003,1.40259375,0.020433503806545242,0.022857980239968944,True
46085,179428,2,179427,4035.0,41364.0,30939.0,-0.0025009999999999998,-0.000549,-6.1e-05,0.43750000000000006,-0.49000000000000005,-3.325,1.15434375,0.3325,0.24578125,1.43359375,1.11909375,-0.1539375,-0.30965625,1.39828125,0.020139056002773874,0.022848430857593884,True
46086,179429,2,179428,4034.0,41364.0,30940.0,-0.001098,0.000305,-0.00042699999999999997,0.35000000000000003,-0.525,-3.3950000000000005,1.14859375,0.33303125,0.24303125,1.4365625,1.1211875,-0.16228125000000002,-0.3100625,1.398625,0.020499409591137014,0.022751638339062272,True
46087,179430,2,179429,4035.0,41365.0,30942.0,0.001037,-0.000244,0.000244,0.29750000000000004,-0.56,-3.3600000000000003,1.1465625,0.3339375,0.24628125,1.43265625,1.11871875,-0.1583125,-0.30971875,1.39928125,0.02037600929286762,0.02287151100832872,True
46088,179431,2,179430,4036.0,41363.0,30942.0,-0.000244,-0.0018909999999999999,0.000183,0.1925,-0.56,-3.43,1.14928125,0.3354375,0.24328125,1.4365937500000001,1.12178125,-0.16271875,-0.30971875,1.3989375,0.020616730060643525,0.02274810357483054,True
46089,179432,2,179431,4036.0,41361.0,30943.0,-0.001281,-0.001464,-0.000915,0.1925,-0.5775,-3.3950000000000005,1.1501875,0.3330625,0.24471875,1.44153125,1.1211875,-0.1595,-0.31440625,1.39853125,0.020387942631263065,0.022995626306934802,True
46090,179433,2,179432,4035.0,41360.0,30944.0,-0.001281,6.1e-05,0.000976,0.29750000000000004,-0.6475000000000001,-3.4650000000000003,1.14915625,0.33265625,0.24634375,1.43578125,1.1135,-0.162,-0.31034375000000003,1.4040000000000001,0.0204724877907458,0.022899203142695175,True
46091,179434,2,179433,4036.0,41366.0,30943.0,-0.000549,0.000549,-0.001098,0.43750000000000006,-0.6475000000000001,-3.5700000000000003,1.15640625,0.3335,0.24509375,1.4355,1.11925,-0.1581875,-0.31043750000000003,1.40496875,0.020352830691458126,0.022851552959505566,True
46092,179435,2,179434,4036.0,41363.0,30944.0,-0.0008539999999999999,0.001403,0.001403,0.47250000000000003,-0.8575,-3.3950000000000005,1.1551875,0.3363125,0.24525,1.4419375,1.11365625,-0.15925,-0.31421875,1.39865625,0.020512329645994806,0.02300994145658083,True
46093,179436,2,179435,4036.0,41362.0,30945.0,-0.001769,0.001098,0.0028669999999999998,0.28,-0.9975,-3.5525,1.1485,0.33675,0.24646875000000001,1.4352500000000001,1.11434375,-0.16196875,-0.31015625,1.40259375,0.02064065040229803,0.022896808818330817,True
46094,179437,2,179436,4039.0,41363.0,30943.0,0.000793,-0.000793,-0.003355,0.24500000000000002,-1.1375000000000002,-3.535,1.15303125,0.337,0.24553125,1.4413125,1.1123125,-0.15853125,-0.31065625,1.3984375,0.020511646377508984,0.0228783416737259,True
46095,179438,2,179437,4040.0,41364.0,30947.0,0.000305,-0.000183,-0.003172,0.31500000000000006,-1.3650000000000002,-3.4825000000000004,1.14809375,0.33590625,0.24475,1.4363125,1.11371875,-0.15840625,-0.30871875,1.39865625,0.020461304230282164,0.022768322579732835,True
46096,179439,2,179438,4040.0,41363.0,30947.0,-0.000183,0.00122,0.002013,0.21000000000000002,-1.5225000000000002,-3.6400000000000006,1.14828125,0.334125,0.24381250000000002,1.4367812500000001,1.11771875,-0.162,-0.31040625,1.40103125,0.02053327539111001,0.02279759310891812,True
46097,179440,2,179439,4041.0,41363.0,30947.0,0.003172,-0.0035989999999999998,-0.0011589999999999999,0.3325,-1.6800000000000002,-3.5175000000000005,1.1504375,0.33475,0.246,1.43621875,1.12334375,-0.1585625,-0.310625,1.40096875,0.020419778701650813,0.022896367329099925,True
46098,179441,2,179440,4041.0,41364.0,30948.0,0.000976,0.0023179999999999997,-0.002379,0.47250000000000003,-1.61,-3.6225000000000005,1.149,0.33628125000000003,0.2511875,1.43996875,1.11809375,-0.1635625,-0.312,1.3980937500000001,0.020685846716517898,0.023165000822639024,True
46099,179442,2,179441,4044.0,41364.0,30949.0,-0.003294,0.006344,-0.000244,0.49000000000000005,-1.4700000000000002,-3.7800000000000002,1.1495625,0.33675,0.2459375,1.4408125,1.11290625,-0.1615625,-0.314625,1.3969375,0.020624183556009677,0.023054540220135,True
46100,179443,2,179442,4043.0,41365.0,30950.0,-0.0008539999999999999,-0.000244,0.001769,0.29750000000000004,-1.4700000000000002,-3.6750000000000003,1.1544375,0.3373125,0.2455,1.43721875,1.1114375,-0.15965625,-0.31378125,1.40775,0.020570191266690727,0.02300264381954164,True
46101,179444,2,179443,4045.0,41364.0,30950.0,-0.000183,-0.003843,0.00042699999999999997,0.22750000000000004,-1.6275000000000002,-3.6925000000000003,1.156625,0.337875,0.246125,1.43665625,1.1144687500000001,-0.15796875,-0.30846875,1.40853125,0.02052505966587112,0.022814836907404955,True
46102,179445,2,179444,4047.0,41364.0,30951.0,-0.0018909999999999999,-0.000122,-0.0011589999999999999,0.28,-1.9600000000000002,-3.6575,1.14075,0.3420625,0.2328125,1.44571875,1.1109375000000001,-0.15778125,-0.31540625,1.39565625,0.020690797090481976,0.022546148082555683,True
46103,179446,2,179445,4048.0,41364.0,30952.0,-0.000732,0.0017079999999999999,-0.0046359999999999995,0.385,-2.2925000000000004,-3.7450000000000006,1.1426875,0.33784375,0.2344375,1.42828125,1.1105625000000001,-0.1591875,-0.31528125,1.396125,0.020573177388519378,0.0226079535888568,True
46104,179447,2,179446,4050.0,41361.0,30952.0,0.002379,0.0026839999999999998,-0.000183,0.21000000000000002,-2.4325,-3.7625,1.13975,0.3235,0.24390625000000002,1.42690625,1.11590625,-0.16434375,-0.3085625,1.39621875,0.020188578471120284,0.02272733116160201,True
46105,179448,2,179447,4050.0,41364.0,30950.0,0.0030499999999999998,-0.000183,0.003965,0.21000000000000002,-2.4850000000000003,-3.9025000000000003,1.14659375,0.32534375,0.25175000000000003,1.4347812500000001,1.1205,-0.16309375,-0.30859375,1.407875,0.020214195460794417,0.023051261449461676,True
46106,179449,2,179448,4052.0,41364.0,30951.0,0.0028669999999999998,-0.00366,0.001464,0.17500000000000002,-2.3975000000000004,-3.8675,1.168625,0.33590625,0.25125000000000003,1.429625,1.12328125,-0.15775,-0.31040625,1.3955312500000001,0.02043469487017624,0.023103532052246144,True
46107,179450,2,179449,4054.0,41363.0,30953.0,-0.000793,0.003111,-0.003355,0.3325,-2.1350000000000002,-3.7975000000000003,1.147875,0.32903125,0.251875,1.41446875,1.12190625,-0.1620625,-0.307125,1.3995625,0.020324992951243296,0.022997372169682756,True
46108,179451,2,179450,4053.0,41363.0,30953.0,-0.0021349999999999997,0.002196,0.0006709999999999999,0.29750000000000004,-2.0825,-3.8500000000000005,1.15471875,0.3298125,0.2520625,1.43321875,1.1194375,-0.15896875,-0.3091875,1.4065625,0.020231875584507307,0.023087978567774017,True
46109,179452,2,179451,4057.0,41362.0,30956.0,-0.000915,-0.000732,0.0034159999999999998,0.035,-2.1875,-3.8325000000000005,1.17071875,0.32584375,0.25065625,1.43321875,1.11734375,-0.15871875,-0.30893750000000003,1.39834375,0.020057458552101403,0.02302008263421633,True
46110,179453,2,179452,4058.0,41363.0,30957.0,-6.1e-05,-0.0030499999999999998,0.002928,-0.0175,-2.24,-3.7975000000000003,1.16478125,0.34118750000000003,0.2474375,1.4508125,1.1215,-0.15971875,-0.31340625,1.40475,0.020733115943247477,0.02306726355958454,True
46111,179454,2,179453,4059.0,41364.0,30956.0,0.0011589999999999999,-0.0017079999999999999,0.000183,0.0,-2.0650000000000004,-3.8325000000000005,1.1545,0.34028125,0.25025000000000003,1.43546875,1.11390625,-0.15928125,-0.3124375,1.4031875,0.020677870952804114,0.02314401836508577,True
46112,179455,2,179454,4061.0,41365.0,30959.0,0.002623,0.0028669999999999998,-0.000732,0.17500000000000002,-1.8550000000000002,-3.6575,1.1516250000000001,0.3348125,0.2459375,1.43528125,1.1146875,-0.15962500000000002,-0.30784375,1.39859375,0.02046544596615221,0.022781998094750795,True
46113,179456,2,179455,4062.0,41365.0,30956.0,0.000976,0.001403,0.002257,0.14,-1.715,-3.7450000000000006,1.1495,0.336125,0.24453125,1.43684375,1.12171875,-0.1615,-0.31034375000000003,1.3975,0.020595782546613414,0.0228246464018017,True
46114,179457,2,179456,4063.0,41363.0,30957.0,-0.003538,-0.002623,0.002623,0.07,-1.6625,-3.9200000000000004,1.14875,0.33625,0.24228125,1.4332500000000001,1.12196875,-0.15571875000000002,-0.310875,1.4038125000000001,0.02036655398631018,0.02275344881663042,True
46115,179458,2,179457,4065.0,41365.0,30958.0,-0.003538,-0.0023179999999999997,0.0,0.08750000000000001,-1.6800000000000002,-3.8500000000000005,1.15315625,0.33478125000000003,0.24653125,1.43834375,1.11609375,-0.15887500000000002,-0.3121875,1.40503125,0.020433743293096225,0.022981015180143706,True
46116,179459,2,179458,4067.0,41366.0,30957.0,-0.0011589999999999999,0.001098,-0.00244,0.12250000000000001,-1.9775000000000003,-3.7625,1.154375,0.33675,0.24925,1.44234375,1.1138125,-0.1605,-0.3135625,1.39859375,0.020581113801452784,0.023148088643941012,True
46117,179460,2,179459,4068.0,41366.0,30959.0,-0.000305,-0.001647,-0.0006709999999999999,0.29750000000000004,-2.3625000000000003,-3.7800000000000002,1.1489375,0.3349375,0.242,1.429125,1.10778125,-0.163,-0.30909375,1.3965625,0.02060743699043993,0.0226702712847944,True
46118,179461,2,179460,4069.0,41370.0,30958.0,0.0013419999999999999,-0.0015249999999999999,-0.000366,0.385,-2.5375,-3.8325000000000005,1.14834375,0.33559375,0.24334375,1.43203125,1.12175,-0.15428125,-0.3090625,1.3977187500000001,0.020281083710574084,0.02272429263777655,True
46119,179462,2,179461,4072.0,41369.0,30959.0,0.004026,0.002074,0.000488,0.47250000000000003,-2.5375,-3.8150000000000004,1.14853125,0.335625,0.24281250000000001,1.4349687500000001,1.11925,-0.16290625,-0.30990625,1.398125,0.020632089734652678,0.02273635876320996,True
46120,179463,2,179462,4072.0,41368.0,30959.0,0.004026,0.003294,-0.0018909999999999999,0.4025,-2.31,-3.7450000000000006,1.14925,0.33896875,0.247,1.43503125,1.1206562500000001,-0.15840625,-0.31071875,1.40396875,0.02058807169864527,0.022941269476041307,True
46121,179464,2,179463,4075.0,41369.0,30958.0,0.000366,0.000549,-0.002806,0.525,-2.1,-3.6225000000000005,1.1565625,0.33728125000000003,0.24534375,1.44290625,1.11353125,-0.15903125,-0.3103125,1.39875,0.020543559667774346,0.022856812309590836,True
46122,179465,2,179464,4075.0,41367.0,30960.0,0.0008539999999999999,0.00122,0.0032329999999999998,0.47250000000000003,-1.9600000000000002,-3.7450000000000006,1.14825,0.33540625,0.245375,1.4351875,1.12090625,-0.16040625,-0.30993750000000003,1.4054375000000001,0.02052169549094399,0.0228430245861389,True
46123,179466,2,179465,4078.0,41370.0,30963.0,0.002013,-0.000549,0.000549,0.4025,-1.6975000000000002,-3.7625,1.1545625,0.33359375,0.25190625,1.4372500000000001,1.11409375,-0.15759375,-0.3141875,1.4033125,0.020332633501629276,0.023282445691430162,True
46124,179467,2,179466,4079.0,41371.0,30961.0,-0.000122,-0.0013419999999999999,-0.003294,0.35000000000000003,-1.4700000000000002,-3.6050000000000004,1.15671875,0.33459375,0.24625,1.4326875000000001,1.114,-0.15890625,-0.313125,1.4028125,0.020427249267544967,0.023007120639572245,True
46125,179468,2,179467,4080.0,41369.0,30961.0,-0.001586,0.000549,-0.00061,0.5075000000000001,-1.5225000000000002,-3.6225000000000005,1.15709375,0.3378125,0.2455,1.4428750000000001,1.1129375,-0.15912500000000002,-0.3113125,1.39940625,0.0205693500902868,0.022903432301320626,True
46126,179469,2,179468,4081.0,41371.0,30963.0,-0.0006709999999999999,0.001098,0.000915,0.49000000000000005,-1.2775,-3.6925000000000003,1.15575,0.3365625,0.24559375,1.43978125,1.1140625,-0.1604375,-0.31115625,1.3995625,0.020570819547452317,0.022901008667574177,True
46127,179470,2,179469,4083.0,41370.0,30961.0,-0.000183,-0.002989,-0.00122,0.4025,-1.2600000000000002,-3.7100000000000004,1.15628125,0.336625,0.24278125,1.43996875,1.11390625,-0.16259375,-0.31171875,1.3980625,0.020660809645073806,0.02280793084610688,True
46128,179471,2,179470,4084.0,41369.0,30959.0,-0.0044529999999999995,0.000976,-0.0011589999999999999,0.45500000000000007,-1.33,-3.6050000000000004,1.14559375,0.33309375,0.24215625000000002,1.43646875,1.1182812500000001,-0.1586875,-0.3103125,1.403375,0.020356290050939235,0.022725695113956272,True
46129,179472,2,179471,4083.0,41369.0,30959.0,-0.005124,0.001769,0.002379,0.43750000000000006,-1.4875,-3.6575,1.148625,0.33378125000000003,0.24575,1.43784375,1.11896875,-0.15828125,-0.31065625,1.4035312500000001,0.020368274336569372,0.02288733978540789,True
46130,179473,2,179472,4083.0,41370.0,30960.0,-0.004209,-0.00061,0.001769,0.5075000000000001,-1.6450000000000002,-3.6225000000000005,1.1460937500000001,0.33721875,0.24584375,1.43634375,1.11440625,-0.1591875,-0.31209375,1.405375,0.02054730731321159,0.022948969584324675,True
46131,179474,2,179473,4081.0,41368.0,30957.0,0.0046359999999999995,0.001769,-0.002257,0.525,-1.8200000000000003,-3.5525,1.1535312500000001,0.3375,0.246375,1.433875,1.1148437500000001,-0.15925,-0.3091875,1.4017187500000001,0.020561482661920382,0.022854013528835548,True
46132,179475,2,179474,4081.0,41368.0,30956.0,0.004148,0.001769,-0.001281,0.47250000000000003,-2.1175,-3.5875000000000004,1.1534375000000001,0.33571875,0.24540625,1.44190625,1.1125625000000001,-0.160125,-0.31815625000000003,1.39503125,0.020523227839259937,0.023174557076053,True
46133,179476,2,179475,4077.0,41365.0,30956.0,0.00183,0.000366,0.0026839999999999998,0.45500000000000007,-1.9250000000000003,-3.6225000000000005,1.15496875,0.33675,0.24556250000000002,1.44228125,1.1175,-0.16384375,-0.31321875,1.3859375,0.020716644056266914,0.02298261105391486,True
46134,179477,2,179476,4074.0,41365.0,30953.0,0.000915,-0.002379,-0.001403,0.43750000000000006,-1.8900000000000001,-3.6925000000000003,1.1535,0.3373125,0.24581250000000002,1.4370625000000001,1.1085,-0.16859375000000001,-0.3044375,1.38871875,0.020932382547081376,0.022639898578191743,True
46135,179478,2,179477,4072.0,41362.0,30949.0,-0.0006709999999999999,-0.000305,-0.004514,0.43750000000000006,-1.9425000000000001,-3.6575,1.1545625,0.3368125,0.24553125,1.43809375,1.10753125,-0.16209375,-0.31371875,1.3929375,0.02064830370919325,0.023001417666723648,True
46136,179479,2,179478,4069.0,41366.0,30948.0,-0.0013419999999999999,0.000793,0.00488,0.24500000000000002,-2.2225,-3.7800000000000002,1.148875,0.3365625,0.246625,1.4365625,1.10715625,-0.16493750000000001,-0.31546875,1.39353125,0.02075320906582109,0.02311671453999833,True
46137,179480,2,179479,4064.0,41362.0,30948.0,0.00122,-0.004331,0.0032329999999999998,0.07,-2.45,-3.6750000000000003,1.155875,0.33671875,0.245875,1.444,1.1046562500000001,-0.161,-0.31671875,1.393875,0.020600088986383013,0.02313608821091456,True
46138,179481,2,179480,4062.0,41361.0,30947.0,0.0025009999999999998,-0.002074,-0.000732,0.17500000000000002,-2.45,-3.6050000000000004,1.14828125,0.33615625,0.24465625,1.43753125,1.11190625,-0.15990625,-0.307375,1.39996875,0.02053246791882729,0.022710442818280458,True
46139,179482,2,179481,4059.0,41358.0,30942.0,0.001098,0.004758,-0.003843,0.31500000000000006,-2.2750000000000004,-3.6750000000000003,1.14884375,0.336375,0.2421875,1.43875,1.1324375,-0.16078125000000001,-0.307,1.39796875,0.020576993966202974,0.022593800139877402,True
46140,179483,2,179482,4056.0,41360.0,30943.0,0.003904,0.002379,-0.003904,0.24500000000000002,-1.9075000000000002,-3.7100000000000004,1.14296875,0.3333125,0.24309375,1.4372500000000001,1.13203125,-0.1558125,-0.30925,1.41146875,0.0202487496539394,0.022721546324958607,True
46141,179484,2,179483,4053.0,41361.0,30939.0,0.001586,-0.0008539999999999999,0.0015249999999999999,0.2625,-0.9450000000000001,-3.7100000000000004,1.14834375,0.33740625,0.25059375,1.43603125,1.1228125,-0.15675,-0.31121875,1.40328125,0.02045623893942687,0.023109186988003228,True
46142,179485,2,179484,4051.0,41360.0,30940.0,-0.004026,0.001037,0.000915,0.3325,-0.5775,-3.7275000000000005,1.14915625,0.33528125000000003,0.24321875,1.437,1.11325,-0.15725,-0.30743750000000003,1.4061875,0.02038854795144315,0.022653817375854618,True
46143,179486,2,179485,4050.0,41360.0,30941.0,-0.00671,0.000915,0.0023179999999999997,0.31500000000000006,-0.42000000000000004,-3.5525,1.14865625,0.33203125,0.24475,1.43675,1.119625,-0.15987500000000002,-0.3098125,1.389875,0.02036046337160271,0.022812290304583795,True
46144,179487,2,179486,4047.0,41361.0,30941.0,-0.002562,-0.000793,-0.001403,0.1925,-0.525,-3.5175000000000005,1.14803125,0.33396875,0.24725,1.435625,1.1208125,-0.15834375,-0.30743750000000003,1.4055312500000001,0.020378570033386497,0.022819661677624392,True
46145,179488,2,179487,4045.0,41360.0,30940.0,-0.00042699999999999997,-0.004697,-0.00061,0.10500000000000001,-0.8750000000000001,-3.5875000000000004,1.15653125,0.3339375,0.24606250000000002,1.43665625,1.1146875,-0.15862500000000002,-0.30821875,1.40740625,0.020388681061111715,0.022802215814352912,True
46146,179489,2,179488,4046.0,41360.0,30940.0,-0.000305,0.0008539999999999999,0.000366,0.24500000000000002,-1.2775,-3.5525,1.153125,0.33718750000000003,0.246125,1.4340625,1.1138125,-0.1544375,-0.3118125,1.4053125,0.02035340297202119,0.022949235068343836,True
46147,179490,2,179489,4043.0,41362.0,30940.0,0.00042699999999999997,0.00183,-0.002196,0.28,-1.2775,-3.535,1.15525,0.3394375,0.249375,1.4364375,1.11440625,-0.15809375,-0.311125,1.400625,0.0205948058298267,0.023055288473898265,True
46148,179491,2,179490,4045.0,41360.0,30941.0,0.0015249999999999999,0.002562,-0.0008539999999999999,0.22750000000000004,-1.2775,-3.5700000000000003,1.14921875,0.342125,0.24290625000000002,1.4365,1.11859375,-0.1621875,-0.30965625,1.39890625,0.020871971960320233,0.022730165096431592,True
46149,179492,2,179491,4044.0,41362.0,30941.0,0.002379,0.00183,0.0006709999999999999,0.14,-1.0850000000000002,-3.6400000000000006,1.1393125,0.33615625,0.246,1.4373125,1.1219375,-0.1581875,-0.3101875,1.403875,0.020462783062678024,0.022878782814817863,True
46150,179493,2,179492,4043.0,41361.0,30942.0,0.0018909999999999999,-0.000915,0.001464,0.052500000000000005,-0.8575,-3.535,1.1537187500000001,0.3341875,0.24581250000000002,1.43615625,1.11771875,-0.1585625,-0.3123125,1.4053437500000001,0.020396495031523503,0.02295647524273966,True
46151,179494,2,179493,4045.0,41359.0,30942.0,-0.002806,0.000244,-0.0021349999999999997,0.035,-0.36750000000000005,-3.43,1.155125,0.33659375,0.24621875000000001,1.43575,1.117125,-0.15865625,-0.31059375,1.4050625,0.020499898457721547,0.022904109448170104,True
46152,179495,2,179494,4045.0,41360.0,30942.0,-0.004575,0.000915,0.000732,0.035,-0.49000000000000005,-3.4125000000000005,1.158375,0.341125,0.24765625,1.4353125,1.121,-0.15812500000000002,-0.31040625,1.4058125000000001,0.020665925025224435,0.022955704411562437,True
46153,179496,2,179495,4046.0,41361.0,30945.0,-0.004209,6.1e-05,0.0032329999999999998,0.12250000000000001,-0.5950000000000001,-3.3950000000000005,1.15946875,0.34118750000000003,0.24706250000000002,1.43396875,1.114125,-0.15821875,-0.3118125,1.404625,0.020672312605829024,0.02298779657008296,True
46154,179497,2,179496,4045.0,41361.0,30944.0,-0.0008539999999999999,-0.002562,0.00042699999999999997,0.07,-0.8400000000000001,-3.5175000000000005,1.1605,0.3375,0.24796875000000002,1.43353125,1.1162812500000001,-0.15828125,-0.30984375000000003,1.3959375,0.02052220705891484,0.02294595167852529,True
46155,179498,2,179497,4047.0,41364.0,30941.0,0.0018909999999999999,-0.003965,6.1e-05,0.07,-1.0850000000000002,-3.5700000000000003,1.1501875,0.33546875,0.24775,1.42825,1.11928125,-0.15934375,-0.3053125,1.40340625,0.020481206158590295,0.022754798976561196,True
46156,179499,2,179498,4047.0,41365.0,30945.0,0.002379,0.001037,-0.001098,0.2625,-1.2775,-3.6925000000000003,1.14675,0.33103125,0.24346875,1.43440625,1.12059375,-0.16175,-0.3091875,1.38884375,0.020395097623309568,0.022734459964982377,True
46157,179500,2,179499,4047.0,41363.0,30942.0,0.000488,0.000122,0.000366,0.1925,-1.225,-3.8325000000000005,1.14659375,0.3358125,0.2416875,1.44025,1.12025,-0.16078125000000001,-0.30643750000000003,1.38853125,0.020553712434278178,0.022550610306426022,True
46158,179501,2,179500,4049.0,41362.0,30942.0,-0.001952,-0.000366,0.000976,0.17500000000000002,-1.0150000000000001,-3.7450000000000006,1.1456875,0.33384375,0.243125,1.4340625,1.1138125,-0.16159375,-0.30921875,1.39071875,0.020505166386219863,0.022721575533973096,True
46159,179502,2,179501,4050.0,41362.0,30942.0,-0.001281,0.001586,-0.001281,0.2625,-0.9275000000000001,-3.6400000000000006,1.146125,0.3320625,0.24790625,1.435625,1.11634375,-0.15971875,-0.31034375000000003,1.4020000000000001,0.020355421149097604,0.02296347619518955,True
46160,179503,2,179502,4049.0,41362.0,30942.0,-0.000244,0.0030499999999999998,-0.0015249999999999999,0.4025,-0.9100000000000001,-3.5525,1.158875,0.33265625,0.24709375,1.433625,1.11684375,-0.15815625,-0.30993750000000003,1.389625,0.020316637367555727,0.022913726125375684,True
46161,179504,2,179503,4049.0,41362.0,30942.0,-0.002257,0.000366,0.001952,0.31500000000000006,-1.0150000000000001,-3.5875000000000004,1.1577187500000001,0.33359375,0.24721875000000001,1.43403125,1.11765625,-0.15862500000000002,-0.30759375,1.4019375,0.020374452188400623,0.022824657418013664,True
46162,179505,2,179504,4048.0,41365.0,30943.0,-0.0006709999999999999,-0.002013,0.001281,0.1925,-1.155,-3.4650000000000003,1.153875,0.3374375,0.246125,1.4359375,1.11653125,-0.15834375,-0.3105625,1.401375,0.02052215396595638,0.02289899709231327,True
46163,179506,2,179505,4049.0,41362.0,30943.0,-0.000488,-0.00061,-0.000244,0.28,-1.4175000000000002,-3.5000000000000004,1.1557187500000001,0.33559375,0.24671875000000001,1.4368125,1.118125,-0.1590625,-0.31025,1.40271875,0.02047497704018937,0.0229108606452011,True
46164,179507,2,179506,4050.0,41361.0,30944.0,0.0006709999999999999,0.000732,-0.001037,0.31500000000000006,-1.6800000000000002,-3.5175000000000005,1.14903125,0.3344375,0.2488125,1.43665625,1.1148437500000001,-0.1581875,-0.3103125,1.40465625,0.020391637410712204,0.022999498669546103,True
46165,179508,2,179507,4050.0,41361.0,30944.0,0.002196,0.000549,0.000915,0.22750000000000004,-1.8900000000000001,-3.6050000000000004,1.15115625,0.33871875,0.24631250000000002,1.44084375,1.113875,-0.15862500000000002,-0.3175,1.39278125,0.020586591745184173,0.023185463143826465,True
46166,179509,2,179508,4051.0,41361.0,30943.0,0.002806,-0.0026839999999999998,-0.0018909999999999999,0.15750000000000003,-1.5925000000000002,-3.6050000000000004,1.14840625,0.33678125000000003,0.245125,1.44,1.1107500000000001,-0.16625,-0.30493750000000003,1.39215625,0.02081544509388093,0.022631718349409455,True
46167,179510,2,179509,4051.0,41363.0,30943.0,-0.000305,-0.000183,-0.001586,0.35000000000000003,-1.4875,-3.6575,1.1405625,0.3365625,0.24259375,1.4415625,1.1415625,-0.1635,-0.3035,1.39271875,0.020694953131789682,0.022469757442343696,True
46168,179511,2,179510,4052.0,41363.0,30943.0,-0.002257,0.003172,-0.002013,0.49000000000000005,-1.3825,-3.6925000000000003,1.13596875,0.337125,0.2471875,1.4425625,1.12525,-0.166125,-0.3045,1.39696875,0.020824604689415452,0.022698985784525498,True
46169,179512,2,179511,4054.0,41363.0,30945.0,-0.003904,-0.000488,0.0006709999999999999,0.43750000000000006,-1.2775,-3.6400000000000006,1.14128125,0.337125,0.24381250000000002,1.43665625,1.131375,-0.15675,-0.307375,1.417375,0.02044459623086715,0.022675731130983912,True
46170,179513,2,179512,4053.0,41362.0,30946.0,-0.001586,-0.0025009999999999998,0.001952,0.665,-1.5225000000000002,-3.535,1.148875,0.33378125000000003,0.249,1.43684375,1.1255,-0.15453125,-0.31125,1.4197187500000001,0.020216186145197913,0.023044886626561775,True
46171,179514,2,179513,4052.0,41364.0,30947.0,-0.0057339999999999995,0.001281,-0.00061,1.0150000000000001,-2.0825,-3.6225000000000005,1.1511875,0.33390625,0.245625,1.4405000000000001,1.0969375000000001,-0.15962500000000002,-0.31546875,1.3891875,0.020427935036243322,0.02307558845642242,True
46172,179515,2,179514,4052.0,41362.0,30948.0,-0.003172,0.002013,0.001464,1.2075,-2.6775,-3.6225000000000005,1.1385,0.33590625,0.24525,1.43775,1.1320000000000001,-0.15803125,-0.3075625,1.4194375000000001,0.02044609905867226,0.022742407841181117,True
46173,179516,2,179515,4053.0,41362.0,30951.0,0.003843,0.00042699999999999997,0.002379,1.33,-3.0275000000000003,-3.8150000000000004,1.15528125,0.33915625,0.24534375,1.442375,1.1044375,-0.15771875,-0.31103125,1.39125,0.020567960292194393,0.022885701321288046,True
46174,179517,2,179516,4054.0,41361.0,30954.0,0.006222,-0.000732,0.0008539999999999999,1.3650000000000002,-3.3600000000000003,-3.8675,1.14928125,0.336,0.2425,1.436375,1.1099375,-0.165125,-0.29946875,1.40396875,0.020737529807936025,0.02230372834797057,True
46175,179518,2,179517,4054.0,41363.0,30955.0,0.004758,0.000976,0.001586,1.4175000000000002,-3.3600000000000003,-3.8500000000000005,1.14803125,0.33978125000000003,0.24625,1.43584375,1.13053125,-0.15428125,-0.31043750000000003,1.4024375,0.020454448422057687,0.022899114834934585,True
46176,179519,2,179518,4056.0,41363.0,30959.0,-0.000488,0.002562,-0.00061,0.9800000000000001,-3.1500000000000004,-4.095000000000001,1.15265625,0.3403125,0.24409375,1.43609375,1.10446875,-0.16421875,-0.30590625,1.3894375,0.020879270098479803,0.022628244935323078,True
46177,179520,2,179519,4055.0,41364.0,30963.0,-0.001586,6.1e-05,0.001769,0.9275000000000001,-2.9400000000000004,-4.1475,1.14846875,0.33503125,0.2495,1.43671875,1.1175625,-0.16153125000000002,-0.3098125,1.39815625,0.020551781046575845,0.023007684654087725,True
46178,179521,2,179520,4056.0,41365.0,30965.0,-0.0013419999999999999,0.0018909999999999999,0.000793,0.6825000000000001,-2.9050000000000002,-4.112500000000001,1.15078125,0.336125,0.24596875,1.42821875,1.12021875,-0.15859375,-0.310375,1.40359375,0.02047796138796365,0.022885033653327027,True
46179,179522,2,179521,4056.0,41361.0,30963.0,-0.000793,0.001769,0.000244,0.47250000000000003,-2.8875,-3.9725000000000006,1.1520625,0.33628125000000003,0.24525,1.43475,1.1201875000000001,-0.15953125,-0.31465625,1.4000000000000001,0.020522438737299593,0.023027520695465317,True
46180,179523,2,179522,4058.0,41361.0,30964.0,0.000183,-0.001281,-0.002928,0.29750000000000004,-2.8875,-3.9550000000000005,1.14928125,0.33646875,0.24531250000000002,1.43703125,1.11365625,-0.16190625,-0.31378125,1.39878125,0.02062647685341466,0.022994932143678804,True
46181,179524,2,179523,4060.0,41361.0,30963.0,0.0021349999999999997,0.000549,0.002013,0.07,-3.0450000000000004,-3.8325000000000005,1.14690625,0.33584375,0.24353125,1.4364375,1.1153125,-0.16178125000000002,-0.30940625,1.39878125,0.0205955428058517,0.02274582498287057,True
46182,179525,2,179524,4061.0,41364.0,30966.0,0.003538,-0.001037,-0.000732,-0.052500000000000005,-3.0275000000000003,-3.7975000000000003,1.14275,0.3344375,0.24306250000000001,1.4361875,1.117375,-0.16275,-0.3098125,1.3985625,0.020576610692077682,0.022742873890944242,True
46183,179526,2,179525,4061.0,41363.0,30964.0,0.004026,-0.00244,-0.0040869999999999995,-0.29750000000000004,-2.87,-3.7625,1.14934375,0.33340625,0.24609375,1.4355625,1.1205,-0.15975,-0.3045625,1.39878125,0.020412307660468344,0.022656497108310428,True
46184,179527,2,179526,4063.0,41363.0,30966.0,0.003294,-0.001647,0.000488,-0.3325,-2.765,-3.6575,1.15375,0.33725,0.24625,1.44425,1.12078125,-0.15912500000000002,-0.31125,1.40425,0.02054606696227616,0.022931770270965088,True
46185,179528,2,179527,4064.0,41365.0,30969.0,0.00244,-0.00366,-0.00061,-0.21000000000000002,-2.45,-3.7450000000000006,1.16175,0.33668750000000003,0.24496875,1.45178125,1.1126875,-0.15871875,-0.31365625,1.40509375,0.020506313067616636,0.022975771075154524,True
46186,179529,2,179528,4066.0,41364.0,30967.0,-0.000915,0.000122,6.1e-05,0.052500000000000005,-1.5750000000000002,-3.5875000000000004,1.14253125,0.33734375,0.24346875,1.4463125000000001,1.1142812500000001,-0.1544375,-0.3126875,1.39815625,0.02035987176269371,0.02287514492176153,True
46187,179530,2,179529,4069.0,41364.0,30967.0,-0.006588,0.0021349999999999997,0.000732,0.31500000000000006,-1.2600000000000002,-3.6225000000000005,1.1429375,0.33818750000000003,0.23946875,1.4332500000000001,1.1143125,-0.15909375,-0.312625,1.39821875,0.02058360529355535,0.022708109469874192,True
46188,179531,2,179530,4069.0,41363.0,30968.0,-0.008845,0.000732,0.002013,0.3325,-1.33,-3.6575,1.142375,0.3329375,0.24331250000000001,1.4314375000000001,1.10959375,-0.16234375,-0.3123125,1.39778125,0.020498063231138328,0.02285364668622123,True
46189,179532,2,179531,4070.0,41364.0,30970.0,-0.005063,0.001098,0.002379,0.28,-1.5050000000000001,-3.535,1.15984375,0.33128125,0.2480625,1.44978125,1.1196875,-0.15871875,-0.30853125,1.40425,0.020282532574290597,0.022897053889259555,True
46190,179533,2,179532,4071.0,41365.0,30971.0,-0.0021349999999999997,0.000244,0.000122,0.385,-1.9425000000000001,-3.5700000000000003,1.1399375,0.335125,0.24409375,1.4300625,1.11496875,-0.15953125,-0.31259375,1.398625,0.02047457977894335,0.02289708394440638,True
46191,179534,2,179533,4074.0,41366.0,30972.0,0.001037,0.00122,0.00061,0.31500000000000006,-2.5200000000000005,-3.6400000000000006,1.1565,0.33271875,0.24853125,1.43471875,1.1215,-0.15890625,-0.30909375,1.401875,0.020349638138109003,0.022938946459079745,True
46192,179535,2,179534,4076.0,41367.0,30972.0,0.002196,-0.001037,-0.000793,0.17500000000000002,-2.7475,-3.7100000000000004,1.1585,0.33828125000000003,0.24040625000000002,1.431875,1.1174375,-0.159,-0.31309375,1.398625,0.020583685169088126,0.022765510867986515,True
46193,179536,2,179535,4077.0,41368.0,30973.0,0.008113,-0.003294,-0.001403,0.12250000000000001,-2.8875,-3.6400000000000006,1.14575,0.33140625,0.24915625,1.4355625,1.11740625,-0.1583125,-0.31040625,1.40453125,0.020271231693024916,0.02301740638332607,True
46194,179537,2,179536,4077.0,41370.0,30976.0,0.0075639999999999995,0.000488,-0.0008539999999999999,0.24500000000000002,-2.7825,-3.6750000000000003,1.15896875,0.33759375,0.24125,1.440125,1.1186875,-0.15865625,-0.31146875,1.39246875,0.02054129148842871,0.02273489749565213,True
46195,179538,2,179537,4078.0,41369.0,30976.0,0.0013419999999999999,0.000183,-0.000976,0.1925,-2.2750000000000004,-3.7800000000000002,1.14240625,0.33275,0.2479375,1.44178125,1.1058125,-0.16078125000000001,-0.310625,1.40528125,0.020426957427132037,0.022976064992158776,True
46196,179539,2,179538,4082.0,41368.0,30974.0,-0.000244,-0.0017079999999999999,-0.0026839999999999998,0.0,-1.155,-3.5000000000000004,1.1521875,0.33725,0.24325,1.43584375,1.1090625,-0.16246875,-0.30925,1.40475,0.020681609779629826,0.022727973919392824,True
46197,179540,2,179539,4083.0,41372.0,30976.0,-0.003355,-0.000976,-0.000366,0.24500000000000002,-0.7525000000000001,-3.5700000000000003,1.15490625,0.33565625,0.24496875,1.4368125,1.11146875,-0.16271875,-0.30959375,1.40528125,0.020625783263731448,0.022812495581091316,True
46198,179541,2,179540,4084.0,41373.0,30978.0,-0.0050019999999999995,0.002196,0.002989,0.36750000000000005,-0.47250000000000003,-3.535,1.151125,0.33684375,0.2429375,1.4365625,1.113625,-0.16259375,-0.30946875,1.38921875,0.02066986289499653,0.022723912878597975,True
46199,179542,2,179541,4087.0,41372.0,30979.0,-0.00549,0.002074,0.003904,0.28,-0.42000000000000004,-3.4475000000000002,1.15546875,0.3365625,0.2426875,1.43865625,1.1145,-0.15790625,-0.31103125,1.39509375,0.020468195582967794,0.022776440221967138,True
46200,179543,2,179542,4088.0,41373.0,30980.0,-0.001403,0.000976,-0.001403,0.17500000000000002,-0.7000000000000001,-3.3425000000000002,1.14890625,0.334625,0.24231250000000001,1.43646875,1.1100625,-0.16184375,-0.30903125,1.402125,0.020547635153049942,0.022680613815081588,True
46201,179544,2,179543,4089.0,41374.0,30981.0,0.00183,0.002074,-0.0017079999999999999,0.12250000000000001,-0.8400000000000001,-3.43,1.14946875,0.3335625,0.2431875,1.43621875,1.1214375,-0.1573125,-0.31025,1.3986875,0.02031993418142022,0.02276560298639463,True
46202,179545,2,179544,4090.0,41371.0,30981.0,0.006588,-0.00122,-0.001098,-0.21000000000000002,-0.7175,-3.4650000000000003,1.15109375,0.33553125,0.2488125,1.4353437500000001,1.12096875,-0.1578125,-0.31009375,1.40528125,0.020421706228575125,0.022990707306507197,True
46203,179546,2,179545,4092.0,41373.0,30982.0,0.006954,-0.004514,-0.0013419999999999999,-0.36750000000000005,-0.3325,-3.4125000000000005,1.1573437500000001,0.34078125,0.24503125,1.4368750000000001,1.1138125,-0.15365625,-0.31046875,1.4056250000000001,0.02047050330113065,0.022850238130435064,True
46204,179547,2,179546,4092.0,41372.0,30981.0,0.0018909999999999999,-0.004331,0.00042699999999999997,-0.28,0.1925,-3.3950000000000005,1.14890625,0.33309375,0.2435,1.43778125,1.11965625,-0.1585625,-0.3058125,1.39909375,0.020351221228498178,0.022600046799505263,True
46205,179548,2,179547,4096.0,41373.0,30980.0,-0.008539999999999999,0.002989,0.001037,0.15750000000000003,0.8575,-3.4125000000000005,1.137125,0.33590625,0.24203125,1.43990625,1.11365625,-0.162375,-0.3125625,1.398375,0.020622196700448528,0.022810995344484976,True
46206,179549,2,179548,4094.0,41375.0,30978.0,-0.009637999999999999,0.001952,0.000793,0.10500000000000001,0.9100000000000001,-3.3950000000000005,1.1493125,0.33587500000000003,0.2420625,1.44128125,1.1179375,-0.15965625,-0.3085625,1.399125,0.020510691247935284,0.02265148340219624,True
46207,179550,2,179549,4094.0,41373.0,30975.0,-0.00671,0.000122,0.0013419999999999999,0.28,0.6300000000000001,-3.3425000000000002,1.1491875,0.33596875,0.24215625000000002,1.44209375,1.1147500000000001,-0.16115625,-0.30315625,1.3949375,0.02057538119683324,0.022437929229871124,True
46208,179551,2,179550,4092.0,41372.0,30977.0,-0.0032329999999999998,0.000915,0.002257,0.3325,-0.0175,-3.2725000000000004,1.14921875,0.337125,0.24353125,1.4366875000000001,1.1160625,-0.16128125000000001,-0.3096875,1.39859375,0.020628303807357074,0.022757131287681094,True
46209,179552,2,179551,4090.0,41373.0,30976.0,0.0008539999999999999,0.0008539999999999999,-0.000366,0.45500000000000007,-0.5950000000000001,-3.4125000000000005,1.14684375,0.33875,0.24953125,1.43665625,1.1206875,-0.15778125,-0.309625,1.402625,0.020553677709951115,0.02300143461694699,True
46210,179553,2,179552,4091.0,41374.0,30974.0,0.00488,0.000366,-0.000915,0.28,-1.0675000000000001,-3.4475000000000002,1.149375,0.3339375,0.24309375,1.4363125,1.118625,-0.15887500000000002,-0.31015625,1.3893125,0.020398818239673825,0.02275797795417296,True
46211,179554,2,179553,4087.0,41372.0,30971.0,0.003355,0.001403,-0.000549,0.17500000000000002,-1.1025,-3.535,1.13740625,0.33575,0.24631250000000002,1.437,1.12090625,-0.1576875,-0.31025,1.3986875,0.020425692649596528,0.022894149587108323,True
46212,179555,2,179554,4084.0,41371.0,30969.0,0.001647,-0.000366,-0.0017079999999999999,0.24500000000000002,-0.8575,-3.6050000000000004,1.15115625,0.33775,0.24609375,1.436625,1.1206875,-0.1580625,-0.308875,1.40540625,0.02052368645043451,0.0228298820903888,True
46213,179556,2,179555,4080.0,41371.0,30968.0,-0.000488,-0.000732,0.000366,0.24500000000000002,-0.805,-3.6400000000000006,1.15340625,0.33659375,0.24584375,1.4363125,1.1175,-0.15937500000000002,-0.31065625,1.406375,0.02052903893416117,0.022891196118985886,True
46214,179557,2,179556,4076.0,41368.0,30966.0,-0.003721,0.0021349999999999997,0.001403,0.17500000000000002,-0.805,-3.6750000000000003,1.15165625,0.33528125000000003,0.24528125,1.4372500000000001,1.116875,-0.15803125,-0.30584375,1.393,0.02042022774517274,0.0226745882870246,True
46215,179558,2,179557,4073.0,41368.0,30963.0,-0.003355,-0.000976,0.001647,0.17500000000000002,-1.2775,-3.6750000000000003,1.1439375,0.33771875,0.24603125,1.43703125,1.122,-0.16053125000000001,-0.30846875,1.39146875,0.020622476999548594,0.02281098022679853,True
46216,179559,2,179558,4068.0,41367.0,30963.0,0.000305,-0.001037,0.000488,0.1925,-1.5575,-3.6050000000000004,1.1500625,0.3345,0.24415625,1.43746875,1.1260625,-0.1600625,-0.30446875,1.3953125,0.020470249197409984,0.02257300933598888,True
46217,179560,2,179559,4066.0,41367.0,30961.0,0.0032329999999999998,-0.00061,0.00042699999999999997,0.10500000000000001,-1.9250000000000003,-3.5175000000000005,1.1505625,0.33703125,0.24428125,1.4500625,1.12253125,-0.16325,-0.31290625,1.3981875000000001,0.020704220251828706,0.022917354851397082,True
46218,179561,2,179560,4065.0,41365.0,30959.0,0.002928,-0.000549,0.000549,-0.0175,-2.0300000000000002,-3.535,1.15046875,0.337,0.23450000000000001,1.434125,1.112,-0.15978125,-0.31290625,1.39665625,0.020562324006969227,0.02251504794907026,True
46219,179562,2,179561,4061.0,41367.0,30959.0,0.005246,-0.001464,-0.0018909999999999999,0.0175,-1.8900000000000001,-3.6050000000000004,1.1439062500000001,0.33053125,0.242625,1.4263125,1.11321875,-0.164875,-0.31075,1.39603125,0.0205010888738303,0.02276256388634658,True
46220,179563,2,179562,4059.0,41362.0,30955.0,0.003477,-0.002196,-0.0017079999999999999,-0.12250000000000001,-1.2425000000000002,-3.5525,1.1419375,0.3295625,0.25084375000000003,1.4266875,1.1167500000000001,-0.15871875,-0.30859375,1.39615625,0.020211388486817,0.02301398039530773,True
46221,179564,2,179563,4058.0,41366.0,30957.0,-0.000732,-0.002562,-0.0017079999999999999,-0.035,-0.7350000000000001,-3.5000000000000004,1.14378125,0.325625,0.2480625,1.42846875,1.11540625,-0.16259375,-0.3083125,1.39509375,0.02020556050610254,0.02288826096011395,True
46222,179565,2,179564,4056.0,41361.0,30956.0,-0.00183,-0.00042699999999999997,0.000244,0.2625,-0.385,-3.5525,1.160375,0.32556250000000003,0.25215625,1.4273437500000001,1.12615625,-0.1601875,-0.30828125,1.400625,0.020105390324474923,0.023055414499945363,True
46223,179566,2,179565,4055.0,41361.0,30953.0,-0.0015249999999999999,0.0017079999999999999,0.00122,0.3325,-0.3325,-3.6050000000000004,1.16840625,0.32478125,0.25265625,1.4291875,1.12465625,-0.15903125,-0.3095,1.40275,0.020026154815292935,0.023124961434830005,True
46224,179567,2,179566,4052.0,41362.0,30953.0,-0.003355,0.00122,-0.000793,0.525,-0.21000000000000002,-3.7625,1.17225,0.34884375,0.246125,1.4561250000000001,1.11371875,-0.15753125,-0.31259375,1.4049375,0.020961372035894602,0.022980631180085424,True
46225,179568,2,179567,4053.0,41359.0,30954.0,-0.011833999999999999,0.0015249999999999999,0.0044529999999999995,0.5775,-1.1900000000000002,-3.535,1.14196875,0.3354375,0.2365625,1.42165625,1.1118125,-0.15878125,-0.311625,1.3978125000000001,0.02045710604710244,0.02254836935005373,True
46226,179569,2,179568,4051.0,41360.0,30951.0,-0.0025009999999999998,0.001281,0.006222,0.525,-1.9600000000000002,-3.5525,1.1373125,0.33121875,0.23921875,1.42675,1.1146562500000001,-0.16140625,-0.311125,1.3991875,0.020388920864239844,0.022637527058085548,True
46227,179570,2,179569,4051.0,41358.0,30953.0,0.009943,-0.0018909999999999999,-0.000183,0.385,-2.555,-3.5525,1.1399062500000001,0.32415625,0.24609375,1.42834375,1.1175,-0.16084375,-0.30993750000000003,1.39921875,0.020073802265287193,0.022872590684365188,True
46228,179571,2,179570,4051.0,41359.0,30952.0,0.012078,-0.000305,-0.0055509999999999995,0.3325,-2.66,-3.5000000000000004,1.13653125,0.32878125,0.24459375,1.4318125,1.119,-0.15965625,-0.30853125,1.3985625,0.020217071590163872,0.022754357073712546,True
46229,179572,2,179571,4051.0,41360.0,30953.0,0.0066489999999999995,0.0028669999999999998,-0.0051849999999999995,0.22750000000000004,-2.555,-3.5525,1.141875,0.33665625,0.247,1.44221875,1.1138125,-0.1593125,-0.31003125,1.3983125,0.020529092042664707,0.022913637760132454,True
46230,179573,2,179572,4051.0,41358.0,30952.0,-6.1e-05,-0.0028669999999999998,0.002562,0.24500000000000002,-1.8725000000000003,-3.5700000000000003,1.14890625,0.3365625,0.24309375,1.43634375,1.1220625,-0.1624375,-0.3083125,1.40096875,0.02065188994280896,0.022683855574096308,True
46231,179574,2,179573,4051.0,41359.0,30954.0,-0.000915,-0.002989,0.002928,0.1925,-1.5925000000000002,-3.6575,1.14884375,0.33228125000000003,0.24478125,1.4371562500000001,1.1214375,-0.1575,-0.30643750000000003,1.39984375,0.020274500672668946,0.022677891402226265,True
46232,179575,2,179574,4050.0,41360.0,30956.0,-0.000793,-6.1e-05,0.0023179999999999997,0.42000000000000004,-1.4700000000000002,-3.6575,1.14975,0.335125,0.2499375,1.437375,1.11871875,-0.15796875,-0.310625,1.4028125,0.020411225591969524,0.02305833354757436,True
46233,179576,2,179575,4050.0,41360.0,30956.0,-0.002013,0.0008539999999999999,-0.002806,0.49000000000000005,-1.5225000000000002,-3.6225000000000005,1.1549375,0.33590625,0.24756250000000002,1.4424375,1.113875,-0.16271875,-0.31071875,1.3900625,0.02063612978154621,0.0229644074180242,True
46234,179577,2,179576,4051.0,41362.0,30954.0,-0.002074,0.001098,-0.001464,0.43750000000000006,-1.4875,-3.6575,1.14978125,0.33621875,0.24909375,1.439125,1.12140625,-0.16228125000000002,-0.30928125,1.3990625,0.02063133008188124,0.02296962194223657,True
46235,179578,2,179577,4052.0,41364.0,30954.0,-0.0026839999999999998,0.000244,0.001403,0.56,-1.7675,-3.6400000000000006,1.14903125,0.33587500000000003,0.24425,1.43578125,1.12096875,-0.15540625,-0.3098125,1.39821875,0.020338355932225317,0.022791722478320228,True
46236,179579,2,179578,4052.0,41364.0,30955.0,-0.000244,0.002379,-0.001281,0.5425000000000001,-1.8375000000000001,-3.5175000000000005,1.1490625,0.33740625,0.2446875,1.4367812500000001,1.12153125,-0.1556875,-0.310375,1.4034375000000001,0.020413153217021873,0.022832329818030368,True
46237,179580,2,179579,4053.0,41365.0,30955.0,-6.1e-05,0.0021349999999999997,-0.001647,0.5425000000000001,-1.9600000000000002,-3.4125000000000005,1.156625,0.3338125,0.246,1.43303125,1.1135625,-0.1580625,-0.3141875,1.4046875,0.020360697386224577,0.0230395319605066,True
46238,179581,2,179580,4055.0,41363.0,30955.0,0.003538,0.001403,-0.000793,0.47250000000000003,-1.9250000000000003,-3.4825000000000004,1.14821875,0.33696875,0.24240625000000002,1.4381875,1.113875,-0.16115625,-0.312,1.3984375,0.02061676994452614,0.022803810875287923,True
46239,179582,2,179581,4054.0,41365.0,30957.0,0.0042699999999999995,-0.00183,-0.000183,0.35000000000000003,-1.715,-3.6050000000000004,1.1486875,0.33284375,0.24609375,1.44421875,1.11925,-0.15828125,-0.3123125,1.399875,0.02032946776791085,0.022968043455347982,True
46240,179583,2,179582,4054.0,41364.0,30954.0,0.0011589999999999999,-0.000305,-0.000305,0.3325,-1.2425000000000002,-3.5000000000000004,1.148375,0.33215625,0.2498125,1.43853125,1.11365625,-0.1615625,-0.31040625,1.4053437500000001,0.020434057193114065,0.02304440099597266,True
46241,179584,2,179583,4055.0,41367.0,30957.0,-6.1e-05,0.000122,-0.002013,0.2625,-0.9975,-3.535,1.1495,0.33596875,0.24384375,1.43671875,1.10621875,-0.1620625,-0.3096875,1.4003125,0.020612116618769608,0.02276998624519546,True
46242,179585,2,179584,4057.0,41367.0,30956.0,-0.0008539999999999999,-0.0008539999999999999,-0.00061,0.35000000000000003,-0.8225000000000001,-3.6400000000000006,1.14165625,0.3354375,0.24590625,1.43684375,1.11553125,-0.15934375,-0.3096875,1.40325,0.020479912663190613,0.022854828964790273,True
46243,179586,2,179585,4056.0,41366.0,30957.0,-0.0030499999999999998,-0.0018909999999999999,0.000793,0.385,-0.7875000000000001,-3.6050000000000004,1.15653125,0.33775,0.2454375,1.44215625,1.11384375,-0.15871875,-0.312625,1.3989375,0.02055029304896395,0.02295360949301032,True
46244,179587,2,179586,4057.0,41366.0,30956.0,-0.0026839999999999998,-0.001464,0.0006709999999999999,0.49000000000000005,-0.8400000000000001,-3.6225000000000005,1.1360000000000001,0.33696875,0.242,1.44153125,1.11434375,-0.15971875,-0.3103125,1.398375,0.02055849677471928,0.02271926780044477,True
46245,179588,2,179587,4057.0,41365.0,30957.0,-0.005307,0.002806,-0.00042699999999999997,0.7875000000000001,-1.2425000000000002,-3.6400000000000006,1.1420937500000001,0.3364375,0.244125,1.4405625,1.11921875,-0.15787500000000002,-0.31028125,1.39959375,0.02046175418988632,0.022805423117019677,True
46246,179589,2,179588,4058.0,41367.0,30958.0,-0.00366,0.0034159999999999998,0.0013419999999999999,0.7525000000000001,-1.5750000000000002,-3.6925000000000003,1.149375,0.33718750000000003,0.24359375,1.43984375,1.11609375,-0.1615,-0.31,1.39978125,0.020639757465389156,0.02277226450020568,True
46247,179590,2,179589,4058.0,41365.0,30958.0,0.000549,0.000244,0.002013,0.6475000000000001,-1.8550000000000002,-3.6400000000000006,1.1560625,0.3370625,0.24484375,1.442375,1.113875,-0.15884375,-0.3126875,1.39909375,0.02052690332085947,0.02293169975552888,True
46248,179591,2,179590,4058.0,41367.0,30956.0,0.005673,-0.000976,0.000122,0.5425000000000001,-2.0475000000000003,-3.4825000000000004,1.15303125,0.33684375,0.24556250000000002,1.442125,1.1086562500000001,-0.16396875,-0.31540625,1.3993125,0.020725589624014062,0.023070506995950358,True
46249,179592,2,179591,4060.0,41365.0,30956.0,0.0068319999999999995,-0.001769,-0.0017079999999999999,0.42000000000000004,-2.0125,-3.4650000000000003,1.15640625,0.33659375,0.24506250000000002,1.44103125,1.1035625,-0.16753125,-0.3065,1.38925,0.020859598557465404,0.02269197539752741,True
46250,179593,2,179592,4060.0,41365.0,30957.0,0.0046359999999999995,0.0,-0.0034159999999999998,0.3325,-1.5925000000000002,-3.5525,1.1536250000000001,0.3383125,0.24203125,1.44303125,1.1184375,-0.166375,-0.306125,1.393375,0.020883872736395095,0.022552185920215583,True
46251,179594,2,179593,4061.0,41365.0,30957.0,0.002074,-0.0006709999999999999,0.0008539999999999999,0.24500000000000002,-1.0325000000000002,-3.5175000000000005,1.14921875,0.33646875,0.243375,1.436375,1.12684375,-0.16121875,-0.30734375,1.4049375,0.020598609082995864,0.02265647598783804,True
46252,179595,2,179594,4062.0,41365.0,30957.0,-0.0018909999999999999,0.00061,0.000305,0.35000000000000003,-0.5775,-3.5175000000000005,1.14803125,0.336,0.24306250000000001,1.4361875,1.12278125,-0.1563125,-0.31053125,1.41378125,0.020380283621517153,0.02277176686544026,True
46253,179596,2,179595,4063.0,41367.0,30962.0,-0.0030499999999999998,-0.000244,0.000915,0.4025,-0.24500000000000002,-3.4125000000000005,1.15471875,0.3360625,0.24528125,1.44275,1.1085,-0.1600625,-0.315625,1.3941875000000001,0.020534922043351504,0.023067729083665337,True
46254,179597,2,179596,4064.0,41368.0,30961.0,-0.003294,0.000122,-0.000366,0.35000000000000003,-0.14,-3.4650000000000003,1.15184375,0.336375,0.24271875,1.43740625,1.11503125,-0.16028125000000001,-0.30609375,1.39978125,0.0205567246863072,0.02257921431739726,True
46255,179598,2,179597,4065.0,41370.0,30963.0,-0.004026,0.00122,0.001098,0.5425000000000001,0.1925,-3.4650000000000003,1.14859375,0.33515625,0.25084375000000003,1.435625,1.12465625,-0.1563125,-0.30709375,1.4144375,0.020345354863247445,0.022953690216462014,True
46256,179599,2,179598,4063.0,41368.0,30963.0,-0.007503,0.0025009999999999998,0.0006709999999999999,0.5425000000000001,0.1925,-3.5175000000000005,1.15746875,0.33753125,0.2449375,1.44340625,1.107625,-0.16284375,-0.31115625,1.3928125,0.020708448276085055,0.022874014887712305,True
46257,179600,2,179599,4065.0,41369.0,30965.0,-0.008418,0.001586,0.001037,0.525,-0.5075000000000001,-3.43,1.14896875,0.3345625,0.24653125,1.4367812500000001,1.12746875,-0.156125,-0.3115625,1.4088125,0.020313171090147943,0.022955898042340966,True
46258,179601,2,179600,4066.0,41369.0,30967.0,-0.005063,0.0011589999999999999,0.002562,0.43750000000000006,-1.1025,-3.3775000000000004,1.1530625,0.34246875,0.2455,1.44109375,1.1074375,-0.15953125,-0.30865625,1.3934375,0.020778548838773517,0.02279666322567707,True
46259,179602,2,179601,4068.0,41368.0,30964.0,0.008723,-0.001464,-0.0013419999999999999,0.1925,-1.7675,-3.3425000000000002,1.1493125,0.3343125,0.250125,1.4309375,1.12134375,-0.15721875,-0.3096875,1.4029375,0.020347178832414225,0.023028370891234207,True
46260,179603,2,179602,4070.0,41370.0,30965.0,0.007259,-0.002623,-0.002257,0.052500000000000005,-2.1175,-3.3600000000000003,1.15609375,0.3373125,0.24453125,1.4408750000000001,1.11359375,-0.15925,-0.31315625,1.39884375,0.02055372165940582,0.022937684201326188,True
46261,179604,2,179603,4070.0,41370.0,30967.0,0.004148,0.0,-0.001647,0.17500000000000002,-2.0125,-3.325,1.1499062500000001,0.3346875,0.24528125,1.43575,1.1203125,-0.16078125000000001,-0.3093125,1.3995,0.020507149370428576,0.022814045029039796,True
46262,179605,2,179604,4071.0,41370.0,30966.0,0.0042699999999999995,0.001403,-0.000793,0.14,-1.7850000000000001,-3.4125000000000005,1.1533437500000001,0.33678125000000003,0.246375,1.4368125,1.12125,-0.15834375,-0.3101875,1.4048125,0.02049498943817289,0.022894208446561756,True
46263,179606,2,179605,4074.0,41370.0,30969.0,0.002928,6.1e-05,-0.000366,0.15750000000000003,-1.54,-3.43,1.1539062500000001,0.33671875,0.245125,1.44346875,1.1144375,-0.15884375,-0.31390625,1.39903125,0.020512674576985912,0.02299224337923899,True
46264,179607,2,179606,4077.0,41371.0,30966.0,-0.002196,-0.000976,0.000915,0.15750000000000003,-0.5950000000000001,-3.5875000000000004,1.15509375,0.33759375,0.24515625,1.44265625,1.115,-0.15912500000000002,-0.312375,1.3994375000000001,0.020560295540504883,0.0229319945089692,True
46265,179608,2,179607,4076.0,41370.0,30971.0,-0.007991,-0.0028669999999999998,-0.000244,0.0175,-0.45500000000000007,-3.6400000000000006,1.14975,0.33668750000000003,0.24353125,1.43675,1.11415625,-0.15987500000000002,-0.31028125,1.39075,0.020553189948209583,0.022780999294280072,True
46266,179609,2,179608,4078.0,41370.0,30968.0,-0.00671,-0.000488,0.001464,0.17500000000000002,-0.45500000000000007,-3.5175000000000005,1.1489375,0.33384375,0.24603125,1.43603125,1.1205625000000001,-0.15840625,-0.3096875,1.40409375,0.020375930220976394,0.02285997094779602,True
46267,179610,2,179609,4081.0,41372.0,30971.0,-0.004514,0.000366,-0.000488,0.22750000000000004,-0.8925000000000001,-3.4125000000000005,1.1546875,0.342375,0.24678125,1.4451875,1.11378125,-0.1585,-0.31103125,1.40240625,0.020732868348614358,0.02294483085739113,True
46268,179611,2,179610,4081.0,41375.0,30971.0,-0.003721,-0.000793,0.000305,0.385,-1.3650000000000002,-3.3950000000000005,1.15271875,0.336375,0.24025,1.43025,1.1139375,-0.1600625,-0.30940625,1.39834375,0.020547856612539807,0.0226108463673398,True
46269,179612,2,179611,4082.0,41373.0,30973.0,0.005673,0.0015249999999999999,-0.000549,0.5425000000000001,-2.2225,-3.2550000000000003,1.14671875,0.3308125,0.24559375,1.4345937500000001,1.12009375,-0.1598125,-0.3095,1.4035,0.020307483760480343,0.022834437154198972,True
46270,179613,2,179612,4084.0,41373.0,30974.0,0.009699,0.00122,-0.0021349999999999997,0.5075000000000001,-2.2575000000000003,-3.1850000000000005,1.1459062500000001,0.33303125,0.24603125,1.43396875,1.120625,-0.1576875,-0.309625,1.40628125,0.02031315083449109,0.022857458722625297,True
46271,179614,2,179613,4086.0,41376.0,30977.0,0.007259,0.0008539999999999999,-0.001403,0.5775,-1.9600000000000002,-3.2550000000000003,1.1613125,0.33271875,0.24706250000000002,1.43665625,1.12,-0.15887500000000002,-0.3033125,1.4053125,0.020348370940285923,0.02264608991058318,True
46272,179615,2,179614,4086.0,41375.0,30975.0,0.0037819999999999998,0.0023179999999999997,-0.00042699999999999997,0.6125,-1.5225000000000002,-3.3600000000000003,1.16128125,0.3388125,0.24606250000000002,1.4469375,1.1140625,-0.15921875,-0.314375,1.40596875,0.020614542844023052,0.02304963627483742,True
46273,179616,2,179615,4088.0,41376.0,30977.0,0.000488,0.0030499999999999998,0.00061,0.49000000000000005,-0.9100000000000001,-3.4125000000000005,1.156,0.33690625,0.24178125,1.4351875,1.11309375,-0.16075,-0.30884375000000003,1.39875,0.020597715302712045,0.02265122132762896,True
46274,179617,2,179616,4088.0,41375.0,30979.0,-0.005307,-0.00061,0.00061,0.29750000000000004,0.0,-3.5000000000000004,1.14525,0.33171875,0.24653125,1.43934375,1.11996875,-0.15846875,-0.3106875,1.4035312500000001,0.020290503718287195,0.02292073187975453,True
46275,179618,2,179617,4091.0,41375.0,30980.0,-0.00549,-0.000915,0.0008539999999999999,0.08750000000000001,0.14,-3.4825000000000004,1.1594375000000001,0.3449375,0.2464375,1.44715625,1.1141875,-0.16,-0.30453125000000003,1.4013125,0.0208997309602649,0.0226693839240368,True
46276,179619,2,179618,4091.0,41377.0,30979.0,-0.0060999999999999995,-0.0018909999999999999,-0.000366,0.052500000000000005,0.10500000000000001,-3.4125000000000005,1.1504375,0.3380625,0.24481250000000002,1.44540625,1.1144687500000001,-0.15925,-0.31193750000000003,1.39896875,0.020584765669464076,0.02290027275695325,True
46277,179620,2,179619,4094.0,41374.0,30979.0,-0.0055509999999999995,-0.0021349999999999997,0.000366,0.035,0.07,-3.3950000000000005,1.1529375,0.33771875,0.24546875,1.44309375,1.1061875,-0.15812500000000002,-0.31221875,1.40146875,0.020524926913822992,0.02293856869809548,True
46278,179621,2,179620,4094.0,41375.0,30979.0,-0.003843,-0.0025009999999999998,0.00122,0.21000000000000002,-0.24500000000000002,-3.5175000000000005,1.1554375000000001,0.33753125,0.24675,1.44046875,1.11440625,-0.15853125,-0.30990625,1.4028125,0.02053363653885209,0.022898329770399666,True
46279,179622,2,179621,4092.0,41375.0,30977.0,0.001037,0.0008539999999999999,-0.00061,0.3325,-1.2075,-3.4125000000000005,1.155125,0.34168750000000003,0.2459375,1.43825,1.113125,-0.15865625,-0.31221875,1.403,0.020710744207886152,0.022957849126789387,True
46280,179623,2,179622,4092.0,41372.0,30976.0,0.003172,0.00122,-0.000549,0.36750000000000005,-1.5750000000000002,-3.4125000000000005,1.1550625,0.33696875,0.2455,1.431,1.11365625,-0.15821875,-0.31221875,1.4008125,0.020497682595079572,0.022939854060008407,True
46281,179624,2,179623,4090.0,41373.0,30973.0,0.003294,0.0008539999999999999,-0.002257,0.29750000000000004,-1.7675,-3.4475000000000002,1.1559062500000001,0.33665625,0.24384375,1.44175,1.11459375,-0.16090625,-0.30178125,1.3996875,0.020593701860831485,0.022452057912421542,True
46282,179625,2,179624,4088.0,41371.0,30972.0,0.0034159999999999998,-0.000244,-0.000183,0.385,-1.8550000000000002,-3.5000000000000004,1.14925,0.3419375,0.24521875,1.43765625,1.124125,-0.15712500000000001,-0.30815625,1.42071875,0.020659018819499424,0.022764992717207833,True
46283,179626,2,179625,4087.0,41371.0,30971.0,0.002928,-6.1e-05,0.000366,0.35000000000000003,-1.7850000000000001,-3.4825000000000004,1.154,0.337,0.244875,1.4408125,1.1110625,-0.15925,-0.312625,1.38546875,0.020540786655214877,0.0229304733651755,True
46284,179627,2,179626,4082.0,41370.0,30968.0,-0.000122,0.000793,-0.001098,0.36750000000000005,-1.61,-3.535,1.15565625,0.336,0.2454375,1.44175,1.1106875,-0.16903125,-0.307625,1.38778125,0.02089580028161038,0.022752634204287747,True
46285,179628,2,179627,4080.0,41369.0,30969.0,-0.00244,0.00042699999999999997,0.001281,0.4025,-1.6275000000000002,-3.535,1.15671875,0.33696875,0.24521875,1.436375,1.1119375,-0.17228125,-0.3149375,1.3916250000000001,0.02106751922721402,0.02303753608250073,True
46286,179629,2,179628,4076.0,41368.0,30967.0,-0.003111,0.00122,0.0023179999999999997,0.49000000000000005,-1.5575,-3.6575,1.1566875,0.33290625,0.240875,1.43721875,1.10178125,-0.15371875000000002,-0.3133125,1.41821875,0.02014700117347355,0.02279358273373898,True
46287,179630,2,179629,4073.0,41366.0,30965.0,-0.0032329999999999998,-0.002562,-0.000793,0.5425000000000001,-1.7850000000000001,-3.7975000000000003,1.1491875,0.33403125,0.24575,1.43690625,1.119875,-0.1551875,-0.31325000000000003,1.4175312500000001,0.020253154731255968,0.022991578665953753,True
46288,179631,2,179630,4067.0,41365.0,30966.0,-0.005063,-0.0037819999999999998,0.000122,0.8400000000000001,-2.345,-3.7100000000000004,1.1558125000000001,0.3363125,0.24484375,1.4436875,1.1028125,-0.16353125000000002,-0.3115,1.38909375,0.020685873468928515,0.022883974662196906,True
46289,179632,2,179631,4065.0,41363.0,30967.0,0.00183,0.003111,0.00183,1.05,-3.08,-3.9725000000000006,1.149,0.33584375,0.2495,1.44328125,1.1226875,-0.16718750000000002,-0.301875,1.38925,0.02081463761556863,0.022688578556181362,True
46290,179633,2,179632,4060.0,41363.0,30969.0,0.0028669999999999998,0.000366,0.000793,1.0150000000000001,-3.3600000000000003,-3.8850000000000002,1.1383125,0.33615625,0.2435,1.44346875,1.1148125,-0.16584375,-0.29765625,1.38878125,0.02077312115369446,0.022271952670332145,True
46291,179634,2,179633,4059.0,41362.0,30968.0,0.002379,-0.001647,-0.002623,0.9975,-3.6050000000000004,-3.8325000000000005,1.154875,0.33725,0.24509375,1.4388750000000001,1.1144375,-0.16296875,-0.318625,1.4037187500000001,0.02070187464030056,0.02318053549491388,True
46292,179635,2,179634,4058.0,41362.0,30968.0,0.0032329999999999998,0.001647,-0.000244,1.0150000000000001,-3.8150000000000004,-3.9025000000000003,1.145375,0.34478125,0.24471875,1.43703125,1.10215625,-0.15978125,-0.31834375,1.4068125,0.02088439852906367,0.023153817784157277,True
46293,179636,2,179635,4055.0,41360.0,30973.0,0.004209,0.002196,0.001464,0.8925000000000001,-3.8675,-3.9200000000000004,1.14865625,0.337625,0.2459375,1.436,1.10803125,-0.15753125,-0.30893750000000003,1.3955,0.020496972346874226,0.02282596678690708,True
46294,179637,2,179636,4052.0,41363.0,30974.0,0.004941,-6.1e-05,6.1e-05,0.5075000000000001,-3.325,-3.8150000000000004,1.14940625,0.3353125,0.2420625,1.43675,1.1114375,-0.15984375,-0.31025,1.3983125,0.02049501044475919,0.022719326210137697,True
46295,179638,2,179637,4051.0,41362.0,30974.0,0.005124,0.001037,-0.000366,0.28,-2.8000000000000003,-3.8675,1.1445625,0.33559375,0.24496875,1.4369687500000001,1.116625,-0.16315625,-0.31,1.3980937500000001,0.020640929307403705,0.02282882558617853,True
46296,179639,2,179638,4049.0,41362.0,30974.0,0.000488,-0.000549,-0.002013,0.08750000000000001,-2.2750000000000004,-3.7975000000000003,1.1490625,0.33428125000000003,0.24231250000000001,1.4372500000000001,1.12225,-0.1628125,-0.3101875,1.39909375,0.020572677539090284,0.02272709743600291,True
46297,179640,2,179639,4046.0,41362.0,30972.0,-0.001952,0.0006709999999999999,-0.0017079999999999999,0.052500000000000005,-1.9600000000000002,-3.6575,1.15365625,0.3345625,0.245375,1.44121875,1.117625,-0.15837500000000002,-0.3100625,1.4061875,0.020404414618118975,0.02284804903319356,True
46298,179641,2,179640,4045.0,41364.0,30974.0,-0.002806,0.0023179999999999997,0.000305,-0.0175,-1.5750000000000002,-3.7275000000000005,1.14575,0.33584375,0.244375,1.433,1.1145,-0.16084375,-0.3045625,1.3970625,0.020557539510597595,0.02258577993329442,True
46299,179642,2,179641,4044.0,41362.0,30973.0,-0.000549,-0.0035989999999999998,-6.1e-05,-0.29750000000000004,-1.0850000000000002,-3.7275000000000005,1.149875,0.33590625,0.2446875,1.4394375,1.1218125,-0.15853125,-0.3108125,1.40421875,0.02046637251592023,0.022849915032662933,True
46300,179643,2,179642,4044.0,41362.0,30975.0,0.000183,-0.003477,-0.0006709999999999999,-0.2625,-1.05,-3.5700000000000003,1.1525625,0.3373125,0.24353125,1.43065625,1.1145625000000001,-0.15953125,-0.311125,1.3953125,0.020565123754211913,0.02281491498233833,True
46301,179644,2,179643,4045.0,41360.0,30974.0,-0.003721,-0.000183,-0.000183,-0.15750000000000003,-1.0325000000000002,-3.5525,1.14934375,0.33575,0.24521875,1.44653125,1.12034375,-0.15846875,-0.31134375000000003,1.3986875,0.020457370668412085,0.02289311959566201,True
46302,179645,2,179644,4040.0,41360.0,30974.0,-0.004575,0.002257,0.0017079999999999999,0.08750000000000001,-1.05,-3.6575,1.153125,0.33596875,0.24075,1.45,1.11409375,-0.1594375,-0.3125,1.3941875000000001,0.020505702999086797,0.02275578406169666,True
46303,179646,2,179645,4043.0,41360.0,30975.0,-0.005063,0.000183,0.00061,0.0175,-1.225,-3.7100000000000004,1.1469375,0.3356875,0.23753125,1.4374375,1.109875,-0.1628125,-0.31321875,1.3998125000000001,0.020630876475989705,0.02265228662905852,True
46304,179647,2,179646,4043.0,41359.0,30973.0,6.1e-05,-0.002745,-0.000732,0.17500000000000002,-2.3275,-3.6925000000000003,1.14396875,0.3319375,0.2441875,1.43121875,1.1146562500000001,-0.160875,-0.3118125,1.3990625,0.020397129656935024,0.022869541298082982,True
46305,179648,2,179647,4045.0,41357.0,30971.0,0.002074,-0.000305,-0.000793,0.29750000000000004,-2.7475,-3.6925000000000003,1.137375,0.32925,0.2491875,1.4345625,1.11,-0.15887500000000002,-0.310125,1.3986875,0.020204790165104958,0.023007388896601724,True
46306,179649,2,179648,4044.0,41357.0,30974.0,0.0025009999999999998,0.002074,0.000976,0.43750000000000006,-3.115,-3.6400000000000006,1.16284375,0.33868750000000003,0.23634375,1.4345937500000001,1.12009375,-0.15871875,-0.30793750000000003,1.3984375,0.02058909891485864,0.022391091387329757,True
46307,179650,2,179649,4045.0,41357.0,30974.0,0.004331,0.0015249999999999999,0.0015249999999999999,0.43750000000000006,-3.22,-3.7975000000000003,1.1459375,0.33084375,0.24896875000000002,1.44140625,1.11490625,-0.15328125,-0.31003125,1.40503125,0.020043860500320223,0.022994622847307113,True
46308,179651,2,179650,4045.0,41357.0,30975.0,0.007076,0.000976,-0.001464,0.385,-3.0975,-3.6925000000000003,1.15978125,0.33821875,0.24821875000000002,1.4503125000000001,1.1198125,-0.15859375,-0.31390625,1.404875,0.020564628270219577,0.023119485376809825,True
46309,179652,2,179651,4045.0,41360.0,30974.0,0.00366,0.0017079999999999999,-0.00122,0.2625,-2.415,-3.7975000000000003,1.1506875,0.33815625,0.24390625000000002,1.45215625,1.11378125,-0.15875,-0.31375000000000003,1.40609375,0.020568375847260307,0.02293583877435608,True
46310,179653,2,179652,4046.0,41359.0,30976.0,0.001281,0.0015249999999999999,-0.0008539999999999999,0.14,-1.9250000000000003,-3.7975000000000003,1.1318125,0.3341875,0.237625,1.4288125,1.115,-0.16009375,-0.31259375,1.39821875,0.02045858162284656,0.022631018132320824,True
46311,179654,2,179653,4047.0,41360.0,30976.0,-0.000793,0.001037,0.000122,0.035,-1.5050000000000001,-3.7275000000000005,1.14284375,0.33237500000000003,0.2391875,1.437,1.113875,-0.15715625,-0.3125625,1.399375,0.020264440273262713,0.02269402906419264,True
46312,179655,2,179654,4047.0,41359.0,30975.0,-0.004026,0.00061,0.000793,0.0,-1.155,-3.7275000000000005,1.14321875,0.3355625,0.24321875,1.43634375,1.11425,-0.16128125000000001,-0.31084375000000003,1.3936250000000001,0.020563634223661052,0.02279075566844528,True
46313,179656,2,179655,4047.0,41359.0,30974.0,-0.003965,-0.0013419999999999999,0.001769,-0.035,-1.0675000000000001,-3.5875000000000004,1.141875,0.33037500000000003,0.24606250000000002,1.4360625,1.11596875,-0.16040625,-0.30996875,1.39875,0.02031345188990769,0.02287256128208721,True
46314,179657,2,179656,4048.0,41359.0,30976.0,6.1e-05,-0.00122,-0.001281,-0.0175,-1.1375000000000002,-3.4825000000000004,1.14740625,0.3344375,0.24515625,1.43640625,1.1208125,-0.15812500000000002,-0.309125,1.404125,0.020389103045041785,0.022801365742288127,True
46315,179658,2,179657,4047.0,41358.0,30976.0,0.002074,-0.002806,-0.001037,0.21000000000000002,-1.1900000000000002,-3.4650000000000003,1.15578125,0.33475,0.24565625,1.4406875000000001,1.11853125,-0.15896875,-0.3130625,1.40509375,0.0204362510299617,0.02298018811904095,True
46316,179659,2,179658,4047.0,41356.0,30975.0,0.0023179999999999997,-0.0015249999999999999,-0.002623,0.3325,-1.1375000000000002,-3.4650000000000003,1.1475312500000001,0.33546875,0.24228125,1.437875,1.11384375,-0.1610625,-0.30971875,1.39859375,0.020550886369339095,0.022706967763664484,True
46317,179660,2,179659,4048.0,41358.0,30975.0,-0.00122,-0.000488,-6.1e-05,0.43750000000000006,-1.2075,-3.5875000000000004,1.14825,0.3365625,0.24515625,1.443625,1.12353125,-0.15821875,-0.31465625,1.40396875,0.020480866371822216,0.023023664996292107,True
46318,179661,2,179660,4048.0,41357.0,30979.0,-0.0025009999999999998,0.001098,0.000305,0.5950000000000001,-1.155,-3.6225000000000005,1.14940625,0.33671875,0.24284375,1.4368125,1.11396875,-0.16034375,-0.30703125000000003,1.39825,0.020573486252653175,0.02262205508951242,True
46319,179662,2,179661,4047.0,41357.0,30979.0,-0.0042699999999999995,0.002074,0.0037819999999999998,0.6300000000000001,-1.435,-3.6225000000000005,1.14934375,0.33328125000000003,0.2455,1.4366875000000001,1.11153125,-0.15821875,-0.31034375000000003,1.39596875,0.020345043030128206,0.02286449569434821,True
46320,179663,2,179662,4049.0,41357.0,30981.0,-0.003843,0.00244,0.001769,0.56,-1.7675,-3.5700000000000003,1.1557187500000001,0.338,0.24509375,1.44396875,1.1118125,-0.15725,-0.314375,1.4019062500000001,0.02050109180473771,0.023009793589183352,True
46321,179664,2,179663,4048.0,41359.0,30984.0,-0.000305,0.002379,0.000122,0.49000000000000005,-2.24,-3.5175000000000005,1.14878125,0.33578125000000003,0.24321875,1.4371875,1.10740625,-0.16115625,-0.3116875,1.3995,0.020567620806640825,0.022824670233195454,True
46322,179665,2,179664,4050.0,41360.0,30986.0,0.005307,0.001403,-0.00244,0.29750000000000004,-2.5375,-3.4125000000000005,1.14915625,0.33609375,0.245,1.4366875000000001,1.1221875000000001,-0.1605,-0.311,1.40509375,0.020553951698019497,0.022870305622969028,True
46323,179666,2,179665,4050.0,41358.0,30986.0,0.008296,-0.000915,-0.000732,0.17500000000000002,-2.415,-3.3600000000000003,1.156875,0.33740625,0.2446875,1.44125,1.114125,-0.1589375,-0.31409375,1.399875,0.020544932905265392,0.02298178397045952,True
46324,179667,2,179666,4052.0,41362.0,30984.0,0.0057339999999999995,-0.0013419999999999999,-0.001647,-0.15750000000000003,-1.61,-3.5175000000000005,1.14959375,0.33365625,0.24628125,1.43625,1.118625,-0.1599375,-0.31090625,1.39890625,0.020430257735559124,0.022919240207262943,True
46325,179668,2,179667,4051.0,41359.0,30985.0,0.000915,-0.0011589999999999999,-0.001464,-0.2625,-0.8750000000000001,-3.5175000000000005,1.1570625,0.33665625,0.24446875,1.4340625,1.10715625,-0.15912500000000002,-0.31325000000000003,1.40509375,0.020521490327153818,0.02293888106279498,True
46326,179669,2,179668,4053.0,41360.0,30984.0,-0.0021349999999999997,0.000244,0.000366,-0.22750000000000004,-0.31500000000000006,-3.4475000000000002,1.154,0.33678125000000003,0.24425,1.436375,1.1148125,-0.15903125,-0.31078125,1.39234375,0.020522863473675088,0.022830662836061673,True
46327,179670,2,179669,4056.0,41362.0,30985.0,-0.0037819999999999998,-0.000732,0.000793,-0.29750000000000004,0.035,-3.3950000000000005,1.1517187500000001,0.33587500000000003,0.24253125,1.4367812500000001,1.1125625000000001,-0.162125,-0.3093125,1.39921875,0.020610769955043275,0.02270091965784717,True
46328,179671,2,179670,4055.0,41362.0,30983.0,-0.0068319999999999995,-0.003904,0.0011589999999999999,-0.22750000000000004,0.28,-3.4475000000000002,1.149375,0.3345,0.2456875,1.4369687500000001,1.11946875,-0.1579375,-0.31078125,1.40396875,0.020384087010739224,0.02288979298022354,True
46329,179672,2,179671,4056.0,41361.0,30984.0,-0.007686,-0.00042699999999999997,0.000976,0.1925,0.15750000000000003,-3.4475000000000002,1.1535312500000001,0.33665625,0.24196875,1.4418125,1.11346875,-0.15884375,-0.31175,1.39959375,0.020510087532645268,0.022775766861702677,True
46330,179673,2,179672,4058.0,41363.0,30987.0,-0.0060999999999999995,0.001464,0.000305,0.28,-0.36750000000000005,-3.5525,1.149875,0.334,0.2434375,1.4364375,1.1147500000000001,-0.16096875,-0.30984375000000003,1.39928125,0.02048629569126859,0.022759555992621305,True
46331,179674,2,179673,4060.0,41363.0,30989.0,-0.0059169999999999995,0.002562,0.003111,0.36750000000000005,-1.1375000000000002,-3.5000000000000004,1.15090625,0.337,0.24584375,1.43875,1.11859375,-0.15840625,-0.3105,1.4071875,0.02050657832612613,0.022884915982805783,True
46332,179675,2,179674,4062.0,41361.0,30988.0,-0.00042699999999999997,0.000732,0.0021349999999999997,0.4025,-1.9250000000000003,-3.5000000000000004,1.1524375,0.33709375,0.2444375,1.44165625,1.1149375,-0.15937500000000002,-0.31275000000000003,1.39721875,0.020549734833786058,0.022917502133654153,True
46333,179676,2,179675,4061.0,41363.0,30988.0,0.007137,0.00042699999999999997,-0.0017079999999999999,0.29750000000000004,-2.6425,-3.6225000000000005,1.1496250000000001,0.33471875,0.24475,1.4405625,1.11778125,-0.15834375,-0.30425,1.40596875,0.020409615207996203,0.022588641904193713,True
46334,179677,2,179676,4061.0,41361.0,30990.0,0.00549,0.001586,-0.000915,0.45500000000000007,-2.87,-3.6225000000000005,1.15003125,0.336375,0.24265625000000002,1.4375,1.1135625,-0.16225,-0.3086875,1.4078125000000001,0.020636530124471024,0.022680934542434673,True
46335,179678,2,179677,4064.0,41362.0,30991.0,0.003843,0.000244,-0.000183,0.49000000000000005,-2.6950000000000003,-3.6575,1.15303125,0.34009375000000003,0.24234375,1.43775,1.10975,-0.15815625,-0.310875,1.38775,0.020624504405215113,0.022756019682549478,True
46336,179679,2,179678,4065.0,41361.0,30988.0,0.0055509999999999995,-0.001281,-0.001586,0.35000000000000003,-2.415,-3.6400000000000006,1.1495312500000001,0.33053125,0.24571875,1.43559375,1.1248125,-0.16059375,-0.3090625,1.4074375000000001,0.020327521959181985,0.022821992826749283,True
46337,179680,2,179679,4065.0,41362.0,30988.0,0.0046359999999999995,-0.001098,-0.000488,0.4025,-2.1,-3.6925000000000003,1.14784375,0.33734375,0.23684375,1.4304375,1.1113125,-0.1595,-0.308375,1.3903750000000001,0.02056515035493284,0.022429255349236628,True
46338,179681,2,179680,4066.0,41361.0,30988.0,-0.003111,0.001586,-0.000366,0.21000000000000002,-1.1725,-3.5700000000000003,1.1448125,0.32621875,0.25121875,1.421125,1.1136875,-0.16134375,-0.30896875,1.398875,0.02017944469665517,0.023044478182563794,True
46339,179682,2,179681,4067.0,41362.0,30991.0,-0.0035989999999999998,0.000244,6.1e-05,0.08750000000000001,-0.9100000000000001,-3.4475000000000002,1.16890625,0.33309375,0.2518125,1.42671875,1.12534375,-0.1568125,-0.30915625,1.401,0.020280252206287562,0.023076438533320136,True
46340,179683,2,179682,4070.0,41365.0,30992.0,-0.0011589999999999999,-0.0011589999999999999,-0.00061,-0.0175,-0.8225000000000001,-3.5700000000000003,1.1573437500000001,0.32646875000000003,0.23825000000000002,1.4312500000000001,1.125375,-0.16140625,-0.30903125,1.3974375,0.02019232634689879,0.022513494855949882,True
46341,179684,2,179683,4069.0,41364.0,30993.0,-0.000793,-0.001464,-0.0023179999999999997,0.22750000000000004,-0.7875000000000001,-3.4475000000000002,1.1374375,0.337,0.234375,1.44809375,1.1108125,-0.165875,-0.312625,1.3974375,0.02080930237369845,0.022498598978925553,True
46342,179685,2,179684,4072.0,41366.0,30993.0,-0.003355,-0.000366,-0.0013419999999999999,0.47250000000000003,-0.9975,-3.43,1.1339375,0.33446875,0.2345625,1.4287812500000001,1.11109375,-0.1615,-0.30978125,1.394125,0.02052723340852182,0.022391964139948813,True
46343,179686,2,179685,4073.0,41365.0,30996.0,-0.0008539999999999999,0.000793,0.002013,0.5425000000000001,-1.2075,-3.4825000000000004,1.13853125,0.32915625,0.23734375,1.44159375,1.113,-0.16275,-0.311,1.3965,0.020358040785920475,0.022555376167167126,True
46344,179687,2,179686,4075.0,41364.0,30996.0,-6.1e-05,0.0008539999999999999,0.0015249999999999999,0.45500000000000007,-1.4875,-3.4825000000000004,1.1300625,0.32656250000000003,0.24453125,1.4270625000000001,1.11165625,-0.16003125,-0.30934375000000003,1.397,0.02014044373390453,0.022784448880895848,True
46345,179688,2,179687,4077.0,41365.0,30996.0,0.001037,0.0,-0.000122,0.2625,-1.3825,-3.4475000000000002,1.15203125,0.32465625,0.2451875,1.4266875,1.1205625000000001,-0.161,-0.309875,1.399375,0.02010083398865941,0.022832799428215898,True
46346,179689,2,179688,4078.0,41364.0,30997.0,0.000183,-0.0013419999999999999,6.1e-05,0.22750000000000004,-1.4875,-3.3425000000000002,1.151875,0.33684375,0.24946875000000002,1.4368750000000001,1.111875,-0.15703125,-0.310875,1.4063125,0.0204443582031629,0.02304909839732219,True
46347,179690,2,179689,4080.0,41367.0,30999.0,0.0025009999999999998,-0.002074,-0.001647,0.35000000000000003,-1.3650000000000002,-3.3600000000000003,1.14259375,0.33890625,0.244625,1.441,1.11409375,-0.15890625,-0.31215625,1.3994375000000001,0.020605754865247676,0.02290135207567202,True
46348,179691,2,179690,4080.0,41363.0,30998.0,-6.1e-05,-0.000305,0.001281,0.35000000000000003,-1.1900000000000002,-3.4475000000000002,1.14784375,0.337,0.244125,1.443,1.1143125,-0.16146875,-0.31246875,1.39875,0.020630730489014662,0.022893345621266863,True
46349,179692,2,179691,4079.0,41364.0,30997.0,-0.003172,0.0008539999999999999,0.001586,0.31500000000000006,-1.1900000000000002,-3.4125000000000005,1.1503125,0.33675,0.24446875,1.43871875,1.1142812500000001,-0.1591875,-0.31215625,1.39890625,0.020527904756730747,0.022894925249585793,True
46350,179693,2,179692,4078.0,41364.0,30995.0,-0.004026,0.001586,0.0006709999999999999,0.47250000000000003,-1.2950000000000002,-3.4650000000000003,1.1504375,0.33334375,0.24146875,1.43728125,1.11509375,-0.16203125000000002,-0.3098125,1.405125,0.020502208397731463,0.02267731394472911,True
46351,179694,2,179693,4078.0,41363.0,30996.0,-0.00244,0.0018909999999999999,6.1e-05,0.56,-1.33,-3.3775000000000004,1.1554375000000001,0.3339375,0.245375,1.44353125,1.10821875,-0.15887500000000002,-0.312375,1.3988125,0.020398818239673825,0.022940991984534625,True
46352,179695,2,179694,4076.0,41363.0,30995.0,0.0015249999999999999,0.0017079999999999999,0.000915,0.35000000000000003,-1.5225000000000002,-3.4475000000000002,1.1494375000000001,0.33553125,0.24265625000000002,1.4374375,1.11415625,-0.153125,-0.30953125,1.4057187500000001,0.020231595290464487,0.022714855927137637,True
46353,179696,2,179695,4075.0,41363.0,30991.0,0.002013,-0.000488,-0.000549,0.17500000000000002,-1.5050000000000001,-3.4650000000000003,1.148625,0.3373125,0.24465625,1.44346875,1.113875,-0.1591875,-0.31053125,1.3997187500000001,0.02055118782450776,0.022837324873350925,True
46354,179697,2,179696,4071.0,41366.0,30991.0,6.1e-05,0.000305,-0.0011589999999999999,0.22750000000000004,-1.54,-3.5525,1.14928125,0.3336875,0.24571875,1.4368750000000001,1.12184375,-0.1539375,-0.31109375,1.40203125,0.02018821982958265,0.022903638385253645,True
46355,179698,2,179697,4069.0,41363.0,30989.0,0.001403,0.000488,-0.00042699999999999997,0.2625,-1.4175000000000002,-3.5000000000000004,1.156375,0.33721875,0.244125,1.445125,1.11375,-0.16303125000000002,-0.31153125,1.39890625,0.020703114390914844,0.02285566648542551,True
46356,179699,2,179698,4066.0,41362.0,30985.0,-6.1e-05,-0.000549,-0.000488,0.21000000000000002,-1.4175000000000002,-3.3950000000000005,1.15465625,0.336875,0.244625,1.44409375,1.1142812500000001,-0.161375,-0.30943750000000003,1.39946875,0.020621756832961698,0.022792074065884904,True
46357,179700,2,179699,4061.0,41362.0,30985.0,-0.0013419999999999999,-0.000732,0.002989,0.21000000000000002,-1.4175000000000002,-3.4125000000000005,1.1494375000000001,0.33584375,0.2431875,1.4371562500000001,1.11565625,-0.15953125,-0.30993750000000003,1.40640625,0.02050432994224588,0.02275304080892845,True
46358,179701,2,179700,4061.0,41360.0,30984.0,-0.000732,-0.00061,6.1e-05,0.35000000000000003,-1.3125000000000002,-3.5875000000000004,1.1496250000000001,0.337625,0.246375,1.43759375,1.119375,-0.15828125,-0.31059375,1.4030625,0.020527381268069307,0.022910536687323815,True
46359,179702,2,179701,4056.0,41359.0,30983.0,-0.001098,0.00042699999999999997,-0.001647,0.385,-1.3125000000000002,-3.6925000000000003,1.1534375000000001,0.33284375,0.2435,1.43709375,1.1165,-0.1589375,-0.310375,1.396875,0.02035607940125678,0.022783482360926147,True
46360,179703,2,179702,4051.0,41356.0,30982.0,-0.0021349999999999997,0.0015249999999999999,-0.00042699999999999997,0.28,-1.2950000000000002,-3.7100000000000004,1.13865625,0.332125,0.25121875,1.43615625,1.1215625,-0.1585625,-0.309875,1.3998125000000001,0.020311121574390033,0.023080898194663687,True
46361,179704,2,179703,4051.0,41357.0,30982.0,-0.0055509999999999995,0.000305,0.001403,0.43750000000000006,-1.5225000000000002,-3.8500000000000005,1.1494375000000001,0.33337500000000003,0.245875,1.42640625,1.12084375,-0.1583125,-0.310625,1.40225,0.020352725381791465,0.022891225544386454,True
46362,179705,2,179704,4047.0,41358.0,30982.0,-0.0026839999999999998,-0.000366,0.002074,0.31500000000000006,-1.995,-3.8500000000000005,1.15275,0.3346875,0.24478125,1.4415625,1.1158125,-0.15787500000000002,-0.30640625,1.4026875,0.020389314043557226,0.02267663488920745,True
46363,179706,2,179705,4044.0,41356.0,30978.0,0.004331,-0.000549,-0.00183,0.35000000000000003,-2.7125000000000004,-3.7625,1.1528125,0.33753125,0.24525,1.43675,1.11378125,-0.1584375,-0.31271875,1.40321875,0.020529835590567477,0.022949664977307403,True
46364,179707,2,179706,4043.0,41354.0,30978.0,0.0048189999999999995,0.00042699999999999997,-0.000488,0.15750000000000003,-2.5900000000000003,-3.6925000000000003,1.14696875,0.33771875,0.2456875,1.43953125,1.1144375,-0.1585625,-0.3128125,1.40078125,0.020542664738433837,0.022971427102479403,True
46365,179708,2,179707,4038.0,41353.0,30976.0,0.003355,0.000915,-0.000366,0.15750000000000003,-2.5025000000000004,-3.7100000000000004,1.1564375,0.33740625,0.24565625,1.4368125,1.11453125,-0.1590625,-0.3135,1.4055312500000001,0.020550000646755228,0.022997768729306763,True
46366,179709,2,179708,4039.0,41354.0,30977.0,0.0055509999999999995,-0.0006709999999999999,-0.00042699999999999997,0.15750000000000003,-2.24,-3.7800000000000002,1.156375,0.33878125000000003,0.24640625,1.43646875,1.11478125,-0.15415625,-0.3106875,1.41059375,0.020407978440563412,0.022915590108259998,True
46367,179710,2,179709,4036.0,41354.0,30976.0,0.004697,-0.001281,-0.001281,0.10500000000000001,-1.8025000000000002,-3.7625,1.1383125,0.33425,0.24521875,1.43740625,1.12590625,-0.15853125,-0.31075,1.40596875,0.02039781495408584,0.02286925537056652,True
46368,179711,2,179710,4037.0,41357.0,30978.0,-0.00366,0.0006709999999999999,-0.002379,0.24500000000000002,-1.155,-3.7100000000000004,1.1495625,0.3350625,0.24178125,1.437375,1.12884375,-0.15034375,-0.31171875,1.412875,0.020099351587904414,0.02276679841897233,True
