frame_seq,absolute_seq_u64,segment_id,sample_seq,PPG_G,PPG_R,PPG_IR,ACC_X,ACC_Y,ACC_Z,GYRO_X,GYRO_Y,GYRO_Z,Uh1,Uh2,Uh3,Uh4,Uc1,Uc2,Uc3,Uc4,UD1,UD2,parser_valid
46251,449,0,450,3316.0,39718.0,29532.0,-0.006039,-0.000732,0.000732,0.5075000000000001,-1.1900000000000002,-3.3775000000000004,1.00296875,-0.00684375,-0.32425,1.1885937500000001,0.9323750000000001,-0.49996875,-1.11159375,1.1259375,0.02012757669333762,0.03135379449980151,True
46252,450,0,451,3312.0,39716.0,29528.0,0.002257,0.001037,-0.000549,0.22750000000000004,-2.2575000000000003,-3.535,1.0034375,-0.0066875,-0.32540625,1.1880625,0.9430625,-0.50071875,-1.1125625000000001,1.1258125,0.02016394927189636,0.0313451186034878,True
46253,451,0,452,3309.0,39716.0,29524.0,0.008845,0.002989,-0.007076,0.2625,-3.4125000000000005,-3.6400000000000006,1.0055625,-0.00571875,-0.32590625,1.18871875,0.94484375,-0.50103125,-1.11121875,1.13246875,0.02021598580671987,0.03127337258371818,True
46254,452,0,453,3304.0,39717.0,29523.0,0.020557,0.005978,-0.0042699999999999995,0.1925,-3.535,-3.9025000000000003,1.006,-0.009125,-0.324375,1.18953125,0.94371875,-0.501375,-1.11196875,1.13284375,0.020090709194892125,0.03136328170207682,True
46255,453,0,454,3298.0,39716.0,29521.0,0.018605,0.004758,-0.0044529999999999995,0.21000000000000002,-3.115,-3.9375000000000004,1.00459375,-0.00534375,-0.324125,1.19328125,0.9517187500000001,-0.49953125000000004,-1.11025,1.13525,0.020171304297913865,0.03130693641043,True
46256,454,0,455,3296.0,39711.0,29516.0,0.0018909999999999999,0.000488,0.0021349999999999997,0.12250000000000001,-1.225,-3.9550000000000005,1.00203125,-0.0051875,-0.327375,1.19271875,0.94834375,-0.49893750000000003,-1.11090625,1.13821875,0.020153935247191845,0.031202826461111895,True
46257,455,0,456,3290.0,39711.0,29514.0,-0.005246,-0.0006709999999999999,0.006161,0.17500000000000002,-0.5075000000000001,-4.0600000000000005,0.9940625000000001,-0.00346875,-0.32565625,1.18828125,0.9434375,-0.49784375000000003,-1.11415625,1.13240625,0.020180347505073786,0.031396635114906556,True
46258,456,0,457,3289.0,39709.0,29510.0,-0.007808,-0.000915,0.0035989999999999998,0.29750000000000004,-0.31500000000000006,-4.095000000000001,0.99265625,-0.00825,-0.32506250000000003,1.18796875,0.944125,-0.498125,-1.111,1.13115625,0.019996428298084037,0.03129853450678985,True
46259,457,0,458,3285.0,39706.0,29509.0,-0.007259,-0.0013419999999999999,0.006527,0.385,-0.12250000000000001,-4.0075,0.99828125,-0.00821875,-0.327125,1.181875,0.9432812500000001,-0.4980625,-1.11371875,1.13165625,0.019995203702333604,0.03132127733970104,True
46260,458,0,459,3282.0,39702.0,29506.0,-0.00976,-0.0034159999999999998,0.000366,0.45500000000000007,-0.5075000000000001,-3.8675,0.999125,0.00090625,-0.32706250000000003,1.1848750000000001,0.94346875,-0.4928125,-1.1106875,1.13575,0.020157699325057097,0.031206831752416175,True
46261,459,0,460,3278.0,39702.0,29504.0,-0.0035989999999999998,-0.000488,-0.0028669999999999998,0.43750000000000006,-1.61,-3.8675,0.99609375,-0.0053125,-0.3233125,1.188625,0.9495,-0.49771875,-1.1109375000000001,1.1293125,0.020100085849830404,0.03136581419948977,True
46262,460,0,461,3275.0,39701.0,29502.0,0.003904,0.000305,-0.0018909999999999999,0.4025,-2.1,-3.9200000000000004,0.9939687500000001,-0.00765625,-0.325,1.1836875,0.9489062500000001,-0.49875,-1.11184375,1.13215625,0.020045665595183428,0.031333571434793595,True
46263,461,0,462,3274.0,39701.0,29503.0,0.008052,0.001281,-0.001647,0.24500000000000002,-2.45,-3.7975000000000003,0.998625,-0.00765625,-0.326125,1.19415625,0.942875,-0.50046875,-1.11384375,1.1359375,0.020114411076318697,0.0313659174533966,True
46264,462,0,463,3274.0,39698.0,29503.0,0.007503,-0.000183,-0.004758,0.2625,-2.5375,-3.9200000000000004,0.99853125,-0.00484375,-0.3244375,1.1768750000000001,0.94534375,-0.4980625,-1.11128125,1.1329375,0.020132969699134372,0.03133427331590259,True
46265,463,0,464,3273.0,39700.0,29503.0,0.0051849999999999995,0.001281,-0.0032329999999999998,0.2625,-2.3975000000000004,-4.025,1.00340625,-0.00684375,-0.326625,1.1930625,0.93415625,-0.497625,-1.115125,1.12871875,0.020033829810032606,0.03139542407214776,True
46266,464,0,465,3273.0,39699.0,29502.0,-0.001464,0.001403,0.000793,0.21000000000000002,-1.2775,-4.2525,0.9850625000000001,-0.00528125,-0.3245,1.19325,0.9505625,-0.49884375000000003,-1.1100625,1.1306875,0.0201463589480626,0.03128476880533451,True
46267,465,0,466,3271.0,39699.0,29500.0,-0.003538,-0.000976,0.003477,0.24500000000000002,-0.9100000000000001,-4.0425,1.0034375,-0.0058125,-0.32356250000000003,1.18828125,0.94603125,-0.5055000000000001,-1.1106562500000001,1.12490625,0.020390830629858605,0.031345009153235494,True
46268,466,0,467,3271.0,39701.0,29500.0,-0.006039,-0.0028669999999999998,0.003904,0.17500000000000002,-0.7875000000000001,-3.9375000000000004,0.99725,-0.0085625,-0.325625,1.1908750000000001,0.9283750000000001,-0.4948125,-1.1126875,1.13909375,0.019851141950974312,0.03134122940844145,True
46269,467,0,468,3268.0,39699.0,29499.0,-0.006222,-0.002257,0.002257,0.2625,-1.0325000000000002,-3.99,0.99375,-0.0054375000000000005,-0.3235,1.18953125,0.9586250000000001,-0.4981875,-1.1089375000000001,1.126625,0.020113732903709713,0.03128119220496686,True
46270,468,0,469,3270.0,39699.0,29499.0,0.0023179999999999997,0.000366,-0.000122,0.3325,-1.4000000000000001,-3.7800000000000002,1.0041875,-0.00759375,-0.327875,1.183,0.937625,-0.49609375,-1.1133125,1.148125,0.01994195503109552,0.03127574269622934,True
46271,469,0,470,3270.0,39699.0,29500.0,0.006527,-0.000793,-0.001952,0.22750000000000004,-2.1350000000000002,-3.7800000000000002,0.9976875000000001,-0.00484375,-0.32340625,1.1929687500000001,0.9424375,-0.496125,-1.105,1.13415625,0.020055467956666618,0.03113299143596893,True
46272,470,0,471,3269.0,39699.0,29503.0,0.006405,-0.0006709999999999999,-0.003965,0.28,-2.3800000000000003,-3.7275000000000005,1.0035625,-0.00609375,-0.323875,1.19009375,0.96015625,-0.50715625,-1.10959375,1.1165625000000001,0.020445558631471163,0.03129157555565788,True
46273,471,0,472,3272.0,39701.0,29502.0,0.004941,0.000244,-0.001647,0.1925,-2.1700000000000004,-3.8500000000000005,1.00625,-0.0059375,-0.32390625,1.1885000000000001,0.95215625,-0.50515625,-1.113,1.12690625,0.02037198803823175,0.03142172380838609,True
46274,472,0,473,3270.0,39699.0,29503.0,0.0028669999999999998,0.002745,0.001403,0.3325,-1.8725000000000003,-3.9550000000000005,1.003625,-0.00565625,-0.3243125,1.18815625,0.9369375,-0.50203125,-1.12,1.13134375,0.020258524484577174,0.031675457802547775,True
46275,473,0,474,3271.0,39703.0,29507.0,-0.003904,0.000549,0.001586,0.4025,-1.33,-3.9725000000000006,0.99890625,-0.0065625,-0.3286875,1.1863125,0.934,-0.49465625,-1.112625,1.1434375,0.01992654009994527,0.031216868009616674,True
46276,474,0,475,3273.0,39701.0,29504.0,-0.005063,0.000915,0.001769,0.29750000000000004,-1.225,-4.0600000000000005,0.998125,-0.0051875,-0.32506250000000003,1.1836875,0.944625,-0.49615625,-1.09990625,1.1429375,0.020042685268224482,0.030870384227032723,True
46277,475,0,476,3273.0,39701.0,29503.0,-0.0059169999999999995,-0.000244,0.000488,0.22750000000000004,-1.3125000000000002,-4.0600000000000005,0.9985,-0.005625,-0.32365625000000003,1.1943125,0.94296875,-0.49593750000000003,-1.10709375,1.1351875,0.020016074093918635,0.031203830590707058,True
46278,476,0,477,3273.0,39701.0,29505.0,-0.004392,-0.00061,-0.000488,0.24500000000000002,-1.4525000000000001,-3.99,1.0029375,-0.00528125,-0.32409375,1.18796875,0.95021875,-0.4985625,-1.10959375,1.13003125,0.02013510996818691,0.031282863746053234,True
46279,477,0,478,3272.0,39699.0,29502.0,-0.0021349999999999997,-0.0013419999999999999,0.000305,0.42000000000000004,-1.6450000000000002,-3.8325000000000005,0.9978125,-0.00503125,-0.32725,1.1941875,0.94303125,-0.50121875,-1.1123750000000001,1.13953125,0.0202515436094378,0.03126446622432168,True
46280,478,0,479,3274.0,39700.0,29503.0,0.00061,-0.001037,-0.002257,0.43750000000000006,-2.0125,-3.8500000000000005,0.99846875,-0.0054687500000000005,-0.32346875,1.19353125,0.93240625,-0.49865625,-1.11090625,1.1350625,0.02013120617584893,0.03135838635851703,True
46281,479,0,480,3274.0,39702.0,29505.0,0.003111,-0.0006709999999999999,-0.001952,0.31500000000000006,-2.2925000000000004,-3.7275000000000005,1.00521875,-0.005625,-0.3244375,1.18875,0.95021875,-0.49875,-1.1107500000000001,1.13284375,0.020128577988672892,0.031313779954800246,True
46282,480,0,481,3275.0,39700.0,29503.0,0.006527,0.000793,-0.000488,0.31500000000000006,-2.3800000000000003,-3.8675,0.9984375,-0.006875,-0.326875,1.1933125,0.9440625,-0.49846875,-1.1139375,1.13928125,0.020066305164480942,0.031339669456452224,True
46283,481,0,482,3275.0,39702.0,29505.0,0.007686,0.00042699999999999997,-0.0026839999999999998,0.28,-2.4850000000000003,-3.8850000000000002,0.998125,-0.0044062500000000004,-0.322875,1.19253125,0.943875,-0.498625,-1.10978125,1.1371875,0.020173326054013233,0.031338634222470574,True
46284,482,0,483,3275.0,39704.0,29508.0,0.006344,-6.1e-05,-0.0018909999999999999,0.385,-2.4325,-3.8850000000000002,1.00521875,-0.00465625,-0.320375,1.19375,0.9470937500000001,-0.49925,-1.10990625,1.13940625,0.02018811800361236,0.031443018629350714,True
46285,483,0,484,3276.0,39705.0,29507.0,-0.000488,0.0011589999999999999,0.001647,0.28,-1.5750000000000002,-3.9200000000000004,0.99828125,-0.005,-0.3229375,1.19090625,0.94446875,-0.49821875,-1.1095,1.13625,0.020132841290757108,0.03132529520699336,True
46286,484,0,485,3275.0,39704.0,29507.0,-0.0028669999999999998,0.001403,0.002257,0.28,-1.155,-3.8500000000000005,1.00453125,-0.008968750000000001,-0.3224375,1.18796875,0.9508125000000001,-0.50053125,-1.1110625,1.1323125,0.020063340463280767,0.03140548114999117,True
46287,485,0,486,3277.0,39705.0,29509.0,-0.004697,-0.000549,0.0028669999999999998,0.29750000000000004,-0.7525000000000001,-3.7975000000000003,1.00753125,-0.00709375,-0.3221875,1.18871875,0.94959375,-0.50209375,-1.10640625,1.13334375,0.02020235515587316,0.031235802615119396,True
46288,486,0,487,3279.0,39704.0,29510.0,-0.0070149999999999995,-0.0011589999999999999,0.002745,0.36750000000000005,-0.7350000000000001,-3.8500000000000005,1.004125,-0.0003125,-0.32496875000000003,1.17909375,0.94546875,-0.501875,-1.1111875,1.1316875,0.020470372165395503,0.03130950099432773,True
46289,487,0,488,3280.0,39703.0,29509.0,-0.007259,-0.00061,0.001281,0.47250000000000003,-1.05,-3.8500000000000005,0.99825,-0.00909375,-0.32684375,1.19184375,0.94340625,-0.500375,-1.11196875,1.13328125,0.020051989000168368,0.03126497200662533,True
46290,488,0,489,3279.0,39704.0,29509.0,0.0011589999999999999,-0.000305,-0.000305,0.29750000000000004,-1.6450000000000002,-3.5000000000000004,0.99384375,-0.00384375,-0.32671875,1.19665625,0.9429062500000001,-0.497875,-1.10346875,1.138625,0.020166289933310544,0.030941939049757814,True
46291,489,0,490,3282.0,39703.0,29509.0,0.004941,-0.0018909999999999999,-0.002196,0.1925,-2.1,-3.5875000000000004,0.9958125,-0.0036875000000000002,-0.32696875000000003,1.1881875,0.94246875,-0.4971875,-1.11253125,1.13478125,0.02014516972611652,0.03128169327813181,True
46292,490,0,491,3282.0,39706.0,29510.0,0.006954,-0.0015249999999999999,-0.003355,0.2625,-2.2225,-3.5700000000000003,0.99559375,-0.0041875,-0.32871875,1.17728125,0.94265625,-0.49903125000000004,-1.112875,1.1325625,0.02019850274691984,0.031225267915362145,True
46293,491,0,492,3284.0,39706.0,29511.0,0.005612,-0.000732,-0.003538,0.36750000000000005,-2.0825,-3.6575,0.9938125,-0.00375,-0.325875,1.1979375,0.943125,-0.49734375000000003,-1.11215625,1.1375,0.020148868180861448,0.031310782004233505,True
46294,492,0,493,3283.0,39705.0,29513.0,0.003294,0.0015249999999999999,-0.000366,0.31500000000000006,-1.7500000000000002,-3.6925000000000003,0.9959375,-0.0038125,-0.3283125,1.19309375,0.9433125,-0.4981875,-1.1108125,1.13725,0.020180064341494653,0.031161874989110765,True
46295,493,0,494,3286.0,39706.0,29513.0,-0.0015249999999999999,0.001769,0.002196,0.2625,-0.9275000000000001,-3.7450000000000006,0.99503125,-0.00359375,-0.3273125,1.18371875,0.9428125,-0.49840625,-1.1081875,1.13253125,0.020197742455185224,0.031100412962903043,True
46296,494,0,495,3285.0,39706.0,29514.0,-0.004697,0.000244,0.0026839999999999998,0.2625,-0.8400000000000001,-3.535,0.99184375,-0.011875,-0.32325,1.18725,0.94346875,-0.5008125,-1.1111875,1.13140625,0.019955970847905555,0.031377946582574,True
46297,495,0,496,3286.0,39708.0,29515.0,-0.004941,6.1e-05,0.002196,0.29750000000000004,-0.8925000000000001,-3.3950000000000005,1.00925,-0.007625,-0.32171875,1.195625,0.9476875,-0.49853125000000004,-1.1098125,1.12946875,0.020038191065025586,0.03138588748920367,True
46298,496,0,497,3288.0,39707.0,29517.0,-0.005429,0.0011589999999999999,0.002806,0.35000000000000003,-1.0150000000000001,-3.4475000000000002,1.01059375,-0.005625,-0.321125,1.1970625,0.9472812500000001,-0.49828125,-1.109375,1.13509375,0.02010982913342135,0.031392657125077786,True
46299,497,0,498,3288.0,39706.0,29517.0,-0.003843,0.000488,0.0015249999999999999,0.385,-1.225,-3.5875000000000004,0.9880625000000001,-0.00415625,-0.32553125,1.18746875,0.9438125,-0.49840625,-1.11190625,1.1315625,0.020174781777896268,0.031314827005616115,True
46300,498,0,499,3289.0,39707.0,29518.0,0.000244,-0.003172,-0.002074,0.28,-1.7850000000000001,-3.325,0.9875625,-0.00525,-0.3219375,1.18784375,0.943625,-0.49921875,-1.1109375000000001,1.123875,0.020162632737013297,0.031420571215232417,True
46301,499,0,500,3290.0,39711.0,29517.0,0.003965,-0.002196,-0.002928,0.29750000000000004,-1.9600000000000002,-3.3075,1.003625,-0.00653125,-0.32478125,1.1884375,0.9439375,-0.5003125,-1.1101875,1.13265625,0.020154079667351183,0.03127839049389815,True
46302,500,0,501,3292.0,39710.0,29518.0,0.004514,0.000549,-0.004026,0.2625,-1.9600000000000002,-3.3775000000000004,1.00546875,-0.00821875,-0.323125,1.19365625,0.94384375,-0.50084375,-1.1100625,1.13309375,0.020106450415610686,0.03133952772917232,True
46303,501,0,502,3291.0,39711.0,29522.0,0.0057339999999999995,0.001037,-0.002379,0.3325,-1.8200000000000003,-3.43,0.99184375,-0.0054687500000000005,-0.32534375,1.19390625,0.9507187500000001,-0.4981875,-1.11,1.1499375,0.020112457299136924,0.031248755475906016,True
46304,502,0,503,3294.0,39711.0,29522.0,0.003904,0.000732,6.1e-05,0.28,-1.5750000000000002,-3.5000000000000004,0.99828125,-0.00459375,-0.3151875,1.19484375,0.94846875,-0.49978125,-1.10765625,1.11728125,0.02021191515740574,0.03156283255232156,True
46305,503,0,504,3295.0,39711.0,29523.0,-0.00366,-0.000488,0.00122,0.29750000000000004,-0.8575,-3.5700000000000003,1.0016875,-0.00528125,-0.323375,1.1935625,0.96875,-0.5003125,-1.1093125,1.12159375,0.020205099424752238,0.03130063796051763,True
46306,504,0,505,3296.0,39711.0,29523.0,-0.004392,0.001586,0.0034159999999999998,0.35000000000000003,-0.6475000000000001,-3.5875000000000004,1.00465625,-0.00578125,-0.3195625,1.19559375,0.95575,-0.50465625,-1.103875,1.1226875,0.020358375767870647,0.03124268663702317,True
46307,505,0,506,3296.0,39712.0,29524.0,-0.004514,0.00122,0.0028669999999999998,0.4025,-0.6125,-3.6750000000000003,1.0044375,-0.0056875,-0.32128125,1.1894375,0.95378125,-0.51253125,-1.10721875,1.12278125,0.0206769241752624,0.03130324819430667,True
46308,506,0,507,3298.0,39712.0,29524.0,-0.0037819999999999998,0.0,0.00244,0.24500000000000002,-0.7875000000000001,-3.5175000000000005,1.00440625,-0.00825,-0.32365625000000003,1.18903125,0.944625,-0.51003125,-1.1166875,1.122,0.020472485117700535,0.03157387892014025,True
46309,507,0,508,3299.0,39714.0,29524.0,-0.002379,-0.000732,0.00122,0.24500000000000002,-1.05,-3.4475000000000002,1.00671875,-0.00528125,-0.3221875,1.19621875,0.95059375,-0.51234375,-1.1109375000000001,1.11809375,0.020686006412585497,0.031410615394188296,True
46310,508,0,509,3300.0,39712.0,29525.0,0.000732,6.1e-05,-0.002013,0.22750000000000004,-1.4525000000000001,-3.5525,1.003125,-0.00553125,-0.32296875,1.19465625,0.96659375,-0.50865625,-1.1045625000000001,1.12253125,0.020528461245197808,0.031133533994069807,True
46311,509,0,510,3299.0,39714.0,29526.0,0.001403,0.000183,-0.002623,0.3325,-1.7675,-3.5525,1.0029375,-0.0056875,-0.32309375,1.1933125,0.96178125,-0.51046875,-1.1053125,1.13425,0.020594516373743363,0.03115749903531374,True
46312,510,0,511,3301.0,39713.0,29529.0,0.0025009999999999998,-0.001647,-0.0025009999999999998,0.28,-1.7675,-3.6575,0.99871875,-0.0051875,-0.32540625,1.18434375,0.9615,-0.498125,-1.10253125,1.15115625,0.020121437865142738,0.03095803336565909,True
46313,511,0,512,3301.0,39714.0,29530.0,0.003843,-0.000244,-0.002989,0.28,-1.715,-3.6575,0.99803125,-0.00425,-0.3253125,1.18803125,0.9463125,-0.4893125,-1.1144687500000001,1.13715625,0.01980710973409319,0.031422374801378196,True
46314,512,0,513,3302.0,39716.0,29531.0,0.002013,-0.000732,-0.001769,0.31500000000000006,-1.6450000000000002,-3.6750000000000003,0.99884375,-0.0065625,-0.32356250000000003,1.18934375,0.9303750000000001,-0.50296875,-1.1129375,1.12284375,0.020259024735523115,0.03143300141610275,True
46315,513,0,514,3304.0,39717.0,29533.0,-0.00183,0.002013,0.00061,0.31500000000000006,-1.12,-3.9375000000000004,1.0045625,-0.004875,-0.3238125,1.190375,0.951125,-0.49734375000000003,-1.1084375,1.13678125,0.02010294483458028,0.031249455486825888,True
46316,514,0,515,3306.0,39718.0,29532.0,-0.0032329999999999998,0.00122,0.003538,0.22750000000000004,-1.12,-3.8150000000000004,0.99915625,-0.007125,-0.324,1.18890625,0.93759375,-0.4990625,-1.10696875,1.1328125,0.020079849994259984,0.031185315829892847,True
46317,515,0,516,3305.0,39717.0,29532.0,-0.0028669999999999998,0.000549,0.002745,0.2625,-1.0325000000000002,-3.8325000000000005,1.00403125,-0.0091875,-0.32271875,1.19328125,0.9517187500000001,-0.495,-1.102125,1.1391875,0.019833129210042863,0.031049413147293307,True
46318,516,0,517,3307.0,39716.0,29532.0,-0.002562,-0.0008539999999999999,0.002074,0.29750000000000004,-1.1025,-3.7800000000000002,0.9979687500000001,-0.00496875,-0.3253125,1.18803125,0.9443125,-0.49803125000000004,-1.1139375,1.13203125,0.02012661731746301,0.03140188590498802,True
46319,517,0,518,3309.0,39717.0,29535.0,-0.0021349999999999997,-0.000488,0.00061,0.17500000000000002,-1.3650000000000002,-3.8675,0.99809375,-0.00609375,-0.32259375,1.1934375,0.94334375,-0.5005625,-1.11009375,1.1370625,0.02018193459844034,0.031361890076575284,True
46320,518,0,519,3310.0,39718.0,29535.0,0.001952,0.000305,0.000122,0.1925,-1.6975000000000002,-3.6400000000000006,0.998125,-0.003875,-0.323125,1.188,0.943625,-0.4976875,-1.11334375,1.1319062500000001,0.020157514867474736,0.03146609061168926,True
46321,519,0,520,3312.0,39719.0,29537.0,0.0032329999999999998,-0.000305,-0.000915,0.24500000000000002,-1.8375000000000001,-3.7100000000000004,1.00315625,-0.0050625,-0.32275,1.1925937500000001,0.9489375,-0.4981875,-1.1088437500000001,1.1345625,0.020129040158583158,0.03130744521041516,True
46322,520,0,521,3312.0,39720.0,29537.0,0.004575,-0.000488,-0.00061,0.24500000000000002,-1.995,-3.7450000000000006,0.9979687500000001,-0.005125,-0.32509375,1.1926875000000001,0.94275,-0.49775,-1.111125,1.14021875,0.020108989601085814,0.03130211211166365,True
46323,521,0,522,3313.0,39720.0,29538.0,0.005063,-0.001037,-0.001952,0.3325,-2.1525000000000003,-3.7450000000000006,0.9988750000000001,-0.0049375,-0.32509375,1.1923125,0.94253125,-0.49843750000000003,-1.10378125,1.13284375,0.02014414184578098,0.03101873348263023,True
46324,522,0,523,3314.0,39721.0,29542.0,0.002074,0.000183,-0.001647,0.29750000000000004,-1.7675,-3.8500000000000005,0.99871875,-0.00515625,-0.3261875,1.19428125,0.9429062500000001,-0.497375,-1.11384375,1.13315625,0.02009271401527715,0.031363428786165,True
46325,523,0,524,3316.0,39723.0,29545.0,-0.0030499999999999998,-0.002623,0.0011589999999999999,0.21000000000000002,-1.0325000000000002,-3.7800000000000002,0.9985,-0.00471875,-0.32696875000000003,1.20475,0.94353125,-0.4920625,-1.114,1.13603125,0.01989802818770367,0.03133834713705503,True
46326,524,0,525,3316.0,39724.0,29542.0,-0.003904,-0.00244,0.001403,0.2625,-0.9975,-3.7625,0.99603125,-0.004375,-0.32275,1.2039375,0.9361875000000001,-0.4926875,-1.1109375000000001,1.12840625,0.019937073054967936,0.03138821479683904,True
46327,525,0,526,3318.0,39723.0,29545.0,-0.0042699999999999995,0.000183,0.001403,0.28,-1.1025,-3.8500000000000005,1.00103125,-0.00028125000000000003,-0.312625,1.19696875,0.943125,-0.498,-1.1124375,1.14028125,0.020316709527308352,0.03184925796231449,True
46328,526,0,527,3320.0,39725.0,29544.0,-0.0030499999999999998,0.0025009999999999998,0.0021349999999999997,0.28,-1.2775,-3.9200000000000004,1.01378125,-0.014906250000000001,-0.32553125,1.182375,0.94378125,-0.49846875,-1.1093125,1.12640625,0.019738478552868737,0.031214763446828733,True
46329,527,0,528,3319.0,39723.0,29546.0,-0.0011589999999999999,0.00244,0.000244,0.1925,-1.5750000000000002,-3.7800000000000002,0.99253125,-0.0015,-0.324125,1.2004375,0.93178125,-0.5005000000000001,-1.1111875,1.13184375,0.020366931287116592,0.03134310155583044,True
46330,528,0,529,3321.0,39725.0,29548.0,0.0017079999999999999,-0.000366,0.000549,0.21000000000000002,-1.715,-3.5000000000000004,0.99690625,-0.004,-0.31853125,1.19978125,0.9433750000000001,-0.4976875,-1.10359375,1.1380625,0.02015241234504277,0.031272912867306095,True
46331,529,0,530,3322.0,39726.0,29547.0,0.00244,0.00061,-0.0006709999999999999,0.3325,-1.9775000000000003,-3.4475000000000002,1.0156875,-0.004625,-0.32015625000000003,1.18403125,0.9430937500000001,-0.4931875,-1.1087500000000001,1.1404375,0.01994687298253851,0.031407128988898296,True
46332,530,0,531,3324.0,39727.0,29547.0,0.00488,0.001281,-0.00244,0.29750000000000004,-2.1700000000000004,-3.4825000000000004,1.00825,-0.01578125,-0.3235,1.18321875,0.95215625,-0.49878125,-1.10928125,1.1281875000000001,0.019715266448203417,0.03129445411743915,True
46333,531,0,532,3326.0,39727.0,29549.0,0.006588,0.001586,-0.004514,0.31500000000000006,-2.2750000000000004,-3.4650000000000003,0.992625,-0.0096875,-0.32878125,1.18434375,0.95103125,-0.5018125,-1.110125,1.12440625,0.02008524879536973,0.03111668102010643,True
46334,532,0,533,3326.0,39729.0,29550.0,0.0023179999999999997,-6.1e-05,-0.001403,0.35000000000000003,-2.0125,-3.6925000000000003,0.9914375,-0.0023125,-0.32646875000000003,1.2027812500000001,0.9431875000000001,-0.50128125,-1.11315625,1.1345,0.02036500642185804,0.031325711996077754,True
46335,533,0,534,3328.0,39731.0,29552.0,-0.003111,-0.002196,0.000183,0.3325,-1.2600000000000002,-3.6225000000000005,0.99228125,-0.001875,-0.32378125,1.1905000000000001,0.94278125,-0.4981875,-1.112125,1.1251875,0.02025915182500746,0.03139295260755512,True
46336,534,0,535,3329.0,39730.0,29550.0,-0.0062829999999999995,-0.002196,0.0034159999999999998,0.28,-0.8575,-3.6925000000000003,0.992,-0.008,-0.3243125,1.18284375,0.9434375,-0.4988125,-1.1099375,1.13153125,0.02003413430753021,0.031287413598699715,True
46337,535,0,536,3329.0,39729.0,29550.0,-0.0068319999999999995,-0.001281,0.004148,0.29750000000000004,-0.77,-3.9025000000000003,0.9988750000000001,-0.00765625,-0.32056250000000003,1.1914375,0.95140625,-0.49890625,-1.109125,1.1370625,0.020051915582966075,0.031405415361945105,True
46338,536,0,537,3329.0,39727.0,29547.0,-0.005429,-6.1e-05,0.003843,0.31500000000000006,-0.8400000000000001,-3.8500000000000005,1.003125,-0.00315625,-0.32256250000000003,1.19715625,0.93978125,-0.49715625,-1.10128125,1.13021875,0.020165605956813864,0.031023067796589067,True
46339,537,0,538,3328.0,39726.0,29545.0,-0.0026839999999999998,0.0006709999999999999,0.0021349999999999997,0.22750000000000004,-1.4000000000000001,-3.8150000000000004,1.0010000000000001,-0.0048125,-0.32484375,1.18978125,0.9444375,-0.49815625,-1.11278125,1.13753125,0.02013799507871128,0.03137595522200473,True
46340,538,0,539,3326.0,39723.0,29542.0,0.0008539999999999999,-0.000183,-0.001037,0.29750000000000004,-1.9075000000000002,-3.7625,0.998625,-0.0074687500000000006,-0.32356250000000003,1.188375,0.943875,-0.5005625,-1.11375,1.1322812500000001,0.02012581343795678,0.03146433726544224,True
46341,539,0,540,3322.0,39723.0,29539.0,0.00366,-6.1e-05,-0.002989,0.36750000000000005,-2.2750000000000004,-3.7275000000000005,1.00496875,-0.0053125,-0.322375,1.1891875,0.9448125,-0.49965625,-1.109375,1.13475,0.020177579022154647,0.031342874922215304,True
46342,540,0,541,3321.0,39722.0,29535.0,0.005856,0.000976,-0.002379,0.4025,-2.31,-3.9200000000000004,1.0049375,-0.005625,-0.32203125,1.1873125,0.948125,-0.49859375,-1.10940625,1.1323750000000001,0.020122328449974806,0.03135777055660167,True
46343,541,0,542,3315.0,39718.0,29531.0,0.006344,0.000488,-0.0013419999999999999,0.3325,-2.205,-4.025,1.0010000000000001,-0.004,-0.3249375,1.184375,0.94875,-0.5015000000000001,-1.10659375,1.1250625,0.020304879293104507,0.031133504520102412,True
46344,542,0,543,3314.0,39716.0,29530.0,0.000366,-0.000244,0.000244,0.29750000000000004,-1.4700000000000002,-3.9550000000000005,0.9975937500000001,-0.00484375,-0.32515625,1.19434375,0.943125,-0.49125,-1.11115625,1.12909375,0.019860409329862706,0.031300828690435156,True
46345,543,0,544,3307.0,39712.0,29525.0,-0.001464,0.00042699999999999997,0.001464,0.28,-1.3125000000000002,-4.130000000000001,0.9977812500000001,-0.0051875,-0.32234375,1.19428125,0.9435,-0.4980625,-1.1075,1.139,0.020118937977237995,0.031271781340236976,True
46346,544,0,545,3303.0,39708.0,29522.0,-0.0023179999999999997,0.00061,0.000976,0.4025,-1.0675000000000001,-4.2,1.00678125,-0.00671875,-0.32265625000000003,1.185875,0.95021875,-0.49871875,-1.103,1.1322812500000001,0.02008268289540652,0.031085677010715844,True
46347,545,0,546,3297.0,39707.0,29519.0,-0.003355,0.000183,0.000915,0.4025,-1.1025,-4.095000000000001,1.0058125,-0.00240625,-0.321,1.18815625,0.95125,-0.501875,-1.1115,1.1306875,0.020384919521465195,0.031479600979630845,True
46348,546,0,547,3295.0,39705.0,29516.0,-0.002928,0.000305,0.00061,0.4025,-1.1725,-4.130000000000001,0.998625,-0.006125,-0.32659375,1.18903125,0.94334375,-0.500375,-1.11228125,1.1319062500000001,0.02017316061488855,0.03128698234056295,True
46349,547,0,548,3293.0,39704.0,29515.0,0.00042699999999999997,-0.001037,0.000183,0.31500000000000006,-1.5925000000000002,-3.9725000000000006,0.9984375,-0.00771875,-0.32706250000000003,1.18840625,0.94284375,-0.5013125,-1.11171875,1.13278125,0.020145604444659855,0.031246616681703636,True
46350,548,0,549,3287.0,39701.0,29512.0,-0.000183,-0.00122,-0.000549,0.42000000000000004,-1.7850000000000001,-3.8850000000000002,0.9989375,-0.00784375,-0.32478125,1.1884375,0.94284375,-0.501875,-1.111875,1.1330625,0.02016299772976558,0.03134348789168471,True
46351,549,0,550,3285.0,39702.0,29511.0,0.001647,-0.00183,0.0008539999999999999,0.24500000000000002,-1.9425000000000001,-3.9550000000000005,1.00078125,-0.00475,-0.32528125,1.1890625000000001,0.9469062500000001,-0.5010625,-1.1095625,1.13315625,0.020256774578653478,0.031234365393662276,True
46352,550,0,551,3285.0,39702.0,29511.0,0.002745,-0.0015249999999999999,-0.001037,0.24500000000000002,-2.0125,-3.9375000000000004,0.999,-0.0073125,-0.32459375,1.18853125,0.9434375,-0.49875,-1.1106562500000001,1.13271875,0.020059696923312414,0.03130394093145216,True
46353,551,0,552,3282.0,39704.0,29511.0,0.0008539999999999999,-0.0015249999999999999,-0.003477,0.2625,-2.0650000000000004,-3.9025000000000003,0.9975625,-0.0074687500000000006,-0.32415625,1.18771875,0.9434375,-0.5011875,-1.10528125,1.13084375,0.020150809016909892,0.031113971288411677,True
46354,552,0,553,3281.0,39702.0,29508.0,0.00061,0.001037,-0.000122,0.24500000000000002,-1.8550000000000002,-3.9550000000000005,0.99884375,-0.0083125,-0.32584375,1.1890625000000001,0.9434375,-0.49975,-1.11325,1.1268125,0.020058878151817876,0.03135421540421889,True
46355,553,0,554,3280.0,39701.0,29508.0,0.000122,0.000244,-6.1e-05,0.21000000000000002,-1.5925000000000002,-3.9725000000000006,0.9976875000000001,-0.00703125,-0.3233125,1.1891875,0.94375,-0.5008125,-1.10996875,1.13284375,0.020153668373242725,0.03132844400692454,True
46356,554,0,555,3279.0,39701.0,29506.0,-0.0017079999999999999,0.000915,0.002196,0.17500000000000002,-1.4525000000000001,-3.99,1.0030937500000001,-0.00825,-0.32309375,1.1889687500000001,0.95040625,-0.4965,-1.109,1.1325,0.019931418774110587,0.031299782946353896,True
46357,555,0,556,3278.0,39699.0,29503.0,-0.002623,0.0026839999999999998,0.003111,0.28,-1.4525000000000001,-3.8675,1.0026875,-0.0046875,-0.32184375,1.19175,0.94915625,-0.498375,-1.10828125,1.13365625,0.020151846806165715,0.03132183729222804,True
46358,556,0,557,3278.0,39700.0,29505.0,-0.001952,0.002623,-0.000122,0.28,-1.6275000000000002,-3.8150000000000004,1.0006875,-0.0054062500000000005,-0.3223125,1.1929375,0.9485625,-0.4991875,-1.1090625,1.14215625,0.020155005140476596,0.031333308441922114,True
46359,557,0,558,3277.0,39700.0,29505.0,0.003294,0.001403,-0.001098,0.29750000000000004,-1.9600000000000002,-3.8850000000000002,0.99825,-0.0053125,-0.32409375,1.1915,0.947625,-0.49896875,-1.1098125,1.142375,0.020150082847874975,0.03129130295178429,True
46360,558,0,559,3276.0,39700.0,29504.0,0.002196,0.000549,-0.001281,0.24500000000000002,-2.0825,-3.7625,0.9988750000000001,-0.00521875,-0.32446875000000003,1.19115625,0.9396875,-0.49675,-1.11121875,1.14346875,0.02006516170512415,0.031330617913557054,True
46361,559,0,560,3277.0,39700.0,29505.0,0.003538,-0.0008539999999999999,-0.000122,0.17500000000000002,-2.0825,-3.8325000000000005,0.9985,-0.00584375,-0.3219375,1.1909687500000001,0.9420625,-0.496875,-1.10765625,1.140625,0.02004464855211124,0.0312939902544667,True
46362,560,0,561,3276.0,39702.0,29504.0,0.002013,-0.0018909999999999999,-0.000549,0.15750000000000003,-1.9250000000000003,-3.8325000000000005,1.00240625,-0.0055,-0.32375,1.18940625,0.955375,-0.49584375,-1.107625,1.13084375,0.020017426425656393,0.031220595337073904,True
46363,561,0,562,3279.0,39701.0,29506.0,0.000305,-0.000976,0.000488,0.29750000000000004,-1.61,-3.8325000000000005,0.99903125,0.00103125,-0.32253125,1.21278125,0.9401875000000001,-0.50071875,-1.113875,1.14309375,0.020478991050007462,0.031510220943601897,True
46364,562,0,563,3277.0,39699.0,29507.0,-0.0037819999999999998,-0.001037,0.0015249999999999999,0.385,-1.225,-3.9375000000000004,0.9953125,-0.0039375,-0.31971875,1.19875,0.9399375,-0.49643750000000003,-1.11071875,1.14303125,0.020104964242249515,0.03150049219519055,True
46365,563,0,564,3278.0,39703.0,29507.0,-0.004209,-0.000915,0.002257,0.28,-1.3125000000000002,-3.8850000000000002,1.0145625,-0.00375,-0.315625,1.2070625,0.9405625,-0.49578125,-1.11215625,1.14334375,0.020086366912669913,0.031718950856719046,True
46366,564,0,565,3279.0,39702.0,29506.0,-0.00244,-0.0011589999999999999,0.0021349999999999997,0.385,-1.435,-3.7625,1.0140625,0.00303125,-0.31571875,1.20225,0.94103125,-0.49653125000000004,-1.11175,1.1420625,0.020393193424068968,0.0316995529980985,True
46367,565,0,566,3278.0,39700.0,29507.0,-0.0015249999999999999,0.000183,-0.000305,0.385,-1.6275000000000002,-3.7450000000000006,0.99921875,-0.00071875,-0.32590625,1.20734375,0.9401875000000001,-0.49671875,-1.11584375,1.13221875,0.020247609692624652,0.0314517604052223,True
46368,566,0,567,3278.0,39700.0,29508.0,-0.000366,0.0008539999999999999,-0.002013,0.42000000000000004,-2.0300000000000002,-3.7625,0.98903125,-6.25e-05,-0.33040625,1.1885000000000001,0.93996875,-0.50225,-1.11434375,1.1306875,0.020495566733667318,0.03121473162124732,True
46369,567,0,568,3279.0,39703.0,29507.0,0.003477,0.0017079999999999999,-0.001586,0.385,-2.0825,-3.7100000000000004,0.9841562500000001,-0.0003125,-0.3258125,1.20628125,0.9400625,-0.50009375,-1.11334375,1.14015625,0.020399156635880218,0.03135907579013647,True
46370,568,0,569,3279.0,39703.0,29505.0,0.0028669999999999998,-0.001281,-0.001647,0.31500000000000006,-2.1700000000000004,-3.6575,1.0230000000000001,-0.01234375,-0.32309375,1.17884375,0.94440625,-0.497875,-1.10778125,1.13084375,0.019819321063561636,0.03125276153184583,True
46371,569,0,570,3279.0,39703.0,29509.0,0.003172,-0.000488,-6.1e-05,0.525,-1.9075000000000002,-3.6750000000000003,0.99728125,-0.0155,-0.33578125000000003,1.18590625,0.93903125,-0.503,-1.11034375,1.1295625,0.019895522997184018,0.03084635191423853,True
46372,570,0,571,3280.0,39703.0,29509.0,0.00244,-0.001464,-0.000976,0.42000000000000004,-1.6975000000000002,-3.7100000000000004,0.9874375,-0.0070625,-0.3303125,1.19765625,0.9411875000000001,-0.5005625,-1.1107500000000001,1.1320937500000001,0.020142394689917832,0.031079816413289135,True
46373,571,0,572,3280.0,39702.0,29509.0,-0.000732,0.000122,-0.001464,0.385,-1.5925000000000002,-3.8675,0.99546875,-0.0016250000000000001,-0.31884375,1.2073125,0.9421875000000001,-0.49771875,-1.1109375000000001,1.1370625,0.020250610069560047,0.031543774500653356,True
46374,572,0,573,3281.0,39702.0,29510.0,-0.0037819999999999998,0.0025009999999999998,0.0013419999999999999,0.45500000000000007,-1.0150000000000001,-3.8500000000000005,1.00321875,-0.00203125,-0.3154375,1.2,0.9429375,-0.498375,-1.10803125,1.1405,0.020260272365003804,0.03156733963360827,True
46375,573,0,574,3280.0,39703.0,29508.0,-0.0026839999999999998,0.000549,0.001952,0.4025,-0.9450000000000001,-3.8150000000000004,1.01584375,-0.00715625,-0.31821875,1.18621875,0.9450937500000001,-0.498625,-1.108625,1.12896875,0.020061074856241933,0.031479471695483124,True
46376,574,0,575,3279.0,39701.0,29509.0,-0.003721,-0.0013419999999999999,0.000305,0.2625,-1.0325000000000002,-3.7450000000000006,0.9926875000000001,-0.0055625,-0.31953125,1.19265625,0.95078125,-0.49884375000000003,-1.108,1.136375,0.020134878814433845,0.031403088657001754,True
46377,575,0,576,3280.0,39700.0,29509.0,-0.000244,-0.001037,0.0006709999999999999,0.31500000000000006,-1.1725,-3.6575,1.0028125,-0.0010625,-0.3225,1.191625,0.9520000000000001,-0.4986875,-1.1080625,1.13246875,0.020312312649402135,0.031287260815126616,True
46378,576,0,577,3282.0,39702.0,29510.0,-0.0011589999999999999,-0.0006709999999999999,-0.000549,0.36750000000000005,-1.33,-3.6575,1.0033750000000001,-0.00753125,-0.323125,1.1888750000000001,0.950125,-0.50146875,-1.1131875,1.1324375,0.020159505743915864,0.03146006455771495,True
46379,577,0,578,3281.0,39701.0,29511.0,0.002989,-0.001281,-0.0015249999999999999,0.35000000000000003,-1.7500000000000002,-3.5700000000000003,0.99825,-0.0039375,-0.32453125,1.19609375,0.9439062500000001,-0.4975,-1.11159375,1.1388125,0.020147464026941526,0.031342594493828174,True
46380,578,0,579,3282.0,39701.0,29512.0,0.0026839999999999998,-0.003172,-0.0015249999999999999,0.31500000000000006,-1.7325000000000002,-3.5875000000000004,1.00265625,-0.00575,-0.32190625,1.189625,0.9505625,-0.49562500000000004,-1.1086562500000001,1.13296875,0.01999846911438267,0.031333815404796905,True
46381,579,0,580,3282.0,39703.0,29512.0,0.002806,-0.001403,-0.000366,0.4025,-1.715,-3.6750000000000003,1.00409375,-0.006,-0.32296875,1.189625,0.94275,-0.5009375,-1.1100625,1.133625,0.02020075762407051,0.031345750334153884,True
46382,580,0,581,3282.0,39704.0,29510.0,0.0,0.001647,-0.00122,0.385,-1.6975000000000002,-3.6575,0.99921875,-0.004125,-0.32534375,1.189,0.94253125,-0.5004375,-1.109375,1.13259375,0.02025729132387942,0.031224642190416926,True
46383,581,0,582,3284.0,39703.0,29512.0,0.0,0.0023179999999999997,0.0018909999999999999,0.3325,-1.5575,-3.3950000000000005,0.9978750000000001,-0.00934375,-0.32309375,1.18875,0.9435625,-0.50046875,-1.1123125,1.13240625,0.02004553484308336,0.03142756167915639,True
46384,582,0,583,3284.0,39706.0,29514.0,-0.001769,0.0037819999999999998,0.0011589999999999999,0.43750000000000006,-1.3650000000000002,-3.7800000000000002,0.99946875,-0.00821875,-0.32215625000000003,1.18840625,0.94315625,-0.5,-1.110125,1.13265625,0.020072704081632652,0.03138051881462159,True
46385,583,0,584,3284.0,39706.0,29516.0,-0.000305,0.000122,0.002379,0.385,-1.4000000000000001,-3.5875000000000004,0.99865625,-0.00553125,-0.32384375,1.189375,0.9430000000000001,-0.49903125000000004,-1.1090625,1.1319062500000001,0.020143653639365842,0.03127232448443665,True
46386,584,0,585,3285.0,39707.0,29515.0,-0.000976,-0.0008539999999999999,6.1e-05,0.385,-1.2775,-3.5000000000000004,1.00378125,-0.007125,-0.319,1.1791562500000001,0.9455,-0.50109375,-1.10903125,1.13271875,0.020161089747268938,0.03146402751002191,True
46387,585,0,586,3288.0,39707.0,29516.0,-0.000305,-0.001586,-0.0006709999999999999,0.3325,-1.2950000000000002,-3.4825000000000004,1.002875,-0.00521875,-0.32106250000000003,1.19353125,0.9516875,-0.500125,-1.1079375,1.140625,0.020200152040040612,0.03133969088460572,True
46388,586,0,587,3286.0,39706.0,29515.0,-0.00061,-0.000915,0.000793,0.4025,-1.4000000000000001,-3.5525,0.998625,-0.00125,-0.32434375,1.1929375,0.94765625,-0.498,-1.101375,1.1280937500000001,0.020277165482896563,0.030955724537002457,True
46389,587,0,588,3288.0,39706.0,29517.0,0.00042699999999999997,-0.002257,-0.001403,0.385,-1.5750000000000002,-3.6225000000000005,0.99875,-0.0068125,-0.32415625,1.18396875,0.9365,-0.4980625,-1.1125,1.1338125000000001,0.020052606201000592,0.03139248382279741,True
46390,588,0,589,3289.0,39708.0,29516.0,0.000549,-0.0017079999999999999,0.000732,0.35000000000000003,-1.5575,-3.6050000000000004,0.9864375,-0.0064687500000000005,-0.3249375,1.189625,0.94375,-0.49853125000000004,-1.10934375,1.12996875,0.020085387771971025,0.03123961573069786,True
46391,589,0,590,3290.0,39707.0,29518.0,-0.00042699999999999997,-0.000732,-0.001098,0.49000000000000005,-1.4525000000000001,-3.7100000000000004,0.9939687500000001,-0.0060625,-0.32278125,1.18825,0.93403125,-0.50171875,-1.11034375,1.13153125,0.02022944818922142,0.03136406684994107,True
46392,590,0,591,3292.0,39708.0,29521.0,-0.00042699999999999997,0.000366,-0.000793,0.385,-1.435,-3.6925000000000003,0.9980625000000001,-0.00809375,-0.32546875000000003,1.18775,0.9365,-0.49746875,-1.111375,1.13371875,0.0199765537000634,0.03129682265507166,True
46393,591,0,592,3293.0,39707.0,29523.0,-0.0017079999999999999,0.000976,0.001037,0.45500000000000007,-1.3650000000000002,-3.6575,0.9980625000000001,-0.0044375000000000005,-0.32509375,1.1795,0.9422812500000001,-0.49846875,-1.10803125,1.13765625,0.02016580117890021,0.03118275153492969,True
46394,592,0,593,3292.0,39706.0,29521.0,-0.002013,0.000915,-0.000183,0.43750000000000006,-1.3650000000000002,-3.7625,0.99509375,-0.0040625,-0.32096875,1.192625,0.93825,-0.49775,-1.1068125,1.13921875,0.02015236093110592,0.031300020661722786,True
46395,593,0,594,3294.0,39708.0,29524.0,-0.00061,0.000488,0.00122,0.36750000000000005,-1.3125000000000002,-3.6925000000000003,1.006125,-0.00575,-0.3225,1.1890625000000001,0.94825,-0.49903125000000004,-1.10853125,1.1255625,0.020134724714880307,0.03130534566811828,True
46396,594,0,595,3295.0,39707.0,29524.0,-0.001037,-0.000183,0.00061,0.385,-1.4700000000000002,-3.7275000000000005,0.9983125,-0.0044375000000000005,-0.31546875,1.19178125,0.939625,-0.49753125000000004,-1.1081875,1.13846875,0.02012830374489266,0.03157212164358738,True
46397,595,0,596,3295.0,39710.0,29526.0,0.001403,0.000244,-0.000366,0.36750000000000005,-1.6450000000000002,-3.7100000000000004,1.0039375,-0.00634375,-0.3213125,1.19265625,0.9503125,-0.49796875,-1.1085,1.132625,0.020067990330831002,0.031351434773084816,True
46398,596,0,597,3297.0,39709.0,29527.0,0.00244,0.000183,-0.000183,0.43750000000000006,-1.7850000000000001,-3.7450000000000006,1.00396875,-0.0054062500000000005,-0.32178125,1.1944375,0.95346875,-0.5014375,-1.10853125,1.1283125,0.02024498562584338,0.03133397139667419,True
46399,597,0,598,3298.0,39709.0,29525.0,0.002013,-0.000732,-0.00042699999999999997,0.3325,-1.61,-3.7975000000000003,1.0068125,-0.0050625,-0.3211875,1.1944375,0.960375,-0.50240625,-1.10715625,1.12503125,0.02029775136880689,0.03130457078347932,True
46400,598,0,599,3298.0,39710.0,29527.0,0.001281,-0.001098,-0.000488,0.35000000000000003,-1.4175000000000002,-3.6925000000000003,0.99853125,-0.0043125,-0.32465625,1.19371875,0.96315625,-0.48996875,-1.104875,1.14253125,0.019830823589760606,0.031078376211791537,True
46401,599,0,600,3299.0,39710.0,29526.0,-0.000549,-0.000305,-0.001037,0.36750000000000005,-1.3650000000000002,-3.7625,0.9999375,-0.00515625,-0.32121875,1.1893125,0.9547187500000001,-0.5000625,-1.105125,1.12475,0.020200203570909257,0.03122494908908041,True
46402,600,0,601,3300.0,39712.0,29529.0,-0.0018909999999999999,0.000915,-0.000122,0.29750000000000004,-1.4175000000000002,-3.7800000000000002,0.9923125,-0.0053125,-0.321125,1.1887812500000001,0.9605,-0.50190625,-1.0999375,1.131125,0.020267555713139665,0.031028463716294117,True
46403,601,0,602,3299.0,39711.0,29530.0,-0.000976,0.001281,0.00061,0.45500000000000007,-1.1725,-3.8325000000000005,0.9989375,-0.00021875,-0.32159375,1.1936875,0.95840625,-0.49903125000000004,-1.1050312500000001,1.14140625,0.020360498948300252,0.031206394136633474,True
46404,602,0,603,3301.0,39711.0,29530.0,-0.002379,0.0008539999999999999,0.0008539999999999999,0.36750000000000005,-1.225,-3.7800000000000002,0.9977812500000001,-0.0043125,-0.325625,1.19521875,0.9585,-0.496875,-1.09746875,1.1355,0.020107156525066974,0.0307538484334202,True
46405,603,0,604,3303.0,39712.0,29534.0,-0.001769,0.000183,-0.000488,0.3325,-1.4000000000000001,-3.7275000000000005,1.0011875000000001,-0.0053125,-0.31790625,1.18909375,0.96125,-0.50115625,-1.105,1.1284375,0.02023756531898367,0.031352071300537736,True
46406,604,0,605,3304.0,39714.0,29534.0,0.000732,-0.00061,-0.000976,0.31500000000000006,-1.6625,-3.7450000000000006,1.00671875,-0.00803125,-0.322,1.18925,0.9374687500000001,-0.50603125,-1.10965625,1.127875,0.020321527991196048,0.03136865921850284,True
46407,605,0,606,3306.0,39713.0,29535.0,0.00122,-0.0006709999999999999,0.000244,0.3325,-1.6800000000000002,-3.7275000000000005,1.00190625,-0.00821875,-0.32471875,1.189375,0.93103125,-0.50009375,-1.1145,1.136125,0.02007645378907989,0.03144722172450179,True
46408,606,0,607,3306.0,39714.0,29535.0,0.001769,-0.000976,-6.1e-05,0.2625,-1.7675,-3.6925000000000003,0.998125,-0.0069375,-0.32240625,1.18934375,0.93659375,-0.49459375,-1.11225,1.12771875,0.019908729860032892,0.03145252814861273,True
46409,607,0,608,3307.0,39715.0,29536.0,0.002074,0.000244,0.0,0.22750000000000004,-1.715,-3.6225000000000005,0.99884375,-0.0055625,-0.31915625000000003,1.19453125,0.9460625,-0.50284375,-1.10471875,1.142875,0.020294838226685423,0.03129142803083584,True
46410,608,0,609,3308.0,39713.0,29536.0,0.001098,0.00122,0.000305,0.3325,-1.5750000000000002,-3.7275000000000005,0.9948750000000001,-0.00096875,-0.32296875,1.1834375,0.9410625,-0.49603125000000003,-1.10615625,1.13128125,0.02020990645168286,0.03119503806959697,True
46411,609,0,610,3308.0,39715.0,29537.0,0.001769,0.000793,0.000305,0.24500000000000002,-1.4175000000000002,-3.6225000000000005,1.00446875,-0.0061875,-0.32153125,1.19621875,0.9383125,-0.50134375,-1.10659375,1.13546875,0.020209350762649497,0.03126917605061419,True
46412,610,0,611,3311.0,39716.0,29537.0,0.00042699999999999997,0.000549,0.00244,0.28,-1.225,-3.7975000000000003,0.99709375,-0.00109375,-0.32465625,1.18453125,0.9470937500000001,-0.49840625,-1.1108125,1.132875,0.020299789909802808,0.03130747959668768,True
46413,611,0,612,3311.0,39717.0,29540.0,-0.003904,-0.001647,0.000549,0.29750000000000004,-1.0850000000000002,-3.8500000000000005,0.998375,-0.00821875,-0.3231875,1.18915625,0.94446875,-0.49725,-1.10771875,1.12621875,0.019962699894886162,0.031246616142695166,True
46414,612,0,613,3312.0,39715.0,29539.0,-0.0034159999999999998,-0.002013,0.000244,0.31500000000000006,-1.155,-3.7450000000000006,1.006,-0.003,-0.32040625,1.1945625,0.95125,-0.498875,-1.10728125,1.13934375,0.02024072533942885,0.031340510036306696,True
46415,613,0,614,3313.0,39716.0,29541.0,-0.002623,-0.001037,-0.000793,0.31500000000000006,-1.4175000000000002,-3.6925000000000003,0.98946875,-0.0060625,-0.321,1.1789375,0.95015625,-0.49834375000000003,-1.10734375,1.13290625,0.02009447067212452,0.031319272872105404,True
46416,614,0,615,3313.0,39715.0,29541.0,-0.00061,0.001464,6.1e-05,0.2625,-1.5925000000000002,-3.7975000000000003,1.0030625,-0.00171875,-0.322125,1.18840625,0.94875,-0.500375,-1.11078125,1.1326875,0.020353004800946928,0.031407077388323,True
46417,615,0,616,3315.0,39718.0,29544.0,0.000244,0.000976,-0.000244,0.22750000000000004,-1.8200000000000003,-3.6750000000000003,0.99875,-0.00478125,-0.32196875,1.19346875,0.9430000000000001,-0.49693750000000003,-1.1066562500000001,1.1399062500000001,0.020090521519271543,0.031254161931659065,True
46418,616,0,617,3317.0,39718.0,29543.0,0.004758,-6.1e-05,-0.00042699999999999997,0.17500000000000002,-1.9075000000000002,-3.325,0.9980625000000001,-0.00396875,-0.318125,1.19446875,0.9426875,-0.49740625,-1.1091875,1.14153125,0.020142438548979034,0.03150490233903427,True
46419,617,0,618,3317.0,39719.0,29545.0,0.004575,0.001281,-0.00061,0.385,-1.7500000000000002,-3.3950000000000005,0.99525,-0.0045000000000000005,-0.3185,1.189,0.94275,-0.497125,-1.11015625,1.133375,0.02010950264571863,0.03152733269033322,True
46420,618,0,619,3320.0,39721.0,29547.0,0.003294,0.0025009999999999998,-0.000793,0.36750000000000005,-1.8725000000000003,-3.4825000000000004,0.9856875,-0.00915625,-0.325625,1.1887812500000001,0.9428125,-0.5015000000000001,-1.1104375,1.13271875,0.020094432993898338,0.03125443353983776,True
46421,619,0,620,3320.0,39719.0,29549.0,0.001586,0.0013419999999999999,-0.0013419999999999999,0.4025,-1.6450000000000002,-3.5175000000000005,0.99834375,-0.009625,-0.32409375,1.188375,0.943125,-0.50009375,-1.10328125,1.1320000000000001,0.020019056049530422,0.031039269019861697,True
46422,620,0,621,3323.0,39720.0,29550.0,-0.000488,0.0011589999999999999,-0.001586,0.4025,-1.54,-3.4650000000000003,0.99846875,-0.00946875,-0.3226875,1.1806875000000001,0.94403125,-0.50140625,-1.10928125,1.13246875,0.020077929200492322,0.03132681267011576,True
46423,621,0,622,3324.0,39722.0,29548.0,-0.001647,-0.001586,-0.000244,0.31500000000000006,-1.2600000000000002,-3.3600000000000003,1.0013750000000001,-0.01040625,-0.32021875,1.1933125,0.9430625,-0.49528125,-1.10725,1.1365,0.019794628812437088,0.031346772346632946,True
46424,622,0,623,3326.0,39722.0,29550.0,-0.002806,-0.002623,0.001281,0.31500000000000006,-1.0675000000000001,-3.4475000000000002,1.0033750000000001,-0.00253125,-0.32421875,1.19828125,0.9498125000000001,-0.497875,-1.1063125,1.1390625,0.020219866008786478,0.03115127918526466,True
46425,623,0,624,3326.0,39722.0,29552.0,-0.0040869999999999995,-0.0026839999999999998,0.0021349999999999997,0.24500000000000002,-0.9275000000000001,-3.5700000000000003,0.99559375,-0.0035,-0.3269375,1.1868750000000001,0.94225,-0.4985,-1.10871875,1.13353125,0.020205318692981204,0.031135847981092223,True
46426,624,0,625,3328.0,39717.0,29549.0,-0.004392,-0.001037,0.0030499999999999998,0.4025,-0.9975,-3.535,1.001875,-0.0095625,-0.31815625000000003,1.18596875,0.93984375,-0.5016875000000001,-1.10778125,1.13378125,0.020085351264071103,0.03144941371512069,True
46427,625,0,626,3326.0,39717.0,29549.0,-0.005063,-0.000305,0.002013,0.4025,-1.1900000000000002,-3.6225000000000005,1.00446875,-0.00471875,-0.3196875,1.19946875,0.9363750000000001,-0.49834375000000003,-1.106,1.13871875,0.020149321318915694,0.031319704453118775,True
46428,626,0,627,3326.0,39718.0,29545.0,0.001098,0.000488,-0.000976,0.28,-1.8025000000000002,-3.6575,0.99775,0.00346875,-0.3135,1.1993125,0.94321875,-0.4990625,-1.1075625,1.12784375,0.020512264499917086,0.03162642729655656,True
46429,627,0,628,3323.0,39715.0,29542.0,0.0042699999999999995,-0.0008539999999999999,-0.0023179999999999997,0.17500000000000002,-2.0475000000000003,-3.5700000000000003,0.99584375,-0.00378125,-0.324,1.1960625,0.9424375,-0.498,-1.10825,1.1228125,0.020173840721691566,0.031234753517270217,True
46430,628,0,629,3322.0,39714.0,29540.0,0.006039,-0.0006709999999999999,-0.002074,0.14,-2.1875,-3.5875000000000004,0.9955625,-0.00396875,-0.32675,1.18328125,0.94259375,-0.4978125,-1.10828125,1.131875,0.020158687637926855,0.03112643363432135,True
46431,629,0,630,3318.0,39711.0,29536.0,0.0046359999999999995,0.000305,-0.0011589999999999999,0.17500000000000002,-1.9425000000000001,-3.7275000000000005,0.99175,-0.00384375,-0.323125,1.19934375,0.94275,-0.497625,-1.106125,1.13553125,0.020156290660829367,0.031187608601486692,True
46432,630,0,631,3311.0,39712.0,29531.0,0.001586,0.00122,-0.0008539999999999999,0.29750000000000004,-1.61,-3.8675,0.997375,-0.00465625,-0.32221875,1.19603125,0.9434375,-0.49796875,-1.10678125,1.13528125,0.020136873592836144,0.03124902759090236,True
46433,631,0,632,3309.0,39706.0,29529.0,-0.003294,0.000366,0.003172,0.10500000000000001,-1.0325000000000002,-3.9375000000000004,0.995125,-0.00115625,-0.32415625,1.18853125,0.9432812500000001,-0.49840625,-1.1068437500000001,1.1339062500000001,0.020297238723437368,0.031174268967998027,True
46434,632,0,633,3305.0,39705.0,29526.0,-0.0028669999999999998,0.00061,0.002074,0.22750000000000004,-1.1725,-4.0075,0.99565625,-0.00725,-0.32221875,1.189125,0.93625,-0.49784375000000003,-1.1098125,1.132625,0.020025997185976828,0.031365974955010124,True
46435,633,0,634,3300.0,39703.0,29519.0,-0.002562,-0.000183,0.000732,0.21000000000000002,-1.2775,-3.9200000000000004,0.998125,-0.007625,-0.324875,1.189375,0.94375,-0.50171875,-1.1098125,1.13384375,0.020165677152750763,0.03126018961710686,True
46436,634,0,635,3297.0,39701.0,29517.0,-0.001769,0.000183,0.0008539999999999999,0.22750000000000004,-1.3475000000000001,-3.8325000000000005,0.9986875000000001,-0.00578125,-0.32196875,1.1891875,0.9439062500000001,-0.50275,-1.109625,1.13378125,0.02028216220628297,0.03136869825813807,True
46437,635,0,636,3293.0,39700.0,29514.0,-0.000305,0.001952,6.1e-05,0.24500000000000002,-1.6975000000000002,-3.9725000000000006,1.00553125,-0.00615625,-0.32115625000000003,1.1875,0.94325,-0.50271875,-1.1099375,1.1300625,0.02026560828071375,0.03141311084505885,True
46438,636,0,637,3288.0,39697.0,29512.0,0.003111,-0.000244,-0.0008539999999999999,0.31500000000000006,-2.0825,-3.8500000000000005,0.99253125,-0.00459375,-0.32028125,1.19628125,0.96890625,-0.50196875,-1.0986562500000001,1.14509375,0.020299389207244823,0.031012616462285706,True
46439,637,0,638,3287.0,39693.0,29509.0,0.0040869999999999995,-0.0013419999999999999,-0.0006709999999999999,0.2625,-1.9075000000000002,-3.9200000000000004,0.99765625,-0.00490625,-0.3219375,1.19475,0.96375,-0.50065625,-1.1009375000000001,1.13546875,0.020234151891339647,0.03103469740921032,True
46440,638,0,639,3286.0,39696.0,29509.0,0.002379,-0.0015249999999999999,-0.0015249999999999999,0.31500000000000006,-1.7500000000000002,-3.8500000000000005,0.9881875,-0.00565625,-0.32456250000000003,1.1887812500000001,0.9675,-0.49371875,-1.1094375,1.1454375,0.019926026953338803,0.03125816737232764,True
46441,639,0,640,3283.0,39695.0,29509.0,-0.000915,-0.0013419999999999999,-0.000549,0.47250000000000003,-1.7500000000000002,-3.7625,0.99834375,-0.00796875,-0.32490625,1.189625,0.9308125,-0.49196875,-1.113375,1.153,0.019761580007732125,0.031396367473507644,True
46442,640,0,641,3281.0,39694.0,29510.0,-0.000976,-0.00061,-0.0018909999999999999,0.42000000000000004,-1.5225000000000002,-3.8675,0.9984375,-0.0044687500000000005,-0.32015625000000003,1.19525,0.967125,-0.49946875,-1.10140625,1.12321875,0.02020451974086173,0.03112375427173527,True
46443,641,0,642,3278.0,39694.0,29507.0,-0.001647,6.1e-05,0.001586,0.4025,-1.4000000000000001,-3.9200000000000004,1.004875,-0.004875,-0.321375,1.18990625,0.9624375000000001,-0.5075000000000001,-1.112125,1.12321875,0.020509027848617772,0.03148877285375093,True
46444,642,0,643,3279.0,39696.0,29509.0,-0.0026839999999999998,-0.000488,0.001952,0.36750000000000005,-1.5050000000000001,-4.0600000000000005,0.9988125,-0.00678125,-0.32225,1.188,0.93075,-0.49178125,-1.1060625,1.153375,0.019802561318401454,0.03122004894236203,True
46445,643,0,644,3277.0,39693.0,29506.0,-0.002196,0.001403,0.001403,0.31500000000000006,-1.6450000000000002,-3.9725000000000006,0.9985,-0.00475,-0.31853125,1.1960625,0.9395625,-0.49393750000000003,-1.101,1.126125,0.01997177873096149,0.031172811840165734,True
46446,644,0,645,3278.0,39691.0,29506.0,-0.001037,0.000366,-0.001403,0.36750000000000005,-1.8025000000000002,-3.9725000000000006,1.0049375,-0.0094375,-0.3246875,1.18934375,0.95496875,-0.5078125,-1.1055625,1.1514375000000001,0.020335352247370098,0.03110366477548551,True
46447,645,0,646,3274.0,39693.0,29504.0,0.000976,0.001586,-0.001769,0.35000000000000003,-1.9075000000000002,-3.9550000000000005,0.9989375,-0.0014375,-0.319625,1.19428125,0.9340937500000001,-0.49340625,-1.0996875,1.1420625,0.020085762877509128,0.031078574185435567,True
46448,646,0,647,3277.0,39692.0,29506.0,0.0035989999999999998,-0.000488,-0.001281,0.35000000000000003,-1.9775000000000003,-3.9025000000000003,1.00403125,-0.005,-0.32015625000000003,1.19559375,0.9589062500000001,-0.49971875,-1.09975,1.12878125,0.02019283384630691,0.031059821312961283,True
46449,647,0,648,3276.0,39692.0,29506.0,0.0021349999999999997,-0.001403,-0.000549,0.29750000000000004,-1.6975000000000002,-3.9025000000000003,1.0058125,-0.000125,-0.32084375,1.18790625,0.9550625,-0.49953125000000004,-1.103625,1.1331875,0.020384318577523805,0.03118200060748199,True
46450,648,0,649,3276.0,39695.0,29507.0,0.0021349999999999997,-0.000793,0.000732,0.22750000000000004,-1.5750000000000002,-3.9725000000000006,1.0013125,-0.00865625,-0.32478125,1.1908750000000001,0.9471875000000001,-0.49909375,-1.10671875,1.1319375,0.02001859762669793,0.03114455169495217,True
46451,649,0,650,3276.0,39693.0,29507.0,-0.000122,0.000122,0.000976,0.4025,-1.33,-3.99,0.99828125,-0.00578125,-0.32059375,1.1948125,0.9425625,-0.4978125,-1.10609375,1.1382812500000001,0.020084701440179608,0.031287224839587006,True
46452,650,0,651,3279.0,39694.0,29507.0,-0.0030499999999999998,0.000732,0.001464,0.36750000000000005,-1.1725,-4.0425,0.99971875,-0.00565625,-0.3216875,1.1884375,0.9320625,-0.4978125,-1.106,1.13378125,0.020089803936575973,0.031240042220983033,True
46453,651,0,652,3277.0,39691.0,29506.0,-0.0028669999999999998,0.000549,0.003355,0.36750000000000005,-1.225,-3.9725000000000006,1.0029375,-0.00575,-0.320625,1.1905625,0.9509375,-0.49893750000000003,-1.1059375,1.13875,0.02013097506779631,0.03127995120676135,True
46454,652,0,653,3277.0,39695.0,29506.0,-0.0023179999999999997,-0.001037,0.00061,0.24500000000000002,-1.4700000000000002,-3.8675,1.0035625,-0.0054375000000000005,-0.32056250000000003,1.193875,0.94846875,-0.49809375,-1.106875,1.13253125,0.020109983047150354,0.031318612929725424,True
46455,653,0,654,3279.0,39693.0,29506.0,-0.000122,0.000305,-6.1e-05,0.2625,-1.715,-3.7975000000000003,0.9985937500000001,-0.0053125,-0.3211875,1.19309375,0.943625,-0.49821875,-1.1066875,1.139125,0.020120085261300887,0.03128648492558009,True
46456,654,0,655,3278.0,39694.0,29511.0,0.001281,0.000488,-0.000793,0.28,-1.9075000000000002,-3.9375000000000004,1.0035,-0.00653125,-0.32140625,1.1896875,0.9456875,-0.49871875,-1.10653125,1.13196875,0.020090336356875807,0.03127174328393135,True
46457,655,0,656,3279.0,39696.0,29509.0,0.0011589999999999999,0.00042699999999999997,-0.0023179999999999997,0.36750000000000005,-2.0125,-3.8325000000000005,0.99853125,-0.0044687500000000005,-0.3231875,1.198625,0.9401875000000001,-0.5004375,-1.10925,1.1382812500000001,0.020243260962176695,0.031305694116709984,True
46458,656,0,657,3279.0,39695.0,29510.0,0.001769,0.000305,-0.0011589999999999999,0.3325,-1.8725000000000003,-3.7275000000000005,1.00653125,-0.00903125,-0.32271875,1.19034375,0.94303125,-0.4978125,-1.107,1.13334375,0.019952036533874198,0.03123755327199586,True
46459,657,0,658,3279.0,39696.0,29509.0,0.0011589999999999999,-0.000549,-0.002623,0.35000000000000003,-1.8200000000000003,-3.6400000000000006,1.0056875,-0.011875,-0.32284375,1.187625,0.94475,-0.5025937500000001,-1.10253125,1.124,0.020027216506415778,0.031060114704567893,True
46460,658,0,659,3279.0,39695.0,29509.0,0.002074,-0.0013419999999999999,-0.0006709999999999999,0.31500000000000006,-1.5750000000000002,-3.6750000000000003,0.9975,-0.00628125,-0.3296875,1.1850625000000001,0.9480937500000001,-0.50209375,-1.1076875,1.13084375,0.02023551558731588,0.030986525541231144,True
46461,659,0,660,3279.0,39696.0,29510.0,-0.000366,0.0,0.000244,0.3325,-1.5225000000000002,-3.7800000000000002,0.99134375,-0.0029375,-0.31028125,1.200875,0.9431875000000001,-0.49925,-1.1104375,1.13725,0.02025827321244528,0.03186548422344294,True
46462,660,0,661,3277.0,39695.0,29508.0,-0.0030499999999999998,-0.000305,6.1e-05,0.43750000000000006,-1.3650000000000002,-3.7100000000000004,1.005125,-0.004,-0.317875,1.18628125,0.94340625,-0.496875,-1.10790625,1.139125,0.020119913254241614,0.031465437306227,True
46463,661,0,662,3279.0,39695.0,29508.0,-0.002379,0.000549,0.0008539999999999999,0.42000000000000004,-1.225,-3.8150000000000004,1.0111875000000001,-0.014906250000000001,-0.322875,1.18346875,0.9510625,-0.4976875,-1.1067500000000001,1.13425,0.01970721726285389,0.031221683411831482,True
46464,662,0,663,3279.0,39696.0,29508.0,-0.000915,0.000244,0.0008539999999999999,0.28,-1.435,-3.9375000000000004,0.99275,-0.00259375,-0.32865625,1.19290625,0.9461875000000001,-0.5018125,-1.11109375,1.133125,0.02037476819316938,0.03115903702920149,True
46465,663,0,664,3279.0,39693.0,29508.0,-0.00042699999999999997,0.000183,0.001281,0.4025,-1.5925000000000002,-3.8675,0.99175,-0.0027187500000000002,-0.3178125,1.1970625,0.94365625,-0.49893750000000003,-1.11015625,1.136625,0.020254704923427805,0.031554712050029556,True
46466,664,0,665,3280.0,39693.0,29508.0,0.000915,-6.1e-05,-0.000183,0.31500000000000006,-1.7500000000000002,-3.7975000000000003,1.00840625,-0.0044687500000000005,-0.31559375,1.204625,0.9424375,-0.49843750000000003,-1.10628125,1.14109375,0.020163275719114738,0.031493612778674664,True
46467,665,0,666,3279.0,39694.0,29507.0,0.00122,0.00042699999999999997,-0.001098,0.36750000000000005,-1.7325000000000002,-3.7625,1.006875,-0.00365625,-0.3205,1.20628125,0.94275,-0.497625,-1.1069375000000001,1.13465625,0.02016394446400416,0.0313235136702754,True
46468,666,0,667,3281.0,39692.0,29509.0,0.00042699999999999997,0.0006709999999999999,-0.000915,0.3325,-1.7850000000000001,-3.8325000000000005,1.01175,-0.00296875,-0.31634375,1.19675,0.9423750000000001,-0.49803125000000004,-1.10859375,1.13953125,0.020208256530818165,0.03155294190858459,True
46469,667,0,668,3281.0,39695.0,29509.0,0.0011589999999999999,0.00061,6.1e-05,0.3325,-1.6800000000000002,-3.8325000000000005,1.00846875,-0.00353125,-0.31596875,1.198375,0.9429375,-0.497875,-1.1086875,1.1419375,0.020179046141757195,0.031571492934467406,True
46470,668,0,669,3281.0,39695.0,29509.0,0.0,0.000122,0.000366,0.35000000000000003,-1.5925000000000002,-3.9025000000000003,1.0096875,-0.00309375,-0.3209375,1.19653125,0.9420625,-0.49696875,-1.10778125,1.13534375,0.02016065763238564,0.03133864128276966,True
46471,669,0,670,3282.0,39697.0,29511.0,0.000732,-0.000732,-0.000732,0.28,-1.5575,-3.7800000000000002,0.9938750000000001,-0.00384375,-0.321,1.1940625,0.9398125,-0.49384375,-1.11009375,1.12746875,0.02000502677330911,0.031425360568396926,True
46472,670,0,671,3282.0,39696.0,29510.0,-0.000793,-0.00042699999999999997,0.000244,0.31500000000000006,-1.3125000000000002,-3.8150000000000004,0.999125,-0.00459375,-0.3224375,1.19796875,0.9428125,-0.49846875,-1.10809375,1.13884375,0.020159423229257952,0.03129095573016172,True
46473,671,0,672,3281.0,39696.0,29513.0,-0.00122,-0.000732,0.000122,0.21000000000000002,-1.4875,-3.7625,0.9978750000000001,-0.00478125,-0.321,1.18996875,0.94375,-0.4975625,-1.1060625,1.13584375,0.020115521697311723,0.031269837713500476,True
46474,672,0,673,3284.0,39697.0,29514.0,-0.00061,0.000366,0.0008539999999999999,0.2625,-1.4525000000000001,-3.8325000000000005,1.006,-0.00753125,-0.321625,1.177875,0.9499375,-0.499875,-1.1034375,1.13290625,0.020095765794723445,0.031143643176357823,True
46475,673,0,674,3284.0,39698.0,29515.0,0.000549,0.000244,-0.000122,0.3325,-1.54,-3.7975000000000003,1.00428125,-0.0076875,-0.321125,1.18934375,0.9490937500000001,-0.5004375,-1.10609375,1.1285625,0.02011188575714209,0.031266064638191676,True
46476,674,0,675,3285.0,39698.0,29515.0,0.000122,-6.1e-05,-0.0006709999999999999,0.385,-1.61,-3.7450000000000006,0.99871875,-0.00909375,-0.3241875,1.1879375,0.9435,-0.4985,-1.1104687500000001,1.13290625,0.019976988387044103,0.03131288618417369,True
46477,675,0,676,3285.0,39699.0,29519.0,0.000915,0.000122,0.000244,0.29750000000000004,-1.7325000000000002,-3.9375000000000004,0.99834375,-0.00465625,-0.322125,1.19575,0.94315625,-0.501375,-1.1096875,1.13909375,0.02027309691803011,0.03136488656021705,True
46478,676,0,677,3288.0,39698.0,29518.0,0.000793,-0.000244,-6.1e-05,0.385,-1.61,-3.8500000000000005,0.99009375,-0.00515625,-0.31984375,1.19634375,0.94275,-0.494875,-1.10546875,1.14240625,0.019992702555126328,0.03129298272911156,True
46479,677,0,678,3288.0,39698.0,29521.0,0.000976,-0.000366,-6.1e-05,0.2625,-1.6275000000000002,-3.9725000000000006,1.0059375,-0.0053750000000000004,-0.320625,1.18871875,0.94928125,-0.49771875,-1.106375,1.13425,0.020097534591868884,0.03129683197992542,True
46480,678,0,679,3288.0,39700.0,29521.0,-0.000244,-0.000122,-0.00042699999999999997,0.22750000000000004,-1.4875,-3.9550000000000005,1.0070625,-0.01,-0.32159375,1.1894375,0.9520000000000001,-0.4993125,-1.1033125,1.13371875,0.019972499228294673,0.031140063686814237,True
46481,679,0,680,3288.0,39696.0,29520.0,-0.001464,0.000976,-0.000488,0.3325,-1.5050000000000001,-3.8500000000000005,0.99909375,-0.0046875,-0.320125,1.1951875,0.92984375,-0.4983125,-1.10790625,1.1419062500000001,0.020149347021350957,0.031375824099231696,True
46482,680,0,681,3290.0,39699.0,29521.0,-0.0015249999999999999,0.000488,0.001037,0.35000000000000003,-1.435,-3.7625,1.00515625,-0.0101875,-0.32059375,1.189875,0.94746875,-0.499375,-1.10625,1.1339062500000001,0.019967346105768002,0.03129325367189445,True
46483,681,0,682,3291.0,39699.0,29523.0,-0.00061,-0.000366,0.0006709999999999999,0.29750000000000004,-1.4700000000000002,-3.7800000000000002,0.99703125,-0.00496875,-0.3211875,1.19015625,0.94365625,-0.50215625,-1.10190625,1.13403125,0.02029158148071152,0.03110197059237285,True
46484,682,0,683,3291.0,39702.0,29522.0,-0.000488,-0.001464,-0.000122,0.24500000000000002,-1.61,-3.7625,0.9989375,-0.00803125,-0.3211875,1.18959375,0.94715625,-0.4995625,-1.1069375000000001,1.133625,0.020062858265326167,0.031296130800500865,True
46485,683,0,684,3292.0,39701.0,29524.0,0.000793,-0.0015249999999999999,0.000122,0.21000000000000002,-1.715,-3.7275000000000005,1.0039375,-0.008937500000000001,-0.3181875,1.1895,0.950625,-0.501125,-1.10653125,1.13421875,0.020088363289440792,0.031399946975948737,True
46486,684,0,685,3293.0,39703.0,29525.0,0.00122,0.001098,-0.00061,0.24500000000000002,-1.7500000000000002,-3.6925000000000003,1.007125,-0.00528125,-0.320375,1.18978125,0.95175,-0.49825,-1.10609375,1.13634375,0.020122610798730522,0.03129593786369096,True
46487,685,0,686,3296.0,39702.0,29528.0,0.001281,0.000122,-0.0006709999999999999,0.35000000000000003,-1.6800000000000002,-3.7975000000000003,1.00546875,-0.0045000000000000005,-0.32078125,1.19475,0.95034375,-0.4980625,-1.09890625,1.1395625,0.020147001421030746,0.03100234696482043,True
46488,686,0,687,3295.0,39704.0,29528.0,0.000183,-0.000915,6.1e-05,0.43750000000000006,-1.5750000000000002,-3.8850000000000002,0.99825,-0.00503125,-0.32209375,1.19290625,0.93896875,-0.49809375,-1.1078125,1.13484375,0.020126565970056347,0.031293795506876596,True
46489,687,0,688,3296.0,39704.0,29529.0,-0.0008539999999999999,-0.000488,0.000122,0.36750000000000005,-1.4525000000000001,-3.9725000000000006,0.9983125,-0.0048125,-0.3205,1.193,0.9431875000000001,-0.4978125,-1.105,1.1289375,0.020124245787251412,0.03124875522804222,True
46490,688,0,689,3298.0,39703.0,29528.0,-0.001952,0.00061,-0.000732,0.42000000000000004,-1.435,-3.8500000000000005,0.9989687500000001,-0.0044687500000000005,-0.3218125,1.18953125,0.9434375,-0.501125,-1.107125,1.1259375,0.020270752873592538,0.031278471748557427,True
46491,689,0,690,3299.0,39705.0,29531.0,-0.000488,0.0011589999999999999,0.001464,0.22750000000000004,-1.3475000000000001,-3.8500000000000005,0.9993125,-0.00503125,-0.32196875,1.19040625,0.9324687500000001,-0.50103125,-1.10225,1.1336875,0.020244045850110904,0.031084115965700283,True
46492,690,0,691,3299.0,39705.0,29531.0,-0.000488,-0.00061,-0.000244,0.22750000000000004,-1.6275000000000002,-3.8150000000000004,0.99934375,-0.00503125,-0.3176875,1.1829375,0.930625,-0.4998125,-1.1103750000000001,1.1322812500000001,0.020195307617150132,0.03156812672052887,True
46493,691,0,692,3299.0,39708.0,29532.0,0.001647,-0.000305,0.0,0.29750000000000004,-1.715,-3.7100000000000004,0.9986875000000001,-0.00471875,-0.31990625,1.19321875,0.9435,-0.49725,-1.10496875,1.1379375,0.020105573074528774,0.03127120004879512,True
46494,692,0,693,3302.0,39708.0,29534.0,0.000976,0.0015249999999999999,0.000305,0.35000000000000003,-1.54,-3.8150000000000004,0.99915625,-0.0045625,-0.31959375,1.19365625,0.94478125,-0.49675,-1.1000625,1.1463125,0.020091950973088267,0.031094295083926582,True
46495,693,0,694,3301.0,39706.0,29534.0,-0.0023179999999999997,0.0018909999999999999,-0.000793,0.2625,-1.61,-3.9025000000000003,0.9985937500000001,-0.005,-0.324125,1.189625,0.9426875,-0.49771875,-1.10978125,1.13125,0.020112842139638,0.031288852825032076,True
46496,694,0,695,3303.0,39707.0,29534.0,-0.000183,0.000183,0.0,0.1925,-1.6450000000000002,-3.9200000000000004,0.99453125,-0.01196875,-0.32375,1.1889687500000001,0.9375,-0.50121875,-1.107125,1.1305,0.019968394429358747,0.03120130241913401,True
46497,695,0,696,3303.0,39708.0,29535.0,0.000549,-0.003294,-0.00122,0.17500000000000002,-1.6975000000000002,-3.7450000000000006,1.00034375,-0.0181875,-0.32025,1.1867812500000001,0.94384375,-0.5015000000000001,-1.10078125,1.13175,0.019725833112258433,0.03109589467459305,True
46498,696,0,697,3305.0,39708.0,29538.0,-0.000183,-0.000183,-0.00042699999999999997,0.2625,-1.6975000000000002,-3.7800000000000002,0.99728125,-0.01215625,-0.3333125,1.1768750000000001,0.9498125000000001,-0.49953125000000004,-1.1049375000000001,1.13115625,0.019893237753273344,0.030735985700024154,True
46499,697,0,698,3305.0,39709.0,29539.0,0.001281,0.002379,0.000488,0.31500000000000006,-1.5750000000000002,-3.8150000000000004,0.98728125,-0.008906250000000001,-0.3258125,1.19328125,0.943125,-0.5010625,-1.10834375,1.12225,0.02008713907815222,0.03116618355203138,True
46500,698,0,699,3306.0,39710.0,29540.0,-0.0006709999999999999,0.000976,-0.0018909999999999999,0.49000000000000005,-1.5925000000000002,-3.8500000000000005,0.99075,-0.00034375,-0.3305,1.1829687500000001,0.941125,-0.49546875,-1.11009375,1.13109375,0.02021292203277392,0.031047026656362046,True
46501,699,0,700,3309.0,39710.0,29539.0,-0.001464,0.001098,-0.002013,0.49000000000000005,-1.6275000000000002,-3.7625,0.98678125,-0.01028125,-0.32465625,1.17928125,0.9479375,-0.50109375,-1.105,1.13225,0.020032268967584355,0.03108320055765784,True
46502,700,0,701,3309.0,39712.0,29541.0,0.003538,-0.000549,0.0040869999999999995,0.14,-1.54,-3.7800000000000002,0.9949687500000001,-0.01925,-0.317,1.1801875,0.95059375,-0.49396875,-1.10365625,1.133625,0.019381046609688354,0.03133632177583694,True
46503,701,0,702,3310.0,39711.0,29543.0,0.0037819999999999998,-0.00366,-0.0025009999999999998,0.24500000000000002,-1.7500000000000002,-3.5875000000000004,1.0198125,-0.0111875,-0.3140625,1.19175,0.95165625,-0.4985625,-1.10390625,1.14096875,0.019894024394288442,0.031462981981140885,True
46504,702,0,703,3311.0,39713.0,29542.0,0.001403,0.000488,-0.0018909999999999999,0.49000000000000005,-1.4525000000000001,-3.5875000000000004,1.0209375,-0.003625,-0.31453125,1.19934375,0.95096875,-0.4983125,-1.10375,1.1373125,0.02019271735553214,0.031438281133296817,True
46505,703,0,704,3312.0,39713.0,29544.0,-0.003172,0.0044529999999999995,-0.002806,0.6125,-1.2075,-3.6925000000000003,1.008875,-0.00234375,-0.31325000000000003,1.19884375,0.9475625,-0.4981875,-1.10534375,1.12725,0.020240017756415655,0.031550802804681775,True
46506,704,0,705,3314.0,39711.0,29546.0,-0.0053679999999999995,0.003172,-0.0068319999999999995,0.665,-1.435,-3.5000000000000004,1.0229062500000001,-0.00509375,-0.31434375000000003,1.198,0.9420000000000001,-0.49853125000000004,-1.1010312500000001,1.14071875,0.020141513585635876,0.031340843814932906,True
46507,705,0,706,3315.0,39712.0,29546.0,0.004941,-0.0032329999999999998,0.0060999999999999995,0.035,-1.4700000000000002,-3.7100000000000004,1.01971875,-0.0106875,-0.31678125,1.1787812500000001,0.94928125,-0.49515625,-1.10553125,1.12490625,0.019778144913854143,0.031417379387261524,True
46508,706,0,707,3313.0,39712.0,29545.0,0.002562,-0.00488,0.006588,-0.035,-1.2075,-3.9025000000000003,0.99784375,-0.00503125,-0.324875,1.188625,0.94859375,-0.50115625,-1.109875,1.13359375,0.020249044369079518,0.03126260086917995,True
46509,707,0,708,3314.0,39712.0,29544.0,-0.004392,-0.0044529999999999995,0.0006709999999999999,0.29750000000000004,-1.1025,-3.7275000000000005,0.98959375,-0.002875,-0.3213125,1.18790625,0.94059375,-0.4973125,-1.107625,1.131625,0.02018333643741533,0.03131767739879818,True
46510,708,0,709,3314.0,39708.0,29542.0,-0.009211,0.001403,0.000976,0.5075000000000001,-0.7875000000000001,-3.7275000000000005,0.99665625,-0.00471875,-0.32256250000000003,1.19559375,0.9374375,-0.49746875,-1.10659375,1.13859375,0.020114323035925908,0.031228101183578515,True
46511,709,0,710,3312.0,39707.0,29538.0,-0.007991,0.005978,0.0026839999999999998,0.5425000000000001,-0.7875000000000001,-3.8500000000000005,0.99975,-0.0055625,-0.31996875,1.18915625,0.9510937500000001,-0.49521875,-1.1039375,1.1345625,0.019989870472171226,0.0312289157826337,True
46512,710,0,711,3309.0,39706.0,29533.0,0.0028669999999999998,-0.001098,0.000488,0.24500000000000002,-2.0125,-3.535,1.0024375,-0.0073437500000000005,-0.3205,1.189625,0.9470000000000001,-0.49684375000000003,-1.1070312500000001,1.1301875000000001,0.019982166069863593,0.031327130721598165,True
46513,711,0,712,3306.0,39704.0,29532.0,0.0073809999999999995,-0.003477,-0.00061,0.10500000000000001,-2.3975000000000004,-3.6225000000000005,0.99865625,-0.00778125,-0.32428125,1.19115625,0.94315625,-0.498875,-1.1075625,1.13915625,0.020045563316682908,0.031197024800794577,True
46514,712,0,713,3302.0,39703.0,29529.0,0.007991,-0.002196,-0.004331,0.22750000000000004,-2.8350000000000004,-3.7975000000000003,0.9894375,-0.00209375,-0.32171875,1.19628125,0.94303125,-0.497875,-1.1028125,1.14096875,0.020237724700611786,0.031115786328723125,True
46515,713,0,714,3298.0,39705.0,29523.0,0.008784,0.001098,-0.005612,0.22750000000000004,-2.6950000000000003,-3.9200000000000004,0.9879687500000001,-0.00528125,-0.3196875,1.1949375,0.945375,-0.49884375000000003,-1.105625,1.13471875,0.0201463589480626,0.03130523538051732,True
46516,714,0,715,3294.0,39701.0,29520.0,0.007442,0.0028669999999999998,-0.000122,0.28,-1.9075000000000002,-3.99,1.00403125,-0.0084375,-0.3208125,1.1899375,0.95128125,-0.50003125,-1.10696875,1.1333125,0.02006502542726349,0.03131227261355476,True
46517,715,0,716,3290.0,39701.0,29517.0,-0.002928,-0.001647,0.001769,0.17500000000000002,-1.1725,-4.025,0.9985625,-0.0094375,-0.32156250000000003,1.1905937500000001,0.94353125,-0.50109375,-1.10971875,1.1325,0.02006670620571786,0.03138849374806319,True
46518,716,0,717,3285.0,39697.0,29514.0,-0.0050019999999999995,-0.000976,0.00122,0.21000000000000002,-0.9800000000000001,-4.0600000000000005,1.004125,0.000625,-0.31915625000000003,1.19396875,0.94503125,-0.50221875,-1.10521875,1.13325,0.020522376162362847,0.03131072100297871,True
46519,717,0,718,3282.0,39696.0,29511.0,-0.005673,0.0013419999999999999,0.00366,0.28,-0.8225000000000001,-4.112500000000001,1.00403125,-0.0051875,-0.3193125,1.189875,0.94846875,-0.498875,-1.0973125,1.13775,0.020151435525100642,0.030999335088169298,True
46520,718,0,719,3279.0,39695.0,29507.0,-0.005856,0.002196,0.004331,0.5075000000000001,-0.7000000000000001,-4.025,1.00221875,-0.000625,-0.31940625,1.1940625,0.937125,-0.49809375,-1.1054375,1.139,0.02030642690311364,0.03130920343451493,True
46521,719,0,720,3275.0,39692.0,29507.0,-0.0066489999999999995,0.000244,0.000976,0.47250000000000003,-0.9450000000000001,-3.8500000000000005,1.00225,-0.00509375,-0.32009375,1.1955,0.949875,-0.498,-1.10471875,1.1385625,0.02012026491958527,0.03125408445374438,True
46522,720,0,721,3273.0,39691.0,29506.0,-0.0006709999999999999,-0.001586,-0.002562,0.42000000000000004,-1.7500000000000002,-3.9025000000000003,1.00390625,-0.00528125,-0.31928125,1.1948125,0.9500000000000001,-0.499125,-1.10571875,1.13834375,0.02015760766966167,0.03132503426136725,True
46523,721,0,722,3271.0,39689.0,29503.0,0.002928,6.1e-05,-0.0048189999999999995,0.36750000000000005,-2.2750000000000004,-3.9025000000000003,0.99865625,-0.0015,-0.3195,1.1888750000000001,0.95021875,-0.49746875,-1.1070312500000001,1.1323125,0.020245714161794777,0.03136696020163675,True
46524,722,0,723,3269.0,39689.0,29504.0,0.0051849999999999995,0.0,-0.0034159999999999998,0.2625,-2.45,-3.8500000000000005,0.99771875,-0.00471875,-0.32256250000000003,1.18465625,0.94540625,-0.49703125000000004,-1.106875,1.1400625,0.020096822956863398,0.031238953473899083,True
46525,723,0,724,3269.0,39688.0,29502.0,0.008052,-0.000488,-0.0017079999999999999,0.24500000000000002,-2.2750000000000004,-3.8325000000000005,0.998125,-0.00459375,-0.320375,1.187125,0.9425,-0.49784375000000003,-1.1078125,1.1285,0.02013442509608626,0.031362250295600226,True
46526,724,0,725,3267.0,39691.0,29502.0,0.00183,-0.000976,-0.000366,0.22750000000000004,-1.9775000000000003,-4.0075,0.9927812500000001,-0.00778125,-0.31728125,1.1905937500000001,0.94253125,-0.496375,-1.107375,1.13384375,0.019945553168581064,0.03146859239566064,True
46527,725,0,726,3267.0,39692.0,29503.0,-0.000793,0.001769,0.003721,0.4025,-1.1725,-4.0075,1.00428125,-0.005625,-0.31859375,1.1946875000000001,0.94765625,-0.498,-1.10546875,1.1349375,0.02009857947587558,0.031342772677765675,True
46528,726,0,727,3265.0,39692.0,29505.0,-0.003172,0.003111,0.0051849999999999995,0.43750000000000006,-0.9100000000000001,-4.0075,0.9989375,-0.00453125,-0.32121875,1.18934375,0.94796875,-0.4976875,-1.10784375,1.13778125,0.020130726624706923,0.03132985085587049,True
46529,727,0,728,3265.0,39689.0,29503.0,-0.004392,-0.000183,0.001952,0.42000000000000004,-1.0675000000000001,-3.9375000000000004,0.9977812500000001,-0.0085625,-0.3196875,1.19084375,0.94275,-0.49984375000000003,-1.10609375,1.1338125000000001,0.020052423803723237,0.03132332165373198,True
46530,728,0,729,3264.0,39688.0,29502.0,-0.001647,-0.000244,0.000305,0.3325,-1.1725,-3.9375000000000004,0.994625,-0.0048125,-0.3224375,1.1891875,0.9419062500000001,-0.49809375,-1.10440625,1.13859375,0.020135495236236495,0.031148665386180965,True
46531,729,0,730,3265.0,39689.0,29503.0,-0.001281,-0.000183,-6.1e-05,0.28,-1.5225000000000002,-3.8675,0.99846875,-0.00703125,-0.3198125,1.1880625,0.9430625,-0.49865625,-1.110625,1.134125,0.020067427167561488,0.031493142842920076,True
46532,730,0,731,3266.0,39692.0,29502.0,0.000549,-6.1e-05,0.000549,0.24500000000000002,-1.54,-3.8675,1.007875,-0.0050625,-0.31853125,1.19646875,0.9540625,-0.504625,-1.10321875,1.12534375,0.020386457658503238,0.03125844170879481,True
46533,731,0,732,3262.0,39691.0,29504.0,0.000732,-0.00042699999999999997,-0.001281,0.21000000000000002,-1.6625,-3.8325000000000005,0.9917812500000001,-0.0018437500000000001,-0.31865625000000003,1.19446875,0.9600625,-0.500125,-1.09325,1.141125,0.020337906439252863,0.03086861008438524,True
46534,732,0,733,3264.0,39690.0,29504.0,0.000488,-0.000366,-0.000488,0.24500000000000002,-1.7500000000000002,-3.7450000000000006,0.9904375,-0.0056875,-0.319,1.189,0.95721875,-0.50190625,-1.1043125,1.128625,0.02025225078150807,0.031281975955326405,True
46535,733,0,734,3267.0,39691.0,29505.0,-0.000305,-0.000488,-0.0018909999999999999,0.24500000000000002,-1.7500000000000002,-3.7800000000000002,0.99921875,-0.00484375,-0.3236875,1.19021875,0.95940625,-0.4965,-1.1085,1.12665625,0.020070469250709284,0.03125684529143517,True
46536,734,0,735,3266.0,39692.0,29506.0,0.001403,0.001098,0.000976,0.3325,-1.6625,-3.8325000000000005,1.005625,-0.00703125,-0.31896875,1.19528125,0.9344687500000001,-0.5031875,-1.1055625,1.12509375,0.020248641120670527,0.031331452939961014,True
46537,735,0,736,3266.0,39693.0,29509.0,0.002989,0.00042699999999999997,0.0008539999999999999,0.12250000000000001,-1.61,-3.8675,0.99846875,-0.00471875,-0.31784375,1.190625,0.95784375,-0.49659375,-1.1011875,1.137875,0.020079322252711158,0.0312074378951195,True
46538,736,0,737,3267.0,39692.0,29507.0,-0.000488,-0.00042699999999999997,-0.003111,0.14,-1.6275000000000002,-3.7275000000000005,0.998625,-0.0040625,-0.32156250000000003,1.18971875,0.940625,-0.4953125,-1.1064375,1.1430625,0.02005485743445812,0.03126190245031777,True
46539,737,0,738,3267.0,39695.0,29509.0,-0.000305,0.000183,-0.0011589999999999999,0.24500000000000002,-1.6275000000000002,-3.6575,0.9989687500000001,-0.00825,-0.323875,1.1900625,0.93659375,-0.49409375,-1.1095,1.13940625,0.019835138828110346,0.03128795874071566,True
46540,738,0,739,3268.0,39694.0,29508.0,-0.000305,0.00183,0.001281,0.42000000000000004,-1.54,-3.6750000000000003,0.99925,-0.0090625,-0.31959375,1.1899375,0.9363750000000001,-0.50128125,-1.11159375,1.12271875,0.020089510625082106,0.031539216820915636,True
46541,739,0,740,3266.0,39691.0,29508.0,0.000305,-0.001098,0.001464,0.24500000000000002,-1.4525000000000001,-3.7625,1.00321875,-0.00690625,-0.32034375,1.18996875,0.93634375,-0.49996875,-1.113375,1.12784375,0.020125025669675597,0.03157804357239917,True
46542,740,0,741,3269.0,39693.0,29509.0,-0.000183,-0.002806,0.0006709999999999999,0.15750000000000003,-1.4525000000000001,-3.6750000000000003,1.0069062500000001,-0.00853125,-0.3195625,1.1895,0.9374687500000001,-0.50534375,-1.1104687500000001,1.1280000000000001,0.0202736392955108,0.031497072311722586,True
46543,741,0,742,3268.0,39692.0,29509.0,-0.000305,-0.000488,-0.000488,0.15750000000000003,-1.3475000000000001,-3.5525,0.99953125,-0.00815625,-0.32306250000000003,1.18884375,0.93675,-0.50071875,-1.1049375000000001,1.1289375,0.02010400205096024,0.031144271918621593,True
46544,742,0,743,3267.0,39693.0,29508.0,-0.000793,0.0008539999999999999,-0.000305,0.24500000000000002,-1.4000000000000001,-3.5875000000000004,0.998625,-0.00853125,-0.32106250000000003,1.17959375,0.9383125,-0.498625,-1.10975,1.131375,0.02000494925735628,0.03140961180417965,True
46545,743,0,744,3268.0,39694.0,29507.0,-0.00061,0.001281,0.000244,0.31500000000000006,-1.225,-3.6050000000000004,0.99971875,-0.0080625,-0.32106250000000003,1.1905000000000001,0.94090625,-0.5001875,-1.10871875,1.1340937500000001,0.020086580970043597,0.03136983044983129,True
46546,744,0,745,3268.0,39691.0,29508.0,-0.001464,-0.000183,0.00042699999999999997,0.35000000000000003,-1.2600000000000002,-3.6400000000000006,0.998375,-0.0074062500000000005,-0.32321875,1.1954375,0.9429375,-0.49725,-1.1086875,1.13775,0.019995866883017483,0.031282748251974545,True
46547,745,0,746,3269.0,39693.0,29510.0,-0.0017079999999999999,0.000793,0.000305,0.3325,-1.4525000000000001,-3.7450000000000006,0.99184375,-0.0051875,-0.31975000000000003,1.18346875,0.9433125,-0.49803125000000004,-1.1047500000000001,1.13325,0.020117688028502292,0.03126898296139177,True
46548,746,0,747,3270.0,39693.0,29508.0,0.0,0.000244,-0.0006709999999999999,0.31500000000000006,-1.5575,-3.7100000000000004,1.0035625,-0.00709375,-0.31959375,1.19021875,0.9500937500000001,-0.50121875,-1.10559375,1.1329375,0.02016736412346835,0.03130776383251242,True
46549,747,0,748,3269.0,39693.0,29511.0,0.0006709999999999999,-0.000183,0.000122,0.24500000000000002,-1.5750000000000002,-3.6225000000000005,0.99875,-0.00653125,-0.32146875,1.1954375,0.943125,-0.49846875,-1.10740625,1.141,0.02008033665369392,0.031303014424279685,True
46550,748,0,749,3270.0,39695.0,29511.0,0.0023179999999999997,0.0,-0.000122,0.4025,-1.6275000000000002,-3.6750000000000003,1.0040625,0.00084375,-0.31946875,1.1900625,0.9501875000000001,-0.49846875,-1.1051875,1.13384375,0.020381375876808626,0.03129706758812297,True
46551,749,0,750,3272.0,39693.0,29511.0,-0.0008539999999999999,-0.00042699999999999997,-0.000915,0.4025,-1.4525000000000001,-3.6575,0.9983125,-0.004625,-0.32078125,1.1883125,0.9424375,-0.4985,-1.1040625,1.13871875,0.02015939751413352,0.031201374279561322,True
46552,750,0,751,3272.0,39695.0,29511.0,-0.000366,0.000488,0.000976,0.385,-1.4525000000000001,-3.7450000000000006,0.9855625,-0.0053750000000000004,-0.316625,1.18690625,0.94440625,-0.49934375000000003,-1.10521875,1.1340937500000001,0.020162529863682572,0.031411546653024085,True
46553,751,0,752,3273.0,39696.0,29512.0,0.001281,6.1e-05,0.0011589999999999999,0.24500000000000002,-1.4000000000000001,-3.6400000000000006,1.00565625,-0.00653125,-0.31959375,1.1908125,0.9390625,-0.50146875,-1.104625,1.13415625,0.02020031962369603,0.0312703834452815,True
46554,752,0,753,3274.0,39697.0,29515.0,0.000244,-0.00122,0.00061,0.22750000000000004,-1.4700000000000002,-3.7100000000000004,0.9979687500000001,-0.0073437500000000005,-0.32521875,1.1971875,0.93309375,-0.50096875,-1.1046562500000001,1.140125,0.020147162548419643,0.0310475272888869,True
46555,753,0,754,3274.0,39698.0,29516.0,0.000549,-0.000122,-0.0006709999999999999,0.29750000000000004,-1.4175000000000002,-3.6400000000000006,0.99825,-0.004,-0.31575000000000003,1.19825,0.9430000000000001,-0.49753125000000004,-1.10428125,1.1351875,0.020146162687311606,0.03141023007778803,True
46556,754,0,755,3278.0,39698.0,29515.0,-0.000366,0.0018909999999999999,0.000183,0.29750000000000004,-1.2425000000000002,-3.6750000000000003,1.01065625,-0.006,-0.31821875,1.18815625,0.95240625,-0.499125,-1.09715625,1.1343750000000001,0.020128269887189847,0.031036882913776338,True
46557,755,0,756,3275.0,39697.0,29515.0,-0.0006709999999999999,0.000793,0.000183,0.1925,-1.2775,-3.6050000000000004,1.0111875000000001,-0.0044062500000000004,-0.31846875,1.18775,0.95025,-0.4996875,-1.1040625,1.12803125,0.02021581907932499,0.031293490844360346,True
46558,756,0,757,3280.0,39698.0,29518.0,-0.0006709999999999999,-0.000793,0.0011589999999999999,0.3325,-1.2075,-3.6575,1.0103125,-0.00675,-0.31740625,1.19390625,0.9520625,-0.49890625,-1.1047500000000001,1.13746875,0.02008890703028834,0.03136234178790867,True
46559,757,0,758,3280.0,39702.0,29518.0,0.000244,-0.0017079999999999999,-0.000732,0.24500000000000002,-1.3125000000000002,-3.6575,1.0109375,0.0015625,-0.31696875,1.2004062500000001,0.9423125,-0.49771875,-1.104625,1.140875,0.020380724225597537,0.031374945851611005,True
46560,758,0,759,3282.0,39697.0,29517.0,-0.000305,-0.001952,0.0,0.2625,-1.4000000000000001,-3.8150000000000004,0.9985,-0.0037187500000000003,-0.32153125,1.19409375,0.95059375,-0.49853125000000004,-1.1068125,1.13859375,0.020197639399300724,0.03127761638399936,True
46561,759,0,760,3280.0,39698.0,29518.0,0.000183,0.000122,0.001281,0.47250000000000003,-1.2775,-3.7275000000000005,0.9965937500000001,-0.0026875000000000002,-0.3159375,1.19946875,0.9355625000000001,-0.4980625,-1.1063125,1.136125,0.020220986863757083,0.03148112650951827,True
46562,760,0,761,3282.0,39699.0,29521.0,-0.0011589999999999999,0.0,-0.000793,0.3325,-1.4175000000000002,-3.8850000000000002,1.0034687500000001,-0.00471875,-0.3173125,1.1891875,0.94440625,-0.493,-1.1046875,1.1339375,0.019935542808149267,0.031363664654260284,True
46563,761,0,762,3284.0,39703.0,29523.0,-0.001037,0.001464,-0.00042699999999999997,0.42000000000000004,-1.2600000000000002,-3.8325000000000005,1.00684375,-0.01015625,-0.32015625000000003,1.1878125,0.945375,-0.4941875,-1.1051875,1.1351875,0.01976106576305093,0.031269682809578696,True
46564,762,0,763,3285.0,39702.0,29522.0,-0.0011589999999999999,0.00061,0.00183,0.3325,-1.2425000000000002,-3.7100000000000004,0.99615625,-0.003625,-0.3225,1.1998125,0.942875,-0.49840625,-1.10625,1.13728125,0.020196466862002504,0.031217326362957428,True
46565,763,0,764,3285.0,39704.0,29523.0,-0.000488,-0.000366,0.0,0.2625,-1.33,-3.6750000000000003,1.0010937500000001,-0.0051875,-0.31803125,1.1950625,0.93396875,-0.49821875,-1.10453125,1.13721875,0.020125187673083373,0.031329005595354426,True
46566,764,0,765,3286.0,39701.0,29525.0,0.002013,-0.001586,-0.001037,0.3325,-1.54,-3.6400000000000006,1.0028125,-0.006125,-0.31875000000000003,1.189625,0.94665625,-0.4980625,-1.10440625,1.134625,0.02008066964479334,0.03129555195116395,True
46567,765,0,766,3286.0,39704.0,29528.0,0.0028669999999999998,0.000366,-0.001952,0.35000000000000003,-1.6800000000000002,-3.6400000000000006,1.0034687500000001,-0.00909375,-0.3193125,1.17946875,0.9424375,-0.49921875,-1.1053125,1.12915625,0.02000573997895341,0.03130811456738489,True
46568,766,0,767,3286.0,39703.0,29529.0,0.002562,0.000793,-0.001769,0.29750000000000004,-1.6975000000000002,-3.6400000000000006,0.99846875,0.00125,-0.3235,1.19515625,0.9440625,-0.49665625,-1.107375,1.137875,0.020325478094586888,0.031220906207837337,True
46569,767,0,768,3288.0,39706.0,29530.0,0.001403,0.0,0.001098,0.14,-1.54,-3.8325000000000005,0.9986875000000001,-0.0046875,-0.32071875,1.19565625,0.94275,-0.497375,-1.1044375,1.14684375,0.02011184871848514,0.031218335403850415,True
46570,768,0,769,3290.0,39709.0,29530.0,0.000244,0.000244,0.000488,0.28,-1.33,-3.9025000000000003,0.9976875000000001,-0.0054687500000000005,-0.31878125,1.1925625,0.9439375,-0.49825,-1.09490625,1.13121875,0.020114957190819755,0.030927591132164516,True
46571,769,0,770,3289.0,39708.0,29530.0,-0.0032329999999999998,0.000549,0.0025009999999999998,0.385,-1.05,-3.7975000000000003,1.00453125,-0.00559375,-0.31909375,1.1948750000000001,0.9603125,-0.5114375,-1.10290625,1.1116875,0.020637049540648118,0.031223974315722908,True
46572,770,0,771,3290.0,39706.0,29531.0,-0.0046359999999999995,0.000488,0.000488,0.24500000000000002,-1.155,-3.8150000000000004,1.00521875,-0.005625,-0.31909375,1.19725,0.95075,-0.50884375,-1.1004375,1.12421875,0.020532129346167136,0.031128690485972606,True
46573,771,0,772,3291.0,39708.0,29533.0,-0.003843,0.000549,0.00183,0.31500000000000006,-1.1025,-3.7800000000000002,1.00409375,-0.00475,-0.31840625,1.19559375,0.9498125000000001,-0.5111875,-1.1009375000000001,1.12434375,0.020661483659247436,0.031175379405649694,True
46574,772,0,773,3293.0,39708.0,29533.0,-0.001647,-0.001281,0.000915,0.2625,-1.33,-3.6925000000000003,1.0035,-0.00415625,-0.318875,1.19771875,0.9608125000000001,-0.49746875,-1.09975,1.1238125,0.020137284591902994,0.031110867638123884,True
46575,773,0,774,3294.0,39708.0,29533.0,-0.0006709999999999999,-0.001647,0.000183,0.15750000000000003,-1.5225000000000002,-3.7100000000000004,1.00584375,-0.0096875,-0.31940625,1.190625,0.95328125,-0.50978125,-1.1100625,1.12759375,0.020403843873555583,0.03148762572773365,True
46576,774,0,775,3293.0,39709.0,29535.0,0.0053679999999999995,0.0006709999999999999,-0.000366,0.36750000000000005,-2.0475000000000003,-3.6750000000000003,0.99809375,-0.00428125,-0.31934375,1.191125,0.93690625,-0.49378125,-1.0985625,1.12025,0.019984664474783777,0.031046349766047362,True
46577,775,0,776,3296.0,39712.0,29537.0,0.005795,0.0013419999999999999,-0.001037,0.42000000000000004,-2.1525000000000003,-3.7625,0.99953125,-0.00471875,-0.3213125,1.1928125,0.9310625,-0.4923125,-1.1047500000000001,1.1548125,0.019908032367298923,0.031206743743713846,True
46578,776,0,777,3297.0,39711.0,29538.0,0.004758,0.000976,-0.00042699999999999997,0.36750000000000005,-1.9250000000000003,-3.8675,0.99846875,-0.004625,-0.319625,1.1949375,0.95159375,-0.49375,-1.09603125,1.1520000000000001,0.019969379943863233,0.030937411667432475,True
46579,777,0,778,3297.0,39713.0,29539.0,0.00122,-0.000488,-0.002379,0.3325,-1.5925000000000002,-3.9375000000000004,1.0059375,-0.00534375,-0.31909375,1.18621875,0.952625,-0.5015937500000001,-1.102,1.1240625,0.02025378451146673,0.031188998884551036,True
46580,778,0,779,3298.0,39714.0,29541.0,-0.003172,-0.001403,-0.002013,0.24500000000000002,-1.4175000000000002,-3.7975000000000003,1.00475,-0.0084375,-0.32,1.18975,0.9551875,-0.503625,-1.1108437500000001,1.128875,0.020208744624519843,0.03149411297659004,True
46581,779,0,780,3300.0,39714.0,29540.0,-0.003477,0.001464,0.002257,0.29750000000000004,-1.2775,-3.8675,0.998375,-0.00303125,-0.32134375,1.19603125,0.93040625,-0.49790625,-1.106375,1.14890625,0.020200705927674943,0.031268203792861375,True
46582,780,0,781,3299.0,39714.0,29542.0,-0.002196,-0.00042699999999999997,0.000366,0.31500000000000006,-1.4875,-3.8850000000000002,0.9975,-0.00484375,-0.3191875,1.18996875,0.94071875,-0.4991875,-1.1003125,1.12953125,0.02017796508557682,0.03112013047646319,True
46583,781,0,782,3302.0,39716.0,29545.0,-0.001098,0.000549,0.0006709999999999999,0.29750000000000004,-1.5750000000000002,-3.7275000000000005,0.99109375,-0.00515625,-0.3185,1.19565625,0.93840625,-0.49846875,-1.108375,1.13665625,0.020136462610545813,0.03145862685259401,True
46584,782,0,783,3302.0,39718.0,29543.0,0.000793,-0.000305,-0.000915,0.4025,-1.6625,-3.6050000000000004,0.99821875,-0.005125,-0.31884375,1.19121875,0.94346875,-0.497625,-1.1035625,1.134125,0.02010398967246825,0.03125925852157438,True
46585,783,0,784,3305.0,39716.0,29545.0,0.000305,0.001769,0.001281,0.36750000000000005,-1.6450000000000002,-3.6400000000000006,1.0051875000000001,-0.00721875,-0.32003125,1.19109375,0.9473125,-0.49728125,-1.1034375,1.133625,0.020004770937591287,0.031207130497566325,True
46586,784,0,785,3304.0,39717.0,29547.0,0.002928,-0.000488,-0.0026839999999999998,0.36750000000000005,-2.0300000000000002,-3.4475000000000002,1.0010000000000001,-0.0073750000000000005,-0.31915625000000003,1.1908750000000001,0.95015625,-0.500625,-1.10490625,1.135,0.020132139486237596,0.03129866298544732,True
46587,785,0,786,3307.0,39718.0,29548.0,0.003843,-6.1e-05,-0.004148,0.5075000000000001,-2.1175,-3.5000000000000004,1.00284375,-0.00775,-0.31965625000000003,1.1899375,0.94953125,-0.499375,-1.104375,1.13025,0.020066838439756117,0.03125824681952847,True
46588,786,0,787,3308.0,39719.0,29549.0,0.002928,0.000366,-0.004514,0.525,-1.9425000000000001,-3.4650000000000003,1.0010625,-0.0073750000000000005,-0.31903125,1.191,0.9497187500000001,-0.50171875,-1.10390625,1.1377187500000001,0.02017588051858607,0.03126505461674914,True
46589,787,0,788,3310.0,39720.0,29549.0,0.0015249999999999999,0.000488,-0.001586,0.42000000000000004,-1.7850000000000001,-3.5875000000000004,1.00275,-0.005125,-0.31884375,1.19025,0.94925,-0.49471875,-1.103375,1.13671875,0.019987726946242238,0.031252022885369,True
46590,788,0,789,3311.0,39721.0,29549.0,0.0,-0.004514,0.0023179999999999997,0.22750000000000004,-1.3125000000000002,-3.5875000000000004,1.00453125,-0.0063125,-0.3196875,1.19071875,0.93665625,-0.4968125,-1.10440625,1.1340625,0.020023013198145676,0.03125820790921913,True
46591,789,0,790,3311.0,39718.0,29549.0,-0.0051849999999999995,-0.002379,0.000732,0.24500000000000002,-1.05,-3.6575,1.0053750000000001,-0.00728125,-0.3216875,1.184625,0.9510000000000001,-0.50121875,-1.10371875,1.1295625,0.020159711442925672,0.031152008106368707,True
46592,790,0,791,3311.0,39718.0,29547.0,-0.007076,0.00183,0.001281,0.24500000000000002,-0.8575,-3.7275000000000005,0.9975,-0.004625,-0.314,1.1964375,0.9425,-0.49693750000000003,-1.104625,1.1393125,0.02009689986758549,0.031493200954007476,True
46593,791,0,792,3310.0,39716.0,29545.0,-0.005307,0.003843,0.004148,0.29750000000000004,-0.8750000000000001,-3.7275000000000005,1.0228125000000001,-0.00534375,-0.31965625000000003,1.18703125,0.93990625,-0.492375,-1.10365625,1.13715625,0.019885015234333135,0.031230510495856557,True
46594,792,0,793,3308.0,39714.0,29541.0,-0.003721,0.0021349999999999997,0.0032329999999999998,0.21000000000000002,-1.0675000000000001,-3.7275000000000005,1.01046875,-0.0130625,-0.3174375,1.186,0.94925,-0.497875,-1.1034375,1.1371875,0.01978998178413434,0.031310453000709566,True
46595,793,0,794,3306.0,39713.0,29538.0,0.0025009999999999998,-0.001037,-0.001952,0.24500000000000002,-1.9600000000000002,-3.7450000000000006,1.008125,-0.01396875,-0.31721875,1.18534375,0.942625,-0.4975625,-1.1035625,1.14115625,0.019740484384926052,0.031323990369892724,True
46596,794,0,795,3302.0,39712.0,29534.0,0.0026839999999999998,0.00122,-0.002745,0.2625,-2.0825,-3.9025000000000003,1.015625,-0.003625,-0.313375,1.20365625,0.94303125,-0.49821875,-1.10634375,1.1400000000000001,0.02018896782036449,0.03158439786757082,True
46597,795,0,796,3298.0,39710.0,29529.0,0.004331,0.0013419999999999999,-0.002623,0.385,-1.995,-3.8675,0.99346875,-0.002375,-0.32490625,1.19021875,0.941125,-0.49984375000000003,-1.10334375,1.134625,0.020304976434798692,0.03100931524311378,True
46598,796,0,797,3293.0,39707.0,29526.0,0.0035989999999999998,0.000488,-0.000305,0.22750000000000004,-1.8200000000000003,-3.8675,0.9872500000000001,-0.00859375,-0.319875,1.18471875,0.9436875,-0.50046875,-1.10428125,1.13453125,0.020076146502299063,0.0312459154750746,True
46599,797,0,798,3289.0,39704.0,29522.0,0.0035989999999999998,-0.002379,-0.000122,0.17500000000000002,-1.7500000000000002,-3.8325000000000005,1.013625,-0.0038125,-0.3141875,1.205125,0.9518125000000001,-0.49728125,-1.10709375,1.136625,0.020143816979690348,0.03158096504100559,True
46600,798,0,799,3285.0,39703.0,29519.0,-0.0025009999999999998,-0.000305,0.000549,0.3325,-1.33,-3.9725000000000006,0.99171875,-0.0070625,-0.3224375,1.17440625,0.9394687500000001,-0.50075,-1.1041875,1.13490625,0.020149893370611103,0.031140223120146793,True
46601,799,0,800,3282.0,39701.0,29514.0,-0.0011589999999999999,0.001281,0.001769,0.35000000000000003,-1.2600000000000002,-4.077500000000001,1.007625,-0.01371875,-0.31628125,1.1851562500000001,0.935125,-0.49875,-1.10390625,1.14115625,0.01979820398999949,0.031374599321569725,True
46602,800,0,801,3276.0,39700.0,29511.0,-0.000976,0.000793,0.001586,0.29750000000000004,-1.225,-4.0075,1.0085625,-0.011,-0.3163125,1.20084375,0.9518125000000001,-0.4981875,-1.10325,1.1381875000000001,0.019886675289753578,0.03134803262525769,True
46603,801,0,802,3274.0,39696.0,29509.0,-0.0008539999999999999,-0.000976,0.000488,0.35000000000000003,-1.4525000000000001,-3.9025000000000003,1.0,-0.00309375,-0.32146875,1.18446875,0.9430937500000001,-0.49671875,-1.10578125,1.13453125,0.020150657932503716,0.031240314419612017,True
46604,802,0,803,3273.0,39697.0,29506.0,-0.000549,-0.0008539999999999999,-0.000732,0.42000000000000004,-1.54,-3.9200000000000004,1.001625,-0.004875,-0.318375,1.19134375,0.9490625,-0.498375,-1.1046562500000001,1.13425,0.020144193237306558,0.0313201360803337,True
46605,803,0,804,3269.0,39697.0,29506.0,-0.00122,0.0013419999999999999,0.000244,0.5075000000000001,-1.4000000000000001,-3.99,0.99440625,-0.00778125,-0.3175625,1.18571875,0.94284375,-0.5003125,-1.103625,1.1396875,0.02010305990995013,0.03131270882193309,True
46606,804,0,805,3266.0,39693.0,29507.0,-0.001037,0.000244,-0.000305,0.4025,-1.5575,-4.0425,1.00209375,-0.002375,-0.3175,1.1908750000000001,0.94253125,-0.49825,-1.1035625,1.140625,0.020241241721347444,0.0313127867807607,True
46607,805,0,806,3265.0,39693.0,29503.0,-0.000732,-0.0011589999999999999,-0.001647,0.45500000000000007,-1.8025000000000002,-3.9725000000000006,0.99825,-0.0071875,-0.3154375,1.18996875,0.94375,-0.50103125,-1.10440625,1.13478125,0.020156039350384486,0.03142750089936901,True
46608,806,0,807,3263.0,39695.0,29504.0,-0.000793,-0.000244,-0.0026839999999999998,0.45500000000000007,-1.8200000000000003,-4.025,1.0050625,-0.0054062500000000005,-0.3188125,1.1948750000000001,0.95028125,-0.49821875,-1.10290625,1.141125,0.02011625845246402,0.03123517819774354,True
46609,807,0,808,3262.0,39693.0,29505.0,0.000244,-0.000549,-0.001098,0.36750000000000005,-1.7675,-3.99,1.0012812500000001,-0.00475,-0.31821875,1.195125,0.94265625,-0.4923125,-1.1031250000000001,1.140625,0.019906756456745358,0.031267272500933654,True
46610,808,0,809,3259.0,39693.0,29502.0,-0.000915,-0.001098,0.003172,0.22750000000000004,-1.4525000000000001,-3.9550000000000005,1.004,-0.00478125,-0.31828125,1.19565625,0.95046875,-0.492875,-1.1033125,1.139875,0.01992798926218339,0.031272018384027996,True
46611,809,0,810,3260.0,39692.0,29505.0,0.000122,-0.001647,0.000305,0.28,-1.61,-3.9025000000000003,0.99346875,-0.007125,-0.3216875,1.1859375,0.9430937500000001,-0.497375,-1.09959375,1.12890625,0.02001234826180356,0.030992782502704846,True
46612,810,0,811,3260.0,39692.0,29504.0,0.00122,0.000122,-0.000488,0.43750000000000006,-1.8900000000000001,-3.8500000000000005,1.00378125,-0.0073750000000000005,-0.319125,1.19090625,0.94884375,-0.49343750000000003,-1.10434375,1.1308125,0.019844601232472985,0.03127820260189036,True
46613,811,0,812,3258.0,39693.0,29505.0,0.001403,0.0018909999999999999,-0.001586,0.47250000000000003,-2.205,-3.8850000000000002,0.9983125,-0.0074687500000000006,-0.31521875,1.190625,0.9433750000000001,-0.499625,-1.1048125,1.134625,0.02008831767833181,0.031451887959728836,True
46614,812,0,813,3260.0,39695.0,29507.0,0.003294,0.001281,-0.00244,0.4025,-2.2750000000000004,-3.8150000000000004,0.99809375,-0.00671875,-0.322625,1.190625,0.9440000000000001,-0.50071875,-1.10890625,1.13378125,0.020162673799110485,0.031314834751115454,True
46615,813,0,814,3260.0,39695.0,29507.0,0.002379,-0.000488,0.000183,0.24500000000000002,-1.9250000000000003,-3.9025000000000003,0.9965625,-0.0044687500000000005,-0.3196875,1.195,0.9444375,-0.49734375000000003,-1.1050625,1.1326875,0.02011952826518181,0.03128353096113583,True
46616,814,0,815,3259.0,39696.0,29510.0,-0.000488,-6.1e-05,0.001281,0.35000000000000003,-1.6275000000000002,-3.8150000000000004,0.99828125,-0.0055,-0.3181875,1.195125,0.9431875000000001,-0.49740625,-1.102625,1.14065625,0.020079931931569286,0.031249221943920203,True
46617,815,0,816,3258.0,39696.0,29509.0,-0.003538,0.000976,0.0015249999999999999,0.5425000000000001,-1.3825,-3.9025000000000003,1.00503125,-0.0060625,-0.3174375,1.19578125,0.94846875,-0.4965625,-1.10246875,1.14175,0.020023217543277756,0.03127306950636081,True
46618,816,0,817,3260.0,39696.0,29509.0,-0.004514,0.0017079999999999999,0.00244,0.4025,-1.33,-3.8325000000000005,1.0074375,-0.004875,-0.3178125,1.19775,0.95025,-0.4985,-1.10228125,1.14153125,0.02014919280772292,0.03125089477674464,True
46619,817,0,818,3260.0,39697.0,29507.0,-0.0013419999999999999,-0.001037,0.001281,0.28,-1.4525000000000001,-3.7625,0.99921875,-0.00515625,-0.318375,1.1945000000000001,0.94325,-0.49693750000000003,-1.1028125,1.1415,0.020075213483318068,0.031248988534651245,True
46620,818,0,819,3262.0,39697.0,29508.0,0.00122,-0.000793,-0.00183,0.24500000000000002,-1.8025000000000002,-3.6050000000000004,1.00353125,-0.00521875,-0.31825000000000003,1.193125,0.94265625,-0.4980625,-1.103375,1.13821875,0.02011766236615651,0.0312756750835296,True
46621,819,0,820,3262.0,39698.0,29510.0,0.0017079999999999999,0.00061,-0.001098,0.29750000000000004,-1.7850000000000001,-3.6925000000000003,1.0056875,-0.00615625,-0.319,1.19546875,0.95125,-0.49765625,-1.10365625,1.1417187500000001,0.02006314379564372,0.03125665210620465,True
46622,820,0,821,3261.0,39700.0,29509.0,0.0018909999999999999,0.001647,-0.0011589999999999999,0.385,-1.9425000000000001,-3.6925000000000003,1.00171875,-0.006,-0.31809375,1.194375,0.94265625,-0.498,-1.10346875,1.13884375,0.02008327210384521,0.03128551706624209,True
46623,821,0,822,3261.0,39697.0,29510.0,0.001037,0.000793,-0.001464,0.36750000000000005,-1.9775000000000003,-3.7275000000000005,1.00334375,-0.0035625,-0.310375,1.19015625,0.95046875,-0.49493750000000003,-1.103875,1.1340937500000001,0.02006026755528566,0.03160866599279991,True
46624,822,0,823,3263.0,39699.0,29510.0,0.001403,-0.000122,-0.0008539999999999999,0.2625,-1.9250000000000003,-3.6925000000000003,1.00290625,-0.007625,-0.31821875,1.18,0.9486875,-0.50134375,-1.10384375,1.1383125,0.020150680511145432,0.03129500835902869,True
46625,823,0,824,3263.0,39699.0,29510.0,-0.000305,-0.00061,0.000549,0.35000000000000003,-1.715,-3.7625,1.00059375,3.125e-05,-0.3146875,1.1909375,0.94134375,-0.49434375,-1.103375,1.13475,0.020183231077582964,0.03141758827249324,True
46626,824,0,825,3263.0,39699.0,29509.0,-0.0015249999999999999,0.000305,0.002074,0.36750000000000005,-1.5225000000000002,-3.7275000000000005,1.00178125,-0.00475,-0.31871875,1.1905000000000001,0.95246875,-0.49975,-1.09975,1.1343125,0.020204287798855095,0.031117092799729084,True
46627,825,0,826,3263.0,39698.0,29510.0,-0.00244,0.0,0.0015249999999999999,0.29750000000000004,-1.4700000000000002,-3.7100000000000004,1.00228125,-0.00703125,-0.31915625000000003,1.19065625,0.9570000000000001,-0.5031875,-1.10421875,1.1275625,0.020248641120670527,0.03127213429017782,True
46628,826,0,827,3264.0,39698.0,29510.0,-0.002928,-0.000488,0.000183,0.28,-1.3825,-3.6400000000000006,0.99890625,-0.00628125,-0.32096875,1.1905625,0.9422812500000001,-0.50096875,-1.1070625,1.13125,0.020190528180645918,0.03130966635383968,True
46629,827,0,828,3264.0,39696.0,29509.0,-0.0018909999999999999,-0.000366,0.00042699999999999997,0.29750000000000004,-1.5050000000000001,-3.7100000000000004,0.9985937500000001,-0.0050625,-0.3213125,1.19021875,0.9401875000000001,-0.501,-1.10615625,1.13234375,0.020241520754254925,0.031261007945013485,True
46630,828,0,829,3265.0,39698.0,29509.0,0.001037,-0.0008539999999999999,-0.000305,0.29750000000000004,-1.7675,-3.7100000000000004,0.9988750000000001,-0.00634375,-0.3218125,1.18553125,0.94084375,-0.49946875,-1.10478125,1.13328125,0.02012798746911604,0.031188033156034772,True
46631,829,0,830,3265.0,39699.0,29510.0,0.0017079999999999999,-0.00061,0.0,0.22750000000000004,-1.8550000000000002,-3.6225000000000005,0.99021875,-0.010937500000000001,-0.330625,1.1753125,0.9342812500000001,-0.50321875,-1.1045,1.1314375,0.020090472807781635,0.03082614670676572,True
46632,830,0,831,3266.0,39697.0,29510.0,0.0021349999999999997,-0.00042699999999999997,-0.0006709999999999999,0.24500000000000002,-1.7850000000000001,-3.7100000000000004,0.9921562500000001,-0.009000000000000001,-0.325375,1.18009375,0.9485625,-0.5043125,-1.1026875,1.13325,0.020213278785111807,0.030965309989219283,True
46633,831,0,832,3264.0,39700.0,29512.0,0.001037,0.0011589999999999999,-0.0006709999999999999,0.24500000000000002,-1.7500000000000002,-3.7625,1.0038125,-0.014906250000000001,-0.31725000000000003,1.1766875,0.95515625,-0.50334375,-1.10221875,1.1373125,0.019933503973309764,0.03127089114383565,True
46634,832,0,833,3268.0,39698.0,29513.0,0.0013419999999999999,0.0021349999999999997,0.000549,0.21000000000000002,-1.6625,-3.7450000000000006,1.0159375,-0.0090625,-0.31303125,1.18128125,0.95459375,-0.48671875000000003,-1.10021875,1.142625,0.01950674791819545,0.031361778470556156,True
46635,833,0,834,3267.0,39702.0,29513.0,0.000305,0.0,0.000305,0.42000000000000004,-1.54,-3.6925000000000003,1.0200625,-0.01153125,-0.31540625,1.1813125,0.95296875,-0.496875,-1.0970625,1.1400937500000001,0.019812476081132797,0.031145328263018832,True
46636,834,0,835,3268.0,39702.0,29514.0,-0.0015249999999999999,-0.0006709999999999999,0.000976,0.29750000000000004,-1.3650000000000002,-3.7450000000000006,1.01003125,-0.01928125,-0.32025,1.1796875,0.94934375,-0.49846875,-1.1030312500000001,1.1315625,0.019559895962885435,0.031182738140438725,True
46637,835,0,836,3268.0,39702.0,29515.0,-0.002013,-0.0015249999999999999,-0.000305,0.42000000000000004,-1.2775,-3.7275000000000005,1.00475,-0.019375,-0.31734375,1.1806875000000001,0.95278125,-0.501625,-1.1023125,1.1325,0.01968236800620367,0.03127077435594828,True
46638,836,0,837,3269.0,39701.0,29518.0,-0.002623,-0.000793,-0.000122,0.45500000000000007,-1.3475000000000001,-3.6225000000000005,1.01609375,-0.0209375,-0.31328125,1.2009375,0.9503125,-0.4990625,-1.09934375,1.14021875,0.01951605291018789,0.03131804989921301,True
46639,837,0,838,3270.0,39700.0,29516.0,-0.0017079999999999999,0.0,0.000244,0.45500000000000007,-1.3475000000000001,-3.6225000000000005,0.98975,-0.01003125,-0.32196875,1.1981875,0.94115625,-0.4995625,-1.1026875,1.13475,0.019981224154512964,0.03110100263169033,True
46640,838,0,839,3272.0,39701.0,29515.0,0.0008539999999999999,-0.00042699999999999997,0.000244,0.31500000000000006,-1.715,-3.6925000000000003,1.00271875,-0.0003125,-0.32965625,1.18128125,0.94296875,-0.49628125,-1.093875,1.127875,0.0202466956081344,0.030454393751463252,True
46641,839,0,840,3274.0,39699.0,29518.0,0.0013419999999999999,0.000122,-0.0006709999999999999,0.24500000000000002,-1.8375000000000001,-3.7100000000000004,1.0205312500000001,-0.000875,-0.32021875,1.18009375,0.9494375,-0.49603125000000003,-1.1035625,1.13503125,0.020213733602254445,0.03120448541915117,True
46642,840,0,841,3275.0,39701.0,29518.0,0.0006709999999999999,-0.000183,-0.0013419999999999999,0.35000000000000003,-1.8900000000000001,-3.6925000000000003,1.00334375,-0.00140625,-0.31409375,1.19053125,0.95003125,-0.4975,-1.10371875,1.140625,0.02025079089703031,0.03145450313013884,True
46643,841,0,842,3275.0,39704.0,29521.0,0.00061,0.0013419999999999999,-0.000122,0.31500000000000006,-1.9075000000000002,-3.8675,0.99975,-0.0084375,-0.31559375,1.19675,0.9432812500000001,-0.49834375000000003,-1.10346875,1.13684375,0.019997525342912215,0.031385104897107094,True
46644,842,0,843,3275.0,39705.0,29521.0,0.001952,0.001098,-0.0006709999999999999,0.35000000000000003,-1.7325000000000002,-3.8850000000000002,0.99775,-0.0084375,-0.3191875,1.19140625,0.94353125,-0.49753125000000004,-1.1050625,1.1346875,0.019965021985633758,0.03130344726287776,True
46645,843,0,844,3276.0,39705.0,29524.0,-0.001281,0.000549,0.000305,0.3325,-1.5575,-3.8500000000000005,1.00421875,-0.00396875,-0.31646875,1.1908750000000001,0.95128125,-0.49803125000000004,-1.1031250000000001,1.14003125,0.020167436924140587,0.03133698493713433,True
46646,844,0,845,3278.0,39705.0,29523.0,-0.002623,-0.000183,0.000732,0.29750000000000004,-1.3475000000000001,-3.8500000000000005,0.98975,-0.0076875,-0.3200625,1.19071875,0.943125,-0.498125,-1.1066562500000001,1.13375,0.020019389238972368,0.031330088012018725,True
46647,845,0,846,3280.0,39706.0,29522.0,-0.003111,-0.000488,0.001952,0.4025,-1.54,-3.8150000000000004,1.0035625,-0.0073437500000000005,-0.319125,1.19125,0.94184375,-0.4995625,-1.104625,1.13546875,0.020090919990918207,0.03128905530355462,True
46648,846,0,847,3280.0,39707.0,29525.0,-0.001037,-0.0015249999999999999,0.001403,0.24500000000000002,-1.7675,-3.7800000000000002,1.00503125,-0.00878125,-0.31859375,1.18528125,0.94321875,-0.49646875,-1.1009375000000001,1.13465625,0.019908481707184837,0.03116790956513079,True
46649,847,0,848,3281.0,39707.0,29527.0,0.001281,-0.0006709999999999999,-0.00061,0.1925,-2.0300000000000002,-3.6225000000000005,0.99346875,-0.00465625,-0.3176875,1.19409375,0.9496875,-0.49915625,-1.1025625000000001,1.143125,0.020184368594326593,0.031266728247365184,True
46650,848,0,849,3282.0,39711.0,29527.0,0.0025009999999999998,0.00061,-0.0015249999999999999,0.3325,-2.1,-3.6225000000000005,0.998,-0.0078125,-0.31903125,1.19103125,0.94315625,-0.497125,-1.10415625,1.13471875,0.019974282696438868,0.031274701773735175,True
46651,849,0,850,3283.0,39712.0,29526.0,0.0037819999999999998,0.0,-0.000488,0.3325,-1.9075000000000002,-3.6925000000000003,1.00428125,-0.004375,-0.31915625000000003,1.1845625,0.94825,-0.49771875,-1.102125,1.141375,0.020138354719253192,0.031191333403048544,True
46652,850,0,851,3286.0,39713.0,29530.0,0.003843,-0.001037,-0.00183,0.24500000000000002,-1.7850000000000001,-3.7450000000000006,0.99809375,-0.008843750000000001,-0.31725000000000003,1.19590625,0.94278125,-0.50021875,-1.1026562500000001,1.1385625,0.02005594337805658,0.03128777457564875,True
46653,851,0,852,3286.0,39715.0,29531.0,0.000732,-0.000488,0.00042699999999999997,0.2625,-1.4000000000000001,-3.7625,0.99909375,-0.0080625,-0.3195,1.190625,0.94346875,-0.497375,-1.1053125,1.138125,0.019974078855387566,0.0313006460286045,True
46654,852,0,853,3287.0,39715.0,29531.0,-0.004514,0.0,0.000915,0.36750000000000005,-1.1025,-3.6400000000000006,0.998375,-0.006125,-0.31709375,1.19603125,0.94296875,-0.49771875,-1.1045625000000001,1.13584375,0.020066919496330653,0.03136755520037444,True
46655,853,0,854,3287.0,39716.0,29534.0,-0.005063,0.0,0.000366,0.3325,-1.1375000000000002,-3.6050000000000004,0.99825,-0.00409375,-0.31959375,1.192625,0.9505,-0.49715625,-1.09909375,1.1419375,0.02012733620866708,0.031056898219681734,True
46656,854,0,855,3289.0,39715.0,29535.0,-0.002989,0.001098,0.000244,0.47250000000000003,-1.3125000000000002,-3.6400000000000006,0.998375,-0.007875,-0.31043750000000003,1.19409375,0.935,-0.497625,-1.103625,1.13503125,0.019991733892571216,0.03159653237331262,True
46657,855,0,856,3291.0,39714.0,29533.0,-0.002257,0.0008539999999999999,0.000366,0.31500000000000006,-1.3475000000000001,-3.6575,0.9988125,-0.00490625,-0.3196875,1.1915,0.9497187500000001,-0.49725,-1.10478125,1.134625,0.020097919154190777,0.031272678386711696,True
46658,856,0,857,3292.0,39715.0,29535.0,-0.000549,-0.000305,0.000122,0.22750000000000004,-1.5750000000000002,-3.6050000000000004,0.9983125,-0.0058125,-0.3174375,1.1959375,0.94334375,-0.4991875,-1.10146875,1.13509375,0.020138422957904214,0.03123447706620753,True
46659,857,0,858,3292.0,39715.0,29537.0,0.002745,0.0013419999999999999,0.00061,0.21000000000000002,-1.7325000000000002,-3.4125000000000005,0.99771875,-0.00484375,-0.31853125,1.19471875,0.946375,-0.4968125,-1.10515625,1.13584375,0.020082969978236963,0.03133320470769825,True
46660,858,0,859,3295.0,39717.0,29539.0,0.0026839999999999998,0.000549,0.001403,0.22750000000000004,-1.6450000000000002,-3.6400000000000006,0.99946875,-0.00434375,-0.3200625,1.182625,0.94796875,-0.49634375000000003,-1.105125,1.13396875,0.020084629976667438,0.03127100542219965,True
46661,859,0,860,3295.0,39717.0,29540.0,0.0037819999999999998,0.000549,0.001281,0.28,-1.5925000000000002,-3.6050000000000004,0.9988750000000001,-0.0022187500000000002,-0.31703125,1.1965000000000001,0.9435625,-0.49884375000000003,-1.10353125,1.1309375,0.020271364847575718,0.03133025358733147,True
46662,860,0,861,3294.0,39719.0,29540.0,0.0025009999999999998,0.001037,-0.00061,0.3325,-1.6450000000000002,-3.7100000000000004,0.99865625,-0.00859375,-0.31734375,1.1983125000000001,0.94234375,-0.49809375,-1.0985625,1.1345,0.01998114649226534,0.031126035604628753,True
46663,861,0,862,3295.0,39718.0,29542.0,0.000549,0.002562,-0.000793,0.35000000000000003,-1.5225000000000002,-3.8850000000000002,0.9983125,-0.00703125,-0.31975000000000003,1.1911875,0.94640625,-0.49603125000000003,-1.1054375,1.1350625,0.019962417381387036,0.03129551118159164,True
46664,862,0,863,3298.0,39720.0,29543.0,-0.000915,-0.0021349999999999997,0.000488,0.24500000000000002,-1.1900000000000002,-3.8325000000000005,1.00475,-0.0093125,-0.31834375,1.19090625,0.9431875000000001,-0.50303125,-1.10403125,1.13528125,0.020149292753320062,0.03129726425910182,True
46665,863,0,864,3298.0,39720.0,29545.0,-0.002257,-0.002562,0.0015249999999999999,0.2625,-1.05,-3.8150000000000004,1.0039375,-0.006875,-0.31690625,1.1911875,0.94340625,-0.5065625,-1.1011250000000001,1.13159375,0.02038994657043394,0.031242374594764186,True
46666,864,0,865,3300.0,39719.0,29544.0,-0.003965,-0.0011589999999999999,0.00042699999999999997,0.4025,-1.225,-3.8500000000000005,1.004625,-0.0048125,-0.3184375,1.1955625,0.946375,-0.50378125,-1.09984375,1.13734375,0.020362928680650053,0.031131916906853255,True
46667,865,0,866,3299.0,39718.0,29543.0,-0.004941,-0.000183,0.000305,0.4025,-1.54,-3.7100000000000004,0.9980625000000001,-0.00628125,-0.31815625000000003,1.19115625,0.9459375,-0.49440625,-1.10003125,1.13775,0.01992801927991212,0.031150359623556244,True
46668,866,0,867,3303.0,39720.0,29545.0,-0.003172,6.1e-05,0.00042699999999999997,0.29750000000000004,-1.8900000000000001,-3.6225000000000005,0.9984375,-0.00853125,-0.31659375,1.1960625,0.9365,-0.501875,-1.10571875,1.129125,0.020134938652654134,0.03143208158499745,True
46669,867,0,868,3303.0,39722.0,29547.0,0.0077469999999999995,-0.001464,0.000915,0.22750000000000004,-2.2225,-3.6925000000000003,1.000875,-0.004625,-0.31803125,1.19809375,0.9559062500000001,-0.50253125,-1.0995625,1.13025,0.020320604631409254,0.03113724591813104,True
46670,868,0,869,3305.0,39723.0,29549.0,0.005307,0.000305,-0.002013,0.31500000000000006,-2.2750000000000004,-3.6400000000000006,1.003625,-0.00421875,-0.31734375,1.196625,0.95678125,-0.50046875,-1.099625,1.1439062500000001,0.02025471451439067,0.03116704930850561,True
46671,869,0,870,3306.0,39725.0,29551.0,0.002379,0.0023179999999999997,-0.0023179999999999997,0.5075000000000001,-2.2225,-3.7100000000000004,0.9979687500000001,-0.0078125,-0.3180625,1.19184375,0.94940625,-0.49225,-1.11103125,1.1309375,0.019779215874409253,0.031578501978089805,True
46672,870,0,871,3307.0,39724.0,29553.0,0.002196,0.0028669999999999998,-0.00183,0.6125,-1.9600000000000002,-3.7800000000000002,1.0043125,-0.00596875,-0.3169375,1.19753125,0.936625,-0.5038125,-1.10046875,1.1341875000000001,0.020316991488569382,0.031215801497730997,True
46673,871,0,872,3309.0,39725.0,29551.0,0.001769,0.0025009999999999998,-0.003965,0.6300000000000001,-1.6975000000000002,-3.5875000000000004,0.9978125,-0.00853125,-0.31778125,1.19084375,0.94640625,-0.49384375,-1.11125,1.12915625,0.019813652154941994,0.031598138284633384,True
46674,872,0,873,3309.0,39724.0,29552.0,-0.003111,-0.002928,0.0025009999999999998,0.3325,-0.9450000000000001,-3.6750000000000003,1.00378125,-0.00490625,-0.31753125,1.19671875,0.949375,-0.50265625,-1.0995625,1.144625,0.02031412410644254,0.031157166584078903,True
46675,873,0,874,3309.0,39723.0,29551.0,-0.0060999999999999995,-0.0037819999999999998,0.003355,0.3325,-0.7000000000000001,-3.6750000000000003,0.999125,-0.00615625,-0.31775000000000003,1.1903125,0.93959375,-0.50015625,-1.10425,1.12890625,0.02016313671468932,0.03132935658304869,True
46676,874,0,875,3309.0,39723.0,29551.0,-0.0073809999999999995,-0.0026839999999999998,0.0034159999999999998,0.47250000000000003,-0.8750000000000001,-3.7625,0.9983125,-0.0039375,-0.31803125,1.19228125,0.94896875,-0.49596875,-1.09984375,1.13096875,0.020086213165176416,0.031148102266572872,True
46677,875,0,876,3311.0,39722.0,29547.0,-0.0035989999999999998,-0.000549,0.002806,0.31500000000000006,-0.9625000000000001,-3.7800000000000002,0.99540625,-0.00521875,-0.31453125,1.19221875,0.94575,-0.49871875,-1.09715625,1.1416875,0.02014391058716081,0.03118381191096103,True
46678,876,0,877,3310.0,39722.0,29546.0,-0.001586,-0.001037,-6.1e-05,0.28,-1.3825,-3.7975000000000003,0.99834375,-0.00759375,-0.31640625,1.18584375,0.9430000000000001,-0.4991875,-1.10234375,1.1420000000000001,0.020065716465086852,0.03130932744078927,True
46679,877,0,878,3306.0,39718.0,29542.0,0.000549,0.001098,-0.00122,0.17500000000000002,-1.9600000000000002,-3.7275000000000005,0.99909375,-0.0079375,-0.3171875,1.18765625,0.9352812500000001,-0.49465625,-1.10765625,1.13459375,0.01987040540730185,0.031483175575179385,True
46680,878,0,879,3305.0,39719.0,29540.0,0.003965,0.00244,-0.001464,0.17500000000000002,-2.3800000000000003,-3.8850000000000002,1.0034687500000001,-0.00390625,-0.31790625,1.19015625,0.95046875,-0.49825,-1.1038125,1.12784375,0.02017873725674283,0.03130625079357966,True
46681,879,0,880,3301.0,39719.0,29539.0,0.006344,0.002074,-0.003538,0.15750000000000003,-2.415,-3.9200000000000004,0.99528125,-0.004625,-0.3165,1.197125,0.94315625,-0.5003125,-1.1016875,1.1426875,0.02023188479738779,0.03128026751189536,True
46682,880,0,881,3296.0,39715.0,29534.0,0.005978,0.001281,-0.0026839999999999998,0.2625,-2.2750000000000004,-3.9200000000000004,0.99803125,-0.0003125,-0.31884375,1.19121875,0.942875,-0.49703125000000004,-1.10325,1.13571875,0.020276691690957454,0.031247199067849785,True
46683,881,0,882,3293.0,39714.0,29532.0,0.002074,-0.000244,-0.000244,0.35000000000000003,-1.715,-3.9725000000000006,1.00378125,-0.0053125,-0.317375,1.19546875,0.9506875,-0.49471875,-1.101625,1.134875,0.01998007223495881,0.031242997216315682,True
46684,882,0,883,3289.0,39711.0,29527.0,-0.003904,0.00061,0.003111,0.45500000000000007,-0.9800000000000001,-4.0075,1.00059375,-0.00409375,-0.3203125,1.1906875000000001,0.9430937500000001,-0.49765625,-1.10146875,1.13490625,0.020147335523168674,0.031119941935668607,True
46685,883,0,884,3283.0,39708.0,29523.0,-0.0046359999999999995,-0.000244,0.00244,0.31500000000000006,-0.9800000000000001,-4.077500000000001,1.00071875,-0.006,-0.31721875,1.1985625,0.9428125,-0.50146875,-1.10225,1.13153125,0.020222001997329243,0.031273342031092825,True
46686,884,0,885,3281.0,39706.0,29518.0,-0.002928,-0.00122,0.0011589999999999999,0.29750000000000004,-1.2950000000000002,-4.0075,0.99853125,-0.0044062500000000004,-0.322375,1.1906875000000001,0.94659375,-0.49709375,-1.10490625,1.1341875000000001,0.020112079621689816,0.031170450995012176,True
46687,885,0,886,3278.0,39705.0,29517.0,-0.000122,-0.000915,-0.00061,0.36750000000000005,-1.5225000000000002,-3.9550000000000005,1.0029375,-0.0054687500000000005,-0.3140625,1.1985000000000001,0.9428125,-0.4953125,-1.1015625,1.14109375,0.01999744849142055,0.03137254901960784,True
46688,886,0,887,3274.0,39706.0,29516.0,0.001403,-0.00061,-0.001098,0.3325,-1.6450000000000002,-3.99,0.99665625,-0.00509375,-0.3176875,1.18978125,0.94234375,-0.49993750000000003,-1.1033125,1.1344375,0.020197755606519405,0.03129567064107575,True
46689,887,0,888,3271.0,39703.0,29515.0,0.002806,-0.000488,0.000488,0.35000000000000003,-1.5925000000000002,-4.077500000000001,1.00978125,-0.0054375000000000005,-0.31509375,1.20096875,0.95253125,-0.49809375,-1.09315625,1.14221875,0.020109983047150354,0.03100696031412948,True
46690,888,0,889,3269.0,39702.0,29512.0,0.00183,-0.00122,-0.0008539999999999999,0.3325,-1.6275000000000002,-4.077500000000001,0.99540625,-0.00590625,-0.3199375,1.189125,0.94359375,-0.49743750000000003,-1.1066562500000001,1.13515625,0.020064598593220212,0.031335066771386574,True
46691,889,0,890,3268.0,39702.0,29510.0,0.0013419999999999999,-0.001403,-0.0018909999999999999,0.29750000000000004,-1.715,-3.9375000000000004,1.00946875,-0.00425,-0.31609375,1.20175,0.94940625,-0.49725,-1.1015,1.14184375,0.02012470787537377,0.03128921578391729,True
46692,890,0,891,3266.0,39704.0,29512.0,0.0015249999999999999,0.000915,-0.003111,0.385,-1.6275000000000002,-3.9375000000000004,1.00028125,-0.00290625,-0.3211875,1.1885625,0.94471875,-0.49440625,-1.10334375,1.13421875,0.020065805840874383,0.031157452879160774,True
46693,891,0,892,3265.0,39702.0,29511.0,-0.002623,0.001952,0.000183,0.31500000000000006,-1.4525000000000001,-4.0425,0.9956875000000001,-0.009000000000000001,-0.31646875,1.18471875,0.94321875,-0.5004375,-1.1026562500000001,1.13503125,0.020058315285186232,0.03131889678009673,True
46694,892,0,893,3264.0,39699.0,29511.0,-0.0030499999999999998,-0.000366,0.001952,0.29750000000000004,-1.1725,-3.9025000000000003,1.00878125,-0.00490625,-0.31525000000000003,1.201125,0.949375,-0.49778125,-1.10221875,1.1379375,0.020119168955351825,0.03135056537581962,True
46695,893,0,894,3263.0,39700.0,29511.0,-0.0026839999999999998,-0.00042699999999999997,0.0015249999999999999,0.31500000000000006,-1.3650000000000002,-3.9200000000000004,0.9899375,-0.0029375,-0.324,1.1893125,0.9423750000000001,-0.496875,-1.10434375,1.1348125,0.02016328613343539,0.031084013100322525,True
46696,894,0,895,3261.0,39699.0,29510.0,-0.001464,0.000244,-0.000244,0.36750000000000005,-1.6275000000000002,-3.8675,1.00871875,-0.00409375,-0.315875,1.194,0.947125,-0.49746875,-1.1013125,1.1393125,0.020139835875900444,0.031290694460698015,True
46697,895,0,896,3260.0,39699.0,29508.0,0.0006709999999999999,0.000976,-0.0017079999999999999,0.45500000000000007,-1.9075000000000002,-3.7975000000000003,0.99528125,-0.00790625,-0.31596875,1.1885937500000001,0.93625,-0.4983125,-1.10259375,1.13490625,0.020017960420743264,0.03133640323522345,True
46698,896,0,897,3263.0,39702.0,29511.0,0.00366,0.000244,-0.004209,0.35000000000000003,-2.24,-3.7975000000000003,1.00384375,-0.001875,-0.3166875,1.18821875,0.94671875,-0.4990625,-1.10271875,1.13478125,0.02029414390856793,0.03131259437785001,True
46699,897,0,898,3261.0,39701.0,29511.0,0.005124,-0.001403,-0.000183,0.17500000000000002,-1.9775000000000003,-3.8850000000000002,1.00578125,-0.00875,-0.31590625,1.195875,0.9476875,-0.49215625,-1.102875,1.13659375,0.019737186267542287,0.03134974579604925,True
46700,898,0,899,3261.0,39704.0,29512.0,0.002745,-0.001464,0.002196,0.21000000000000002,-1.54,-3.9375000000000004,1.0020625,-0.00015625,-0.318375,1.1895,0.947125,-0.49725,-1.10153125,1.13653125,0.020291818469420037,0.031199540864663384,True
46701,899,0,900,3262.0,39705.0,29514.0,0.000244,-0.00122,0.002623,0.31500000000000006,-1.05,-3.99,0.99371875,-0.00790625,-0.31746875,1.1979375,0.94334375,-0.5006875000000001,-1.1025625000000001,1.148375,0.020112956013989405,0.03127544249715542,True
46702,900,0,901,3263.0,39705.0,29514.0,-0.002928,0.0011589999999999999,0.0013419999999999999,0.29750000000000004,-0.7525000000000001,-4.095000000000001,0.99840625,-0.008843750000000001,-0.31678125,1.195625,0.94103125,-0.50309375,-1.1031875,1.13396875,0.020170922294251107,0.03132694802203903,True
