frame_seq,absolute_seq_u64,segment_id,sample_seq,PPG_G,PPG_R,PPG_IR,ACC_X,ACC_Y,ACC_Z,GYRO_X,GYRO_Y,GYRO_Z,Uh1,Uh2,Uh3,Uh4,Uc1,Uc2,Uc3,Uc4,UD1,UD2,parser_valid
36085,70045,0,70043,3031.0,39670.0,27919.0,-0.0062829999999999995,0.001464,-0.000366,0.4025,-1.4000000000000001,-3.6750000000000003,1.18553125,0.48546875,0.16815625,1.3961875000000001,1.14415625,-0.0684375,-0.33346875,1.3679375,0.023013801789168908,0.020614611305673384,True
36086,70046,0,70044,3032.0,39669.0,27918.0,-0.004392,0.002806,0.002806,0.36750000000000005,-1.33,-3.7625,1.1861875,0.4854375,0.16753125,1.39734375,1.14328125,-0.07146875,-0.33215625,1.3691875,0.023135532600186685,0.020536096138212164,True
36087,70047,0,70045,3031.0,39670.0,27921.0,-0.000366,-0.0021349999999999997,0.00122,0.21000000000000002,-1.7850000000000001,-3.7100000000000004,1.18503125,0.48571875000000003,0.16593750000000002,1.39734375,1.1411875,-0.07146875,-0.33225,1.3681875000000001,0.023147216556945658,0.02047437043430016,True
36088,70048,0,70046,3032.0,39669.0,27921.0,-0.000366,-0.001647,-0.000732,0.21000000000000002,-1.9425000000000001,-3.5700000000000003,1.176125,0.48475,0.16690625,1.3889375,1.1436250000000001,-0.07125000000000001,-0.33259375,1.3682812500000001,0.02309809419951187,0.02052802118557542,True
36089,70049,0,70047,3033.0,39671.0,27924.0,0.0008539999999999999,0.00061,-0.002257,0.31500000000000006,-2.0475000000000003,-3.6050000000000004,1.18259375,0.485875,0.16965625,1.4036875,1.14471875,-0.07162500000000001,-0.33396875,1.3696875,0.023160048397231178,0.020696377363433573,True
36090,70050,0,70048,3033.0,39675.0,27924.0,0.0023179999999999997,0.000976,-0.001464,0.24500000000000002,-2.1875,-3.7625,1.1749375,0.4810625,0.1695,1.39890625,1.1299062500000001,-0.07103125,-0.33146875000000003,1.37234375,0.022936023981107997,0.020589334542330088,True
36091,70051,0,70049,3033.0,39673.0,27925.0,0.0032329999999999998,-0.000732,0.000732,0.21000000000000002,-2.0125,-3.5700000000000003,1.18275,0.48696875,0.1745625,1.4039375,1.140875,-0.07150000000000001,-0.3320625,1.36984375,0.023200413351889167,0.020821292892865124,True
36092,70052,0,70050,3033.0,39675.0,27927.0,0.001647,-0.001952,-0.001647,0.28,-1.8375000000000001,-3.5875000000000004,1.1745,0.48165625,0.1725625,1.3995312500000001,1.14403125,-0.0709375,-0.33540625,1.36515625,0.022956885248029912,0.020873649890270483,True
36093,70053,0,70051,3033.0,39676.0,27926.0,-0.00061,0.002074,-0.0013419999999999999,0.385,-1.7325000000000002,-3.6050000000000004,1.18196875,0.48331250000000003,0.169375,1.38815625,1.138375,-0.07940625,-0.33134375,1.381625,0.023369295079690763,0.02057916550539877,True
36094,70054,0,70052,3034.0,39677.0,27927.0,-0.0006709999999999999,0.002623,0.000305,0.29750000000000004,-1.6450000000000002,-3.5000000000000004,1.1820625,0.48425,0.17096875,1.394375,1.13715625,-0.07840625,-0.3254375,1.3884375,0.023367669942855954,0.020406878601875095,True
36095,70055,0,70053,3033.0,39676.0,27926.0,-0.000122,-0.00042699999999999997,-0.000915,0.3325,-1.5050000000000001,-3.5875000000000004,1.172375,0.48409375,0.17671875,1.40621875,1.12671875,-0.0821875,-0.33137500000000003,1.351,0.02351452707525012,0.020882245660181556,True
36096,70056,0,70054,3032.0,39675.0,27928.0,-0.000915,-0.001586,-0.00061,0.36750000000000005,-1.5225000000000002,-3.6575,1.168875,0.48759375,0.171875,1.4013125,1.1480625,-0.064875,-0.3349375,1.37278125,0.022957474327209258,0.020826537976520385,True
36097,70057,0,70055,3032.0,39676.0,27925.0,-0.0017079999999999999,0.002379,0.0025009999999999998,0.31500000000000006,-1.4875,-3.6050000000000004,1.17175,0.48440625,0.16934375000000002,1.39828125,1.12525,-0.0756875,-0.32765625,1.38709375,0.023263873565396623,0.02042942381677232,True
36098,70058,0,70056,3034.0,39676.0,27925.0,-0.000183,0.001281,0.0008539999999999999,0.12250000000000001,-1.5750000000000002,-3.5700000000000003,1.17990625,0.48378125,0.16743750000000002,1.39921875,1.1208125,-0.08109375,-0.3236875,1.3588437500000001,0.023457198658179718,0.020191223061881553,True
36099,70059,0,70057,3034.0,39677.0,27928.0,0.003294,-0.000488,-0.0025009999999999998,0.17500000000000002,-1.5225000000000002,-3.5000000000000004,1.18034375,0.485,0.17025,1.403,1.1471875,-0.07309375,-0.3318125,1.34275,0.023183299819949394,0.020633995104146065,True
36100,70060,0,70058,3035.0,39677.0,27928.0,0.00244,0.001037,-0.0017079999999999999,0.21000000000000002,-1.3825,-3.5175000000000005,1.1749375,0.4839375,0.17046875,1.40575,1.16409375,-0.0676875,-0.34065625,1.3499375,0.02291973418717523,0.020998817564748282,True
36101,70061,0,70059,3035.0,39677.0,27930.0,-0.00061,0.000122,0.0008539999999999999,0.29750000000000004,-1.1900000000000002,-3.4475000000000002,1.17453125,0.48081250000000003,0.17146875,1.4019375,1.1598125000000001,-0.06453125,-0.33203125,1.37775,0.02266172336101498,0.02069288810402954,True
36102,70062,0,70060,3035.0,39679.0,27930.0,-6.1e-05,-0.0025009999999999998,-6.1e-05,0.3325,-0.8925000000000001,-3.5175000000000005,1.17978125,0.485,0.167875,1.39425,1.127375,-0.08378125,-0.32515625,1.37721875,0.023616775293539092,0.020268369293619644,True
36103,70063,0,70061,3036.0,39677.0,27930.0,-0.001281,-0.001464,0.0,0.42000000000000004,-1.0150000000000001,-3.6050000000000004,1.1806875000000001,0.48503125,0.16871875,1.39821875,1.12959375,-0.07096875,-0.32706250000000003,1.3682812500000001,0.023098364082251573,0.020379823910100122,True
36104,70064,0,70062,3037.0,39679.0,27931.0,-0.00122,-0.00061,0.001281,0.2625,-0.8400000000000001,-3.5875000000000004,1.18159375,0.4845625,0.169375,1.39959375,1.1421875000000001,-0.065875,-0.33065625,1.37396875,0.022872116638185815,0.020551490467915344,True
36105,70065,0,70063,3036.0,39677.0,27929.0,-0.001403,-0.0013419999999999999,0.001037,0.21000000000000002,-0.6475000000000001,-3.4475000000000002,1.1788125,0.48334375,0.17103125,1.403,1.13940625,-0.0750625,-0.331,1.3760000000000001,0.023194384230570533,0.02063339977806091,True
36106,70066,0,70064,3038.0,39678.0,27929.0,-0.001647,-0.0023179999999999997,0.001586,0.24500000000000002,-0.6125,-3.43,1.17759375,0.48471875000000003,0.16990625,1.3988125,1.129875,-0.0719375,-0.33078125,1.3676875,0.023124696547587833,0.02057835689102667,True
36107,70067,0,70065,3039.0,39679.0,27929.0,-0.001586,0.00122,0.000183,0.1925,-0.56,-3.43,1.1793125,0.485375,0.167625,1.39015625,1.14703125,-0.07140625,-0.33015625,1.369,0.02313039978709179,0.020459434986160433,True
36108,70068,0,70066,3040.0,39679.0,27931.0,-0.002379,0.002623,-0.001952,0.28,-0.6300000000000001,-3.4650000000000003,1.17803125,0.48409375,0.17028125,1.40346875,1.14675,-0.07146875,-0.33484375,1.374875,0.023079709251227137,0.02075727320007962,True
36109,70069,0,70067,3040.0,39677.0,27931.0,-0.004148,0.003965,-0.002928,0.31500000000000006,-0.9975,-3.43,1.1798125,0.48384375,0.1710625,1.40475,1.13934375,-0.07134375,-0.32925,1.36921875,0.023064250411861616,0.02056423851947758,True
36110,70070,0,70068,3040.0,39678.0,27932.0,-0.002928,0.0018909999999999999,0.000488,0.31500000000000006,-1.3825,-3.5525,1.1752500000000001,0.4850625,0.16778125,1.40034375,1.13953125,-0.0759375,-0.3331875,1.3586875,0.02330127331490207,0.0205878802355836,True
36111,70071,0,70069,3041.0,39679.0,27932.0,0.000183,-0.000244,0.004941,0.43750000000000006,-1.8375000000000001,-3.535,1.18159375,0.48575,0.1710625,1.410375,1.1479375,-0.07115625,-0.3338125,1.373625,0.02313583295359981,0.02074787910854495,True
36112,70072,0,70070,3042.0,39678.0,27933.0,0.006161,0.003904,-0.0050019999999999995,0.36750000000000005,-2.3625000000000003,-3.6400000000000006,1.17653125,0.4806875,0.17200000000000001,1.3959062500000001,1.1395,-0.0741875,-0.3296875,1.36803125,0.023048545252046408,0.02062038404726736,True
36113,70073,0,70071,3043.0,39680.0,27933.0,0.00366,0.003843,-0.000488,0.31500000000000006,-2.5375,-3.535,1.18828125,0.49175,0.166875,1.3946875,1.144625,-0.072125,-0.33340625,1.36859375,0.023424396475176166,0.02055944181674113,True
36114,70074,0,70072,3043.0,39680.0,27936.0,0.0050019999999999995,-0.001037,0.0062829999999999995,0.2625,-2.3625000000000003,-3.5700000000000003,1.17453125,0.47903125,0.17296875,1.4133125,1.14503125,-0.07140625,-0.33159375,1.37490625,0.022866860967044666,0.020736927682758144,True
36115,70075,0,70073,3044.0,39683.0,27936.0,0.007686,-0.0044529999999999995,-0.0013419999999999999,0.15750000000000003,-1.9600000000000002,-3.6225000000000005,1.16796875,0.48562500000000003,0.16471875,1.3945,1.1395625,-0.07187500000000001,-0.33325,1.36940625,0.023159807867064782,0.02046453926212076,True
36116,70076,0,70074,3044.0,39683.0,27937.0,0.005978,-0.004941,-0.0050019999999999995,0.10500000000000001,-1.33,-3.5175000000000005,1.16871875,0.4748125,0.17571875,1.39603125,1.1404375,-0.07490625000000001,-0.33046875000000003,1.3688437500000001,0.022833681854939725,0.02080467520791189,True
36117,70077,0,70075,3045.0,39686.0,27939.0,-0.003721,-0.0011589999999999999,-0.0006709999999999999,0.17500000000000002,-0.0175,-3.6925000000000003,1.1885937500000001,0.4910625,0.16540625,1.4043125,1.1455312500000001,-0.0653125,-0.33428125000000003,1.3685625000000001,0.023119375657390695,0.020534302816114614,True
36118,70078,0,70076,3045.0,39685.0,27940.0,-0.008723,-0.0018909999999999999,0.002989,0.17500000000000002,0.5075000000000001,-3.6750000000000003,1.16840625,0.4780625,0.1750625,1.40028125,1.1400000000000001,-0.07509375,-0.3314375,1.37253125,0.022976286437098505,0.020816690341456397,True
36119,70079,0,70077,3046.0,39684.0,27936.0,-0.011101999999999999,-0.0030499999999999998,0.005795,0.10500000000000001,0.665,-3.6575,1.18721875,0.48578125,0.16618750000000002,1.39446875,1.14584375,-0.0719375,-0.33321875,1.36896875,0.023168835080267222,0.02052364116440617,True
36120,70080,0,70078,3049.0,39682.0,27937.0,-0.010309,-0.002806,0.0035989999999999998,0.15750000000000003,0.36750000000000005,-3.6050000000000004,1.19028125,0.4850625,0.16965625,1.39475,1.1476250000000001,-0.0721875,-0.3345,1.3683125,0.02314912178213966,0.02071775668289877,True
36121,70081,0,70079,3048.0,39683.0,27934.0,-0.0073809999999999995,0.0006709999999999999,-0.0023179999999999997,0.22750000000000004,-0.22750000000000004,-3.6575,1.18425,0.48209375,0.1681875,1.392875,1.14540625,-0.0715625,-0.3309375,1.36190625,0.02300042841007932,0.020514006087928176,True
36122,70082,0,70080,3051.0,39683.0,27938.0,-0.001281,0.00549,0.0040869999999999995,0.36750000000000005,-1.9600000000000002,-3.6225000000000005,1.180125,0.482,0.17484375,1.40746875,1.13275,-0.0726875,-0.33128125,1.369125,0.02304219252628108,0.02080141176289268,True
36123,70083,0,70081,3051.0,39686.0,27940.0,0.005429,0.000366,0.001952,0.45500000000000007,-2.87,-3.6050000000000004,1.17871875,0.48465625,0.1693125,1.39759375,1.1408125,-0.07190625,-0.3335,1.3687500000000001,0.023120831986457244,0.020663385867220087,True
36124,70084,0,70082,3050.0,39686.0,27938.0,0.010126,-0.0018909999999999999,-0.004697,0.3325,-3.3950000000000005,-3.535,1.1804375,0.484,0.1708125,1.40625,1.1475625,-0.06871875,-0.33421875,1.3746562500000001,0.022964194967794036,0.020753953730279506,True
36125,70085,0,70083,3051.0,39686.0,27943.0,0.01098,0.000549,-0.004758,0.29750000000000004,-3.4825000000000004,-3.6575,1.17484375,0.48334375,0.17184375000000002,1.4031875,1.14034375,-0.07200000000000001,-0.331125,1.3668437500000001,0.02307011257892988,0.02067182466901962,True
36126,70086,0,70084,3052.0,39689.0,27946.0,0.007991,0.003477,-0.002257,0.31500000000000006,-3.22,-3.7100000000000004,1.175125,0.483,0.17178125,1.39921875,1.1399375,-0.07187500000000001,-0.3314375,1.372875,0.023050759444372324,0.02068183394425422,True
36127,70087,0,70085,3052.0,39691.0,27948.0,0.003965,-0.003965,0.000183,0.052500000000000005,-1.715,-3.6400000000000006,1.17375,0.484,0.16715625,1.4035312500000001,1.13965625,-0.072125,-0.33378125000000003,1.36971875,0.02310244733275521,0.020586093663515614,True
36128,70088,0,70086,3053.0,39689.0,27949.0,0.000732,-0.003843,0.001464,0.052500000000000005,-1.0675000000000001,-3.6050000000000004,1.16590625,0.48053125,0.171375,1.40709375,1.1344375,-0.0750625,-0.33215625,1.374,0.02307756210394054,0.020694066108506104,True
36129,70089,0,70087,3053.0,39689.0,27949.0,-0.0035989999999999998,-0.002745,-0.0013419999999999999,0.14,-0.42000000000000004,-3.7100000000000004,1.17521875,0.48128125,0.1710625,1.4037187500000001,1.13959375,-0.07503125000000001,-0.33228125000000003,1.3655,0.023107446641424403,0.020686253986152654,True
36130,70090,0,70088,3054.0,39690.0,27949.0,-0.006039,0.000549,-0.000183,0.22750000000000004,-0.0175,-3.6225000000000005,1.1738125,0.4796875,0.17721875,1.4001875,1.1345,-0.07334375,-0.33075,1.37484375,0.02297276422183769,0.02087764454445506,True
36131,70091,0,70089,3054.0,39688.0,27951.0,-0.00915,6.1e-05,0.002379,0.2625,0.08750000000000001,-3.6750000000000003,1.180125,0.48346875,0.16834375000000001,1.3999375,1.13978125,-0.0763125,-0.33125,1.36921875,0.023250290093219217,0.02053300796301053,True
36132,70092,0,70090,3053.0,39687.0,27951.0,-0.0046359999999999995,-0.000244,0.0011589999999999999,0.43750000000000006,-0.5775,-3.7975000000000003,1.18190625,0.483875,0.1678125,1.3994375000000001,1.14025,-0.07290625,-0.331625,1.36890625,0.023128958515343367,0.020526269823737626,True
36133,70093,0,70091,3055.0,39689.0,27951.0,-0.001464,0.001952,0.000366,0.43750000000000006,-1.0325000000000002,-3.7975000000000003,1.1751875,0.48015625,0.1699375,1.4061875,1.14684375,-0.0656875,-0.33321875,1.37271875,0.022681411033863046,0.020677751479137956,True
36134,70094,0,70092,3058.0,39691.0,27953.0,0.000305,0.002806,-0.001586,0.36750000000000005,-1.435,-3.6925000000000003,1.16875,0.48321875000000003,0.16928125,1.3996250000000001,1.1400625,-0.0743125,-0.33128125,1.3700625,0.02315876102380909,0.020572796592863353,True
36135,70095,0,70093,3056.0,39691.0,27952.0,0.0018909999999999999,0.001952,-0.000915,0.4025,-1.8725000000000003,-3.6225000000000005,1.1835,0.4844375,0.1686875,1.39915625,1.13584375,-0.0718125,-0.330625,1.3746875,0.023107940043982977,0.020521975904852423,True
36136,70096,0,70094,3059.0,39690.0,27951.0,0.004026,0.000488,0.00122,0.3325,-2.1,-3.5875000000000004,1.182125,0.48309375,0.17090625,1.39425,1.13996875,-0.0749375,-0.33171875,1.3619375,0.02317892829420637,0.02065719257913089,True
36137,70097,0,70095,3059.0,39691.0,27953.0,0.0035989999999999998,-0.0025009999999999998,-0.001281,0.2625,-1.995,-3.6925000000000003,1.17846875,0.4831875,0.16971875,1.3995,1.14003125,-0.0723125,-0.3310625,1.3688125,0.02307630394877933,0.02058197211897343,True
36138,70098,0,70096,3059.0,39692.0,27952.0,0.003294,-0.000549,-0.002745,0.21000000000000002,-1.8025000000000002,-3.6750000000000003,1.18159375,0.48865625,0.1684375,1.3931875,1.1471875,-0.07137500000000001,-0.3323125,1.368875,0.023265444952770664,0.020579630481073266,True
36139,70099,0,70097,3060.0,39693.0,27954.0,0.000305,0.000244,-0.000732,0.24500000000000002,-1.54,-3.6575,1.17865625,0.484875,0.17071875,1.402125,1.13503125,-0.072125,-0.33446875,1.3686562500000001,0.023138796429480153,0.020760161447946138,True
36140,70100,0,70098,3061.0,39693.0,27955.0,-0.003111,-0.001037,0.0013419999999999999,0.24500000000000002,-1.3125000000000002,-3.7450000000000006,1.17565625,0.48315625,0.1705625,1.40265625,1.14303125,-0.07090625,-0.33525,1.36978125,0.023017932696239887,0.020785177879824535,True
36141,70101,0,70099,3061.0,39689.0,27953.0,-0.004209,-0.002989,0.000793,0.21000000000000002,-1.3825,-3.6925000000000003,1.17471875,0.48415625,0.17109375000000002,1.40075,1.1420625,-0.07075000000000001,-0.3336875,1.3693125,0.02305313502902901,0.02074413300491346,True
36142,70102,0,70100,3061.0,39692.0,27952.0,-0.000305,0.001769,0.000305,0.24500000000000002,-1.435,-3.6225000000000005,1.175625,0.483875,0.16946875,1.3990625,1.1495,-0.07125000000000001,-0.3359375,1.369125,0.02306174378148206,0.02076789727126806,True
36143,70103,0,70101,3062.0,39691.0,27956.0,-0.001098,0.003721,0.000549,0.28,-1.6625,-3.6575,1.17053125,0.4844375,0.16928125,1.3995312500000001,1.1515625,-0.07171875,-0.33328125000000003,1.36734375,0.023104135428634487,0.020653297631202123,True
36144,70104,0,70102,3064.0,39693.0,27956.0,-0.001037,0.0023179999999999997,-0.000183,0.21000000000000002,-1.8375000000000001,-3.6225000000000005,1.17546875,0.483,0.170875,1.4039062500000001,1.15203125,-0.069375,-0.33296875,1.3724687500000001,0.0229492872166394,0.020706217772954644,True
36145,70105,0,70103,3064.0,39691.0,27958.0,-6.1e-05,-0.000549,0.001403,0.22750000000000004,-1.9600000000000002,-3.6750000000000003,1.175875,0.486875,0.17184375000000002,1.40015625,1.137625,-0.0771875,-0.33087500000000003,1.37478125,0.02342725868625644,0.020661762061578146,True
36146,70106,0,70104,3064.0,39694.0,27960.0,0.002928,0.000549,-0.000793,0.3325,-2.0475000000000003,-3.5525,1.18740625,0.48503125,0.16975,1.3843125,1.1473125,-0.07040625,-0.33753125,1.36740625,0.02307553492164263,0.020843578783283533,True
36147,70107,0,70105,3065.0,39697.0,27961.0,0.002806,0.00122,-0.000915,0.36750000000000005,-2.0650000000000004,-3.6400000000000006,1.19271875,0.4920625,0.1665625,1.3923125,1.14959375,-0.07146875,-0.33434375,1.3668437500000001,0.023410754692731413,0.0205843336128594,True
36148,70108,0,70106,3064.0,39696.0,27961.0,0.0028669999999999998,0.00122,-0.0023179999999999997,0.35000000000000003,-1.8900000000000001,-3.5700000000000003,1.18409375,0.4834375,0.17528125,1.3870625,1.14625,-0.07265625,-0.32921875,1.37190625,0.023100639340538087,0.02073638307847431,True
36149,70109,0,70107,3066.0,39695.0,27961.0,0.002013,-0.00042699999999999997,-0.0023179999999999997,0.3325,-1.6800000000000002,-3.4650000000000003,1.19753125,0.48734375,0.164125,1.39259375,1.147875,-0.07128125,-0.3334375,1.3667500000000001,0.02320711532544617,0.02044768643969846,True
36150,70110,0,70108,3065.0,39694.0,27960.0,0.001098,-0.00042699999999999997,-0.000976,0.36750000000000005,-1.2600000000000002,-3.5175000000000005,1.1955625,0.48503125,0.1748125,1.39715625,1.14853125,-0.065625,-0.33371875,1.3699375,0.022881443968315804,0.020898213512885285,True
36151,70111,0,70109,3067.0,39694.0,27961.0,-0.002196,-0.0021349999999999997,0.000549,0.31500000000000006,-0.47250000000000003,-3.5525,1.1835,0.48571875000000003,0.1773125,1.41790625,1.13734375,-0.07615625,-0.3296875,1.3791875,0.02333740461582193,0.02083873868088113,True
36152,70112,0,70110,3067.0,39694.0,27961.0,-0.0035989999999999998,-0.002196,0.000366,0.28,-0.35000000000000003,-3.7275000000000005,1.16271875,0.47478125,0.17809375,1.4037187500000001,1.1362812500000001,-0.074625,-0.32975,1.3740625,0.022820968135536898,0.020873364913326274,True
36153,70113,0,70111,3068.0,39695.0,27962.0,-0.006893,-6.1e-05,0.001281,0.2625,-0.29750000000000004,-3.6750000000000003,1.1845,0.48081250000000003,0.16696875,1.39865625,1.13640625,-0.07246875,-0.330625,1.3710625,0.02298398455704715,0.02045133448072131,True
36154,70114,0,70112,3067.0,39691.0,27959.0,-0.005612,0.000366,0.001586,0.2625,-0.7525000000000001,-3.7100000000000004,1.17884375,0.48740625,0.1628125,1.38846875,1.13859375,-0.0724375,-0.333125,1.36784375,0.02325662908045768,0.02038116764698328,True
36155,70115,0,70113,3066.0,39691.0,27960.0,-0.0030499999999999998,0.001403,0.00183,0.35000000000000003,-0.9975,-3.7450000000000006,1.1961875,0.48278125,0.17078125,1.4088125,1.1369375,-0.07175000000000001,-0.3345625,1.369125,0.023036598917818604,0.020766502377020338,True
36156,70116,0,70114,3069.0,39687.0,27955.0,0.002562,0.00122,-0.000122,0.3325,-1.8550000000000002,-3.6925000000000003,1.1620625,0.4770625,0.17284375,1.396375,1.139875,-0.07321875,-0.332,1.3766875,0.022858648679873774,0.02074814030905803,True
36157,70117,0,70115,3066.0,39687.0,27954.0,0.0034159999999999998,0.001586,0.000488,0.24500000000000002,-1.9075000000000002,-3.6575,1.1745625,0.4846875,0.17065625,1.40546875,1.1256875,-0.07209375,-0.3336875,1.3696875,0.023129739181910587,0.020726153814542087,True
36158,70118,0,70116,3063.0,39688.0,27955.0,0.004514,-0.001098,-0.000549,0.21000000000000002,-1.8550000000000002,-3.6575,1.17478125,0.48303125,0.16809375000000001,1.39909375,1.13940625,-0.0753125,-0.32871875,1.375125,0.02319154735790034,0.02042082466837675,True
36159,70119,0,70117,3062.0,39689.0,27953.0,0.0037819999999999998,-0.00183,-0.0006709999999999999,0.28,-1.8025000000000002,-3.5875000000000004,1.18159375,0.483625,0.1689375,1.396625,1.14015625,-0.07553125000000001,-0.33078125,1.36678125,0.0232250845970429,0.020538541071302426,True
36160,70120,0,70118,3059.0,39685.0,27950.0,0.0030499999999999998,-0.001647,-0.00061,0.35000000000000003,-1.5050000000000001,-3.6750000000000003,1.18146875,0.4835625,0.1693125,1.40028125,1.1393125,-0.0733125,-0.33271875,1.3687500000000001,0.02313246255578662,0.020631942330735238,True
36161,70121,0,70119,3057.0,39684.0,27948.0,-0.00122,-0.000305,0.000976,0.4025,-1.05,-3.7275000000000005,1.1751875,0.47940625000000003,0.171875,1.40396875,1.14703125,-0.07109375,-0.335625,1.3693125,0.022869754308526176,0.020854200374964688,True
36162,70122,0,70120,3054.0,39683.0,27944.0,-0.0035989999999999998,0.000366,0.002013,0.43750000000000006,-0.9800000000000001,-3.7275000000000005,1.17475,0.47990625000000003,0.17065625,1.40425,1.1397187500000001,-0.0665,-0.33178125,1.375,0.02270401803336588,0.020649433546917166,True
36163,70123,0,70121,3052.0,39678.0,27941.0,-0.002074,0.000915,0.00122,0.385,-0.9800000000000001,-3.7800000000000002,1.17540625,0.48181250000000003,0.1689375,1.38821875,1.1406875,-0.07434375,-0.33115625,1.37471875,0.02310161621747218,0.02055363686220214,True
36164,70124,0,70122,3050.0,39678.0,27941.0,-0.0021349999999999997,-0.000244,0.000488,0.36750000000000005,-0.9275000000000001,-3.7100000000000004,1.18021875,0.48359375,0.17046875,1.40565625,1.1395625,-0.0714375,-0.33437500000000003,1.3685625000000001,0.023057669488994997,0.020746115320405805,True
36165,70125,0,70123,3048.0,39676.0,27936.0,-0.0017079999999999999,0.000915,-0.001769,0.36750000000000005,-1.0675000000000001,-3.6750000000000003,1.1748125,0.48046875,0.17115625,1.40684375,1.14084375,-0.0716875,-0.3319375,1.3724687500000001,0.0229379951031684,0.020676271669693384,True
36166,70126,0,70124,3046.0,39674.0,27937.0,6.1e-05,0.000915,0.000366,0.29750000000000004,-1.3825,-3.5700000000000003,1.1753437500000001,0.4811875,0.1709375,1.4037187500000001,1.13975,-0.07115625,-0.332125,1.36790625,0.02294629074995099,0.020674828030843993,True
36167,70127,0,70125,3045.0,39675.0,27939.0,0.001037,-0.002074,0.0008539999999999999,0.31500000000000006,-1.4175000000000002,-3.5700000000000003,1.1753437500000001,0.48181250000000003,0.17028125,1.39940625,1.140875,-0.074625,-0.33290625,1.37378125,0.02311302875953416,0.02067930130623012,True
36168,70128,0,70126,3042.0,39671.0,27936.0,0.0018909999999999999,-0.001769,-6.1e-05,0.2625,-1.435,-3.6925000000000003,1.18228125,0.48328125,0.16709375,1.3925625,1.1395625,-0.07471875,-0.3319375,1.36853125,0.023177840862626902,0.02050931003747647,True
36169,70129,0,70127,3042.0,39672.0,27937.0,0.00061,-0.000183,-0.0013419999999999999,0.3325,-1.435,-3.7100000000000004,1.17490625,0.48184375,0.1711875,1.4035312500000001,1.145875,-0.07112500000000001,-0.33525,1.36953125,0.022972285258790356,0.02081086078836256,True
36170,70130,0,70128,3041.0,39673.0,27934.0,0.000366,0.0,0.000183,0.3325,-1.2950000000000002,-3.7275000000000005,1.17503125,0.48278125,0.16846875,1.3995,1.1305625,-0.0731875,-0.33190625,1.3685,0.02309493705393189,0.020564562219616476,True
36171,70131,0,70129,3040.0,39670.0,27936.0,-0.004148,0.000244,0.00061,0.47250000000000003,-1.6800000000000002,-3.6400000000000006,1.18059375,0.4826875,0.17009375000000002,1.39984375,1.1398125000000001,-0.0735,-0.33109375,1.3635625,0.02310372401188028,0.020598642426421954,True
36172,70132,0,70130,3040.0,39670.0,27933.0,-0.002562,-0.000488,-0.00122,0.36750000000000005,-1.8900000000000001,-3.6050000000000004,1.1801875,0.48371875000000003,0.168625,1.39815625,1.144125,-0.07253125,-0.33409375,1.3714375,0.02310725009444115,0.02065902906287603,True
36173,70133,0,70131,3038.0,39672.0,27933.0,-0.000122,0.000915,0.001037,0.3325,-2.1350000000000002,-3.6400000000000006,1.1829687500000001,0.48328125,0.1665,1.397,1.1330625,-0.0753125,-0.331625,1.369375,0.023201931439103856,0.020472327680539217,True
36174,70134,0,70132,3038.0,39669.0,27936.0,0.0018909999999999999,0.0021349999999999997,-0.000915,0.47250000000000003,-2.5025000000000004,-3.6925000000000003,1.18075,0.48465625,0.1705,1.4056875,1.1425625,-0.07190625,-0.33446875,1.3686562500000001,0.023120831986457244,0.0207511721413684,True
36175,70135,0,70133,3037.0,39671.0,27937.0,0.003355,-0.00061,-0.002928,0.385,-2.6250000000000004,-3.5875000000000004,1.17509375,0.48190625000000004,0.17125,1.40528125,1.14678125,-0.0714375,-0.33437500000000003,1.3695625,0.02298756565743114,0.020778220110440476,True
36176,70136,0,70134,3037.0,39668.0,27935.0,0.004697,0.001037,-0.000488,0.35000000000000003,-2.415,-3.6400000000000006,1.17428125,0.48125,0.1709375,1.40515625,1.14996875,-0.07115625,-0.3373125,1.3684687500000001,0.022948887218494123,0.020883571265315346,True
36177,70137,0,70135,3035.0,39669.0,27937.0,0.003721,0.001647,-0.000183,0.28,-2.24,-3.6750000000000003,1.17478125,0.48034375,0.17015625,1.4051875,1.15115625,-0.06459375,-0.33915625,1.35584375,0.02264478285655664,0.0209256432215065,True
36178,70138,0,70136,3037.0,39669.0,27938.0,-0.000488,-0.0011589999999999999,0.0017079999999999999,0.31500000000000006,-1.9600000000000002,-3.6575,1.1811875,0.48334375,0.1670625,1.3975625,1.1354375,-0.07834375,-0.3244375,1.374,0.02332749734914803,0.020206017097003787,True
36179,70139,0,70137,3036.0,39669.0,27939.0,-0.0023179999999999997,-0.0013419999999999999,0.0006709999999999999,0.15750000000000003,-1.5925000000000002,-3.6925000000000003,1.16740625,0.48078125,0.1706875,1.40675,1.1456250000000001,-0.07028125,-0.33478125000000003,1.3645,0.022893895350724246,0.02077145238361245,True
36180,70140,0,70138,3036.0,39672.0,27938.0,-0.004209,0.0,0.001037,0.1925,-1.3650000000000002,-3.8325000000000005,1.17484375,0.48315625,0.17053125,1.3994375000000001,1.14640625,-0.0703125,-0.3315625,1.38203125,0.022993833171048358,0.020635491452717022,True
36181,70141,0,70139,3038.0,39672.0,27941.0,-0.003843,-0.000915,0.0013419999999999999,0.15750000000000003,-1.4875,-3.7450000000000006,1.18234375,0.48371875000000003,0.16753125,1.4013125,1.13271875,-0.06890625,-0.3268125,1.365125,0.02296012100674496,0.0203209421702905,True
36182,70142,0,70140,3037.0,39672.0,27939.0,-0.001586,-0.001403,0.000305,0.2625,-1.8200000000000003,-3.6750000000000003,1.1749375,0.47928125,0.1704375,1.40521875,1.15140625,-0.07,-0.33587500000000003,1.36425,0.022820159950145406,0.02080518986886644,True
36183,70143,0,70141,3036.0,39673.0,27941.0,0.0,0.000122,-0.0006709999999999999,0.21000000000000002,-2.1525000000000003,-3.7100000000000004,1.17459375,0.48403125,0.1695,1.3914375,1.15671875,-0.069125,-0.32678125,1.3840937500000001,0.022981984180978743,0.02040061300752643,True
36184,70144,0,70142,3038.0,39675.0,27941.0,0.001647,0.000732,0.0,0.31500000000000006,-2.3275,-3.6925000000000003,1.17465625,0.47996875,0.17171875,1.39878125,1.1415625,-0.064,-0.33859375,1.37725,0.02260508435837766,0.02096721385145763,True
36185,70145,0,70143,3038.0,39677.0,27943.0,0.0028669999999999998,0.001403,0.000366,0.4025,-2.4850000000000003,-3.6400000000000006,1.1820625,0.48353125,0.16990625,1.4040000000000001,1.12925,-0.081125,-0.3343125,1.3559375,0.023448084339913525,0.02072048470652294,True
36186,70146,0,70144,3038.0,39679.0,27943.0,0.00366,-0.001403,-0.0023179999999999997,0.2625,-2.45,-3.5875000000000004,1.17415625,0.482875,0.1694375,1.39946875,1.14565625,-0.0736875,-0.32946875000000003,1.36925,0.023119121239735294,0.0205062533475993,True
36187,70147,0,70145,3037.0,39678.0,27948.0,0.002379,-0.000122,-0.000793,0.28,-2.1525000000000003,-3.5525,1.17465625,0.47959375,0.170375,1.39996875,1.1416250000000001,-0.07062500000000001,-0.32921875,1.37328125,0.022858515306519875,0.02053472226682166,True
36188,70148,0,70146,3040.0,39680.0,27948.0,0.0,0.000793,0.001098,0.3325,-1.8375000000000001,-3.5525,1.1748125,0.48234375,0.17059375000000002,1.39815625,1.1363125,-0.0749375,-0.33087500000000003,1.375625,0.023147775565357128,0.020610387008276523,True
36189,70149,0,70147,3038.0,39681.0,27949.0,-0.001037,0.0011589999999999999,0.0,0.31500000000000006,-1.6625,-3.5175000000000005,1.1806875000000001,0.48384375,0.17121875,1.40659375,1.13915625,-0.07221875,-0.33353125,1.36959375,0.023099761005619807,0.020742981970608972,True
36190,70150,0,70148,3039.0,39680.0,27948.0,-0.000732,-0.001464,-0.00122,0.22750000000000004,-1.5925000000000002,-3.5875000000000004,1.17328125,0.48028125,0.17109375000000002,1.40015625,1.14459375,-0.07225,-0.33209375,1.3723750000000001,0.022953037210896365,0.020679991831775678,True
36191,70151,0,70149,3039.0,39678.0,27949.0,-0.001952,0.000915,-6.1e-05,0.29750000000000004,-1.715,-3.7625,1.181125,0.48328125,0.1704375,1.40484375,1.13290625,-0.07328125,-0.33425,1.368875,0.023119511387754834,0.020739800897911376,True
36192,70152,0,70150,3038.0,39680.0,27949.0,-0.002074,0.001647,0.000915,0.29750000000000004,-1.8550000000000002,-3.6750000000000003,1.1754375000000001,0.48696875,0.1706875,1.39803125,1.14446875,-0.07150000000000001,-0.33475,1.3689375,0.023200413351889167,0.020770194885914178,True
36193,70153,0,70151,3039.0,39678.0,27949.0,-0.00122,0.001098,0.00042699999999999997,0.29750000000000004,-1.9250000000000003,-3.7625,1.17553125,0.48065625,0.171,1.4031875,1.14478125,-0.07171875,-0.32978125,1.36915625,0.022947052752516895,0.020583056002609974,True
36194,70154,0,70152,3038.0,39681.0,27950.0,0.0008539999999999999,0.00061,-0.001403,0.28,-2.1525000000000003,-3.7625,1.1754375000000001,0.48434375,0.1680625,1.400125,1.1465625,-0.07200000000000001,-0.3354375,1.36896875,0.02311165461947491,0.020689991704484458,True
36195,70155,0,70153,3040.0,39679.0,27951.0,0.000549,-0.001647,0.0,0.17500000000000002,-2.2225,-3.7625,1.1818125,0.4829375,0.16793750000000002,1.3991875,1.1468125,-0.07278125,-0.33253125,1.37003125,0.023084941628836512,0.02056788686955863,True
36196,70156,0,70154,3041.0,39681.0,27950.0,0.001952,0.000732,-0.000488,0.24500000000000002,-2.1,-3.6225000000000005,1.18346875,0.48328125,0.167,1.39803125,1.140125,-0.07265625,-0.33137500000000003,1.37490625,0.023094148573653973,0.020482812829114672,True
36197,70157,0,70155,3043.0,39680.0,27952.0,0.002623,-0.0006709999999999999,-0.00042699999999999997,0.28,-2.0475000000000003,-3.6050000000000004,1.183,0.48381250000000003,0.16946875,1.39721875,1.13984375,-0.0758125,-0.33171875,1.37015625,0.02324428303302329,0.02059811331659421,True
36198,70158,0,70156,3043.0,39680.0,27952.0,0.001098,-0.001403,0.000915,0.28,-1.8900000000000001,-3.6750000000000003,1.18540625,0.48425,0.17165625,1.409,1.1459062500000001,-0.07234375,-0.3305,1.37096875,0.02312170994982572,0.0206389613859148,True
36199,70159,0,70157,3043.0,39681.0,27953.0,0.00183,-0.0013419999999999999,0.0,0.29750000000000004,-1.7325000000000002,-3.6750000000000003,1.1765,0.48528125,0.16640625,1.40615625,1.14021875,-0.07528125000000001,-0.3341875,1.3630625,0.023283736301107593,0.02057162377005602,True
36200,70160,0,70158,3043.0,39681.0,27954.0,0.000183,0.000305,0.000183,0.24500000000000002,-1.5750000000000002,-3.6750000000000003,1.172375,0.48321875000000003,0.16871875,1.38946875,1.1404375,-0.07478125000000001,-0.33065625,1.3688125,0.023177780691153737,0.020524518322435303,True
36201,70161,0,70159,3045.0,39682.0,27955.0,-0.002806,0.000366,-0.0013419999999999999,0.4025,-1.33,-3.6050000000000004,1.1728750000000001,0.48131250000000003,0.167625,1.39778125,1.14659375,-0.0709375,-0.3304375,1.368625,0.022942604541264754,0.0204707580782302,True
36202,70162,0,70160,3041.0,39682.0,27956.0,-0.00122,-0.000244,0.000183,0.385,-1.33,-3.6575,1.17378125,0.47671875,0.17146875,1.4085,1.14490625,-0.0648125,-0.33275,1.3701875000000001,0.02250303217612853,0.020721815248995693,True
36203,70163,0,70161,3043.0,39680.0,27958.0,0.000244,0.000488,0.00061,0.3325,-1.3825,-3.5875000000000004,1.1713437500000001,0.47909375,0.16903125,1.39690625,1.14203125,-0.0710625,-0.3340625,1.36153125,0.022855503366334576,0.020674466090485302,True
36204,70164,0,70162,3045.0,39682.0,27956.0,0.00061,-0.000732,0.000793,0.31500000000000006,-1.435,-3.6225000000000005,1.18725,0.48446875,0.1696875,1.409125,1.143375,-0.07225,-0.334125,1.3618125,0.0231269926990622,0.0207039497002666,True
36205,70165,0,70163,3046.0,39681.0,27958.0,-0.00061,-0.000244,-0.000244,0.4025,-1.5225000000000002,-3.7100000000000004,1.16709375,0.47853125,0.17253125,1.40471875,1.1400625,-0.072375,-0.33209375,1.37125,0.02288541325897424,0.020739070183797892,True
36206,70166,0,70164,3045.0,39682.0,27958.0,-0.002074,0.001586,-0.001098,0.3325,-1.5575,-3.6575,1.172125,0.482125,0.17103125,1.40440625,1.13890625,-0.07196875,-0.332,1.36909375,0.023018214910236624,0.020673649926023344,True
36207,70167,0,70165,3047.0,39682.0,27958.0,-0.0008539999999999999,0.001952,0.0008539999999999999,0.28,-1.6450000000000002,-3.6750000000000003,1.1728750000000001,0.48390625000000004,0.1694375,1.3996250000000001,1.14121875,-0.07171875,-0.33121875,1.36890625,0.02308206596174193,0.020576702513103663,True
36208,70168,0,70166,3046.0,39681.0,27960.0,0.0006709999999999999,0.000183,0.002196,0.3325,-1.6625,-3.7275000000000005,1.17371875,0.48209375,0.1715,1.4048125,1.1406875,-0.07259375,-0.3315,1.3715625,0.02304228226341418,0.020672790415716253,True
36209,70169,0,70167,3046.0,39683.0,27960.0,0.0008539999999999999,-0.00122,0.00122,0.22750000000000004,-1.6975000000000002,-3.6925000000000003,1.174625,0.48296875,0.16815625,1.39934375,1.1361875000000001,-0.07134375,-0.33609375,1.36859375,0.023027900135404778,0.020720252197417677,True
36210,70170,0,70168,3048.0,39683.0,27959.0,0.000305,0.000244,-0.0006709999999999999,0.21000000000000002,-1.715,-3.7100000000000004,1.18353125,0.48315625,0.171,1.39884375,1.14109375,-0.077875,-0.33165625,1.39309375,0.023300696178545657,0.020658529975738908,True
36211,70171,0,70169,3048.0,39684.0,27962.0,0.001098,-0.00042699999999999997,-0.000976,0.22750000000000004,-1.7500000000000002,-3.5525,1.18084375,0.48275,0.17259375,1.4015312500000001,1.12965625,-0.07853125,-0.32975,1.37434375,0.02331044382119445,0.020647304226307298,True
36212,70172,0,70170,3048.0,39683.0,27963.0,0.002379,-0.00061,0.000549,0.22750000000000004,-1.8200000000000003,-3.5875000000000004,1.174125,0.479125,0.17125,1.403875,1.1449375,-0.06525,-0.344375,1.3590312500000001,0.022620791390074904,0.021180457497881954,True
36213,70173,0,70171,3050.0,39684.0,27963.0,0.0025009999999999998,-0.0011589999999999999,-0.00122,0.2625,-1.6450000000000002,-3.6225000000000005,1.17796875,0.483,0.17265625,1.39909375,1.14490625,-0.07840625,-0.3295625,1.3715,0.023315756207909315,0.020642325565862513,True
36214,70174,0,70172,3048.0,39685.0,27963.0,0.001037,-0.000183,0.000793,0.3325,-1.4875,-3.6225000000000005,1.180625,0.482625,0.16840625,1.39909375,1.131125,-0.07459375,-0.3289375,1.3861875000000001,0.023145509983943137,0.02044247719408215,True
36215,70175,0,70173,3050.0,39684.0,27964.0,-0.0021349999999999997,0.0008539999999999999,0.000793,0.1925,-1.2425000000000002,-3.5700000000000003,1.181375,0.48381250000000003,0.16925,1.40421875,1.12690625,-0.0858125,-0.33165625,1.3547500000000001,0.02364981459521036,0.020586607210514078,True
36216,70176,0,70174,3050.0,39685.0,27964.0,-0.002196,0.000305,0.0015249999999999999,0.29750000000000004,-1.2775,-3.5875000000000004,1.17440625,0.47878125,0.171375,1.39859375,1.16484375,-0.06628125,-0.33196875000000003,1.3849375,0.022648389019387864,0.0206865196635599,True
36217,70177,0,70175,3051.0,39684.0,27964.0,-0.001098,-0.000183,0.0006709999999999999,0.29750000000000004,-1.2425000000000002,-3.5700000000000003,1.17353125,0.48221875000000003,0.16865625,1.3983125,1.1269375,-0.0809375,-0.327625,1.39003125,0.023385976978678676,0.020399905457273368,True
36218,70178,0,70176,3053.0,39684.0,27967.0,0.000122,-0.000122,-0.002379,0.3325,-1.4700000000000002,-3.6050000000000004,1.1823125,0.48371875000000003,0.1665625,1.399,1.14834375,-0.07453125000000001,-0.33175,1.3641875,0.02318840579710145,0.02047992848849754,True
36219,70179,0,70177,3053.0,39685.0,27966.0,0.0008539999999999999,0.000244,-0.00183,0.29750000000000004,-1.5225000000000002,-3.5175000000000005,1.1759375,0.4835625,0.16975,1.4001875,1.15634375,-0.0704375,-0.33796875,1.35715625,0.02301578440358635,0.020861180126217394,True
36220,70180,0,70178,3053.0,39687.0,27967.0,0.0013419999999999999,-0.002379,-0.000244,0.31500000000000006,-1.6625,-3.5525,1.183,0.482875,0.16618750000000002,1.39903125,1.14715625,-0.07396875,-0.327625,1.37509375,0.023130533888393454,0.020298426171893064,True
36221,70181,0,70179,3053.0,39687.0,27968.0,0.002196,-0.000366,-0.000366,0.36750000000000005,-1.5750000000000002,-3.6575,1.1806875000000001,0.48325,0.16846875,1.39678125,1.1318125,-0.07790625,-0.328625,1.37253125,0.023305857418561882,0.020432463815772572,True
36222,70182,0,70180,3054.0,39687.0,27967.0,0.000244,0.000732,0.000305,0.36750000000000005,-1.4525000000000001,-3.6750000000000003,1.1819375,0.48328125,0.17378125,1.399875,1.13953125,-0.0720625,-0.3330625,1.3684375,0.023070052680363388,0.02082942703985575,True
36223,70183,0,70181,3055.0,39686.0,27970.0,-0.002257,0.0018909999999999999,0.000793,0.42000000000000004,-1.3125000000000002,-3.7275000000000005,1.18084375,0.48284375,0.16865625,1.3925625,1.14675,-0.0720625,-0.3343125,1.36903125,0.02305187808481305,0.020669116910535277,True
36224,70184,0,70182,3056.0,39689.0,27968.0,-0.0037819999999999998,0.002745,0.000183,0.42000000000000004,-1.2950000000000002,-3.6400000000000006,1.17253125,0.48228125,0.17065625,1.40003125,1.1401875000000001,-0.07434375,-0.33209375,1.3744687500000001,0.02312108715320641,0.02066201146376892,True
36225,70185,0,70183,3056.0,39687.0,27967.0,-0.00042699999999999997,0.0,0.001647,0.2625,-1.61,-3.6050000000000004,1.17746875,0.48253125,0.17021875,1.39978125,1.1390625,-0.07509375,-0.331625,1.3630625,0.02316190357514184,0.020625163752934713,True
36226,70186,0,70184,3056.0,39687.0,27969.0,0.0006709999999999999,0.0,-6.1e-05,0.2625,-1.8200000000000003,-3.535,1.17740625,0.482875,0.16903125,1.39909375,1.14078125,-0.07284375,-0.33337500000000003,1.3681875000000001,0.023084881693713484,0.02064679683767665,True
36227,70187,0,70185,3057.0,39689.0,27970.0,0.00244,0.000915,-0.001037,0.31500000000000006,-1.8725000000000003,-3.5525,1.1785,0.483125,0.16859375000000001,1.4000625,1.1473125,-0.07303125,-0.3333125,1.36940625,0.02310287575437763,0.020626301906080398,True
36228,70188,0,70186,3058.0,39688.0,27970.0,0.003904,-0.000183,-0.001281,0.21000000000000002,-1.8725000000000003,-3.4650000000000003,1.1730625000000001,0.483875,0.16768750000000002,1.39909375,1.1454375,-0.072875,-0.33528125000000003,1.3686875,0.02312769039842561,0.02066829410488116,True
36229,70189,0,70187,3057.0,39689.0,27973.0,0.0034159999999999998,-0.00183,-0.001464,0.07,-1.61,-3.4650000000000003,1.18128125,0.48315625,0.166125,1.3989375,1.14415625,-0.07200000000000001,-0.33534375,1.36903125,0.023062323446327686,0.02060660227986301,True
36230,70190,0,70188,3059.0,39689.0,27973.0,-0.000366,-0.002379,-0.000183,0.15750000000000003,-1.0675000000000001,-3.43,1.18321875,0.4829375,0.1713125,1.4110625,1.14475,-0.06509375,-0.33184375,1.3745,0.02277286993739636,0.020678919985255943,True
36231,70191,0,70189,3061.0,39688.0,27972.0,-0.002257,-0.000183,0.0008539999999999999,0.3325,-1.0675000000000001,-3.5875000000000004,1.17009375,0.47715625,0.169375,1.41234375,1.1400000000000001,-0.0725625,-0.33334375,1.37353125,0.022835904985188015,0.020659665813499224,True
36232,70192,0,70190,3060.0,39688.0,27972.0,-0.002806,0.000366,0.000976,0.3325,-0.8750000000000001,-3.6050000000000004,1.16828125,0.48059375,0.16384375,1.393125,1.13940625,-0.0761875,-0.33359375,1.3688437500000001,0.0231258063594994,0.020442418210421552,True
36233,70193,0,70191,3062.0,39689.0,27971.0,-0.0035989999999999998,0.001647,0.001586,0.2625,-0.8400000000000001,-3.5700000000000003,1.16578125,0.4750625,0.17453125,1.4001875,1.141875,-0.07284375,-0.33128125,1.37146875,0.02276034587729171,0.020788568214014622,True
36234,70194,0,70192,3062.0,39686.0,27972.0,-0.0051849999999999995,-6.1e-05,0.0023179999999999997,0.35000000000000003,-0.8925000000000001,-3.535,1.18396875,0.48359375,0.1631875,1.393875,1.1360937500000001,-0.07046875,-0.33190625,1.3685625000000001,0.023018351065556213,0.02034751181897226,True
36235,70195,0,70193,3061.0,39687.0,27971.0,-0.0008539999999999999,-0.000122,-0.001037,0.1925,-1.4175000000000002,-3.4825000000000004,1.19040625,0.48559375,0.167625,1.407875,1.144375,-0.0720625,-0.33353125,1.37103125,0.023166118399700897,0.020595294815667166,True
36236,70196,0,70194,3062.0,39688.0,27973.0,0.000976,-0.0011589999999999999,-0.002013,0.12250000000000001,-1.7325000000000002,-3.43,1.16240625,0.47475,0.17509375,1.4096875,1.13940625,-0.07565625000000001,-0.33209375,1.36946875,0.022861526360262764,0.02084438376783749,True
36237,70197,0,70195,3063.0,39688.0,27972.0,0.0026839999999999998,0.000122,-0.001098,0.14,-1.8900000000000001,-3.43,1.185375,0.48353125,0.16484375,1.3863750000000001,1.13746875,-0.0728125,-0.33440625,1.3688125,0.0231108745602534,0.02051621867700183,True
36238,70198,0,70196,3064.0,39691.0,27976.0,0.0025009999999999998,0.001464,0.000549,0.21000000000000002,-2.1175,-3.4650000000000003,1.19134375,0.4855,0.1673125,1.39284375,1.143875,-0.0725,-0.3351875,1.3686562500000001,0.023179977152352264,0.020649111497497197,True
36239,70199,0,70197,3065.0,39691.0,27976.0,0.00183,0.000488,-0.000122,0.15750000000000003,-2.1525000000000003,-3.3600000000000003,1.17575,0.47475,0.173625,1.3999062500000001,1.146125,-0.07409375,-0.32784375,1.37434375,0.022798106366932296,0.020612955063064313,True
36240,70200,0,70198,3065.0,39692.0,27979.0,0.0040869999999999995,-0.0025009999999999998,-0.001281,0.17500000000000002,-1.8200000000000003,-3.2375000000000003,1.1805625,0.48353125,0.16778125,1.401875,1.14246875,-0.07215625,-0.3326875,1.36825,0.023084242816843632,0.02056775479486185,True
36241,70201,0,70199,3066.0,39694.0,27979.0,0.003355,0.000366,0.000976,0.07,-1.4875,-3.3950000000000005,1.17075,0.479125,0.16940625,1.4018125000000001,1.1395625,-0.076,-0.33184375,1.3690625,0.023057193886027578,0.020600576148283048,True
36242,70202,0,70200,3066.0,39695.0,27984.0,0.000732,0.001647,-0.0008539999999999999,0.052500000000000005,-1.1725,-3.3425000000000002,1.17465625,0.481,0.17115625,1.404875,1.1446875,-0.0761875,-0.33228125000000003,1.3726562500000001,0.02314267987819915,0.0206901068924641,True
36243,70203,0,70201,3066.0,39696.0,27985.0,-0.0006709999999999999,0.0017079999999999999,-0.000244,0.15750000000000003,-0.7175,-3.2725000000000004,1.17553125,0.48871875000000004,0.1683125,1.39940625,1.139125,-0.0755,-0.3309375,1.37225,0.023435390749932502,0.02051914358006139,True
36244,70204,0,70202,3066.0,39697.0,27988.0,-0.002806,0.000305,0.000366,0.12250000000000001,-0.36750000000000005,-3.2375000000000003,1.17871875,0.48290625000000004,0.17040625,1.403,1.145125,-0.07240625,-0.336375,1.3743125,0.023068425076948843,0.020824023709365095,True
36245,70205,0,70203,3068.0,39697.0,27989.0,-0.0035989999999999998,0.000366,0.001769,0.0175,-0.10500000000000001,-3.2900000000000005,1.1660625,0.48184375,0.17159375000000002,1.39959375,1.139375,-0.072875,-0.33109375,1.3706875,0.023043311195692247,0.020660291936115696,True
36246,70206,0,70204,3069.0,39698.0,27990.0,-0.003843,-0.000549,0.0025009999999999998,-0.0175,-0.15750000000000003,-3.2725000000000004,1.18234375,0.48296875,0.16940625,1.39946875,1.14234375,-0.07046875,-0.33475,1.3584375,0.02299238563852231,0.02071754384162566,True
36247,70207,0,70205,3068.0,39699.0,27991.0,-0.006222,-0.0021349999999999997,0.000549,0.0175,-0.4025,-3.3600000000000003,1.175375,0.48278125,0.17215625,1.3985625,1.14534375,-0.07037500000000001,-0.3319375,1.37440625,0.022980790702263675,0.020717369917623702,True
36248,70208,0,70206,3068.0,39698.0,27992.0,-0.0050019999999999995,-0.002623,0.000122,0.17500000000000002,-0.7875000000000001,-3.2725000000000004,1.182125,0.48278125,0.16828125,1.3996875,1.1395,-0.0726875,-0.33284375,1.369125,0.023074646318571614,0.02059459244257055,True
36249,70209,0,70207,3068.0,39700.0,27992.0,-0.0035989999999999998,-0.001464,0.0,0.21000000000000002,-1.5050000000000001,-3.43,1.183,0.48234375,0.171375,1.401875,1.1382812500000001,-0.073625,-0.3340625,1.36925,0.023094517340035,0.020770781697466257,True
36250,70210,0,70208,3067.0,39697.0,27989.0,0.003172,0.000183,-0.000183,0.5775,-2.8875,-3.6750000000000003,1.1681875,0.47834375,0.1706875,1.3916250000000001,1.1479062500000001,-0.07187500000000001,-0.3321875,1.3765625000000001,0.022857328313644034,0.020667069082876334,True
36251,70211,0,70209,3067.0,39696.0,27987.0,0.00793,0.000122,-0.008662,0.56,-3.1850000000000005,-3.6925000000000003,1.178,0.48184375,0.16771875,1.399875,1.13915625,-0.0750625,-0.334,1.36590625,0.023132079096367872,0.02061801389003041,True
36252,70212,0,70210,3066.0,39694.0,27984.0,0.018788,-0.002196,0.0053679999999999995,0.6300000000000001,-1.4875,-3.7100000000000004,1.17484375,0.4831875,0.168375,1.39865625,1.1457187500000001,-0.07246875,-0.33484375,1.3686562500000001,0.02308264498214376,0.020678939021336433,True
36253,70213,0,70211,3065.0,39692.0,27983.0,0.003111,0.000549,0.006405,0.525,-0.29750000000000004,-3.8850000000000002,1.1750625000000001,0.48178125,0.171375,1.4040000000000001,1.13721875,-0.06659375000000001,-0.3320625,1.37603125,0.022785733855668715,0.020690292900571006,True
36254,70214,0,70212,3061.0,39689.0,27977.0,-0.008905999999999999,0.0,-0.0035989999999999998,0.525,-1.8200000000000003,-3.8675,1.18009375,0.48209375,0.16815625,1.39965625,1.13965625,-0.076625,-0.33175,1.36296875,0.02320585837923712,0.020545429325880795,True
36255,70215,0,70213,3059.0,39686.0,27973.0,0.003721,0.005978,-0.001098,0.7000000000000001,-1.7675,-3.9725000000000006,1.1805625,0.4825625,0.1703125,1.401,1.14559375,-0.072625,-0.335,1.373125,0.02306302283195123,0.020764844873638794,True
36256,70216,0,70214,3058.0,39682.0,27969.0,0.003477,0.00244,0.001464,0.7175,-1.6625,-4.0075,1.1719375,0.48153125,0.1718125,1.39890625,1.13915625,-0.07290625,-0.33153125,1.3686875,0.02303159802319257,0.020686891623395053,True
36257,70217,0,70215,3054.0,39677.0,27964.0,-0.003965,-0.000732,0.000793,0.77,-1.4175000000000002,-3.8150000000000004,1.17215625,0.480625,0.17065625,1.3985,1.147375,-0.06634375,-0.332125,1.374625,0.022727538328293013,0.020663269237684745,True
36258,70218,0,70216,3050.0,39675.0,27963.0,-0.007503,-0.000183,0.003172,0.7525000000000001,-1.4875,-3.7800000000000002,1.1792500000000001,0.48271875000000003,0.17040625,1.4021875,1.139,-0.06578125,-0.3339375,1.3686875,0.02279169723609118,0.020725940879892536,True
36259,70219,0,70217,3050.0,39672.0,27955.0,-0.006771,0.001037,6.1e-05,0.6125,-1.7325000000000002,-3.9025000000000003,1.174625,0.48246875,0.17096875,1.399,1.1396875,-0.07525,-0.33178125,1.37553125,0.02316564729338221,0.020662276831869844,True
36260,70220,0,70218,3049.0,39669.0,27954.0,0.0044529999999999995,-0.002013,-0.001952,0.45500000000000007,-2.4850000000000003,-3.6050000000000004,1.17628125,0.48146875,0.16903125,1.399125,1.13915625,-0.0729375,-0.331,1.3628437500000001,0.023030269986784955,0.02055120011507953,True
36261,70221,0,70219,3048.0,39666.0,27952.0,0.006405,-0.0006709999999999999,-0.00061,0.36750000000000005,-2.5725000000000002,-3.7625,1.17465625,0.48109375,0.1703125,1.4011875,1.15009375,-0.07187500000000001,-0.3296875,1.37765625,0.02297156951836947,0.020551024340119455,True
36262,70222,0,70220,3045.0,39667.0,27952.0,0.0062829999999999995,0.000549,0.0,0.21000000000000002,-2.4675000000000002,-3.9200000000000004,1.1773437500000001,0.4825,0.16865625,1.3996250000000001,1.13915625,-0.0721875,-0.33446875,1.3673125,0.023042671132401243,0.02067540512878466,True
36263,70223,0,70221,3045.0,39667.0,27954.0,0.0053679999999999995,-0.0011589999999999999,0.000793,0.21000000000000002,-2.1525000000000003,-3.6925000000000003,1.17365625,0.48481250000000004,0.17059375000000002,1.39446875,1.15090625,-0.0756875,-0.33046875000000003,1.375625,0.023280747434522898,0.020594033972321228,True
36264,70224,0,70222,3045.0,39668.0,27953.0,0.003904,-0.00042699999999999997,-0.00122,0.07,-1.6275000000000002,-3.5175000000000005,1.17990625,0.483875,0.17059375000000002,1.40759375,1.14896875,-0.0719375,-0.3325625,1.3760625,0.023089645359871843,0.020678309158766155,True
36265,70225,0,70223,3043.0,39669.0,27955.0,-0.0008539999999999999,-0.001037,0.00042699999999999997,-0.07,-0.36750000000000005,-3.5000000000000004,1.16625,0.4816875,0.1550625,1.3933125,1.137125,-0.0741875,-0.332625,1.36671875,0.023090083517875733,0.020042535484765825,True
36266,70226,0,70224,3041.0,39669.0,27956.0,-0.003477,-0.000366,0.000244,-0.08750000000000001,0.052500000000000005,-3.43,1.17653125,0.470625,0.1755625,1.41,1.13653125,-0.07703125,-0.330625,1.3782812500000001,0.022746004036523396,0.020804541601376864,True
36267,70227,0,70225,3041.0,39671.0,27957.0,-0.0037819999999999998,-0.002074,0.001647,-0.10500000000000001,0.4025,-3.3950000000000005,1.1948125,0.4801875,0.17625,1.42009375,1.14559375,-0.06625,-0.32506250000000003,1.3793125,0.022705552381447048,0.020608888466370847,True
36268,70228,0,70226,3039.0,39669.0,27956.0,-0.0037819999999999998,-0.000122,0.0023179999999999997,-0.10500000000000001,0.665,-3.535,1.17259375,0.48484375,0.16015625,1.3995625,1.13625,-0.07375,-0.337375,1.36640625,0.02320343735396438,0.02044309421209148,True
36269,70229,0,70227,3040.0,39671.0,27958.0,-0.0055509999999999995,0.001037,0.000732,0.08750000000000001,0.6475000000000001,-3.6575,1.16271875,0.46718750000000003,0.1718125,1.39165625,1.13740625,-0.0750625,-0.32975,1.3666562500000001,0.02252330601426268,0.02061519333326483,True
36270,70230,0,70228,3039.0,39670.0,27959.0,-0.004514,0.0017079999999999999,-6.1e-05,-0.12250000000000001,0.17500000000000002,-3.6050000000000004,1.162,0.47696875,0.16271875,1.39259375,1.13271875,-0.0746875,-0.33059375,1.3664375,0.022914368047352637,0.020275399156668754,True
36271,70231,0,70229,3039.0,39673.0,27961.0,-0.001647,0.001098,-0.0037819999999999998,-0.052500000000000005,-0.15750000000000003,-3.5875000000000004,1.1638125,0.47346875,0.1698125,1.389375,1.14075,-0.07415625,-0.33021875,1.3660625,0.022747422352548702,0.02055186001975424,True
36272,70232,0,70230,3034.0,39674.0,27965.0,-0.000122,0.0023179999999999997,-0.001952,-0.14,-0.385,-3.5525,1.179875,0.47731250000000003,0.17546875,1.4015,1.1456250000000001,-0.07303125,-0.3308125,1.3754375,0.02286142298760153,0.02080823441469536,True
36273,70233,0,70231,3037.0,39677.0,27967.0,-0.000305,-0.000183,0.004697,-0.21000000000000002,-0.7875000000000001,-3.6925000000000003,1.18759375,0.48696875,0.16734375,1.4159375,1.14265625,-0.07225,-0.3360625,1.37278125,0.02323084672184777,0.020685608035400142,True
36274,70234,0,70232,3036.0,39676.0,27970.0,-0.000244,-0.002379,0.000488,-0.2625,-0.9625000000000001,-3.7450000000000006,1.17596875,0.484,0.164875,1.40184375,1.139625,-0.0734375,-0.33153125,1.3695625,0.02315570844421367,0.020401767767904044,True
36275,70235,0,70233,3035.0,39679.0,27973.0,0.000915,-0.00042699999999999997,-0.001464,-0.1925,-1.0850000000000002,-3.7975000000000003,1.1630625,0.47215625,0.17421875,1.39153125,1.13965625,-0.07565625000000001,-0.3266875,1.37,0.022753793056004445,0.02059081204541309,True
36276,70236,0,70234,3035.0,39682.0,27976.0,-0.0006709999999999999,-0.0011589999999999999,0.00042699999999999997,-0.15750000000000003,-1.33,-3.7450000000000006,1.18090625,0.4789375,0.173375,1.40484375,1.14421875,-0.0723125,-0.33246875,1.3746875,0.022899752568433133,0.02078883795956791,True
36277,70237,0,70235,3033.0,39683.0,27980.0,0.001464,-0.00061,-0.001098,-0.14,-1.5750000000000002,-3.8150000000000004,1.17646875,0.482,0.167875,1.399125,1.1398125000000001,-0.0745,-0.33215625,1.37346875,0.023115744875282975,0.020550223533929508,True
36278,70238,0,70236,3032.0,39685.0,27984.0,0.002013,-0.00122,0.0013419999999999999,-0.07,-1.7325000000000002,-3.8150000000000004,1.1792500000000001,0.4826875,0.1696875,1.40484375,1.13940625,-0.073,-0.3353125,1.3681875000000001,0.023083433722427615,0.02075173680222927,True
36279,70239,0,70237,3032.0,39690.0,27987.0,0.001037,0.001464,-0.0015249999999999999,0.035,-2.0650000000000004,-3.7975000000000003,1.17996875,0.482875,0.16621875,1.3919062500000001,1.13925,-0.077,-0.3318125,1.3676875,0.02325351995680525,0.020468316941041693,True
36280,70240,0,70238,3031.0,39688.0,27989.0,0.0025009999999999998,0.0028669999999999998,-0.002623,0.22750000000000004,-2.415,-3.7450000000000006,1.1685625,0.48225,0.1700625,1.39665625,1.1468125,-0.0719375,-0.33625,1.368875,0.02302213936871513,0.020804869279367196,True
36281,70241,0,70239,3031.0,39691.0,27992.0,0.002379,0.002745,0.0008539999999999999,0.1925,-2.31,-3.6925000000000003,1.1765,0.482,0.16628125,1.3995312500000001,1.13925,-0.0758125,-0.33221875,1.3561875,0.0231690000077879,0.020487239783671597,True
36282,70242,0,70240,3031.0,39692.0,27993.0,0.00244,0.00042699999999999997,0.000183,0.21000000000000002,-2.2225,-3.7100000000000004,1.17425,0.48046875,0.17040625,1.40440625,1.1461875,-0.06775,-0.335125,1.36771875,0.022778147105566575,0.02077372727692995,True
36283,70243,0,70241,3028.0,39694.0,27996.0,0.00244,-0.001281,-0.001952,0.17500000000000002,-1.8200000000000003,-3.6575,1.1731562500000001,0.47925,0.1708125,1.4044375,1.14640625,-0.0645,-0.3331875,1.37496875,0.02259552452783145,0.02071245289997457,True
36284,70244,0,70242,3029.0,39695.0,27996.0,-0.001464,-0.002257,0.00061,0.052500000000000005,-1.05,-3.6050000000000004,1.17465625,0.48159375,0.16684375,1.39965625,1.13034375,-0.0746875,-0.3318125,1.3702812500000001,0.023106478536844974,0.020494003477957098,True
36285,70245,0,70243,3028.0,39694.0,27996.0,-0.002379,-0.0015249999999999999,-0.00042699999999999997,0.0,-0.7525000000000001,-3.6575,1.182125,0.482625,0.16746875,1.39853125,1.14375,-0.0669375,-0.33425,1.3683750000000001,0.022834749955203067,0.020617802069100136,True
36286,70246,0,70244,3025.0,39694.0,27997.0,-0.0023179999999999997,-0.004331,-0.000122,0.035,-0.6125,-3.6575,1.17465625,0.48084375,0.17040625,1.40346875,1.1395625,-0.07246875,-0.33490625,1.3680625,0.02298528272053526,0.020764924870010547,True
36287,70247,0,70245,3026.0,39692.0,27998.0,-0.002379,-0.0032329999999999998,0.001586,0.12250000000000001,-0.6825000000000001,-3.7975000000000003,1.1801875,0.482125,0.1685,1.39846875,1.13959375,-0.07334375,-0.33371875,1.369,0.0230740172935054,0.020638799813530354,True
36288,70248,0,70246,3024.0,39693.0,27998.0,-0.0032329999999999998,6.1e-05,0.001586,0.17500000000000002,-0.8575,-3.8850000000000002,1.1743125,0.47796875,0.171,1.39871875,1.14475,-0.0726875,-0.3323125,1.37478125,0.02287473095806191,0.020684943118332876,True
36289,70249,0,70247,3024.0,39692.0,27998.0,-0.003477,-0.000122,0.002257,0.28,-1.5050000000000001,-3.7450000000000006,1.18175,0.48284375,0.166875,1.40003125,1.1398125000000001,-0.07425,-0.33309375,1.36859375,0.023140648202955444,0.02054686326106807,True
36290,70250,0,70248,3025.0,39690.0,27997.0,0.000183,0.0011589999999999999,0.000488,0.29750000000000004,-1.8550000000000002,-3.7800000000000002,1.17403125,0.47775,0.1708125,1.39996875,1.1456875,-0.07178125,-0.3338125,1.37184375,0.02282885692142122,0.020737605338251044,True
36291,70251,0,70249,3025.0,39689.0,28001.0,0.002257,0.001586,-0.0008539999999999999,0.47250000000000003,-2.2225,-3.6925000000000003,1.179375,0.4819375,0.16740625,1.40459375,1.13690625,-0.0763125,-0.33290625,1.3685,0.023186690237551953,0.020561148547555846,True
36292,70252,0,70250,3023.0,39689.0,28004.0,0.001647,0.0028669999999999998,-0.000915,0.49000000000000005,-2.555,-3.7275000000000005,1.17465625,0.48078125,0.1706875,1.40565625,1.1431875,-0.0726875,-0.33253125,1.37259375,0.02299156461030784,0.020680904293506254,True
36293,70253,0,70251,3025.0,39691.0,28003.0,0.002196,0.003477,0.001037,0.42000000000000004,-2.5375,-3.7275000000000005,1.17503125,0.48059375,0.1713125,1.40675,1.1380625,-0.07328125,-0.33296875,1.3703125,0.023007873095820704,0.02072419749439739,True
36294,70254,0,70252,3023.0,39691.0,28005.0,0.003538,-0.000122,-0.001098,0.24500000000000002,-2.3275,-3.5525,1.17346875,0.48625,0.16746875,1.3999375,1.13090625,-0.0755625,-0.3314375,1.368625,0.023335384168074996,0.020504594107931356,True
36295,70255,0,70253,3025.0,39693.0,28006.0,0.003477,-0.000732,-0.000549,0.24500000000000002,-2.24,-3.5700000000000003,1.17596875,0.48178125,0.1701875,1.39646875,1.14125,-0.06715625,-0.33728125000000003,1.37171875,0.022808573405925344,0.020851497124396344,True
36296,70256,0,70254,3024.0,39692.0,28005.0,0.003477,-0.001952,-0.0026839999999999998,0.29750000000000004,-1.9425000000000001,-3.6400000000000006,1.181,0.4824375,0.17053125,1.395125,1.1382812500000001,-0.07628125,-0.33240625,1.3676875,0.02320618970174225,0.020669451875520946,True
36297,70257,0,70255,3023.0,39693.0,28008.0,0.001464,-0.002013,-0.00183,0.28,-1.54,-3.7100000000000004,1.1746875,0.4835,0.16984375000000002,1.3871875,1.15625,-0.07028125,-0.3313125,1.3841875000000001,0.023006845838164022,0.020597172881651984,True
36298,70258,0,70256,3024.0,39693.0,28010.0,-0.002196,-6.1e-05,-0.00183,0.28,-1.4000000000000001,-3.7450000000000006,1.18246875,0.48340625000000004,0.17071875,1.40446875,1.1333125,-0.07525,-0.33753125,1.3635,0.023204587698985476,0.020883383560113558,True
36299,70259,0,70257,3022.0,39693.0,28009.0,-0.004392,0.000488,0.000976,0.35000000000000003,-1.2075,-3.9725000000000006,1.17446875,0.48221875000000003,0.17300000000000001,1.399375,1.141125,-0.07296875,-0.32946875000000003,1.38175,0.023062693503475763,0.020652680712561797,True
36300,70260,0,70258,3023.0,39691.0,28009.0,-0.0034159999999999998,0.000976,0.002257,0.35000000000000003,-1.5225000000000002,-3.9550000000000005,1.18128125,0.4835,0.16946875,1.3918125000000001,1.132625,-0.07378125,-0.33421875,1.3642812500000001,0.023148887339831583,0.020698733136850757,True
36301,70261,0,70259,3026.0,39690.0,28009.0,-0.0025009999999999998,0.001647,0.0018909999999999999,0.28,-1.61,-3.9725000000000006,1.17353125,0.48028125,0.170375,1.4045,1.1505625,-0.07034375,-0.3359375,1.363625,0.02287566001212592,0.020805136436597108,True
36302,70262,0,70260,3024.0,39692.0,28011.0,0.000183,0.000976,-0.000488,0.21000000000000002,-1.8725000000000003,-3.8500000000000005,1.17459375,0.48184375,0.16740625,1.40375,1.13328125,-0.078375,-0.3243125,1.3681875000000001,0.023266468355941792,0.02021511399345819,True
36303,70263,0,70261,3023.0,39691.0,28013.0,0.002257,-0.000549,-0.001098,0.1925,-1.8900000000000001,-3.8325000000000005,1.17446875,0.48025,0.1689375,1.40053125,1.1556875,-0.068875,-0.331625,1.3840937500000001,0.02281473479753416,0.020572505946479122,True
36304,70264,0,70262,3025.0,39691.0,28012.0,0.0037819999999999998,-0.000366,-0.000183,-0.0175,-1.61,-3.7625,1.17384375,0.47850000000000004,0.17090625,1.3988125,1.13959375,-0.07084375,-0.33503125,1.37940625,0.02282195654234181,0.020790501347722742,True
36305,70265,0,70263,3025.0,39693.0,28014.0,0.0026839999999999998,-0.001403,-0.00122,-0.10500000000000001,-1.3650000000000002,-3.7275000000000005,1.1809687500000001,0.48021875,0.1699375,1.4054375000000001,1.13225,-0.07109375,-0.33509375,1.36528125,0.022903508487228587,0.020753207494834496,True
36306,70266,0,70264,3025.0,39696.0,28016.0,0.000305,-0.0018909999999999999,0.000244,-0.035,-1.1025,-3.5875000000000004,1.1806875000000001,0.4830625,0.1695625,1.3979062500000001,1.13225,-0.07390625,-0.33453125,1.3648125,0.023135786283125532,0.020715161710789066,True
36307,70267,0,70265,3023.0,39697.0,28018.0,0.000366,-0.001586,-0.00061,0.052500000000000005,-0.9275000000000001,-3.6050000000000004,1.17509375,0.48153125,0.16775,1.4000625,1.132625,-0.0701875,-0.32984375,1.3687500000000001,0.022921248536181948,0.0204519911888049,True
36308,70268,0,70266,3022.0,39697.0,28017.0,0.00122,-0.001647,-0.000122,0.07,-0.665,-3.7450000000000006,1.17571875,0.47975,0.1705,1.40296875,1.1440937500000001,-0.07240625,-0.33575,1.358625,0.02293731022423236,0.020802728496142505,True
36309,70269,0,70267,3023.0,39696.0,28019.0,-0.0025009999999999998,0.002013,0.000366,0.10500000000000001,-0.17500000000000002,-3.6575,1.1739375,0.4815,0.16965625,1.3995312500000001,1.139625,-0.07521875,-0.33237500000000003,1.37328125,0.02312414087618622,0.020632233803728573,True
36310,70270,0,70268,3027.0,39697.0,28019.0,-0.002257,0.001952,0.000183,0.0,0.10500000000000001,-3.6750000000000003,1.17621875,0.4805,0.1723125,1.39940625,1.1460000000000001,-0.07353125,-0.33321875,1.37596875,0.023014124693484676,0.02077535467846809,True
36311,70271,0,70269,3027.0,39697.0,28021.0,-0.0028669999999999998,0.001403,0.001586,0.14,0.22750000000000004,-3.535,1.18059375,0.4820625,0.1705625,1.3990625,1.13984375,-0.07246875,-0.33665625,1.37575,0.023035911096571684,0.020841760050746495,True
36312,70272,0,70270,3026.0,39699.0,28021.0,-0.002745,0.000915,0.002745,0.10500000000000001,0.29750000000000004,-3.535,1.1778125,0.48209375,0.17015625,1.4039375,1.13940625,-0.07315625,-0.33303125,1.3691875,0.023065110126554343,0.020679195075623796,True
36313,70273,0,70271,3027.0,39699.0,28023.0,-0.00183,-0.000305,0.001281,0.14,0.42000000000000004,-3.4125000000000005,1.1745625,0.4824375,0.16646875,1.39921875,1.13928125,-0.075125,-0.332,1.367375,0.02315927747000275,0.020486139651487753,True
36314,70274,0,70272,3028.0,39698.0,28022.0,-0.003172,0.0,-0.00061,0.14,0.31500000000000006,-3.5000000000000004,1.17503125,0.480625,0.1706875,1.39840625,1.1470625,-0.07203125,-0.33246875,1.37521875,0.022958438540578087,0.020678388829740095,True
36315,70275,0,70273,3027.0,39701.0,28024.0,-0.002806,-0.000305,0.000976,0.07,0.0175,-3.4650000000000003,1.18234375,0.48290625000000004,0.16978125,1.40084375,1.13871875,-0.07265625,-0.33528125000000003,1.36859375,0.02307857073313212,0.02075433173799871,True
36316,70276,0,70274,3030.0,39701.0,28023.0,-0.0026839999999999998,-0.001464,0.000732,0.07,-0.385,-3.3600000000000003,1.1744375,0.48690625,0.168,1.39853125,1.13921875,-0.074875,-0.3265,1.3683125,0.023334752516887422,0.020327626251207532,True
36317,70277,0,70275,3028.0,39702.0,28026.0,-0.001952,-0.002074,0.000366,0.08750000000000001,-0.8575,-3.43,1.1716875,0.47790625000000003,0.17175,1.39003125,1.1445625,-0.07328125,-0.33278125000000003,1.37415625,0.022896234803886573,0.02073463139360611,True
36318,70278,0,70276,3030.0,39703.0,28026.0,0.0013419999999999999,-0.000549,-0.000183,0.10500000000000001,-1.4000000000000001,-3.4825000000000004,1.18484375,0.48846875,0.1695625,1.408375,1.1401875000000001,-0.07275,-0.33615625,1.3673125,0.02331344570105202,0.020780551571286037,True
36319,70279,0,70277,3030.0,39707.0,28030.0,0.007259,6.1e-05,-0.002806,0.21000000000000002,-1.8550000000000002,-3.6050000000000004,1.1715312500000001,0.47525,0.1684375,1.39678125,1.14328125,-0.07546875,-0.332,1.3743125,0.022874684423330287,0.020567051619266807,True
36320,70280,0,70278,3030.0,39708.0,28031.0,0.0060999999999999995,6.1e-05,-0.0011589999999999999,0.0175,-1.6625,-3.6575,1.17903125,0.48246875,0.169625,1.4083125,1.1395625,-0.073,-0.33515625,1.3683125,0.02307434677854858,0.020742880991364086,True
36321,70281,0,70279,3031.0,39706.0,28032.0,0.00366,-0.000915,-0.000915,0.10500000000000001,-1.3125000000000002,-3.6400000000000006,1.168125,0.47984375,0.16875,1.39803125,1.1383125,-0.07590625000000001,-0.331625,1.3687500000000001,0.023083243232017485,0.020564799926022205,True
36322,70282,0,70280,3031.0,39708.0,28032.0,0.000488,0.001403,-0.0017079999999999999,0.10500000000000001,-0.805,-3.5700000000000003,1.181,0.47721875,0.17115625,1.4016250000000001,1.14178125,-0.0733125,-0.3340625,1.3740625,0.02286894460411296,0.020761792240814703,True
36323,70283,0,70281,3031.0,39706.0,28033.0,-0.001464,-0.000183,-0.000183,0.22750000000000004,-0.29750000000000004,-3.535,1.1834375,0.48221875000000003,0.165125,1.39803125,1.13978125,-0.0751875,-0.33459375,1.36840625,0.02315272726328715,0.020535323298750362,True
36324,70284,0,70282,3031.0,39707.0,28032.0,-0.005673,0.000793,0.0026839999999999998,0.17500000000000002,-0.07,-3.5875000000000004,1.17178125,0.4759375,0.17240625,1.3971875,1.14334375,-0.0721875,-0.331625,1.372875,0.022770053614778466,0.02071506732493206,True
36325,70285,0,70283,3032.0,39706.0,28035.0,-0.00488,0.001281,0.00366,0.29750000000000004,-0.21000000000000002,-3.5525,1.1849687500000001,0.482625,0.16753125,1.40415625,1.1420000000000001,-0.072625,-0.334625,1.3685625000000001,0.023065619142075285,0.020635462843581934,True
36326,70286,0,70284,3032.0,39705.0,28032.0,-0.005429,-0.00042699999999999997,0.000732,0.28,-0.5775,-3.5000000000000004,1.17465625,0.47921875,0.171125,1.4056875,1.142625,-0.072875,-0.33421875,1.36315625,0.022934267302929127,0.020766795728751307,True
36327,70287,0,70285,3031.0,39705.0,28034.0,-0.0013419999999999999,-6.1e-05,-0.00183,0.15750000000000003,-1.0675000000000001,-3.5525,1.17584375,0.48165625,0.16815625,1.3994375000000001,1.1391875,-0.06746875000000001,-0.3318125,1.369,0.02281606785092429,0.02054794520547945,True
36328,70288,0,70286,3031.0,39705.0,28035.0,0.000244,-0.00122,0.000244,0.24500000000000002,-1.3825,-3.6050000000000004,1.175625,0.48009375,0.16909375000000001,1.4057187500000001,1.1425,-0.072875,-0.33409375,1.36915625,0.0229706152671835,0.020678292159534397,True
36329,70289,0,70287,3031.0,39707.0,28036.0,0.0044529999999999995,-0.002623,-0.001403,-0.0175,-2.0475000000000003,-3.5875000000000004,1.1732500000000001,0.48021875,0.17096875,1.4046875,1.13965625,-0.07228125,-0.3331875,1.3733125,0.022951709240269864,0.020718874171334934,True
36330,70290,0,70288,3032.0,39706.0,28037.0,0.006771,-0.0023179999999999997,-0.000976,-0.0175,-2.1175,-3.6400000000000006,1.17403125,0.47931250000000003,0.170875,1.404375,1.1401875000000001,-0.07128125,-0.3308125,1.36540625,0.022873470850248157,0.020619430608821637,True
36331,70291,0,70289,3034.0,39711.0,28041.0,0.004209,0.00061,-0.002013,0.17500000000000002,-1.9250000000000003,-3.5700000000000003,1.1683125,0.480125,0.170125,1.4054375000000001,1.15109375,-0.06884375,-0.34318750000000003,1.3536875,0.022808272624230238,0.021086494938265588,True
36332,70292,0,70290,3033.0,39710.0,28042.0,0.0013419999999999999,0.002379,-0.000305,0.24500000000000002,-1.6450000000000002,-3.5000000000000004,1.17471875,0.48184375,0.16846875,1.39940625,1.14353125,-0.0779375,-0.3261875,1.3743750000000001,0.023248720950455163,0.020334310503855157,True
36333,70293,0,70291,3034.0,39709.0,28041.0,-0.001586,0.000122,0.001952,0.4025,-1.3125000000000002,-3.4650000000000003,1.173625,0.47771875,0.17300000000000001,1.39984375,1.1453125,-0.068,-0.33878125000000003,1.37728125,0.022674038141931196,0.02102739840352524,True
36334,70294,0,70292,3034.0,39710.0,28041.0,-0.0015249999999999999,0.0006709999999999999,-0.000183,0.43750000000000006,-1.1375000000000002,-3.6225000000000005,1.179,0.4814375,0.1689375,1.3949375,1.12784375,-0.082125,-0.3263125,1.352625,0.023401693164535935,0.02035861374386274,True
36335,70295,0,70293,3034.0,39712.0,28043.0,-0.0021349999999999997,0.002806,0.001281,0.385,-1.12,-3.535,1.17428125,0.48065625,0.167125,1.39925,1.1626875,-0.066375,-0.330125,1.379875,0.02273010580114371,0.020437626193864602,True
36336,70296,0,70294,3035.0,39710.0,28043.0,-0.0021349999999999997,0.002928,0.001464,0.4025,-1.2600000000000002,-3.5525,1.1795625,0.48034375,0.17009375000000002,1.3955312500000001,1.12340625,-0.0653125,-0.3446875,1.3800000000000001,0.02267397317196691,0.021145527129892303,True
36337,70297,0,70295,3035.0,39710.0,28042.0,-0.0013419999999999999,6.1e-05,-6.1e-05,0.42000000000000004,-1.3475000000000001,-3.5000000000000004,1.18103125,0.48190625000000004,0.16990625,1.40315625,1.1265625000000001,-0.08084375,-0.3315625,1.35909375,0.02336919776741627,0.020609804651879633,True
36338,70298,0,70296,3035.0,39712.0,28044.0,0.0,-0.001098,-0.00183,0.385,-1.5750000000000002,-3.535,1.170625,0.481,0.1675,1.3993125,1.15296875,-0.07834375,-0.326625,1.37140625,0.023230158843462814,0.020312106591029378,True
36339,70299,0,70297,3037.0,39711.0,28042.0,-0.000366,-0.000732,-0.000915,0.35000000000000003,-1.6800000000000002,-3.7275000000000005,1.16625,0.4786875,0.17021875,1.40225,1.14828125,-0.06875,-0.34071875,1.3743125,0.022744741625551804,0.020991060504324675,True
36340,70300,0,70298,3036.0,39710.0,28044.0,-0.000549,-0.0018909999999999999,0.000549,0.21000000000000002,-1.6800000000000002,-3.5875000000000004,1.1824375,0.4820625,0.1689375,1.4041875,1.1285,-0.07815625,-0.32990625,1.36025,0.023266679731758947,0.02050331574952123,True
36341,70301,0,70299,3038.0,39710.0,28041.0,-0.000732,-0.001586,0.00061,0.1925,-1.715,-3.5700000000000003,1.17384375,0.4805,0.17109375000000002,1.3994375000000001,1.1510625,-0.0723125,-0.33096875000000003,1.3726875,0.022964661164148643,0.020634710650392827,True
36342,70302,0,70300,3037.0,39708.0,28042.0,-0.00061,-0.0013419999999999999,-0.000183,0.17500000000000002,-1.8200000000000003,-3.6225000000000005,1.177875,0.4815625,0.16878125,1.4029375,1.1359062500000001,-0.07334375,-0.3355,1.3678125,0.02305065120004362,0.020722041872983914,True
36343,70303,0,70301,3035.0,39709.0,28042.0,-0.000976,-0.000244,-0.000793,0.1925,-1.9425000000000001,-3.6225000000000005,1.174375,0.482625,0.16734375,1.39940625,1.13884375,-0.07628125,-0.333,1.3680625,0.02321397744927905,0.020562353593884853,True
36344,70304,0,70302,3035.0,39709.0,28042.0,0.000366,0.000183,0.001586,0.24500000000000002,-2.5025000000000004,-3.5875000000000004,1.1693437500000001,0.481625,0.17059375000000002,1.39565625,1.133875,-0.07284375,-0.32775,1.375125,0.023032955963086,0.02048458036604289,True
36345,70305,0,70303,3033.0,39710.0,28041.0,0.0026839999999999998,0.000122,0.002074,0.14,-2.8175000000000003,-3.7450000000000006,1.1668125,0.48234375,0.16790625,1.40346875,1.13846875,-0.07375,-0.335625,1.36975,0.023099589802170417,0.020691116418830417,True
36346,70306,0,70304,3032.0,39710.0,28041.0,0.003904,6.1e-05,0.00042699999999999997,0.28,-3.08,-3.7800000000000002,1.16640625,0.48021875,0.1701875,1.40025,1.1439062500000001,-0.07390625,-0.33240625,1.373375,0.023017660459652242,0.020655324624953605,True
36347,70307,0,70305,3031.0,39708.0,28040.0,0.0040869999999999995,0.000732,-0.000305,0.2625,-2.9225000000000003,-3.7800000000000002,1.179,0.48134375,0.16859375000000001,1.3990625,1.138875,-0.0735625,-0.3350625,1.3683125,0.023050441744964005,0.020696731311045536,True
36348,70308,0,70306,3027.0,39705.0,28038.0,0.004575,0.0008539999999999999,-0.001403,0.1925,-2.2575000000000003,-3.8500000000000005,1.17859375,0.48228125,0.17084375000000002,1.4021875,1.14353125,-0.0745,-0.33484375,1.3689375,0.023127427360900538,0.020780388203643183,True
36349,70309,0,70307,3024.0,39707.0,28038.0,0.0013419999999999999,-0.00042699999999999997,-0.000915,0.29750000000000004,-1.7325000000000002,-3.8325000000000005,1.17475,0.47915625,0.17275000000000001,1.4015312500000001,1.136125,-0.07371875,-0.32846875000000003,1.37484375,0.022965915891162432,0.020602149487932736,True
36350,70310,0,70308,3023.0,39704.0,28036.0,0.001281,0.0008539999999999999,-0.00042699999999999997,0.21000000000000002,-1.3825,-3.8500000000000005,1.1869687500000001,0.48196875,0.16940625,1.3993125,1.13875,-0.07259375,-0.335625,1.3758125,0.02303708963642524,0.02075275444949534,True
36351,70311,0,70309,3018.0,39702.0,28035.0,-0.001098,0.0008539999999999999,0.00122,0.31500000000000006,-0.77,-3.7100000000000004,1.18528125,0.48734375,0.17096875,1.3940000000000001,1.13075,-0.068,-0.32996875000000003,1.3688125,0.023073946734252948,0.020589319499228705,True
36352,70312,0,70310,3018.0,39701.0,28032.0,-0.0030499999999999998,0.00183,0.0028669999999999998,0.36750000000000005,-0.28,-3.6400000000000006,1.1705,0.47778125,0.1720625,1.41228125,1.1416250000000001,-0.0760625,-0.3331875,1.37371875,0.023003917272602196,0.020763823070857442,True
36353,70313,0,70311,3016.0,39701.0,28031.0,-0.0062829999999999995,-0.00122,0.00042699999999999997,0.17500000000000002,-0.22750000000000004,-3.6750000000000003,1.16784375,0.47221875,0.17350000000000002,1.4033125,1.13865625,-0.0756875,-0.3315625,1.3738125,0.022757657491608498,0.02075750375669462,True
36354,70314,0,70312,3013.0,39698.0,28029.0,-0.0062829999999999995,-0.0025009999999999998,0.000244,0.052500000000000005,-0.385,-3.7800000000000002,1.18365625,0.48381250000000003,0.16140625,1.394375,1.14615625,-0.0729375,-0.33440625,1.3684375,0.02312763035254838,0.02037495778225532,True
36355,70315,0,70313,3010.0,39695.0,28028.0,-0.005246,-0.0006709999999999999,0.0021349999999999997,0.0,-0.9275000000000001,-3.7450000000000006,1.1724375,0.47931250000000003,0.17215625,1.412375,1.14184375,-0.0730625,-0.33234375,1.37434375,0.02294577185599049,0.020733719907273625,True
36356,70316,0,70314,3009.0,39696.0,28028.0,-0.003538,-0.001952,0.00061,0.15750000000000003,-1.4000000000000001,-3.6750000000000003,1.16790625,0.4821875,0.17375000000000002,1.4058125000000001,1.13884375,-0.07709375,-0.33203125,1.3733125,0.02322876904526735,0.02078664312088618,True
36357,70317,0,70315,3008.0,39694.0,28028.0,-0.0008539999999999999,-0.001586,0.000915,0.24500000000000002,-2.0125,-3.7625,1.16809375,0.4775625,0.1744375,1.4130625,1.13840625,-0.07709375,-0.33196875000000003,1.365,0.02303667775517965,0.020812382886197814,True
36358,70318,0,70316,3008.0,39695.0,28029.0,0.003843,-0.000305,-0.002745,0.3325,-2.8000000000000003,-3.7450000000000006,1.16365625,0.48081250000000003,0.17371875,1.395375,1.13928125,-0.0768125,-0.3315,1.373,0.023160250136931543,0.020763978792922758,True
36359,70319,0,70317,3007.0,39696.0,28030.0,0.0035989999999999998,0.001586,-0.0015249999999999999,0.36750000000000005,-3.115,-3.6225000000000005,1.1719375,0.47346875,0.17290625,1.40903125,1.139125,-0.07371875,-0.333125,1.3665625000000001,0.022729662404151828,0.020795982842318858,True
36360,70320,0,70318,3006.0,39695.0,28030.0,0.0030499999999999998,0.0,-0.0011589999999999999,0.4025,-3.3075,-3.7275000000000005,1.1675625,0.47865625,0.17200000000000001,1.4026875,1.13284375,-0.07490625000000001,-0.32853125,1.37396875,0.022993339797532958,0.020573837559552634,True
36361,70321,0,70319,3006.0,39698.0,28030.0,0.004209,0.001281,-0.000183,0.4025,-3.22,-3.7450000000000006,1.1691562500000001,0.47881250000000003,0.170875,1.4026875,1.126875,-0.076,-0.33290625,1.3679375,0.02304421415517528,0.02070370241943459,True
36362,70322,0,70320,3004.0,39697.0,28034.0,0.003843,0.001281,6.1e-05,0.28,-3.0625000000000004,-3.8850000000000002,1.17309375,0.47915625,0.170125,1.4044375,1.14728125,-0.0735,-0.33315625,1.3675,0.02295703782167113,0.02068294161387305,True
36363,70323,0,70321,3003.0,39698.0,28035.0,0.001952,0.0015249999999999999,-0.0006709999999999999,0.385,-2.765,-3.7975000000000003,1.1734375000000001,0.47996875,0.17034375000000002,1.4016875,1.13940625,-0.0766875,-0.33325,1.37425,0.02312013436233701,0.020695704437343965,True
36364,70324,0,70322,3004.0,39700.0,28036.0,0.000549,0.000732,6.1e-05,0.21000000000000002,-2.4675000000000002,-3.7450000000000006,1.17953125,0.4815,0.17065625,1.40225,1.137,-0.07353125,-0.33490625,1.3690625,0.023055664091656682,0.020775198178542398,True
36365,70325,0,70323,3003.0,39701.0,28037.0,0.00122,-0.0006709999999999999,0.00042699999999999997,0.17500000000000002,-2.1700000000000004,-3.8325000000000005,1.17403125,0.47815625,0.17003125,1.40671875,1.14528125,-0.07278125,-0.33009375,1.3749375,0.02288632519352121,0.020555818861158315,True
36366,70326,0,70324,3004.0,39703.0,28040.0,0.000183,-0.00122,0.002013,0.22750000000000004,-1.8550000000000002,-3.7625,1.17396875,0.4789375,0.17034375000000002,1.3978125000000001,1.13871875,-0.0749375,-0.33240625,1.37590625,0.02300629025516681,0.020661746102484217,True
36367,70327,0,70325,3004.0,39702.0,28043.0,-0.000244,-0.00122,0.000122,0.28,-1.5925000000000002,-3.7450000000000006,1.174,0.4806875,0.17040625,1.39925,1.138625,-0.0756875,-0.33284375,1.36809375,0.023109412763394604,0.02068192296677202,True
36368,70328,0,70326,3002.0,39704.0,28045.0,-0.0028669999999999998,-6.1e-05,0.000793,0.31500000000000006,-1.2075,-3.7625,1.18184375,0.481625,0.16828125,1.40478125,1.14203125,-0.07340625,-0.33559375,1.36925,0.02305578380707965,0.020705268389023795,True
36369,70329,0,70327,3004.0,39706.0,28045.0,-0.003965,-0.000183,0.001403,0.2625,-1.155,-3.7800000000000002,1.1676250000000001,0.480625,0.169375,1.4030625,1.14596875,-0.07190625,-0.3346875,1.37053125,0.022953364983298738,0.020713744526203594,True
36370,70330,0,70328,3003.0,39705.0,28045.0,-0.002196,-0.0008539999999999999,0.000488,0.29750000000000004,-1.2775,-3.7975000000000003,1.17421875,0.47915625,0.16971875,1.40159375,1.13940625,-0.07265625,-0.33609375,1.36584375,0.022922792327913544,0.02078445724265013,True
36371,70331,0,70329,3004.0,39705.0,28046.0,-0.003111,-6.1e-05,0.0008539999999999999,0.29750000000000004,-1.3825,-3.6925000000000003,1.1738125,0.47900000000000004,0.1691875,1.4055312500000001,1.1455312500000001,-0.07221875,-0.33718750000000003,1.3682812500000001,0.02289854357525727,0.020806635935232864,True
36372,70332,0,70330,3004.0,39705.0,28044.0,-0.0026839999999999998,0.001281,0.0,0.35000000000000003,-1.6800000000000002,-3.6400000000000006,1.17375,0.47750000000000004,0.16984375000000002,1.4053125,1.1416250000000001,-0.0753125,-0.33334375,1.37390625,0.02296179956127257,0.020678929503882917,True
36373,70333,0,70331,3005.0,39706.0,28048.0,0.0025009999999999998,0.0008539999999999999,-0.0006709999999999999,0.1925,-2.1350000000000002,-3.3950000000000005,1.1736875,0.48131250000000003,0.16675,1.399125,1.13896875,-0.07540625000000001,-0.33237500000000003,1.3690625,0.023123960784670043,0.02051279416826348,True
36374,70334,0,70332,3005.0,39706.0,28047.0,0.0042699999999999995,-0.000244,-0.0011589999999999999,0.29750000000000004,-2.24,-3.3600000000000003,1.17403125,0.47725,0.17059375000000002,1.4039062500000001,1.14525,-0.07284375,-0.3334375,1.373625,0.02285121590588981,0.02071352434278963,True
36375,70335,0,70333,3004.0,39709.0,28050.0,0.005612,0.000488,-0.001952,0.29750000000000004,-2.3800000000000003,-3.4475000000000002,1.1735,0.4796875,0.1695625,1.40503125,1.14125,-0.07271875,-0.334125,1.37053125,0.02294739766358962,0.020698812881087776,True
36376,70336,0,70334,3005.0,39712.0,28052.0,0.0066489999999999995,0.0,-0.002013,0.29750000000000004,-1.995,-3.3950000000000005,1.17390625,0.47915625,0.1695625,1.40428125,1.1419062500000001,-0.0725625,-0.33387500000000003,1.368125,0.02291898712486467,0.020688751791484095,True
36377,70337,0,70335,3003.0,39712.0,28053.0,0.0048189999999999995,-0.000488,-0.001403,0.24500000000000002,-1.5225000000000002,-3.3950000000000005,1.1738125,0.4804375,0.170625,1.4041875,1.1389375,-0.07234375,-0.33521875,1.36859375,0.02296333318188014,0.020786488718125867,True
36378,70338,0,70336,3005.0,39710.0,28053.0,0.000183,-6.1e-05,0.0008539999999999999,0.21000000000000002,-0.31500000000000006,-3.43,1.1731875,0.478625,0.17009375000000002,1.401875,1.14415625,-0.07271875,-0.33340625,1.3661875,0.02290326056337114,0.020691718817623408,True
36379,70339,0,70337,3006.0,39712.0,28053.0,-0.001281,-0.00042699999999999997,0.000793,0.12250000000000001,0.1925,-3.535,1.17453125,0.4809375,0.169625,1.39146875,1.13871875,-0.0755,-0.33246875,1.37515625,0.02311218873959004,0.02063472289469189,True
36380,70340,0,70338,3006.0,39711.0,28052.0,-0.004209,-0.000366,0.0018909999999999999,0.07,0.7175,-3.5000000000000004,1.1785625,0.481,0.17009375000000002,1.39940625,1.1391875,-0.07584375,-0.33215625,1.36696875,0.023128732508076687,0.020641409451741456,True
36381,70341,0,70339,3006.0,39711.0,28053.0,-0.0070149999999999995,-0.0006709999999999999,0.003904,0.052500000000000005,0.9625000000000001,-3.535,1.1755625,0.48290625000000004,0.16953125,1.40034375,1.13871875,-0.0776875,-0.33209375,1.3775625,0.02328270727826333,0.020615776231751533,True
36382,70342,0,70340,3007.0,39710.0,28050.0,-0.009821,0.000366,0.0018909999999999999,0.24500000000000002,1.0325000000000002,-3.5175000000000005,1.178375,0.48178125,0.16859375000000001,1.4000937500000001,1.139,-0.07834375,-0.330625,1.36659375,0.02326260501202455,0.020518122736263456,True
36383,70343,0,70341,3008.0,39709.0,28052.0,-0.006161,0.0011589999999999999,-0.0006709999999999999,0.29750000000000004,0.14,-3.4650000000000003,1.18075,0.48175,0.16765625,1.39946875,1.13309375,-0.07621875,-0.33046875000000003,1.37321875,0.023175098872201434,0.020473300581189995,True
36384,70344,0,70342,3008.0,39712.0,28051.0,-0.001403,-0.000488,0.0028669999999999998,0.3325,-0.49000000000000005,-3.4125000000000005,1.18703125,0.4815,0.17178125,1.3989375,1.13721875,-0.07453125000000001,-0.32925,1.37125,0.023096244085749333,0.02059378114820638,True
36385,70345,0,70343,3009.0,39711.0,28053.0,0.0051849999999999995,-0.000488,0.002806,0.31500000000000006,-0.9800000000000001,-3.3775000000000004,1.1696875,0.46950000000000003,0.1715,1.42265625,1.13659375,-0.07868750000000001,-0.3316875,1.3786562500000001,0.022766502534658502,0.020680337111842324,True
36386,70346,0,70344,3008.0,39713.0,28054.0,0.006893,-0.0017079999999999999,-0.00183,0.35000000000000003,-1.3650000000000002,-3.4650000000000003,1.1670625000000001,0.47021875,0.17484375,1.41703125,1.13171875,-0.0764375,-0.33125,1.37640625,0.022705030592669703,0.020800154122784485,True
36387,70347,0,70345,3009.0,39715.0,28055.0,0.0050019999999999995,0.00042699999999999997,-0.005429,0.35000000000000003,-1.3125000000000002,-3.43,1.1619375,0.46740625,0.177,1.40315625,1.1276875,-0.07640625,-0.3303125,1.3704687500000001,0.02258694650494195,0.020851047433114556,True
36388,70348,0,70346,3011.0,39715.0,28055.0,-0.000366,0.0006709999999999999,-0.000915,0.35000000000000003,-0.8400000000000001,-3.3425000000000002,1.17953125,0.4755625,0.17715625000000002,1.402875,1.13665625,-0.0768125,-0.330625,1.37790625,0.02294219801728323,0.020870045467389353,True
36389,70349,0,70347,3012.0,39715.0,28055.0,-0.0006709999999999999,-0.001098,0.001586,0.3325,-0.6475000000000001,-3.3600000000000003,1.1615625,0.47009375000000003,0.17584375,1.41640625,1.13621875,-0.0738125,-0.33103125,1.37678125,0.022593274330769172,0.020832450330275254,True
36390,70350,0,70348,3012.0,39713.0,28053.0,-0.0015249999999999999,-0.0025009999999999998,0.001098,0.3325,-0.47250000000000003,-3.43,1.1610625,0.470375,0.1751875,1.4192500000000001,1.136125,-0.073625,-0.3325625,1.3754375,0.022597344604312813,0.020867099385853828,True
36391,70351,0,70349,3012.0,39712.0,28053.0,-0.003721,-0.0011589999999999999,0.0011589999999999999,0.3325,-0.525,-3.4825000000000004,1.161375,0.47771875,0.17240625,1.39240625,1.13634375,-0.0756875,-0.33146875000000003,1.36459375,0.02298610371977955,0.02070877862644441,True
36392,70352,0,70350,3013.0,39714.0,28055.0,-0.003843,0.001586,-0.000305,0.24500000000000002,-0.6300000000000001,-3.5525,1.19290625,0.483375,0.1715625,1.39484375,1.14265625,-0.07309375,-0.3350625,1.3683125,0.023115797071159575,0.0208187260665552,True
36393,70353,0,70351,3013.0,39713.0,28055.0,-0.0015249999999999999,-0.000183,0.001403,0.36750000000000005,-1.4000000000000001,-3.5875000000000004,1.19125,0.4856875,0.16659375,1.408875,1.1468125,-0.06734375000000001,-0.33487500000000003,1.368625,0.022978491342651803,0.020606999214090888,True
36394,70354,0,70352,3014.0,39714.0,28058.0,0.0021349999999999997,-0.000732,0.000549,0.36750000000000005,-1.8025000000000002,-3.6575,1.1655,0.4791875,0.1710625,1.3995625,1.14028125,-0.0748125,-0.33384375,1.3610312500000001,0.02301160185567385,0.02074913668334868,True
36395,70355,0,70353,3015.0,39715.0,28058.0,0.00183,0.0008539999999999999,-0.000183,0.24500000000000002,-1.9600000000000002,-3.7100000000000004,1.181,0.481125,0.17246875,1.3955625,1.14625,-0.0735,-0.3325625,1.37009375,0.02303881861798243,0.02075536639431215,True
36396,70356,0,70354,3015.0,39715.0,28058.0,0.0034159999999999998,0.001464,-0.001464,0.3325,-2.1525000000000003,-3.6575,1.172625,0.48090625000000004,0.16768750000000002,1.3999375,1.141375,-0.0738125,-0.33171875,1.3686562500000001,0.023042413826227154,0.020524906404320493,True
36397,70357,0,70355,3016.0,39713.0,28060.0,0.0032329999999999998,0.00042699999999999997,-0.0023179999999999997,0.35000000000000003,-2.1875,-3.5525,1.174625,0.48175,0.16703125,1.399375,1.1421875000000001,-0.0734375,-0.3350625,1.36921875,0.023062244434348025,0.020632523544987815,True
36398,70358,0,70356,3017.0,39718.0,28061.0,0.0025009999999999998,-6.1e-05,-0.000305,0.36750000000000005,-1.7850000000000001,-3.5700000000000003,1.1795625,0.481,0.16915625,1.40515625,1.1436875,-0.0735625,-0.33546875,1.3595,0.023036162595378225,0.020736193955581808,True
36399,70359,0,70357,3018.0,39718.0,28062.0,-6.1e-05,-0.000976,0.000732,0.3325,-1.6450000000000002,-3.6050000000000004,1.17384375,0.4794375,0.1701875,1.40459375,1.14078125,-0.06878125,-0.33334375,1.3705625000000001,0.022777171154023428,0.020693056210164294,True
36400,70360,0,70358,3017.0,39722.0,28064.0,0.000183,6.1e-05,-0.000732,0.2625,-1.5750000000000002,-3.6225000000000005,1.1748750000000001,0.4805625,0.17496875,1.3993125,1.13909375,-0.07478125000000001,-0.3323125,1.3735625,0.023067447393732808,0.020848049276039834,True
36401,70361,0,70359,3017.0,39721.0,28062.0,0.000183,0.000732,-0.000915,0.24500000000000002,-1.3475000000000001,-3.5175000000000005,1.18,0.48159375,0.17025,1.39940625,1.13909375,-0.0714375,-0.3331875,1.3759375,0.022974583466400793,0.020689336323077276,True
36402,70362,0,70360,3017.0,39721.0,28065.0,-0.000549,-0.00042699999999999997,0.000122,0.31500000000000006,-1.2600000000000002,-3.5175000000000005,1.181,0.48171875000000003,0.1680625,1.40540625,1.138625,-0.07571875,-0.33428125000000003,1.36434375,0.023153514368080913,0.02064345952276688,True
36403,70363,0,70361,3020.0,39724.0,28067.0,-0.000366,-0.001647,0.0015249999999999999,0.14,-0.9275000000000001,-3.6400000000000006,1.173875,0.48381250000000003,0.17471875,1.3999375,1.14478125,-0.0760625,-0.33215625,1.3691875,0.02325442542774592,0.020831487139574816,True
36404,70364,0,70362,3018.0,39725.0,28066.0,-0.001952,-0.000305,0.001098,0.24500000000000002,-0.8925000000000001,-3.6050000000000004,1.173625,0.48021875,0.1725625,1.4039375,1.14728125,-0.0724375,-0.3328125,1.3685,0.022958051090588565,0.02076928016438708,True
36405,70365,0,70363,3020.0,39723.0,28066.0,-0.00244,0.000549,-0.000122,0.21000000000000002,-0.8750000000000001,-3.6225000000000005,1.17378125,0.4805625,0.16690625,1.399,1.1449375,-0.074875,-0.333625,1.36278125,0.023071251667973355,0.020569530844664532,True
36406,70366,0,70364,3021.0,39723.0,28067.0,-0.001586,0.000915,6.1e-05,0.24500000000000002,-0.9800000000000001,-3.7100000000000004,1.1738125,0.48128125,0.171125,1.3991875,1.1463125,-0.07253125,-0.3338125,1.37425,0.023005993605263262,0.02075044755111843,True
36407,70367,0,70365,3021.0,39723.0,28068.0,0.000122,0.000183,0.0008539999999999999,0.1925,-0.9625000000000001,-3.7975000000000003,1.18109375,0.48528125,0.170625,1.4041875,1.1389375,-0.073875,-0.33365625,1.369125,0.02322668245141258,0.02072361197261509,True
36408,70368,0,70366,3022.0,39725.0,28068.0,0.001403,-0.001098,-0.001281,0.14,-0.9450000000000001,-3.6400000000000006,1.1789687500000001,0.4806875,0.17225000000000001,1.40375,1.13434375,-0.07684375,-0.33515625,1.3691875,0.023156326293806682,0.02085074962278083,True
36409,70369,0,70367,3020.0,39725.0,28072.0,0.0,-0.0006709999999999999,-0.0013419999999999999,0.10500000000000001,-0.9800000000000001,-3.6925000000000003,1.1705625,0.47678125,0.1680625,1.399125,1.13859375,-0.073375,-0.3325,1.3744687500000001,0.022853307855670427,0.02057176615637522,True
36410,70370,0,70368,3022.0,39725.0,28070.0,-0.001403,0.000976,0.000549,0.17500000000000002,-1.155,-3.6400000000000006,1.176375,0.47853125,0.169875,1.40546875,1.13903125,-0.073125,-0.33321875,1.36853125,0.022915855336604615,0.02067518297389243,True
36411,70371,0,70369,3025.0,39727.0,28073.0,-0.0011589999999999999,0.000366,0.000122,0.24500000000000002,-1.225,-3.7100000000000004,1.1736875,0.4774375,0.167625,1.39928125,1.12765625,-0.07540625000000001,-0.33271875,1.37253125,0.022963008152770012,0.0205625912640773,True
36412,70372,0,70370,3025.0,39727.0,28073.0,-0.0015249999999999999,-0.000732,-0.000305,0.22750000000000004,-1.3650000000000002,-3.6575,1.17840625,0.4861875,0.16884375000000001,1.3978125000000001,1.140875,-0.07353125,-0.3315,1.36859375,0.023250380020587966,0.02056362123173664,True
36413,70373,0,70371,3023.0,39727.0,28072.0,0.000183,-0.000183,6.1e-05,0.24500000000000002,-1.5225000000000002,-3.6050000000000004,1.17396875,0.47828125,0.17071875,1.40034375,1.1436250000000001,-0.07209375,-0.33265625,1.37559375,0.022863611521120798,0.020687219464582705,True
36414,70374,0,70372,3024.0,39725.0,28073.0,6.1e-05,-0.000488,-0.000549,0.15750000000000003,-1.6625,-3.6225000000000005,1.1806875000000001,0.48131250000000003,0.16815625,1.40346875,1.13928125,-0.07571875,-0.335,1.3690625,0.02313664052085673,0.020676237928908978,True
36415,70375,0,70373,3025.0,39727.0,28072.0,0.000915,-0.00061,0.000915,0.22750000000000004,-1.8025000000000002,-3.6575,1.1738125,0.48028125,0.16878125,1.398875,1.14525,-0.07453125000000001,-0.33340625,1.383,0.0230456200471193,0.020637780623088887,True
36416,70376,0,70374,3025.0,39727.0,28075.0,-0.000183,0.000793,-6.1e-05,0.2625,-1.8375000000000001,-3.7800000000000002,1.181125,0.48153125,0.1681875,1.3995312500000001,1.13796875,-0.083,-0.32990625,1.3675,0.02344106838848981,0.0204724894901722,True
36417,70377,0,70375,3025.0,39727.0,28075.0,0.0008539999999999999,0.0006709999999999999,-6.1e-05,0.21000000000000002,-2.2925000000000004,-3.6400000000000006,1.1723125,0.48165625,0.16859375000000001,1.4073125,1.14128125,-0.0750625,-0.336375,1.3643125,0.02312429095459254,0.0207495467176192,True
36418,70378,0,70376,3026.0,39728.0,28075.0,0.002623,-0.000122,-0.000244,0.22750000000000004,-2.24,-3.6575,1.17390625,0.48462500000000003,0.1713125,1.399375,1.12978125,-0.07734375,-0.32665625,1.38146875,0.023340147311723288,0.02047008618375162,True
36419,70379,0,70377,3027.0,39729.0,28078.0,0.0023179999999999997,-0.000122,-0.000366,0.2625,-2.1700000000000004,-3.5875000000000004,1.18128125,0.4811875,0.16709375,1.3990625,1.13271875,-0.0818125,-0.32896875000000003,1.3721875000000001,0.023378638962495032,0.020389787380527588,True
36420,70380,0,70378,3028.0,39729.0,28080.0,0.002745,0.000976,-0.000183,0.29750000000000004,-1.9600000000000002,-3.5175000000000005,1.173375,0.47828125,0.16878125,1.4066875,1.1503125,-0.07196875,-0.3393125,1.3624687500000001,0.022858537484600216,0.020875435573621894,True
36421,70381,0,70379,3028.0,39731.0,28078.0,0.00042699999999999997,0.000488,-0.0006709999999999999,0.24500000000000002,-2.0125,-3.6050000000000004,1.17396875,0.47850000000000004,0.16921875,1.40565625,1.15240625,-0.07087500000000001,-0.34053125,1.3631875,0.022823225163189957,0.020942435264226206,True
36422,70382,0,70380,3027.0,39730.0,28080.0,-0.00042699999999999997,-0.001098,-0.0013419999999999999,0.21000000000000002,-1.6625,-3.6925000000000003,1.1709375,0.48384375,0.17075,1.3974375,1.152625,-0.06425,-0.339125,1.36365625,0.02277626562224046,0.020948781026433782,True
36423,70383,0,70381,3029.0,39731.0,28080.0,-0.002013,-0.000366,-0.000549,0.15750000000000003,-1.6450000000000002,-3.7275000000000005,1.1753125,0.48096875,0.16828125,1.3997187500000001,1.1405,-0.07796875,-0.32971875,1.382875,0.0232136483689057,0.020468793951841303,True
36424,70384,0,70382,3028.0,39731.0,28080.0,-0.0028669999999999998,-0.000244,0.000915,0.3325,-1.6800000000000002,-3.6400000000000006,1.1809375,0.48131250000000003,0.1698125,1.40528125,1.13253125,-0.07921875,-0.334125,1.36340625,0.023278631081002164,0.02070908651944543,True
36425,70385,0,70383,3031.0,39732.0,28080.0,-0.0021349999999999997,0.000549,0.001281,0.31500000000000006,-1.9425000000000001,-3.6400000000000006,1.16859375,0.48003125,0.1670625,1.3941875000000001,1.1420000000000001,-0.07365625,-0.32965625,1.3731875,0.022999726101015503,0.02041618446623141,True
36426,70386,0,70384,3029.0,39730.0,28083.0,-0.001037,0.00042699999999999997,0.000183,0.29750000000000004,-2.0650000000000004,-3.7800000000000002,1.18109375,0.48071875000000003,0.1693125,1.39915625,1.1340625,-0.0754375,-0.33037500000000003,1.36740625,0.023100566708289312,0.020537599605431486,True
36427,70387,0,70385,3030.0,39733.0,28082.0,-0.000976,0.000488,0.0,0.31500000000000006,-2.5725000000000002,-3.7800000000000002,1.1788125,0.481625,0.16990625,1.4038125000000001,1.14565625,-0.07215625,-0.33571875,1.3690625,0.02300505381606602,0.020777072795517902,True
36428,70388,0,70386,3029.0,39731.0,28084.0,-6.1e-05,-0.000976,0.0,0.24500000000000002,-2.8175000000000003,-3.6925000000000003,1.17446875,0.4806875,0.168375,1.3995312500000001,1.13925,-0.0763125,-0.33225,1.368875,0.023134771988027648,0.020574546127053603,True
36429,70389,0,70387,3030.0,39733.0,28086.0,0.002196,-0.0006709999999999999,0.000122,0.31500000000000006,-3.1325000000000003,-3.6575,1.1738125,0.48040625000000003,0.16990625,1.4055312500000001,1.1455625,-0.07384375,-0.331125,1.3742812500000001,0.023022912574980885,0.0205921941546065,True
36430,70390,0,70388,3030.0,39733.0,28087.0,0.004026,6.1e-05,-0.000732,0.24500000000000002,-3.2900000000000005,-3.7100000000000004,1.1731562500000001,0.4810625,0.16821875,1.3999062500000001,1.13859375,-0.07646875,-0.332,1.36953125,0.023156686962244,0.020558061400624692,True
36431,70391,0,70389,3032.0,39735.0,28090.0,0.002013,0.00122,-0.0013419999999999999,0.28,-3.2725000000000004,-3.7975000000000003,1.1800625,0.47865625,0.17,1.40328125,1.145875,-0.074,-0.33075,1.37025,0.02295656102018775,0.02058095208737914,True
36432,70392,0,70390,3033.0,39737.0,28091.0,0.0032329999999999998,0.000488,0.00042699999999999997,0.3325,-3.3775000000000004,-3.7975000000000003,1.1761875,0.482,0.17025,1.3981875000000001,1.13165625,-0.076,-0.332,1.3664375,0.023176607409868745,0.020641542002301498,True
36433,70393,0,70391,3033.0,39736.0,28091.0,0.004331,-0.0013419999999999999,0.00061,0.3325,-3.1500000000000004,-3.7450000000000006,1.17340625,0.47975,0.1715625,1.38903125,1.14659375,-0.07409375,-0.33403125,1.3765625000000001,0.02300579850487622,0.02077722942021783,True
36434,70394,0,70392,3035.0,39737.0,28093.0,0.007686,-0.000732,-0.001403,0.24500000000000002,-2.8525000000000005,-3.7275000000000005,1.18215625,0.48,0.17115625,1.40721875,1.13978125,-0.0701875,-0.33546875,1.36890625,0.022857632496630944,0.020818378524144927,True
36435,70395,0,70393,3034.0,39737.0,28096.0,0.0070149999999999995,6.1e-05,-0.002013,0.1925,-2.1700000000000004,-3.6575,1.17415625,0.4799375,0.16440625,1.398875,1.13946875,-0.0776875,-0.3320625,1.36859375,0.02315940847724683,0.020403890956633867,True
36436,70396,0,70394,3035.0,39740.0,28098.0,0.002745,-0.000488,-0.001952,0.24500000000000002,-1.4525000000000001,-3.5875000000000004,1.1732500000000001,0.47790625000000003,0.17090625,1.4028125,1.145375,-0.074,-0.33337500000000003,1.3758125,0.022925407078175624,0.02072385150025428,True
36437,70397,0,70395,3037.0,39738.0,28096.0,-0.002379,0.0013419999999999999,-6.1e-05,0.2625,0.07,-3.6400000000000006,1.1809687500000001,0.4811875,0.16928125,1.40796875,1.1370625,-0.0721875,-0.33590625,1.36671875,0.022988147628876687,0.020758935163961687,True
36438,70398,0,70396,3037.0,39737.0,28096.0,-0.004758,-0.000122,0.001586,0.31500000000000006,0.665,-3.6050000000000004,1.18465625,0.48146875,0.1711875,1.40821875,1.13934375,-0.074875,-0.3344375,1.375,0.02310889464638965,0.020778166744146027,True
36439,70399,0,70397,3037.0,39738.0,28094.0,-0.007686,-0.000366,0.003721,0.1925,1.2075,-3.5700000000000003,1.1831875,0.48253125,0.171375,1.3979375,1.139,-0.074,-0.33746875,1.37578125,0.02311752305391709,0.020907833728600063,True
36440,70400,0,70398,3038.0,39738.0,28093.0,-0.009455,-0.0013419999999999999,0.0006709999999999999,0.17500000000000002,1.2425000000000002,-3.5875000000000004,1.18584375,0.479375,0.17134375000000002,1.39915625,1.1391875,-0.07303125,-0.33387500000000003,1.37440625,0.022947099775812402,0.020761952216817096,True
36441,70401,0,70399,3036.0,39737.0,28092.0,-0.00976,-0.0015249999999999999,0.001586,0.1925,0.9975,-3.6050000000000004,1.18653125,0.48175,0.169875,1.4080625,1.138625,-0.07415625,-0.3356875,1.36515625,0.023091411562970145,0.020774531231139454,True
36442,70402,0,70400,3035.0,39738.0,28091.0,-0.0030499999999999998,-0.000366,0.000305,0.3325,-0.12250000000000001,-3.6225000000000005,1.18425,0.481625,0.16471875,1.40678125,1.1389375,-0.0739375,-0.334125,1.36909375,0.023077342458000485,0.020499761137908187,True
36443,70403,0,70401,3035.0,39735.0,28087.0,0.00061,0.00042699999999999997,0.00042699999999999997,0.31500000000000006,-0.6125,-3.5000000000000004,1.16209375,0.4805,0.1714375,1.4028125,1.13996875,-0.0759375,-0.33296875,1.3720625,0.023111768752514833,0.020729334557666745,True
36444,70404,0,70402,3031.0,39732.0,28085.0,0.003843,-0.000183,-0.000122,0.3325,-1.0325000000000002,-3.4475000000000002,1.17328125,0.47950000000000004,0.168375,1.39775,1.13965625,-0.076,-0.33184375,1.369,0.02307276956305034,0.020558193416805905,True
36445,70405,0,70403,3030.0,39733.0,28086.0,0.005124,0.001464,-0.001586,0.31500000000000006,-1.3650000000000002,-3.5175000000000005,1.16703125,0.47721875,0.17115625,1.4000937500000001,1.1419375,-0.07384375,-0.3335625,1.37328125,0.022890507462066584,0.020741671097275625,True
36446,70406,0,70404,3028.0,39732.0,28084.0,0.0051849999999999995,6.1e-05,-0.001586,0.29750000000000004,-1.4525000000000001,-3.6050000000000004,1.1804375,0.48453125,0.1694375,1.4033437500000001,1.13015625,-0.0736875,-0.3335,1.36853125,0.02318792042141446,0.020668522818336862,True
36447,70407,0,70405,3024.0,39729.0,28082.0,0.002745,-0.000183,-0.001037,0.28,-1.3825,-3.535,1.1768750000000001,0.48365625,0.170625,1.4056875,1.1386875,-0.0764375,-0.3334375,1.36953125,0.02326314887740348,0.020714808583867362,True
36448,70408,0,70406,3023.0,39725.0,28077.0,0.0011589999999999999,0.000549,0.000976,0.36750000000000005,-1.0325000000000002,-3.5875000000000004,1.17428125,0.4841875,0.1723125,1.40646875,1.13925,-0.07846875,-0.32840625,1.36959375,0.02336760928786221,0.020581650308474274,True
36449,70409,0,70407,3020.0,39724.0,28077.0,-0.001403,0.000366,-6.1e-05,0.29750000000000004,-0.7525000000000001,-3.6575,1.1758125,0.4805,0.16915625,1.404875,1.13903125,-0.0854375,-0.3288125,1.36,0.023497082002351004,0.02046827193065835,True
36450,70410,0,70408,3019.0,39721.0,28071.0,-0.001647,0.000305,0.00122,0.42000000000000004,-0.7000000000000001,-3.7625,1.1800625,0.48081250000000003,0.17053125,1.399125,1.13765625,-0.0879375,-0.33821875,1.3670625,0.023611403010324154,0.020903337472057196,True
36451,70411,0,70409,3017.0,39717.0,28069.0,-0.0046359999999999995,0.00061,0.0015249999999999999,0.42000000000000004,-0.56,-3.7100000000000004,1.17459375,0.480375,0.1695,1.4068125,1.125125,-0.08778125,-0.33575,1.35825,0.0235869067434345,0.020761636686767407,True
36452,70412,0,70410,3013.0,39713.0,28065.0,-0.002745,-0.0006709999999999999,0.000244,0.28,-0.805,-3.7625,1.1791875,0.47990625000000003,0.16915625,1.406625,1.1374375,-0.08425,-0.326125,1.3581875,0.023424281428734546,0.020360055290351422,True
36453,70413,0,70411,3011.0,39712.0,28064.0,-0.001037,-0.000732,0.000488,0.36750000000000005,-1.1375000000000002,-3.7100000000000004,1.17471875,0.48453125,0.1686875,1.4053437500000001,1.14978125,-0.08553125,-0.3258125,1.35971875,0.023668255189513415,0.02032820075382888,True
36454,70414,0,70412,3009.0,39710.0,28066.0,0.0026839999999999998,0.000122,-0.0017079999999999999,0.29750000000000004,-1.3650000000000002,-3.7450000000000006,1.17840625,0.48084375,0.17203125,1.40475,1.139375,-0.08271875000000001,-0.32646875000000003,1.35740625,0.023401116204955056,0.020492082312604458,True
36455,70415,0,70413,3006.0,39711.0,28065.0,0.0034159999999999998,-0.000549,-0.001098,0.22750000000000004,-1.3650000000000002,-3.7275000000000005,1.174125,0.48031250000000003,0.16803125,1.40575,1.14828125,-0.08659375,-0.3251875,1.3603750000000001,0.023536173519761384,0.020276051315123472,True
36456,70416,0,70414,3006.0,39711.0,28064.0,0.0028669999999999998,-0.000183,0.00042699999999999997,0.24500000000000002,-1.2775,-3.7975000000000003,1.181,0.48059375,0.16990625,1.39940625,1.138375,-0.08684375,-0.3433125,1.38025,0.023557984843904676,0.02108253550127987,True
36457,70417,0,70415,3005.0,39710.0,28064.0,0.000793,-0.0006709999999999999,-0.000549,0.17500000000000002,-0.9800000000000001,-3.6050000000000004,1.182,0.476375,0.17140625,1.39959375,1.1268125,-0.0703125,-0.33446875,1.3831875,0.0227121064589419,0.020788413554333293,True
36458,70418,0,70416,3005.0,39709.0,28065.0,0.000488,-0.000976,-0.001403,0.1925,-0.7175,-3.6400000000000006,1.17971875,0.47896875,0.1700625,1.40459375,1.13878125,-0.07146875,-0.33821875,1.3740937500000001,0.022866801594730275,0.020884077640234047,True
36459,70419,0,70417,3002.0,39708.0,28062.0,-0.001769,-6.1e-05,-0.000122,0.2625,-0.665,-3.6575,1.18178125,0.479875,0.17259375,1.40440625,1.126875,-0.07671875,-0.33384375,1.367125,0.02311750848524573,0.020812063445586972,True
36460,70420,0,70418,3003.0,39702.0,28060.0,-0.005063,6.1e-05,0.000793,0.24500000000000002,-0.6300000000000001,-3.6750000000000003,1.18040625,0.480375,0.16718750000000002,1.3966875,1.1305,-0.07384375,-0.3349375,1.3686562500000001,0.023021614485638588,0.02063391368890921,True
36461,70421,0,70419,3001.0,39707.0,28062.0,-0.004148,-0.000122,0.002196,0.3325,-0.805,-3.6575,1.17415625,0.47775,0.1694375,1.4046875,1.13525,-0.0725,-0.33387500000000003,1.37278125,0.022858033025236264,0.020683614919530902,True
36462,70422,0,70420,3001.0,39703.0,28061.0,0.000122,0.001647,0.000122,0.4025,-1.1900000000000002,-3.7625,1.17796875,0.48515625,0.16628125,1.40365625,1.1395,-0.07553125000000001,-0.33453125,1.3690625,0.02328868651652287,0.020580322458440613,True
36463,70423,0,70421,3000.0,39703.0,28058.0,0.0018909999999999999,0.001952,-0.0028669999999999998,0.35000000000000003,-1.3475000000000001,-3.6575,1.173375,0.47831250000000003,0.170625,1.40365625,1.13975,-0.07728125,-0.333125,1.3760625,0.02307543547924457,0.020702232039657875,True
36464,70424,0,70422,2999.0,39703.0,28059.0,0.003294,0.0006709999999999999,-0.003721,0.3325,-1.435,-3.535,1.1778125,0.48015625,0.16796875,1.399375,1.1385,-0.07865625,-0.332625,1.3705625000000001,0.02320779424723919,0.020572944760378298,True
36465,70425,0,70423,2998.0,39703.0,28060.0,0.0037819999999999998,0.0,0.000793,0.28,-1.1725,-3.5000000000000004,1.17903125,0.48034375,0.16934375000000002,1.40425,1.14528125,-0.067,-0.33284375,1.36803125,0.022742500103876677,0.020638257704671287,True
36466,70426,0,70424,2998.0,39706.0,28061.0,0.002257,-0.000549,0.000183,0.2625,-0.9450000000000001,-3.535,1.1740625,0.4771875,0.17084375000000002,1.4000937500000001,1.1389375,-0.07653125,-0.332625,1.371375,0.02299827762772098,0.02069109888472781,True
36467,70427,0,70425,2999.0,39707.0,28061.0,-0.0018909999999999999,-0.00122,-0.000244,0.1925,-0.22750000000000004,-3.5000000000000004,1.17284375,0.478625,0.172375,1.4000000000000001,1.1465,-0.07396875,-0.32959375,1.3639375,0.022953994654495845,0.020632023500186888,True
36468,70428,0,70426,2999.0,39706.0,28066.0,-0.0046359999999999995,0.000732,0.000488,0.36750000000000005,-0.14,-3.5700000000000003,1.1784375,0.47621875,0.17059375000000002,1.39871875,1.14453125,-0.0738125,-0.3334375,1.37575,0.02284770017212687,0.02071352434278963,True
36469,70429,0,70427,3000.0,39707.0,28065.0,-0.005795,0.000732,0.0018909999999999999,0.29750000000000004,-0.035,-3.6225000000000005,1.19234375,0.48171875000000003,0.1696875,1.4157187500000001,1.14521875,-0.07359375,-0.33121875,1.37759375,0.023067287159815927,0.020586977378599252,True
36470,70430,0,70428,2998.0,39708.0,28064.0,-0.005246,-0.000976,0.001464,0.2625,-0.24500000000000002,-3.5700000000000003,1.17059375,0.48462500000000003,0.16903125,1.39471875,1.127625,-0.0745625,-0.33446875,1.3688437500000001,0.023227317215006506,0.0206908153686322,True
36471,70431,0,70429,3000.0,39707.0,28063.0,-0.0018909999999999999,-0.001464,0.000549,0.2625,-0.5425000000000001,-3.6400000000000006,1.18884375,0.483875,0.16790625,1.4118125000000001,1.14775,-0.07434375,-0.337,1.36384375,0.023187288334702787,0.020746445741052718,True
36472,70432,0,70430,2998.0,39709.0,28061.0,-0.00042699999999999997,0.000732,0.001281,0.3325,-1.2075,-3.6750000000000003,1.16765625,0.4743125,0.165875,1.3940000000000001,1.13884375,-0.0730625,-0.333,1.3686875,0.022738070820860455,0.02050199317798874,True
36473,70433,0,70431,2999.0,39709.0,28064.0,0.002013,6.1e-05,-0.00061,0.35000000000000003,-1.4175000000000002,-3.5700000000000003,1.172,0.47553125,0.17378125,1.39475,1.14184375,-0.0765,-0.33303125,1.3686562500000001,0.022928218387224055,0.020828169527789514,True
36474,70434,0,70432,3000.0,39711.0,28065.0,0.00366,-0.000549,-0.001464,0.3325,-1.4875,-3.5525,1.171375,0.47665625,0.1724375,1.4117187500000001,1.14096875,-0.07703125,-0.32778125,1.37315625,0.022996502112360716,0.02056162643274343,True
36475,70435,0,70433,2998.0,39711.0,28066.0,0.003904,-0.000305,-0.0006709999999999999,0.31500000000000006,-1.6625,-3.535,1.1854375,0.48228125,0.16809375000000001,1.4088125,1.14178125,-0.07465625000000001,-0.3375625,1.3643750000000001,0.02313376748629588,0.020776782802304054,True
36476,70436,0,70434,3000.0,39708.0,28066.0,0.0006709999999999999,0.0018909999999999999,-0.000244,0.45500000000000007,-1.6800000000000002,-3.5000000000000004,1.1543125,0.47821875,0.16603125,1.38634375,1.1295625,-0.07546875,-0.33271875,1.36121875,0.0229979945873328,0.02049709303445592,True
36477,70437,0,70435,3000.0,39711.0,28067.0,-0.000183,0.0013419999999999999,0.001037,0.385,-1.4175000000000002,-3.6400000000000006,1.177125,0.47275,0.174125,1.39671875,1.1460625,-0.07709375,-0.33334375,1.36928125,0.022836798980358664,0.020854871209387324,True
36478,70438,0,70436,3000.0,39711.0,28067.0,0.000183,-0.000366,0.0006709999999999999,0.29750000000000004,-1.0850000000000002,-3.6575,1.18190625,0.48190625000000004,0.16828125,1.405875,1.14434375,-0.07521875,-0.33628125000000003,1.3680625,0.02314101507385058,0.020732933467392436,True
36479,70439,0,70437,2999.0,39711.0,28067.0,-0.000366,-0.000488,-0.000305,0.385,-0.9800000000000001,-3.6925000000000003,1.16721875,0.4785625,0.16821875,1.3964375,1.1368125,-0.077125,-0.33284375,1.36803125,0.023079478966031037,0.020592023897741094,True
36480,70440,0,70438,2999.0,39710.0,28066.0,-0.0008539999999999999,0.000122,-0.000732,0.35000000000000003,-0.9625000000000001,-3.7975000000000003,1.17603125,0.479125,0.17053125,1.39915625,1.14575,-0.0721875,-0.3335,1.374875,0.022902467837623813,0.020713471140608626,True
36481,70441,0,70439,2999.0,39710.0,28067.0,-0.002806,-0.000793,0.0008539999999999999,0.3325,-0.8925000000000001,-3.5525,1.18234375,0.4791875,0.1705625,1.40059375,1.14303125,-0.07384375,-0.33353125,1.3739375,0.0229722870906313,0.020716013011880467,True
36482,70442,0,70440,2999.0,39712.0,28066.0,-0.0023179999999999997,-0.00061,0.001037,0.28,-1.1025,-3.6225000000000005,1.1804375,0.48071875000000003,0.169875,1.405875,1.1396875,-0.07371875,-0.33340625,1.3743750000000001,0.023030820695286225,0.02068272911853432,True
36483,70443,0,70441,2999.0,39710.0,28064.0,-0.000976,-0.001281,0.000183,0.3325,-1.33,-3.6050000000000004,1.1763125,0.4794375,0.16690625,1.3999375,1.13928125,-0.07653125,-0.3344375,1.36834375,0.023091729627788472,0.02060223294662143,True
36484,70444,0,70442,3000.0,39712.0,28068.0,-0.000915,0.000183,-0.000488,0.29750000000000004,-1.5050000000000001,-3.5700000000000003,1.17396875,0.480875,0.1705625,1.3991875,1.14715625,-0.07425,-0.3344375,1.36925,0.02305886995441187,0.020752482978084043,True
36485,70445,0,70443,3001.0,39713.0,28068.0,-0.000183,-0.000122,6.1e-05,0.35000000000000003,-1.6275000000000002,-3.4825000000000004,1.18065625,0.47996875,0.17071875,1.4057187500000001,1.13265625,-0.073875,-0.33215625,1.372625,0.023006007549677812,0.020667095625772992,True
36486,70446,0,70444,3002.0,39712.0,28067.0,0.0025009999999999998,0.000244,0.000305,0.36750000000000005,-1.9250000000000003,-3.6400000000000006,1.17396875,0.47971875,0.16703125,1.38875,1.138875,-0.078,-0.33684375,1.36925,0.023163001495140795,0.02070420491564359,True
36487,70447,0,70445,3002.0,39713.0,28071.0,0.003843,-0.001281,-0.000183,0.24500000000000002,-1.7850000000000001,-3.4825000000000004,1.1690625000000001,0.47915625,0.16734375,1.40028125,1.146125,-0.07684375,-0.3335625,1.37,0.02309272784145555,0.020584994490634077,True
36488,70448,0,70446,3001.0,39713.0,28072.0,0.0048189999999999995,-0.000244,-0.0032329999999999998,0.2625,-1.6800000000000002,-3.5700000000000003,1.1779375,0.48090625000000004,0.169875,1.405,1.1474375,-0.07475,-0.337375,1.362875,0.023080457740994195,0.02084242856922737,True
36489,70449,0,70447,3003.0,39716.0,28072.0,0.002745,-0.000366,-0.0015249999999999999,0.17500000000000002,-1.4175000000000002,-3.6225000000000005,1.16871875,0.47915625,0.170375,1.39946875,1.13846875,-0.076875,-0.33146875000000003,1.37171875,0.023093995794720035,0.02062529620206343,True
36490,70450,0,70448,3003.0,39716.0,28074.0,-0.0008539999999999999,0.001037,0.00244,0.22750000000000004,-1.155,-3.7100000000000004,1.18065625,0.47978125,0.167,1.4028125,1.1433125,-0.07540625000000001,-0.33437500000000003,1.36453125,0.023060358534967604,0.020603570052651857,True
36491,70451,0,70449,3004.0,39717.0,28074.0,-0.0028669999999999998,-0.000793,0.00061,0.24500000000000002,-0.805,-3.6050000000000004,1.17425,0.47740625000000003,0.16953125,1.403,1.14421875,-0.07353125,-0.33528125000000003,1.37165625,0.022885612180390032,0.02074405858777572,True
36492,70452,0,70450,3003.0,39718.0,28076.0,-0.002379,0.000122,-0.00042699999999999997,0.31500000000000006,-0.7175,-3.6750000000000003,1.17321875,0.47831250000000003,0.16975,1.4003125,1.13784375,-0.07503125000000001,-0.33359375,1.374,0.022984134236585883,0.02068513821555848,True
36493,70453,0,70451,3005.0,39719.0,28076.0,-0.003172,0.00042699999999999997,0.0,0.35000000000000003,-0.6825000000000001,-3.6750000000000003,1.180375,0.480125,0.16803125,1.39925,1.127125,-0.07484375,-0.33571875,1.3673125,0.02305181108392448,0.02070002555400177,True
36494,70454,0,70452,3004.0,39719.0,28074.0,-0.002745,0.000244,0.000549,0.3325,-0.805,-3.6575,1.1764375,0.4834375,0.169375,1.40290625,1.14559375,-0.074,-0.33590625,1.3688125,0.023155167400515077,0.020762787496356336,True
36495,70455,0,70453,3006.0,39718.0,28074.0,-0.001281,-0.000244,0.000793,0.43750000000000006,-1.0325000000000002,-3.6575,1.17403125,0.48278125,0.170125,1.39815625,1.13865625,-0.07628125,-0.33287500000000003,1.37240625,0.02322046723889305,0.020671622239459987,True
36496,70456,0,70454,3006.0,39718.0,28073.0,-6.1e-05,0.0,0.000122,0.29750000000000004,-1.4000000000000001,-3.7625,1.17884375,0.48081250000000003,0.16821875,1.3995,1.13265625,-0.076,-0.332625,1.3726562500000001,0.023127284432630006,0.020583219032060868,True
36497,70457,0,70455,3007.0,39718.0,28074.0,0.001586,0.000366,-6.1e-05,0.22750000000000004,-1.6625,-3.8150000000000004,1.1778125,0.4795625,0.1680625,1.3993125,1.13884375,-0.074625,-0.3335625,1.36796875,0.023019569359855035,0.02061453188368945,True
36498,70458,0,70456,3008.0,39719.0,28074.0,0.000549,0.000549,-0.000122,0.22750000000000004,-1.8375000000000001,-3.7450000000000006,1.1773125,0.480375,0.1678125,1.40003125,1.1383125,-0.0743125,-0.33290625,1.35890625,0.02304063719368933,0.020577844046064164,True
36499,70459,0,70457,3008.0,39719.0,28076.0,0.0008539999999999999,-0.000244,0.000366,0.2625,-1.8725000000000003,-3.7975000000000003,1.177375,0.4799375,0.16953125,1.40396875,1.14809375,-0.07475,-0.33718750000000003,1.36771875,0.023040218486173273,0.020820760410380206,True
36500,70460,0,70458,3009.0,39719.0,28078.0,0.00042699999999999997,-0.000244,-0.000183,0.28,-1.8900000000000001,-3.7975000000000003,1.1731875,0.47878125,0.1695625,1.40228125,1.150875,-0.07396875,-0.33871875,1.3682812500000001,0.022960485067506784,0.020883648610303285,True
36501,70461,0,70459,3010.0,39719.0,28077.0,0.000976,0.000366,0.000183,0.31500000000000006,-1.9600000000000002,-3.7450000000000006,1.17396875,0.47981250000000003,0.17096875,1.40659375,1.149,-0.0736875,-0.3385625,1.3663125,0.02299190765851721,0.02093514150640573,True
36502,70462,0,70460,3009.0,39722.0,28078.0,0.000976,-6.1e-05,0.000366,0.36750000000000005,-1.9600000000000002,-3.6750000000000003,1.1656250000000001,0.47465625,0.1700625,1.42265625,1.1324375,-0.0745,-0.3336875,1.37684375,0.022810702195268852,0.020701753484752363,True
36503,70463,0,70461,3009.0,39722.0,28079.0,0.001769,-0.00183,-0.00061,0.31500000000000006,-1.7500000000000002,-3.7450000000000006,1.175875,0.46928125,0.17115625,1.425625,1.1362812500000001,-0.07528125000000001,-0.32815625,1.37878125,0.02261915424144837,0.020524058414825415,True
36504,70464,0,70462,3011.0,39724.0,28078.0,0.001647,-0.000305,-0.000793,0.21000000000000002,-1.61,-3.6575,1.1671875,0.47221875,0.1766875,1.418625,1.13621875,-0.07684375,-0.33278125000000003,1.3794375,0.022804587914476957,0.020937546956330773,True
36505,70465,0,70463,3010.0,39724.0,28078.0,0.00042699999999999997,-0.000488,-0.001647,0.21000000000000002,-1.4525000000000001,-3.7450000000000006,1.1620625,0.46640625,0.1748125,1.419125,1.1363125,-0.07843750000000001,-0.33196875000000003,1.37959375,0.022627869852435402,0.020827794709377966,True
36506,70466,0,70464,3011.0,39723.0,28082.0,-0.003111,0.0,0.000976,0.29750000000000004,-1.3125000000000002,-3.7450000000000006,1.1628125,0.47731250000000003,0.17515625,1.40696875,1.13678125,-0.07790625,-0.32971875,1.3800000000000001,0.023059262056890847,0.02075137017356602,True
36507,70467,0,70465,3012.0,39724.0,28081.0,-0.0035989999999999998,-6.1e-05,0.000793,0.385,-1.2950000000000002,-3.8150000000000004,1.15359375,0.473375,0.17478125,1.41828125,1.13603125,-0.07821875,-0.332125,1.37884375,0.02290841177776076,0.020832798204020404,True
36508,70468,0,70466,3012.0,39725.0,28081.0,-0.003904,0.0006709999999999999,0.000305,0.36750000000000005,-1.4875,-3.7975000000000003,1.16290625,0.48081250000000003,0.1658125,1.39021875,1.1295,-0.07871875,-0.33109375,1.366625,0.02323758401804498,0.020422684450837725,True
36509,70469,0,70467,3013.0,39724.0,28082.0,-0.002074,0.000183,-0.00061,0.2625,-1.6975000000000002,-3.7975000000000003,1.18175,0.4680625,0.17665625000000001,1.397,1.1460625,-0.07553125000000001,-0.33215625,1.3736875,0.022578681415389327,0.020911114279072576,True
36510,70470,0,70468,3014.0,39725.0,28082.0,0.00244,-0.000549,-0.000488,0.22750000000000004,-2.0650000000000004,-3.5700000000000003,1.19409375,0.48415625,0.1773125,1.414375,1.12771875,-0.07390625,-0.33515625,1.37315625,0.02318121929215372,0.021058781983370252,True
36511,70471,0,70469,3014.0,39725.0,28084.0,0.0026839999999999998,0.000244,0.000244,0.385,-2.31,-3.6050000000000004,1.17771875,0.48065625,0.1606875,1.38984375,1.138875,-0.07571875,-0.33475,1.369375,0.023109382767648425,0.020359259906101355,True
36512,70472,0,70470,3014.0,39726.0,28083.0,0.002928,0.0011589999999999999,0.001037,0.24500000000000002,-2.2225,-3.6400000000000006,1.1909375,0.4835625,0.16175,1.39759375,1.1438125000000001,-0.07359375,-0.3373125,1.3665,0.02314387522635668,0.02050606450486265,True
36513,70473,0,70471,3014.0,39726.0,28084.0,0.002074,0.001464,-0.000915,0.3325,-2.1,-3.6575,1.17371875,0.48184375,0.17315625,1.39734375,1.14675,-0.0738125,-0.33484375,1.3708125,0.023081356557047204,0.020875416551626717,True
36514,70474,0,70472,3014.0,39727.0,28086.0,0.0015249999999999999,-0.000488,-0.00061,0.3325,-1.9250000000000003,-3.6400000000000006,1.1709375,0.47850000000000004,0.17059375000000002,1.3995625,1.13853125,-0.07821875,-0.33165625,1.37621875,0.023121259748501953,0.020641833619526002,True
36515,70475,0,70473,3016.0,39731.0,28086.0,0.00122,-0.000244,-0.000366,0.3325,-1.6275000000000002,-3.7450000000000006,1.1810625000000001,0.48071875000000003,0.17371875,1.4018125000000001,1.1383125,-0.0763125,-0.33553125,1.3683750000000001,0.02313606994426576,0.02092619202631954,True
36516,70476,0,70474,3016.0,39730.0,28086.0,-0.000793,-0.001037,0.0006709999999999999,0.28,-1.1375000000000002,-3.6225000000000005,1.1731562500000001,0.47628125,0.169875,1.40603125,1.14615625,-0.0736875,-0.33515625,1.3687500000000001,0.022845222610786156,0.02075315419435616,True
36517,70477,0,70475,3016.0,39729.0,28087.0,-0.0011589999999999999,-0.000183,-0.000732,0.3325,-0.8925000000000001,-3.7800000000000002,1.1735,0.4800625,0.16809375000000001,1.3956250000000001,1.138875,-0.0759375,-0.333,1.3735,0.023093597082148934,0.020593175933916904,True
36518,70478,0,70476,3017.0,39729.0,28088.0,-0.003172,-0.000366,0.001098,0.36750000000000005,-0.8575,-3.8675,1.18203125,0.4790625,0.16493750000000001,1.3991875,1.13265625,-0.07503125000000001,-0.33571875,1.36909375,0.023015286844124037,0.020572897605500146,True
36519,70479,0,70477,3019.0,39730.0,28086.0,-0.0048189999999999995,0.000549,0.00122,0.24500000000000002,-0.8225000000000001,-3.7100000000000004,1.17365625,0.47640625000000003,0.16959375000000002,1.403875,1.14453125,-0.0745,-0.32903125,1.3734375,0.02288339321688924,0.020495061840984728,True
36520,70480,0,70478,3017.0,39731.0,28088.0,-0.0070149999999999995,0.000549,0.001464,0.2625,-1.0675000000000001,-3.6575,1.177375,0.4796875,0.16884375000000001,1.4000625,1.13965625,-0.0719375,-0.3333125,1.3743125,0.02291568761342954,0.020636575887479358,True
36521,70481,0,70479,3019.0,39731.0,28087.0,0.00061,0.0011589999999999999,0.000305,0.43750000000000006,-1.8550000000000002,-3.535,1.1814375,0.4796875,0.165125,1.39821875,1.1386875,-0.0750625,-0.33428125000000003,1.36890625,0.02304251546595154,0.020522745047174964,True
36522,70482,0,70480,3018.0,39732.0,28087.0,0.003843,0.0,-0.0006709999999999999,0.3325,-2.1700000000000004,-3.535,1.1741875,0.47850000000000004,0.16909375000000001,1.40575,1.14496875,-0.074375,-0.33321875,1.3687500000000001,0.022965289856953713,0.02064307665832331,True
36523,70483,0,70481,3020.0,39731.0,28090.0,0.004392,6.1e-05,-0.00122,0.29750000000000004,-2.345,-3.5525,1.17384375,0.47809375,0.16971875,1.4053125,1.14284375,-0.0721875,-0.3336875,1.36725,0.022859627941997376,0.020687626978032,True
36524,70484,0,70482,3021.0,39731.0,28090.0,0.005063,0.000244,-0.001403,0.2625,-2.345,-3.5525,1.1740625,0.4765625,0.16984375000000002,1.3936875,1.1374375,-0.07634375,-0.32837500000000003,1.3728125,0.022964709913647085,0.020478916080502705,True
36525,70485,0,70483,3020.0,39732.0,28089.0,0.004575,-0.000549,-0.001098,0.31500000000000006,-2.1350000000000002,-3.5000000000000004,1.181,0.47990625000000003,0.1693125,1.40403125,1.13859375,-0.07843750000000001,-0.33096875000000003,1.36825,0.023188537462200363,0.02056150148152239,True
36526,70486,0,70484,3021.0,39732.0,28090.0,0.001403,-0.0018909999999999999,-0.001586,0.385,-1.5225000000000002,-3.6400000000000006,1.173875,0.47790625000000003,0.17046875,1.39928125,1.14584375,-0.07434375,-0.3341875,1.36315625,0.022939358419686934,0.020738569964581725,True
36527,70487,0,70485,3022.0,39732.0,28093.0,-0.000549,-0.0011589999999999999,0.0,0.31500000000000006,-1.2600000000000002,-3.5525,1.1810625000000001,0.47981250000000003,0.16625,1.3997187500000001,1.1389375,-0.075,-0.33187500000000003,1.367875,0.023045171339563866,0.020472117335799237,True
36528,70488,0,70486,3022.0,39733.0,28090.0,-0.0035989999999999998,6.1e-05,-0.0008539999999999999,0.4025,-0.9800000000000001,-3.5875000000000004,1.1728125,0.47803125,0.16953125,1.40584375,1.14303125,-0.0743125,-0.3356875,1.36890625,0.022943282388645573,0.020760405885389514,True
36529,70489,0,70487,3024.0,39734.0,28091.0,-0.0051849999999999995,0.001098,0.0026839999999999998,0.31500000000000006,-0.8925000000000001,-3.6050000000000004,1.1731875,0.47565625,0.16978125,1.399875,1.14375,-0.0738125,-0.33415625,1.36915625,0.022824334533634836,0.020709059924771376,True
36530,70490,0,70488,3021.0,39732.0,28093.0,-0.005063,0.001464,0.002623,0.29750000000000004,-1.0150000000000001,-3.6750000000000003,1.16625,0.478375,0.170125,1.407,1.1388125,-0.07484375,-0.33353125,1.36996875,0.022979121100214824,0.020698033706061467,True
36531,70491,0,70489,3023.0,39731.0,28091.0,-0.000488,-0.000183,-0.0008539999999999999,0.31500000000000006,-1.2775,-3.7275000000000005,1.17275,0.4760625,0.1700625,1.40528125,1.13953125,-0.073375,-0.33384375,1.36915625,0.022823451219448874,0.02070804165494816,True
36532,70492,0,70490,3023.0,39733.0,28092.0,-0.00042699999999999997,0.0,0.0,0.31500000000000006,-1.6275000000000002,-3.7975000000000003,1.17384375,0.48515625,0.16946875,1.40615625,1.14521875,-0.0745625,-0.33840625,1.3636875,0.023249384074996174,0.020867225026289474,True
36533,70493,0,70491,3024.0,39732.0,28090.0,0.000793,0.000183,-0.000244,0.22750000000000004,-2.0650000000000004,-3.7275000000000005,1.17321875,0.47750000000000004,0.1703125,1.3993125,1.141,-0.0739375,-0.33453125,1.3655625,0.022905995332088903,0.020745982111325854,True
36534,70494,0,70492,3025.0,39731.0,28093.0,0.003843,-0.001098,-0.00183,0.24500000000000002,-2.1700000000000004,-3.6750000000000003,1.17846875,0.4795625,0.1718125,1.39921875,1.1105625000000001,-0.07640625,-0.33128125,1.38040625,0.02309184951553972,0.020676829338775574,True
