frame_seq,absolute_seq_u64,segment_id,sample_seq,PPG_G,PPG_R,PPG_IR,ACC_X,ACC_Y,ACC_Z,GYRO_X,GYRO_Y,GYRO_Z,Uh1,Uh2,Uh3,Uh4,Uc1,Uc2,Uc3,Uc4,UD1,UD2,parser_valid
18631,227,0,228,3920.0,40721.0,29804.0,-0.009637999999999999,0.005124,0.009089,0.5075000000000001,-0.10500000000000001,-4.567500000000001,0.7185,0.07521875,-0.029812500000000002,1.00953125,0.67115625,-0.49075,-0.53134375,0.99909375,0.02310949031777304,0.02044450785538399,True
18632,228,0,229,3920.0,40722.0,29803.0,-0.020374,0.0035989999999999998,0.0064659999999999995,0.4025,-0.10500000000000001,-4.445,0.71190625,0.0745625,-0.0275,1.01325,0.681,-0.4920625,-0.53734375,0.9838125,0.023135046303266623,0.020778278007373963,True
18633,229,0,230,3917.0,40722.0,29804.0,-0.011407,0.002928,0.004148,0.45500000000000007,0.052500000000000005,-4.0600000000000005,0.7128125,0.0735,-0.0230625,1.0085,0.68771875,-0.4913125,-0.540125,0.98771875,0.02306174893648513,0.021070084198837616,True
18634,230,0,231,3917.0,40723.0,29802.0,-0.003721,0.003111,0.0,0.42000000000000004,-0.15750000000000003,-4.2875000000000005,0.71621875,0.0746875,-0.029,1.00771875,0.6850937500000001,-0.491875,-0.537,0.99353125,0.023132671549238266,0.020703427476871664,True
18635,231,0,232,3916.0,40722.0,29800.0,-0.003355,0.0017079999999999999,-0.000549,0.385,-0.6825000000000001,-4.3925,0.719375,0.07546875,-0.029531250000000002,1.0079375,0.68425,-0.49340625,-0.5369375,0.9907812500000001,0.02322563853281942,0.020679282000860943,True
18636,232,0,233,3915.0,40721.0,29800.0,-0.0006709999999999999,-0.003477,-0.0017079999999999999,0.385,-1.2775,-4.112500000000001,0.7137187500000001,0.07509375,-0.02675,1.00815625,0.684125,-0.48725,-0.5369375,0.9875,0.02296475716954742,0.02079263151727879,True
18637,233,0,234,3915.0,40722.0,29803.0,0.0044529999999999995,0.000122,0.000183,0.43750000000000006,-1.2075,-4.0075,0.7141875,0.0756875,-0.0271875,1.01078125,0.6845625,-0.4870625,-0.5375,0.9878750000000001,0.02298152340649271,0.020797249108507384,True
18638,234,0,235,3914.0,40719.0,29800.0,0.003721,0.003843,-0.0008539999999999999,0.43750000000000006,-1.33,-3.8500000000000005,0.71378125,0.0750625,-0.02753125,1.00828125,0.68415625,-0.49115625,-0.537375,0.9901562500000001,0.023119314752646683,0.020778251544837215,True
18639,235,0,236,3914.0,40720.0,29800.0,-0.000183,0.003538,-0.001464,0.4025,-1.1900000000000002,-3.99,0.7159375,0.07534375,-0.0266875,1.00853125,0.68478125,-0.49165625,-0.5366875,0.98803125,0.023150741387691985,0.020785201751458912,True
18640,236,0,237,3914.0,40719.0,29799.0,-0.00366,0.0013419999999999999,0.0008539999999999999,0.43750000000000006,-0.665,-4.077500000000001,0.71478125,0.07571875,-0.026625,0.9985937500000001,0.68578125,-0.4901875,-0.53759375,0.98859375,0.023107469062864466,0.02082391432534007,True
18641,237,0,238,3913.0,40720.0,29799.0,-0.0059169999999999995,-0.000244,0.000976,0.385,-0.6125,-3.7975000000000003,0.71325,0.08003125,-0.02690625,1.00459375,0.68603125,-0.48971875000000004,-0.53834375,0.98834375,0.02326486497522557,0.020842380610957088,True
18642,238,0,239,3913.0,40717.0,29800.0,-0.002623,-0.00061,0.000793,0.4025,-1.0150000000000001,-3.7975000000000003,0.71315625,0.076,-0.026375,1.007875,0.6876875,-0.4905,-0.5377500000000001,0.99334375,0.023131418305057064,0.020840337846787096,True
18643,239,0,240,3913.0,40720.0,29801.0,0.001464,0.000122,0.0008539999999999999,0.385,-1.8550000000000002,-4.095000000000001,0.72346875,0.07571875,-0.0310625,1.00865625,0.68496875,-0.4938125,-0.5361875,0.9951875,0.023252045797280435,0.02058693918930967,True
18644,240,0,241,3913.0,40721.0,29800.0,0.005795,-0.00122,-0.000915,0.4025,-2.5025000000000004,-4.1475,0.7259375,0.07965625,-0.029812500000000002,1.00878125,0.6846875,-0.4905625,-0.5351875,0.98784375,0.023283203478891103,0.020597967714736234,True
18645,241,0,242,3912.0,40720.0,29800.0,0.008235,-0.0011589999999999999,-0.002257,0.31500000000000006,-2.6425,-4.1475,0.7117187500000001,0.07725,-0.02746875,1.0113125,0.6925,-0.4911875,-0.53746875,0.9883125,0.02320987906364279,0.020784539970122227,True
18646,242,0,243,3910.0,40722.0,29799.0,0.006588,0.000305,-0.0013419999999999999,0.36750000000000005,-1.9425000000000001,-4.1475,0.7139375,0.077875,-0.0268125,1.02134375,0.689875,-0.49065625,-0.53859375,0.988125,0.02321421052161475,0.020856176813310662,True
18647,243,0,244,3912.0,40720.0,29799.0,0.0021349999999999997,0.001647,0.0008539999999999999,0.47250000000000003,-1.4700000000000002,-4.2700000000000005,0.70746875,0.0754375,-0.0261875,1.0034375,0.6902812500000001,-0.49165625,-0.53690625,0.996625,0.02315456922191614,0.02081430905740205,True
18648,244,0,245,3910.0,40717.0,29800.0,-0.003111,0.001098,0.001769,0.49000000000000005,-1.12,-4.130000000000001,0.7138125,0.07653125,-0.031343750000000004,1.00353125,0.68434375,-0.49175,-0.53759375,0.989,0.02320296630498025,0.02063160736777623,True
18649,245,0,246,3911.0,40719.0,29799.0,-0.0048189999999999995,-0.000488,-0.000183,0.5075000000000001,-0.9100000000000001,-4.077500000000001,0.71490625,0.07053125,-0.02478125,1.00778125,0.68925,-0.48781250000000004,-0.5340625,0.9907812500000001,0.022800883092354614,0.020758129641187634,True
18650,246,0,247,3911.0,40717.0,29799.0,-0.005612,-0.00061,-0.0013419999999999999,0.5075000000000001,-0.8400000000000001,-3.9725000000000006,0.7286875,0.07753125,-0.0264375,1.02503125,0.68384375,-0.4928125,-0.5335,0.98790625,0.023286168136060322,0.020668168015162938,True
18651,247,0,248,3910.0,40720.0,29799.0,-0.004392,-0.000976,0.001281,0.43750000000000006,-0.8925000000000001,-3.8675,0.70621875,0.0778125,-0.03484375,1.00875,0.68459375,-0.49409375,-0.53715625,0.9829375,0.023348740959236346,0.020471504312974332,True
18652,248,0,249,3910.0,40718.0,29799.0,-0.003904,-0.001403,0.001464,0.45500000000000007,-0.9625000000000001,-3.8850000000000002,0.70834375,0.0683125,-0.025875000000000002,1.00203125,0.6944375,-0.4899375,-0.5328437500000001,0.99634375,0.022795076549297032,0.02066489947786832,True
18653,249,0,250,3909.0,40717.0,29797.0,-0.0017079999999999999,-0.00061,0.001769,0.45500000000000007,-1.0675000000000001,-3.8500000000000005,0.730875,0.077875,-0.02803125,1.02003125,0.6843125,-0.49046875,-0.5390625,0.98884375,0.02320673221087285,0.02082521489971347,True
18654,250,0,251,3907.0,40721.0,29797.0,0.0008539999999999999,-0.000366,0.000488,0.385,-1.2775,-3.9375000000000004,0.7075625,0.073625,-0.0308125,0.99803125,0.68821875,-0.49259375,-0.53725,0.9936875000000001,0.023117957852054765,0.020639537845520584,True
18655,251,0,252,3908.0,40720.0,29796.0,0.004392,0.001098,-0.0023179999999999997,0.385,-1.5925000000000002,-3.9550000000000005,0.728125,0.07775,-0.031531250000000004,1.0205625,0.68515625,-0.493875,-0.5358125,0.98771875,0.02333746701981618,0.0205528653269583,True
18656,252,0,253,3909.0,40719.0,29795.0,0.0040869999999999995,0.001647,-0.001281,0.3325,-2.1700000000000004,-3.6925000000000003,0.70709375,0.0756875,-0.0305625,1.002625,0.6875625,-0.49315625,-0.5367500000000001,0.994375,0.023224599728750763,0.020629769631267385,True
18657,253,0,254,3909.0,40717.0,29797.0,0.004209,0.0013419999999999999,-0.001403,0.43750000000000006,-2.1,-3.6050000000000004,0.7099375,0.07478125000000001,-0.02478125,1.00921875,0.68321875,-0.49078125,-0.53915625,0.9881875,0.02309287295602299,0.020961397154802337,True
18658,254,0,255,3909.0,40718.0,29799.0,0.004697,0.00042699999999999997,-0.000366,0.43750000000000006,-1.7500000000000002,-3.6925000000000003,0.70821875,0.07209375,-0.02390625,1.00590625,0.693625,-0.49059375,-0.53796875,0.99234375,0.02297565774614999,0.020949676203332844,True
18659,255,0,256,3909.0,40718.0,29797.0,0.0017079999999999999,-0.000793,0.0015249999999999999,0.43750000000000006,-1.4000000000000001,-3.6400000000000006,0.7156875,0.0755,-0.02765625,1.01534375,0.684625,-0.49040625,-0.53928125,0.9878125,0.023107262665354927,0.020849225158132943,True
18660,256,0,257,3908.0,40720.0,29801.0,-0.0051849999999999995,-0.000488,0.001586,0.56,-0.9100000000000001,-3.6225000000000005,0.71140625,0.0754375,-0.02728125,1.00771875,0.69171875,-0.48959375,-0.53734375,0.9938750000000001,0.02307229984164192,0.020787192990276298,True
18661,257,0,258,3911.0,40720.0,29802.0,-0.0062829999999999995,-0.00061,-0.0008539999999999999,0.6125,-0.9975,-3.5175000000000005,0.71425,0.07296875,-0.0268125,1.0081875,0.68003125,-0.49012500000000003,-0.5386562500000001,0.9808125,0.022992685827450864,0.02085867069432541,True
18662,258,0,259,3910.0,40721.0,29803.0,-0.006039,0.000305,-0.002623,0.5775,-1.155,-3.5000000000000004,0.7204375000000001,0.0765,-0.02775,1.0135,0.68484375,-0.49315625,-0.5361875,0.98740625,0.023257772260363546,0.020721943863528103,True
18663,259,0,260,3910.0,40721.0,29804.0,-0.003721,0.000366,-0.001647,0.47250000000000003,-1.2950000000000002,-3.5000000000000004,0.7174375000000001,0.0766875,-0.02909375,1.00765625,0.690625,-0.4923125,-0.5335625,0.9959687500000001,0.02323177935933979,0.02056239284449619,True
18664,260,0,261,3912.0,40720.0,29803.0,0.000366,0.00042699999999999997,-0.000915,0.5075000000000001,-1.4875,-3.5175000000000005,0.71346875,0.07440625000000001,-0.02325,0.99771875,0.68684375,-0.48990625,-0.53740625,0.9975,0.02304265660469811,0.020953977154777717,True
18665,261,0,262,3912.0,40720.0,29805.0,0.0053679999999999995,0.000549,0.001037,0.47250000000000003,-2.0825,-3.7100000000000004,0.7165,0.07328125,-0.02203125,1.01175,0.68515625,-0.49012500000000003,-0.53996875,0.97740625,0.023005446072651734,0.021105874472639664,True
18666,262,0,263,3911.0,40721.0,29806.0,0.0037819999999999998,0.000244,-0.00061,0.42000000000000004,-2.1,-3.7100000000000004,0.716875,0.07675,-0.0303125,1.01515625,0.68671875,-0.4915,-0.5367500000000001,0.9905,0.023201927199232388,0.020639958429702388,True
18667,263,0,264,3913.0,40719.0,29806.0,0.003172,0.000122,6.1e-05,0.45500000000000007,-1.9075000000000002,-3.7975000000000003,0.71334375,0.07365625,-0.02640625,1.008375,0.6920625,-0.4889375,-0.5399375,0.99303125,0.022973383389949035,0.020926347102554765,True
18668,264,0,265,3914.0,40722.0,29808.0,0.000549,0.000976,-0.000732,0.42000000000000004,-1.9075000000000002,-3.6925000000000003,0.7226875,0.07584375,-0.0291875,1.01625,0.6852812500000001,-0.49084375,-0.53671875,0.983625,0.023138749558189477,0.02068456076670806,True
18669,265,0,266,3915.0,40721.0,29807.0,0.00042699999999999997,-0.000366,0.0015249999999999999,0.45500000000000007,-1.6275000000000002,-3.7100000000000004,0.7130625,0.07603125,-0.029437500000000002,0.9968750000000001,0.692125,-0.49015625,-0.53696875,0.9954375,0.02311898275455062,0.02068435001776656,True
18670,266,0,267,3915.0,40721.0,29811.0,6.1e-05,0.000549,0.000244,0.5075000000000001,-1.225,-3.6400000000000006,0.7145,0.07384375,-0.02765625,1.016125,0.68503125,-0.4905,-0.53903125,0.9885625,0.023043373961331947,0.02083924971569527,True
18671,267,0,268,3916.0,40724.0,29812.0,-0.003111,0.000366,-0.002196,0.56,-1.1375000000000002,-3.7275000000000005,0.7015,0.0765625,-0.029,1.00828125,0.6915625,-0.49,-0.5380625,0.99484375,0.023134442629644755,0.020745831094040126,True
18672,268,0,269,3917.0,40727.0,29813.0,-0.004026,0.000793,-0.0013419999999999999,0.45500000000000007,-1.0850000000000002,-3.6225000000000005,0.70975,0.07725,-0.02721875,1.0175,0.6846875,-0.490875,-0.53634375,0.9886875,0.02319741536388553,0.020749831563637106,True
18673,269,0,270,3916.0,40728.0,29814.0,-0.0026839999999999998,0.000976,0.000305,0.525,-1.1725,-3.5175000000000005,0.71296875,0.07428125000000001,-0.02728125,1.0150000000000001,0.68365625,-0.48903125000000003,-0.5374375,0.9841875,0.023002645316972267,0.020790934261167248,True
18674,270,0,271,3918.0,40726.0,29814.0,-0.0013419999999999999,-0.0017079999999999999,0.000915,0.36750000000000005,-1.5925000000000002,-3.6400000000000006,0.71390625,0.07578125000000001,-0.0303125,1.0083125,0.6924375,-0.4903125,-0.53653125,0.99428125,0.023115007209483337,0.02063122716255991,True
18675,271,0,272,3919.0,40729.0,29817.0,0.004209,-0.001464,-0.000976,0.36750000000000005,-2.1,-3.8850000000000002,0.719375,0.07675,-0.03034375,1.0086875,0.68453125,-0.49262500000000004,-0.53678125,0.99203125,0.023246793677688695,0.020639932142688843,True
18676,272,0,273,3919.0,40728.0,29815.0,0.004026,-0.001281,-0.000732,0.47250000000000003,-1.9250000000000003,-3.8675,0.7135,0.074125,-0.02746875,1.01315625,0.68534375,-0.4906875,-0.53834375,0.988,0.02306233747010981,0.020819457303429455,True
18677,273,0,274,3921.0,40728.0,29817.0,0.002562,0.000793,0.000305,0.45500000000000007,-1.7325000000000002,-3.7625,0.71309375,0.07396875,-0.027375,1.01171875,0.68996875,-0.4895,-0.53815625,0.98840625,0.02300858531207252,0.020815795807804426,True
18678,274,0,275,3922.0,40728.0,29816.0,-0.002013,0.00061,-0.000244,0.47250000000000003,-1.4525000000000001,-3.6575,0.704125,0.0733125,-0.024625,1.00878125,0.68925,-0.48965625,-0.53621875,0.9892500000000001,0.02298802172856142,0.02085055383686616,True
18679,275,0,276,3923.0,40728.0,29819.0,-0.0026839999999999998,-0.000183,0.001586,0.5775,-1.3650000000000002,-3.7975000000000003,0.71765625,0.07684375,-0.02778125,1.01134375,0.6764375,-0.49271875,-0.537125,0.989125,0.023254360033020016,0.020758085961578628,True
18680,276,0,277,3923.0,40730.0,29816.0,-0.002623,0.001098,0.00122,0.56,-1.3125000000000002,-3.7625,0.71421875,0.07621875,-0.02775,0.999375,0.68703125,-0.48965625,-0.53903125,0.9875625,0.023106694280365818,0.020835429271479487,True
18681,277,0,278,3925.0,40732.0,29819.0,-0.0018909999999999999,0.001281,0.000488,0.45500000000000007,-1.435,-3.7625,0.7136250000000001,0.07728125,-0.029531250000000002,1.00828125,0.68465625,-0.49128125,-0.53653125,0.99475,0.023214894075825453,0.020663067441531697,True
18682,278,0,279,3925.0,40730.0,29819.0,-0.001037,-0.00042699999999999997,-0.0006709999999999999,0.35000000000000003,-1.4700000000000002,-3.6925000000000003,0.71359375,0.07671875,-0.02746875,1.009375,0.6845625,-0.4909375,-0.53703125,0.99284375,0.023178216432098605,0.020767080369594425,True
18683,279,0,280,3925.0,40731.0,29822.0,0.000732,0.00061,-0.000732,0.43750000000000006,-1.5925000000000002,-3.7800000000000002,0.7168125,0.07671875,-0.02771875,1.0055,0.68503125,-0.491375,-0.53703125,0.99590625,0.02319566582113091,0.02075689168794615,True
18684,280,0,281,3925.0,40731.0,29822.0,0.0025009999999999998,-0.000793,-0.00122,0.42000000000000004,-1.7325000000000002,-3.7800000000000002,0.7164375000000001,0.0771875,-0.0228125,1.00828125,0.68534375,-0.4896875,-0.534625,0.989125,0.02314749830923731,0.020860824243288823,True
18685,281,0,282,3927.0,40732.0,29824.0,0.002989,-0.000549,-0.0013419999999999999,0.49000000000000005,-2.0475000000000003,-3.8500000000000005,0.7171875,0.07678125,-0.02875,1.0085625,0.67225,-0.492,-0.53634375,0.99975,0.02322314429201372,0.02068742413995565,True
18686,282,0,283,3929.0,40734.0,29824.0,0.0015249999999999999,0.000366,-0.0015249999999999999,0.56,-2.1,-3.8675,0.714125,0.07425,-0.02775,1.0131875000000001,0.6830625,-0.48934375,-0.5411875,0.97975,0.02301383637526016,0.020921461115115152,True
18687,283,0,284,3929.0,40734.0,29824.0,0.000915,-0.000366,0.002013,0.45500000000000007,-1.8900000000000001,-3.7975000000000003,0.7141875,0.07665625,-0.02459375,1.00846875,0.69425,-0.4885625,-0.53821875,0.9885625,0.023080928086326013,0.02093163343406905,True
18688,284,0,285,3929.0,40733.0,29825.0,0.0017079999999999999,0.000549,0.001464,0.43750000000000006,-1.5575,-3.7800000000000002,0.72,0.079,-0.0328125,1.0088125000000001,0.6828125,-0.49371875,-0.5356875,0.99746875,0.023382270199375093,0.020495655562942753,True
18689,285,0,286,3931.0,40736.0,29823.0,0.0006709999999999999,0.000732,0.000183,0.47250000000000003,-1.2950000000000002,-3.7975000000000003,0.74065625,0.07671875,-0.03634375,0.99975,0.6823125,-0.49415625,-0.53578125,1.0005,0.023306579503019217,0.020355475740149908,True
18690,286,0,287,3932.0,40734.0,29827.0,-0.0044529999999999995,0.000549,-0.000366,0.385,-0.8750000000000001,-3.8325000000000005,0.7391562500000001,0.07993750000000001,-0.0305625,1.0200625,0.67553125,-0.488375,-0.53603125,0.98659375,0.023207440265023707,0.020601080298999045,True
18691,287,0,288,3932.0,40737.0,29826.0,-0.004697,0.000244,-0.00042699999999999997,0.385,-0.665,-3.9200000000000004,0.70159375,0.0698125,-0.02296875,1.0265,0.6950000000000001,-0.488375,-0.5418125,0.9856875,0.022793978775643545,0.021141215629448724,True
18692,288,0,289,3933.0,40739.0,29829.0,-0.0032329999999999998,-0.001037,0.001281,0.43750000000000006,-0.7350000000000001,-3.9725000000000006,0.708375,0.07918750000000001,-0.03446875,0.99134375,0.683125,-0.49271875,-0.53034375,0.9981875,0.023350051737314786,0.0202147595261481,True
18693,289,0,290,3935.0,40737.0,29829.0,-0.0015249999999999999,-0.0030499999999999998,0.000793,0.43750000000000006,-1.1725,-3.9025000000000003,0.733875,0.085,-0.03446875,0.9981875,0.68221875,-0.49340625,-0.53609375,1.00003125,0.023614773874091114,0.02044437085670982,True
18694,290,0,291,3937.0,40736.0,29827.0,-6.1e-05,-0.00183,0.000366,0.35000000000000003,-1.5050000000000001,-3.9550000000000005,0.73503125,0.0810625,-0.04034375,0.9938125,0.68265625,-0.4889375,-0.53478125,0.99584375,0.023275815865837383,0.020152513077735305,True
18695,291,0,292,3937.0,40737.0,29828.0,0.002745,0.000915,-0.0021349999999999997,0.42000000000000004,-1.8025000000000002,-3.7975000000000003,0.7253125,0.081375,-0.027125,1.0300625,0.68240625,-0.49009375,-0.53809375,0.9851562500000001,0.023334690174471054,0.020823490007246388,True
18696,292,0,293,3938.0,40738.0,29829.0,0.00366,0.0015249999999999999,-0.000244,0.42000000000000004,-1.995,-3.6050000000000004,0.687125,0.07409375,-0.02465625,0.99371875,0.69771875,-0.48809375,-0.536125,0.99571875,0.022957585255079314,0.020845538975694,True
18697,293,0,294,3939.0,40739.0,29830.0,0.0037819999999999998,0.000183,0.000549,0.31500000000000006,-1.9075000000000002,-3.7450000000000006,0.7341562500000001,0.07928125,-0.03240625,1.00215625,0.68190625,-0.4928125,-0.53603125,0.9935,0.02335761766844865,0.02052593570934582,True
18698,294,0,295,3941.0,40739.0,29829.0,0.0030499999999999998,-0.001037,-0.001647,0.45500000000000007,-1.7675,-3.6750000000000003,0.72384375,0.0735625,-0.021781250000000002,1.02425,0.68065625,-0.49171875000000004,-0.53396875,0.98640625,0.023080505528016486,0.020876667171918526,True
18699,295,0,296,3941.0,40740.0,29830.0,0.0017079999999999999,0.00122,-0.00183,0.525,-1.7850000000000001,-3.7275000000000005,0.7059062500000001,0.07296875,-0.02696875,0.99815625,0.68396875,-0.49125,-0.537,0.99421875,0.02303756443627826,0.02078621062069528,True
18700,296,0,297,3942.0,40738.0,29828.0,-0.001586,0.0034159999999999998,-0.0008539999999999999,0.5425000000000001,-1.54,-3.4825000000000004,0.7321875,0.080375,-0.03290625,0.999,0.684,-0.49212500000000003,-0.53640625,0.99453125,0.023374860286724815,0.02052052753242949,True
18701,297,0,298,3943.0,40739.0,29830.0,-0.0026839999999999998,0.0025009999999999998,0.0015249999999999999,0.5425000000000001,-1.3825,-3.5175000000000005,0.7213437500000001,0.08128125,-0.02865625,1.01784375,0.6845,-0.48953125000000003,-0.5368437500000001,0.9881875,0.023308428984323663,0.0207112008854032,True
18702,298,0,299,3946.0,40737.0,29831.0,-0.000793,0.000793,0.002806,0.42000000000000004,-1.1375000000000002,-3.7100000000000004,0.7020000000000001,0.07421875,-0.025531250000000002,1.00071875,0.69146875,-0.488875,-0.537125,0.9968125,0.02299385945658998,0.020849783746058267,True
18703,299,0,300,3945.0,40741.0,29834.0,-0.001647,-0.001403,0.002745,0.3325,-0.9275000000000001,-3.7800000000000002,0.7174375000000001,0.07968750000000001,-0.031125,1.00321875,0.68515625,-0.488875,-0.5367500000000001,0.995375,0.023217175145857045,0.020606844834788637,True
18704,300,0,301,3946.0,40739.0,29834.0,-0.002745,-0.002562,0.0018909999999999999,0.43750000000000006,-0.7875000000000001,-3.8675,0.7166250000000001,0.0779375,-0.0280625,1.0085625,0.6848125,-0.4915,-0.53678125,0.99390625,0.023250413408733645,0.020732904809998256,True
18705,301,0,302,3948.0,40737.0,29832.0,-0.003538,-0.0008539999999999999,-0.001647,0.42000000000000004,-0.8225000000000001,-3.9375000000000004,0.72059375,0.07818750000000001,-0.029781250000000002,1.0076875,0.68559375,-0.488875,-0.5373125,0.99565625,0.023155922842515223,0.020684060244984044,True
18706,302,0,303,3946.0,40741.0,29831.0,-0.001952,0.0008539999999999999,-0.0034159999999999998,0.42000000000000004,-1.1375000000000002,-4.025,0.71896875,0.07784375,-0.02728125,1.0151875000000001,0.68534375,-0.48984375,-0.5359375000000001,0.98809375,0.023180527642198617,0.020731070496083553,True
18707,303,0,304,3946.0,40739.0,29829.0,0.001098,0.0015249999999999999,-0.0037819999999999998,0.45500000000000007,-1.33,-4.0600000000000005,0.71409375,0.07428125000000001,-0.02728125,1.01340625,0.69159375,-0.48925,-0.53859375,0.986375,0.023011372336841678,0.020837074251657144,True
18708,304,0,305,3942.0,40737.0,29825.0,0.004514,6.1e-05,-0.002257,0.35000000000000003,-1.4700000000000002,-4.130000000000001,0.71328125,0.0755,-0.026625,1.0093125,0.6909375,-0.48834375,-0.53840625,0.983625,0.0230249851013301,0.02085633617708974,True
18709,305,0,306,3944.0,40735.0,29823.0,0.0053679999999999995,-0.000183,-0.000122,0.31500000000000006,-1.3650000000000002,-4.2700000000000005,0.71384375,0.07684375,-0.03040625,1.00003125,0.69415625,-0.48921875000000004,-0.5381875,0.98853125,0.023114763512004647,0.02069351087972574,True
18710,306,0,307,3940.0,40733.0,29818.0,0.000183,0.000549,0.003172,0.385,-1.2075,-4.3925,0.72,0.07734375,-0.029593750000000002,1.0088125000000001,0.68559375,-0.49215625,-0.5364375,0.99725,0.02325234226774133,0.02065677831184743,True
18711,307,0,308,3937.0,40730.0,29814.0,-0.0017079999999999999,0.000488,0.0025009999999999998,0.42000000000000004,-1.225,-4.305000000000001,0.7038125000000001,0.0774375,-0.0274375,1.008125,0.6850625,-0.49215625,-0.5371875,0.99409375,0.023256170023821403,0.020774589589780817,True
18712,308,0,309,3933.0,40728.0,29809.0,-0.0023179999999999997,-0.000732,0.002013,0.24500000000000002,-1.4000000000000001,-4.340000000000001,0.71390625,0.07721875,-0.0279375,1.01575,0.6845625,-0.49165625,-0.53740625,0.9886875,0.023227298072175093,0.02076294229346266,True
18713,309,0,310,3932.0,40725.0,29806.0,-0.001769,-0.001281,-0.0008539999999999999,0.31500000000000006,-1.3650000000000002,-4.2875000000000005,0.7145312500000001,0.08140625,-0.0271875,1.0133125,0.691375,-0.4895,-0.53934375,0.988625,0.023312286898466688,0.020870820964802694,True
18714,310,0,311,3927.0,40723.0,29801.0,0.0,-0.0013419999999999999,-0.0008539999999999999,0.2625,-1.4875,-4.165,0.71346875,0.07675,-0.02421875,1.00865625,0.684875,-0.48884375,-0.54009375,0.97796875,0.02309597610136248,0.02102172083185298,True
18715,311,0,312,3925.0,40722.0,29797.0,0.00042699999999999997,-0.001586,-0.0028669999999999998,0.43750000000000006,-1.61,-4.0600000000000005,0.72128125,0.07734375,-0.03040625,1.00853125,0.689625,-0.48925,-0.53140625,0.99246875,0.02313642720785651,0.020422799854777997,True
18716,312,0,313,3925.0,40721.0,29795.0,0.001952,-0.0018909999999999999,-0.001769,0.4025,-1.4700000000000002,-4.025,0.71459375,0.07459375,-0.02709375,1.0150000000000001,0.6853125,-0.49028125,-0.53909375,0.988,0.02306527206583224,0.02086466620227163,True
18717,313,0,314,3922.0,40720.0,29795.0,0.000244,-0.001281,-0.000915,0.385,-1.4525000000000001,-3.8675,0.7144375000000001,0.07659375,-0.029625000000000002,1.0084375,0.69125,-0.489,-0.53959375,0.979,0.02309582873943403,0.020781466685853345,True
18718,314,0,315,3921.0,40717.0,29796.0,-0.000732,0.000915,-0.000976,0.385,-1.4000000000000001,-3.7975000000000003,0.7223125,0.07675,-0.029875000000000002,1.0085,0.6840625,-0.4886875,-0.53840625,0.9884375,0.023089742968054126,0.02072389073760648,True
18719,315,0,316,3919.0,40715.0,29792.0,-0.000549,-0.00061,0.00122,0.36750000000000005,-1.4175000000000002,-3.7100000000000004,0.71434375,0.0765,-0.02771875,1.00903125,0.6929062500000001,-0.48940625,-0.53978125,0.9798125,0.023108206226927205,0.020866628548288302,True
18720,316,0,317,3916.0,40714.0,29791.0,-0.000732,0.000549,0.0026839999999999998,0.42000000000000004,-1.6450000000000002,-3.5700000000000003,0.71621875,0.07659375,-0.0278125,1.00803125,0.69115625,-0.48896875,-0.53721875,0.988,0.023094582126901523,0.02076055380155911,True
18721,317,0,318,3916.0,40714.0,29792.0,0.00042699999999999997,0.002562,0.0028669999999999998,0.385,-1.715,-3.3950000000000005,0.7161875,0.0766875,-0.02790625,1.0086875,0.69071875,-0.48925,-0.537125,0.99365625,0.023109629735496188,0.020752991640218647,True
18722,318,0,319,3915.0,40714.0,29792.0,0.00042699999999999997,0.002257,0.002928,0.47250000000000003,-1.7325000000000002,-3.3775000000000004,0.7156250000000001,0.07603125,-0.02871875,1.01603125,0.68515625,-0.49209375,-0.53659375,0.9892500000000001,0.023196261038319763,0.020698675829851073,True
18723,319,0,320,3914.0,40715.0,29790.0,0.0013419999999999999,0.000305,-0.000122,0.45500000000000007,-1.8200000000000003,-3.3950000000000005,0.7065625,0.07465625000000001,-0.027875,1.00821875,0.6879375,-0.48731250000000004,-0.53821875,0.98890625,0.02294938450268889,0.02079791345897917,True
18724,320,0,321,3912.0,40713.0,29787.0,-0.000732,-0.001403,-0.003477,0.45500000000000007,-1.9425000000000001,-3.2550000000000003,0.72178125,0.0770625,-0.024375,1.01434375,0.68459375,-0.49165625,-0.5364375,0.9934375,0.023220918348468168,0.020869472188046856,True
18725,321,0,322,3911.0,40710.0,29790.0,0.0006709999999999999,-0.000183,-0.0035989999999999998,0.5075000000000001,-2.0300000000000002,-3.2550000000000003,0.71415625,0.07359375,-0.0278125,1.014,0.6852812500000001,-0.49115625,-0.5366562500000001,0.987625,0.023059344125494277,0.02073810485077811,True
18726,322,0,323,3911.0,40714.0,29792.0,0.000976,0.0013419999999999999,-0.000793,0.42000000000000004,-1.8725000000000003,-3.2375000000000003,0.71425,0.0738125,-0.0270625,1.00875,0.6873750000000001,-0.48959375,-0.5386875,0.989,0.02300594512720326,0.020849729636110325,True
18727,323,0,324,3910.0,40712.0,29792.0,0.001281,0.00061,0.00122,0.525,-1.61,-3.325,0.72196875,0.08046875,-0.028375,1.0126875,0.684625,-0.49171875000000004,-0.53590625,0.99484375,0.023362488596272976,0.020685245730428237,True
18728,324,0,325,3911.0,40713.0,29794.0,-0.00061,0.001403,0.0028669999999999998,0.6475000000000001,-1.5225000000000002,-3.3950000000000005,0.7141875,0.07775,-0.0276875,1.013875,0.6852812500000001,-0.49034375,-0.53578125,0.9889375,0.02319664255427203,0.020708276815110584,True
18729,325,0,326,3912.0,40715.0,29791.0,-0.0050019999999999995,0.002196,0.0021349999999999997,0.6125,-1.2425000000000002,-3.22,0.71275,0.079625,-0.02921875,1.008875,0.68575,-0.49271875,-0.5356562500000001,1.0045,0.023367914188783142,0.020640878517361856,True
18730,326,0,327,3910.0,40714.0,29793.0,-0.003294,0.00244,0.0013419999999999999,0.5950000000000001,-1.4525000000000001,-3.2025,0.72246875,0.0768125,-0.03040625,1.00846875,0.685625,-0.49396875,-0.53646875,0.99440625,0.02330293044078453,0.02062491164300079,True
18731,327,0,328,3909.0,40716.0,29798.0,-0.0013419999999999999,-0.000122,-0.001037,0.5425000000000001,-1.8550000000000002,-3.1325000000000003,0.71790625,0.07659375,-0.0303125,1.0085,0.6843125,-0.48946875,-0.5388125,0.98559375,0.02311452754564143,0.0207222741524269,True
18732,328,0,329,3911.0,40715.0,29799.0,0.003965,-0.004331,-0.0030499999999999998,0.43750000000000006,-2.205,-3.1850000000000005,0.72240625,0.07653125,-0.02846875,1.0086875,0.6886875,-0.4826875,-0.54103125,0.9826875,0.022841395577997716,0.020885939746317708,True
18733,329,0,330,3911.0,40715.0,29795.0,0.008052,-0.0059169999999999995,-0.0048189999999999995,0.43750000000000006,-2.4850000000000003,-3.4125000000000005,0.716125,0.07309375,-0.02740625,1.01384375,0.70165625,-0.48746875,-0.5345,0.99434375,0.022891810734827378,0.020668599319325846,True
18734,330,0,331,3910.0,40718.0,29797.0,0.0035989999999999998,-0.001281,-0.002013,0.525,-1.7675,-3.5000000000000004,0.70775,0.0765625,-0.02771875,1.0093125,0.67965625,-0.49621875,-0.5337500000000001,1.00325,0.023382435299325533,0.020625923472767108,True
18735,331,0,332,3909.0,40714.0,29797.0,-0.0025009999999999998,0.0021349999999999997,0.001098,0.4025,-1.225,-3.535,0.7204375000000001,0.07671875,-0.02875,1.00875,0.67903125,-0.49403125000000003,-0.53090625,0.9813125,0.023301595159024715,0.02047035053994387,True
18736,332,0,333,3909.0,40714.0,29796.0,-0.004941,0.002196,0.003965,0.525,-0.7875000000000001,-3.4650000000000003,0.7195625,0.0765625,-0.0265625,1.01525,0.69528125,-0.48721875000000003,-0.5415,0.98321875,0.023023490570973887,0.02098231566937636,True
18737,333,0,334,3909.0,40717.0,29797.0,-0.0059169999999999995,0.002928,0.004758,0.47250000000000003,-0.6300000000000001,-3.4650000000000003,0.7135625,0.073875,-0.02734375,1.01075,0.67996875,-0.4980625,-0.5340625,1.00003125,0.023346234013404122,0.020653683017233693,True
18738,334,0,335,3910.0,40715.0,29798.0,-0.0042699999999999995,0.002928,0.004514,0.525,-0.8925000000000001,-3.4650000000000003,0.7138125,0.07696875,-0.029468750000000002,1.00934375,0.68003125,-0.49509375,-0.5291875,1.0015625,0.023354166586931315,0.020372413476801875,True
18739,335,0,336,3909.0,40714.0,29794.0,0.00122,0.000244,-0.000915,0.525,-1.6450000000000002,-3.2725000000000004,0.7203125,0.07678125,-0.029468750000000002,1.00934375,0.68153125,-0.49162500000000003,-0.53825,0.983875,0.023208188513420405,0.020734210874858636,True
18740,336,0,337,3910.0,40714.0,29797.0,0.003538,-0.0013419999999999999,-0.0017079999999999999,0.5950000000000001,-1.715,-3.325,0.72059375,0.0761875,-0.02678125,1.0091875000000001,0.6756875,-0.487875,-0.5448125,0.98390625,0.023034358840854915,0.021105528917770306,True
18741,337,0,338,3910.0,40715.0,29798.0,-0.000183,-0.001403,-0.0013419999999999999,0.5775,-1.7500000000000002,-3.3775000000000004,0.71909375,0.07653125,-0.0278125,1.0051875000000001,0.70378125,-0.487375,-0.538375,0.9833125,0.023028448333069593,0.0208066956348984,True
18742,338,0,339,3907.0,40715.0,29797.0,0.0008539999999999999,-0.001769,-0.00042699999999999997,0.43750000000000006,-1.5050000000000001,-3.3775000000000004,0.70825,0.0739375,-0.020875,1.01440625,0.69953125,-0.48784375,-0.532875,0.9865,0.02294122976834169,0.020869955111253776,True
18743,339,0,340,3909.0,40715.0,29799.0,0.0011589999999999999,-0.000488,0.000793,0.4025,-1.5575,-3.3950000000000005,0.71428125,0.07490625000000001,-0.0290625,1.00875,0.68571875,-0.49243750000000003,-0.532875,0.99390625,0.023164037879039194,0.02053621925681356,True
18744,340,0,341,3908.0,40718.0,29798.0,-0.000732,-0.001647,-0.0025009999999999998,0.49000000000000005,-1.5050000000000001,-3.4125000000000005,0.7199375,0.07653125,-0.03021875,1.0031875000000001,0.68096875,-0.4888125,-0.53525,0.9951875,0.02308579683069565,0.020583904790046972,True
18745,341,0,342,3909.0,40713.0,29797.0,-0.002074,-0.000183,-0.000976,0.5075000000000001,-1.6625,-3.2725000000000004,0.71921875,0.07678125,-0.029593750000000002,1.01346875,0.68325,-0.49090625,-0.53734375,0.99340625,0.02317952199094307,0.020692948885308746,True
18746,342,0,343,3908.0,40716.0,29798.0,-0.000183,0.000915,-0.000244,0.45500000000000007,-1.7850000000000001,-3.3425000000000002,0.71328125,0.0764375,-0.02775,1.00953125,0.68546875,-0.49153125000000003,-0.53634375,0.99553125,0.023190414033422268,0.020728180008482314,True
18747,343,0,344,3910.0,40715.0,29799.0,0.002013,0.0013419999999999999,0.001952,0.385,-1.7850000000000001,-3.43,0.71865625,0.07721875,-0.029375000000000002,1.01228125,0.6853125,-0.4921875,-0.53596875,0.997125,0.023248484848484848,0.020646983828588386,True
18748,344,0,345,3909.0,40719.0,29799.0,0.0032329999999999998,0.0013419999999999999,0.0023179999999999997,0.4025,-1.715,-3.5175000000000005,0.71428125,0.07453125000000001,-0.02715625,1.0116875,0.6860625,-0.48990625,-0.536125,0.98909375,0.023047760748369547,0.020743648395987548,True
18749,345,0,346,3909.0,40716.0,29800.0,-0.000793,0.0021349999999999997,-0.000305,0.4025,-1.4175000000000002,-3.4825000000000004,0.71446875,0.0755,-0.027625,1.0094375,0.6853125,-0.49112500000000003,-0.53678125,0.9967812500000001,0.02313593189369619,0.020750735184550742,True
18750,346,0,347,3910.0,40716.0,29800.0,-0.001281,0.000183,0.000488,0.47250000000000003,-1.33,-3.5175000000000005,0.72028125,0.077375,-0.02675,1.0093125,0.6860937500000001,-0.49075,-0.53753125,0.9888750000000001,0.02319753376274716,0.020816326010792138,True
18751,347,0,348,3910.0,40717.0,29800.0,-0.0008539999999999999,-0.000244,0.000122,0.525,-1.3825,-3.5000000000000004,0.71390625,0.0758125,-0.02740625,1.0159375,0.68559375,-0.48915625,-0.53809375,0.98859375,0.023070159879436433,0.020812028236708486,True
18752,348,0,349,3913.0,40719.0,29803.0,-0.0006709999999999999,-0.001281,-0.001037,0.36750000000000005,-1.5225000000000002,-3.6225000000000005,0.71478125,0.07775,-0.02890625,1.00965625,0.6859375,-0.49078125,-0.5369375,0.98921875,0.02321409203718236,0.020704753802303157,True
18753,349,0,350,3913.0,40718.0,29802.0,0.001952,-0.0011589999999999999,-0.000244,0.385,-1.5575,-3.6225000000000005,0.71515625,0.076125,-0.02796875,1.01621875,0.69440625,-0.4886875,-0.5386875,0.9891562500000001,0.023064220979584958,0.020812798158010692,True
18754,350,0,351,3913.0,40719.0,29803.0,-0.000122,-0.001281,-0.00042699999999999997,0.385,-1.6625,-3.8675,0.7140625,0.07728125,-0.02871875,1.01025,0.6861875000000001,-0.4898125,-0.5380625,0.9879375,0.02315631244624678,0.020757292879174955,True
18755,351,0,352,3915.0,40719.0,29805.0,-0.001037,-6.1e-05,0.000366,0.4025,-1.3650000000000002,-3.7625,0.71496875,0.073125,-0.0274375,1.0094375,0.69246875,-0.48934375,-0.5393125,0.9941562500000001,0.022967898027075554,0.020859386341813772,True
18756,352,0,353,3916.0,40720.0,29803.0,-0.0011589999999999999,0.000366,-0.000732,0.35000000000000003,-1.0675000000000001,-3.7975000000000003,0.72753125,0.07709375,-0.0274375,1.01746875,0.6852812500000001,-0.48515625,-0.53971875,0.9868125,0.022962892058326155,0.02087559581341983,True
18757,353,0,354,3917.0,40720.0,29805.0,-0.0026839999999999998,0.0011589999999999999,0.000122,0.35000000000000003,-0.8575,-3.7975000000000003,0.7148125,0.07809375,-0.0316875,1.0074375,0.6855625,-0.49321875,-0.53653125,0.99565625,0.023325333670161257,0.020575188271569563,True
18758,354,0,355,3918.0,40720.0,29807.0,-0.00244,0.0011589999999999999,0.00122,0.36750000000000005,-0.8225000000000001,-3.9025000000000003,0.725625,0.08240625,-0.031,1.01115625,0.6800625,-0.48984375,-0.5376562500000001,0.9897812500000001,0.023366829361661404,0.020648111002859126,True
18759,355,0,356,3918.0,40722.0,29807.0,-0.000732,-0.00122,0.002074,0.35000000000000003,-1.0675000000000001,-3.9200000000000004,0.7116250000000001,0.07284375,-0.02721875,1.01715625,0.6934375,-0.48925,-0.539,0.98990625,0.022952673111671453,0.020855831533477323,True
18760,356,0,357,3920.0,40722.0,29807.0,0.000549,-0.00061,-0.000244,0.3325,-1.4000000000000001,-3.9550000000000005,0.711875,0.07596875,-0.0318125,1.00753125,0.68934375,-0.48978125,-0.53446875,0.9946875000000001,0.0231014721701526,0.020487757657275545,True
18761,357,0,358,3921.0,40722.0,29808.0,0.000793,0.000183,-0.001586,0.385,-1.6625,-4.025,0.7263437500000001,0.0751875,-0.025843750000000002,1.00446875,0.67278125,-0.48875,-0.5395,0.9859687500000001,0.023028431422592005,0.020931814014140463,True
18762,358,0,359,3924.0,40723.0,29806.0,0.002745,0.0021349999999999997,-0.002562,0.45500000000000007,-1.7500000000000002,-3.9550000000000005,0.71225,0.07446875,-0.02834375,1.0070000000000001,0.6940625,-0.48965625,-0.5364375,0.9956875000000001,0.023035235539494353,0.02070772295285328,True
18763,359,0,360,3923.0,40722.0,29809.0,0.003965,0.0006709999999999999,-0.0013419999999999999,0.42000000000000004,-1.8025000000000002,-4.0425,0.72665625,0.0775,-0.03025,1.0065,0.68503125,-0.48928125,-0.53628125,0.99240625,0.023144054095095175,0.02062379562917669,True
18764,360,0,361,3922.0,40724.0,29808.0,0.00366,-0.00122,-0.001647,0.47250000000000003,-1.5575,-4.0600000000000005,0.710125,0.07546875,-0.02634375,1.013125,0.6871875000000001,-0.48871875000000004,-0.53921875,0.99028125,0.023038669591482815,0.020900217126920553,True
18765,361,0,362,3922.0,40721.0,29809.0,-0.0006709999999999999,-0.001098,-0.002806,0.43750000000000006,-1.3650000000000002,-4.0600000000000005,0.7123125,0.07878125,-0.029,1.0071875000000001,0.67825,-0.48946875,-0.5288437500000001,0.99303125,0.02320385165562238,0.020377795019384068,True
18766,362,0,363,3925.0,40723.0,29807.0,-0.002196,-0.0006709999999999999,-0.001586,0.42000000000000004,-1.0150000000000001,-4.0425,0.72284375,0.08346875000000001,-0.0261875,1.01765625,0.6854375,-0.48884375,-0.53909375,0.989375,0.023370335726855214,0.020901597068962663,True
18767,363,0,364,3926.0,40724.0,29808.0,-0.00488,6.1e-05,0.003111,0.56,-1.0150000000000001,-4.0075,0.712125,0.07446875,-0.0265625,1.00540625,0.68865625,-0.4885625,-0.5375,0.9886875,0.022991600670721278,0.02082272032603158,True
18768,364,0,365,3926.0,40723.0,29810.0,-0.003355,-0.000793,0.0013419999999999999,0.47250000000000003,-1.12,-4.165,0.7127187500000001,0.07490625000000001,-0.029968750000000002,1.00178125,0.68653125,-0.48890625,-0.53621875,0.99259375,0.02302318013896599,0.020632763554897796,True
18769,365,0,366,3927.0,40724.0,29808.0,-0.000915,0.000244,0.00183,0.5075000000000001,-1.4875,-4.112500000000001,0.7201875,0.0835,-0.03109375,1.00675,0.68590625,-0.48828125,-0.53671875,0.99284375,0.023349178497368003,0.02060687107969561,True
18770,366,0,367,3927.0,40725.0,29810.0,-0.0006709999999999999,0.0006709999999999999,0.001586,0.56,-1.6275000000000002,-4.1475,0.7221875,0.07831250000000001,-0.03009375,1.00825,0.6858125,-0.48912500000000003,-0.536375,0.9906875,0.0231709993721703,0.020633905782740932,True
18771,367,0,368,3928.0,40724.0,29812.0,0.000732,0.000549,0.000122,0.56,-1.8550000000000002,-4.0425,0.71590625,0.0741875,-0.02390625,1.0128125000000001,0.68596875,-0.48871875000000004,-0.537,0.9897812500000001,0.02298634958188656,0.020911022129844727,True
18772,368,0,369,3927.0,40726.0,29814.0,0.001464,0.0006709999999999999,-0.000915,0.5425000000000001,-2.0125,-4.025,0.71434375,0.0744375,-0.02525,1.01296875,0.69078125,-0.481125,-0.53303125,0.991125,0.022693503668642683,0.02069786015537725,True
18773,369,0,370,3929.0,40728.0,29814.0,0.00366,-6.1e-05,-0.003904,0.5075000000000001,-2.1700000000000004,-4.0600000000000005,0.7145,0.07559375,-0.02853125,1.00896875,0.68659375,-0.489875,-0.53071875,0.9999687500000001,0.02308989939719986,0.020471780917548536,True
18774,370,0,371,3930.0,40729.0,29813.0,0.004514,0.0,-0.000122,0.42000000000000004,-2.205,-3.8850000000000002,0.7218125,0.077125,-0.02609375,1.01384375,0.68578125,-0.48884375,-0.544125,0.9876875,0.02311128919673882,0.021106120100023933,True
18775,371,0,372,3932.0,40728.0,29814.0,0.0032329999999999998,0.0,0.001647,0.47250000000000003,-2.1525000000000003,-4.095000000000001,0.714125,0.07496875,-0.027125,1.00915625,0.6880625,-0.4856875,-0.5343125,1.008375,0.02289730480306097,0.02067257845517375,True
18776,372,0,373,3933.0,40727.0,29814.0,0.003172,0.000244,0.002623,0.45500000000000007,-1.8375000000000001,-4.1475,0.7145625,0.07821875,-0.0314375,1.00834375,0.6770625,-0.4988125,-0.53790625,0.99359375,0.023553437539064394,0.020640259394584654,True
18777,373,0,374,3933.0,40728.0,29816.0,0.00061,6.1e-05,0.0013419999999999999,0.56,-1.4700000000000002,-4.1475,0.71990625,0.077,-0.02771875,1.01653125,0.67378125,-0.4903125,-0.531625,1.00240625,0.02316477178476183,0.020541087270003516,True
18778,374,0,375,3934.0,40729.0,29814.0,-0.007808,0.000793,-0.001098,0.6125,-1.1025,-4.095000000000001,0.71475,0.07534375,-0.02696875,1.00265625,0.67396875,-0.497,-0.529375,0.97203125,0.023363830264930403,0.020481820266517188,True
18779,375,0,376,3935.0,40729.0,29817.0,-0.006405,-0.000488,0.001647,0.5425000000000001,-1.0325000000000002,-3.9725000000000006,0.7134375000000001,0.078875,-0.0269375,1.0090937500000001,0.7030625,-0.48625,-0.54425,0.978125,0.023079279187298997,0.021076728765393116,True
18780,376,0,377,3937.0,40729.0,29817.0,-0.0040869999999999995,-0.000244,-0.000305,0.5950000000000001,-1.3475000000000001,-3.9725000000000006,0.7233437500000001,0.0778125,-0.02784375,1.014625,0.69953125,-0.49171875000000004,-0.53315625,1.01240625,0.02325403357002048,0.020597125573681537,True
18781,377,0,378,3938.0,40731.0,29820.0,-0.00042699999999999997,-0.0011589999999999999,-0.000915,0.6300000000000001,-1.8900000000000001,-4.077500000000001,0.71503125,0.07328125,-0.0270625,1.00971875,0.6740625,-0.48765625,-0.5404375,0.9785312500000001,0.02290694929205403,0.02091955369581329,True
18782,378,0,379,3938.0,40731.0,29820.0,0.003538,-0.0008539999999999999,-0.0006709999999999999,0.5075000000000001,-2.345,-4.025,0.722875,0.077,-0.027625,1.012,0.69246875,-0.49225,-0.53371875,1.0091875000000001,0.023242045953311766,0.020628497259511464,True
18783,379,0,380,3939.0,40730.0,29820.0,0.0062829999999999995,0.0008539999999999999,0.002257,0.42000000000000004,-2.5025000000000004,-3.99,0.71428125,0.07471875,-0.027,1.0179375,0.674625,-0.49678125,-0.5308437500000001,1.0105625,0.02332959559738078,0.02053919364269727,True
18784,380,0,381,3940.0,40733.0,29818.0,0.005856,0.001769,0.000244,0.5425000000000001,-2.1700000000000004,-3.8325000000000005,0.71484375,0.07565625000000001,-0.02825,1.0030937500000001,0.6714687500000001,-0.50075,-0.53053125,1.01009375,0.02352606552860627,0.020475759162370363,True
18785,381,0,382,3941.0,40731.0,29821.0,0.001403,0.0023179999999999997,-0.004331,0.5950000000000001,-2.1700000000000004,-3.7625,0.7149375,0.0773125,-0.02821875,1.011875,0.6743750000000001,-0.49443750000000003,-0.5309375000000001,0.98990625,0.02334203428839711,0.020493254691142566,True
18786,382,0,383,3941.0,40732.0,29819.0,-0.001464,0.000549,-0.003843,0.7350000000000001,-1.7500000000000002,-3.7625,0.71540625,0.07540625000000001,-0.02834375,1.01571875,0.68553125,-0.4918125,-0.52990625,1.0021875,0.0231595252495094,0.020446979898261945,True
18787,383,0,384,3944.0,40733.0,29821.0,-0.004575,-0.001586,-0.0006709999999999999,0.5775,-1.155,-3.8150000000000004,0.7148125,0.0755625,-0.0276875,1.0063125,0.6745625000000001,-0.4925,-0.53046875,1.0046875,0.023193324487087885,0.020496194146310393,True
18788,384,0,385,3945.0,40731.0,29822.0,-0.00366,-0.002074,0.002562,0.56,-0.7875000000000001,-3.7625,0.70859375,0.0780625,-0.029812500000000002,1.0056875,0.6733125,-0.49365625,-0.5335625,0.99003125,0.023341502965691374,0.020533096243156697,True
18789,385,0,386,3944.0,40734.0,29825.0,-0.005307,-0.000732,0.000244,0.56,-0.665,-3.9200000000000004,0.70803125,0.08140625,-0.02803125,1.01596875,0.693875,-0.4870625,-0.53759375,0.98009375,0.023215065098151317,0.02076660430487403,True
18790,386,0,387,3946.0,40735.0,29824.0,-0.0068319999999999995,0.003294,-0.003294,0.6300000000000001,-0.8400000000000001,-3.7975000000000003,0.71540625,0.076375,-0.02790625,1.01603125,0.6940000000000001,-0.48821875000000003,-0.53859375,0.98865625,0.023055729604669593,0.020811604169452456,True
18791,387,0,388,3948.0,40735.0,29825.0,-0.0037819999999999998,0.0023179999999999997,-0.004209,0.6300000000000001,-1.1725,-3.6575,0.7143125,0.076,-0.0275625,1.013875,0.69103125,-0.4888125,-0.5391875,0.9902500000000001,0.023064103251229512,0.020849304810927418,True
18792,388,0,389,3948.0,40736.0,29827.0,-0.00042699999999999997,0.00122,-0.001647,0.5425000000000001,-2.0125,-3.5875000000000004,0.7146875,0.077125,-0.02703125,1.01196875,0.6935625,-0.488375,-0.54021875,0.9895625,0.023092589851306997,0.020912099652738426,True
18793,389,0,390,3949.0,40736.0,29827.0,0.014884,-0.000122,0.006344,0.36750000000000005,-4.025,-3.8500000000000005,0.71425,0.07709375,-0.02753125,1.01215625,0.69015625,-0.48825,-0.53759375,0.98984375,0.02308632711606587,0.02078698120103973,True
18794,390,0,391,3949.0,40734.0,29825.0,0.022265,-0.00183,0.0070149999999999995,0.4025,-3.9725000000000006,-3.9025000000000003,0.71496875,0.0765625,-0.028875,1.01,0.6919062500000001,-0.488375,-0.53621875,0.9944375,0.023069619768563653,0.020677340513195416,True
18795,391,0,392,3947.0,40735.0,29821.0,0.017446,-0.0032329999999999998,0.000915,0.45500000000000007,-3.1325000000000003,-4.077500000000001,0.71465625,0.07790625,-0.0290625,1.01015625,0.685,-0.4909375,-0.5366875,0.99509375,0.023226703755215575,0.020688407919773198,True
18796,392,0,393,3946.0,40732.0,29821.0,0.002745,-0.0021349999999999997,-0.0062829999999999995,0.56,-1.8025000000000002,-4.0425,0.719125,0.077125,-0.029593750000000002,1.00946875,0.685,-0.49171875000000004,-0.53696875,0.99846875,0.023225962857343366,0.020677982075516153,True
18797,393,0,394,3943.0,40730.0,29819.0,-0.012749,6.1e-05,-0.007442,0.6825000000000001,-0.07,-3.9375000000000004,0.7199375,0.07981250000000001,-0.02759375,1.010875,0.6825625,-0.49140625,-0.5364375,0.988,0.023323232001020766,0.020738289737456794,True
18798,394,0,395,3945.0,40732.0,29815.0,-0.024095,0.001403,0.004697,0.56,1.225,-3.7100000000000004,0.72240625,0.07740625,-0.025406250000000002,1.00975,0.68565625,-0.4921875,-0.53725,0.98553125,0.023256140350877193,0.02085986612191668,True
18799,395,0,396,3940.0,40728.0,29814.0,-0.015921,0.000549,0.008662,0.5425000000000001,0.77,-3.9025000000000003,0.7212500000000001,0.0776875,-0.03215625,1.0033125,0.68096875,-0.4920625,-0.53590625,0.9959375,0.02326263866099476,0.020531134854658163,True
18800,396,0,397,3940.0,40727.0,29809.0,-0.006405,-0.003111,0.0055509999999999995,0.4025,0.052500000000000005,-3.99,0.7326875,0.0801875,-0.032875,1.0070937500000001,0.68659375,-0.491875,-0.53696875,0.9951875,0.02335723581800087,0.02054425528825764,True
18801,397,0,398,3938.0,40724.0,29806.0,-0.0021349999999999997,-0.004331,-0.004514,0.43750000000000006,-0.9625000000000001,-3.9025000000000003,0.72528125,0.07853125,-0.03328125,1.00453125,0.68559375,-0.49165625,-0.53553125,0.98571875,0.023280887751313272,0.020470312824386064,True
18802,398,0,399,3934.0,40725.0,29804.0,0.0006709999999999999,-0.003538,-0.0055509999999999995,0.45500000000000007,-1.8725000000000003,-3.7275000000000005,0.73,0.07915625,-0.03009375,1.0049062500000001,0.68575,-0.4896875,-0.5359375000000001,0.9963125,0.02322788929013488,0.020616442717951985,True
18803,399,0,400,3932.0,40723.0,29802.0,0.011651,0.005246,0.000549,0.28,-3.115,-3.9200000000000004,0.7289375,0.07971875,-0.02775,1.0045,0.68575,-0.48890625,-0.5369375,0.9831562500000001,0.023219697694746983,0.02075187663497125,True
18804,400,0,401,3930.0,40719.0,29797.0,0.020313,0.007076,0.0018909999999999999,0.2625,-3.4125000000000005,-4.2175,0.728875,0.07918750000000001,-0.02890625,1.0190000000000001,0.6912812500000001,-0.48853125000000003,-0.5388125,0.98965625,0.023183046145325684,0.020779581326520996,True
18805,401,0,402,3927.0,40717.0,29794.0,0.022082,0.0062829999999999995,-0.00122,0.21000000000000002,-3.6050000000000004,-4.2700000000000005,0.7081875,0.069625,-0.025125,1.01459375,0.69246875,-0.48884375,-0.5385,0.99303125,0.022805027289212056,0.020921205452656032,True
18806,402,0,403,3926.0,40716.0,29791.0,0.015127999999999999,0.0028669999999999998,-0.003477,0.35000000000000003,-3.2900000000000005,-4.2525,0.7149375,0.07959375,-0.030125,1.00078125,0.686,-0.49203125000000003,-0.53653125,0.99734375,0.02333922385469764,0.02063886882951314,True
18807,403,0,404,3924.0,40711.0,29788.0,0.007686,-0.000183,-0.0021349999999999997,0.31500000000000006,-2.3275,-4.0075,0.72628125,0.07809375,-0.03403125,1.00453125,0.6859375,-0.49234375,-0.535125,0.9951562500000001,0.023290441528283714,0.02042352545585156,True
18808,404,0,405,3923.0,40711.0,29788.0,-0.00793,-0.0025009999999999998,-0.0011589999999999999,0.43750000000000006,-0.07,-3.99,0.73190625,0.077875,-0.02903125,1.00796875,0.6864375,-0.49071875000000004,-0.53671875,0.9969687500000001,0.023216703266415978,0.020690928773840232,True
18809,405,0,406,3923.0,40712.0,29787.0,-0.017019,-0.004758,-0.000488,0.6300000000000001,0.6125,-3.9550000000000005,0.72178125,0.07540625000000001,-0.031875,1.001625,0.685625,-0.48996875,-0.5373125,0.99653125,0.023085982908818532,0.020598731014246162,True
18810,406,0,407,3922.0,40713.0,29789.0,-0.020191,-0.0055509999999999995,0.001647,0.56,0.7525000000000001,-3.8500000000000005,0.70559375,0.0710625,-0.025625000000000002,1.026125,0.6724375,-0.49121875000000004,-0.53690625,0.98965625,0.022958483844337067,0.02083723370789665,True
18811,407,0,408,3922.0,40714.0,29787.0,-0.018056,-0.003904,0.004575,0.5425000000000001,0.45500000000000007,-3.7800000000000002,0.70828125,0.0765625,-0.0249375,1.00046875,0.69346875,-0.48853125000000003,-0.53625,0.993125,0.023075853109810335,0.02083906464924347,True
18812,408,0,409,3921.0,40713.0,29789.0,-0.012871,-0.002989,0.004026,0.5075000000000001,-0.21000000000000002,-3.7975000000000003,0.72696875,0.07943750000000001,-0.03284375,1.00521875,0.68646875,-0.49275,-0.5367500000000001,0.9930625000000001,0.023361504935133868,0.02053679684554801,True
18813,409,0,410,3920.0,40713.0,29787.0,0.00244,0.0011589999999999999,-0.0030499999999999998,0.35000000000000003,-1.8200000000000003,-3.8675,0.71484375,0.07646875,-0.02665625,1.0139375,0.68721875,-0.48471875000000003,-0.5390625,0.98459375,0.022919907952791987,0.020881248010187835,True
18814,410,0,411,3919.0,40714.0,29789.0,0.008662,0.0026839999999999998,-0.002928,0.22750000000000004,-2.4850000000000003,-3.9550000000000005,0.71175,0.0765625,-0.0270625,1.01778125,0.6913125,-0.489875,-0.53846875,0.9893125,0.023129456561129854,0.02084100092838923,True
18815,411,0,412,3920.0,40714.0,29789.0,0.014091,0.002745,-0.000732,0.28,-2.7825,-3.9725000000000006,0.7156250000000001,0.07384375,-0.02346875,1.01478125,0.6914375,-0.48821875000000003,-0.54053125,0.988625,0.022952363572789465,0.021069735399473065,True
18816,412,0,413,3920.0,40711.0,29787.0,0.015433,0.0026839999999999998,-0.0006709999999999999,0.31500000000000006,-3.0275000000000003,-4.0425,0.71459375,0.07465625000000001,-0.0273125,1.0115625,0.69365625,-0.48809375,-0.53934375,0.9900625000000001,0.022980555601638038,0.020865727104051022,True
18817,413,0,414,3920.0,40712.0,29789.0,0.013481,0.00183,-0.001037,0.15750000000000003,-2.8525000000000005,-4.130000000000001,0.7154375000000001,0.0765,-0.021812500000000002,1.0149375,0.6929062500000001,-0.48846875,-0.53909375,0.990375,0.023070807561211847,0.02107988401160903,True
18818,414,0,415,3920.0,40712.0,29790.0,0.000183,0.0008539999999999999,-0.000183,0.31500000000000006,-1.3475000000000001,-4.235,0.702625,0.0755625,-0.02815625,1.014875,0.69428125,-0.48878125,-0.5398125,0.98909375,0.02304499126513289,0.020850047244656007,True
18819,415,0,416,3920.0,40710.0,29789.0,-0.0068319999999999995,-0.000366,0.002806,0.385,-0.6300000000000001,-4.0425,0.71459375,0.07478125000000001,-0.02753125,1.01609375,0.69275,-0.48821875000000003,-0.53921875,0.9908125,0.022990647288300626,0.020851825203277916,True
18820,416,0,417,3920.0,40712.0,29791.0,-0.008905999999999999,-0.001464,0.0028669999999999998,0.3325,-0.10500000000000001,-3.9200000000000004,0.71515625,0.0760625,-0.02725,1.009625,0.692875,-0.4890625,-0.53715625,0.9944375,0.023076628596950168,0.020780983941445945,True
18821,417,0,418,3920.0,40714.0,29792.0,-0.008905999999999999,-0.002257,0.000244,0.4025,-0.0175,-3.8850000000000002,0.7145625,0.07725,-0.03090625,1.0090625,0.6862812500000001,-0.49209375,-0.5325625,0.99521875,0.023246021994342565,0.020448587464110202,True
18822,418,0,419,3920.0,40713.0,29793.0,-0.006893,-0.0018909999999999999,-0.002562,0.45500000000000007,-0.36750000000000005,-3.9375000000000004,0.7155625,0.0743125,-0.02778125,1.0158125,0.68253125,-0.489875,-0.5368125,0.98903125,0.023037581857808586,0.020745614370244712,True
18823,419,0,420,3920.0,40713.0,29792.0,-0.000122,-0.0006709999999999999,-0.001098,0.36750000000000005,-1.0850000000000002,-3.7450000000000006,0.708875,0.0741875,-0.025906250000000002,1.01528125,0.68759375,-0.488875,-0.54015625,0.9902500000000001,0.02299258336693703,0.020955449295478712,True
18824,420,0,421,3920.0,40713.0,29792.0,0.003111,0.000732,-0.000915,0.385,-1.5225000000000002,-3.8150000000000004,0.715125,0.0768125,-0.026125,1.009125,0.69259375,-0.482,-0.537,0.9900625000000001,0.022825443182746506,0.02082059746505278,True
18825,421,0,422,3921.0,40713.0,29792.0,0.004392,0.001464,-0.000793,0.4025,-1.8025000000000002,-3.9375000000000004,0.71971875,0.07678125,-0.03046875,1.00996875,0.686125,-0.48812500000000003,-0.53690625,0.99590625,0.023068579158265486,0.020639826995304266,True
18826,422,0,423,3920.0,40713.0,29790.0,0.0037819999999999998,0.0017079999999999999,-0.000549,0.4025,-1.8375000000000001,-4.0600000000000005,0.71496875,0.0735625,-0.02728125,1.01609375,0.68625,-0.4889375,-0.538875,0.9814375000000001,0.022969555130760575,0.020848296835123858,True
18827,423,0,424,3920.0,40715.0,29791.0,0.003355,0.000549,0.00122,0.43750000000000006,-1.6275000000000002,-4.0600000000000005,0.7145312500000001,0.07528125000000001,-0.02790625,1.01634375,0.69178125,-0.4890625,-0.53940625,0.989375,0.023044726599885153,0.020844025107575697,True
18828,424,0,425,3919.0,40713.0,29792.0,-0.000976,-0.001037,0.002196,0.385,-1.225,-3.9025000000000003,0.71528125,0.07571875,-0.02753125,1.017125,0.6920000000000001,-0.4844375,-0.539125,0.989625,0.02287805264058037,0.020848084436588508,True
18829,425,0,426,3920.0,40712.0,29793.0,-0.00122,0.000976,0.001037,0.43750000000000006,-1.12,-3.8675,0.71865625,0.07625,-0.02746875,1.0095625,0.69003125,-0.48996875,-0.5364375,0.99503125,0.0231204357906745,0.020743384201557375,True
18830,426,0,427,3920.0,40713.0,29792.0,-0.004148,-0.000488,-0.000183,0.47250000000000003,-0.7875000000000001,-3.7625,0.72240625,0.081625,-0.0268125,1.0138125,0.6862812500000001,-0.49146875,-0.53209375,0.9892500000000001,0.02339972975283485,0.020596743806263987,True
18831,427,0,428,3921.0,40714.0,29790.0,-0.0035989999999999998,0.000122,-0.001464,0.525,-0.805,-3.7275000000000005,0.7154375000000001,0.075,-0.0270625,1.01459375,0.69359375,-0.48909375,-0.53790625,0.98940625,0.02303448856697688,0.020818554965340616,True
18832,428,0,429,3920.0,40714.0,29790.0,-0.001769,-0.000549,-0.00042699999999999997,0.5425000000000001,-0.9100000000000001,-3.6225000000000005,0.7150625,0.0754375,-0.02740625,1.00971875,0.69246875,-0.48865625,-0.5381875,0.98909375,0.023034900087668148,0.020815769298364033,True
18833,429,0,430,3921.0,40711.0,29790.0,0.002806,0.0013419999999999999,-0.002806,0.385,-1.9425000000000001,-3.6750000000000003,0.70921875,0.07584375,-0.02775,1.01415625,0.69221875,-0.48853125000000003,-0.539,0.990125,0.02304650263580018,0.02083418232201801,True
18834,430,0,431,3921.0,40710.0,29791.0,0.004026,0.001037,-0.0018909999999999999,0.4025,-2.2925000000000004,-3.7625,0.7154375000000001,0.07765625,-0.0223125,1.00321875,0.684875,-0.48871875000000004,-0.539125,0.98965625,0.023127996437134958,0.021060755018771044,True
18835,431,0,432,3920.0,40712.0,29791.0,0.0051849999999999995,-0.000244,0.000183,0.29750000000000004,-2.0125,-3.7450000000000006,0.7145312500000001,0.0775,-0.02690625,1.01046875,0.69084375,-0.48840625,-0.53634375,0.9900625000000001,0.02310914986556138,0.020762567772551685,True
18836,432,0,433,3921.0,40714.0,29792.0,0.0050019999999999995,-0.000488,0.002074,0.3325,-1.4875,-3.8325000000000005,0.7196875,0.0773125,-0.028125,1.00915625,0.68646875,-0.49075,-0.5374375,0.99775,0.023194981778834868,0.020756548029923664,True
18837,433,0,434,3921.0,40715.0,29794.0,-0.000915,-0.0006709999999999999,0.0021349999999999997,0.385,-1.0850000000000002,-3.9200000000000004,0.7180625,0.0775625,-0.0285,1.009875,0.686875,-0.49162500000000003,-0.53640625,0.9899375,0.023240087172655962,0.02070010762069119,True
18838,434,0,435,3924.0,40716.0,29795.0,-0.0064659999999999995,0.000915,0.001952,0.525,-0.7350000000000001,-3.7800000000000002,0.717875,0.07734375,-0.02875,1.010625,0.6860625,-0.49146875,-0.536375,1.000125,0.02322492398501009,0.020688671411322985,True
18839,435,0,436,3922.0,40716.0,29795.0,-0.004514,0.0006709999999999999,0.0011589999999999999,0.42000000000000004,-0.6825000000000001,-3.7275000000000005,0.71946875,0.078375,-0.02659375,1.0046875,0.68665625,-0.49309375,-0.5367500000000001,1.00096875,0.02333183205980257,0.02079151680642302,True
18840,436,0,437,3923.0,40714.0,29795.0,-0.002379,-0.0008539999999999999,0.000976,0.42000000000000004,-0.8225000000000001,-3.7975000000000003,0.71978125,0.07728125,-0.02890625,1.01059375,0.68515625,-0.487875,-0.536125,1.00053125,0.023079023802596185,0.02067232499019303,True
18841,437,0,438,3924.0,40715.0,29795.0,-0.001952,-0.0011589999999999999,-0.000122,0.5075000000000001,-1.2075,-3.8850000000000002,0.71625,0.0816875,-0.02771875,1.01203125,0.6850625,-0.493375,-0.5357500000000001,0.9933125,0.023478287496108644,0.020705755886818215,True
18842,438,0,439,3926.0,40718.0,29799.0,0.0025009999999999998,0.000244,-0.0023179999999999997,0.42000000000000004,-1.715,-3.7275000000000005,0.7155312500000001,0.07746875,-0.0285,1.0056875,0.67878125,-0.488375,-0.5348437500000001,0.98975,0.023106627124094593,0.020637740967883688,True
18843,439,0,440,3925.0,40718.0,29797.0,0.005612,0.000183,-0.002013,0.385,-2.1350000000000002,-3.7800000000000002,0.7096250000000001,0.078375,-0.029500000000000002,1.01046875,0.6871875000000001,-0.48946875,-0.5348437500000001,0.994625,0.023187262892340202,0.02059698260764347,True
18844,440,0,441,3926.0,40719.0,29796.0,0.007503,-0.001403,-0.001464,0.42000000000000004,-2.0475000000000003,-3.7800000000000002,0.7440625,0.084875,-0.025625000000000002,1.01625,0.68371875,-0.493875,-0.5326875,0.99440625,0.02362835606860899,0.02066885252583925,True
18845,441,0,442,3928.0,40717.0,29796.0,0.005673,-6.1e-05,0.0,0.43750000000000006,-1.9775000000000003,-3.9200000000000004,0.7074375,0.0669375,-0.025500000000000002,1.02171875,0.68759375,-0.48746875,-0.539625,0.9875625,0.02264040663655773,0.02095080915050658,True
18846,442,0,443,3928.0,40718.0,29798.0,0.002623,-0.000183,-0.00042699999999999997,0.43750000000000006,-1.5225000000000002,-3.9550000000000005,0.71715625,0.08059375,-0.029781250000000002,1.0140625,0.6970937500000001,-0.48809375,-0.538375,0.98771875,0.023223020370869006,0.020726464160727844,True
18847,443,0,444,3929.0,40716.0,29799.0,-0.003111,0.0,0.001281,0.47250000000000003,-0.665,-3.9550000000000005,0.7089375,0.0725625,-0.02615625,1.0267187500000001,0.6866875,-0.48762500000000003,-0.5409375,0.979375,0.02287635080984783,0.02097642969018604,True
18848,444,0,445,3930.0,40718.0,29798.0,-0.005063,0.000183,0.0021349999999999997,0.525,-0.7000000000000001,-3.9375000000000004,0.70253125,0.0670625,-0.0226875,1.02434375,0.69928125,-0.48812500000000003,-0.5395,0.988625,0.02267170312141089,0.02106043317916013,True
18849,445,0,446,3929.0,40716.0,29800.0,-0.005124,0.000732,0.0017079999999999999,0.5075000000000001,-0.77,-3.99,0.70375,0.06409375,-0.0231875,1.02921875,0.688375,-0.486875,-0.5385,0.98809375,0.02250057428724572,0.02100016300914889,True
18850,446,0,447,3929.0,40719.0,29803.0,-0.004026,-0.000183,0.000122,0.36750000000000005,-0.8925000000000001,-3.8675,0.70325,0.06759375000000001,-0.026125,1.0198125,0.69853125,-0.4876875,-0.53834375,0.97875,0.02267593663141936,0.0208742185380788,True
18851,447,0,448,3932.0,40720.0,29802.0,-0.002623,-0.000915,0.000549,0.43750000000000006,-1.0150000000000001,-3.9375000000000004,0.71,0.07528125000000001,-0.026000000000000002,1.02740625,0.69525,-0.4883125,-0.5367500000000001,0.97565625,0.02301480553223094,0.020815715202706146,True
18852,448,0,449,3934.0,40721.0,29803.0,0.001403,-0.000366,-0.0026839999999999998,0.47250000000000003,-1.4875,-3.8325000000000005,0.7087187500000001,0.0723125,-0.0303125,1.00684375,0.6946875,-0.48762500000000003,-0.5330625,0.98803125,0.022866141571508056,0.020492753401659496,True
18853,449,0,450,3933.0,40722.0,29805.0,0.0026839999999999998,0.000915,-0.000793,0.47250000000000003,-1.6275000000000002,-4.0075,0.7231562500000001,0.0773125,-0.031843750000000004,1.01165625,0.6885625,-0.48740625,-0.5371875,0.985,0.023061599265949206,0.020595015219246296,True
18854,450,0,451,3934.0,40721.0,29804.0,0.0030499999999999998,0.0013419999999999999,-0.000793,0.385,-1.8200000000000003,-4.0075,0.712875,0.07371875,-0.0264375,1.02146875,0.69259375,-0.48503125,-0.53815625,0.9903125,0.022820064810005095,0.02085400161228495,True
18855,451,0,452,3935.0,40725.0,29806.0,0.003172,-6.1e-05,0.000183,0.35000000000000003,-1.8375000000000001,-3.9725000000000006,0.7106250000000001,0.072625,-0.025562500000000002,1.0234375,0.6926875,-0.48812500000000003,-0.5377500000000001,0.99040625,0.022898854036395196,0.02087345009220487,True
18856,452,0,453,3935.0,40722.0,29806.0,0.003843,-0.00122,0.000549,0.35000000000000003,-1.8200000000000003,-4.0075,0.7030625,0.0753125,-0.023375,1.01896875,0.692875,-0.48803125,-0.53721875,0.9854375,0.023004860792963912,0.020941401518866108,True
18857,453,0,454,3937.0,40723.0,29807.0,-0.00061,0.00042699999999999997,-0.000122,0.29750000000000004,-1.3125000000000002,-3.9025000000000003,0.707875,0.072625,-0.0236875,1.01778125,0.69534375,-0.48781250000000004,-0.53946875,0.98971875,0.02288638480876967,0.02101843586161579,True
18858,454,0,455,3937.0,40723.0,29809.0,-0.0011589999999999999,0.00042699999999999997,0.002196,0.31500000000000006,-1.12,-3.9725000000000006,0.71140625,0.07959375,-0.02775,1.00171875,0.6950937500000001,-0.4879375,-0.53903125,0.99334375,0.023175951425063873,0.020835429271479487,True
18859,455,0,456,3939.0,40725.0,29807.0,-0.002989,0.00061,-0.00042699999999999997,0.385,-1.0675000000000001,-3.9375000000000004,0.7225,0.0785,-0.029312500000000002,1.00965625,0.6861875000000001,-0.4915,-0.53709375,0.98721875,0.023273380560602658,0.02069443330060228,True
18860,456,0,457,3940.0,40726.0,29810.0,-0.002745,0.001586,0.001647,0.385,-1.155,-3.8500000000000005,0.70409375,0.0751875,-0.027875,1.00853125,0.6935625,-0.48840625,-0.539,0.99003125,0.023014717423678808,0.02082908838990994,True
18861,457,0,458,3940.0,40727.0,29810.0,-0.0015249999999999999,-6.1e-05,-0.000366,0.49000000000000005,-1.12,-3.8850000000000002,0.7155,0.078,-0.029437500000000002,1.0105625,0.687,-0.491375,-0.5366875,0.99784375,0.023247980156279505,0.02067312468319124,True
18862,458,0,459,3942.0,40727.0,29812.0,-0.000244,-0.0008539999999999999,0.000732,0.45500000000000007,-1.54,-3.9375000000000004,0.71,0.08228125,-0.03103125,1.010625,0.6795,-0.48559375,-0.5360625,0.996625,0.023192208683932774,0.020583223163863396,True
18863,459,0,460,3942.0,40726.0,29810.0,0.0008539999999999999,-0.002257,0.000488,0.36750000000000005,-1.5575,-3.9200000000000004,0.7224375000000001,0.07865625,-0.029656250000000002,1.00959375,0.686875,-0.4910625,-0.5357500000000001,0.9995,0.02326231252727398,0.02062678948065578,True
18864,460,0,461,3944.0,40728.0,29810.0,0.000976,-0.001952,-0.001769,0.42000000000000004,-1.7500000000000002,-3.9025000000000003,0.7240625,0.07803125,-0.03040625,1.0099375,0.6773125,-0.4914375,-0.53703125,0.9793125,0.02325174869788676,0.020647363360227208,True
18865,461,0,462,3944.0,40729.0,29813.0,0.0011589999999999999,-0.001281,-0.002257,0.43750000000000006,-1.7675,-4.0075,0.71540625,0.07675,-0.02721875,1.00715625,0.69240625,-0.48740625,-0.539375,0.987,0.02303862827448293,0.020870794386572605,True
18866,462,0,463,3945.0,40730.0,29811.0,0.003172,-0.000244,-0.0023179999999999997,0.5075000000000001,-1.6275000000000002,-3.9200000000000004,0.7174375000000001,0.079125,-0.029687500000000002,1.0108125000000001,0.67409375,-0.4899375,-0.5370625,0.99546875,0.02323658441349636,0.020677903070100586,True
18867,463,0,464,3945.0,40729.0,29811.0,0.001586,0.000732,0.0015249999999999999,0.35000000000000003,-1.225,-3.9375000000000004,0.70278125,0.07778125,-0.02428125,1.01371875,0.68671875,-0.49196875,-0.53603125,0.996,0.023262727705383013,0.02085708135866512,True
18868,464,0,465,3946.0,40731.0,29813.0,0.0011589999999999999,0.001403,0.0030499999999999998,0.4025,-1.1375000000000002,-3.7800000000000002,0.7151875,0.07809375,-0.027875,1.0145,0.6768125,-0.48878125,-0.53703125,0.98940625,0.023148354922726096,0.02075052376191598,True
18869,465,0,466,3948.0,40726.0,29812.0,-0.00244,0.001586,0.000732,0.45500000000000007,-1.1725,-3.8500000000000005,0.71509375,0.07565625000000001,-0.02846875,1.00984375,0.6915,-0.48812500000000003,-0.53578125,0.99621875,0.02302263852377428,0.020676435562857816,True
18870,466,0,467,3947.0,40730.0,29813.0,-0.00244,0.00122,-0.000549,0.36750000000000005,-1.2425000000000002,-3.8325000000000005,0.72278125,0.07765625,-0.0276875,1.01771875,0.67328125,-0.48778125,-0.53871875,0.99059375,0.02309059747909991,0.020825506629191876,True
18871,467,0,468,3949.0,40731.0,29815.0,-0.00183,0.001769,-0.001281,0.4025,-1.2775,-3.7975000000000003,0.7155625,0.07840625,-0.0300625,1.010125,0.6804375,-0.49140625,-0.5368437500000001,0.989375,0.023265813901559854,0.020653889113183114,True
18872,468,0,469,3950.0,40731.0,29816.0,-0.000305,0.001403,-0.001281,0.49000000000000005,-1.2950000000000002,-3.6050000000000004,0.7154375000000001,0.07690625,-0.02846875,1.0165625,0.69171875,-0.48765625,-0.5385625,0.990625,0.023054983059066746,0.020787434064240724,True
18873,469,0,470,3950.0,40733.0,29817.0,0.000366,-0.000549,-0.000549,0.49000000000000005,-1.4000000000000001,-3.7450000000000006,0.7087187500000001,0.077125,-0.02815625,1.0135,0.68725,-0.48765625,-0.53121875,0.9907812500000001,0.023063916131214068,0.02050703249303502,True
18874,470,0,471,3952.0,40734.0,29818.0,0.00122,-0.002806,-6.1e-05,0.385,-1.5575,-3.7625,0.71603125,0.07746875,-0.027625,1.01059375,0.6916875,-0.48775,-0.5375625,0.98965625,0.02308169390817858,0.02078191344392908,True
18875,471,0,472,3953.0,40734.0,29818.0,0.002013,-0.003294,0.00042699999999999997,0.35000000000000003,-1.4525000000000001,-3.8500000000000005,0.71946875,0.07825,-0.03025,1.00646875,0.691375,-0.486875,-0.5365,0.99503125,0.02307869011460221,0.020632527051535468,True
18876,472,0,473,3955.0,40734.0,29816.0,0.002074,-0.0011589999999999999,0.002745,0.385,-1.225,-3.8675,0.721625,0.07825,-0.027875,1.0171875,0.686625,-0.4901875,-0.5361875,0.989625,0.02321082678521755,0.020716849347519863,True
18877,473,0,474,3953.0,40733.0,29817.0,-0.004209,0.000488,0.001281,0.49000000000000005,-0.8750000000000001,-3.7100000000000004,0.7158125,0.075375,-0.028,1.01009375,0.69065625,-0.487,-0.5393125,0.98353125,0.022966267815575613,0.020836463939240348,True
18878,474,0,475,3952.0,40730.0,29814.0,-0.004392,0.001647,-0.000366,0.4025,-1.05,-3.7625,0.72453125,0.079125,-0.02796875,1.01040625,0.68853125,-0.4883125,-0.53659375,0.990375,0.02317176816491541,0.020729242419804093,True
18879,475,0,476,3950.0,40728.0,29816.0,-0.0040869999999999995,0.000793,-0.0011589999999999999,0.49000000000000005,-1.1375000000000002,-3.7275000000000005,0.7147187500000001,0.075375,-0.0278125,1.014,0.68771875,-0.48781250000000004,-0.5366562500000001,0.99271875,0.022998685570628247,0.02073810485077811,True
18880,476,0,477,3948.0,40729.0,29810.0,-0.0015249999999999999,-0.000183,-0.000305,0.49000000000000005,-1.2950000000000002,-3.7800000000000002,0.7159375,0.07765625,-0.029812500000000002,1.00284375,0.6863750000000001,-0.48253125,-0.53721875,0.98575,0.022881110383551537,0.02067904497122356,True
18881,477,0,478,3946.0,40726.0,29805.0,0.001464,-0.0006709999999999999,-0.000915,0.36750000000000005,-1.5925000000000002,-3.9375000000000004,0.71546875,0.07509375,-0.02815625,1.0110625,0.69365625,-0.48090625000000004,-0.540625,0.986625,0.02271157751768279,0.020882465299885397,True
18882,478,0,479,3945.0,40722.0,29803.0,0.005124,0.000183,-0.001281,0.385,-1.8200000000000003,-3.99,0.7051875,0.07459375,-0.02665625,1.0099375,0.7028125000000001,-0.4876875,-0.541875,0.9904375,0.02296179457533505,0.020993455064048688,True
18883,479,0,480,3941.0,40721.0,29799.0,0.003904,0.000549,0.001647,0.31500000000000006,-1.7850000000000001,-3.9375000000000004,0.71584375,0.074375,-0.02765625,1.01503125,0.696625,-0.48265625,-0.53503125,0.99146875,0.022752075767922444,0.020679614989281905,True
18884,480,0,481,3938.0,40719.0,29793.0,0.0017079999999999999,-6.1e-05,-0.0015249999999999999,0.3325,-1.54,-4.112500000000001,0.7156250000000001,0.07540625000000001,-0.02853125,1.00915625,0.6858125,-0.48962500000000003,-0.53378125,1.00675,0.023072270400220505,0.020594053352456624,True
18885,481,0,482,3935.0,40718.0,29790.0,-0.000122,0.000488,0.000915,0.35000000000000003,-1.2950000000000002,-4.130000000000001,0.716125,0.0776875,-0.029468750000000002,1.00428125,0.6774375,-0.4920625,-0.53890625,0.98503125,0.02326263866099476,0.020760399620500608,True
18886,482,0,483,3934.0,40714.0,29791.0,-0.00244,-0.000915,0.001769,0.385,-1.0325000000000002,-4.0075,0.7206875,0.077375,-0.02734375,1.0164375,0.70178125,-0.48571875000000003,-0.53609375,0.9845,0.022996823403437977,0.0207347593787214,True
18887,483,0,484,3932.0,40713.0,29787.0,-0.0028669999999999998,-0.000183,-0.000488,0.43750000000000006,-1.1725,-4.112500000000001,0.71609375,0.07584375,-0.02759375,1.01559375,0.6960937500000001,-0.48721875000000003,-0.5386562500000001,0.9912500000000001,0.022994138523796216,0.02082683317265998,True
18888,484,0,485,3929.0,40713.0,29783.0,-0.001037,0.0011589999999999999,-0.000915,0.525,-1.54,-4.0600000000000005,0.703125,0.07484375,-0.02728125,1.0170000000000001,0.6846875,-0.48828125,-0.53803125,0.98571875,0.022995693092997288,0.020814628312937695,True
18889,485,0,486,3926.0,40709.0,29781.0,0.0011589999999999999,0.00042699999999999997,-0.0018909999999999999,0.35000000000000003,-1.6450000000000002,-4.112500000000001,0.71590625,0.0755,-0.025718750000000002,1.01103125,0.69725,-0.48765625,-0.53953125,0.98565625,0.022997556166691125,0.02093815463569623,True
18890,486,0,487,3924.0,40708.0,29780.0,0.004331,-0.001098,-0.000549,0.42000000000000004,-1.5750000000000002,-4.0600000000000005,0.72171875,0.07796875,-0.02490625,1.0154375,0.70359375,-0.4851875,-0.53446875,1.00659375,0.022999874924380305,0.02076924938511253,True
18891,487,0,488,3925.0,40708.0,29780.0,0.0032329999999999998,-0.001647,-0.0021349999999999997,0.47250000000000003,-1.5225000000000002,-4.0075,0.71559375,0.0743125,-0.0278125,1.01340625,0.6818125,-0.49,-0.5335625,0.97971875,0.023042568395263373,0.02061461722079702,True
18892,488,0,489,3921.0,40706.0,29776.0,-0.002623,0.000244,0.001769,0.385,-0.9275000000000001,-3.9025000000000003,0.7176875,0.07553125000000001,-0.02734375,1.01009375,0.7047187500000001,-0.48675,-0.541875,0.98471875,0.02296267369087364,0.02096544171951002,True
18893,489,0,490,3920.0,40706.0,29778.0,-0.002745,0.00042699999999999997,0.003294,0.42000000000000004,-0.5425000000000001,-3.8150000000000004,0.7235,0.07840625,-0.02921875,1.01146875,0.69334375,-0.4883125,-0.535375,1.00165625,0.023142417428722372,0.02062965208398079,True
18894,490,0,491,3918.0,40706.0,29777.0,-0.003172,0.000244,0.003294,0.42000000000000004,-0.43750000000000006,-3.9550000000000005,0.7159375,0.075875,-0.0275,1.0075,0.68071875,-0.489,-0.5368437500000001,0.9855,0.02306647882722855,0.020758323898117503,True
18895,491,0,492,3918.0,40707.0,29778.0,-0.0015249999999999999,0.000732,0.00042699999999999997,0.49000000000000005,-0.5775,-3.9200000000000004,0.72003125,0.07803125,-0.0280625,1.0165625,0.69415625,-0.485875,-0.53378125,0.9995937500000001,0.023029859051391877,0.020613159661232408,True
18896,492,0,493,3916.0,40705.0,29774.0,-0.0021349999999999997,0.000305,-0.00183,0.5075000000000001,-0.8575,-3.8325000000000005,0.71578125,0.07893750000000001,-0.03059375,1.011125,0.68940625,-0.48809375,-0.53821875,0.9911562500000001,0.02315538546155721,0.020687116908190414,True
18897,493,0,494,3918.0,40703.0,29776.0,0.00366,-0.000366,-0.00122,0.43750000000000006,-1.4700000000000002,-3.7800000000000002,0.72146875,0.07906250000000001,-0.02865625,1.01328125,0.68653125,-0.49046875,-0.535875,0.99753125,0.023255220462041995,0.0206725356238569,True
18898,494,0,495,3917.0,40704.0,29777.0,0.0059169999999999995,-0.000366,-0.0011589999999999999,0.42000000000000004,-1.5925000000000002,-3.8675,0.7159375,0.07615625,-0.0275625,1.01678125,0.6870937500000001,-0.48778125,-0.5385625,0.98659375,0.023029342439915824,0.02082436573047015,True
18899,495,0,496,3917.0,40704.0,29777.0,0.004575,-0.000244,-6.1e-05,0.4025,-1.6975000000000002,-3.8325000000000005,0.71659375,0.07434375,-0.02309375,1.0110937500000001,0.68634375,-0.48781250000000004,-0.53925,0.9909375,0.02295657278493128,0.021033904866693154,True
18900,496,0,497,3916.0,40705.0,29776.0,0.002562,-0.000244,0.00122,0.42000000000000004,-1.4875,-3.9375000000000004,0.71809375,0.0780625,-0.029625000000000002,1.01071875,0.6936875,-0.4856875,-0.536875,0.9960625000000001,0.023023654124475774,0.020672966708270714,True
18901,497,0,498,3916.0,40706.0,29775.0,-0.003843,-0.000244,0.00183,0.35000000000000003,-1.1375000000000002,-3.8150000000000004,0.72359375,0.07881250000000001,-0.02825,1.0145625,0.68671875,-0.4871875,-0.535875,0.98521875,0.023114128562130708,0.020689093011763388,True
18902,498,0,499,3915.0,40706.0,29777.0,-0.0051849999999999995,-0.000915,0.001464,0.42000000000000004,-0.7350000000000001,-3.6750000000000003,0.7156875,0.077875,-0.024125,1.01578125,0.68578125,-0.48753125,-0.53403125,0.9901875,0.02308955705773729,0.020783630900445684,True
18903,499,0,500,3917.0,40704.0,29778.0,-0.004697,-0.000366,0.0011589999999999999,0.45500000000000007,-0.8400000000000001,-3.7800000000000002,0.7165625,0.0748125,-0.0275625,1.0156875,0.69365625,-0.48784375,-0.53321875,0.99040625,0.022976961783333825,0.02061108471549417,True
18904,500,0,501,3916.0,40706.0,29777.0,-0.0021349999999999997,0.000183,-0.000122,0.385,-0.8575,-3.7100000000000004,0.7164375000000001,0.07846875,-0.029531250000000002,1.0110625,0.6954375,-0.48784375,-0.5377500000000001,0.99265625,0.023126270560265234,0.02071170950881805,True
18905,501,0,502,3917.0,40706.0,29778.0,0.000915,0.000793,-0.000793,0.4025,-1.1025,-3.6750000000000003,0.72084375,0.07790625,-0.03109375,1.01071875,0.68659375,-0.48984375,-0.537375,0.99640625,0.023183079720547423,0.020633064865332985,True
18906,502,0,503,3915.0,40707.0,29776.0,0.001281,-0.0008539999999999999,-0.000122,0.525,-1.2425000000000002,-3.9375000000000004,0.7203437500000001,0.07846875,-0.0285625,1.01840625,0.6871875000000001,-0.49015625,-0.53621875,0.9935,0.023218512540114974,0.02069007678699473,True
18907,503,0,504,3917.0,40704.0,29776.0,0.0006709999999999999,0.000366,-0.000915,0.35000000000000003,-1.4875,-3.9025000000000003,0.7156875,0.0739375,-0.02478125,1.01521875,0.688125,-0.4871875,-0.5349375000000001,0.9845625,0.022915044857642387,0.020793052764043113,True
18908,504,0,505,3918.0,40705.0,29776.0,0.0008539999999999999,0.000915,-0.00061,0.45500000000000007,-1.6975000000000002,-3.8850000000000002,0.7150625,0.07534375,-0.02725,1.01953125,0.6840937500000001,-0.48865625,-0.538375,0.9899687500000001,0.023031071784512476,0.020829618913232848,True
18909,505,0,506,3917.0,40704.0,29779.0,0.0030499999999999998,-0.000183,-0.00122,0.385,-1.7850000000000001,-3.8325000000000005,0.7136875,0.077,-0.0275,1.0188125000000001,0.6824687500000001,-0.4880625,-0.53471875,0.9909687500000001,0.023075018695333696,0.02067350986038917,True
18910,506,0,507,3917.0,40706.0,29777.0,0.0050019999999999995,-0.00122,-0.00042699999999999997,0.45500000000000007,-1.8025000000000002,-3.7625,0.7131875,0.07309375,-0.02646875,1.0227187500000001,0.69578125,-0.48784375,-0.53925,0.99009375,0.022906773896742134,0.020896370100960706,True
18911,507,0,508,3917.0,40704.0,29776.0,0.000122,-0.000366,0.00042699999999999997,0.47250000000000003,-1.2075,-3.7275000000000005,0.7135625,0.075125,-0.02765625,1.01996875,0.6940625,-0.48421875000000003,-0.53928125,0.9898750000000001,0.0228450723999515,0.020849225158132943,True
18912,508,0,509,3915.0,40704.0,29775.0,-0.001769,0.0011589999999999999,0.0006709999999999999,0.5425000000000001,-0.8400000000000001,-3.6750000000000003,0.7136875,0.07678125,-0.0263125,1.0078125,0.6940937500000001,-0.48746875,-0.53721875,0.9926875000000001,0.023042397961202093,0.020821685424310774,True
18913,509,0,510,3917.0,40705.0,29776.0,-0.004697,0.0006709999999999999,0.001281,0.5425000000000001,-0.665,-3.8150000000000004,0.72484375,0.078875,-0.028875,1.00896875,0.6872812500000001,-0.48903125000000003,-0.5371875,0.99571875,0.02319022929908671,0.0207160050433653,True
18914,510,0,511,3915.0,40707.0,29778.0,-0.003721,0.000183,0.00244,0.56,-0.6125,-3.7100000000000004,0.72809375,0.0821875,-0.03309375,1.00846875,0.68771875,-0.48803125,-0.5363125,0.99484375,0.023285610189671742,0.02050914333602492,True
18915,511,0,512,3916.0,40707.0,29777.0,-0.002196,0.000976,0.001037,0.525,-0.7350000000000001,-3.6925000000000003,0.7283125,0.078625,-0.03325,1.00821875,0.6875625,-0.48915625,-0.5371875,0.9946875000000001,0.023185006629209613,0.02053770424992677,True
18916,512,0,513,3914.0,40707.0,29776.0,-0.000244,-0.000305,-0.001464,0.45500000000000007,-1.5050000000000001,-3.8675,0.7116875,0.07968750000000001,-0.02740625,1.0190625,0.68825,-0.48871875000000004,-0.5356562500000001,0.989375,0.023210942793811945,0.02071475059893701,True
18917,513,0,514,3914.0,40708.0,29777.0,0.0018909999999999999,-0.000793,0.000488,0.49000000000000005,-1.6275000000000002,-3.9025000000000003,0.7135312500000001,0.07340625,-0.0224375,1.022,0.69021875,-0.4824375,-0.53671875,0.9849375,0.022703774899864443,0.020959658674817718,True
18918,514,0,515,3915.0,40706.0,29776.0,0.0032329999999999998,-0.000732,0.0,0.45500000000000007,-1.715,-3.7975000000000003,0.71409375,0.080875,-0.02834375,1.01321875,0.69178125,-0.48681250000000004,-0.53815625,0.99028125,0.023183397185730075,0.020776316476507888,True
18919,515,0,516,3913.0,40707.0,29776.0,0.002806,-0.00042699999999999997,-0.000549,0.42000000000000004,-1.6800000000000002,-3.7800000000000002,0.7203125,0.07903125,-0.0284375,1.00971875,0.68678125,-0.4894375,-0.53590625,0.9934375,0.023212813687533657,0.020682698443225428,True
18920,516,0,517,3915.0,40707.0,29777.0,0.0017079999999999999,0.000976,-0.00183,0.385,-1.7325000000000002,-3.8500000000000005,0.7231875,0.07884375,-0.02653125,1.01440625,0.6808125,-0.48465625,-0.5381875,0.9909687500000001,0.023014413363471254,0.0208514280038002,True
18921,517,0,518,3916.0,40707.0,29777.0,-0.000732,0.001098,0.00183,0.43750000000000006,-1.1900000000000002,-3.8150000000000004,0.7155625,0.0763125,-0.0271875,1.01553125,0.690125,-0.4880625,-0.538,0.99146875,0.02304694379149024,0.02081720189094466,True
18922,518,0,519,3914.0,40707.0,29778.0,-0.001647,-0.000244,0.001098,0.42000000000000004,-0.8400000000000001,-3.7275000000000005,0.71659375,0.07893750000000001,-0.028375,1.0109062500000001,0.687125,-0.4886875,-0.53725,0.99740625,0.023179069927696208,0.020738876605976626,True
18923,519,0,520,3914.0,40707.0,29780.0,-0.003172,-6.1e-05,0.0018909999999999999,0.385,-0.7000000000000001,-3.8850000000000002,0.71825,0.07915625,-0.0291875,1.0105625,0.6881875000000001,-0.49,-0.5361875,0.99103125,0.023240353205389957,0.020663356929433312,True
18924,520,0,521,3916.0,40709.0,29780.0,-0.003843,0.00061,0.001586,0.43750000000000006,-0.9100000000000001,-3.8500000000000005,0.71503125,0.07609375,-0.02815625,1.01775,0.6950937500000001,-0.48753125,-0.5356562500000001,0.9938125,0.02301681595607969,0.02068418284104384,True
18925,521,0,522,3916.0,40709.0,29780.0,-0.002196,-0.000122,-0.000122,0.56,-1.2950000000000002,-3.7800000000000002,0.71621875,0.07971875,-0.029437500000000002,1.00334375,0.6878125,-0.49740625,-0.5363125,1.0154375,0.023558616537209934,0.020658157170112663,True
18926,522,0,523,3916.0,40711.0,29781.0,0.0060999999999999995,-0.0025009999999999998,-0.00183,0.42000000000000004,-1.8375000000000001,-3.7975000000000003,0.7166875,0.07765625,-0.028125,1.0181875,0.677625,-0.49953125000000004,-0.5338437500000001,1.00978125,0.023559124217937846,0.02061310714918041,True
18927,523,0,524,3917.0,40712.0,29783.0,0.005124,-0.0025009999999999998,-0.001952,0.385,-1.9775000000000003,-3.9550000000000005,0.716125,0.08240625,-0.02834375,1.01746875,0.6749375,-0.49828125,-0.5310312500000001,1.01265625,0.023703193463827182,0.020491902475563477,True
18928,524,0,525,3919.0,40711.0,29783.0,0.003111,-0.00061,-0.001647,0.385,-1.8725000000000003,-4.0425,0.7155625,0.077875,-0.02246875,1.0116875,0.675875,-0.4941875,-0.531875,1.01065625,0.023355030657783608,0.020765076049017856,True
18929,525,0,526,3919.0,40714.0,29786.0,0.0013419999999999999,0.000122,-0.00061,0.36750000000000005,-1.54,-3.9725000000000006,0.71590625,0.07884375,-0.02803125,1.01753125,0.6750625,-0.49675,-0.53196875,1.0105625,0.02349673936338494,0.02054207328957241,True
18930,526,0,527,3919.0,40715.0,29786.0,-0.002013,0.001403,0.0013419999999999999,0.36750000000000005,-1.0850000000000002,-4.0600000000000005,0.71559375,0.0759375,-0.02784375,1.0169375,0.67578125,-0.49346875,-0.53,0.9949687500000001,0.02324726872342244,0.02047110680799022,True
18931,527,0,528,3919.0,40712.0,29788.0,-0.004331,0.0017079999999999999,0.0015249999999999999,0.5425000000000001,-0.7175,-3.8675,0.71621875,0.07809375,-0.027625,1.00946875,0.6978125000000001,-0.484875,-0.539125,0.978,0.02299251068261529,0.020844264006968462,True
18932,528,0,529,3923.0,40713.0,29786.0,-0.004575,0.0023179999999999997,0.000183,0.385,-0.8225000000000001,-3.9025000000000003,0.709375,0.079125,-0.02890625,1.01065625,0.70815625,-0.484125,-0.54215625,0.98,0.02300470202631297,0.020912995368937884,True
18933,529,0,530,3922.0,40713.0,29787.0,-0.004514,0.000976,0.000793,0.49000000000000005,-1.0150000000000001,-3.9025000000000003,0.72209375,0.07884375,-0.0301875,1.0109375,0.7119375,-0.48271875000000003,-0.5413125,1.00190625,0.02293709721270233,0.020827125688571056,True
18934,530,0,531,3921.0,40714.0,29786.0,-0.002196,0.000244,-0.0015249999999999999,0.42000000000000004,-1.2775,-3.8150000000000004,0.7170625,0.07940625,-0.02771875,1.00775,0.667875,-0.50090625,-0.5306875,0.9785,0.023685348373593325,0.02050365486087579,True
18935,531,0,532,3923.0,40715.0,29788.0,0.000976,-0.000366,-0.0008539999999999999,0.43750000000000006,-1.7675,-3.8675,0.71475,0.08246875000000001,-0.0250625,1.01065625,0.7080625,-0.48328125,-0.5399375,0.9993125,0.023107605317404092,0.020981104780727334,True
18936,532,0,533,3923.0,40715.0,29789.0,0.0053679999999999995,-0.000976,-0.0011589999999999999,0.385,-2.1875,-3.7975000000000003,0.72459375,0.07890625,-0.02796875,1.0110625,0.67809375,-0.48915625,-0.53253125,1.0033750000000001,0.02319649130418693,0.02056707866213357,True
18937,533,0,534,3925.0,40715.0,29789.0,0.005429,-0.0011589999999999999,-0.000244,0.385,-1.9775000000000003,-3.8675,0.70884375,0.0769375,-0.02759375,1.01759375,0.67515625,-0.49115625,-0.5326875,0.9846875,0.023195873000075286,0.02058860245132132,True
18938,534,0,535,3926.0,40713.0,29790.0,0.005307,-0.002562,0.0,0.43750000000000006,-1.8550000000000002,-3.9025000000000003,0.71665625,0.079125,-0.0271875,1.00946875,0.680875,-0.48496875,-0.53796875,0.9781875,0.023038369203554735,0.02081595486586476,True
18939,535,0,536,3925.0,40716.0,29790.0,0.003111,-0.00122,-0.000732,0.42000000000000004,-1.715,-4.025,0.71690625,0.07940625,-0.0300625,1.0056875,0.684125,-0.48953125000000003,-0.5365625,0.9949375,0.02323186565688145,0.020642663372263337,True
18940,536,0,537,3927.0,40717.0,29792.0,-0.000122,-0.000244,6.1e-05,0.5075000000000001,-1.4000000000000001,-4.0075,0.72328125,0.07984375,-0.028125,1.0136875,0.68634375,-0.4889375,-0.53534375,0.9903125,0.023226048496387403,0.02067298323464492,True
18941,537,0,538,3927.0,40719.0,29791.0,-0.002562,0.00061,0.000549,0.49000000000000005,-0.805,-3.9200000000000004,0.7164375000000001,0.07696875,-0.020125,1.015375,0.69478125,-0.4849375,-0.539375,0.98875,0.022949057966760177,0.021159870616101677,True
18942,538,0,539,3928.0,40720.0,29792.0,-0.005673,0.000915,0.000366,0.45500000000000007,-0.77,-3.9375000000000004,0.71640625,0.07818750000000001,-0.02846875,1.01115625,0.68284375,-0.48534375,-0.5376562500000001,0.992,0.023015043437975016,0.0207512687769436,True
18943,539,0,540,3929.0,40719.0,29792.0,-0.008601,0.001647,0.002928,0.43750000000000006,-0.9275000000000001,-3.9550000000000005,0.7204375000000001,0.07953125,-0.02921875,1.0114375,0.6875,-0.48934375,-0.53634375,0.99653125,0.023229491398682335,0.02066831982658378,True
18944,540,0,541,3929.0,40721.0,29793.0,-0.0037819999999999998,0.0,0.001098,0.4025,-1.0850000000000002,-3.8850000000000002,0.72140625,0.080125,-0.02740625,1.0119375,0.68803125,-0.4804375,-0.53421875,0.9968125,0.02289838570082745,0.02065737267464447,True
18945,541,0,542,3929.0,40720.0,29794.0,-0.0015249999999999999,0.000366,0.0032329999999999998,0.5425000000000001,-1.3825,-3.7975000000000003,0.72065625,0.08003125,-0.02765625,1.01428125,0.68775,-0.48962500000000003,-0.53609375,0.9895625,0.023261125884941072,0.02072202304003668,True
18946,542,0,543,3931.0,40721.0,29795.0,0.004758,-0.000549,-0.004148,0.42000000000000004,-2.0300000000000002,-3.9375000000000004,0.716875,0.077375,-0.02740625,1.01584375,0.68453125,-0.48653125,-0.53959375,0.9899687500000001,0.023029241840858944,0.020871881793071655,True
18947,543,0,544,3933.0,40720.0,29794.0,0.003111,-0.000366,-0.003111,0.42000000000000004,-1.9775000000000003,-3.9550000000000005,0.71596875,0.07940625,-0.0283125,1.01828125,0.6941875000000001,-0.48684375,-0.538875,0.99103125,0.023124662605812564,0.020806271681158978,True
18948,544,0,545,3934.0,40722.0,29795.0,0.004026,-0.000732,-0.000183,0.43750000000000006,-1.6800000000000002,-4.0075,0.7161875,0.075375,-0.028125,1.01934375,0.6956875,-0.48334375,-0.5374375,0.9908125,0.022820361291541316,0.020756548029923664,True
18949,545,0,546,3935.0,40722.0,29796.0,0.004392,-0.002562,-0.00122,0.35000000000000003,-1.5750000000000002,-3.9550000000000005,0.71578125,0.084125,-0.029750000000000002,1.010375,0.69303125,-0.4865,-0.53753125,0.99040625,0.02330365711718702,0.020694064322383694,True
18950,546,0,547,3934.0,40722.0,29795.0,0.001464,-0.002074,-0.000305,0.3325,-1.435,-3.9550000000000005,0.7280625000000001,0.07984375,-0.03565625,1.00765625,0.68371875,-0.486375,-0.5356562500000001,0.9915,0.0231238290682063,0.020378505262112157,True
18951,547,0,548,3937.0,40724.0,29799.0,-0.0015249999999999999,0.001952,0.00061,0.5075000000000001,-1.2075,-3.7625,0.7329687500000001,0.08475,-0.0334375,1.0054375,0.68865625,-0.48331250000000003,-0.5358437500000001,0.99675,0.023202027911868543,0.02047642033912121,True
18952,548,0,549,3937.0,40724.0,29798.0,-0.001464,0.002745,0.0040869999999999995,0.385,-1.1375000000000002,-3.6400000000000006,0.7284375,0.085,-0.032125,1.00590625,0.67784375,-0.48909375,-0.53609375,0.9945625,0.023442833608328197,0.020539893396845213,True
18953,549,0,550,3939.0,40725.0,29798.0,0.0,0.001464,0.002074,0.43750000000000006,-1.0675000000000001,-3.4825000000000004,0.7339687500000001,0.081,-0.0286875,1.0075625,0.68765625,-0.489375,-0.53659375,0.9959375,0.023290712809126406,0.020699949437765784,True
18954,550,0,551,3940.0,40726.0,29801.0,-0.00122,0.00061,0.000976,0.5425000000000001,-1.1375000000000002,-3.5875000000000004,0.7206875,0.08046875,-0.02871875,1.00596875,0.68759375,-0.48975,-0.53621875,0.9964375,0.02328397594912157,0.020683708650095074,True
18955,551,0,552,3940.0,40727.0,29800.0,-0.0015249999999999999,0.000976,-0.000549,0.5775,-1.0675000000000001,-3.7625,0.72646875,0.079625,-0.025125,1.02590625,0.68778125,-0.48978125,-0.53628125,0.9933125,0.02325076913457526,0.02083266998742933,True
18956,552,0,553,3942.0,40726.0,29801.0,-0.001037,0.000122,-0.002623,0.49000000000000005,-1.05,-3.6925000000000003,0.7105312500000001,0.07246875,-0.02603125,1.02634375,0.68778125,-0.48590625,-0.54,0.9899687500000001,0.02280393440614435,0.020944121841890796,True
18957,553,0,554,3942.0,40728.0,29804.0,-0.000793,0.000244,-0.0026839999999999998,0.45500000000000007,-1.1900000000000002,-3.9200000000000004,0.7105,0.07240625,-0.025,1.0126875,0.69115625,-0.48590625,-0.53734375,0.9956875000000001,0.022801381917404016,0.02088016352625781,True
18958,554,0,555,3945.0,40727.0,29801.0,0.000366,-0.000305,-0.0026839999999999998,0.43750000000000006,-1.3475000000000001,-3.9200000000000004,0.72684375,0.08178125,-0.031781250000000004,1.006875,0.6789375,-0.48840625,-0.53609375,0.99575,0.02328397749445209,0.020553903369398403,True
18959,555,0,556,3946.0,40728.0,29800.0,0.000976,6.1e-05,0.001586,0.45500000000000007,-1.2950000000000002,-3.9375000000000004,0.7328125,0.08175,-0.03496875,0.9935,0.68753125,-0.4894375,-0.53640625,0.998625,0.023323830937317366,0.020436468767711245,True
18960,556,0,557,3945.0,40728.0,29802.0,0.001586,-0.002196,0.001403,0.29750000000000004,-1.2950000000000002,-4.130000000000001,0.73203125,0.08378125,-0.03028125,1.00625,0.6834687500000001,-0.4870625,-0.5357500000000001,0.9918750000000001,0.02331205509031555,0.02060131644640983,True
18961,557,0,558,3945.0,40727.0,29801.0,-0.001464,-0.00061,0.003172,0.3325,-1.0150000000000001,-4.025,0.72490625,0.0816875,-0.0288125,1.00990625,0.68134375,-0.48712500000000003,-0.537875,0.990625,0.023229043834259843,0.0207459896180904,True
18962,558,0,559,3944.0,40729.0,29801.0,-0.002989,-0.000366,0.001098,0.385,-0.665,-3.9200000000000004,0.7153125,0.07915625,-0.02725,1.0120625,0.69184375,-0.48615625,-0.5385625,0.99,0.023087024938836614,0.020837100787790646,True
18963,559,0,560,3944.0,40728.0,29797.0,-0.00549,0.001098,0.0008539999999999999,0.4025,-0.6475000000000001,-3.8325000000000005,0.71778125,0.081,-0.0280625,1.0118125,0.68759375,-0.4855,-0.535875,0.9938750000000001,0.023136141798207104,0.02069673488310484,True
18964,560,0,561,3941.0,40726.0,29796.0,-0.003538,0.00061,0.0011589999999999999,0.385,-0.9450000000000001,-3.8325000000000005,0.71525,0.0766875,-0.02759375,1.01665625,0.691375,-0.48662500000000003,-0.53890625,0.99190625,0.02300490573935771,0.02083680889403944,True
18965,561,0,562,3939.0,40725.0,29793.0,0.003965,-0.001403,-0.000549,0.2625,-1.2775,-3.9200000000000004,0.71696875,0.07709375,-0.02840625,1.0120625,0.69353125,-0.48646875,-0.539,0.9911875,0.0230152622558122,0.02080743917845063,True
18966,562,0,563,3935.0,40721.0,29789.0,0.0034159999999999998,-0.001464,-0.0017079999999999999,0.36750000000000005,-1.8200000000000003,-3.9200000000000004,0.7165625,0.08275,-0.028,1.0143125,0.6926875,-0.48581250000000004,-0.5405625000000001,0.990125,0.023220078974304,0.020886338689261912,True
18967,563,0,564,3935.0,40719.0,29783.0,0.002806,-0.000183,-0.001952,0.35000000000000003,-1.995,-3.8675,0.7076250000000001,0.076625,-0.02759375,1.018,0.6955,-0.48562500000000003,-0.5391875,0.99165625,0.022962452459351152,0.020848031337630885,True
18968,564,0,565,3932.0,40717.0,29782.0,0.002379,0.000244,-0.002562,0.42000000000000004,-1.8025000000000002,-3.8325000000000005,0.70540625,0.08740625,-0.0308125,1.01178125,0.68940625,-0.48734375,-0.53578125,0.9968125,0.02347130852034533,0.02058091180609951,True
18969,565,0,566,3928.0,40716.0,29776.0,0.001647,0.000976,-0.0042699999999999995,0.47250000000000003,-1.6275000000000002,-4.0075,0.71625,0.08025,-0.02765625,1.0130937500000001,0.6875,-0.4875,-0.536375,0.9914375,0.023185298621745787,0.02073324808575024,True
18970,566,0,567,3926.0,40713.0,29777.0,0.001586,0.001952,-0.0006709999999999999,0.4025,-1.2775,-3.9550000000000005,0.7174375000000001,0.07975,-0.03015625,1.0112812500000001,0.682125,-0.4855625,-0.53634375,0.9988750000000001,0.02308758477572243,0.020630111199840033,True
18971,567,0,568,3923.0,40709.0,29772.0,-0.000122,-0.000732,0.002562,0.385,-0.9975,-3.99,0.7166875,0.079875,-0.02825,1.0103125,0.68875,-0.48253125,-0.5375,0.99109375,0.022971736225191174,0.02075394803871625,True
18972,568,0,569,3919.0,40705.0,29768.0,-0.001647,-0.000549,0.004209,0.43750000000000006,-0.7175,-3.9200000000000004,0.717,0.07909375,-0.029906250000000002,1.01046875,0.6880937500000001,-0.4880625,-0.536125,0.99334375,0.023160519538856943,0.02063156875831045,True
18973,569,0,570,3918.0,40706.0,29769.0,-0.002074,0.00061,0.003111,0.43750000000000006,-0.56,-3.9375000000000004,0.7169375,0.07831250000000001,-0.0265,1.014625,0.69125,-0.48371875000000003,-0.5401875,0.99159375,0.022955305758035633,0.02093250102510423,True
18974,570,0,571,3917.0,40704.0,29767.0,-0.005673,0.0018909999999999999,0.002379,0.49000000000000005,-0.6475000000000001,-3.8150000000000004,0.7165312500000001,0.07825,-0.028125,1.0190625,0.69575,-0.48653125,-0.5397500000000001,0.9909687500000001,0.023064975771119073,0.020848826903289566,True
18975,571,0,572,3914.0,40704.0,29765.0,-0.0015249999999999999,0.0,-0.003538,0.5425000000000001,-1.2600000000000002,-3.7450000000000006,0.71603125,0.07625,-0.02790625,1.01103125,0.69471875,-0.48675,-0.53790625,0.98659375,0.022992026299937723,0.020784169390980538,True
18976,572,0,573,3913.0,40703.0,29765.0,0.0013419999999999999,-0.001952,-0.003111,0.4025,-1.5750000000000002,-3.6400000000000006,0.7253437500000001,0.07921875,-0.030875,1.01140625,0.687625,-0.4870625,-0.536625,0.9963125,0.023125732210631637,0.02061204423998818,True
18977,573,0,574,3910.0,40703.0,29765.0,0.006222,-0.000732,-0.003294,0.43750000000000006,-1.6450000000000002,-3.6575,0.72209375,0.07890625,-0.03046875,1.01103125,0.68803125,-0.48453125,-0.537125,0.9978125,0.023011978226048335,0.020648558052339054,True
18978,574,0,575,3910.0,40701.0,29763.0,0.003355,-0.000305,0.0008539999999999999,0.5425000000000001,-1.6450000000000002,-3.7800000000000002,0.72371875,0.07928125,-0.03078125,1.0115625,0.6880000000000001,-0.48878125,-0.536125,0.9931562500000001,0.02319684651517723,0.02059590705541319,True
18979,575,0,576,3909.0,40702.0,29763.0,0.001037,-0.000488,0.00244,0.42000000000000004,-1.1900000000000002,-3.8500000000000005,0.72290625,0.07903125,-0.0313125,1.0108125000000001,0.68803125,-0.48909375,-0.5363125,0.99746875,0.02319910266177163,0.020581739819298436,True
18980,576,0,577,3910.0,40700.0,29765.0,-0.0051849999999999995,-0.000915,0.0048189999999999995,0.56,-0.43750000000000006,-3.8325000000000005,0.71703125,0.07943750000000001,-0.02828125,1.01375,0.68796875,-0.48840625,-0.53771875,0.9918125,0.023188268938490023,0.020761404317587592,True
18981,577,0,578,3906.0,40702.0,29765.0,-0.008173999999999999,0.0017079999999999999,0.00183,0.6125,-0.5775,-3.7275000000000005,0.7168125,0.07803125,-0.02875,1.0109375,0.69440625,-0.483625,-0.5381875,0.99146875,0.022940077296560456,0.020761007715015625,True
18982,578,0,579,3908.0,40704.0,29764.0,-0.0057339999999999995,0.004026,-0.0011589999999999999,0.56,-0.9625000000000001,-3.5700000000000003,0.71990625,0.079875,-0.02890625,1.01153125,0.68753125,-0.48865625,-0.53221875,0.9963125,0.02321610643703654,0.020516387250949324,True
18983,579,0,580,3907.0,40704.0,29765.0,0.000305,0.0037819999999999998,-0.002562,0.5775,-1.4875,-3.5875000000000004,0.7205,0.07934375,-0.029125,1.0118125,0.68734375,-0.48165625,-0.5298125,0.995625,0.022915116292428133,0.0204113871640886,True
18984,580,0,581,3906.0,40704.0,29763.0,0.0050019999999999995,0.0018909999999999999,-0.0025009999999999998,0.525,-1.9075000000000002,-3.7275000000000005,0.7193437500000001,0.08371875000000001,-0.02725,1.01175,0.6880937500000001,-0.48646875,-0.5306875,0.991375,0.023285819846930768,0.020522763579292263,True
18985,581,0,582,3907.0,40704.0,29766.0,0.007442,0.0,-0.002257,0.36750000000000005,-2.1175,-3.8500000000000005,0.716125,0.078125,-0.02771875,1.01278125,0.6944375,-0.486375,-0.539625,0.9881562500000001,0.023053636971581134,0.020860394158427442,True
18986,582,0,583,3906.0,40702.0,29765.0,0.005124,-0.0006709999999999999,-0.00183,0.47250000000000003,-1.8550000000000002,-3.8850000000000002,0.7170625,0.07809375,-0.02759375,1.01328125,0.69571875,-0.48296875,-0.53915625,0.992,0.02291644063794347,0.02084678441215761,True
18987,583,0,584,3905.0,40705.0,29765.0,0.002745,-0.0015249999999999999,-0.000305,0.35000000000000003,-1.2950000000000002,-4.0600000000000005,0.7168125,0.07918750000000001,-0.02875,1.012625,0.688125,-0.48790625,-0.52828125,0.9911562500000001,0.023158115038928652,0.020365521942145866,True
18988,584,0,585,3907.0,40703.0,29765.0,0.000732,-0.0025009999999999998,0.0017079999999999999,0.3325,-0.805,-4.077500000000001,0.71859375,0.07915625,-0.02884375,1.01165625,0.6885625,-0.490375,-0.53696875,1.00246875,0.02325530948382783,0.0207085481983181,True
18989,585,0,586,3905.0,40703.0,29765.0,-0.0053679999999999995,-0.0037819999999999998,0.0032329999999999998,0.28,-0.5425000000000001,-4.077500000000001,0.72046875,0.07996875,-0.0305,1.01134375,0.68734375,-0.490875,-0.5361875,0.99871875,0.02330842609747508,0.020609864511346762,True
18990,586,0,587,3905.0,40706.0,29768.0,-0.008296,-0.000793,0.0021349999999999997,0.49000000000000005,-0.36750000000000005,-4.025,0.72490625,0.07996875,-0.030375,1.01478125,0.67959375,-0.48978125,-0.5355625,0.9815,0.023264805601315854,0.020590010928015202,True
18991,587,0,588,3905.0,40703.0,29765.0,-0.0057339999999999995,0.001281,0.000244,0.45500000000000007,-0.6125,-3.7625,0.7114375000000001,0.08078125,-0.0239375,1.01253125,0.69765625,-0.48728125,-0.53446875,1.00265625,0.02319826746793297,0.02080873465010324,True
18992,588,0,589,3905.0,40707.0,29766.0,-0.002196,0.002074,-0.000915,0.47250000000000003,-1.2950000000000002,-3.6575,0.73678125,0.082875,-0.02840625,1.024375,0.6853125,-0.4891875,-0.53615625,0.9893125,0.02335979909500877,0.020693950381898144,True
18993,589,0,590,3907.0,40703.0,29765.0,-0.000244,0.0017079999999999999,-0.0015249999999999999,0.525,-1.8725000000000003,-3.6050000000000004,0.7138125,0.07196875,-0.02828125,0.9928125,0.68703125,-0.48531250000000004,-0.538125,0.98865625,0.022759817747884575,0.02077761646417564,True
18994,590,0,591,3906.0,40704.0,29764.0,0.0040869999999999995,0.0017079999999999999,-0.003721,0.49000000000000005,-2.4325,-3.7100000000000004,0.72759375,0.07325,-0.02346875,1.022125,0.68540625,-0.4879375,-0.5376562500000001,0.9879375,0.022916895308149166,0.0209550372195796,True
18995,591,0,592,3905.0,40705.0,29762.0,0.009271999999999999,-0.000976,-0.0008539999999999999,0.4025,-2.6775,-3.6750000000000003,0.72,0.08221875000000001,-0.0305,1.01059375,0.69596875,-0.4885,-0.53578125,1.0001875,0.02330558221205872,0.02059364830700062,True
18996,592,0,593,3905.0,40704.0,29764.0,0.007686,0.002806,-0.00042699999999999997,0.35000000000000003,-2.4675000000000002,-3.8675,0.70496875,0.06803125,-0.02346875,1.0285312500000001,0.68721875,-0.48512500000000003,-0.54003125,0.98934375,0.022591522403908496,0.021049789820459172,True
18997,593,0,594,3905.0,40703.0,29764.0,0.003477,0.002745,0.0008539999999999999,0.385,-1.8375000000000001,-3.7100000000000004,0.7125312500000001,0.084,-0.040625,1.00071875,0.69984375,-0.486375,-0.534625,1.00121875,0.023293566320045332,0.020134809478441183,True
18998,594,0,595,3904.0,40702.0,29763.0,-0.000793,0.0006709999999999999,0.00244,0.47250000000000003,-1.2425000000000002,-3.6925000000000003,0.738375,0.0804375,-0.0316875,1.02809375,0.6840937500000001,-0.4915,-0.53528125,0.9959375,0.023352489639262602,0.020525289474723263,True
18999,595,0,596,3903.0,40704.0,29764.0,-0.0028669999999999998,-0.002623,0.000305,0.47250000000000003,-1.0850000000000002,-3.7450000000000006,0.7049375,0.08378125,-0.031906250000000004,1.0018125,0.69878125,-0.4856875,-0.5395,0.9929687500000001,0.023257208930727385,0.02068476334073636,True
19000,596,0,597,3903.0,40703.0,29761.0,-0.0030499999999999998,-0.00042699999999999997,0.002074,0.45500000000000007,-0.8750000000000001,-3.7100000000000004,0.73128125,0.07453125000000001,-0.02321875,1.022,0.6852812500000001,-0.48675,-0.5385625,0.989,0.022921835278262737,0.02100138302722501,True
19001,597,0,598,3903.0,40703.0,29762.0,-0.005124,0.000122,0.000488,0.43750000000000006,-0.7525000000000001,-3.6925000000000003,0.7331875,0.08209375000000001,-0.03003125,1.0150625,0.68475,-0.4905625,-0.5348437500000001,0.99771875,0.023382731613453143,0.020575329728765853,True
19002,598,0,599,3904.0,40703.0,29764.0,-0.006344,-0.000183,-0.000732,0.45500000000000007,-0.8575,-3.7275000000000005,0.7055,0.0696875,-0.027,1.02009375,0.6860625,-0.4861875,-0.539125,0.9909687500000001,0.022701574101725717,0.020869733537768765,True
19003,599,0,600,3904.0,40702.0,29765.0,-0.004392,0.000122,0.000732,0.5075000000000001,-1.05,-3.7275000000000005,0.73275,0.08253125,-0.034125,1.0070937500000001,0.6919062500000001,-0.4880625,-0.53590625,1.00025,0.023300894058074215,0.020450895307769612,True
19004,600,0,601,3904.0,40703.0,29764.0,-0.0013419999999999999,-0.000793,0.0008539999999999999,0.525,-1.3125000000000002,-3.6925000000000003,0.7056875,0.07259375,-0.023375,1.01396875,0.6894375,-0.48578125,-0.53959375,0.99040625,0.022804050820310257,0.02103615712872182,True
19005,601,0,602,3904.0,40701.0,29764.0,0.0053679999999999995,0.00042699999999999997,0.000549,0.47250000000000003,-1.8900000000000001,-3.7450000000000006,0.71815625,0.0824375,-0.02778125,1.0054375,0.691125,-0.4905,-0.537125,0.9983125,0.02339427533125089,0.020758085961578628,True
19006,602,0,603,3904.0,40700.0,29764.0,0.00549,0.00042699999999999997,-0.002196,0.45500000000000007,-2.0300000000000002,-3.7100000000000004,0.71628125,0.07596875,-0.025656250000000002,1.01615625,0.68859375,-0.4861875,-0.53428125,0.9914375,0.02295809627366449,0.020731196272562497,True
19007,603,0,604,3903.0,40702.0,29762.0,0.003721,-0.000366,-0.001647,0.43750000000000006,-1.9425000000000001,-3.5875000000000004,0.7169375,0.0766875,-0.0288125,1.0120625,0.6901875000000001,-0.48275,-0.53603125,0.99915625,0.022850272130377512,0.02067240397731397,True
19008,604,0,605,3905.0,40704.0,29766.0,0.0017079999999999999,-6.1e-05,-0.00042699999999999997,0.43750000000000006,-1.5225000000000002,-3.7800000000000002,0.724625,0.07959375,-0.029968750000000002,1.01140625,0.6883125,-0.48878125,-0.536875,0.99384375,0.02320960746055911,0.02065895718179271,True
19009,605,0,606,3903.0,40706.0,29764.0,0.000305,0.000183,0.000366,0.43750000000000006,-1.1725,-3.7975000000000003,0.72178125,0.07871875,-0.0278125,1.01725,0.67984375,-0.485875,-0.5398125,0.991375,0.023057936463369188,0.020864055094145482,True
19010,606,0,607,3906.0,40708.0,29768.0,-0.002928,-0.000366,0.002379,0.42000000000000004,-0.9800000000000001,-3.8150000000000004,0.71446875,0.07840625,-0.0245,1.01175,0.68503125,-0.48625,-0.5361875,0.99740625,0.023060135790494665,0.020854401279742425,True
19011,607,0,608,3906.0,40708.0,29771.0,-0.002745,0.0,0.000793,0.45500000000000007,-1.0325000000000002,-3.7800000000000002,0.72440625,0.07909375,-0.026875,1.01375,0.681,-0.48631250000000004,-0.5398125,0.99153125,0.0230907062874412,0.020902258320025877,True
19012,608,0,609,3908.0,40707.0,29771.0,-0.0026839999999999998,0.0011589999999999999,-0.000915,0.47250000000000003,-1.2600000000000002,-3.7800000000000002,0.7174375000000001,0.07715625,-0.028,1.0115625,0.6950625,-0.4864375,-0.536125,0.99809375,0.023016567844954986,0.02070926032533662,True
19013,609,0,610,3909.0,40707.0,29769.0,-0.000976,0.001647,-0.002013,0.43750000000000006,-1.2950000000000002,-3.7100000000000004,0.72628125,0.07921875,-0.02646875,1.01084375,0.68878125,-0.4896875,-0.53921875,0.9818125,0.023230441384766546,0.020895123240221327,True
19014,610,0,611,3908.0,40709.0,29770.0,0.000976,0.000244,-0.000976,0.47250000000000003,-1.3825,-3.8150000000000004,0.7225625,0.0795,-0.0285625,1.0126875,0.691125,-0.48671875000000003,-0.53909375,0.992,0.02312350445075455,0.020804812728668923,True
19015,611,0,612,3908.0,40712.0,29770.0,0.003904,-0.0011589999999999999,0.001647,0.3325,-1.3650000000000002,-3.9375000000000004,0.723125,0.07996875,-0.03,1.01134375,0.6815625,-0.486,-0.53728125,0.9918125,0.023113973290860082,0.020673898009788676,True
19016,612,0,613,3910.0,40710.0,29772.0,0.00183,0.000366,6.1e-05,0.3325,-1.33,-3.9375000000000004,0.71459375,0.079375,-0.02496875,1.0112812500000001,0.691125,-0.48634375,-0.53996875,0.9916875,0.023103439034257617,0.020986171793719175,True
19017,613,0,614,3911.0,40712.0,29772.0,0.00042699999999999997,0.00042699999999999997,-0.001037,0.385,-1.2600000000000002,-3.7100000000000004,0.72521875,0.07934375,-0.02846875,1.0116875,0.68859375,-0.48540625,-0.5365,0.9889375,0.02306475923796445,0.020705122980050127,True
19018,614,0,615,3911.0,40713.0,29774.0,-0.00042699999999999997,-0.001037,0.0008539999999999999,0.35000000000000003,-1.0675000000000001,-3.8325000000000005,0.70815625,0.07903125,-0.02671875,1.00340625,0.6956875,-0.4861875,-0.53878125,0.98540625,0.02308316678535603,0.020867478901381867,True
19019,615,0,616,3912.0,40714.0,29774.0,-0.002928,-0.001586,-0.001037,0.42000000000000004,-1.0150000000000001,-3.8675,0.7137187500000001,0.07909375,-0.029375000000000002,1.01140625,0.6893125,-0.48609375,-0.53725,0.9935,0.023081978929366795,0.02069812224271261,True
19020,616,0,617,3913.0,40715.0,29776.0,-0.001769,-0.000366,-0.0006709999999999999,0.42000000000000004,-1.1375000000000002,-3.99,0.72015625,0.079125,-0.0305,1.00475,0.688375,-0.4855625,-0.5379375,0.9888750000000001,0.023062059529978123,0.02067971279167208,True
19021,617,0,618,3915.0,40715.0,29776.0,-0.000976,0.000488,0.0008539999999999999,0.47250000000000003,-1.1375000000000002,-3.9375000000000004,0.7241875,0.07934375,-0.0283125,1.007875,0.691125,-0.48578125,-0.539,0.98546875,0.02307972101155645,0.020811259627531685,True
19022,618,0,619,3916.0,40716.0,29777.0,-6.1e-05,-6.1e-05,0.002745,0.42000000000000004,-1.2425000000000002,-3.9025000000000003,0.71796875,0.07809375,-0.02778125,1.0204375,0.69665625,-0.48531250000000004,-0.534625,0.99134375,0.023009967710234454,0.020658304335199745,True
19023,619,0,620,3916.0,40718.0,29778.0,-0.00061,6.1e-05,0.000183,0.385,-1.4875,-3.9375000000000004,0.717125,0.077,-0.0278125,1.01771875,0.69434375,-0.48675,-0.53778125,0.9915,0.023022655109395895,0.020783001723108114,True
19024,620,0,621,3917.0,40717.0,29777.0,0.0011589999999999999,0.001037,-0.001037,0.4025,-1.6975000000000002,-3.7800000000000002,0.71746875,0.07831250000000001,-0.027625,1.0065625,0.690875,-0.48662500000000003,-0.537875,0.9907812500000001,0.02307126849861915,0.02079438419178515,True
19025,621,0,622,3918.0,40718.0,29781.0,0.002745,-0.000366,-0.001037,0.385,-1.8200000000000003,-3.8675,0.71134375,0.07978125,-0.031531250000000004,1.01190625,0.68825,-0.4874375,-0.53715625,0.99409375,0.023163663000671263,0.02060650365708129,True
19026,622,0,623,3918.0,40720.0,29781.0,0.0030499999999999998,-0.000793,0.000549,0.42000000000000004,-1.7325000000000002,-3.8500000000000005,0.7185312500000001,0.079375,-0.031125,1.0055,0.6880937500000001,-0.48590625,-0.5358125,0.9918750000000001,0.02308598441195126,0.02056942275704137,True
19027,623,0,624,3919.0,40719.0,29780.0,0.001586,-6.1e-05,-0.00061,0.36750000000000005,-1.7850000000000001,-3.7275000000000005,0.72328125,0.07868750000000001,-0.02740625,1.01953125,0.6890000000000001,-0.4866875,-0.5365625,0.9823437500000001,0.023089076462465573,0.020750920182890334,True
19028,624,0,625,3920.0,40719.0,29781.0,0.0006709999999999999,0.0006709999999999999,0.00042699999999999997,0.43750000000000006,-1.5750000000000002,-3.7625,0.71809375,0.0770625,-0.02878125,1.01184375,0.694625,-0.48631250000000004,-0.5356562500000001,0.99534375,0.02300775177969325,0.020658709709466202,True
19029,625,0,626,3922.0,40720.0,29782.0,0.000183,0.000244,0.0018909999999999999,0.42000000000000004,-1.4175000000000002,-3.7275000000000005,0.7259375,0.07931250000000001,-0.02771875,1.010125,0.688625,-0.48615625,-0.5394375,0.99065625,0.023093406095536125,0.020852912785796335,True
19030,626,0,627,3922.0,40721.0,29786.0,-0.001403,0.00042699999999999997,0.001403,0.56,-1.2775,-3.6750000000000003,0.717875,0.0804375,-0.0305,1.0128125000000001,0.6968125000000001,-0.48878125,-0.53746875,0.99384375,0.023244062013090178,0.02066100440779981,True
19031,627,0,628,3922.0,40721.0,29786.0,-0.003111,0.000793,-0.00122,0.4025,-1.4000000000000001,-3.8325000000000005,0.72196875,0.07890625,-0.02365625,1.01940625,0.68803125,-0.48409375,-0.5425625000000001,0.985,0.022994520677327497,0.021143116168085545,True
19032,628,0,629,3922.0,40723.0,29787.0,-0.00244,0.000549,0.000366,0.35000000000000003,-1.4000000000000001,-3.8325000000000005,0.7176250000000001,0.07646875,-0.02859375,1.01390625,0.702875,-0.48559375,-0.5356562500000001,1.01359375,0.022954824201475613,0.020666351648939495,True
19033,629,0,630,3923.0,40721.0,29786.0,0.0,-0.001769,0.000122,0.29750000000000004,-1.435,-3.8325000000000005,0.72259375,0.07956250000000001,-0.025750000000000002,1.01140625,0.68396875,-0.49078125,-0.538125,0.98140625,0.02328809947620597,0.02088077226764473,True
19034,630,0,631,3925.0,40725.0,29788.0,0.001037,-0.000915,0.000366,0.42000000000000004,-1.155,-3.7100000000000004,0.71715625,0.076375,-0.02771875,1.01446875,0.70496875,-0.48440625,-0.53325,1.00625,0.022903608291501863,0.020605963335473286,True
19035,631,0,632,3926.0,40725.0,29789.0,-0.0017079999999999999,-0.000244,-0.001281,0.4025,-1.2950000000000002,-3.8675,0.7175,0.07990625,-0.03078125,1.01209375,0.6821875000000001,-0.48825,-0.53809375,0.98771875,0.023201178116035243,0.020674486990253677,True
19036,632,0,633,3927.0,40727.0,29789.0,-0.000488,-0.000305,-0.001037,0.43750000000000006,-1.4700000000000002,-3.9025000000000003,0.7245,0.08003125,-0.02925,1.01103125,0.6895625,-0.48840625,-0.5377500000000001,0.99303125,0.023212515106000413,0.020723171439924203,True
19037,633,0,634,3928.0,40727.0,29791.0,0.001647,0.0,-0.000732,0.385,-1.6800000000000002,-3.7800000000000002,0.7229375,0.08046875,-0.02878125,1.01125,0.68765625,-0.4835,-0.54384375,0.98646875,0.023034645781853085,0.02098540494497729,True
19038,634,0,635,3928.0,40729.0,29792.0,0.0035989999999999998,0.000915,0.000793,0.385,-1.7850000000000001,-3.6925000000000003,0.72540625,0.07906250000000001,-0.02896875,1.0114375,0.693875,-0.48340625000000004,-0.53353125,0.997,0.022973467999372024,0.02056624033688587,True
19039,635,0,636,3929.0,40727.0,29790.0,0.002379,0.00122,-0.000183,0.5075000000000001,-1.5050000000000001,-3.6750000000000003,0.7055625,0.077625,-0.02840625,1.01225,0.6810625,-0.49225,-0.5336875,1.00896875,0.023267564229501173,0.020595405806811552,True
19040,636,0,637,3930.0,40730.0,29791.0,-0.000976,0.00042699999999999997,-0.001769,0.5425000000000001,-1.435,-3.6050000000000004,0.71809375,0.07981250000000001,-0.03040625,1.01146875,0.6821875000000001,-0.4906875,-0.53746875,0.9865,0.02329456859877862,0.02066482509529432,True
19041,637,0,638,3930.0,40727.0,29789.0,-0.002013,0.000488,-0.0008539999999999999,0.5950000000000001,-1.3825,-3.5175000000000005,0.717375,0.07859375,-0.02784375,1.01615625,0.7076250000000001,-0.48475,-0.5385625,0.99290625,0.02300794372007066,0.02081290417888171,True
19042,638,0,639,3932.0,40729.0,29795.0,-0.001464,0.0006709999999999999,-0.001037,0.6125,-1.5050000000000001,-3.4125000000000005,0.718875,0.07934375,-0.02875,1.0104375,0.6731875,-0.48762500000000003,-0.53853125,0.9785,0.023153276399814193,0.02077472546365219,True
19043,639,0,640,3934.0,40733.0,29799.0,-0.002013,0.0013419999999999999,-0.0011589999999999999,0.45500000000000007,-1.715,-3.535,0.7168125,0.07828125,-0.02859375,1.01159375,0.70215625,-0.48425,-0.5324375,1.00378125,0.02297522897372801,0.02053785931381666,True
19044,640,0,641,3935.0,40731.0,29796.0,0.001586,-0.001403,0.0011589999999999999,0.36750000000000005,-1.6275000000000002,-3.7625,0.72571875,0.07896875,-0.02846875,1.011125,0.68453125,-0.48465625,-0.53840625,1.00215625,0.02301951860157318,0.020781198860459812,True
19045,641,0,642,3936.0,40732.0,29799.0,-0.000122,-0.00244,0.002623,0.42000000000000004,-1.4000000000000001,-3.7625,0.725625,0.0779375,-0.02840625,1.01903125,0.683625,-0.4846875,-0.53578125,0.990375,0.022978647368891273,0.02067898286303804,True
19046,642,0,643,3936.0,40732.0,29797.0,-0.000183,-0.002074,0.002989,0.43750000000000006,-1.225,-3.6750000000000003,0.71759375,0.07978125,-0.0321875,1.01240625,0.6870937500000001,-0.4885,-0.5346875,0.99921875,0.023206045694918024,0.02048120645514641,True
19047,643,0,644,3934.0,40733.0,29798.0,-0.001403,-0.001647,0.001952,0.4025,-1.155,-3.7100000000000004,0.72390625,0.07940625,-0.02721875,1.0151875000000001,0.68834375,-0.48565625,-0.5389375,0.9886875,0.023077286319414043,0.02085333768016647,True
19048,644,0,645,3935.0,40731.0,29795.0,-0.001037,-0.00042699999999999997,-0.00042699999999999997,0.4025,-1.225,-3.7100000000000004,0.7086250000000001,0.07709375,-0.02784375,1.0115,0.6949375,-0.48612500000000003,-0.5381875,0.98946875,0.02300154679435803,0.02079793994564595,True
19049,645,0,646,3934.0,40732.0,29795.0,-0.000366,-0.000793,-0.001098,0.385,-1.4525000000000001,-3.7975000000000003,0.7222500000000001,0.0795,-0.02759375,1.017875,0.688625,-0.487,-0.53878125,0.99146875,0.0231347245477192,0.02083182105875776,True
19050,646,0,647,3933.0,40733.0,29792.0,-0.000549,0.000244,-0.000183,0.36750000000000005,-1.61,-3.7625,0.7184375000000001,0.07696875,-0.0291875,1.0154375,0.68296875,-0.48690625,-0.53840625,0.9834375000000001,0.023027612971728513,0.020751908042112552,True
19051,647,0,648,3929.0,40728.0,29788.0,0.000244,0.0008539999999999999,0.000244,0.31500000000000006,-1.4700000000000002,-3.8675,0.7165,0.07956250000000001,-0.03028125,1.00015625,0.6809375,-0.48859375,-0.5361875,0.9980625000000001,0.023200852437678256,0.020618779914361184,True
19052,648,0,649,3929.0,40726.0,29785.0,0.0023179999999999997,0.0015249999999999999,-0.0006709999999999999,0.35000000000000003,-1.5050000000000001,-3.9375000000000004,0.722125,0.07856250000000001,-0.0246875,1.0124375,0.688125,-0.48659375,-0.5366875,0.9979375,0.023080231402132036,0.020866712346562673,True
19053,649,0,650,3925.0,40724.0,29782.0,0.001098,0.0011589999999999999,-0.00061,0.36750000000000005,-1.61,-3.9025000000000003,0.7235,0.07906250000000001,-0.03071875,1.01228125,0.68896875,-0.4856875,-0.53803125,0.99146875,0.023064494309175513,0.020674539649549104,True
19054,650,0,651,3923.0,40723.0,29778.0,6.1e-05,0.000732,-0.000305,0.3325,-1.54,-4.165,0.720375,0.07875,-0.02678125,1.01378125,0.6900000000000001,-0.47975,-0.53934375,0.9921562500000001,0.022814775477690744,0.02088737601224564,True
19055,651,0,652,3919.0,40722.0,29772.0,6.1e-05,-0.000976,0.000976,0.36750000000000005,-1.5750000000000002,-4.025,0.7178125,0.0764375,-0.027375,1.0167187500000001,0.69540625,-0.48562500000000003,-0.53778125,0.99675,0.022954794905173957,0.020800831371010776,True
19056,652,0,653,3920.0,40718.0,29770.0,-0.000305,0.000244,0.00122,0.385,-1.5575,-3.9725000000000006,0.72,0.07959375,-0.03028125,1.0125625,0.68865625,-0.48675,-0.5356562500000001,0.9975937500000001,0.023128579742105426,0.020597574193679864,True
19057,653,0,654,3916.0,40719.0,29768.0,-0.000366,-0.000183,0.000366,0.4025,-1.4700000000000002,-3.9725000000000006,0.7220625,0.07978125,-0.03125,0.99875,0.675625,-0.48909375,-0.536875,0.99853125,0.02322972853987298,0.020606739855829236,True
19058,654,0,655,3913.0,40716.0,29768.0,-0.002013,0.000915,-0.001098,0.4025,-1.5575,-3.9725000000000006,0.72878125,0.080125,-0.03240625,1.01,0.68765625,-0.48846875,-0.53640625,0.99975,0.02321883641662977,0.02054090541478543,True
19059,655,0,656,3913.0,40716.0,29767.0,0.0008539999999999999,0.0,0.000183,0.3325,-1.6625,-4.025,0.72121875,0.08015625,-0.0325,1.0101875,0.68915625,-0.4876875,-0.53609375,0.9987812500000001,0.0231889495486252,0.02052460979042355,True
19060,656,0,657,3911.0,40714.0,29764.0,0.0023179999999999997,-0.002257,-0.0025009999999999998,0.42000000000000004,-1.5225000000000002,-3.9550000000000005,0.71596875,0.0746875,-0.0280625,1.02,0.69278125,-0.48653125,-0.538625,0.99140625,0.022919487626488544,0.020806483655869065,True
19061,657,0,658,3909.0,40716.0,29764.0,0.0017079999999999999,-0.001464,-0.00061,0.4025,-1.5050000000000001,-3.9725000000000006,0.71975,0.08025,-0.02853125,1.0206250000000001,0.68846875,-0.48634375,-0.53678125,0.99084375,0.023139173238144222,0.020713800837263444,True
19062,658,0,659,3908.0,40718.0,29762.0,0.00042699999999999997,-0.0006709999999999999,-0.000976,0.43750000000000006,-1.4875,-3.99,0.709375,0.074875,-0.03075,1.0112812500000001,0.6976875,-0.485875,-0.5358125,0.9886875,0.022900958205496025,0.020584706538656506,True
19063,659,0,660,3906.0,40712.0,29762.0,-0.0011589999999999999,0.000793,0.000732,0.45500000000000007,-1.5575,-3.8325000000000005,0.728875,0.08065625,-0.030625,1.0153125,0.68815625,-0.4891875,-0.5369375,0.99303125,0.023269197885801642,0.02063470634833707,True
19064,660,0,661,3906.0,40715.0,29760.0,-0.000793,-0.000488,0.001098,0.47250000000000003,-1.2075,-3.9375000000000004,0.7115312500000001,0.074875,-0.0309375,1.0106875,0.69553125,-0.48659375,-0.536125,0.99846875,0.022929638794697605,0.02058953889418154,True
19065,661,0,662,3905.0,40713.0,29762.0,-0.002257,0.000183,-0.000305,0.4025,-1.2075,-3.9550000000000005,0.7304375,0.0854375,-0.0319375,1.0103125,0.68946875,-0.4865,-0.530625,0.99165625,0.0233572580809834,0.02032918036128309,True
19066,662,0,663,3905.0,40714.0,29761.0,-0.002928,0.000732,-0.001647,0.47250000000000003,-1.3650000000000002,-3.8850000000000002,0.7305,0.07993750000000001,-0.0326875,1.01215625,0.68790625,-0.4875625,-0.53590625,0.997375,0.023175030181137875,0.020509482913434268,True
19067,663,0,664,3903.0,40713.0,29762.0,-0.0015249999999999999,0.00122,-0.0023179999999999997,0.5425000000000001,-1.4175000000000002,-3.8850000000000002,0.70784375,0.0804375,-0.029406250000000002,1.013875,0.68815625,-0.4865625,-0.53615625,0.9907812500000001,0.023155557257169106,0.020653194201923946,True
19068,664,0,665,3904.0,40714.0,29763.0,0.000183,0.000366,-0.001769,0.5425000000000001,-1.8200000000000003,-3.8150000000000004,0.7195625,0.08021875,-0.02865625,1.008375,0.68903125,-0.48790625,-0.53653125,0.99509375,0.023200227663400172,0.020698728553980097,True
19069,665,0,666,3903.0,40713.0,29760.0,0.004331,-0.000305,0.000122,0.3325,-1.9600000000000002,-3.99,0.72675,0.08446875,-0.02846875,1.013125,0.68875,-0.48709375,-0.53615625,0.9926875000000001,0.023341377536891243,0.02069140312064975,True
19070,666,0,667,3902.0,40713.0,29760.0,0.003538,-6.1e-05,0.003172,0.2625,-1.7500000000000002,-3.99,0.7216875,0.0801875,-0.02675,1.015375,0.6886875,-0.48434375,-0.5363125,0.9925625,0.023056825854276777,0.020767688706279718,True
19071,667,0,668,3902.0,40713.0,29761.0,0.001037,-0.000183,0.002257,0.3325,-1.4175000000000002,-3.8850000000000002,0.7164375000000001,0.07634375,-0.028125,1.01809375,0.689375,-0.486375,-0.536,0.992125,0.022980892435078695,0.02069917671992175,True
19072,668,0,669,3901.0,40714.0,29762.0,-0.003172,0.0006709999999999999,0.0011589999999999999,0.45500000000000007,-1.2075,-3.8675,0.70859375,0.0774375,-0.02484375,1.01875,0.694375,-0.48631250000000004,-0.53771875,0.99234375,0.023023066458046717,0.020901494765074687,True
19073,669,0,670,3901.0,40713.0,29763.0,-0.0042699999999999995,0.000122,0.00042699999999999997,0.42000000000000004,-0.9450000000000001,-3.8850000000000002,0.71784375,0.078,-0.0285,1.01278125,0.6890000000000001,-0.48621875000000003,-0.53625,1.000875,0.023042298027334252,0.020693871312853433,True
19074,670,0,671,3901.0,40712.0,29763.0,-0.000305,-0.001037,-0.00122,0.385,-1.05,-3.9550000000000005,0.7226875,0.07953125,-0.03,1.012625,0.69021875,-0.49134375,-0.53690625,1.01296875,0.023309255948849278,0.020658930870716432,True
19075,671,0,672,3901.0,40715.0,29764.0,0.000488,-0.000732,-0.0008539999999999999,0.385,-1.225,-3.9200000000000004,0.723875,0.07968750000000001,-0.031875,1.0070000000000001,0.685,-0.48512500000000003,-0.538125,0.98684375,0.023067576743022553,0.02063116069381829,True
19076,672,0,673,3899.0,40714.0,29762.0,0.0013419999999999999,0.000549,-0.000732,0.525,-1.2075,-3.7975000000000003,0.7254375000000001,0.08,-0.029406250000000002,1.0128125000000001,0.69575,-0.48181250000000003,-0.5406875,0.985125,0.022948157943779697,0.020834023089206444,True
19077,673,0,674,3900.0,40714.0,29763.0,-0.00061,0.0013419999999999999,-0.001952,0.5425000000000001,-1.4175000000000002,-3.8150000000000004,0.723125,0.079375,-0.031,1.0123125,0.69428125,-0.48565625,-0.53690625,0.9919375,0.023076010062013343,0.02061817593650381,True
19078,674,0,675,3901.0,40715.0,29764.0,-0.000244,0.001647,-0.001586,0.5075000000000001,-1.5225000000000002,-3.8500000000000005,0.7233437500000001,0.07965625,-0.029781250000000002,1.01234375,0.680625,-0.48896875,-0.5338125,0.9815,0.023219638434141904,0.020544350781192284,True
19079,675,0,676,3899.0,40716.0,29763.0,0.002806,0.000305,-0.0011589999999999999,0.47250000000000003,-1.7325000000000002,-3.7800000000000002,0.722375,0.07921875,-0.02684375,1.01265625,0.71290625,-0.48275,-0.5435,0.98121875,0.022953661251289174,0.02105063458756901,True
19080,676,0,677,3900.0,40717.0,29762.0,0.002928,-0.0008539999999999999,0.0011589999999999999,0.49000000000000005,-1.6975000000000002,-3.9025000000000003,0.72184375,0.07903125,-0.027125,1.01875,0.711125,-0.48246875,-0.54190625,0.984625,0.022934778585186597,0.020975601681307868,True
19081,677,0,678,3900.0,40716.0,29764.0,0.0017079999999999999,-0.001037,0.002379,0.385,-1.435,-3.8500000000000005,0.7179375,0.0765,-0.02725,1.01359375,0.70015625,-0.48265625,-0.545125,0.982875,0.022838871905494322,0.02109889438330422,True
19082,678,0,679,3900.0,40717.0,29763.0,-0.000244,-0.001037,0.0023179999999999997,0.36750000000000005,-1.1725,-3.8675,0.7185625,0.075625,-0.02203125,1.0190937500000001,0.70915625,-0.4829375,-0.53803125,0.9908125,0.022814357958476188,0.021028581907931183,True
19083,679,0,680,3901.0,40717.0,29765.0,-0.002562,-0.000366,0.0017079999999999999,0.385,-0.7350000000000001,-3.8675,0.7180625,0.0763125,-0.0224375,1.01715625,0.69134375,-0.49025,-0.5387500000000001,0.9859375,0.023134206469921707,0.021040700932199074,True
