frame_seq,absolute_seq_u64,segment_id,sample_seq,PPG_G,PPG_R,PPG_IR,ACC_X,ACC_Y,ACC_Z,GYRO_X,GYRO_Y,GYRO_Z,Uh1,Uh2,Uh3,Uh4,Uc1,Uc2,Uc3,Uc4,UD1,UD2,parser_valid
31738,162,0,163,3912.0,42219.0,30974.0,0.000793,0.002379,0.000305,0.21000000000000002,-2.1,-3.9200000000000004,1.1381875000000001,0.29675,0.17759375,1.4225625,1.1103750000000001,-0.1789375,-0.38259375,1.3954375,0.019673631233795945,0.022974893719008054,True
31739,163,0,164,3912.0,42216.0,30973.0,-0.004209,0.0011589999999999999,-0.000244,0.28,-1.2425000000000002,-4.0425,1.135,0.29684375,0.1723125,1.4194375000000001,1.09159375,-0.178125,-0.38225000000000003,1.3905625,0.019644565076903195,0.02274451701545182,True
31740,164,0,165,3912.0,42220.0,30975.0,-0.008479,0.001281,0.0015249999999999999,0.35000000000000003,-0.6825000000000001,-3.8850000000000002,1.14871875,0.296125,0.1793125,1.417375,1.1036875,-0.18253125,-0.38159375,1.3957187500000001,0.019793471785547676,0.023005315228829128,True
31741,165,0,166,3911.0,42218.0,30977.0,-0.009882,0.0,0.0032329999999999998,0.3325,-0.5775,-3.6225000000000005,1.14109375,0.29353125,0.175125,1.4310625000000001,1.095,-0.18171875,-0.38115625000000003,1.39646875,0.0196532762998908,0.02281603236105753,True
31742,166,0,167,3912.0,42219.0,30980.0,-0.0070149999999999995,-0.001647,-0.000305,0.29750000000000004,-0.9975,-3.6225000000000005,1.14075,0.29528125,0.17509375,1.4253437500000001,1.1038125,-0.17890625000000002,-0.38356250000000003,1.3905625,0.019611619115318748,0.02291118248205118,True
31743,167,0,168,3913.0,42220.0,30981.0,-0.0013419999999999999,-0.000183,-0.000549,0.3325,-1.7325000000000002,-3.5700000000000003,1.14815625,0.2965,0.17200000000000001,1.42709375,1.11134375,-0.17896875,-0.38221875,1.38903125,0.019664558688012698,0.022730447777645338,True
31744,168,0,169,3912.0,42223.0,30983.0,0.001403,-0.000732,-0.000488,0.3325,-2.66,-3.535,1.14875,0.29646875,0.177875,1.4251562500000001,1.10534375,-0.17875,-0.382125,1.39215625,0.019654396939461305,0.02296764535494753,True
31745,169,0,170,3913.0,42221.0,30983.0,0.0035989999999999998,-0.0011589999999999999,-0.000488,0.385,-3.3950000000000005,-3.535,1.12871875,0.29234375,0.17546875,1.43209375,1.103875,-0.17965625000000002,-0.3823125,1.39603125,0.01952054219133078,0.02287647039221567,True
31746,170,0,171,3915.0,42221.0,30979.0,0.008601,0.000244,-0.0025009999999999998,0.17500000000000002,-3.9025000000000003,-3.6925000000000003,1.14090625,0.29453125,0.17450000000000002,1.4264375,1.10375,-0.17409375,-0.3859375,1.38978125,0.019385421635505985,0.022981995258537835,True
31747,171,0,172,3916.0,42218.0,30978.0,0.008173999999999999,0.002074,-0.002806,0.22750000000000004,-3.6225000000000005,-3.6050000000000004,1.14621875,0.2973125,0.17596875,1.426375,1.11059375,-0.17871875,-0.38690625,1.38890625,0.019688026273104318,0.023081033495177358,True
31748,172,0,173,3916.0,42221.0,30978.0,0.006222,0.0008539999999999999,-0.00122,0.2625,-3.1850000000000005,-3.6050000000000004,1.1460937500000001,0.29675,0.1765625,1.42646875,1.10921875,-0.17965625000000002,-0.38506250000000003,1.3895625,0.019702771829107374,0.02303151775805373,True
31749,173,0,174,3915.0,42219.0,30977.0,0.003843,-6.1e-05,0.000183,0.07,-2.2750000000000004,-3.535,1.1454375,0.29690625,0.17325000000000002,1.4253437500000001,1.1053125,-0.18025,-0.382,1.39534375,0.019733305073355318,0.022772947256172585,True
31750,174,0,175,3915.0,42217.0,30977.0,0.00042699999999999997,-0.0017079999999999999,-0.000122,0.15750000000000003,-1.5050000000000001,-3.5000000000000004,1.1421875000000001,0.2976875,0.17565625,1.426,1.1050312500000001,-0.175875,-0.379375,1.39575,0.019588225865661533,0.02276642653882637,True
31751,175,0,176,3917.0,42216.0,30978.0,-0.008662,0.000183,0.002745,0.31500000000000006,-0.49000000000000005,-3.3425000000000002,1.140875,0.29615625,0.1756875,1.427875,1.1039375,-0.176875,-0.3823125,1.39396875,0.019565442183905078,0.022885442059689787,True
31752,176,0,177,3917.0,42219.0,30980.0,-0.010797,-0.000488,0.001952,0.36750000000000005,-0.6300000000000001,-3.3425000000000002,1.14053125,0.2945,0.17496875,1.4254375000000001,1.10540625,-0.17865625000000002,-0.38603125,1.3896875,0.019569170639910975,0.023004973390247745,True
31753,177,0,178,3917.0,42221.0,30983.0,-0.006039,-0.001464,0.0030499999999999998,0.42000000000000004,-0.9975,-3.2550000000000003,1.1415625,0.2968125,0.17246875,1.4264375,1.11278125,-0.1795,-0.3858125,1.38903125,0.019699021898715852,0.02289369074743768,True
31754,178,0,179,3917.0,42224.0,30989.0,-0.000244,-0.001281,0.000488,0.22750000000000004,-1.4000000000000001,-3.3775000000000004,1.1439375,0.29715625,0.1745625,1.425625,1.11396875,-0.1786875,-0.3863125,1.38728125,0.019680296955738398,0.022999582245163144,True
31755,179,0,180,3917.0,42227.0,30991.0,0.0053679999999999995,-6.1e-05,-0.001769,0.24500000000000002,-1.9425000000000001,-3.4475000000000002,1.1413125,0.29678125,0.1739375,1.4269375,1.1139375,-0.1740625,-0.38634375,1.38778125,0.019477228951484675,0.02297520512889514,True
31756,180,0,181,3920.0,42227.0,30989.0,0.006893,0.00122,-0.00042699999999999997,0.3325,-2.205,-3.7100000000000004,1.1430625,0.29812500000000003,0.1704375,1.4271562500000001,1.10978125,-0.1755625,-0.3853125,1.38734375,0.019593649578991183,0.022790357925493058,True
31757,181,0,182,3921.0,42229.0,30989.0,0.006771,-0.000244,-0.001098,0.15750000000000003,-1.7500000000000002,-3.7800000000000002,1.1633437500000001,0.29846875,0.171375,1.3998125000000001,1.11440625,-0.17834375,-0.38178125,1.388125,0.01972064360281088,0.022687278026497757,True
31758,182,0,183,3921.0,42229.0,30992.0,0.0023179999999999997,-6.1e-05,-0.001586,0.2625,-1.2775,-3.7100000000000004,1.1506875,0.29603125,0.1785625,1.42371875,1.112625,-0.17990625000000002,-0.38121875,1.38853125,0.01968318218768942,0.022959526992472435,True
31759,183,0,184,3921.0,42230.0,30993.0,-0.00183,0.0021349999999999997,-0.001281,0.35000000000000003,-0.8750000000000001,-3.7450000000000006,1.1314375,0.29762500000000003,0.18065625,1.41965625,1.107,-0.18184375,-0.38034375,1.39440625,0.019827634110819198,0.0230103400408372,True
31760,184,0,185,3923.0,42232.0,30996.0,-0.005978,0.002196,0.0018909999999999999,0.45500000000000007,-0.47250000000000003,-3.7275000000000005,1.1382812500000001,0.30040625,0.1796875,1.44571875,1.09396875,-0.1840625,-0.3793125,1.40021875,0.02003256276731835,0.022929276615162954,True
31761,185,0,186,3924.0,42235.0,31002.0,-0.0059169999999999995,-0.002196,0.000732,0.1925,-0.24500000000000002,-3.5525,1.129875,0.2833125,0.18196875,1.43175,1.101875,-0.18090625,-0.3811875,1.3922812500000001,0.019197739952364276,0.023097982819745757,True
31762,186,0,187,3924.0,42237.0,31003.0,-0.002806,-0.0015249999999999999,6.1e-05,0.07,-0.42000000000000004,-3.6050000000000004,1.142875,0.2963125,0.16746875,1.4160625,1.10096875,-0.181,-0.385125,1.38659375,0.019739154708242005,0.02266109974830968,True
31763,187,0,188,3925.0,42236.0,31003.0,0.000732,-0.000793,-0.000488,0.21000000000000002,-0.5950000000000001,-3.6050000000000004,1.1441875,0.29115625,0.1789375,1.442125,1.1139375,-0.17871875,-0.381125,1.39515625,0.01943341187175189,0.02297115083901994,True
31764,188,0,189,3926.0,42235.0,31003.0,0.000366,-6.1e-05,-0.000122,0.2625,-0.8225000000000001,-3.5525,1.12896875,0.2895,0.1721875,1.41909375,1.10165625,-0.18003125,-0.38153125,1.387625,0.01941814074371802,0.022710581395497875,True
31765,189,0,190,3927.0,42239.0,31006.0,-0.0018909999999999999,0.001098,0.0,0.36750000000000005,-1.0325000000000002,-3.5700000000000003,1.15215625,0.29865625,0.165375,1.41675,1.1046562500000001,-0.17921875,-0.38396875,1.38021875,0.019763872643734613,0.022528890010983137,True
31766,190,0,191,3926.0,42239.0,31006.0,0.001586,0.000915,-0.001586,0.31500000000000006,-1.8025000000000002,-3.5000000000000004,1.159,0.29715625,0.175625,1.4201875,1.111875,-0.17853125,-0.3863125,1.3905,0.019673961792034,0.02304315176802561,True
31767,191,0,192,3929.0,42241.0,31009.0,0.003294,0.0008539999999999999,-0.000976,0.2625,-1.995,-3.6750000000000003,1.13478125,0.29609375,0.17709375,1.4293437500000001,1.110625,-0.17834375,-0.383125,1.3905,0.019622415203688216,0.022975674775074974,True
31768,192,0,193,3928.0,42244.0,31013.0,0.003904,0.0,0.000976,0.28,-2.1350000000000002,-3.7275000000000005,1.14103125,0.29403125,0.17550000000000002,1.43015625,1.10896875,-0.17896875,-0.38546875,1.39128125,0.019562455491407178,0.023004222545445225,True
31769,193,0,194,3930.0,42242.0,31012.0,0.002013,0.000793,0.001098,0.2625,-2.1350000000000002,-3.6400000000000006,1.14065625,0.29571875000000003,0.1718125,1.41996875,1.1104375,-0.1794375,-0.38509375,1.39440625,0.01965125326013064,0.0228379786319255,True
31770,194,0,195,3932.0,42245.0,31013.0,0.00122,-0.00042699999999999997,-0.001586,0.28,-1.9775000000000003,-3.6225000000000005,1.14903125,0.295625,0.1736875,1.43196875,1.1044375,-0.1725625,-0.38253125,1.395,0.019368550603602742,0.022812182389800074,True
31771,195,0,196,3931.0,42245.0,31019.0,0.0008539999999999999,0.000732,-0.002074,0.21000000000000002,-1.6275000000000002,-3.6400000000000006,1.1400625,0.29265625,0.17859375,1.4320625,1.103,-0.17871875,-0.38346875,1.3896875,0.019495449898477353,0.023050965626045312,True
31772,196,0,197,3932.0,42249.0,31019.0,-0.000488,0.001464,-0.000183,0.2625,-1.4000000000000001,-3.6750000000000003,1.1403125,0.29440625,0.1783125,1.42815625,1.1108437500000001,-0.177625,-0.381625,1.38903125,0.019523474700265227,0.02296555295227451,True
31773,197,0,198,3933.0,42250.0,31020.0,6.1e-05,0.000793,0.001647,0.1925,-1.1375000000000002,-3.535,1.1410625,0.296625,0.171375,1.41990625,1.11196875,-0.1765,-0.38515625000000003,1.390125,0.01956962339461874,0.022822541889597283,True
31774,198,0,199,3935.0,42253.0,31022.0,-0.000366,-0.000305,0.001037,0.17500000000000002,-0.8575,-3.6050000000000004,1.14690625,0.29703125,0.1729375,1.42575,1.108125,-0.17934375,-0.384125,1.3780625,0.01970173404726917,0.02284529381308536,True
31775,199,0,200,3934.0,42253.0,31025.0,-0.002806,-6.1e-05,-0.000976,0.14,-0.7350000000000001,-3.5700000000000003,1.14071875,0.29690625,0.17478125,1.42975,1.1123125,-0.1785625,-0.3836875,1.3799062500000001,0.019664889093385925,0.022903375463616815,True
31776,200,0,201,3936.0,42253.0,31024.0,-0.002745,-0.0013419999999999999,-6.1e-05,0.10500000000000001,-0.9800000000000001,-3.4825000000000004,1.1416875,0.29759375,0.1751875,1.42671875,1.09740625,-0.17821875,-0.3824375,1.38875,0.019679386017632087,0.0228699448117113,True
31777,201,0,202,3936.0,42257.0,31026.0,-0.0028669999999999998,-0.002379,0.0013419999999999999,0.08750000000000001,-1.2600000000000002,-3.4825000000000004,1.14096875,0.2945,0.17596875,1.4306875000000001,1.11259375,-0.1790625,-0.3853125,1.39225,0.019585643570754655,0.023017185037099687,True
31778,202,0,203,3938.0,42258.0,31030.0,-0.001464,-0.0023179999999999997,0.001281,0.15750000000000003,-1.4700000000000002,-3.6050000000000004,1.14040625,0.2951875,0.17609375,1.4290625000000001,1.10378125,-0.17934375,-0.37853125,1.3931875,0.019625480943832478,0.022750550240798445,True
31779,203,0,204,3938.0,42258.0,31030.0,-0.000976,-0.0017079999999999999,-0.000366,0.21000000000000002,-1.6275000000000002,-3.6225000000000005,1.13184375,0.29296875,0.17628125,1.426375,1.09940625,-0.18146875,-0.38265625000000003,1.39778125,0.01961987937560658,0.022923568879005957,True
31780,204,0,205,3940.0,42259.0,31030.0,0.002562,0.000549,0.000122,0.052500000000000005,-1.9075000000000002,-3.8150000000000004,1.1459062500000001,0.30440625,0.172625,1.4274375000000001,1.1040625,-0.18031250000000001,-0.3821875,1.39290625,0.020046008503818963,0.022754828704356408,True
31781,205,0,206,3942.0,42258.0,31030.0,0.001464,0.001952,0.000732,0.10500000000000001,-2.0125,-3.8325000000000005,1.1465,0.30078125,0.17328125,1.42653125,1.10371875,-0.17234375,-0.38175000000000003,1.38315625,0.019572988241986257,0.022764208885744465,True
31782,206,0,207,3942.0,42258.0,31030.0,0.001281,0.002928,0.0011589999999999999,0.24500000000000002,-2.31,-3.8500000000000005,1.14640625,0.29415625,0.1763125,1.42953125,1.1050312500000001,-0.17671875,-0.382125,1.3924375,0.019476381591277767,0.022903561523041984,True
31783,207,0,208,3942.0,42255.0,31027.0,0.001464,0.002257,-0.0017079999999999999,0.08750000000000001,-2.5900000000000003,-3.7800000000000002,1.14121875,0.29340625,0.17609375,1.43215625,1.10453125,-0.18059375,-0.38128125,1.3905625,0.019602496320008683,0.022860775620641344,True
31784,208,0,209,3944.0,42255.0,31026.0,0.0035989999999999998,0.002196,-0.001403,0.21000000000000002,-2.6425,-3.9725000000000006,1.140875,0.29284375,0.17553125,1.43265625,1.1049375000000001,-0.17828125,-0.3826875,1.3901875000000001,0.019485462805591276,0.02289406161646455,True
31785,209,0,210,3945.0,42250.0,31023.0,0.004758,-0.000793,-0.000122,0.08750000000000001,-2.4675000000000002,-3.9025000000000003,1.14065625,0.30053125,0.183,1.43075,1.107625,-0.178875,-0.3853125,1.389625,0.019827483702198716,0.02330552458575218,True
31786,210,0,211,3943.0,42247.0,31019.0,0.002562,-0.00366,-0.0021349999999999997,0.052500000000000005,-2.24,-3.8500000000000005,1.1340937500000001,0.293125,0.17550000000000002,1.4284375,1.11003125,-0.1778125,-0.38346875,1.39859375,0.019478085538135428,0.02292408663143959,True
31787,211,0,212,3945.0,42245.0,31017.0,0.00122,-0.002928,-0.002074,0.14,-1.8550000000000002,-3.8325000000000005,1.13359375,0.29409375,0.17571875,1.43209375,1.105,-0.18006250000000001,-0.38446875,1.38815625,0.019609388933548043,0.02297312710575251,True
31788,212,0,213,3946.0,42244.0,31018.0,-0.0035989999999999998,0.000549,0.0,0.2625,-1.5925000000000002,-3.7275000000000005,1.13765625,0.2930625,0.17528125,1.41434375,1.107,-0.176125,-0.385,1.39159375,0.019407059650791845,0.022976471191306132,True
31789,213,0,214,3946.0,42246.0,31016.0,-0.0053679999999999995,-0.0006709999999999999,0.000976,0.28,-1.4525000000000001,-3.7275000000000005,1.1419375,0.29621875000000003,0.17615625000000001,1.43253125,1.10409375,-0.18365625,-0.38340625,1.38525,0.019842946618131824,0.022948495967416365,True
31790,214,0,215,3948.0,42244.0,31015.0,-0.003721,-0.001281,0.0006709999999999999,0.3325,-1.6625,-3.7100000000000004,1.13884375,0.29746875,0.175875,1.43184375,1.11625,-0.17653125,-0.386625,1.38184375,0.01960579022269789,0.023065922406237026,True
31791,215,0,216,3948.0,42246.0,31017.0,0.000183,0.000305,-0.000732,0.35000000000000003,-1.8900000000000001,-3.7100000000000004,1.14103125,0.29371875000000003,0.1748125,1.43309375,1.1128125,-0.17646875,-0.3909375,1.3845625,0.01944814624757803,0.023195090389617045,True
31792,216,0,217,3950.0,42248.0,31017.0,0.000549,0.001403,-0.0008539999999999999,0.36750000000000005,-2.0300000000000002,-3.6925000000000003,1.14046875,0.2965,0.171875,1.42653125,1.11778125,-0.1771875,-0.3815,1.39375,0.019592332648286737,0.022696511699444248,True
31793,217,0,218,3951.0,42245.0,31019.0,0.000976,0.000732,-0.001464,0.49000000000000005,-2.205,-3.535,1.1480000000000001,0.292375,0.17528125,1.4321875,1.09834375,-0.18015625,-0.38753125,1.38525,0.019542109038273893,0.02307787919287648,True
31794,218,0,219,3951.0,42242.0,31016.0,0.002074,0.002623,-0.0015249999999999999,0.4025,-2.2575000000000003,-3.5700000000000003,1.1406875,0.29440625,0.17434375,1.424625,1.12128125,-0.176875,-0.38725,1.3815,0.01949305896647106,0.02302817045792371,True
31795,219,0,220,3952.0,42241.0,31015.0,0.005673,-6.1e-05,-0.0021349999999999997,0.21000000000000002,-1.8900000000000001,-3.4475000000000002,1.1420937500000001,0.29621875000000003,0.17296875,1.4255625,1.11434375,-0.18128125,-0.38484375,1.39128125,0.019746679055726215,0.022875377251494588,True
31796,220,0,221,3953.0,42242.0,31013.0,0.00549,-6.1e-05,-0.00042699999999999997,0.22750000000000004,-1.4700000000000002,-3.4125000000000005,1.1473125,0.29584375,0.17528125,1.43265625,1.098,-0.1814375,-0.380625,1.3965,0.019737505266177825,0.022801148452921124,True
31797,221,0,222,3955.0,42241.0,31014.0,0.00183,-0.002013,0.0008539999999999999,0.1925,-1.2775,-3.4125000000000005,1.14109375,0.2991875,0.17121875,1.4255625,1.1111875,-0.176125,-0.3819375,1.3959062500000001,0.019660408771049954,0.022687132636608556,True
31798,222,0,223,3955.0,42241.0,31015.0,-0.0023179999999999997,-0.0006709999999999999,0.00183,0.28,-0.8225000000000001,-3.3950000000000005,1.14796875,0.29634375,0.176125,1.427625,1.09984375,-0.173625,-0.38103125,1.397,0.019441384980531468,0.02285203789318797,True
31799,223,0,224,3956.0,42243.0,31018.0,-0.005978,-0.000122,0.00122,0.36750000000000005,-0.5425000000000001,-3.3775000000000004,1.1405625,0.29396875,0.17500000000000002,1.4265,1.10453125,-0.17859375,-0.38506250000000003,1.38403125,0.019544664379002603,0.02296744164588465,True
31800,224,0,225,3955.0,42243.0,31022.0,-0.003843,-0.00042699999999999997,0.000732,0.28,-0.8750000000000001,-3.43,1.14384375,0.29696875,0.17128125,1.417875,1.111875,-0.17828125,-0.3820625,1.38871875,0.019656070466133733,0.022694706405579922,True
31801,225,0,226,3955.0,42249.0,31023.0,0.001281,-0.001403,0.0011589999999999999,0.43750000000000006,-1.0850000000000002,-3.43,1.14534375,0.29625,0.1760625,1.4309375,1.10396875,-0.18028125,-0.38221875,1.3945625,0.01970743206305758,0.02289706509995117,True
31802,226,0,227,3957.0,42249.0,31025.0,0.004148,-0.000488,0.000366,0.42000000000000004,-1.05,-3.535,1.141125,0.29365625,0.17603125,1.43209375,1.097875,-0.17809375,-0.38265625000000003,1.397375,0.019511463760454647,0.02291331568930272,True
31803,227,0,228,3955.0,42250.0,31029.0,0.001464,0.000976,-0.001403,0.43750000000000006,-0.9625000000000001,-3.535,1.141125,0.29415625,0.175875,1.42965625,1.10434375,-0.1805,-0.38284375,1.39078125,0.019629711957982673,0.022914421128585542,True
31804,228,0,229,3955.0,42255.0,31032.0,-0.00122,0.003172,6.1e-05,0.385,-0.805,-3.6050000000000004,1.1461875,0.2963125,0.17284375,1.426125,1.10609375,-0.17834375,-0.3811875,1.393875,0.01963146255623899,0.022723718850855806,True
31805,229,0,230,3955.0,42256.0,31031.0,-0.004209,0.000305,0.000549,0.525,-0.6300000000000001,-3.6225000000000005,1.1455,0.29225,0.1745625,1.418625,1.1044375,-0.18146875,-0.3838125,1.3895625,0.019590156201740226,0.022899413289041656,True
31806,230,0,231,3954.0,42255.0,31034.0,-0.003904,0.000366,0.000549,0.3325,-0.665,-3.6050000000000004,1.14765625,0.2955,0.17584375,1.4333437500000001,1.1100625,-0.182625,-0.38265625000000003,1.38959375,0.01977142679919984,0.022905625797025292,True
31807,231,0,232,3953.0,42252.0,31032.0,-0.0044529999999999995,-0.000183,-0.000366,0.2625,-1.1025,-3.6925000000000003,1.150125,0.297375,0.1760625,1.43721875,1.1048437500000001,-0.17884375,-0.37746875,1.39678125,0.019695679203022273,0.022706674580395065,True
31808,232,0,233,3952.0,42252.0,31030.0,-0.001403,-0.000183,0.001037,0.22750000000000004,-1.5225000000000002,-3.5875000000000004,1.14834375,0.29671875000000003,0.17759375,1.43375,1.112625,-0.17875,-0.3823125,1.39365625,0.01966473659721863,0.022963623733392804,True
31809,233,0,234,3950.0,42251.0,31027.0,0.0006709999999999999,-0.000732,0.001647,0.22750000000000004,-2.1875,-3.6400000000000006,1.1513125,0.29578125,0.17628125,1.43346875,1.10809375,-0.17981250000000001,-0.38271875,1.39615625,0.019669042098651512,0.022926073410086803,True
31810,234,0,235,3947.0,42249.0,31025.0,0.006344,-0.0018909999999999999,-0.0021349999999999997,0.2625,-2.7300000000000004,-3.7275000000000005,1.142375,0.2975625,0.17546875,1.4280625,1.112125,-0.17915625000000002,-0.38403125,1.3957187500000001,0.019716103617139248,0.02294534460949725,True
31811,235,0,236,3947.0,42244.0,31019.0,0.005795,0.000793,-0.0017079999999999999,0.21000000000000002,-2.6075000000000004,-3.7275000000000005,1.1379375,0.29475,0.17340625,1.4244375,1.10490625,-0.17190625,-0.3864375,1.3896875,0.01930572811153444,0.02295717650435821,True
31812,236,0,237,3947.0,42239.0,31014.0,0.0048189999999999995,0.00183,-0.001464,0.12250000000000001,-2.3975000000000004,-3.7625,1.15103125,0.29712500000000003,0.17090625,1.4228750000000001,1.104375,-0.17928125,-0.3829375,1.389875,0.019703077402269766,0.022714398131890384,True
31813,237,0,238,3943.0,42238.0,31012.0,0.002562,0.000366,0.00042699999999999997,0.12250000000000001,-2.0475000000000003,-3.8150000000000004,1.15115625,0.2969375,0.17625,1.4305625,1.10440625,-0.18175,-0.3819375,1.39271875,0.01979540355846868,0.022893484162199988,True
31814,238,0,239,3942.0,42235.0,31007.0,0.000915,-0.0013419999999999999,0.000366,0.10500000000000001,-1.61,-3.7975000000000003,1.13853125,0.29353125,0.1764375,1.436,1.1045,-0.1790625,-0.38190625,1.3865625,0.019545577914776475,0.022899921945192452,True
31815,239,0,240,3941.0,42235.0,31005.0,-0.002562,-0.000122,-0.001098,0.1925,-0.9625000000000001,-3.7275000000000005,1.1395,0.29812500000000003,0.1699375,1.42415625,1.10925,-0.1786875,-0.3849375,1.3891875,0.019720363233115944,0.022754825596743893,True
31816,240,0,241,3940.0,42232.0,31000.0,-0.0064659999999999995,0.0015249999999999999,0.001403,0.14,-0.7000000000000001,-3.7100000000000004,1.1475312500000001,0.29696875,0.17359375,1.4279375,1.106625,-0.1784375,-0.38453125,1.38975,0.019662405810962763,0.022888485912559833,True
31817,241,0,242,3939.0,42231.0,31002.0,-0.00549,0.000244,0.003355,0.14,-0.6825000000000001,-3.6225000000000005,1.1478125000000001,0.297375,0.172375,1.42509375,1.1079375,-0.17834375,-0.38253125,1.38953125,0.019675406840057023,0.02275835286789594,True
31818,242,0,243,3939.0,42230.0,31003.0,-0.0053679999999999995,-0.001098,0.002806,0.15750000000000003,-0.77,-3.6925000000000003,1.145125,0.2965,0.17571875,1.43003125,1.10359375,-0.1780625,-0.382125,1.3946875,0.01962781343625032,0.022879209666917876,True
31819,243,0,244,3936.0,42230.0,31000.0,-0.001098,-0.000732,0.0,0.17500000000000002,-1.0675000000000001,-3.7275000000000005,1.14078125,0.29621875000000003,0.17178125,1.4255,1.10471875,-0.17790625000000002,-0.38575,1.389,0.019609845248696835,0.022862993756599653,True
31820,244,0,245,3938.0,42228.0,31000.0,-0.000183,-0.000793,-0.0008539999999999999,0.24500000000000002,-1.9425000000000001,-3.4825000000000004,1.14796875,0.294875,0.1751875,1.4315,1.0959375,-0.18396875000000001,-0.38215625000000003,1.39121875,0.019800048327469,0.022858673543280243,True
31821,245,0,246,3938.0,42229.0,30999.0,0.002074,0.0008539999999999999,-0.0013419999999999999,0.08750000000000001,-2.0650000000000004,-3.5525,1.141875,0.29281250000000003,0.1750625,1.4334375,1.105,-0.177375,-0.3961875,1.38696875,0.01944741726510839,0.023415543924639865,True
31822,246,0,247,3937.0,42230.0,30999.0,0.0025009999999999998,0.001037,0.0,0.08750000000000001,-2.205,-3.5525,1.1441875,0.2965625,0.1759375,1.43075,1.1054375,-0.18875,-0.38140625,1.380125,0.02006356260658364,0.022859376702276966,True
31823,247,0,248,3937.0,42228.0,30999.0,0.0028669999999999998,0.000915,-0.00061,0.07,-2.1,-3.6050000000000004,1.140875,0.29675,0.17434375,1.428375,1.1215625,-0.1795625,-0.37234375000000003,1.4018125000000001,0.01969897098014077,0.0224306494938551,True
31824,248,0,249,3936.0,42228.0,30998.0,0.002623,0.001464,0.00061,0.0175,-2.0475000000000003,-3.6400000000000006,1.141,0.29531250000000003,0.17496875,1.42565625,1.11534375,-0.169625,-0.39059375,1.38746875,0.01923643829807041,0.02318772990099923,True
31825,249,0,250,3937.0,42223.0,30996.0,0.0018909999999999999,-0.002074,-0.0008539999999999999,-0.07,-1.54,-3.5875000000000004,1.1479375,0.29721875000000003,0.1728125,1.4230625000000001,1.09815625,-0.18440625,-0.37871875,1.38778125,0.019914691930880052,0.02262347154728958,True
31826,250,0,251,3937.0,42224.0,30996.0,-0.001647,-0.0006709999999999999,-0.000488,0.10500000000000001,-1.4525000000000001,-3.5875000000000004,1.1356875,0.29690625,0.175375,1.43275,1.11490625,-0.1733125,-0.382125,1.379625,0.01945197829217655,0.022865111223898657,True
31827,251,0,252,3937.0,42224.0,30993.0,-0.002196,-0.000976,6.1e-05,0.15750000000000003,-1.435,-3.4650000000000003,1.1411875,0.29396875,0.175875,1.42509375,1.12878125,-0.1778125,-0.38471875,1.40121875,0.019512983236179865,0.022989551601861308,True
31828,252,0,253,3937.0,42223.0,30992.0,-0.0044529999999999995,0.001098,0.001403,0.22750000000000004,-1.3475000000000001,-3.4650000000000003,1.1475312500000001,0.296375,0.1734375,1.4267812500000001,1.0939375,-0.18696875000000002,-0.37778125,1.402375,0.019983643051591574,0.022611522531403465,True
31829,253,0,254,3938.0,42221.0,30995.0,-0.002623,-0.000488,0.002013,0.35000000000000003,-1.5925000000000002,-3.535,1.143,0.29581250000000003,0.17453125,1.4255,1.0923125,-0.180125,-0.37871875,1.40634375,0.019683004120119314,0.022693973611718214,True
31830,254,0,255,3938.0,42223.0,30997.0,-0.002196,0.00244,-0.000915,0.42000000000000004,-2.0825,-3.4825000000000004,1.14625,0.29628125,0.17365625,1.41984375,1.09296875,-0.18331250000000002,-0.38209375,1.39153125,0.019831598752238763,0.02279336654588985,True
31831,255,0,256,3938.0,42224.0,30998.0,0.000549,0.002379,-0.00183,0.49000000000000005,-2.415,-3.43,1.1485,0.2965625,0.17246875,1.43034375,1.093875,-0.1780625,-0.38253125,1.38653125,0.019630398424191352,0.022762197833746237,True
31832,256,0,257,3938.0,42224.0,30997.0,0.0048189999999999995,0.000305,-0.0013419999999999999,0.35000000000000003,-2.5375,-3.5700000000000003,1.1441875,0.29675,0.17353125,1.42140625,1.10828125,-0.17934375,-0.38321875,1.3871875,0.01969010221793137,0.02283332671163441,True
31833,257,0,258,3937.0,42222.0,30995.0,0.006222,-0.001464,6.1e-05,0.15750000000000003,-2.5200000000000005,-3.5875000000000004,1.146375,0.2965625,0.17540625,1.426,1.10990625,-0.1793125,-0.38409375,1.3899062500000001,0.019681080675887704,0.022945285797221805,True
31834,258,0,259,3938.0,42222.0,30992.0,0.003477,-0.000366,-0.000122,0.1925,-2.1875,-3.6050000000000004,1.14628125,0.29578125,0.172625,1.42596875,1.10775,-0.18121875,-0.381625,1.39459375,0.019726052889703916,0.022732283020512375,True
31835,259,0,260,3940.0,42222.0,30994.0,-0.00061,0.000915,0.000915,0.42000000000000004,-1.435,-3.6750000000000003,1.14234375,0.29578125,0.17575000000000002,1.42884375,1.0910312500000001,-0.18031250000000001,-0.3816875,1.3939375,0.019689313361851712,0.022862958111492488,True
31836,260,0,261,3939.0,42221.0,30994.0,-0.0044529999999999995,0.000122,0.001403,0.45500000000000007,-1.0675000000000001,-3.5525,1.14053125,0.2963125,0.175125,1.4273125,1.1045,-0.17678125,-0.38140625,1.38884375,0.019568103177506308,0.02282605212732551,True
31837,261,0,262,3939.0,42224.0,30996.0,-0.0060999999999999995,0.000305,0.002257,0.43750000000000006,-1.0850000000000002,-3.4825000000000004,1.1316875,0.29675,0.17434375,1.4267812500000001,1.11159375,-0.178375,-0.38609375,1.3883750000000001,0.019650824341999825,0.022981848005074614,True
31838,262,0,263,3940.0,42224.0,30998.0,-0.0044529999999999995,0.001281,-0.000366,0.29750000000000004,-1.1725,-3.5000000000000004,1.1454375,0.29678125,0.1765,1.42346875,1.10509375,-0.1819375,-0.38284375,1.39640625,0.019796542357286298,0.022940053905730336,True
31839,263,0,264,3940.0,42223.0,31000.0,0.000732,-0.001098,-0.000549,0.47250000000000003,-1.435,-3.5525,1.1403125,0.29346875,0.17515625,1.43728125,1.0958125,-0.18031250000000001,-0.3823125,1.39496875,0.019593677707846004,0.0228636537243955,True
31840,264,0,265,3939.0,42225.0,30999.0,0.001037,0.0,-0.000122,0.35000000000000003,-1.4875,-3.5525,1.14153125,0.29684375,0.1689375,1.4255625,1.105,-0.17759375,-0.38628125,1.39078125,0.019623023899969366,0.022767667784525367,True
31841,265,0,266,3939.0,42226.0,30999.0,0.00183,-0.000183,0.000244,0.31500000000000006,-1.435,-3.3950000000000005,1.16,0.29709375,0.1719375,1.42078125,1.1116875,-0.17853125,-0.38475,1.388125,0.019671376854208212,0.02282932980653892,True
31842,266,0,267,3941.0,42226.0,31000.0,0.001464,-0.000732,-0.001037,0.2625,-1.3825,-3.3775000000000004,1.154875,0.295875,0.1796875,1.43615625,1.11175,-0.17890625000000002,-0.38275000000000003,1.3957187500000001,0.019636175643801095,0.02306702484338313,True
31843,267,0,268,3939.0,42225.0,31000.0,0.002074,-0.00042699999999999997,-0.001281,0.36750000000000005,-1.2425000000000002,-3.4650000000000003,1.12703125,0.29515625,0.1713125,1.422,1.10403125,-0.18140625,-0.38240625,1.3900937500000001,0.019707807522567056,0.022709766391493868,True
31844,268,0,269,3938.0,42225.0,30999.0,0.000366,0.000122,0.00183,0.21000000000000002,-0.9625000000000001,-3.4125000000000005,1.1575625,0.30475,0.16871875,1.42003125,1.1121875,-0.1776875,-0.38515625000000003,1.39025,0.019953831399301524,0.02271361291769455,True
31845,269,0,270,3941.0,42223.0,30999.0,-0.0015249999999999999,-0.000732,0.000732,0.29750000000000004,-0.9450000000000001,-3.43,1.15425,0.29615625,0.17159375000000002,1.4249375,1.1098125,-0.179375,-0.38506250000000003,1.3900937500000001,0.019666813141365317,0.02282775572135606,True
31846,270,0,271,3942.0,42227.0,31001.0,-0.00244,-0.000183,0.000488,0.29750000000000004,-0.8925000000000001,-3.5175000000000005,1.13596875,0.28815625,0.17740625000000002,1.4424375,1.10325,-0.18265625,-0.38184375,1.3958125000000001,0.019469015112845593,0.02293714969771308,True
31847,271,0,272,3941.0,42227.0,31003.0,-0.004697,0.001281,0.0006709999999999999,0.42000000000000004,-1.05,-3.5175000000000005,1.13453125,0.30162500000000003,0.17578125,1.42853125,1.1051875,-0.17946875,-0.38215625000000003,1.39065625,0.019896787434587455,0.022883025368193182,True
31848,272,0,273,3944.0,42229.0,31006.0,-0.004331,0.000549,0.000549,0.35000000000000003,-1.3475000000000001,-3.4475000000000002,1.12834375,0.29909375,0.16721875,1.421125,1.10615625,-0.17778125,-0.38625,1.3897187500000001,0.019723687424792132,0.022695935209390537,True
31849,273,0,274,3943.0,42230.0,31008.0,0.0017079999999999999,-0.000488,-6.1e-05,0.22750000000000004,-1.8900000000000001,-3.43,1.1535625,0.2990625,0.17421875,1.42565625,1.11290625,-0.178625,-0.386125,1.3895,0.01975660319807268,0.02297797415538549,True
31850,274,0,275,3943.0,42229.0,31009.0,0.0057339999999999995,0.0,-0.00042699999999999997,0.21000000000000002,-1.9775000000000003,-3.5000000000000004,1.1411875,0.29471875000000003,0.1746875,1.4294375000000001,1.111375,-0.1778125,-0.385375,1.39003125,0.019544003412219367,0.022967147316783114,True
31851,275,0,276,3945.0,42230.0,31010.0,0.0051849999999999995,-0.000488,-0.000488,0.29750000000000004,-2.1175,-3.5875000000000004,1.1398125000000001,0.2964375,0.1713125,1.42621875,1.11221875,-0.17834375,-0.38559375,1.3894375,0.01963663247198229,0.022837510364085354,True
31852,276,0,277,3945.0,42232.0,31009.0,0.004392,0.000122,6.1e-05,0.29750000000000004,-2.0125,-3.6575,1.1484375,0.29565625,0.17350000000000002,1.4265625,1.109625,-0.17890625000000002,-0.383375,1.3895,0.01962712850172865,0.0228383068381633,True
31853,277,0,278,3945.0,42230.0,31009.0,0.001464,0.000366,-0.0006709999999999999,0.35000000000000003,-1.8725000000000003,-3.6400000000000006,1.1450625,0.2983125,0.17350000000000002,1.42653125,1.1095,-0.178125,-0.38634375,1.3968125,0.01970531213648701,0.022957264760118046,True
31854,278,0,279,3945.0,42231.0,31010.0,-0.00183,0.0015249999999999999,0.000366,0.31500000000000006,-1.1375000000000002,-3.7975000000000003,1.14615625,0.29621875000000003,0.1743125,1.42596875,1.10403125,-0.179875,-0.38190625,1.39278125,0.01968966961160883,0.022812767151871072,True
31855,279,0,280,3946.0,42233.0,31015.0,-0.004514,0.001037,0.000915,0.29750000000000004,-1.2775,-3.7625,1.14565625,0.29559375,0.17400000000000002,1.42621875,1.10440625,-0.1821875,-0.3818125,1.39140625,0.019757569492007288,0.022796192858918922,True
31856,280,0,281,3946.0,42236.0,31018.0,-0.005307,-0.00183,0.00061,0.22750000000000004,-1.3475000000000001,-3.6225000000000005,1.1466875,0.29696875,0.17250000000000001,1.427125,1.10746875,-0.17450000000000002,-0.3851875,1.3855625,0.019502730149537736,0.0228699287220982,True
31857,281,0,282,3947.0,42237.0,31019.0,-0.004392,-0.0006709999999999999,0.001403,0.15750000000000003,-1.6800000000000002,-3.7275000000000005,1.14140625,0.29828125,0.17471875,1.43353125,1.11096875,-0.17415625,-0.3835,1.39325,0.019543081260592083,0.022893298747103573,True
31858,282,0,283,3949.0,42237.0,31021.0,-0.00183,-0.0013419999999999999,0.0,0.08750000000000001,-1.995,-3.6225000000000005,1.14084375,0.2949375,0.17571875,1.43246875,1.10515625,-0.1804375,-0.38246875,1.39253125,0.01965948713707103,0.022892985354487538,True
31859,283,0,284,3949.0,42235.0,31019.0,0.0062829999999999995,-0.000976,-0.002074,0.07,-2.2925000000000004,-3.5700000000000003,1.14015625,0.29365625,0.17421875,1.4233125,1.104375,-0.1801875,-0.38575,1.39021875,0.019596363758552327,0.022962949673477336,True
31860,284,0,285,3950.0,42234.0,31016.0,0.005795,0.000122,0.001037,0.035,-2.0825,-3.6400000000000006,1.14959375,0.296875,0.1731875,1.42675,1.10709375,-0.1793125,-0.38315625000000003,1.38584375,0.019694004947411137,0.02281672414743272,True
31861,285,0,286,3950.0,42233.0,31016.0,0.0018909999999999999,0.0017079999999999999,0.000488,0.15750000000000003,-1.7850000000000001,-3.6225000000000005,1.14575,0.3005,0.17553125,1.42628125,1.10515625,-0.17890625000000002,-0.38134375,1.38959375,0.019827458076189863,0.02284020953521071,True
31862,286,0,287,3949.0,42233.0,31017.0,-0.001037,0.0018909999999999999,-6.1e-05,0.21000000000000002,-1.715,-3.5875000000000004,1.147,0.2966875,0.1716875,1.426625,1.10553125,-0.18140625,-0.38178125,1.39421875,0.019771130969688747,0.02270009497357786,True
31863,287,0,288,3951.0,42235.0,31018.0,-0.003172,0.001098,-0.000549,0.21000000000000002,-1.5225000000000002,-3.5875000000000004,1.14815625,0.29675,0.17325000000000002,1.42640625,1.11028125,-0.1784375,-0.38375000000000004,1.38996875,0.019653358493492392,0.022843081970574667,True
31864,288,0,289,3951.0,42234.0,31020.0,-0.000122,-0.000244,0.000366,0.2625,-1.4000000000000001,-3.5875000000000004,1.1421875000000001,0.29371875000000003,0.17496875,1.42025,1.11253125,-0.17796875,-0.38284375,1.39503125,0.019508979636678535,0.0228772536017256,True
31865,289,0,290,3951.0,42235.0,31020.0,-0.000549,-0.0013419999999999999,0.000732,0.21000000000000002,-1.435,-3.5000000000000004,1.134625,0.29381250000000003,0.1756875,1.42628125,1.10425,-0.17975,-0.38134375,1.3950625,0.019585086694444732,0.02284661812374472,True
31866,290,0,291,3953.0,42235.0,31023.0,-0.000122,-0.003172,0.0,0.15750000000000003,-1.5225000000000002,-3.4475000000000002,1.14515625,0.29665625,0.17340625,1.426375,1.1048125,-0.1788125,-0.38371875,1.3889375,0.01966468576568845,0.022848237617570124,True
31867,291,0,292,3954.0,42238.0,31025.0,0.0008539999999999999,-0.002379,-0.001647,0.22750000000000004,-1.3825,-3.4475000000000002,1.13375,0.2949375,0.17500000000000002,1.431125,1.10425,-0.17815625000000002,-0.38309375,1.39596875,0.019566990348984944,0.022888553672562574,True
31868,292,0,293,3954.0,42238.0,31026.0,0.0,-0.001281,-0.00061,0.29750000000000004,-1.4000000000000001,-3.5875000000000004,1.14365625,0.29678125,0.173625,1.42921875,1.1054375,-0.179,-0.38428125,1.38984375,0.019677457711237023,0.022879749633793287,True
31869,293,0,294,3955.0,42241.0,31030.0,-0.002379,0.001952,0.0017079999999999999,0.3325,-1.2775,-3.5875000000000004,1.14165625,0.29521875000000003,0.17909375,1.4293125,1.1007500000000001,-0.17821875,-0.38290625,1.40165625,0.019581157110674253,0.023048934127776505,True
31870,294,0,295,3955.0,42241.0,31032.0,-0.0030499999999999998,0.002562,0.001098,0.385,-1.3475000000000001,-3.6750000000000003,1.141875,0.29671875000000003,0.1763125,1.42859375,1.1045,-0.181125,-0.38306250000000003,1.39090625,0.01976102228494332,0.02294112972888455,True
31871,295,0,296,3956.0,42243.0,31030.0,-0.003172,0.003538,0.000244,0.31500000000000006,-1.715,-3.7450000000000006,1.1398125000000001,0.29396875,0.17884375,1.43440625,1.1089375000000001,-0.17675,-0.383875,1.38825,0.01946989359612024,0.02307749486084554,True
31872,296,0,297,3956.0,42244.0,31034.0,-6.1e-05,0.002623,6.1e-05,0.36750000000000005,-2.0300000000000002,-3.7275000000000005,1.14253125,0.29315625,0.17575000000000002,1.437125,1.1091875,-0.18140625,-0.38140625,1.39721875,0.019625099346734644,0.022851686415749705,True
31873,297,0,298,3957.0,42243.0,31036.0,0.00042699999999999997,0.002257,0.0013419999999999999,0.4025,-2.31,-3.7100000000000004,1.1415,0.28846875,0.176,1.4425937500000001,1.10178125,-0.18359375,-0.37959375,1.3993125,0.019519948312065903,0.022789294838024114,True
31874,298,0,299,3958.0,42244.0,31033.0,0.0015249999999999999,-0.0034159999999999998,-0.000793,0.14,-2.8175000000000003,-3.7100000000000004,1.1381875000000001,0.29546875,0.1695,1.42365625,1.10196875,-0.1794375,-0.38184375,1.37753125,0.019640913896363386,0.022612881767811344,True
31875,299,0,300,3958.0,42243.0,31031.0,0.007625,-0.002379,-0.0028669999999999998,0.22750000000000004,-2.975,-3.6050000000000004,1.149875,0.29625,0.17940625000000002,1.4331562500000001,1.1115625,-0.1785625,-0.37990625,1.39878125,0.019637747281295154,0.0229415361267027,True
31876,300,0,301,3960.0,42239.0,31031.0,0.009333,-0.0008539999999999999,-0.002562,0.2625,-2.9225000000000003,-3.6400000000000006,1.1298125,0.2848125,0.17815625000000002,1.43015625,1.10259375,-0.1848125,-0.3815625,1.38846875,0.019418178247195425,0.022956639879006934,True
31877,301,0,302,3959.0,42240.0,31030.0,0.004575,0.000488,0.00061,0.14,-2.5725000000000002,-3.6925000000000003,1.15234375,0.3015625,0.167625,1.418375,1.11140625,-0.1766875,-0.38590625,1.38728125,0.019781452690737722,0.022698818092930215,True
31878,302,0,303,3961.0,42238.0,31028.0,0.0017079999999999999,-0.0030499999999999998,0.000244,0.035,-1.9600000000000002,-3.6575,1.14140625,0.28753125,0.181875,1.4460625,1.10778125,-0.1775625,-0.38003125,1.39928125,0.019236585573917966,0.02304780679885306,True
31879,303,0,304,3962.0,42236.0,31026.0,0.000244,-0.000732,-0.001647,0.35000000000000003,-0.6125,-3.6750000000000003,1.129,0.28675,0.1761875,1.4136250000000001,1.10146875,-0.18015625,-0.3756875,1.3875,0.01930948026855699,0.02264038706600583,True
31880,304,0,305,3962.0,42237.0,31026.0,-0.007625,0.0037819999999999998,0.0011589999999999999,0.47250000000000003,-0.15750000000000003,-3.5175000000000005,1.16375,0.30003125,0.17334375,1.42265625,1.11078125,-0.17778125,-0.38396875,1.3885625,0.019762462694958828,0.022855692841223806,True
31881,305,0,306,3962.0,42234.0,31028.0,-0.010919,0.0023179999999999997,0.0030499999999999998,0.4025,-0.1925,-3.5700000000000003,1.1515312500000001,0.296,0.18015625,1.43259375,1.10440625,-0.181,-0.38165625000000003,1.3958125000000001,0.019726231338654313,0.023042425594036502,True
31882,306,0,307,3963.0,42240.0,31030.0,-0.009455,-0.0006709999999999999,0.0028669999999999998,0.43750000000000006,-0.385,-3.5525,1.12984375,0.28771875,0.17871875,1.43596875,1.10490625,-0.18178125,-0.38246875,1.3951875,0.01941544318617968,0.023016024577084716,True
31883,307,0,308,3965.0,42240.0,31033.0,-0.003111,0.000305,-0.0008539999999999999,0.5075000000000001,-0.805,-3.4825000000000004,1.13275,0.2983125,0.17340625,1.419,1.10509375,-0.1779375,-0.3844375,1.39003125,0.019697709947343524,0.022877039915314836,True
31884,308,0,309,3966.0,42239.0,31032.0,0.0013419999999999999,0.00061,-0.0018909999999999999,0.28,-1.5925000000000002,-3.5000000000000004,1.1380000000000001,0.29815625,0.17625,1.4219375,1.10515625,-0.18296875,-0.3823125,1.3959375,0.019895200005168926,0.022908512061766084,True
31885,309,0,310,3965.0,42239.0,31035.0,0.0030499999999999998,-0.002562,-0.00042699999999999997,0.17500000000000002,-1.9425000000000001,-3.4650000000000003,1.14284375,0.29296875,0.17496875,1.42559375,1.10521875,-0.1795,-0.3753125,1.3918125000000001,0.01954005459169958,0.022575351598056438,True
31886,310,0,311,3967.0,42240.0,31032.0,0.0028669999999999998,-0.001464,0.0017079999999999999,0.21000000000000002,-2.0825,-3.4650000000000003,1.1415,0.2949375,0.1744375,1.41421875,1.1120625,-0.17921875,-0.38409375,1.38875,0.019610073216282064,0.022905557029364684,True
31887,311,0,312,3965.0,42239.0,31033.0,0.004941,-0.001098,0.000488,0.14,-2.2750000000000004,-3.5525,1.1486875,0.29665625,0.176,1.4171875,1.1103125,-0.181125,-0.38190625,1.3974375,0.01975843762438679,0.022881978311273345,True
31888,312,0,313,3965.0,42237.0,31030.0,0.003538,-0.000915,-0.00122,0.1925,-2.3800000000000003,-3.5525,1.1401875000000001,0.2930625,0.17609375,1.43075,1.10515625,-0.18034375,-0.38456250000000003,1.3897187500000001,0.01957814392113429,0.022992262010031964,True
31889,313,0,314,3966.0,42239.0,31037.0,0.0025009999999999998,0.00061,-0.000122,0.2625,-2.1700000000000004,-3.5000000000000004,1.1415625,0.29734375,0.17915625000000002,1.42559375,1.104,-0.1784375,-0.382125,1.39421875,0.019677915498054827,0.023020194097110074,True
31890,314,0,315,3965.0,42242.0,31034.0,0.0011589999999999999,0.0011589999999999999,0.000122,0.31500000000000006,-1.6975000000000002,-3.5700000000000003,1.1461875,0.29696875,0.17471875,1.4205,1.10525,-0.18178125,-0.38240625,1.398125,0.01979796256737704,0.022849467533582746,True
31891,315,0,316,3963.0,42241.0,31035.0,-0.001098,0.00183,0.0017079999999999999,0.42000000000000004,-1.3475000000000001,-3.5175000000000005,1.14121875,0.2955,0.17515625,1.4324375,1.104625,-0.1774375,-0.3854375,1.3896875,0.019561109402102685,0.02298887399498164,True
31892,316,0,317,3963.0,42241.0,31038.0,-0.003111,0.001769,0.000549,0.31500000000000006,-1.05,-3.5000000000000004,1.1413125,0.30190625,0.17553125,1.42646875,1.1119375,-0.178,-0.3841875,1.3900937500000001,0.019848881214327072,0.022954168556979807,True
31893,317,0,318,3961.0,42243.0,31034.0,-0.002989,-0.0008539999999999999,0.000366,0.24500000000000002,-0.9975,-3.5000000000000004,1.1478125000000001,0.29684375,0.17328125,1.42675,1.106,-0.1765,-0.37840625,1.39484375,0.019578671437139372,0.022630170912013577,True
31894,318,0,319,3958.0,42245.0,31035.0,-0.003843,0.001647,0.0006709999999999999,0.43750000000000006,-1.0675000000000001,-3.535,1.1480000000000001,0.297,0.172625,1.42609375,1.1050625,-0.18175,-0.38215625000000003,1.3896875,0.019797988152222234,0.022753576193655964,True
31895,319,0,320,3958.0,42243.0,31035.0,-0.003355,0.000793,0.0017079999999999999,0.3325,-1.3825,-3.5525,1.14603125,0.2965625,0.17615625000000001,1.4325,1.1046875,-0.18165625,-0.3825,1.3942812500000001,0.019776095775077444,0.02291218086742541,True
31896,320,0,321,3958.0,42242.0,31033.0,-0.000915,-0.0013419999999999999,0.00042699999999999997,0.2625,-1.8375000000000001,-3.5000000000000004,1.1415,0.29315625,0.174875,1.42728125,1.10509375,-0.17815625000000002,-0.38346875,1.38975,0.019493318478326898,0.022898454511317223,True
31897,321,0,322,3954.0,42238.0,31031.0,0.0023179999999999997,-0.001464,-0.001464,0.12250000000000001,-2.1700000000000004,-3.6575,1.147875,0.29728125,0.173125,1.4263125,1.10709375,-0.17840625000000002,-0.38278125,1.393375,0.019674063504495878,0.022799132071941137,True
31898,322,0,323,3953.0,42239.0,31027.0,0.005856,0.0008539999999999999,-0.000549,0.28,-2.415,-3.5875000000000004,1.14515625,0.29653125,0.17550000000000002,1.42246875,1.10459375,-0.18021875,-0.3825,1.3880000000000001,0.01971652965298339,0.022885266071977856,True
31899,323,0,324,3951.0,42236.0,31023.0,0.004148,-0.001281,-0.000366,0.17500000000000002,-2.1525000000000003,-3.7275000000000005,1.1483125,0.2976875,0.17371875,1.43284375,1.1088125,-0.1770625,-0.3826875,1.3960937500000001,0.019636380556984537,0.022819726086388138,True
31900,324,0,325,3948.0,42232.0,31018.0,0.004331,-0.0015249999999999999,-0.000915,0.15750000000000003,-1.7500000000000002,-3.6925000000000003,1.1416875,0.294125,0.17671875,1.4315,1.10425,-0.17759375,-0.384625,1.389875,0.019510574744436675,0.023020397073975917,True
31901,325,0,326,3946.0,42229.0,31018.0,0.00042699999999999997,0.00042699999999999997,-0.0015249999999999999,0.31500000000000006,-1.2950000000000002,-3.6050000000000004,1.14640625,0.29678125,0.1755625,1.42615625,1.11021875,-0.1786875,-0.382125,1.38434375,0.019664787429011604,0.02287280128372732,True
31902,326,0,327,3946.0,42230.0,31017.0,-0.0048189999999999995,0.001098,0.000366,0.4025,-1.05,-3.6750000000000003,1.14840625,0.301,0.17553125,1.4345937500000001,1.105,-0.18178125,-0.3824375,1.3899375,0.019964668649047515,0.02288404307403638,True
31903,327,0,328,3943.0,42228.0,31017.0,-0.005795,-0.000488,0.00183,0.3325,-1.0675000000000001,-3.6225000000000005,1.141375,0.29446875,0.17584375,1.422125,1.09596875,-0.178625,-0.380625,1.38253125,0.019566611004554643,0.02282422005178292,True
31904,328,0,329,3942.0,42228.0,31017.0,-0.002989,-0.002257,0.00042699999999999997,0.1925,-1.2775,-3.5875000000000004,1.1419375,0.29384375,0.17453125,1.42728125,1.11959375,-0.1713125,-0.38415625000000003,1.38596875,0.01924414530654883,0.022911906168580264,True
31905,329,0,330,3941.0,42227.0,31015.0,0.000488,-0.0008539999999999999,0.000549,0.12250000000000001,-1.4700000000000002,-3.4475000000000002,1.1471875,0.29728125,0.17803125,1.4333437500000001,1.09975,-0.1831875,-0.38184375,1.38453125,0.019867883421075077,0.022962783526163807,True
31906,330,0,331,3940.0,42228.0,31014.0,0.001403,0.000122,0.00042699999999999997,0.1925,-1.7850000000000001,-3.5175000000000005,1.141375,0.29609375,0.172625,1.4265625,1.119,-0.17615625000000001,-0.3801875,1.4020937500000001,0.019533708961696507,0.022674661546388846,True
31907,331,0,332,3939.0,42223.0,31010.0,0.00061,0.000732,-6.1e-05,0.12250000000000001,-1.9600000000000002,-3.6225000000000005,1.14128125,0.30190625,0.17609375,1.43165625,1.08821875,-0.1840625,-0.37990625,1.39046875,0.020094587086019976,0.022805666039015224,True
31908,332,0,333,3938.0,42222.0,31009.0,0.0023179999999999997,0.000915,-0.000366,0.1925,-2.1525000000000003,-3.5700000000000003,1.1339375,0.2940625,0.17559375,1.43175,1.1195,-0.17159375000000002,-0.38659375,1.38503125,0.019264606828004464,0.02305313754611589,True
31909,333,0,334,3935.0,42222.0,31007.0,0.003904,-0.000183,-0.00183,0.15750000000000003,-2.2750000000000004,-3.6050000000000004,1.14090625,0.29321875000000003,0.1748125,1.42796875,1.12071875,-0.17553125,-0.385125,1.38440625,0.0193894394771573,0.022962256703625675,True
31910,334,0,335,3937.0,42222.0,31007.0,0.005063,0.000122,0.0008539999999999999,0.21000000000000002,-2.0300000000000002,-3.6225000000000005,1.14596875,0.2971875,0.17275000000000001,1.4264375,1.116125,-0.18081250000000001,-0.37834375000000003,1.40503125,0.019767739400816248,0.022605873296868254,True
31911,335,0,336,3936.0,42220.0,31003.0,0.003294,-6.1e-05,6.1e-05,0.15750000000000003,-1.8025000000000002,-3.6400000000000006,1.1460000000000001,0.2968125,0.176125,1.43153125,1.0912187500000001,-0.184,-0.37528125,1.3980937500000001,0.019881429870989082,0.022621533854096553,True
31912,336,0,337,3934.0,42221.0,31006.0,0.000244,6.1e-05,-0.0008539999999999999,0.1925,-1.4175000000000002,-3.535,1.1415,0.29603125,0.17446875,1.42659375,1.1026875,-0.1759375,-0.38706250000000003,1.3841875000000001,0.01952225223944263,0.02302578467578865,True
31913,337,0,338,3936.0,42219.0,31004.0,-0.003355,-6.1e-05,-0.000122,0.29750000000000004,-0.7875000000000001,-3.5175000000000005,1.138625,0.2966875,0.1748125,1.4267812500000001,1.10959375,-0.18231250000000002,-0.37965625000000003,1.39675,0.019807865769661193,0.0227430913838254,True
31914,338,0,339,3933.0,42218.0,31004.0,-0.002806,-0.00061,0.001037,0.21000000000000002,-0.8575,-3.535,1.14490625,0.2949375,0.17659375,1.433125,1.0995,-0.178125,-0.38134375,1.3931875,0.019565723148507175,0.022883787937241974,True
31915,339,0,340,3934.0,42219.0,31005.0,-0.0037819999999999998,-0.001281,0.001769,0.2625,-0.9625000000000001,-3.5875000000000004,1.133125,0.297,0.171875,1.42621875,1.11171875,-0.1778125,-0.38334375,1.3960000000000001,0.01963835644767284,0.02277041064148554,True
31916,340,0,341,3933.0,42217.0,31005.0,-0.0034159999999999998,0.000244,-0.000366,0.36750000000000005,-1.12,-3.5875000000000004,1.14125,0.29578125,0.175625,1.431375,1.0985625,-0.17921875,-0.3856875,1.390625,0.019644968884695663,0.0230181125711547,True
31917,341,0,342,3933.0,42221.0,31005.0,-0.0026839999999999998,-0.000305,-0.00061,0.28,-1.4175000000000002,-3.5525,1.1455625,0.297,0.17371875,1.4268125,1.11109375,-0.17778125,-0.38628125,1.3897187500000001,0.01963708932141985,0.02296373088865282,True
31918,342,0,343,3934.0,42219.0,31006.0,0.002928,-0.000305,-0.001098,0.15750000000000003,-1.8200000000000003,-3.5175000000000005,1.14721875,0.2976875,0.17271875,1.42690625,1.10721875,-0.17909375,-0.38546875,1.3891875,0.01971873945854567,0.022890168965892854,True
31919,343,0,344,3933.0,42217.0,31005.0,0.00488,-0.00042699999999999997,-0.001037,0.22750000000000004,-1.9250000000000003,-3.4825000000000004,1.1459062500000001,0.29740625,0.17503125,1.4312500000000001,1.108875,-0.17859375,-0.38640625,1.38978125,0.019686835591916918,0.023022559955918065,True
31920,344,0,345,3933.0,42217.0,31006.0,0.003294,0.0017079999999999999,-6.1e-05,0.2625,-1.8375000000000001,-3.3950000000000005,1.14125,0.29375,0.17575000000000002,1.43171875,1.1116875,-0.17796875,-0.384125,1.3900937500000001,0.019510272135660693,0.022960635249368186,True
31921,345,0,346,3933.0,42216.0,31004.0,0.0032329999999999998,0.000793,-0.000305,0.21000000000000002,-1.6800000000000002,-3.4650000000000003,1.14134375,0.29490625,0.17540625,1.4333125,1.10690625,-0.17775,-0.38334375,1.390125,0.019549223976590046,0.022915232862597033,True
31922,346,0,347,3934.0,42216.0,31003.0,0.001586,-0.0008539999999999999,-0.000976,0.28,-1.5050000000000001,-3.5000000000000004,1.1411875,0.29478125,0.1753125,1.43421875,1.1056875,-0.17765625000000002,-0.3833125,1.39025,0.01954025216981071,0.022910135774210336,True
31923,347,0,348,3935.0,42217.0,31004.0,-0.002989,0.00061,0.0021349999999999997,0.4025,-1.1725,-3.4650000000000003,1.14159375,0.2929375,0.175625,1.4309687500000001,1.11153125,-0.17815625000000002,-0.38628125,1.3905625,0.019484271055614507,0.023041899838664417,True
31924,348,0,349,3934.0,42217.0,31005.0,-0.005429,0.002623,0.002562,0.5425000000000001,-1.0325000000000002,-3.5175000000000005,1.14084375,0.29481250000000003,0.17565625,1.43159375,1.11096875,-0.17796875,-0.3855,1.38984375,0.019554217101054032,0.023011882061060876,True
31925,349,0,350,3934.0,42219.0,31010.0,-0.0037819999999999998,0.001647,0.000732,0.5075000000000001,-1.0675000000000001,-3.43,1.14296875,0.300375,0.17003125,1.425375,1.11334375,-0.177,-0.3856875,1.3909375,0.019745005583819333,0.022788725968870063,True
31926,350,0,351,3935.0,42218.0,31012.0,-0.002928,0.0008539999999999999,-0.000488,0.43750000000000006,-1.4700000000000002,-3.4475000000000002,1.14921875,0.29759375,0.17071875,1.424,1.1088437500000001,-0.17853125,-0.38234375,1.38965625,0.01969205635681448,0.02268290963619935,True
31927,351,0,352,3934.0,42222.0,31012.0,-0.00061,0.0008539999999999999,0.00042699999999999997,0.29750000000000004,-1.8725000000000003,-3.4650000000000003,1.1495625,0.29803125,0.17253125,1.4126875,1.1045,-0.17346875,-0.384125,1.38875,0.0195048548835177,0.02282863338340006,True
31928,352,0,353,3933.0,42221.0,31012.0,0.005856,-0.002257,-0.0017079999999999999,0.28,-1.8200000000000003,-3.4650000000000003,1.1497187500000001,0.29871875000000003,0.17134375000000002,1.426,1.1100625,-0.17221875,-0.38515625000000003,1.39053125,0.019482593007727107,0.02282126037228078,True
31929,353,0,354,3932.0,42220.0,31010.0,0.005063,-0.002074,-0.000976,0.28,-1.5575,-3.5875000000000004,1.1420937500000001,0.294625,0.1765,1.437,1.10996875,-0.1779375,-0.38540625,1.39125,0.01954519487032341,0.02304272663081018,True
31930,354,0,355,3932.0,42219.0,31007.0,0.00122,-0.003294,-0.0026839999999999998,0.1925,-1.33,-3.4475000000000002,1.13890625,0.2894375,0.1785,1.42371875,1.10421875,-0.17765625000000002,-0.38178125,1.3940625,0.019319231987178248,0.022979504419924204,True
31931,355,0,356,3934.0,42220.0,31009.0,-0.0023179999999999997,-0.0017079999999999999,0.000244,0.1925,-1.05,-3.4475000000000002,1.15028125,0.29696875,0.17690625000000001,1.433125,1.09971875,-0.18059375,-0.38190625,1.3898125000000001,0.019749825208489762,0.02291914726724864,True
31932,356,0,357,3934.0,42219.0,31008.0,-0.004697,0.000366,0.002257,0.31500000000000006,-1.1725,-3.5700000000000003,1.1386875,0.29196875,0.17675,1.4308750000000001,1.10434375,-0.178375,-0.38221875,1.393375,0.019453075320405116,0.022925261877572156,True
31933,357,0,358,3934.0,42219.0,31011.0,-0.003965,0.001098,-0.000549,0.3325,-1.5050000000000001,-3.6575,1.13821875,0.29471875000000003,0.17578125,1.4259375,1.10425,-0.180125,-0.38196875,1.3933125,0.01963777068977104,0.022875511232045197,True
31934,358,0,359,3934.0,42221.0,31011.0,-0.002257,0.002257,-0.000549,0.36750000000000005,-2.0125,-3.6225000000000005,1.1479375,0.296125,0.173625,1.42634375,1.09271875,-0.17815625000000002,-0.38175000000000003,1.39240625,0.01961610492942364,0.02277830754560276,True
31935,359,0,360,3933.0,42222.0,31010.0,0.000976,0.002562,-0.000244,0.3325,-2.3625000000000003,-3.535,1.14890625,0.29709375,0.178125,1.42659375,1.10459375,-0.17678125,-0.38221875,1.395,0.019600417239164124,0.02298165543281413,True
31936,360,0,361,3934.0,42220.0,31009.0,0.004514,6.1e-05,-0.001586,0.3325,-2.5200000000000005,-3.535,1.1406875,0.29759375,0.1743125,1.42634375,1.1048437500000001,-0.17915625000000002,-0.381125,1.38753125,0.019717396052643485,0.02278145491645689,True
31937,361,0,362,3934.0,42219.0,31008.0,0.005063,-0.000976,-6.1e-05,0.28,-2.6075000000000004,-3.5525,1.14203125,0.2945,0.17603125,1.4326875000000001,1.1111875,-0.17484375,-0.396125,1.38559375,0.01941455154182744,0.023452751205365607,True
31938,362,0,363,3935.0,42217.0,31007.0,0.003477,-0.001098,-0.001281,0.17500000000000002,-2.1,-3.5000000000000004,1.1406875,0.2965,0.17453125,1.4271562500000001,1.11721875,-0.18175,-0.3768125,1.40834375,0.0197773114021938,0.022617548951488223,True
31939,363,0,364,3934.0,42215.0,31007.0,0.002928,-0.001403,-0.002074,0.15750000000000003,-1.8025000000000002,-3.4825000000000004,1.149,0.2969375,0.17400000000000002,1.4295,1.09275,-0.19040625,-0.37396875,1.38265625,0.020146158148956265,0.022481720380477636,True
31940,364,0,365,3935.0,42214.0,31008.0,-0.001098,-0.001037,-0.000549,0.14,-1.3650000000000002,-3.6225000000000005,1.14140625,0.29425,0.17953125,1.4332500000000001,1.1205625000000001,-0.175625,-0.38840625,1.3803125,0.019435898761665935,0.023287192044375595,True
31941,365,0,366,3935.0,42214.0,31009.0,-0.0042699999999999995,0.000488,0.0025009999999999998,0.15750000000000003,-0.9625000000000001,-3.5175000000000005,1.14259375,0.29403125,0.17621875,1.4255312500000001,1.12528125,-0.17296875,-0.39190625,1.3803750000000001,0.019319099976083824,0.0232915375361448,True
31942,366,0,367,3935.0,42215.0,31007.0,-0.0026839999999999998,0.000732,0.002806,0.15750000000000003,-0.8750000000000001,-3.5000000000000004,1.1382812500000001,0.29740625,0.17665625000000001,1.42640625,1.115625,-0.18384375,-0.37984375000000004,1.39959375,0.019899648913337026,0.02282623324852113,True
31943,367,0,368,3934.0,42216.0,31008.0,-0.001464,0.000488,-0.000793,0.22750000000000004,-0.8925000000000001,-3.5000000000000004,1.14215625,0.29634375,0.17184375000000002,1.4265625,1.0930312500000001,-0.182875,-0.37775000000000003,1.412125,0.01981645069082977,0.02254489237111711,True
31944,368,0,369,3938.0,42214.0,31007.0,-0.0035989999999999998,0.0025009999999999998,-0.000183,0.21000000000000002,-0.9975,-3.4475000000000002,1.1500625,0.296625,0.17659375,1.43471875,1.0935,-0.18803125,-0.3816875,1.394375,0.020037027610504677,0.02289756400167134,True
31945,369,0,370,3936.0,42212.0,31007.0,-0.002013,0.000915,-0.000122,0.15750000000000003,-1.1900000000000002,-3.43,1.14090625,0.29740625,0.1730625,1.4183125,1.1249375,-0.175875,-0.38171875,1.4072500000000001,0.019576592367391045,0.022753984478637298,True
31946,370,0,371,3938.0,42209.0,31005.0,0.0013419999999999999,-0.001037,0.000793,0.1925,-1.2075,-3.4125000000000005,1.1421875000000001,0.292625,0.17565625,1.4311562500000001,1.0970625,-0.18171875,-0.38553125,1.37965625,0.019615799642033305,0.02301313406899839,True
31947,371,0,372,3936.0,42210.0,31005.0,0.002989,-0.001403,6.1e-05,0.14,-1.1900000000000002,-3.4125000000000005,1.140125,0.29428125,0.17550000000000002,1.43290625,1.11659375,-0.1780625,-0.38146875,1.39290625,0.019536046364343713,0.022843937570414006,True
31948,372,0,373,3939.0,42209.0,31000.0,0.00183,0.00042699999999999997,-0.001952,0.15750000000000003,-1.0325000000000002,-3.4825000000000004,1.141375,0.29540625,0.1761875,1.431125,1.094375,-0.18140625,-0.38234375,1.39671875,0.019718146044546105,0.02290720103558543,True
31949,373,0,374,3940.0,42207.0,31000.0,0.000915,-0.000793,0.00122,0.49000000000000005,-0.9100000000000001,-3.3600000000000003,1.1415625,0.29528125,0.17528125,1.4289687500000001,1.1044375,-0.18025,-0.38265625000000003,1.39003125,0.019666101467106418,0.022882556120193014,True
31950,374,0,375,3939.0,42205.0,31001.0,-0.001647,-0.000305,0.001769,0.5075000000000001,-0.8225000000000001,-3.5000000000000004,1.1483125,0.296625,0.1734375,1.42625,1.1123750000000001,-0.17796875,-0.3788125,1.3895,0.019629182042019144,0.02265286711565627,True
31951,375,0,376,3938.0,42206.0,30999.0,-0.003843,0.00042699999999999997,0.002196,0.47250000000000003,-0.9625000000000001,-3.43,1.1459062500000001,0.29615625,0.17565625,1.43065625,1.1056875,-0.18265625,-0.381625,1.39534375,0.01979983071545335,0.02285660820392406,True
31952,376,0,377,3939.0,42206.0,31004.0,-0.0050019999999999995,0.0011589999999999999,0.00042699999999999997,0.45500000000000007,-1.2075,-3.4650000000000003,1.1413125,0.30403125000000003,0.17609375,1.4279375,1.10728125,-0.178375,-0.3838125,1.39021875,0.019951971544820528,0.022962211098038914,True
31953,377,0,378,3940.0,42210.0,31007.0,-6.1e-05,-0.000793,-0.000183,0.56,-1.9075000000000002,-3.6050000000000004,1.1419062500000001,0.29431250000000003,0.1755625,1.42790625,1.10509375,-0.17978125,-0.38215625000000003,1.3903750000000001,0.019607032218291885,0.02287405364322526,True
31954,378,0,379,3940.0,42211.0,31009.0,0.0017079999999999999,-0.001098,0.000488,0.5075000000000001,-2.1875,-3.5875000000000004,1.14559375,0.29696875,0.17615625000000001,1.43271875,1.1123125,-0.17875,-0.38128125,1.39734375,0.019675076254975957,0.02286333906262617,True
31955,379,0,380,3942.0,42212.0,31010.0,0.004392,-0.0011589999999999999,-0.001037,0.43750000000000006,-2.3275,-3.4825000000000004,1.1499375,0.29665625,0.17615625000000001,1.4281875,1.109125,-0.1714375,-0.382625,1.39065625,0.019365573520399852,0.022917190007228506,True
31956,380,0,381,3942.0,42212.0,31009.0,0.002379,-0.0008539999999999999,-0.002745,0.3325,-2.1350000000000002,-3.4650000000000003,1.1416250000000001,0.294375,0.16768750000000002,1.4243125,1.10553125,-0.1781875,-0.38603125,1.3905,0.019544992774996058,0.022706390569396162,True
31957,381,0,382,3943.0,42212.0,31012.0,0.002562,0.0011589999999999999,-0.00122,0.4025,-1.995,-3.6400000000000006,1.133625,0.29221875,0.1681875,1.42628125,1.10496875,-0.17625,-0.3848125,1.37996875,0.019377229719249264,0.022678050118285713,True
31958,382,0,383,3943.0,42213.0,31012.0,-0.001037,0.000305,0.001647,0.385,-1.5225000000000002,-3.5000000000000004,1.13484375,0.29962500000000003,0.16946875,1.4386875000000001,1.1047500000000001,-0.18009375,-0.38378125,1.3930625,0.019839408190880155,0.022689261945376092,True
31959,383,0,384,3944.0,42211.0,31010.0,-0.003172,-0.001037,0.002013,0.31500000000000006,-1.5225000000000002,-3.5700000000000003,1.13203125,0.30059375,0.1718125,1.42390625,1.10509375,-0.17809375,-0.386125,1.39046875,0.01979839705104957,0.022879301241997243,True
31960,384,0,385,3944.0,42210.0,31009.0,-0.0050019999999999995,0.001281,0.001281,0.2625,-1.6275000000000002,-3.5700000000000003,1.13546875,0.29621875000000003,0.169875,1.43803125,1.10540625,-0.1779375,-0.38375000000000004,1.3895,0.019611112403611766,0.02270467011841903,True
31961,385,0,386,3945.0,42209.0,31011.0,-0.002074,0.0023179999999999997,-0.00042699999999999997,0.29750000000000004,-1.9600000000000002,-3.5875000000000004,1.13103125,0.292375,0.17375000000000002,1.42140625,1.103625,-0.18296875,-0.383625,1.39075,0.019656137131633188,0.02285857824667169,True
31962,386,0,387,3944.0,42210.0,31009.0,0.0066489999999999995,0.000244,-0.000976,0.28,-2.45,-3.6050000000000004,1.14984375,0.295,0.18256250000000002,1.43740625,1.1066875,-0.1788125,-0.379,1.39671875,0.019596185710112932,0.02303468148816604,True
31963,387,0,388,3945.0,42208.0,31004.0,0.00732,-0.000244,-0.000305,0.08750000000000001,-2.45,-3.535,1.151875,0.301875,0.1724375,1.438625,1.1075625,-0.17753125,-0.3834375,1.3956875,0.019828585683246712,0.022797236853909546,True
31964,388,0,389,3946.0,42204.0,31002.0,0.00671,-0.000732,-0.0013419999999999999,0.2625,-2.0650000000000004,-3.5525,1.13565625,0.296,0.1730625,1.42140625,1.1050625,-0.17740625000000002,-0.38334375,1.390875,0.019580522621197218,0.022819111919381442,True
31965,389,0,390,3946.0,42205.0,31003.0,0.003904,-0.001647,-0.002562,0.36750000000000005,-1.5225000000000002,-3.5000000000000004,1.15090625,0.29528125,0.17809375,1.4359375,1.1121875,-0.17784375,-0.38109375,1.39796875,0.019568535759107965,0.02293529181807112,True
31966,390,0,391,3946.0,42203.0,31004.0,0.00042699999999999997,-0.001464,0.00061,0.36750000000000005,-0.8925000000000001,-3.4475000000000002,1.13496875,0.29565625,0.17159375000000002,1.42290625,1.10478125,-0.17865625000000002,-0.3853125,1.3820000000000001,0.019616991742458807,0.022837773762382583,True
31967,391,0,392,3948.0,42205.0,31008.0,-0.0071979999999999995,-0.001403,0.0008539999999999999,0.47250000000000003,-0.08750000000000001,-3.4125000000000005,1.137875,0.29434375,0.17675,1.4269375,1.105125,-0.18153125,-0.38328125,1.39015625,0.019679274859816832,0.02296783784996123,True
31968,392,0,393,3948.0,42208.0,31011.0,-0.009271999999999999,-0.000122,0.001098,0.6300000000000001,-0.07,-3.3950000000000005,1.14565625,0.29571875000000003,0.17925,1.4265,1.0988125,-0.18078125,-0.3774375,1.39046875,0.019705732212436274,0.022836177920669474,True
31969,393,0,394,3947.0,42211.0,31014.0,-0.0071979999999999995,0.000488,0.000488,0.6300000000000001,-0.22750000000000004,-3.4125000000000005,1.1485625,0.29534375,0.176,1.433125,1.10578125,-0.18156250000000002,-0.382875,1.3976250000000001,0.019721895555756583,0.022920799946683893,True
31970,394,0,395,3951.0,42214.0,31018.0,-0.004758,0.0008539999999999999,0.0006709999999999999,0.6125,-0.5775,-3.43,1.1417187500000001,0.2949375,0.17328125,1.427625,1.10459375,-0.1771875,-0.385875,1.3855,0.019527705610919387,0.02292951349910553,True
31971,395,0,396,3950.0,42214.0,31022.0,-0.000915,0.0006709999999999999,0.0008539999999999999,0.43750000000000006,-0.9625000000000001,-3.4825000000000004,1.1476250000000001,0.2961875,0.17575000000000002,1.424625,1.11128125,-0.1781875,-0.38140625,1.39721875,0.019619957037722534,0.022851686415749705,True
31972,396,0,397,3951.0,42217.0,31022.0,0.00183,0.00042699999999999997,-0.00042699999999999997,0.24500000000000002,-1.7675,-3.5000000000000004,1.14178125,0.29434375,0.17696875,1.4275,1.10521875,-0.17690625000000001,-0.38209375,1.39003125,0.019491741214821483,0.022929224443655503,True
31973,397,0,398,3952.0,42215.0,31023.0,0.003355,-0.000122,-0.000244,0.22750000000000004,-1.9075000000000002,-3.5000000000000004,1.1458125000000001,0.295625,0.176125,1.4323125,1.11003125,-0.17890625000000002,-0.38159375,1.396625,0.01962583605286116,0.02287458136324661,True
31974,398,0,399,3952.0,42216.0,31020.0,0.003355,0.000183,-0.000732,0.35000000000000003,-2.1175,-3.6925000000000003,1.1411875,0.2978125,0.1729375,1.42684375,1.097625,-0.1785625,-0.3854375,1.39109375,0.01970237064341604,0.022897887314918996,True
31975,399,0,400,3951.0,42215.0,31020.0,0.002562,0.001403,-0.000305,0.43750000000000006,-2.415,-3.5525,1.143,0.2935625,0.1761875,1.425,1.10521875,-0.17200000000000001,-0.38228125,1.39040625,0.019260404600364055,0.022904696417608592,True
31976,400,0,401,3950.0,42215.0,31022.0,0.002745,0.000793,-0.000305,0.43750000000000006,-2.45,-3.5000000000000004,1.1415,0.29709375,0.17500000000000002,1.42728125,1.11178125,-0.17715625000000002,-0.38425,1.3906875,0.01961562373573195,0.022934886248295518,True
31977,401,0,402,3949.0,42214.0,31022.0,0.003294,-0.0013419999999999999,-0.000915,0.24500000000000002,-1.9075000000000002,-3.5000000000000004,1.14703125,0.296875,0.17209375,1.42571875,1.1091875,-0.17815625000000002,-0.38440625,1.39446875,0.019647124664437556,0.022821962294037813,True
31978,402,0,403,3947.0,42213.0,31019.0,0.003477,-0.001647,-0.00042699999999999997,0.14,-1.5050000000000001,-3.4825000000000004,1.1416250000000001,0.29334375,0.1750625,1.428375,1.10471875,-0.1780625,-0.37940625,1.39103125,0.019497271545228245,0.022743324604142075,True
31979,403,0,404,3946.0,42209.0,31015.0,0.002013,-0.000915,0.001403,0.14,-0.9625000000000001,-3.4825000000000004,1.14159375,0.2973125,0.17296875,1.42690625,1.11175,-0.17721875,-0.3836875,1.3904375,0.019627205879501747,0.022829042982116632,True
31980,404,0,405,3944.0,42210.0,31017.0,-0.0028669999999999998,0.00042699999999999997,0.001586,0.24500000000000002,-0.43750000000000006,-3.43,1.1486875,0.2976875,0.17334375,1.425875,1.1121875,-0.17528125,-0.3826875,1.39059375,0.019564146745965984,0.022804346321544742,True
31981,405,0,406,3941.0,42209.0,31015.0,-0.0068319999999999995,6.1e-05,0.000488,0.35000000000000003,-0.22750000000000004,-3.3600000000000003,1.14890625,0.29775,0.17459375,1.42659375,1.1109375000000001,-0.17828125,-0.382,1.3916250000000001,0.019688382523054652,0.022828059634156343,True
31982,406,0,407,3939.0,42209.0,31015.0,-0.007259,-0.000488,0.002074,0.47250000000000003,-1.0325000000000002,-3.4650000000000003,1.1440000000000001,0.2950625,0.1760625,1.43234375,1.10421875,-0.179875,-0.382375,1.39684375,0.01964185091941129,0.022903326685772,True
31983,407,0,408,3938.0,42210.0,31015.0,-0.0053679999999999995,0.0006709999999999999,0.002379,0.56,-1.5750000000000002,-3.5875000000000004,1.1415625,0.29815625,0.17475000000000002,1.4271562500000001,1.1054375,-0.17703125,-0.38409375,1.39075,0.019654501625380495,0.0229183727609315,True
31984,408,0,409,3937.0,42213.0,31014.0,-0.004026,0.0026839999999999998,0.001403,0.525,-2.2925000000000004,-3.5700000000000003,1.14521875,0.298,0.17640625000000001,1.43178125,1.104875,-0.18034375,-0.3818125,1.39628125,0.019782338702277545,0.022894883224944824,True
31985,409,0,410,3934.0,42209.0,31013.0,0.001403,0.0006709999999999999,-0.000305,0.49000000000000005,-2.9575000000000005,-3.6400000000000006,1.14121875,0.2956875,0.17521875,1.42684375,1.10221875,-0.177,-0.3859375,1.39021875,0.019551122968110186,0.023011469212532838,True
31986,410,0,411,3933.0,42205.0,31008.0,0.008296,-0.000732,-0.001403,0.35000000000000003,-3.3950000000000005,-3.5525,1.14475,0.2995625,0.17603125,1.4293437500000001,1.1125,-0.17459375,-0.38178125,1.38746875,0.019613824947937335,0.022878250537991356,True
31987,411,0,412,3931.0,42201.0,31001.0,0.012565999999999999,6.1e-05,-0.0035989999999999998,0.1925,-2.9925,-3.5525,1.1419375,0.295,0.17590625000000001,1.4274375000000001,1.1053125,-0.17709375,-0.38578125,1.38715625,0.019526488786519264,0.023033401892752565,True
31988,412,0,413,3927.0,42197.0,30996.0,0.005673,-0.0011589999999999999,-0.002745,0.24500000000000002,-2.2925000000000004,-3.5525,1.14640625,0.297,0.1768125,1.4325,1.09590625,-0.1796875,-0.37853125,1.40015625,0.01971437802907916,0.022780033149043793,True
31989,413,0,414,3927.0,42195.0,30993.0,0.001098,0.000183,-0.000915,0.28,-1.5225000000000002,-3.6400000000000006,1.141125,0.29765625,0.17884375,1.42771875,1.09696875,-0.17684375,-0.38528125,1.38721875,0.019626217752265536,0.02313383201188217,True
31990,414,0,415,3926.0,42193.0,30991.0,-0.0046359999999999995,-6.1e-05,0.002806,0.31500000000000006,-0.9275000000000001,-3.5875000000000004,1.14253125,0.284875,0.17775,1.443375,1.10209375,-0.18206250000000002,-0.37771875,1.39646875,0.019309250399960714,0.02278592003199643,True
31991,415,0,416,3923.0,42191.0,30987.0,-0.005856,-0.000976,0.001647,0.28,-0.5075000000000001,-3.5000000000000004,1.1535625,0.2996875,0.17981250000000001,1.43434375,1.10403125,-0.177,-0.384375,1.3891875,0.019716569466848657,0.023137254901960787,True
31992,416,0,417,3923.0,42192.0,30990.0,-0.008723,0.001037,0.001586,0.47250000000000003,-0.7350000000000001,-3.6575,1.1253125,0.28821875,0.176625,1.42546875,1.10225,-0.18284375,-0.38209375,1.39096875,0.019479202068615278,0.022915125982566613,True
31993,417,0,418,3922.0,42191.0,30991.0,-0.009333,0.000122,0.001037,0.49000000000000005,-1.3475000000000001,-3.5175000000000005,1.14653125,0.30678125,0.1673125,1.4151562500000001,1.107,-0.17709375,-0.38756250000000003,1.38909375,0.020013778537794683,0.022752376339373808,True
31994,418,0,419,3919.0,42192.0,30993.0,-0.0034159999999999998,-0.00122,-6.1e-05,0.42000000000000004,-1.9425000000000001,-3.6400000000000006,1.13471875,0.28428125,0.18609375,1.44425,1.0947500000000001,-0.18325,-0.38078125,1.3910625,0.019332854351669024,0.023250895620910428,True
31995,419,0,420,3922.0,42192.0,30986.0,0.005978,-0.0013419999999999999,-0.001769,0.3325,-2.5725000000000002,-3.6925000000000003,1.128625,0.288375,0.18021875,1.44378125,1.1013125,-0.18346875,-0.381625,1.39646875,0.01951100377194649,0.023043736830502478,True
31996,420,0,421,3921.0,42190.0,30985.0,0.009943,-0.000549,-0.001952,0.36750000000000005,-2.8525000000000005,-3.6750000000000003,1.13159375,0.291375,0.17534375,1.4269687500000001,1.102625,-0.179875,-0.38175000000000003,1.3903125,0.019489348063213726,0.022848800844894237,True
31997,421,0,422,3920.0,42185.0,30983.0,0.0026839999999999998,0.002257,0.000305,0.2625,-2.3275,-3.7275000000000005,1.14940625,0.300375,0.171125,1.425625,1.10771875,-0.17753125,-0.381625,1.390125,0.019766544609470825,0.022670761280267415,True
31998,422,0,423,3919.0,42184.0,30980.0,-0.000366,0.0011589999999999999,0.000976,0.28,-1.9075000000000002,-3.7100000000000004,1.1295,0.29040625000000003,0.17828125,1.43109375,1.104375,-0.18134375,-0.38271875,1.3880937500000001,0.019508841397616706,0.02300809871745742,True
31999,423,0,424,3919.0,42180.0,30978.0,-0.002623,-0.00042699999999999997,0.000915,0.31500000000000006,-1.6450000000000002,-3.6575,1.15059375,0.3009375,0.1728125,1.421875,1.10821875,-0.17740625000000002,-0.38440625,1.39025,0.019784742211543062,0.02285143809888748,True
32000,424,0,425,3919.0,42181.0,30977.0,-0.003477,-0.000793,0.002745,0.385,-1.5925000000000002,-3.6925000000000003,1.13371875,0.29671875000000003,0.17853125,1.4259375,1.10625,-0.18090625,-0.38275000000000003,1.390625,0.01975215465714814,0.023019604023336172,True
32001,425,0,426,3920.0,42181.0,30979.0,-0.003721,-0.00061,0.0008539999999999999,0.43750000000000006,-1.7325000000000002,-3.7100000000000004,1.14140625,0.29671875000000003,0.177875,1.4324375,1.10990625,-0.17909375,-0.38246875,1.39053125,0.019678673854349897,0.022981419795729256,True
32002,426,0,427,3918.0,42181.0,30979.0,-0.00366,6.1e-05,-0.000305,0.45500000000000007,-2.205,-3.6575,1.1485625,0.30134375,0.176,1.4311875,1.112875,-0.17903125,-0.37778125,1.39090625,0.019867421280577564,0.022716638742502456,True
32003,427,0,428,3919.0,42179.0,30977.0,0.00122,-0.000488,0.000122,0.36750000000000005,-2.5200000000000005,-3.6050000000000004,1.1420937500000001,0.29403125,0.1753125,1.4271875,1.1106875,-0.18106250000000002,-0.3863125,1.39003125,0.019647348002181462,0.023030337202477828,True
32004,428,0,429,3919.0,42178.0,30975.0,0.007808,-0.002074,-0.0011589999999999999,0.36750000000000005,-2.6950000000000003,-3.5175000000000005,1.1484375,0.30321875,0.175125,1.4228125,1.1046875,-0.1740625,-0.38621875,1.39078125,0.019743526765515725,0.023018892586617185,True
32005,429,0,430,3919.0,42175.0,30972.0,0.008357,-0.000732,-0.001586,0.35000000000000003,-2.7475,-3.5175000000000005,1.14165625,0.29353125,0.1711875,1.4275312500000001,1.10496875,-0.17759375,-0.38421875,1.39528125,0.01948601688288356,0.02277728295067891,True
32006,430,0,431,3918.0,42177.0,30970.0,0.004392,0.00244,-0.003294,0.35000000000000003,-2.31,-3.4125000000000005,1.14421875,0.29381250000000003,0.17575000000000002,1.4292500000000001,1.1051875,-0.17953125,-0.38456250000000003,1.39128125,0.019576216970707407,0.022978164976304165,True
32007,431,0,432,3918.0,42174.0,30968.0,-0.00061,0.000183,0.000793,0.21000000000000002,-1.3475000000000001,-3.5175000000000005,1.147875,0.2974375,0.17553125,1.4269687500000001,1.113,-0.1796875,-0.38228125,1.39696875,0.01973247172859451,0.022877781380690132,True
32008,432,0,433,3917.0,42172.0,30965.0,-0.0015249999999999999,-0.00061,0.0008539999999999999,0.10500000000000001,-1.0675000000000001,-3.4650000000000003,1.147,0.2971875,0.176375,1.432125,1.1051875,-0.1781875,-0.381875,1.3953125,0.019661316630950935,0.02289610622644895,True
32009,433,0,434,3918.0,42173.0,30965.0,-0.003721,-0.0013419999999999999,0.001586,0.15750000000000003,-0.8925000000000001,-3.5000000000000004,1.141875,0.29481250000000003,0.17275000000000001,1.4271875,1.10571875,-0.17759375,-0.38303125,1.39125,0.019539010163077127,0.022793771795703213,True
32010,434,0,435,3918.0,42174.0,30966.0,-0.004941,-0.001098,0.003172,0.22750000000000004,-0.8750000000000001,-3.5000000000000004,1.1425625,0.29709375,0.17325000000000002,1.42140625,1.1050625,-0.1750625,-0.38440625,1.38684375,0.019530714760303103,0.022869379893143797,True
32011,435,0,436,3917.0,42173.0,30969.0,-0.0040869999999999995,-0.001403,-0.000183,0.28,-0.8925000000000001,-3.4650000000000003,1.14225,0.29428125,0.175125,1.42865625,1.10571875,-0.18090625,-0.38665625000000003,1.38125,0.01965135198355107,0.023036419763369568,True
32012,436,0,437,3917.0,42176.0,30968.0,-0.003355,0.002074,-0.000183,0.56,-1.4175000000000002,-3.4125000000000005,1.1481875,0.2975,0.17659375,1.43109375,1.1123750000000001,-0.17834375,-0.38103125,1.3945625,0.019680576755800323,0.0228712639052132,True
32013,437,0,438,3918.0,42175.0,30970.0,-0.0018909999999999999,0.0013419999999999999,0.000366,0.5425000000000001,-1.8025000000000002,-3.4825000000000004,1.14153125,0.29803125,0.17228125,1.42671875,1.111625,-0.17696875,-0.38340625,1.39265625,0.019646797119676138,0.022789576415313182,True
32014,438,0,439,3916.0,42179.0,30972.0,0.002928,-0.000976,-0.0006709999999999999,0.45500000000000007,-2.0475000000000003,-3.4825000000000004,1.1419375,0.29425,0.1749375,1.42790625,1.0988437500000001,-0.17559375,-0.38606250000000003,1.3828125,0.01943463125905646,0.023004943910071584,True
32015,439,0,440,3918.0,42178.0,30973.0,0.0026839999999999998,-0.000488,-0.000793,0.385,-2.3275,-3.5700000000000003,1.1481875,0.2966875,0.17775,1.42671875,1.10853125,-0.1744375,-0.3813125,1.392625,0.01948856100581451,0.02292995916442152,True
32016,440,0,441,3918.0,42177.0,30973.0,0.001586,0.000793,-0.0006709999999999999,0.4025,-2.2225,-3.5175000000000005,1.1416875,0.29471875000000003,0.17646875,1.433,1.10490625,-0.17996875,-0.380125,1.39065625,0.019631435627889306,0.02282981526960998,True
32017,441,0,442,3918.0,42177.0,30973.0,0.0050019999999999995,-0.0017079999999999999,0.000305,0.31500000000000006,-2.0300000000000002,-3.5175000000000005,1.1418125000000001,0.296625,0.17565625,1.4288125,1.108625,-0.17746875,-0.382875,1.3900625,0.019608907570193842,0.022906701937322818,True
32018,442,0,443,3918.0,42177.0,30974.0,0.00488,0.000732,0.000305,0.31500000000000006,-1.715,-3.6925000000000003,1.1416250000000001,0.29709375,0.17328125,1.42690625,1.1100625,-0.17034375000000002,-0.3815625,1.3899375,0.019339298804966314,0.022756693710667644,True
32019,443,0,444,3918.0,42175.0,30973.0,-0.0006709999999999999,0.0023179999999999997,0.00061,0.31500000000000006,-1.3125000000000002,-3.6225000000000005,1.14703125,0.29678125,0.1731875,1.42596875,1.1055,-0.17925,-0.38140625,1.38940625,0.01968759370121075,0.0227465858332105,True
32020,444,0,445,3918.0,42177.0,30974.0,-0.002562,0.001464,-0.000183,0.36750000000000005,-0.9800000000000001,-3.5175000000000005,1.14815625,0.297375,0.17290625,1.417125,1.10615625,-0.1839375,-0.381625,1.40496875,0.01990215613152325,0.022743818346808303,True
32021,445,0,446,3919.0,42179.0,30980.0,-0.002928,-0.000244,0.000732,0.36750000000000005,-0.7350000000000001,-3.4825000000000004,1.137125,0.295625,0.18075,1.4330625000000001,1.0925625,-0.18156250000000002,-0.38328125,1.39403125,0.01973352631782996,0.0231318846802048,True
32022,446,0,447,3919.0,42182.0,30985.0,-0.003477,-0.000122,0.000244,0.385,-0.47250000000000003,-3.5175000000000005,1.14128125,0.2964375,0.175125,1.42971875,1.118625,-0.17528125,-0.38890625,1.3876875,0.019512441039336408,0.023126549596704443,True
32023,447,0,448,3922.0,42186.0,30987.0,-0.00366,0.000183,0.00061,0.35000000000000003,-0.5950000000000001,-3.5175000000000005,1.1456250000000001,0.30465625,0.17200000000000001,1.4271562500000001,1.11303125,-0.1784375,-0.37503125,1.3988125,0.019980354396350052,0.02244227892015523,True
32024,448,0,449,3921.0,42188.0,30991.0,-0.0035989999999999998,-0.000488,0.000122,0.29750000000000004,-0.8400000000000001,-3.5000000000000004,1.14875,0.2966875,0.17540625,1.4319375,1.08803125,-0.18434375,-0.38403125,1.38603125,0.019890192389446167,0.022942781456614155,True
32025,449,0,450,3922.0,42189.0,30992.0,-0.000366,-0.001281,-0.000366,0.21000000000000002,-0.9625000000000001,-3.4475000000000002,1.141875,0.29753125,0.172625,1.4274375000000001,1.1170625,-0.17678125,-0.37275,1.386625,0.0196185131136925,0.02237642449046579,True
32026,450,0,451,3921.0,42191.0,30996.0,0.002013,-0.000183,6.1e-05,0.21000000000000002,-1.1900000000000002,-3.3950000000000005,1.1465,0.30196875,0.18040625,1.42475,1.10003125,-0.18259375,-0.38021875,1.39959375,0.020037656217087963,0.022995076695117838,True
32027,451,0,452,3920.0,42192.0,30997.0,0.000366,0.0011589999999999999,0.00061,0.1925,-1.3825,-3.535,1.13421875,0.29381250000000003,0.1753125,1.430125,1.10715625,-0.17453125,-0.38625,1.3859375,0.019373436661776017,0.023027833307704134,True
32028,452,0,453,3920.0,42192.0,30997.0,-0.001464,0.0011589999999999999,-6.1e-05,0.1925,-1.4000000000000001,-3.535,1.1405625,0.29615625,0.17665625000000001,1.433375,1.12153125,-0.17528125,-0.39071875,1.38578125,0.019500807255344754,0.023261922119453732,True
32029,453,0,454,3922.0,42197.0,30998.0,-0.001647,0.001037,0.000122,0.24500000000000002,-1.5925000000000002,-3.5525,1.14128125,0.2973125,0.17559375,1.4264375,1.1204687500000001,-0.1760625,-0.3846875,1.3870625,0.019580318341748164,0.022976765644423375,True
32030,454,0,455,3923.0,42194.0,31000.0,0.001098,0.000305,0.000244,0.24500000000000002,-1.7675,-3.5525,1.14775,0.29740625,0.17259375,1.42071875,1.10378125,-0.179875,-0.3785,1.39665625,0.01973878070089279,0.02260572840822856,True
32031,455,0,456,3923.0,42197.0,31004.0,0.002745,-0.000305,0.000183,0.21000000000000002,-1.7325000000000002,-3.4125000000000005,1.1451875,0.29621875000000003,0.1785,1.4319375,1.09709375,-0.17775,-0.38015625000000003,1.39515625,0.019603509424987852,0.02291438349579897,True
32032,456,0,457,3922.0,42197.0,31006.0,0.0021349999999999997,0.000488,-0.0025009999999999998,0.385,-1.8550000000000002,-3.4650000000000003,1.1416875,0.29946875,0.17684375,1.4271875,1.10271875,-0.18231250000000002,-0.38353125,1.39440625,0.019922877516366563,0.022981699994745426,True
32033,457,0,458,3923.0,42197.0,31004.0,0.001464,0.000366,-0.000732,0.21000000000000002,-1.7325000000000002,-3.535,1.14625,0.2966875,0.17590625000000001,1.42246875,1.09915625,-0.179,-0.3820625,1.39090625,0.019673580379668307,0.022884395034259306,True
32034,458,0,459,3923.0,42197.0,31005.0,0.000915,-0.000976,0.001464,0.0175,-1.4000000000000001,-3.6400000000000006,1.14815625,0.29778125,0.17675,1.41871875,1.105,-0.1784375,-0.38159375,1.3963125,0.019696010132995566,0.022900215454537298,True
32035,459,0,460,3924.0,42198.0,31008.0,0.0013419999999999999,-0.0015249999999999999,-0.000122,0.08750000000000001,-1.2425000000000002,-3.7275000000000005,1.1415,0.29531250000000003,0.175375,1.43146875,1.1047500000000001,-0.1793125,-0.38253125,1.39165625,0.019629383589793964,0.022881391775105387,True
32036,460,0,461,3925.0,42200.0,31008.0,-0.003355,0.000549,0.0,0.17500000000000002,-0.9450000000000001,-3.6750000000000003,1.14721875,0.29775,0.17990625000000002,1.42728125,1.1125,-0.178625,-0.38121875,1.39890625,0.01970231971421038,0.023014641136428014,True
32037,461,0,462,3927.0,42200.0,31008.0,-0.004941,0.00042699999999999997,0.002806,0.14,-0.8400000000000001,-3.5175000000000005,1.1417187500000001,0.29371875000000003,0.176,1.43203125,1.09228125,-0.18040625,-0.38290625,1.39159375,0.019607817796692312,0.02292205220614339,True
32038,462,0,463,3926.0,42203.0,31010.0,-0.002013,-0.002562,0.000793,0.07,-0.8925000000000001,-3.3950000000000005,1.14075,0.29690625,0.17203125,1.42059375,1.11,-0.1781875,-0.38553125,1.392125,0.019649684245355445,0.022864480346311913,True
32039,463,0,464,3926.0,42199.0,31010.0,0.000122,-0.002013,-0.000915,0.07,-0.9275000000000001,-3.535,1.1477187500000001,0.2975625,0.177125,1.4359375,1.104625,-0.1815,-0.3821875,1.3889375,0.019811115935735996,0.02293938966714943,True
32040,464,0,465,3927.0,42198.0,31012.0,-0.000549,0.000915,-0.000366,0.17500000000000002,-1.1900000000000002,-3.6400000000000006,1.1418125000000001,0.2978125,0.17140625,1.426375,1.113,-0.178125,-0.3823125,1.3788125,0.019684632286415923,0.0227098537105535,True
32041,465,0,466,3929.0,42199.0,31011.0,0.000915,-0.000793,0.000305,0.052500000000000005,-1.4175000000000002,-3.5700000000000003,1.15121875,0.29490625,0.17615625000000001,1.4341875,1.10553125,-0.17996875,-0.3811875,1.39440625,0.019639189980342715,0.022859581798466543,True
32042,466,0,467,3929.0,42201.0,31011.0,-0.0006709999999999999,0.0017079999999999999,0.000305,0.22750000000000004,-1.6275000000000002,-3.6575,1.13234375,0.29715625,0.16971875,1.42503125,1.1067500000000001,-0.17090625,-0.38546875,1.3915625,0.01936470627782109,0.022767144880083554,True
32043,467,0,468,3930.0,42199.0,31011.0,-0.0011589999999999999,0.00366,0.000305,0.22750000000000004,-1.9075000000000002,-3.6400000000000006,1.15225,0.29784375,0.1751875,1.4381875,1.1116875,-0.1795,-0.3770625,1.39496875,0.019741671664012903,0.022654493337743217,True
32044,468,0,469,3929.0,42200.0,31012.0,-0.00061,0.003355,6.1e-05,0.28,-2.1350000000000002,-3.5525,1.1399062500000001,0.30196875,0.17628125,1.4383125,1.09746875,-0.18109375,-0.37493750000000003,1.38978125,0.019976867258123924,0.022614160549129615,True
32045,469,0,470,3930.0,42199.0,31010.0,0.002562,-0.002196,0.000732,0.2625,-2.1525000000000003,-3.5175000000000005,1.1396875,0.29921875000000003,0.170375,1.420125,1.10928125,-0.1774375,-0.380125,1.39115625,0.019714920160583602,0.022579867822662927,True
32046,470,0,471,3932.0,42200.0,31011.0,-0.0006709999999999999,-0.0021349999999999997,-0.003111,0.28,-2.0825,-3.6925000000000003,1.150625,0.2906875,0.17728125,1.434125,1.1075,-0.18115625,-0.3785625,1.39090625,0.019512869654444254,0.022800513771064228,True
32047,471,0,472,3931.0,42199.0,31014.0,-0.001098,0.000488,-0.002013,0.3325,-1.9775000000000003,-3.7100000000000004,1.15009375,0.29825,0.17200000000000001,1.4250625000000001,1.11175,-0.17753125,-0.383125,1.394625,0.019678653088288325,0.022766770051008637,True
32048,472,0,473,3932.0,42199.0,31007.0,-6.1e-05,-0.000183,0.000793,0.17500000000000002,-2.1,-3.6400000000000006,1.1365625,0.29303125,0.1756875,1.43409375,1.104875,-0.1796875,-0.38159375,1.3908125,0.019550242326332797,0.022856637499343125,True
32049,473,0,474,3932.0,42197.0,31008.0,0.0013419999999999999,-0.000793,0.0025009999999999998,0.15750000000000003,-2.1525000000000003,-3.6925000000000003,1.12865625,0.29884375,0.17334375,1.424625,1.11003125,-0.17759375,-0.382875,1.39128125,0.019705745117832497,0.0228118607834392,True
32050,474,0,475,3933.0,42196.0,31008.0,0.0008539999999999999,0.000488,0.0006709999999999999,0.17500000000000002,-2.3625000000000003,-3.6225000000000005,1.14928125,0.2981875,0.17553125,1.4321875,1.1050625,-0.17765625000000002,-0.38190625,1.39415625,0.01968113637979281,0.02286275298921716,True
32051,475,0,476,3934.0,42195.0,31004.0,0.004148,0.001647,-0.002745,0.31500000000000006,-2.345,-3.5525,1.1398125000000001,0.29484375,0.17590625000000001,1.42621875,1.1059375,-0.178125,-0.384,1.38075,0.019561845676618846,0.022962034530839896,True
32052,476,0,477,3932.0,42195.0,31002.0,0.004697,0.00061,-0.00122,0.31500000000000006,-2.1700000000000004,-3.5000000000000004,1.14671875,0.2985625,0.17440625,1.4271875,1.10946875,-0.17703125,-0.38159375,1.39440625,0.019671304763689713,0.022804087612197214,True
32053,477,0,478,3933.0,42193.0,31004.0,0.003721,-6.1e-05,-0.000183,0.29750000000000004,-1.8725000000000003,-3.535,1.14121875,0.29728125,0.1726875,1.42584375,1.10575,-0.17709375,-0.38503125,1.39453125,0.019620844626951905,0.02287135678778349,True
32054,478,0,479,3933.0,42194.0,31008.0,0.0017079999999999999,0.0011589999999999999,-0.001098,0.36750000000000005,-1.3125000000000002,-3.4475000000000002,1.1405625,0.29721875000000003,0.17478125,1.4307812500000001,1.11309375,-0.17790625000000002,-0.381625,1.38484375,0.01965120532304157,0.022820720522114504,True
32055,479,0,480,3935.0,42195.0,31009.0,-0.001464,0.00061,-0.001586,0.3325,-0.8575,-3.3600000000000003,1.1424375,0.29825,0.17328125,1.43253125,1.13384375,-0.1721875,-0.38046875,1.3997187500000001,0.01946193326524544,0.022712852885570546,True
32056,480,0,481,3936.0,42199.0,31015.0,-0.0040869999999999995,-0.001464,0.005063,0.28,0.08750000000000001,-3.3425000000000002,1.1420000000000001,0.29459375,0.17390625,1.427625,1.13040625,-0.17409375,-0.37584375000000003,1.40640625,0.019388007047834006,0.022553065470810627,True
32057,481,0,482,3937.0,42204.0,31020.0,-0.004331,-0.003172,0.0037819999999999998,0.2625,0.35000000000000003,-3.3600000000000003,1.14665625,0.29321875000000003,0.1760625,1.4275312500000001,1.0870312500000001,-0.18175,-0.3899375,1.38840625,0.019641620230132228,0.02320629152903734,True
32058,482,0,483,3939.0,42207.0,31023.0,-0.003721,-0.002989,-0.000244,0.35000000000000003,0.17500000000000002,-3.4475000000000002,1.14871875,0.29834375,0.17246875,1.433,1.10959375,-0.18971875,-0.3765,1.40034375,0.020176443762910636,0.022520409000471767,True
32059,483,0,484,3938.0,42208.0,31030.0,-0.005856,-0.0008539999999999999,-0.0037819999999999998,0.45500000000000007,0.052500000000000005,-3.4475000000000002,1.1410625,0.29990625,0.17315625,1.42684375,1.1260625,-0.17740625000000002,-0.376375,1.4075312500000001,0.019742088752799942,0.022543600104609485,True
32060,484,0,485,3938.0,42213.0,31033.0,-0.010126,0.001769,-0.000793,0.47250000000000003,-0.43750000000000006,-3.5000000000000004,1.14203125,0.30025,0.17646875,1.42765625,1.1036875,-0.1723125,-0.387375,1.3917187500000001,0.019549743120357226,0.02312031327684919,True
32061,485,0,486,3936.0,42214.0,31032.0,-0.002257,-0.000549,0.003965,0.35000000000000003,-1.9425000000000001,-3.5700000000000003,1.14803125,0.2963125,0.17596875,1.428,1.0844375,-0.18515625,-0.37665625,1.401375,0.019907613786865654,0.022670254457068943,True
32062,486,0,487,3937.0,42214.0,31032.0,0.006344,-0.000183,0.0025009999999999998,0.28,-2.6950000000000003,-3.6050000000000004,1.12871875,0.294375,0.17525000000000002,1.427375,1.10071875,-0.172875,-0.38721875,1.3834375,0.019329517072338313,0.023064079416600144,True
32063,487,0,488,3936.0,42214.0,31031.0,0.009089,0.001952,-0.005063,0.3325,-3.2900000000000005,-3.6750000000000003,1.1457187500000001,0.30259375,0.17353125,1.427125,1.1010625,-0.1868125,-0.373375,1.40690625,0.020234425267901673,0.02243867539887275,True
32064,488,0,489,3936.0,42214.0,31031.0,0.007991,0.003538,-0.010614,0.47250000000000003,-3.43,-3.6925000000000003,1.13490625,0.297,0.17671875,1.43359375,1.0928437500000001,-0.1854375,-0.3795,1.38640625,0.019947437378381103,0.022815018765766318,True
32065,489,0,490,3935.0,42213.0,31030.0,0.005246,0.0044529999999999995,-0.004209,0.42000000000000004,-3.4125000000000005,-3.6925000000000003,1.14215625,0.3011875,0.17578125,1.42375,1.099,-0.176625,-0.38165625000000003,1.38734375,0.019763407837115395,0.022862987414975142,True
32066,490,0,491,3932.0,42211.0,31026.0,0.008784,-0.003294,0.008662,0.17500000000000002,-2.45,-3.7450000000000006,1.1479062500000001,0.3015625,0.1744375,1.41740625,1.1070312500000001,-0.17846875,-0.38390625,1.3928125,0.019853666291418888,0.022898043663533197,True
32067,491,0,492,3929.0,42206.0,31021.0,0.0057339999999999995,0.000366,-0.0030499999999999998,0.2625,-1.6800000000000002,-3.7275000000000005,1.14421875,0.29471875000000003,0.1763125,1.43228125,1.105375,-0.18084375,-0.38128125,1.38746875,0.01966691091993016,0.022869747667588224,True
32068,492,0,493,3928.0,42203.0,31016.0,-0.004026,0.005307,-0.010248,0.36750000000000005,-0.8400000000000001,-3.7100000000000004,1.1300625,0.2981875,0.17528125,1.432125,1.104625,-0.17709375,-0.3845,1.3968125,0.01965832845397309,0.022956437491029137,True
32069,493,0,494,3926.0,42203.0,31016.0,-0.010858,0.0008539999999999999,-0.0032329999999999998,0.22750000000000004,-0.3325,-3.5000000000000004,1.1413125,0.29803125,0.17615625000000001,1.4313437500000001,1.10565625,-0.17771875,-0.381875,1.39878125,0.019677207966529102,0.022887134397990307,True
32070,494,0,495,3924.0,42202.0,31014.0,-0.011773,-0.0064659999999999995,0.006344,0.22750000000000004,-0.42000000000000004,-3.43,1.1360625,0.30312500000000003,0.17634375,1.4304375,1.1007500000000001,-0.1760625,-0.38146875,1.39403125,0.019820742108025244,0.022878543771076138,True
32071,495,0,496,3924.0,42200.0,31012.0,-0.0008539999999999999,-0.000732,-0.000488,0.21000000000000002,-1.0150000000000001,-3.6050000000000004,1.144625,0.29734375,0.17596875,1.43121875,1.11165625,-0.17728125,-0.381,1.39721875,0.019631032748977928,0.022844376768795374,True
32072,496,0,497,3921.0,42199.0,31009.0,0.000183,0.003111,-0.004575,0.35000000000000003,-1.54,-3.5700000000000003,1.14203125,0.29862500000000003,0.1790625,1.42803125,1.106125,-0.17746875,-0.38496875,1.3949375,0.019691629215734176,0.023130283896714038,True
32073,497,0,498,3918.0,42199.0,31009.0,0.001098,0.000366,-0.003477,0.17500000000000002,-1.8200000000000003,-3.5175000000000005,1.141875,0.29815625,0.1778125,1.42740625,1.1046875,-0.17659375,-0.38271875,1.3915,0.019636761278664414,0.022988874036042436,True
32074,498,0,499,3918.0,42199.0,31006.0,0.002989,-0.003721,0.0006709999999999999,0.15750000000000003,-2.0475000000000003,-3.6050000000000004,1.1475625,0.2966875,0.17721875,1.4334375,1.1043125,-0.17875,-0.38225000000000003,1.3975,0.019663444139998962,0.022945739216028056,True
32075,499,0,500,3916.0,42196.0,31006.0,0.004575,-0.0023179999999999997,0.002562,0.15750000000000003,-1.9775000000000003,-3.5875000000000004,1.1386875,0.2919375,0.173125,1.4238125,1.1055625,-0.17959375,-0.38303125,1.39078125,0.019501206466713283,0.022809151343723928,True
32076,500,0,501,3914.0,42191.0,31001.0,0.000122,0.00366,-0.001647,0.36750000000000005,-1.8900000000000001,-3.6225000000000005,1.14321875,0.30015625,0.17325000000000002,1.42165625,1.11196875,-0.17734375,-0.385,1.391875,0.019749894981742983,0.022893172031986878,True
32077,501,0,502,3915.0,42191.0,31001.0,-0.0021349999999999997,0.0021349999999999997,-0.0021349999999999997,0.29750000000000004,-1.8025000000000002,-3.6225000000000005,1.157875,0.29921875000000003,0.17309375,1.4272500000000001,1.1126875,-0.17746875,-0.38240625,1.3905,0.019716187204253964,0.022782821117173373,True
32078,502,0,503,3911.0,42191.0,30999.0,-0.002379,0.001403,0.001586,0.29750000000000004,-1.7675,-3.5700000000000003,1.1236875,0.29609375,0.1685625,1.4263125,1.10490625,-0.17915625000000002,-0.3858125,1.39078125,0.019655359148440098,0.022733505393761233,True
32079,503,0,504,3913.0,42189.0,30996.0,-0.00042699999999999997,0.000122,0.002989,0.22750000000000004,-1.8025000000000002,-3.535,1.12740625,0.29481250000000003,0.17096875,1.42221875,1.1049375000000001,-0.179,-0.3824375,1.39146875,0.019596033748293978,0.022696920683176157,True
32080,504,0,505,3910.0,42186.0,30995.0,0.004209,-0.000122,0.000549,0.1925,-1.9775000000000003,-3.6225000000000005,1.13671875,0.2896875,0.17225000000000001,1.42171875,1.10653125,-0.1788125,-0.3831875,1.3905,0.01937646855071977,0.022779527902166197,True
32081,505,0,506,3911.0,42187.0,30993.0,0.0026839999999999998,-6.1e-05,-0.002623,0.3325,-1.7850000000000001,-3.535,1.15675,0.29871875000000003,0.17400000000000002,1.4383125,1.10990625,-0.17784375,-0.38415625000000003,1.39546875,0.01971071138219263,0.02289011948075915,True
32082,506,0,507,3910.0,42185.0,30995.0,0.00042699999999999997,-0.001403,-6.1e-05,0.29750000000000004,-1.4875,-3.5700000000000003,1.13603125,0.2890625,0.17434375,1.42275,1.1059375,-0.18078125,-0.38259375,1.3915,0.019430461950024878,0.022841601911199456,True
32083,507,0,508,3910.0,42185.0,30991.0,6.1e-05,-0.002257,0.0017079999999999999,0.15750000000000003,-1.1725,-3.5525,1.146125,0.2985,0.17878125,1.43890625,1.111,-0.17778125,-0.38175000000000003,1.39696875,0.01969912975368656,0.022989787443477194,True
32084,508,0,509,3909.0,42185.0,30993.0,6.1e-05,-0.001769,0.00042699999999999997,0.1925,-0.9975,-3.535,1.14378125,0.29921875000000003,0.1799375,1.43184375,1.10571875,-0.17734375,-0.38159375,1.396875,0.01971111900992019,0.023030949320119815,True
32085,509,0,510,3910.0,42188.0,30994.0,-0.003538,0.00122,0.0011589999999999999,0.36750000000000005,-0.8925000000000001,-3.6575,1.14909375,0.2961875,0.1775625,1.43090625,1.11090625,-0.17728125,-0.382125,1.39678125,0.019583208926768802,0.02295482858856642,True
32086,510,0,511,3911.0,42191.0,31000.0,-0.009699,0.001464,0.001952,0.42000000000000004,-0.9625000000000001,-3.6225000000000005,1.1475625,0.29721875000000003,0.173875,1.4315,1.1104375,-0.17809375,-0.38484375,1.39159375,0.019658807882652042,0.02291254172994239,True
32087,511,0,512,3912.0,42192.0,31003.0,-0.005124,-0.000976,0.004697,0.3325,-1.4875,-3.5000000000000004,1.13878125,0.2979375,0.1730625,1.4244375,1.1053125,-0.1770625,-0.38253125,1.39034375,0.019646720936424764,0.02278654928413144,True
32088,512,0,513,3910.0,42193.0,31001.0,0.001098,-0.001037,0.000305,0.24500000000000002,-1.9775000000000003,-3.5175000000000005,1.1330625,0.29531250000000003,0.18275,1.4276875,1.09265625,-0.178875,-0.38028125,1.3918125000000001,0.019611644462366427,0.023093714310617314,True
32089,513,0,514,3912.0,42192.0,31002.0,0.0053679999999999995,0.000244,-0.003172,0.28,-2.345,-3.5525,1.14625,0.29421875000000003,0.1755625,1.42746875,1.10534375,-0.17925,-0.38275000000000003,1.39003125,0.019581614400777526,0.02289784786375614,True
32090,514,0,515,3911.0,42190.0,30999.0,0.005307,0.002562,-0.004148,0.35000000000000003,-2.6425,-3.6750000000000003,1.14903125,0.2934375,0.1759375,1.4286875,1.112,-0.18131250000000002,-0.384375,1.38453125,0.019632929354020796,0.02297834166346277,True
32091,515,0,516,3911.0,42190.0,31000.0,0.004514,-0.002379,0.000366,0.14,-2.66,-3.535,1.148125,0.29453125,0.17550000000000002,1.4274375000000001,1.0973125,-0.18096875,-0.3815,1.380625,0.019664224577437578,0.022845190000615224,True
32092,516,0,517,3912.0,42185.0,30997.0,0.006344,-0.0021349999999999997,-0.001098,0.1925,-2.4850000000000003,-3.5875000000000004,1.14703125,0.29328125,0.175375,1.4271875,1.1118125,-0.1790625,-0.382625,1.39109375,0.01953523839065307,0.022885148748340266,True
32093,517,0,518,3910.0,42185.0,30996.0,0.005856,0.00061,-0.002989,0.4025,-2.1700000000000004,-3.5525,1.14246875,0.29734375,0.177125,1.434125,1.111,-0.17775,-0.38190625,1.39625,0.019650039809328824,0.022928119084208193,True
32094,518,0,519,3912.0,42183.0,30995.0,0.00042699999999999997,0.002196,-0.0018909999999999999,0.4025,-1.8725000000000003,-3.5000000000000004,1.1436875,0.29803125,0.172625,1.4273125,1.11159375,-0.17790625000000002,-0.3828125,1.38303125,0.019684810383446664,0.022779878244152518,True
32095,519,0,520,3911.0,42180.0,30994.0,-0.003965,-0.002013,0.002257,0.35000000000000003,-1.61,-3.4825000000000004,1.14165625,0.29475,0.18275,1.41946875,1.10578125,-0.178875,-0.383125,1.39175,0.019588380352683902,0.02320764873247379,True
32096,520,0,521,3910.0,42182.0,30994.0,-0.002989,-0.001952,-0.000732,0.31500000000000006,-1.0325000000000002,-3.5000000000000004,1.14928125,0.2968125,0.1761875,1.4318125,1.112125,-0.1774375,-0.382125,1.391375,0.01961539555215477,0.02289843481648954,True
32097,521,0,522,3913.0,42185.0,30996.0,-0.001403,0.000244,-0.004331,0.3325,-1.0150000000000001,-3.6050000000000004,1.14796875,0.2966875,0.17625,1.427625,1.111875,-0.17921875,-0.38265625000000003,1.3917187500000001,0.0196824494174362,0.02292228723029305,True
32098,522,0,523,3912.0,42185.0,30998.0,-0.003904,0.0023179999999999997,-0.00061,0.4025,-0.9625000000000001,-3.5525,1.14959375,0.30012500000000003,0.17846875,1.418125,1.11109375,-0.17828125,-0.3831875,1.39184375,0.01978661117609425,0.02303457043916018,True
32099,523,0,524,3913.0,42186.0,31002.0,-0.005124,-0.000122,0.007076,0.42000000000000004,-0.8925000000000001,-3.5000000000000004,1.1490625,0.2951875,0.17571875,1.42796875,1.11175,-0.1789375,-0.37940625,1.3905,0.019609008873942457,0.022770242815080863,True
32100,524,0,525,3912.0,42191.0,31004.0,-0.001464,-0.000732,-0.0023179999999999997,0.43750000000000006,-1.33,-3.6400000000000006,1.14578125,0.2968125,0.17540625,1.41809375,1.109375,-0.177875,-0.383125,1.38715625,0.019633135666389207,0.02290646707507754,True
32101,525,0,526,3912.0,42191.0,31004.0,-0.0013419999999999999,0.003843,-0.0037819999999999998,0.5425000000000001,-1.6800000000000002,-3.6225000000000005,1.146625,0.29765625,0.17615625000000001,1.4313437500000001,1.1106875,-0.17715625000000002,-0.3826875,1.39690625,0.019638889499256143,0.022919694557870213,True
32102,526,0,527,3913.0,42199.0,31010.0,-0.001098,0.0021349999999999997,-0.000793,0.5775,-2.0300000000000002,-3.535,1.1415,0.297375,0.17540625,1.4265,1.10590625,-0.17709375,-0.385375,1.3909375,0.019624722264229958,0.0229966219506569,True
32103,527,0,528,3914.0,42196.0,31010.0,0.003111,-0.003172,0.0011589999999999999,0.385,-2.1175,-3.5000000000000004,1.1434375,0.29403125,0.1760625,1.43053125,1.10309375,-0.18,-0.38275000000000003,1.38859375,0.019604270057899092,0.022918354164316986,True
32104,528,0,529,3913.0,42199.0,31013.0,0.005063,-0.002745,-0.00042699999999999997,0.2625,-2.2225,-3.5000000000000004,1.1417187500000001,0.29834375,0.17453125,1.4275625,1.1075625,-0.17675,-0.384,1.39071875,0.019650852575304786,0.022905645095144356,True
32105,529,0,530,3913.0,42198.0,31013.0,0.0021349999999999997,0.0028669999999999998,0.000244,0.2625,-1.715,-3.6225000000000005,1.14546875,0.29784375,0.17675,1.4306875000000001,1.10871875,-0.18006250000000001,-0.38178125,1.40228125,0.019764475381318806,0.022907729516275604,True
32106,530,0,531,3915.0,42198.0,31012.0,-0.000122,0.001647,-6.1e-05,0.31500000000000006,-1.54,-3.5525,1.1416875,0.29659375,0.1760625,1.430625,1.10396875,-0.181,-0.38446875,1.38940625,0.01975078574087093,0.022987224193678612,True
32107,531,0,532,3915.0,42199.0,31014.0,-0.0032329999999999998,-0.001952,-0.000122,0.2625,-1.3650000000000002,-3.6050000000000004,1.14359375,0.30178125,0.17390625,1.427625,1.1085,-0.176875,-0.38475,1.38734375,0.019798102525657266,0.022910066742533753,True
32108,532,0,533,3914.0,42201.0,31017.0,-0.002745,-6.1e-05,-6.1e-05,0.28,-1.33,-3.6050000000000004,1.1364375,0.2930625,0.176125,1.4471875,1.1031250000000001,-0.18071875,-0.38184375,1.39828125,0.019593348522777058,0.02288460034938908,True
32109,533,0,534,3915.0,42204.0,31019.0,-0.001037,-0.000305,0.000244,0.28,-1.3650000000000002,-3.4825000000000004,1.143,0.30015625,0.16728125,1.4193437500000001,1.1069375000000001,-0.176375,-0.38340625,1.3886875,0.019710616252436523,0.022584518928728425,True
32110,534,0,535,3917.0,42202.0,31022.0,0.0042699999999999995,-0.0030499999999999998,-0.000915,0.17500000000000002,-1.12,-3.6050000000000004,1.1589375,0.292375,0.18246875,1.44215625,1.113625,-0.1789375,-0.3804375,1.40115625,0.019492688626206178,0.023088439245604185,True
32111,535,0,536,3917.0,42203.0,31021.0,-0.001769,0.0025009999999999998,-0.000366,0.385,-1.0675000000000001,-3.7100000000000004,1.13434375,0.29390625,0.1728125,1.41765625,1.10134375,-0.18,-0.384125,1.38859375,0.019599100496277916,0.022840167527028343,True
32112,536,0,537,3918.0,42203.0,31024.0,-0.006039,0.005612,-0.0006709999999999999,0.45500000000000007,-1.2075,-3.7625,1.162375,0.3013125,0.17021875,1.417125,1.11515625,-0.1684375,-0.3848125,1.38909375,0.019436506807690816,0.02276134991810989,True
32113,537,0,538,3918.0,42208.0,31028.0,-0.005856,0.006222,0.003355,0.385,-1.12,-3.7625,1.15240625,0.2964375,0.18165625,1.4404375,1.11396875,-0.18125,-0.38065625000000003,1.40159375,0.019754458516412512,0.023063878766593906,True
32114,538,0,539,3920.0,42210.0,31029.0,-0.002196,0.0015249999999999999,0.0042699999999999995,0.24500000000000002,-1.2775,-3.6050000000000004,1.14434375,0.3026875,0.17059375000000002,1.4185,1.10896875,-0.17565625,-0.38653125,1.3889375,0.01978617436703502,0.02284560252905997,True
32115,539,0,540,3921.0,42209.0,31030.0,0.002928,-0.000305,-0.003111,0.2625,-1.8550000000000002,-3.5700000000000003,1.1455312500000001,0.29365625,0.18540625,1.40959375,1.107875,-0.17640625000000001,-0.38090625,1.3904375,0.019443026194184674,0.02322770508171738,True
32116,540,0,541,3921.0,42208.0,31033.0,0.002074,-0.000976,-0.0025009999999999998,0.10500000000000001,-1.9775000000000003,-3.4475000000000002,1.15509375,0.2954375,0.18346875,1.43621875,1.1103750000000001,-0.17853125,-0.38034375,1.3884375,0.01960287600182497,0.023125699365908244,True
32117,541,0,542,3922.0,42211.0,31032.0,0.001769,-0.003721,-0.0013419999999999999,0.035,-2.1700000000000004,-3.3775000000000004,1.12996875,0.28753125,0.17825,1.4370625000000001,1.1051875,-0.17153125,-0.38234375,1.39446875,0.01899186672337939,0.022991790934782468,True
32118,542,0,543,3923.0,42210.0,31033.0,0.003172,-0.0048189999999999995,-0.0011589999999999999,0.10500000000000001,-2.0475000000000003,-3.4650000000000003,1.1465625,0.2945,0.17034375000000002,1.41628125,1.1111875,-0.17671875,-0.38525,1.39084375,0.01949059981516309,0.022784008775796845,True
32119,543,0,544,3922.0,42212.0,31031.0,0.006527,-0.003538,-0.001647,-0.035,-1.9425000000000001,-3.4475000000000002,1.14665625,0.29503125,0.1790625,1.42378125,1.10571875,-0.18056250000000001,-0.38209375,1.3984375,0.019668432030892583,0.02301509688846964,True
32120,544,0,545,3923.0,42207.0,31032.0,0.002013,-0.001586,-0.0008539999999999999,0.22750000000000004,-1.33,-3.6750000000000003,1.13759375,0.29734375,0.1754375,1.428125,1.1094375,-0.17765625000000002,-0.38656250000000003,1.3906875,0.019646238456219264,0.02304547842690006,True
32121,545,0,546,3923.0,42210.0,31032.0,-0.0048189999999999995,0.002013,0.002562,0.3325,-1.0325000000000002,-3.7100000000000004,1.14359375,0.29740625,0.18131250000000002,1.43259375,1.1058125,-0.18053125,-0.37934375000000004,1.39565625,0.019765384600472745,0.022997183835188346,True
32122,546,0,547,3925.0,42211.0,31031.0,-0.008845,0.00244,0.0023179999999999997,0.31500000000000006,-0.8225000000000001,-3.6575,1.1403125,0.2956875,0.17471875,1.42653125,1.1126562500000001,-0.176875,-0.38609375,1.39165625,0.01954605382209239,0.02299722562167219,True
32123,547,0,548,3926.0,42212.0,31034.0,-0.008479,0.00244,0.002745,0.36750000000000005,-0.9100000000000001,-3.5875000000000004,1.14946875,0.29634375,0.176125,1.428375,1.106,-0.17940625000000002,-0.38346875,1.391875,0.019675834678529378,0.02294971875156196,True
32124,548,0,549,3927.0,42213.0,31036.0,-0.003538,0.0028669999999999998,0.000976,0.29750000000000004,-1.1375000000000002,-3.7450000000000006,1.14684375,0.29596875,0.17540625,1.428125,1.09578125,-0.17534375,-0.38615625000000003,1.3915,0.01949558628302855,0.023027921835775168,True
32125,549,0,550,3928.0,42217.0,31035.0,0.000915,0.000366,6.1e-05,0.3325,-1.995,-3.6400000000000006,1.1478125000000001,0.302375,0.1753125,1.43046875,1.10525,-0.179375,-0.37493750000000003,1.3864375,0.019924005479876963,0.022574416857479122,True
32126,550,0,551,3928.0,42216.0,31036.0,0.0015249999999999999,-0.001647,-0.000732,0.2625,-2.1525000000000003,-3.5875000000000004,1.14984375,0.29765625,0.176375,1.43171875,1.11396875,-0.1773125,-0.38240625,1.39446875,0.019645225249911465,0.022917395611846147,True
32127,551,0,552,3930.0,42220.0,31039.0,0.001037,-0.001037,-0.001586,0.31500000000000006,-2.4675000000000002,-3.5875000000000004,1.1424375,0.29546875,0.1756875,1.4285,1.1059375,-0.1756875,-0.3844375,1.391375,0.019488845973873545,0.02297059343690007,True
32128,552,0,553,3929.0,42219.0,31041.0,0.0028669999999999998,-0.000976,-0.000732,0.2625,-2.555,-3.535,1.14721875,0.29853125,0.17340625,1.4275,1.112625,-0.18078125,-0.38178125,1.39696875,0.01982204359091996,0.022770588182518457,True
32129,553,0,554,3930.0,42219.0,31040.0,0.005856,-0.00183,-0.002013,0.1925,-2.2925000000000004,-3.535,1.1415625,0.2950625,0.17584375,1.43190625,1.1047500000000001,-0.176625,-0.38453125,1.38553125,0.019510063956404172,0.022980757524301395,True
32130,554,0,555,3932.0,42218.0,31038.0,0.0028669999999999998,-0.000549,-0.000488,0.15750000000000003,-1.61,-3.5525,1.14865625,0.29753125,0.1746875,1.42771875,1.11171875,-0.178125,-0.38275000000000003,1.3953125,0.019672999870750937,0.022861961837774655,True
32131,555,0,556,3932.0,42216.0,31037.0,0.000122,0.000244,0.001647,0.14,-1.155,-3.535,1.14184375,0.29459375,0.17921875,1.43303125,1.10565625,-0.17696875,-0.38646875,1.39103125,0.019504616351046902,0.023196777926283402,True
32132,556,0,557,3933.0,42214.0,31037.0,-0.004697,-0.0015249999999999999,0.001098,0.15750000000000003,-0.7350000000000001,-3.5525,1.14203125,0.29796875,0.171375,1.42815625,1.11240625,-0.17765625000000002,-0.384,1.39078125,0.019672088769977447,0.022776205708661415,True
32133,557,0,558,3934.0,42214.0,31038.0,-0.0073809999999999995,-0.002623,0.001037,0.385,-0.7175,-3.5875000000000004,1.149125,0.298375,0.17259375,1.4272500000000001,1.11096875,-0.17753125,-0.38215625000000003,1.3934375,0.019683823177769646,0.022752294518660548,True
32134,558,0,559,3934.0,42217.0,31039.0,-0.007137,0.003294,0.000366,0.6475000000000001,-0.9450000000000001,-3.6925000000000003,1.1466875,0.30053125,0.17550000000000002,1.42671875,1.094375,-0.176125,-0.3765625,1.3860625,0.019715990465800456,0.02264726620088456,True
32135,559,0,560,3936.0,42222.0,31046.0,-0.006161,0.001952,0.001769,0.49000000000000005,-2.0825,-3.535,1.144875,0.2946875,0.17596875,1.4331562500000001,1.105375,-0.17859375,-0.38290625,1.38996875,0.019574391087157413,0.02292077057057134,True
32136,560,0,561,3937.0,42224.0,31050.0,0.003111,-0.001464,-0.0015249999999999999,0.29750000000000004,-2.5900000000000003,-3.6400000000000006,1.14203125,0.29690625,0.17500000000000002,1.42859375,1.1087500000000001,-0.17753125,-0.3814375,1.391375,0.019623074626364093,0.02282217773254756,True
32137,561,0,562,3937.0,42225.0,31051.0,0.010553,0.000122,-0.002379,0.22750000000000004,-2.9575000000000005,-3.5175000000000005,1.14071875,0.2976875,0.17703125,1.43346875,1.10634375,-0.17803125,-0.38271875,1.39471875,0.01967566114383279,0.022956832900350787,True
32138,562,0,563,3936.0,42224.0,31050.0,0.012688,0.00042699999999999997,-0.002562,0.24500000000000002,-2.8875,-3.43,1.14234375,0.29478125,0.1760625,1.43271875,1.10603125,-0.1766875,-0.38615625000000003,1.3919062500000001,0.019500965547906427,0.023054832595850363,True
32139,563,0,564,3937.0,42223.0,31047.0,0.009943,-6.1e-05,-0.0030499999999999998,0.28,-2.5025000000000004,-3.5875000000000004,1.14109375,0.3036875,0.175625,1.4323125,1.1127500000000001,-0.174125,-0.3865,1.39128125,0.019765451696803917,0.023050663276812988,True
32140,564,0,565,3939.0,42220.0,31048.0,-0.000366,0.00061,-0.000793,0.4025,-1.2775,-3.4125000000000005,1.14478125,0.29784375,0.174375,1.4283125,1.1190625,-0.178625,-0.37990625,1.3959062500000001,0.01970619710591483,0.022735167408611343,True
32141,565,0,566,3941.0,42221.0,31048.0,-0.00183,0.0015249999999999999,6.1e-05,0.35000000000000003,-0.5425000000000001,-3.3775000000000004,1.1474375,0.29815625,0.17390625,1.4279375,1.10153125,-0.17896875,-0.37965625000000003,1.40528125,0.01973305830092526,0.022705918997524836,True
32142,566,0,567,3943.0,42224.0,31050.0,-0.003477,-0.00183,0.0006709999999999999,0.29750000000000004,-0.035,-3.3600000000000003,1.14965625,0.29784375,0.1749375,1.4265625,1.10025,-0.1839375,-0.37675000000000003,1.4011875,0.019921538831300736,0.0226317084927236,True
32143,567,0,568,3943.0,42225.0,31055.0,-0.005673,-0.002562,0.002562,0.4025,0.17500000000000002,-3.3775000000000004,1.150125,0.2975,0.1745625,1.42775,1.0995625,-0.185125,-0.38009375,1.40465625,0.01995544782174994,0.022750373960313423,True
32144,568,0,569,3943.0,42227.0,31058.0,-0.006344,-0.000488,0.001464,0.385,0.49000000000000005,-3.4825000000000004,1.14915625,0.30012500000000003,0.17609375,1.4335625,1.0996875,-0.18403125,-0.380875,1.3866875,0.02001966690313469,0.022844493891215963,True
32145,569,0,570,3945.0,42232.0,31062.0,-0.009028,0.0006709999999999999,0.0017079999999999999,0.4025,0.17500000000000002,-3.3600000000000003,1.142375,0.29609375,0.17278125,1.42740625,1.11021875,-0.17578125,-0.38246875,1.40446875,0.01951850056551947,0.022772509449027797,True
32146,570,0,571,3945.0,42234.0,31068.0,-0.004697,-0.000244,0.001037,0.29750000000000004,-0.29750000000000004,-3.4650000000000003,1.14946875,0.29709375,0.1761875,1.43321875,1.09971875,-0.18434375,-0.3825625,1.38621875,0.019906990447073843,0.02291596709738774,True
32147,571,0,572,3944.0,42237.0,31070.0,-0.000732,0.000305,0.000122,0.29750000000000004,-0.8750000000000001,-3.5000000000000004,1.14196875,0.2973125,0.1734375,1.42746875,1.12325,-0.17603125,-0.37959375,1.40496875,0.01957905104875309,0.022684186441785967,True
32148,572,0,573,3945.0,42240.0,31072.0,0.003294,0.000976,-0.000793,0.29750000000000004,-1.4875,-3.4125000000000005,1.14265625,0.29531250000000003,0.18303125,1.42740625,1.10478125,-0.174875,-0.38978125,1.38540625,0.01944942838380757,0.02348575799547198,True
32149,573,0,574,3945.0,42241.0,31074.0,0.005246,0.000976,-0.0015249999999999999,0.1925,-1.9250000000000003,-3.3950000000000005,1.1496875,0.29728125,0.17609375,1.43396875,1.099625,-0.17981250000000001,-0.38509375,1.38784375,0.019731077319147944,0.023013546954274062,True
32150,574,0,575,3943.0,42239.0,31071.0,0.005307,-0.000793,-0.001037,0.24500000000000002,-2.0475000000000003,-3.535,1.14165625,0.30234375,0.174625,1.4275,1.1141875,-0.17603125,-0.37853125,1.39625,0.019787160061682994,0.022690302558731876,True
32151,575,0,576,3944.0,42241.0,31069.0,0.00122,0.001281,6.1e-05,0.28,-1.8550000000000002,-3.5175000000000005,1.1419375,0.29565625,0.17228125,1.42034375,1.10278125,-0.17615625000000001,-0.38421875,1.391125,0.019515612619355076,0.02282213778122377,True
32152,576,0,577,3941.0,42238.0,31069.0,0.000976,0.00042699999999999997,0.00042699999999999997,0.22750000000000004,-1.6800000000000002,-3.3600000000000003,1.15028125,0.29609375,0.17984375,1.43346875,1.1054375,-0.179625,-0.38275000000000003,1.3926875,0.019674364263300194,0.023073433062308392,True
32153,577,0,578,3940.0,42237.0,31063.0,-0.000244,-0.0011589999999999999,0.000183,0.22750000000000004,-1.5050000000000001,-3.5525,1.13940625,0.29671875000000003,0.1765,1.43284375,1.1125,-0.17609375,-0.38246875,1.39178125,0.019557026246227228,0.02292502681870555,True
32154,578,0,579,3938.0,42234.0,31063.0,0.000366,-0.000793,0.000549,0.22750000000000004,-1.2950000000000002,-3.6225000000000005,1.1485625,0.29796875,0.1789375,1.4280625,1.11325,-0.18,-0.38265625000000003,1.3970625,0.019767111248966088,0.023032509019602816,True
32155,579,0,580,3936.0,42233.0,31060.0,-0.002745,-0.000549,0.000305,0.31500000000000006,-1.1900000000000002,-3.5175000000000005,1.1420000000000001,0.2980625,0.17453125,1.427125,1.1108437500000001,-0.17284375,-0.38509375,1.383125,0.01948079650330756,0.022949470924219846,True
32156,580,0,581,3934.0,42233.0,31058.0,-0.0015249999999999999,0.000122,-0.000793,0.28,-1.1900000000000002,-3.6925000000000003,1.14253125,0.29484375,0.17578125,1.4288125,1.10390625,-0.18021875,-0.38634375,1.3911875,0.019646741202455003,0.023050810968741467,True
32157,581,0,582,3932.0,42231.0,31057.0,-0.0013419999999999999,0.000549,0.000305,0.31500000000000006,-1.2775,-3.6400000000000006,1.14796875,0.29790625,0.181125,1.4331562500000001,1.10125,-0.18028125,-0.38253125,1.39425,0.019775927957827205,0.02311721634725681,True
32158,582,0,583,3931.0,42230.0,31056.0,-0.002623,0.00122,0.000183,0.2625,-1.4875,-3.4650000000000003,1.1420937500000001,0.297375,0.17490625,1.42684375,1.1121875,-0.17040625,-0.383,1.39878125,0.019353470734485484,0.022880951892712137,True
32159,583,0,584,3931.0,42230.0,31053.0,0.001281,-0.0015249999999999999,0.000244,0.45500000000000007,-1.6625,-3.3950000000000005,1.14240625,0.29496875,0.176125,1.43590625,1.0989375000000001,-0.17940625000000002,-0.3783125,1.391125,0.019618968104313975,0.022743063122191088,True
32160,584,0,585,3929.0,42226.0,31050.0,0.005063,-0.003294,-0.0008539999999999999,0.1925,-2.0125,-3.5700000000000003,1.14284375,0.2986875,0.172125,1.426625,1.1131875,-0.17671875,-0.3849375,1.3914375,0.019663803633402487,0.022844532613626754,True
32161,585,0,586,3927.0,42222.0,31045.0,0.00488,-0.001647,-0.00244,0.3325,-2.0825,-3.6400000000000006,1.1420625,0.2911875,0.17628125,1.4267812500000001,1.10909375,-0.179625,-0.38359375,1.38121875,0.019471455822826035,0.022961135497100382,True
32162,586,0,587,3928.0,42222.0,31044.0,0.002013,0.0021349999999999997,0.000183,0.42000000000000004,-1.9075000000000002,-3.5525,1.14846875,0.2914375,0.1759375,1.4250625000000001,1.10625,-0.18106250000000002,-0.3831875,1.3917187500000001,0.019540084311845275,0.022930759155258107,True
32163,587,0,588,3927.0,42220.0,31042.0,-0.003111,0.001098,0.0011589999999999999,0.36750000000000005,-1.9075000000000002,-3.5700000000000003,1.15090625,0.297,0.17675,1.4358125,1.11375,-0.18175,-0.3828125,1.39528125,0.019797988152222234,0.022949054790131367,True
32164,588,0,589,3926.0,42218.0,31040.0,0.001586,-0.00061,0.000244,0.21000000000000002,-1.8025000000000002,-3.5875000000000004,1.1426875,0.29865625,0.174875,1.42740625,1.11296875,-0.17628125,-0.38228125,1.39659375,0.0196447706365097,0.022850866343771672,True
32165,589,0,590,3925.0,42214.0,31039.0,0.00061,0.001281,-0.0006709999999999999,0.385,-1.9600000000000002,-3.5700000000000003,1.13153125,0.29890625,0.17275000000000001,1.435,1.11178125,-0.17771875,-0.3825,1.3960000000000001,0.019713398312237375,0.02277248026248334,True
32166,590,0,591,3925.0,42216.0,31039.0,0.00042699999999999997,0.000488,-0.000305,0.42000000000000004,-1.9250000000000003,-3.5875000000000004,1.13903125,0.2991875,0.172625,1.425375,1.1055625,-0.17746875,-0.38365625000000003,1.39453125,0.019714894678542393,0.022813693085916926,True
32167,591,0,592,3924.0,42217.0,31038.0,0.000976,0.00042699999999999997,-0.000732,0.4025,-1.7500000000000002,-3.6400000000000006,1.14240625,0.29884375,0.1735625,1.4349375,1.10796875,-0.17675,-0.3825,1.3956250000000001,0.01967153360149731,0.022805803342561264,True
32168,592,0,593,3926.0,42218.0,31039.0,0.000488,0.000305,-0.000915,0.35000000000000003,-1.715,-3.7100000000000004,1.13915625,0.295125,0.17484375,1.42840625,1.0964375,-0.1771875,-0.38534375,1.3915625,0.019535460855403468,0.02297230277920523,True
32169,593,0,594,3923.0,42216.0,31038.0,0.000244,0.001464,0.001281,0.35000000000000003,-1.3650000000000002,-3.6400000000000006,1.15359375,0.29928125,0.1748125,1.4264375,1.108,-0.17703125,-0.3818125,1.3941875000000001,0.01970103339300602,0.02282951687861598,True
32170,594,0,595,3926.0,42216.0,31037.0,-0.001464,0.000122,0.000549,0.28,-1.2600000000000002,-3.6925000000000003,1.14109375,0.29321875000000003,0.17696875,1.4327812500000001,1.1054375,-0.17946875,-0.3831875,1.39271875,0.019549126777237403,0.022973052641292287,True
32171,595,0,596,3924.0,42218.0,31035.0,-0.004575,-0.0023179999999999997,0.00042699999999999997,0.24500000000000002,-1.3125000000000002,-3.6225000000000005,1.14121875,0.29403125,0.17703125,1.43428125,1.10728125,-0.1770625,-0.38259375,1.3911875,0.019485152507671268,0.02295182398304118,True
32172,596,0,597,3924.0,42215.0,31038.0,-0.004148,-0.002013,0.00183,0.21000000000000002,-1.4875,-3.6050000000000004,1.14225,0.29840625,0.177375,1.43003125,1.1100625,-0.17740625000000002,-0.38125000000000003,1.39634375,0.019680047358264494,0.022912073827223788,True
32173,597,0,598,3925.0,42214.0,31035.0,-0.001464,-0.0006709999999999999,0.0013419999999999999,0.14,-1.7325000000000002,-3.5700000000000003,1.1423125,0.296125,0.1751875,1.42815625,1.09625,-0.17603125,-0.38821875,1.39115625,0.019529932151291375,0.023101574402599617,True
32174,598,0,599,3925.0,42215.0,31034.0,0.001281,-0.001037,-0.001586,0.17500000000000002,-2.2750000000000004,-3.5875000000000004,1.14684375,0.2974375,0.18059375,1.4339375,1.1079375,-0.18862500000000001,-0.38315625000000003,1.38803125,0.020094672599207275,0.02312046866369074,True
32175,599,0,600,3926.0,42213.0,31033.0,0.001098,0.001281,-0.001403,0.22750000000000004,-2.5025000000000004,-3.5525,1.14246875,0.29390625,0.17559375,1.42771875,1.1203125,-0.17453125,-0.38221875,1.3845,0.019377314710083568,0.0228778400243005,True
32176,600,0,601,3927.0,42211.0,31030.0,0.002989,0.001281,0.0,0.385,-2.5725000000000002,-3.6925000000000003,1.14896875,0.29865625,0.1734375,1.4273125,1.09178125,-0.1825,-0.37615625,1.4077187500000001,0.019896877907577794,0.022546366390312253,True
32177,601,0,602,3927.0,42208.0,31026.0,0.005063,-0.000244,-0.00122,0.45500000000000007,-2.7300000000000004,-3.6225000000000005,1.144125,0.29428125,0.175375,1.43371875,1.09846875,-0.17684375,-0.388,1.3820625,0.01948662136677787,0.023100500246022632,True
32178,602,0,603,3928.0,42206.0,31025.0,0.004697,-0.00042699999999999997,-0.001647,0.45500000000000007,-2.415,-3.4650000000000003,1.1425625,0.2990625,0.181,1.4351875,1.12875,-0.1711875,-0.3919375,1.381375,0.019454981266435505,0.023488806495998934,True
32179,603,0,604,3927.0,42205.0,31027.0,-0.000549,0.0,-0.000488,0.24500000000000002,-1.9250000000000003,-3.5175000000000005,1.14146875,0.30140625,0.17375000000000002,1.427625,1.1206875,-0.17778125,-0.375875,1.4079062500000001,0.019819333091203314,0.022547908536616635,True
32180,604,0,605,3928.0,42206.0,31026.0,-0.001281,0.000305,0.000366,0.385,-1.7325000000000002,-3.535,1.1419375,0.2945625,0.17500000000000002,1.4285625,1.1029375000000001,-0.16675,-0.3904375,1.384875,0.019088727280250756,0.0231827534868942,True
32181,605,0,606,3928.0,42205.0,31025.0,-0.001647,-0.0015249999999999999,0.001647,0.3325,-1.5575,-3.5175000000000005,1.14840625,0.2975625,0.176875,1.41740625,1.09246875,-0.1883125,-0.371875,1.4095625,0.020087180533987233,0.022515707141941278,True
32182,606,0,607,3928.0,42205.0,31027.0,-0.000183,-0.001098,0.000915,0.385,-1.3825,-3.5700000000000003,1.141875,0.29415625,0.17603125,1.4336875,1.09984375,-0.18171875,-0.387875,1.37640625,0.019679122270827007,0.023122402013295542,True
32183,607,0,608,3929.0,42205.0,31025.0,6.1e-05,-6.1e-05,0.0,0.36750000000000005,-1.1900000000000002,-3.5875000000000004,1.14290625,0.2978125,0.17421875,1.427375,1.12396875,-0.17665625000000001,-0.38203125,1.4071875,0.019625077392577808,0.022813931878624755,True
32184,608,0,609,3932.0,42206.0,31027.0,-0.003538,0.00042699999999999997,0.0013419999999999999,0.42000000000000004,-1.12,-3.5700000000000003,1.14228125,0.3003125,0.17571875,1.4325,1.0925,-0.1744375,-0.38409375,1.386125,0.01963851278856023,0.02295810152878862,True
32185,609,0,610,3930.0,42206.0,31026.0,-0.0025009999999999998,-6.1e-05,0.0011589999999999999,0.47250000000000003,-1.33,-3.5875000000000004,1.14396875,0.29815625,0.17396875,1.42709375,1.10734375,-0.1725625,-0.3838125,1.391125,0.019473266435860906,0.02287506311820598,True
32186,610,0,611,3930.0,42206.0,31028.0,-0.000244,-0.0011589999999999999,0.000183,0.42000000000000004,-1.4175000000000002,-3.535,1.1453125,0.297875,0.17634375,1.432625,1.1064375,-0.180125,-0.37984375000000004,1.39890625,0.019768301445918908,0.02281341528286046,True
32187,611,0,612,3932.0,42208.0,31030.0,0.000244,0.000305,-0.0013419999999999999,0.4025,-1.5925000000000002,-3.6050000000000004,1.1420000000000001,0.29725,0.17678125,1.433,1.1050625,-0.17965625000000002,-0.38178125,1.39784375,0.019723450369564292,0.022909011210983616,True
32188,612,0,613,3931.0,42209.0,31028.0,0.001037,0.000732,-0.001098,0.42000000000000004,-1.7500000000000002,-3.6050000000000004,1.14265625,0.29521875000000003,0.17634375,1.432,1.10525,-0.18084375,-0.38284375,1.39921875,0.01968758844488212,0.022933645711444135,True
32189,613,0,614,3934.0,42208.0,31031.0,0.000732,0.0006709999999999999,0.000366,0.385,-2.0125,-3.7100000000000004,1.14196875,0.29728125,0.178875,1.43053125,1.105625,-0.17528125,-0.38284375,1.391875,0.01954734239131137,0.02303745845888054,True
32190,614,0,615,3932.0,42208.0,31030.0,0.002013,0.00061,0.000244,0.28,-1.8725000000000003,-3.6050000000000004,1.14178125,0.29928125,0.174125,1.42840625,1.1103750000000001,-0.177,-0.385125,1.39075,0.01969976630682053,0.022934063286532264,True
32191,615,0,616,3935.0,42212.0,31032.0,0.0021349999999999997,6.1e-05,-0.0008539999999999999,0.36750000000000005,-1.8900000000000001,-3.5175000000000005,1.14746875,0.2985625,0.17653125,1.4312500000000001,1.1133125,-0.17728125,-0.3815,1.3995,0.019681441642657817,0.022887486413879377,True
32192,616,0,617,3936.0,42209.0,31032.0,0.002074,0.000915,-0.000549,0.35000000000000003,-1.8200000000000003,-3.535,1.14178125,0.29871875000000003,0.1731875,1.4289375,1.10015625,-0.17725,-0.384375,1.39121875,0.019686637231281476,0.02286556452646418,True
