frame_seq,absolute_seq_u64,segment_id,sample_seq,PPG_G,PPG_R,PPG_IR,ACC_X,ACC_Y,ACC_Z,GYRO_X,GYRO_Y,GYRO_Z,Uh1,Uh2,Uh3,Uh4,Uc1,Uc2,Uc3,Uc4,UD1,UD2,parser_valid
2229,21963,0,21964,3141.0,38634.0,28879.0,0.016165,0.0032329999999999998,-0.010309,0.035,-3.7450000000000006,-3.9200000000000004,0.987375,-0.02853125,-0.40990625,1.16159375,0.930125,-0.5366562500000001,-1.21115625,1.0995,0.020708811943355162,0.03178156495698209,True
2230,21964,0,21965,3137.0,38632.0,28877.0,0.019764,0.003721,-0.008235,-0.035,-4.025,-4.130000000000001,0.97565625,-0.027625,-0.41171875,1.17484375,0.92525,-0.53778125,-1.21165625,1.1068125,0.020790643000780686,0.03172887540857218,True
2231,21965,0,21966,3133.0,38631.0,28876.0,0.019093,0.002928,-0.008601,-0.14,-3.6225000000000005,-4.2700000000000005,0.9838125,-0.029125,-0.40946875,1.1615,0.9299375,-0.53571875,-1.21015625,1.103,0.02064719420538679,0.03176051318602993,True
2232,21966,0,21967,3131.0,38631.0,28875.0,0.012627,0.000976,-0.006039,-0.08750000000000001,-2.7825,-4.41,0.98165625,-0.0289375,-0.4128125,1.162375,0.9293750000000001,-0.537125,-1.21234375,1.10175,0.020710963488998813,0.031711897074225795,True
2233,21967,0,21968,3127.0,38629.0,28869.0,0.0032329999999999998,0.000732,-0.000793,0.035,-1.61,-4.41,0.974375,-0.02615625,-0.413625,1.168125,0.9248125,-0.5355625,-1.2105937500000001,1.1061875,0.020761955223158223,0.03161245458568385,True
2234,21968,0,21969,3123.0,38627.0,28865.0,-0.010553,0.002989,0.0073809999999999995,0.35000000000000003,0.2625,-4.305000000000001,0.9868750000000001,-0.02871875,-0.4096875,1.1616875,0.92878125,-0.5354375,-1.21128125,1.1035625,0.020652525556147102,0.03179504215002957,True
2235,21969,0,21970,3120.0,38623.0,28862.0,-0.014091,0.00183,0.00915,0.45500000000000007,0.5775,-4.235,0.97496875,-0.02815625,-0.41290625000000003,1.1675,0.9259375,-0.536125,-1.21065625,1.0991250000000001,0.020702892164104966,0.031643365094869355,True
2236,21970,0,21971,3116.0,38619.0,28856.0,-0.01464,-0.0013419999999999999,0.005795,0.385,0.36750000000000005,-4.0425,0.9779375,-0.027375,-0.4103125,1.1596250000000001,0.92496875,-0.5348125,-1.21065625,1.10378125,0.020682346767475806,0.03174624817630441,True
2237,21971,0,21972,3115.0,38618.0,28853.0,-0.011285,-0.002928,0.0050019999999999995,0.3325,-0.21000000000000002,-3.8500000000000005,0.9831562500000001,-0.03,-0.41384375,1.17009375,0.9266562500000001,-0.533875,-1.2140312500000001,1.1093125,0.020537929699242372,0.031735801866272374,True
2238,21972,0,21973,3112.0,38616.0,28848.0,-0.006222,-0.001403,0.002623,0.1925,-1.1025,-3.8675,0.98140625,-0.0279375,-0.41046875,1.1636875,0.92784375,-0.536125,-1.21096875,1.104375,0.020711807589829285,0.031752052368078876,True
2239,21973,0,21974,3111.0,38614.0,28849.0,0.008235,0.00183,-0.005978,0.21000000000000002,-2.8350000000000004,-3.9200000000000004,0.9810625000000001,-0.030125,-0.41346875,1.1679375,0.92134375,-0.5340625,-1.21590625,1.1163750000000001,0.02054032021806417,0.03182267145365834,True
2240,21974,0,21975,3109.0,38614.0,28848.0,0.011285,-0.000183,-0.008235,0.10500000000000001,-3.325,-3.9375000000000004,0.983,-0.0309375,-0.41200000000000003,1.1631562500000001,0.9454375,-0.5381875,-1.22178125,1.12453125,0.020671860951425206,0.032106425869505156,True
2241,21975,0,21976,3107.0,38614.0,28848.0,0.010735999999999999,-0.0030499999999999998,-0.006588,-0.052500000000000005,-3.3950000000000005,-3.9550000000000005,0.97859375,-0.02740625,-0.40775,1.16275,0.93915625,-0.54840625,-1.21865625,1.117625,0.0212233737169801,0.03215501420699209,True
2242,21976,0,21977,3108.0,38615.0,28849.0,0.009637999999999999,-0.003538,-0.0026839999999999998,-0.035,-2.9050000000000002,-3.9025000000000003,0.97728125,-0.0275,-0.40990625,1.1629375,0.9351875000000001,-0.5381875,-1.21,1.09915625,0.020811948722781585,0.03173715787385958,True
2243,21977,0,21978,3106.0,38616.0,28851.0,0.006588,-0.0015249999999999999,-0.00244,0.035,-2.1350000000000002,-3.99,0.97803125,-0.027375,-0.403,1.1628125,0.912375,-0.53278125,-1.20371875,1.092625,0.020601261832063983,0.03176986531005469,True
2244,21978,0,21979,3104.0,38617.0,28849.0,-0.0042699999999999995,0.0013419999999999999,0.0025009999999999998,0.29750000000000004,-0.6300000000000001,-4.0075,0.981375,-0.02609375,-0.40753125,1.16978125,0.912625,-0.5311875,-1.20515625,1.1069375000000001,0.020589861375442994,0.03164531066931989,True
2245,21979,0,21980,3104.0,38616.0,28849.0,-0.008845,-0.001281,0.007503,0.4025,0.0,-4.077500000000001,0.9829687500000001,-0.02884375,-0.41271875,1.16275,0.9430625,-0.5478125,-1.21996875,1.12559375,0.02114114037656105,0.0320083663862589,True
2246,21980,0,21981,3105.0,38617.0,28848.0,-0.00976,-0.003355,0.007869,0.8925000000000001,0.31500000000000006,-3.9375000000000004,0.97778125,-0.027,-0.40984375,1.16440625,0.93425,-0.53590625,-1.20784375,1.09040625,0.020741286048890084,0.03165681316951197,True
2247,21981,0,21982,3105.0,38616.0,28846.0,-0.010919,0.0025009999999999998,0.004026,0.8225000000000001,0.15750000000000003,-3.8150000000000004,0.978375,-0.02653125,-0.40925,1.1658125,0.9128437500000001,-0.5308125,-1.2025000000000001,1.0944375,0.020557054520717568,0.03147505207816685,True
2248,21982,0,21983,3106.0,38614.0,28848.0,-0.010309,0.004331,-0.001586,0.47250000000000003,-0.9100000000000001,-3.6575,0.9841875,-0.029781250000000002,-0.4106875,1.16321875,0.92459375,-0.54021875,-1.21678125,1.1223125,0.020800038711961358,0.031966559966887124,True
2249,21983,0,21984,3105.0,38617.0,28848.0,0.0057339999999999995,0.001586,-0.0046359999999999995,0.49000000000000005,-2.975,-3.7100000000000004,0.97765625,-0.023375,-0.41153125,1.16221875,0.9195,-0.531625,-1.20265625,1.121125,0.02071815462693564,0.03139054043162613,True
2250,21984,0,21985,3106.0,38617.0,28852.0,0.013663999999999999,-0.000915,-0.0050019999999999995,0.22750000000000004,-3.2025,-3.9725000000000006,0.9796875,-0.02803125,-0.4099375,1.162875,0.94053125,-0.5351875,-1.205875,1.0925,0.020670567526740936,0.03157745962002906,True
2251,21985,0,21986,3105.0,38620.0,28852.0,0.015189,-0.0026839999999999998,-0.00366,0.21000000000000002,-2.8175000000000003,-3.9375000000000004,0.9750625,-0.0273125,-0.41250000000000003,1.16903125,0.91209375,-0.53434375,-1.20875,1.10778125,0.020666183500424786,0.031586254772648384,True
2252,21986,0,21987,3105.0,38621.0,28856.0,0.008723,-0.0008539999999999999,-0.002196,0.31500000000000006,-2.3800000000000003,-3.7800000000000002,0.98303125,-0.030125,-0.41165625,1.1635312500000001,0.91790625,-0.5355,-1.2102187500000001,1.10271875,0.020597705365694607,0.03167614323060961,True
2253,21987,0,21988,3108.0,38622.0,28856.0,-0.000366,0.002013,-0.001464,0.525,-1.7675,-3.8500000000000005,0.97778125,-0.02625,-0.41234375,1.1655312500000001,0.9245625000000001,-0.536375,-1.2104062500000001,1.1043125,0.020790560952870994,0.03165607456246367,True
2254,21988,0,21989,3109.0,38621.0,28856.0,-0.0046359999999999995,0.00061,0.0075639999999999995,0.56,-0.5425000000000001,-3.7275000000000005,0.96509375,-0.0273125,-0.4070625,1.16790625,0.9247500000000001,-0.5351875,-1.21096875,1.109625,0.020699862187725286,0.0318871622099012,True
2255,21989,0,21990,3108.0,38621.0,28855.0,-0.011041,6.1e-05,0.001647,0.42000000000000004,-0.45500000000000007,-3.5175000000000005,0.9852500000000001,-0.02809375,-0.410125,1.1630625,0.9263125,-0.5359375000000001,-1.2105625,1.1035,0.020697955804623323,0.03175008490984681,True
2256,21990,0,21991,3109.0,38627.0,28859.0,-0.004026,-0.004392,0.0066489999999999995,0.385,-0.6125,-3.4475000000000002,0.9783437500000001,-0.02721875,-0.41103125,1.1672500000000001,0.925,-0.53715625,-1.211125,1.1047500000000001,0.020782257520163938,0.031735741661667226,True
2257,21991,0,21992,3111.0,38625.0,28857.0,-0.000366,-0.001586,0.00042699999999999997,0.36750000000000005,-1.33,-3.7975000000000003,0.97746875,-0.02728125,-0.410125,1.1676250000000001,0.925,-0.53015625,-1.20903125,1.1096875,0.020500277082417685,0.03169127135736324,True
2258,21992,0,21993,3111.0,38625.0,28856.0,0.002257,0.000122,-0.001403,0.29750000000000004,-1.8900000000000001,-3.7625,0.98171875,-0.02884375,-0.411625,1.16428125,0.9302812500000001,-0.53628125,-1.2102187500000001,1.10278125,0.020681108715282597,0.03167738280731896,True
2259,21993,0,21994,3112.0,38627.0,28860.0,0.001281,0.000915,-0.003294,0.5075000000000001,-1.8725000000000003,-3.4475000000000002,0.9796875,-0.02215625,-0.41375,1.1632500000000001,0.9324375,-0.534625,-1.20865625,1.1038125,0.020887572155677946,0.03153306713839616,True
2260,21994,0,21995,3111.0,38626.0,28857.0,0.000122,0.001281,-0.0017079999999999999,0.5775,-1.5750000000000002,-3.6225000000000005,0.9784375000000001,-0.02609375,-0.41384375,1.17290625,0.9249375,-0.53278125,-1.2114375,1.11025,0.020653487871457703,0.031636186948879846,True
2261,21995,0,21996,3112.0,38627.0,28859.0,-0.001403,0.001098,0.0,0.5425000000000001,-1.4525000000000001,-3.7100000000000004,0.9855625,-0.0276875,-0.41109375000000004,1.163375,0.92559375,-0.5357500000000001,-1.209875,1.1027500000000001,0.020707029538530514,0.03168525230688371,True
2262,21996,0,21997,3113.0,38626.0,28862.0,0.0008539999999999999,-0.00042699999999999997,-0.0008539999999999999,0.47250000000000003,-1.5050000000000001,-3.6050000000000004,0.97875,-0.03484375,-0.4196875,1.1644375,0.93021875,-0.53859375,-1.21096875,1.103,0.020528886256980395,0.03138638811727534,True
2263,21997,0,21998,3111.0,38632.0,28863.0,0.002562,0.000549,-0.000366,0.43750000000000006,-1.5925000000000002,-3.8325000000000005,0.97396875,-0.0228125,-0.40696875,1.1773437500000001,0.9246562500000001,-0.535875,-1.2056875,1.10640625,0.020910707280665554,0.031688036678229864,True
2264,21998,0,21999,3114.0,38630.0,28862.0,-0.0008539999999999999,0.00122,-6.1e-05,0.525,-1.4000000000000001,-3.7625,0.9751875,-0.02528125,-0.4084375,1.178375,0.92484375,-0.53528125,-1.21353125,1.09753125,0.020786393064069725,0.03193101918240825,True
2265,21999,0,22000,3115.0,38632.0,28861.0,-0.001403,-0.000305,0.002562,0.525,-1.2075,-3.6400000000000006,0.9763437500000001,-0.02109375,-0.40646875,1.17184375,0.924875,-0.53434375,-1.2129375,1.1093125,0.020919654718704262,0.031986306633251284,True
2266,22000,0,22001,3116.0,38630.0,28862.0,-0.00244,-0.002013,0.0021349999999999997,0.45500000000000007,-1.155,-3.5700000000000003,0.99309375,-0.025781250000000002,-0.4055,1.164625,0.92515625,-0.5316875,-1.2120625,1.10709375,0.02062256214538849,0.03199113519570245,True
2267,22001,0,22002,3116.0,38631.0,28864.0,-0.002623,-0.002196,0.000366,0.45500000000000007,-1.2775,-3.5875000000000004,0.9909687500000001,-0.02759375,-0.4079375,1.1630625,0.9270625,-0.5357500000000001,-1.20828125,1.10915625,0.02071085049366741,0.03174923915132056,True
2268,22002,0,22003,3116.0,38632.0,28866.0,-0.000183,0.001098,0.00122,0.49000000000000005,-1.54,-3.5000000000000004,0.99103125,-0.03359375,-0.41209375,1.15746875,0.93140625,-0.536125,-1.208875,1.1033125,0.020481280153243433,0.03160717207729421,True
2269,22003,0,22004,3117.0,38634.0,28866.0,0.0008539999999999999,0.001403,-0.003294,0.5425000000000001,-1.7850000000000001,-3.6225000000000005,0.9664375000000001,-0.02409375,-0.4025625,1.15940625,0.93078125,-0.5400625,-1.213375,1.1099375,0.021025567885167365,0.03215803120367663,True
2270,22004,0,22005,3117.0,38633.0,28865.0,0.00122,0.001403,-0.002562,0.5075000000000001,-1.8025000000000002,-3.6925000000000003,0.9811562500000001,-0.0339375,-0.418625,1.181,0.9303750000000001,-0.5390625,-1.21175,1.1038125,0.020584527220630373,0.03145854611441094,True
2271,22005,0,22006,3119.0,38635.0,28866.0,0.002196,0.001037,0.000183,0.49000000000000005,-1.6625,-3.6575,0.98121875,-0.02675,-0.40446875,1.1594375000000001,0.9257500000000001,-0.5343125,-1.2035625,1.1083125,0.020687863171221933,0.0317055872557699,True
2272,22006,0,22007,3119.0,38634.0,28867.0,0.0015249999999999999,0.0006709999999999999,-0.000366,0.5425000000000001,-1.7500000000000002,-3.6050000000000004,0.981,-0.032875,-0.41631250000000003,1.1620625,0.92971875,-0.539125,-1.210375,1.10346875,0.020630319948245913,0.03149744896694317,True
2273,22007,0,22008,3121.0,38632.0,28867.0,0.000183,-0.00244,0.0006709999999999999,0.45500000000000007,-1.6625,-3.43,0.9711875,-0.025656250000000002,-0.4113125,1.16903125,0.9236562500000001,-0.538625,-1.21328125,1.1105,0.0209045433474777,0.03180739317695907,True
2274,22008,0,22009,3120.0,38635.0,28869.0,-0.000244,-0.000366,-0.000549,0.6125,-1.61,-3.6050000000000004,0.977375,-0.0260625,-0.4083125,1.1561875,0.92553125,-0.535375,-1.20825,1.10965625,0.020758292873045554,0.03173316275425704,True
2275,22009,0,22010,3122.0,38637.0,28871.0,-0.001769,0.0018909999999999999,0.0,0.6125,-1.4175000000000002,-3.6400000000000006,0.9825,-0.03059375,-0.40718750000000004,1.1580625,0.93090625,-0.53925,-1.21078125,1.1035625,0.02072827205395438,0.03187500387359078,True
2276,22010,0,22011,3122.0,38638.0,28872.0,-0.00183,0.000488,0.0025009999999999998,0.47250000000000003,-1.1725,-3.4825000000000004,0.97803125,-0.02734375,-0.40950000000000003,1.16390625,0.924875,-0.535125,-1.20903125,1.103375,0.020696093865427624,0.03171606405938348,True
2277,22011,0,22012,3123.0,38640.0,28871.0,-0.002379,-0.000366,0.0021349999999999997,0.56,-1.2425000000000002,-3.535,0.98228125,-0.0304375,-0.41325,1.163125,0.9323750000000001,-0.53821875,-1.21190625,1.09559375,0.020693484526051836,0.03167774154324408,True
2278,22012,0,22013,3125.0,38638.0,28874.0,-0.000305,-0.0017079999999999999,-0.001037,0.35000000000000003,-1.5225000000000002,-3.5525,0.97740625,-0.026625,-0.4068125,1.170375,0.91728125,-0.53534375,-1.21365625,1.105375,0.02073411952909769,0.03200026771206576,True
2279,22013,0,22014,3126.0,38641.0,28874.0,0.0006709999999999999,0.0008539999999999999,-0.002379,0.47250000000000003,-1.7675,-3.5525,0.98159375,-0.028125,-0.41025,1.164125,0.9253125,-0.5355,-1.20965625,1.10371875,0.02067921990585071,0.03171031933448121,True
2280,22014,0,22015,3126.0,38642.0,28877.0,0.001464,0.002196,-0.0021349999999999997,0.5775,-1.8375000000000001,-3.6750000000000003,0.9843437500000001,-0.0306875,-0.412375,1.165,0.934,-0.533125,-1.21415625,1.10359375,0.02047996331490587,0.031798853074847595,True
2281,22015,0,22016,3127.0,38641.0,28879.0,0.0015249999999999999,0.0018909999999999999,-0.000976,0.525,-1.8025000000000002,-3.7100000000000004,0.9786875,-0.0269375,-0.40915625,1.1656875,0.91121875,-0.52790625,-1.20884375,1.10925,0.02042444001921281,0.031722498180821956,True
2282,22016,0,22017,3128.0,38643.0,28881.0,0.001647,-0.000793,0.0008539999999999999,0.4025,-1.8375000000000001,-3.6400000000000006,0.98303125,-0.029812500000000002,-0.4104375,1.1639375,0.9313125,-0.54003125,-1.2099375,1.1048125,0.020791283629681603,0.03171368433579021,True
2283,22017,0,22018,3129.0,38645.0,28880.0,0.000244,-0.001098,-0.000915,0.22750000000000004,-1.61,-3.7100000000000004,0.98065625,-0.03090625,-0.41271875,1.16328125,0.92975,-0.53890625,-1.21278125,1.10203125,0.02070181917745417,0.03173241746187759,True
2284,22018,0,22019,3130.0,38645.0,28882.0,-0.001464,-0.000793,-6.1e-05,0.36750000000000005,-1.5750000000000002,-3.7275000000000005,0.97840625,-0.02678125,-0.411125,1.1672500000000001,0.924125,-0.53153125,-1.21109375,1.0976875,0.02057556028020061,0.0317308228644384,True
2285,22019,0,22020,3130.0,38646.0,28881.0,-0.00183,0.00122,0.001403,0.5075000000000001,-1.5750000000000002,-3.7625,0.9789375,-0.0265,-0.41034375,1.165875,0.92471875,-0.53559375,-1.20909375,1.1090625,0.02074919218125708,0.03168499462619516,True
2286,22020,0,22021,3132.0,38647.0,28881.0,-0.0017079999999999999,0.001647,0.000732,0.49000000000000005,-1.4875,-3.6750000000000003,0.983,-0.02765625,-0.41275,1.163375,0.93259375,-0.5389375,-1.2109375,1.092625,0.020835508872378845,0.03166036566470406,True
2287,22021,0,22022,3134.0,38644.0,28882.0,-0.000732,-0.001098,0.0021349999999999997,0.42000000000000004,-1.5750000000000002,-3.6400000000000006,0.97840625,-0.0269375,-0.4029375,1.1635312500000001,0.9246562500000001,-0.5345625,-1.2099375,1.10753125,0.02069019979467741,0.03201118606501901,True
2288,22022,0,22023,3133.0,38644.0,28884.0,0.000793,-0.0006709999999999999,-0.000793,0.47250000000000003,-1.8900000000000001,-3.5700000000000003,0.97959375,-0.02803125,-0.41309375,1.16940625,0.9316875,-0.5388437500000001,-1.213375,1.10565625,0.020816486106848456,0.03174034614564691,True
2289,22023,0,22024,3134.0,38645.0,28884.0,-0.000183,0.0015249999999999999,-0.000488,0.45500000000000007,-1.6975000000000002,-3.6050000000000004,0.979125,-0.02771875,-0.4100625,1.16328125,0.9244375,-0.5347500000000001,-1.20946875,1.10146875,0.020665841306718027,0.03171055518573751,True
2290,22024,0,22025,3136.0,38648.0,28885.0,0.001098,0.002013,-0.0008539999999999999,0.49000000000000005,-1.7325000000000002,-3.7625,0.9773125,-0.029125,-0.41096875,1.16825,0.9312812500000001,-0.53815625,-1.21228125,1.1106875,0.020744478306107456,0.031782625778855295,True
2291,22025,0,22026,3136.0,38647.0,28886.0,0.000183,0.0011589999999999999,-0.001647,0.49000000000000005,-1.8025000000000002,-3.7275000000000005,0.984125,-0.031125,-0.41284375,1.16821875,0.93071875,-0.53909375,-1.211125,1.10346875,0.020700387519404628,0.031663848796910095,True
2292,22026,0,22027,3137.0,38647.0,28885.0,0.000183,-0.002013,-0.000244,0.385,-1.9775000000000003,-3.6750000000000003,0.97871875,-0.02846875,-0.40984375,1.16346875,0.92003125,-0.53609375,-1.2096875,1.10409375,0.020688908559456414,0.031727634465917115,True
2293,22027,0,22028,3139.0,38648.0,28885.0,0.0013419999999999999,0.000915,0.000793,0.47250000000000003,-1.9600000000000002,-3.7975000000000003,0.98309375,-0.0245625,-0.4113125,1.15515625,0.9284687500000001,-0.53746875,-1.21178125,1.10346875,0.020902981282451966,0.03174978959489425,True
2294,22028,0,22029,3139.0,38648.0,28886.0,0.0018909999999999999,0.0008539999999999999,0.001037,0.47250000000000003,-1.8725000000000003,-3.7275000000000005,0.9784375000000001,-0.02228125,-0.40984375,1.16678125,0.92459375,-0.5353125,-1.20896875,1.1085,0.020909913008036882,0.031700027396003645,True
2295,22029,0,22030,3138.0,38651.0,28889.0,0.0013419999999999999,0.002196,0.002013,0.42000000000000004,-1.6275000000000002,-3.7450000000000006,0.98,-0.02909375,-0.4105625,1.1655625,0.9318125,-0.5380625,-1.211875,1.10334375,0.020742010498995184,0.03178313790624458,True
2296,22030,0,22031,3141.0,38653.0,28889.0,-0.000244,0.0023179999999999997,-0.000183,0.45500000000000007,-1.3650000000000002,-3.8325000000000005,0.97846875,-0.02753125,-0.41053125,1.1644375,0.92325,-0.53540625,-1.20709375,1.10315625,0.020699677634235216,0.031600727473789,True
2297,22031,0,22032,3141.0,38652.0,28890.0,-0.003111,0.001952,0.000244,0.45500000000000007,-1.4000000000000001,-3.9200000000000004,0.97996875,-0.02775,-0.4120625,1.1675312500000001,0.9206875,-0.54071875,-1.2066875000000001,1.1135,0.02090275982646189,0.03152437225240326,True
2298,22032,0,22033,3141.0,38651.0,28892.0,-0.0035989999999999998,-0.000793,0.0013419999999999999,0.385,-1.3125000000000002,-3.8850000000000002,0.983125,-0.02746875,-0.4115625,1.168625,0.9360625,-0.5415625000000001,-1.216,1.11196875,0.02094788178218074,0.03190186786167512,True
2299,22033,0,22034,3142.0,38649.0,28891.0,-0.0013419999999999999,-0.0046359999999999995,0.001769,0.28,-1.4700000000000002,-3.8325000000000005,0.98184375,-0.029437500000000002,-0.41415625,1.16396875,0.93084375,-0.538375,-1.211375,1.0993125,0.020740472830821116,0.03162139113792881,True
2300,22034,0,22035,3144.0,38652.0,28893.0,0.001098,-0.006161,0.000976,0.17500000000000002,-1.7675,-3.7975000000000003,0.978375,-0.0275,-0.40984375,1.1632500000000001,0.9223750000000001,-0.5347500000000001,-1.20765625,1.09953125,0.020674757232089183,0.03164961042342047,True
2301,22035,0,22036,3144.0,38654.0,28893.0,0.0023179999999999997,-0.004758,0.000183,0.12250000000000001,-2.0300000000000002,-3.7975000000000003,0.98040625,-0.03009375,-0.4070625,1.17884375,0.93725,-0.5389375,-1.2105000000000001,1.1108437500000001,0.020736176943276372,0.031869161658832634,True
2302,22036,0,22037,3145.0,38654.0,28895.0,0.003843,-0.0011589999999999999,-0.001586,0.3325,-2.1175,-3.8500000000000005,0.9980625000000001,-0.04,-0.41696875,1.15115625,0.925625,-0.53509375,-1.2085000000000001,1.10153125,0.02017900379940468,0.03139937917765833,True
2303,22037,0,22038,3146.0,38656.0,28894.0,0.001769,0.0040869999999999995,-0.001403,0.36750000000000005,-1.8725000000000003,-3.8850000000000002,0.9653125,-0.02240625,-0.41390625000000003,1.180625,0.9195625000000001,-0.536,-1.21475,1.108375,0.02093225260841213,0.03176092366571154,True
2304,22038,0,22039,3147.0,38657.0,28895.0,0.000915,0.0026839999999999998,-0.00061,0.29750000000000004,-1.7500000000000002,-3.8325000000000005,0.9821875,-0.025718750000000002,-0.40353125,1.1533125,0.92209375,-0.53428125,-1.206875,1.1083125,0.02072864881664304,0.031870025538667524,True
2305,22039,0,22040,3149.0,38657.0,28898.0,-0.00042699999999999997,0.0026839999999999998,-0.002806,0.24500000000000002,-1.8200000000000003,-3.8500000000000005,0.96434375,-0.03840625,-0.41915625,1.15859375,0.933625,-0.54271875,-1.208875,1.093875,0.020548355100227032,0.031327012807989246,True
2306,22040,0,22041,3150.0,38658.0,28899.0,-0.00183,0.0025009999999999998,-0.001769,0.36750000000000005,-1.7675,-3.7450000000000006,0.96515625,-0.01425,-0.40828125,1.1810625000000001,0.92209375,-0.5385625,-1.21490625,1.11278125,0.021366879172323158,0.03199000591168171,True
2307,22041,0,22042,3151.0,38657.0,28898.0,-0.001586,0.003477,6.1e-05,0.24500000000000002,-1.6450000000000002,-3.7450000000000006,0.9849687500000001,-0.03203125,-0.40884375,1.15475,0.92059375,-0.53603125,-1.208625,1.101625,0.02054121935469902,0.031726492420748854,True
2308,22042,0,22043,3150.0,38657.0,28897.0,-0.001647,-0.000732,0.000183,0.42000000000000004,-1.61,-3.5525,0.96528125,-0.02209375,-0.41581250000000003,1.18403125,0.9216562500000001,-0.53859375,-1.2108125,1.103,0.021048475933956076,0.03153408879622583,True
2309,22043,0,22044,3152.0,38654.0,28897.0,-0.000305,-0.003965,0.0032329999999999998,0.28,-1.5050000000000001,-3.4475000000000002,0.97996875,-0.02328125,-0.40959375000000003,1.1798125,0.92203125,-0.535125,-1.20925,1.109875,0.0208616728058243,0.03172074734472465,True
2310,22044,0,22045,3151.0,38654.0,28896.0,-0.000122,-0.00366,0.00183,0.3325,-1.6625,-3.5000000000000004,0.98884375,-0.025687500000000002,-0.40284375,1.16546875,0.92403125,-0.53509375,-1.20878125,1.10896875,0.020762351886264956,0.031970506309185416,True
2311,22045,0,22046,3150.0,38651.0,28896.0,-0.00061,-0.00244,0.001952,0.31500000000000006,-1.7500000000000002,-3.7625,0.9907812500000001,-0.029312500000000002,-0.41931250000000003,1.165,0.9316562500000001,-0.5399375,-1.2101875,1.1029375000000001,0.020807917705576877,0.03137124624717686,True
2312,22046,0,22047,3148.0,38652.0,28893.0,-0.000549,-0.0026839999999999998,0.000976,0.29750000000000004,-1.9250000000000003,-3.7625,0.96690625,-0.02365625,-0.4028125,1.1625,0.92390625,-0.53590625,-1.209,1.11009375,0.020877565914240483,0.03198014597961046,True
2313,22047,0,22048,3148.0,38651.0,28893.0,0.0030499999999999998,-0.001586,-0.000305,0.28,-2.1350000000000002,-3.6575,0.9761562500000001,-0.02740625,-0.41065625,1.16071875,0.9206562500000001,-0.53740625,-1.21065625,1.1024375,0.020784592911078367,0.031732613069126274,True
2314,22048,0,22049,3146.0,38649.0,28887.0,0.005124,-0.00061,-0.001647,0.28,-2.205,-3.8325000000000005,0.97365625,-0.02796875,-0.4111875,1.16878125,0.9244687500000001,-0.535125,-1.21078125,1.11,0.020670620182289674,0.03171634159492776,True
2315,22049,0,22050,3144.0,38648.0,28887.0,0.002074,0.0006709999999999999,-0.0042699999999999995,0.4025,-2.1175,-3.99,0.9698125,-0.0275,-0.40928125,1.16471875,0.930125,-0.53628125,-1.20884375,1.10459375,0.020735874553117133,0.03171753960353695,True
2316,22050,0,22051,3139.0,38647.0,28883.0,-0.000183,0.004514,-0.001098,0.385,-1.8025000000000002,-4.112500000000001,0.98565625,-0.031406250000000004,-0.40950000000000003,1.1640625,0.92096875,-0.5340625,-1.21025,1.10171875,0.0204880969060872,0.031762874227744674,True
2317,22051,0,22052,3137.0,38645.0,28877.0,0.001037,0.0032329999999999998,0.002562,0.385,-1.3125000000000002,-4.095000000000001,0.98384375,-0.03075,-0.41021875,1.15690625,0.9250625,-0.538,-1.210375,1.103625,0.02067201890944657,0.03173916492713813,True
2318,22052,0,22053,3134.0,38641.0,28873.0,-0.002074,-0.000915,0.003477,0.29750000000000004,-0.9625000000000001,-4.0600000000000005,0.97828125,-0.029531250000000002,-0.41050000000000003,1.16403125,0.9243125,-0.538625,-1.20984375,1.10184375,0.020746629038913143,0.031707604296436785,True
2319,22053,0,22054,3132.0,38640.0,28872.0,-0.002928,-0.0011589999999999999,0.001464,0.3325,-0.9800000000000001,-4.0425,0.9829375,-0.02746875,-0.40534375,1.1691562500000001,0.93221875,-0.536875,-1.2088125,1.10759375,0.02076084464708729,0.03187253465429996,True
2320,22054,0,22055,3128.0,38639.0,28866.0,-0.003111,0.000793,-0.001769,0.31500000000000006,-1.12,-4.2,0.96740625,-0.0270625,-0.40534375,1.15825,0.9262812500000001,-0.53578125,-1.2065937500000001,1.1064687500000001,0.0207337498169128,0.03178731755455852,True
2321,22055,0,22056,3125.0,38635.0,28862.0,-0.003172,0.001281,0.001647,0.24500000000000002,-1.2075,-4.1825,0.9649375,-0.02690625,-0.4091875,1.17046875,0.93140625,-0.5356562500000001,-1.2088125,1.10415625,0.02073512910419912,0.03172005821376949,True
2322,22056,0,22057,3122.0,38636.0,28861.0,0.001037,-0.000244,-0.0011589999999999999,0.17500000000000002,-1.3475000000000001,-4.077500000000001,0.9772500000000001,-0.028,-0.40740625,1.17015625,0.9324687500000001,-0.52921875,-1.20921875,1.1087500000000001,0.02043353908285399,0.03180632085236675,True
2323,22057,0,22058,3120.0,38636.0,28859.0,0.00244,-0.001281,-0.0032329999999999998,0.12250000000000001,-1.9075000000000002,-4.0075,0.97728125,-0.0276875,-0.41431250000000003,1.1588125,0.9253750000000001,-0.53496875,-1.20515625,1.1028437500000001,0.020675846591408437,0.031376268496649366,True
2324,22058,0,22059,3119.0,38633.0,28856.0,0.004331,-0.0023179999999999997,-0.004331,0.17500000000000002,-2.1700000000000004,-4.0075,0.9783125,-0.028625,-0.41053125,1.16578125,0.921375,-0.5380625,-1.20971875,1.10259375,0.020761113474219897,0.03170156350911293,True
2325,22059,0,22060,3118.0,38632.0,28858.0,0.0035989999999999998,-0.000915,-0.00366,0.24500000000000002,-2.3625000000000003,-3.9025000000000003,0.9844375,-0.02840625,-0.41003125,1.16875,0.93140625,-0.537,-1.20928125,1.10609375,0.020727625626604722,0.03170459292646433,True
2326,22060,0,22061,3114.0,38630.0,28854.0,0.002196,0.001098,-0.002074,0.36750000000000005,-2.0125,-3.9025000000000003,0.97746875,-0.027375,-0.41209375,1.16884375,0.92953125,-0.5356562500000001,-1.2044062500000001,1.10965625,0.02071602425551589,0.03143547569187432,True
2327,22061,0,22062,3116.0,38632.0,28854.0,-0.000976,0.0,0.002989,0.31500000000000006,-1.5750000000000002,-3.8850000000000002,0.977375,-0.029875000000000002,-0.41490625000000003,1.1635,0.92534375,-0.53515625,-1.21178125,1.10184375,0.020594172902404076,0.03160724710793689,True
2328,22062,0,22063,3113.0,38630.0,28855.0,-0.0026839999999999998,-0.00366,0.003477,0.31500000000000006,-0.805,-3.7275000000000005,0.96996875,-0.030875,-0.410875,1.16359375,0.9221875,-0.53728125,-1.21228125,1.1031250000000001,0.020638237987348335,0.031786344204771236,True
2329,22063,0,22064,3113.0,38629.0,28856.0,-0.00366,-0.0028669999999999998,0.00366,0.3325,-1.0675000000000001,-3.6400000000000006,0.98090625,-0.028125,-0.409375,1.17071875,0.9248125,-0.53646875,-1.20928125,1.10371875,0.020717885494423483,0.031730625005423355,True
2330,22064,0,22065,3113.0,38631.0,28854.0,-0.0023179999999999997,-0.002257,0.004758,0.36750000000000005,-1.155,-3.7275000000000005,0.98184375,-0.02753125,-0.40900000000000003,1.17078125,0.93009375,-0.53596875,-1.209125,1.1010625,0.020722128609655978,0.03173949909011122,True
2331,22065,0,22066,3111.0,38630.0,28856.0,-0.000549,0.000549,0.0006709999999999999,0.42000000000000004,-1.2950000000000002,-3.7625,0.9743125,-0.02365625,-0.40925,1.1589375,0.9289375,-0.5365,-1.21015625,1.1025,0.02090125934831781,0.03176919024450711,True
2332,22066,0,22067,3112.0,38630.0,28855.0,-0.001403,0.003477,-0.002257,0.36750000000000005,-1.7325000000000002,-3.7100000000000004,0.98365625,-0.0278125,-0.4091875,1.164375,0.9282812500000001,-0.53828125,-1.20884375,1.09878125,0.020802954567162277,0.03172125853650071,True
2333,22067,0,22068,3113.0,38628.0,28856.0,-0.0008539999999999999,0.00366,-0.000976,0.4025,-1.8550000000000002,-3.7100000000000004,0.98459375,-0.0276875,-0.40921875,1.171125,0.9302812500000001,-0.53946875,-1.208875,1.1048125,0.0208554331478753,0.031721219213471444,True
2334,22068,0,22069,3114.0,38631.0,28860.0,0.0008539999999999999,0.00488,0.000122,0.525,-1.9600000000000002,-3.8150000000000004,0.98471875,-0.0281875,-0.40509375000000003,1.16571875,0.9290625,-0.53578125,-1.20925,1.104125,0.02068789841366881,0.03189925325029502,True
2335,22069,0,22070,3113.0,38633.0,28860.0,0.00366,0.003111,-0.000549,0.36750000000000005,-1.9600000000000002,-3.7450000000000006,0.9836875,-0.0275,-0.4098125,1.1644375,0.933625,-0.5376562500000001,-1.2098125,1.1041875,0.020790748912704327,0.03173367513145923,True
2336,22070,0,22071,3113.0,38632.0,28861.0,0.0026839999999999998,0.0006709999999999999,-0.000732,0.31500000000000006,-2.0475000000000003,-3.7275000000000005,0.97646875,-0.02778125,-0.40940625,1.1639375,0.928125,-0.542375,-1.2104062500000001,1.0996875,0.02096756120791081,0.03177259390653414,True
2337,22071,0,22072,3115.0,38632.0,28861.0,0.00061,-0.003721,0.00042699999999999997,0.36750000000000005,-1.7500000000000002,-3.7275000000000005,0.98046875,-0.02909375,-0.40978125,1.16346875,0.92025,-0.54284375,-1.2120312500000001,1.09759375,0.02093278208642794,0.03182012556009346,True
2338,22072,0,22073,3116.0,38633.0,28862.0,0.000732,-0.003538,0.000549,0.43750000000000006,-1.6275000000000002,-3.6575,0.97871875,-0.031718750000000004,-0.40971875,1.16425,0.91878125,-0.5390625,-1.2188125,1.0881875,0.02067494428525947,0.0320829440323568,True
2339,22073,0,22074,3115.0,38634.0,28864.0,-0.00061,-0.003538,-0.000488,0.36750000000000005,-1.4000000000000001,-3.7450000000000006,0.9705312500000001,-0.02790625,-0.4090625,1.1693437500000001,0.9175625000000001,-0.53259375,-1.211125,1.118,0.020572121527101063,0.03181383218717927,True
2340,22074,0,22075,3115.0,38637.0,28863.0,-0.00183,-0.003111,0.000488,0.36750000000000005,-1.1375000000000002,-3.8150000000000004,0.9673125,-0.027875,-0.40953125,1.16321875,0.94196875,-0.5314375,-1.20990625,1.09046875,0.020527231638993844,0.03174843222592309,True
2341,22075,0,22076,3117.0,38636.0,28865.0,-0.0025009999999999998,-0.001586,0.0013419999999999999,0.36750000000000005,-1.155,-3.7450000000000006,0.9775625,-0.02728125,-0.408875,1.16378125,0.918875,-0.5328437500000001,-1.2071875,1.0991250000000001,0.02060757836115106,0.031670034588349064,True
2342,22076,0,22077,3117.0,38637.0,28865.0,-0.0013419999999999999,0.0042699999999999995,0.000976,0.43750000000000006,-1.155,-3.7800000000000002,0.9832500000000001,-0.02846875,-0.4141875,1.1629375,0.90953125,-0.54046875,-1.21665625,1.10934375,0.020863497157119302,0.03182296423618814,True
2343,22077,0,22078,3117.0,38638.0,28866.0,-0.001464,0.004392,0.0013419999999999999,0.42000000000000004,-1.33,-3.7625,0.9780625000000001,-0.02803125,-0.40865625,1.17065625,0.9179375000000001,-0.5320625,-1.21190625,1.1194375,0.0205458163169118,0.031859947123197,True
2344,22078,0,22079,3119.0,38638.0,28868.0,-0.000915,0.003843,-0.000915,0.45500000000000007,-1.715,-3.7275000000000005,0.9848125,-0.0311875,-0.4125625,1.17053125,0.94225,-0.54215625,-1.2162187500000001,1.11796875,0.02082004306365705,0.03187060906980751,True
2345,22079,0,22080,3117.0,38638.0,28865.0,0.001098,0.0017079999999999999,-0.000244,0.3325,-1.8900000000000001,-3.6050000000000004,0.98175,-0.028125,-0.410125,1.1631562500000001,0.9412812500000001,-0.5455625000000001,-1.21284375,1.10403125,0.021080694321020353,0.03183769185100351,True
2346,22080,0,22081,3118.0,38638.0,28869.0,0.0037819999999999998,-0.000305,-0.000549,0.22750000000000004,-2.0300000000000002,-3.6400000000000006,0.9784375000000001,-0.0270625,-0.4089375,1.16740625,0.9193125,-0.53353125,-1.2046875000000001,1.101625,0.020643940117670588,0.03157150827599034,True
2347,22081,0,22082,3120.0,38640.0,28870.0,0.004575,-0.002989,-0.0018909999999999999,0.35000000000000003,-2.0125,-3.6575,0.97740625,-0.02734375,-0.4085625,1.16615625,0.9194687500000001,-0.53203125,-1.204625,1.0989375000000001,0.020572593229514984,0.03158398508210299,True
2348,22082,0,22083,3120.0,38643.0,28871.0,0.0011589999999999999,-0.00183,-0.0021349999999999997,0.42000000000000004,-1.6625,-3.535,0.978375,-0.02659375,-0.40853125,1.1711875,0.9251875,-0.5361875,-1.20909375,1.10853125,0.020769068136604354,0.03175689328379764,True
2349,22083,0,22084,3118.0,38643.0,28870.0,-0.001586,-0.0017079999999999999,-0.000305,0.36750000000000005,-1.5750000000000002,-3.6750000000000003,0.97290625,-0.0291875,-0.41271875,1.1685,0.93021875,-0.53728125,-1.21234375,1.1108437500000001,0.020707010887768995,0.03171561549092397,True
2350,22084,0,22085,3119.0,38643.0,28870.0,-0.0008539999999999999,-0.001586,0.001586,0.45500000000000007,-1.3475000000000001,-3.7800000000000002,0.98284375,-0.028375,-0.40990625,1.15890625,0.93078125,-0.53571875,-1.20959375,1.09915625,0.0206777618854145,0.03172155441814686,True
2351,22085,0,22086,3122.0,38645.0,28871.0,-0.0013419999999999999,-0.001281,0.001586,0.36750000000000005,-1.155,-3.7625,0.97809375,-0.0264375,-0.40875,1.16425,0.9254375,-0.53459375,-1.208,1.10353125,0.02071182654084093,0.03170620437956204,True
2352,22086,0,22087,3122.0,38644.0,28872.0,-0.001952,0.0008539999999999999,0.00042699999999999997,0.42000000000000004,-1.1900000000000002,-3.7100000000000004,0.98059375,-0.029968750000000002,-0.404375,1.16996875,0.9284375,-0.53878125,-1.2083125000000001,1.1090625,0.020735035485920882,0.0318917618940181,True
2353,22087,0,22088,3120.0,38645.0,28873.0,-0.0040869999999999995,0.002623,0.000976,0.4025,-1.3125000000000002,-3.8150000000000004,0.98321875,-0.02815625,-0.412375,1.16490625,0.9261875,-0.53953125,-1.2103125000000001,1.0948437500000001,0.020838825109994717,0.03165123399402527,True
2354,22088,0,22089,3121.0,38647.0,28875.0,-0.003721,0.0032329999999999998,0.001037,0.43750000000000006,-1.2950000000000002,-3.7625,0.9781875,-0.02778125,-0.40859375000000003,1.163875,0.9253750000000001,-0.53509375,-1.2079375,1.1007500000000001,0.020677014939060503,0.03171000205788355,True
2355,22089,0,22090,3125.0,38647.0,28874.0,-0.0006709999999999999,0.001586,0.001952,0.3325,-1.3825,-3.6225000000000005,0.9812500000000001,-0.028125,-0.41128125,1.1658125,0.92671875,-0.5376562500000001,-1.21178125,1.1061875,0.02076527785737483,0.031751029094780836,True
2356,22090,0,22091,3125.0,38645.0,28879.0,0.00061,-0.000122,-0.000549,0.28,-1.7850000000000001,-3.6225000000000005,0.97821875,-0.02740625,-0.4065625,1.1704375,0.924625,-0.5350625,-1.20740625,1.109,0.020691051836529868,0.03177017667178669,True
2357,22091,0,22092,3126.0,38649.0,28876.0,0.003477,0.000305,-0.0025009999999999998,0.385,-2.2225,-3.6925000000000003,0.9851875,-0.02834375,-0.41040625000000003,1.162625,0.9325625000000001,-0.53709375,-1.20928125,1.10346875,0.020733914341424402,0.03168971745277347,True
2358,22092,0,22093,3126.0,38650.0,28878.0,0.003294,0.00042699999999999997,-0.0015249999999999999,0.28,-2.0825,-3.6400000000000006,0.97709375,-0.029906250000000002,-0.4133125,1.1636875,0.92490625,-0.537875,-1.20984375,1.1027500000000001,0.02070141566863471,0.031596040733096575,True
2359,22093,0,22094,3129.0,38651.0,28881.0,0.0021349999999999997,-0.000244,-0.0011589999999999999,0.36750000000000005,-2.0650000000000004,-3.6575,0.9775312500000001,-0.02603125,-0.41709375,1.142625,0.9245,-0.5346875,-1.211875,1.0932187500000001,0.02073212670835934,0.03152408339324227,True
2360,22094,0,22095,3129.0,38652.0,28883.0,0.00244,-0.001403,-6.1e-05,0.28,-1.8200000000000003,-3.7100000000000004,0.975375,-0.02303125,-0.40803125,1.16234375,0.91515625,-0.53521875,-1.2086875,1.105125,0.0208756035647736,0.031761124017265864,True
2361,22095,0,22096,3131.0,38653.0,28883.0,-0.000549,-0.001769,0.000122,0.3325,-1.4700000000000002,-3.7275000000000005,0.9793437500000001,-0.0318125,-0.41375,1.16321875,0.93090625,-0.5388437500000001,-1.2044062500000001,1.10340625,0.020662393679408794,0.031369762975471796,True
2362,22096,0,22097,3131.0,38653.0,28885.0,-0.002623,-0.000366,0.002013,0.35000000000000003,-1.2775,-3.7450000000000006,0.9750625,-0.02659375,-0.40721875,1.170875,0.9245,-0.5340625,-1.20765625,1.10928125,0.02068425276082997,0.031753745451840655,True
2363,22097,0,22098,3131.0,38656.0,28883.0,-0.0013419999999999999,-0.000732,0.001464,0.35000000000000003,-1.3125000000000002,-3.7975000000000003,0.98853125,-0.031718750000000004,-0.41096875,1.1615312500000001,0.9331875000000001,-0.53596875,-1.20896875,1.10440625,0.02055146080180755,0.031655400421724905,True
2364,22098,0,22099,3133.0,38653.0,28886.0,-0.000793,-0.0011589999999999999,-0.000793,0.35000000000000003,-1.435,-3.8150000000000004,0.97540625,-0.02534375,-0.40675,1.164375,0.92490625,-0.5347500000000001,-1.2091875,1.109625,0.020762642782176304,0.031831152828705814,True
2365,22099,0,22100,3133.0,38656.0,28887.0,0.000366,0.000488,-0.000366,0.29750000000000004,-1.6625,-3.8675,0.986125,-0.031,-0.41540625000000003,1.17328125,0.93003125,-0.5339375000000001,-1.21128125,1.10784375,0.020499665004852972,0.03156820917223317,True
2366,22100,0,22101,3134.0,38656.0,28888.0,-0.000183,0.0006709999999999999,0.000244,0.35000000000000003,-1.5750000000000002,-3.8325000000000005,0.9895,-0.03209375,-0.41050000000000003,1.16109375,0.92915625,-0.5365625,-1.20884375,1.10328125,0.0205598787523721,0.03166919347500815,True
2367,22101,0,22102,3135.0,38656.0,28888.0,0.001098,0.000305,-0.000305,0.385,-1.7500000000000002,-3.9025000000000003,0.96640625,-0.0266875,-0.4073125,1.16596875,0.9253750000000001,-0.5353125,-1.20925,1.106875,0.020730324914345396,0.03181123992185408,True
2368,22102,0,22103,3135.0,38658.0,28890.0,0.0013419999999999999,-0.000549,0.000366,0.35000000000000003,-1.7675,-3.7800000000000002,0.98678125,-0.03078125,-0.4015,1.17346875,0.930125,-0.53721875,-1.21,1.10809375,0.02063956413152978,0.032070606902023006,True
2369,22103,0,22104,3136.0,38658.0,28891.0,0.000244,-0.000305,-0.0006709999999999999,0.28,-1.8725000000000003,-3.6400000000000006,0.98809375,-0.032875,-0.41225,1.17446875,0.92896875,-0.53834375,-1.20871875,1.0972187500000001,0.020599138847747212,0.03159497148184098,True
2370,22104,0,22105,3136.0,38661.0,28891.0,6.1e-05,0.000183,-0.002196,0.2625,-1.8900000000000001,-3.7275000000000005,0.9818125,-0.02775,-0.408375,1.15309375,0.9246875,-0.5355,-1.2084375,1.10371875,0.020694503882129973,0.03173788538063893,True
2371,22105,0,22106,3136.0,38661.0,28893.0,-0.000915,0.0008539999999999999,-0.000915,0.35000000000000003,-1.8550000000000002,-3.8325000000000005,0.97690625,-0.025656250000000002,-0.41103125,1.170125,0.9265625000000001,-0.53721875,-1.21071875,1.107375,0.02084843050926462,0.03172013887942009,True
2372,22106,0,22107,3137.0,38659.0,28893.0,-0.00042699999999999997,-0.000976,0.000488,0.35000000000000003,-1.5575,-3.8150000000000004,0.98378125,-0.02490625,-0.40884375,1.16478125,0.9292812500000001,-0.53721875,-1.20946875,1.1036875,0.020878996320640452,0.03175890011565596,True
2373,22107,0,22108,3138.0,38660.0,28894.0,-0.001769,-0.002074,0.000976,0.2625,-1.5750000000000002,-3.7800000000000002,0.9786875,-0.029843750000000002,-0.4118125,1.1675312500000001,0.92509375,-0.53509375,-1.2101250000000001,1.1103125,0.02059295167763522,0.03166634437552372,True
2374,22108,0,22109,3138.0,38662.0,28895.0,0.000732,-0.0017079999999999999,0.0037819999999999998,0.29750000000000004,-1.6275000000000002,-3.7450000000000006,0.97859375,-0.02715625,-0.40850000000000003,1.17090625,0.92540625,-0.53528125,-1.20815625,1.11059375,0.020709972501334176,0.03172212366781089,True
2375,22109,0,22110,3142.0,38663.0,28897.0,0.002074,0.000122,0.001037,0.31500000000000006,-1.7675,-3.7275000000000005,0.9839375,-0.03,-0.41003125,1.16365625,0.94634375,-0.54034375,-1.21503125,1.10109375,0.020796112523892414,0.03192540163915125,True
2376,22110,0,22111,3140.0,38661.0,28899.0,0.002623,0.001952,-0.001037,0.21000000000000002,-1.8025000000000002,-3.7975000000000003,0.97803125,-0.029906250000000002,-0.41400000000000003,1.16940625,0.92053125,-0.533,-1.20975,1.1183750000000001,0.020506817348061795,0.031565168238479165,True
2377,22111,0,22112,3141.0,38663.0,28900.0,-0.00042699999999999997,0.003721,-0.002806,0.3325,-1.5925000000000002,-4.112500000000001,0.9694375000000001,-0.0278125,-0.40900000000000003,1.16365625,0.94871875,-0.54740625,-1.21128125,1.0925,0.021166951192654007,0.03182231168834389,True
2378,22112,0,22113,3142.0,38663.0,28899.0,-0.00042699999999999997,6.1e-05,-6.1e-05,0.21000000000000002,-1.3125000000000002,-4.095000000000001,0.98478125,-0.0303125,-0.41046875,1.16465625,0.912,-0.53846875,-1.2114375,1.10565625,0.02070855582624731,0.03177005476185164,True
2379,22113,0,22114,3143.0,38663.0,28900.0,-0.001037,-0.003904,0.000244,0.12250000000000001,-1.1725,-3.99,0.97846875,-0.02671875,-0.41234375,1.1695625,0.9146875,-0.5273125,-1.20046875,1.1079375,0.02040964536983006,0.03127421984958117,True
2380,22114,0,22115,3145.0,38665.0,28900.0,-0.0013419999999999999,-0.0023179999999999997,0.00042699999999999997,0.10500000000000001,-1.1900000000000002,-3.9025000000000003,0.9835625,-0.0283125,-0.40909375000000003,1.16559375,0.9460000000000001,-0.54690625,-1.2114375,1.0958125,0.02112664401445702,0.031824593500469775,True
2381,22115,0,22116,3146.0,38665.0,28902.0,-0.001647,-0.0015249999999999999,0.001037,0.1925,-1.155,-3.9025000000000003,0.97459375,-0.03059375,-0.4060625,1.16440625,0.9123125,-0.53753125,-1.214,1.11940625,0.02065967822251882,0.032043210121361146,True
2382,22116,0,22117,3146.0,38666.0,28903.0,0.0,-0.000305,6.1e-05,0.14,-1.5050000000000001,-4.025,0.9746250000000001,-0.0276875,-0.4091875,1.16765625,0.926,-0.53234375,-1.19653125,1.11509375,0.020571057341392425,0.031248100867058835,True
2383,22117,0,22118,3147.0,38664.0,28903.0,0.001281,-0.000915,0.000549,0.12250000000000001,-1.4525000000000001,-3.9550000000000005,0.985125,-0.02759375,-0.40871875,1.170875,0.94978125,-0.5414375,-1.20225,1.12234375,0.020937801626330976,0.03148652402067276,True
2384,22118,0,22119,3149.0,38668.0,28904.0,0.002074,-0.0013419999999999999,-0.000122,0.15750000000000003,-1.54,-3.8325000000000005,0.9768125,-0.02821875,-0.4044375,1.16446875,0.9471875000000001,-0.54146875,-1.199125,1.093875,0.020913581221580314,0.03153631326484551,True
2385,22119,0,22120,3148.0,38669.0,28904.0,0.000793,0.001098,-0.0030499999999999998,0.36750000000000005,-1.8200000000000003,-3.8150000000000004,0.9851562500000001,-0.0275625,-0.409375,1.16528125,0.92984375,-0.54653125,-1.20496875,1.0944375,0.021142243876107747,0.03156495681035113,True
2386,22120,0,22121,3148.0,38670.0,28905.0,0.002623,0.002989,-0.00042699999999999997,0.42000000000000004,-1.8550000000000002,-3.8150000000000004,0.98475,-0.02846875,-0.40865625,1.1709375,0.93559375,-0.54521875,-1.2049375,1.10796875,0.021052980022840496,0.03159227234743193,True
2387,22121,0,22122,3149.0,38669.0,28907.0,0.0037819999999999998,0.000122,-0.0018909999999999999,0.35000000000000003,-1.9600000000000002,-3.7450000000000006,0.97771875,-0.02690625,-0.4068125,1.1679375,0.9433125,-0.5314375,-1.202125,1.11584375,0.02056672178301822,0.03155735875447011,True
2388,22122,0,22123,3151.0,38670.0,28908.0,0.001098,-0.003355,-0.001037,0.14,-1.715,-3.7100000000000004,0.97778125,-0.0265625,-0.41250000000000003,1.1645,0.91696875,-0.53390625,-1.20415625,1.10109375,0.020679289503684313,0.031409750128017076,True
2389,22123,0,22124,3151.0,38670.0,28907.0,-6.1e-05,-0.0018909999999999999,0.001647,0.21000000000000002,-1.4525000000000001,-3.7450000000000006,0.97146875,-0.029343750000000002,-0.4093125,1.1638125,0.9246875,-0.5383125,-1.2095,1.1048437500000001,0.0207417991762881,0.031741506178226464,True
2390,22124,0,22125,3150.0,38669.0,28906.0,-0.003904,-0.00042699999999999997,0.0021349999999999997,0.28,-1.155,-3.8150000000000004,0.9838125,-0.02834375,-0.41121875,1.16478125,0.9308125,-0.536,-1.2084375,1.10209375,0.020690261248777306,0.031625075929438314,True
2391,22125,0,22126,3151.0,38667.0,28907.0,-0.00488,0.00183,0.002013,0.35000000000000003,-0.9800000000000001,-3.8150000000000004,0.9784375000000001,-0.03115625,-0.40953125,1.1644375,0.92571875,-0.5388437500000001,-1.2085000000000001,1.10409375,0.02068913699326196,0.03169441854929885,True
2392,22126,0,22127,3152.0,38667.0,28900.0,-0.0025009999999999998,-0.00042699999999999997,0.000183,0.17500000000000002,-1.5925000000000002,-3.8150000000000004,0.97565625,-0.029406250000000002,-0.40965625,1.153375,0.93115625,-0.53925,-1.20828125,1.105,0.020776663915971355,0.03168105719226692,True
2393,22127,0,22128,3147.0,38666.0,28900.0,-0.000366,0.0,-0.00042699999999999997,0.17500000000000002,-1.8200000000000003,-3.9200000000000004,0.98153125,-0.02865625,-0.409125,1.1640625,0.9258125,-0.53834375,-1.207375,1.10521875,0.02077106365420445,0.03166731958405031,True
2394,22128,0,22129,3146.0,38664.0,28897.0,0.001586,0.000915,-0.001769,0.14,-1.8725000000000003,-3.9200000000000004,0.976125,-0.02921875,-0.40921875,1.16528125,0.93140625,-0.533,-1.20853125,1.09765625,0.020534840826641667,0.03170801551558067,True
2395,22129,0,22130,3143.0,38661.0,28891.0,0.001281,0.000549,-0.002013,0.35000000000000003,-1.9425000000000001,-4.0075,0.98159375,-0.0288125,-0.4093125,1.1643125,0.93225,-0.5394375,-1.2091875,1.10415625,0.020808341674498448,0.03172950338046397,True
2396,22130,0,22131,3139.0,38660.0,28889.0,0.002257,0.0006709999999999999,-6.1e-05,0.385,-1.8900000000000001,-3.9725000000000006,0.97440625,-0.02721875,-0.41140625000000003,1.1691562500000001,0.92271875,-0.53878125,-1.21103125,1.106375,0.02084710299131095,0.03171726662311761,True
2397,22131,0,22132,3136.0,38658.0,28885.0,0.0028669999999999998,-0.001098,0.000915,0.2625,-1.6625,-4.0075,0.978375,-0.02759375,-0.40978125,1.16465625,0.9248125,-0.5344375,-1.20753125,1.1046875,0.020658462212553276,0.031647287950897614,True
2398,22132,0,22133,3131.0,38655.0,28880.0,0.00244,-0.00244,0.0025009999999999998,0.14,-1.4525000000000001,-4.025,0.97965625,-0.02925,-0.413125,1.17659375,0.93315625,-0.5356875,-1.21140625,1.108,0.020640852228004613,0.0316634955656232,True
2399,22133,0,22134,3128.0,38651.0,28876.0,0.001464,-0.0006709999999999999,0.001281,0.17500000000000002,-1.2950000000000002,-4.0600000000000005,0.98934375,-0.02746875,-0.417,1.1617187500000001,0.92415625,-0.5364375,-1.20884375,1.10415625,0.020743384201557375,0.03141134745618787,True
2400,22134,0,22135,3125.0,38651.0,28872.0,-0.0013419999999999999,0.0008539999999999999,0.000549,0.31500000000000006,-1.3825,-4.077500000000001,0.9731875,-0.02628125,-0.409125,1.180625,0.9247500000000001,-0.538125,-1.2079375,1.1036875,0.0208591222842006,0.03168892734679306,True
2401,22135,0,22136,3121.0,38646.0,28869.0,0.001037,-0.0008539999999999999,-0.002196,0.2625,-1.3475000000000001,-4.0600000000000005,0.9935,-0.02915625,-0.41009375000000003,1.1585625,0.92478125,-0.5358125,-1.2071875,1.1048437500000001,0.02064966261052085,0.03162168528321536,True
2402,22136,0,22137,3118.0,38646.0,28867.0,6.1e-05,-0.0015249999999999999,-0.0026839999999999998,0.21000000000000002,-1.2950000000000002,-4.025,0.9707187500000001,-0.03021875,-0.40590625,1.1690625000000001,0.9321875000000001,-0.53946875,-1.208375,1.1038125,0.020752282993086395,0.03183341845715957,True
2403,22137,0,22138,3117.0,38646.0,28862.0,-0.000732,0.000366,-0.000549,0.17500000000000002,-1.1725,-4.0075,0.9686250000000001,-0.0261875,-0.405625,1.156875,0.92359375,-0.5344375,-1.21103125,1.1099375,0.020715779605707283,0.03194658092377716,True
2404,22138,0,22139,3114.0,38643.0,28862.0,-0.001952,0.0018909999999999999,-0.000305,0.1925,-1.0850000000000002,-4.130000000000001,0.9927812500000001,-0.0350625,-0.4136875,1.16425,0.9282812500000001,-0.5358437500000001,-1.2081250000000001,1.1048437500000001,0.020410190703142216,0.03151513648873132,True
2405,22139,0,22140,3111.0,38640.0,28859.0,-0.0025009999999999998,0.00244,-0.000183,0.17500000000000002,-1.1025,-4.095000000000001,0.9756875,-0.02659375,-0.40146875,1.1596875,0.92521875,-0.535125,-1.2050625,1.10959375,0.020726662285193168,0.03188223595954185,True
2406,22140,0,22141,3110.0,38642.0,28857.0,-0.0028669999999999998,-0.001037,0.002379,0.35000000000000003,-1.1900000000000002,-3.9025000000000003,0.98471875,-0.03603125,-0.41159375000000004,1.1585,0.93315625,-0.53634375,-1.20115625,1.1047500000000001,0.02039067047224589,0.03133040770698765,True
2407,22141,0,22142,3110.0,38641.0,28857.0,-0.000793,-0.000305,0.0030499999999999998,0.28,-1.2600000000000002,-4.025,0.972,-0.02503125,-0.41571875,1.17175,0.93096875,-0.5394375,-1.21165625,1.10371875,0.020962430373556856,0.031570218636469,True
2408,22142,0,22143,3109.0,38639.0,28854.0,0.000732,-0.000793,0.002196,0.22750000000000004,-1.4875,-3.9375000000000004,0.9725,-0.02484375,-0.40790625,1.179375,0.92509375,-0.5383125,-1.20971875,1.1038125,0.020925185870055242,0.03180569001786265,True
2409,22143,0,22144,3107.0,38638.0,28857.0,0.0008539999999999999,-0.002074,0.00042699999999999997,0.1925,-1.7325000000000002,-3.9200000000000004,0.974,-0.0263125,-0.405375,1.178,0.9246562500000001,-0.53415625,-1.20975,1.11146875,0.020699458535485608,0.03190729777169548,True
2410,22144,0,22145,3106.0,38640.0,28854.0,0.0018909999999999999,-0.0013419999999999999,-0.000549,0.08750000000000001,-1.7850000000000001,-3.7800000000000002,0.99284375,-0.02821875,-0.4055625,1.1636875,0.92425,-0.534875,-1.20753125,1.11034375,0.020650451653004144,0.031814648647911524,True
2411,22145,0,22146,3105.0,38639.0,28855.0,0.002806,0.000183,-0.002074,0.28,-2.205,-3.7975000000000003,0.9874375,-0.03609375,-0.40900000000000003,1.15775,0.9318125,-0.5359375000000001,-1.2080312500000001,1.104125,0.02037190345793798,0.03169748728393853,True
2412,22146,0,22147,3105.0,38640.0,28856.0,0.004514,0.000305,-0.000549,0.22750000000000004,-2.1175,-3.8500000000000005,0.97078125,-0.03034375,-0.41200000000000003,1.16765625,0.9253750000000001,-0.5373125,-1.211125,1.10553125,0.020661135974039537,0.03169731616498669,True
2413,22147,0,22148,3104.0,38639.0,28855.0,0.004026,0.00042699999999999997,-0.0023179999999999997,0.17500000000000002,-1.9425000000000001,-3.8500000000000005,0.98375,-0.02734375,-0.408125,1.16065625,0.9238437500000001,-0.535875,-1.20790625,1.1043125,0.02072602872324708,0.03172739703441256,True
2414,22148,0,22149,3104.0,38643.0,28858.0,0.001281,0.0013419999999999999,-0.00122,0.24500000000000002,-1.61,-3.8850000000000002,0.97696875,-0.02840625,-0.41009375000000003,1.1708125,0.924875,-0.53840625,-1.212375,1.094625,0.020783745888142184,0.031820931189544814,True
2415,22149,0,22150,3105.0,38643.0,28857.0,-0.00183,0.0026839999999999998,0.0013419999999999999,0.35000000000000003,-1.225,-4.0075,0.9775625,-0.027,-0.408375,1.171375,0.91009375,-0.5353125,-1.21159375,1.11125,0.020717588170111954,0.031859102521037574,True
2416,22150,0,22151,3106.0,38643.0,28858.0,-0.0046359999999999995,-0.000549,0.0021349999999999997,0.2625,-1.12,-3.8675,0.9783437500000001,-0.02809375,-0.40850000000000003,1.16403125,0.9240625,-0.5358437500000001,-1.2080625,1.1101875,0.020694213949744442,0.03171852259569731,True
2417,22151,0,22152,3107.0,38641.0,28857.0,-0.002013,-0.0030499999999999998,0.002074,0.22750000000000004,-1.225,-3.8325000000000005,0.98040625,-0.0275625,-0.408625,1.16659375,0.92996875,-0.5311875,-1.20709375,1.10925,0.02052998861143595,0.03167635102717861,True
2418,22152,0,22153,3106.0,38641.0,28859.0,-0.000122,-0.003477,0.000366,0.24500000000000002,-1.4875,-3.8675,0.9832500000000001,-0.0276875,-0.4090625,1.164375,0.926625,-0.5364375,-1.2080312500000001,1.10640625,0.020734468889381352,0.03169500791538411,True
2419,22153,0,22154,3107.0,38642.0,28860.0,-0.000366,-0.0013419999999999999,-0.002013,0.10500000000000001,-1.6625,-3.8325000000000005,0.978625,-0.0309375,-0.41271875,1.16246875,0.93159375,-0.539,-1.21125,1.10396875,0.020704287053262157,0.031673608012296094,True
2420,22154,0,22155,3106.0,38644.0,28861.0,6.1e-05,0.000976,-0.0011589999999999999,0.2625,-1.6625,-3.8325000000000005,0.977375,-0.02709375,-0.410875,1.16453125,0.918875,-0.53478125,-1.207625,1.1093125,0.020692562726639347,0.031607499714868016,True
2421,22155,0,22156,3106.0,38644.0,28862.0,0.002745,-0.000122,0.000976,0.15750000000000003,-1.8550000000000002,-3.7275000000000005,0.9824375000000001,-0.02815625,-0.4053125,1.16840625,0.93071875,-0.5355,-1.2079375,1.1086875,0.020677946241160768,0.03184016939108962,True
2422,22156,0,22157,3107.0,38645.0,28864.0,0.003721,0.001098,-0.0018909999999999999,0.17500000000000002,-1.8725000000000003,-3.7100000000000004,0.9844375,-0.02728125,-0.40159375,1.17090625,0.93384375,-0.53609375,-1.207625,1.10290625,0.020737306646458342,0.031975691878945355,True
2423,22157,0,22158,3108.0,38644.0,28863.0,0.000549,0.001464,-0.00488,0.28,-2.0300000000000002,-3.7625,0.977,-0.02715625,-0.4098125,1.169625,0.9166875,-0.53603125,-1.211375,1.1103125,0.0207399067442906,0.03179368439841143,True
2424,22158,0,22159,3108.0,38644.0,28864.0,-0.00061,0.0021349999999999997,-0.0013419999999999999,0.29750000000000004,-1.9250000000000003,-3.7450000000000006,0.9779375,-0.02678125,-0.40915625,1.16471875,0.92459375,-0.5350625,-1.21209375,1.1041875,0.020716525584558835,0.03184731533849702,True
2425,22159,0,22160,3107.0,38645.0,28866.0,-0.000549,0.001098,0.00122,0.42000000000000004,-1.8025000000000002,-3.5700000000000003,0.9781875,-0.025937500000000002,-0.41015625,1.16421875,0.9243125,-0.53746875,-1.20865625,1.1041875,0.020846944532532517,0.0316756272956834,True
2426,22160,0,22161,3107.0,38646.0,28866.0,0.000549,-6.1e-05,0.001952,0.31500000000000006,-1.54,-3.6050000000000004,0.97709375,-0.029,-0.40884375,1.1649375,0.92509375,-0.5380625,-1.2085625,1.10428125,0.020745831094040126,0.03172409176445504,True
2427,22161,0,22162,3107.0,38648.0,28867.0,0.00061,-0.001647,0.0028669999999999998,0.2625,-1.2075,-3.6575,0.98321875,-0.02784375,-0.408375,1.1703125,0.93034375,-0.53496875,-1.20671875,1.10953125,0.020669478130066907,0.031671863280499375,True
2428,22162,0,22163,3108.0,38648.0,28866.0,-0.004148,-0.0028669999999999998,0.000244,0.5075000000000001,-1.2425000000000002,-3.6575,0.9851875,-0.02771875,-0.40768750000000004,1.16959375,0.92834375,-0.53559375,-1.20765625,1.1104687500000001,0.02069951944814867,0.031735149911051336,True
2429,22163,0,22164,3109.0,38646.0,28868.0,-0.005307,-0.001769,-0.0008539999999999999,0.525,-1.4000000000000001,-3.5175000000000005,0.9855625,-0.0280625,-0.40871875,1.16559375,0.93196875,-0.53596875,-1.207875,1.09871875,0.020700476723585656,0.03170264252738479,True
2430,22164,0,22165,3109.0,38648.0,28866.0,-0.002928,-0.000488,0.002013,0.43750000000000006,-1.5225000000000002,-3.535,0.9781875,-0.0300625,-0.411125,1.16475,0.92509375,-0.537625,-1.20959375,1.1019375,0.020685070376615506,0.03167320972794336,True
2431,22165,0,22166,3110.0,38649.0,28866.0,0.0034159999999999998,0.000549,-0.002013,0.43750000000000006,-2.0650000000000004,-3.7625,0.9781562500000001,-0.02775,-0.40175,1.164625,0.92515625,-0.535,-1.20703125,1.11028125,0.020674546566130016,0.03194669146133581,True
2432,22166,0,22167,3111.0,38652.0,28868.0,0.003843,-0.000976,-0.001403,0.31500000000000006,-2.0475000000000003,-3.7100000000000004,0.98309375,-0.029656250000000002,-0.4075625,1.1631875,0.93115625,-0.5378437500000001,-1.2098125,1.10440625,0.020710356834022958,0.031822926092766456,True
2433,22167,0,22168,3110.0,38652.0,28870.0,0.003355,-0.000976,-0.0006709999999999999,0.35000000000000003,-2.0300000000000002,-3.6225000000000005,0.978125,-0.0276875,-0.4106875,1.1678125,0.925,-0.535625,-1.2093125,1.106125,0.02070204040043814,0.03167976119935837,True
2434,22168,0,22169,3112.0,38653.0,28870.0,0.002623,-0.000244,-0.0015249999999999999,0.385,-1.9425000000000001,-3.5525,0.97809375,-0.0273125,-0.40784375,1.16809375,0.92459375,-0.53521875,-1.2075,1.107125,0.020701109502029608,0.03172294951899236,True
2435,22169,0,22170,3111.0,38656.0,28872.0,-0.000366,0.0030499999999999998,-0.000549,0.43750000000000006,-1.6975000000000002,-3.7275000000000005,0.9813437500000001,-0.02728125,-0.4045625,1.1653437500000001,0.93003125,-0.5364375,-1.20790625,1.096125,0.020751025897708254,0.03186872174280639,True
2436,22170,0,22171,3113.0,38656.0,28874.0,-0.002013,0.000244,0.0015249999999999999,0.29750000000000004,-1.3825,-3.7100000000000004,0.97796875,-0.029906250000000002,-0.407375,1.1643125,0.92421875,-0.5395625000000001,-1.21259375,1.10421875,0.02076875861173157,0.03193716433875431,True
2437,22171,0,22172,3114.0,38656.0,28872.0,-0.003111,0.0013419999999999999,0.000305,0.36750000000000005,-1.4000000000000001,-3.5875000000000004,0.98121875,-0.029562500000000002,-0.40928125,1.16509375,0.9360625,-0.53465625,-1.20784375,1.10271875,0.020586950347021876,0.031679127652479204,True
2438,22172,0,22173,3114.0,38657.0,28876.0,-0.0015249999999999999,0.002257,0.0018909999999999999,0.43750000000000006,-1.4175000000000002,-3.535,0.97484375,-0.0275,-0.40828125,1.16778125,0.9225,-0.5329375000000001,-1.20603125,1.11096875,0.020602404420587632,0.03164917126729343,True
2439,22173,0,22174,3116.0,38657.0,28874.0,-0.0013419999999999999,0.0032329999999999998,0.0017079999999999999,0.4025,-1.4175000000000002,-3.5700000000000003,0.98346875,-0.025656250000000002,-0.4118125,1.17259375,0.932625,-0.5389375,-1.21390625,1.111125,0.020917011993693693,0.03181156231990035,True
2440,22174,0,22175,3114.0,38658.0,28876.0,-0.0017079999999999999,0.001647,-6.1e-05,0.35000000000000003,-1.5750000000000002,-3.7275000000000005,0.9786875,-0.02765625,-0.40346875,1.16628125,0.921375,-0.534625,-1.20603125,1.10821875,0.020663399175654816,0.03184009779405475,True
2441,22175,0,22176,3116.0,38659.0,28877.0,0.0025009999999999998,-0.0026839999999999998,-0.0008539999999999999,0.35000000000000003,-1.9250000000000003,-3.6925000000000003,0.97465625,-0.04290625,-0.414625,1.15375,0.9366875,-0.5406875,-1.2070625,1.1025,0.020283916251327513,0.031437122036730776,True
2442,22176,0,22177,3119.0,38660.0,28878.0,0.003538,-0.0015249999999999999,-0.0026839999999999998,0.2625,-2.0650000000000004,-3.7275000000000005,0.9789375,-0.0350625,-0.419,1.16265625,0.93471875,-0.5390625,-1.20959375,1.10253125,0.020538681948424068,0.03136082865278224,True
2443,22177,0,22178,3119.0,38660.0,28880.0,0.003538,-0.000366,-0.0021349999999999997,0.28,-2.0300000000000002,-3.6750000000000003,0.9663437500000001,-0.02084375,-0.41015625,1.18453125,0.92253125,-0.5383125,-1.2105625,1.10309375,0.021088196264514927,0.031748845350039294,True
2444,22178,0,22179,3120.0,38661.0,28881.0,0.002745,-0.000793,-0.000244,0.35000000000000003,-1.8025000000000002,-3.7450000000000006,0.95903125,-0.022125,-0.41046875,1.1725625,0.9210625,-0.54028125,-1.211625,1.10321875,0.02111451962271215,0.031777255531922274,True
2445,22179,0,22180,3121.0,38663.0,28882.0,-0.000183,-0.001769,0.000183,0.43750000000000006,-1.4525000000000001,-3.7450000000000006,0.9673437500000001,-0.02828125,-0.41890625000000004,1.1673437500000001,0.91728125,-0.5398125,-1.214,1.10178125,0.020844953481205287,0.031533820496549535,True
2446,22180,0,22181,3121.0,38665.0,28883.0,-0.002013,-0.000915,0.003477,0.3325,-1.05,-3.7800000000000002,0.96509375,-0.02903125,-0.4128125,1.1553125,0.9225625000000001,-0.5373125,-1.20934375,1.102875,0.02071462593957672,0.03159666740630644,True
2447,22181,0,22182,3120.0,38663.0,28881.0,-0.003172,-0.000976,0.000976,0.28,-1.1375000000000002,-3.7800000000000002,0.97003125,-0.03553125,-0.41290625000000003,1.1535625,0.93359375,-0.5396562500000001,-1.20690625,1.10003125,0.02054327880000357,0.03149930388621174,True
2448,22182,0,22183,3123.0,38664.0,28883.0,-0.003538,0.000122,0.0006709999999999999,0.385,-1.3125000000000002,-3.6575,0.965375,-0.03353125,-0.4210625,1.147125,0.9285625000000001,-0.53928125,-1.20796875,1.1018125,0.02060981309303833,0.031216567181756763,True
2449,22183,0,22184,3125.0,38664.0,28883.0,-0.002257,0.00042699999999999997,0.0,0.385,-1.5050000000000001,-3.7100000000000004,0.96628125,-0.03303125,-0.41571875,1.1648125,0.9203125,-0.5395,-1.2086875,1.10246875,0.02063891888587787,0.03145616962406313,True
2450,22184,0,22185,3125.0,38666.0,28885.0,0.003294,-0.000976,-0.002257,0.4025,-1.9250000000000003,-3.6575,0.9566250000000001,-0.02284375,-0.40721875,1.1792500000000001,0.9236562500000001,-0.53453125,-1.2073125,1.1108125,0.020855809095598674,0.03174054155912099,True
2451,22185,0,22186,3127.0,38667.0,28888.0,0.00244,-0.002074,-0.003172,0.4025,-2.1,-3.5700000000000003,0.9706250000000001,-0.021500000000000002,-0.4133125,1.15446875,0.9215,-0.5350625,-1.2106875,1.10384375,0.02093177875540362,0.03162845122728208,True
2452,22186,0,22187,3125.0,38667.0,28889.0,0.0025009999999999998,-0.00061,-0.002379,0.4025,-1.9600000000000002,-3.5875000000000004,0.9921562500000001,-0.026875,-0.4055,1.17640625,0.9332812500000001,-0.535625,-1.206375,1.113125,0.020735155513666354,0.031772716227541645,True
2453,22187,0,22188,3126.0,38669.0,28891.0,0.0032329999999999998,0.000488,0.000793,0.31500000000000006,-1.6275000000000002,-3.7625,0.957375,-0.02753125,-0.40803125,1.1611875,0.92334375,-0.53796875,-1.2103125000000001,1.10453125,0.020801945963844295,0.03182353451588512,True
2454,22188,0,22189,3129.0,38669.0,28892.0,0.000244,0.0015249999999999999,0.002989,0.42000000000000004,-1.4525000000000001,-3.7800000000000002,0.979875,-0.0283125,-0.40809375000000003,1.1570625,0.9303750000000001,-0.5393125,-1.20765625,1.1044375,0.020823729271144006,0.03171903377570059,True
2455,22189,0,22190,3129.0,38672.0,28893.0,0.001037,0.002074,0.00183,0.42000000000000004,-1.33,-3.8850000000000002,0.9744375000000001,-0.0273125,-0.4083125,1.17015625,0.92584375,-0.5380625,-1.2043125000000001,1.109375,0.020814601804849103,0.03158189694719902,True
2456,22190,0,22191,3131.0,38672.0,28894.0,-0.002989,0.00183,-0.001464,0.21000000000000002,-1.3475000000000001,-3.9375000000000004,0.9849375,-0.028375,-0.4079375,1.16453125,0.9304687500000001,-0.535875,-1.20721875,1.1046875,0.020683998430869082,0.0317084267775476,True
2457,22191,0,22192,3132.0,38672.0,28894.0,-0.003294,0.00061,-0.000732,0.14,-1.2075,-3.9550000000000005,0.98259375,-0.02790625,-0.40790625,1.1645625,0.92896875,-0.5385,-1.206875,1.10478125,0.02080786315381951,0.031696461778780584,True
2458,22192,0,22193,3130.0,38673.0,28894.0,-0.002196,-0.001952,0.0017079999999999999,0.17500000000000002,-1.1375000000000002,-3.8850000000000002,0.98328125,-0.03015625,-0.41109375000000004,1.164375,0.927625,-0.53678125,-1.20425,1.0943125,0.02064757373178277,0.031469147068450755,True
2459,22193,0,22194,3132.0,38673.0,28895.0,-0.001769,-0.002806,0.000793,0.22750000000000004,-1.33,-3.7100000000000004,0.9701875,-0.0274375,-0.40753125,1.17015625,0.92509375,-0.53478125,-1.2071875,1.1013125,0.020678552004615894,0.0317233427965734,True
2460,22194,0,22195,3135.0,38675.0,28897.0,0.000793,-6.1e-05,-0.000488,0.21000000000000002,-1.5925000000000002,-3.7625,0.98265625,-0.0285625,-0.4088125,1.1653437500000001,0.9336875,-0.5315,-1.20903125,1.1039375,0.020501701893483885,0.031743336031605736,True
2461,22195,0,22196,3135.0,38676.0,28897.0,0.001037,0.001037,-0.001037,0.28,-1.5925000000000002,-3.8150000000000004,0.97771875,-0.030625,-0.41096875,1.1671875,0.92403125,-0.5348437500000001,-1.20365625,1.11003125,0.02055112945237322,0.031451289929412526,True
2462,22196,0,22197,3135.0,38677.0,28899.0,0.001647,0.0006709999999999999,0.001037,0.28,-1.5925000000000002,-3.6750000000000003,0.977375,-0.02315625,-0.406375,1.1675,0.92425,-0.5355625,-1.2065937500000001,1.1048125,0.020884226721926594,0.03174640564038924,True
2463,22197,0,22198,3137.0,38677.0,28899.0,0.0018909999999999999,-0.000183,0.002196,0.2625,-1.5925000000000002,-3.6750000000000003,0.9728125,-0.02846875,-0.40765625,1.1650625000000001,0.9332812500000001,-0.54096875,-1.2030625,1.10515625,0.02088344617610093,0.03155990467428313,True
2464,22198,0,22199,3139.0,38680.0,28901.0,0.001037,0.000244,6.1e-05,0.24500000000000002,-1.8200000000000003,-3.5875000000000004,0.9805,-0.031,-0.41109375000000004,1.16675,0.924875,-0.53890625,-1.20959375,1.112875,0.02069799871377723,0.03167444933538447,True
2465,22199,0,22200,3138.0,38682.0,28903.0,-0.001098,0.005612,-0.005612,0.5950000000000001,-1.8550000000000002,-3.7100000000000004,0.97775,-0.02784375,-0.4074375,1.16446875,0.92453125,-0.53590625,-1.207625,1.10421875,0.020706897671652135,0.03174386718304481,True
2466,22200,0,22201,3139.0,38681.0,28902.0,-0.002196,0.004331,-0.0034159999999999998,0.5950000000000001,-1.8900000000000001,-3.6400000000000006,0.97140625,-0.03209375,-0.408625,1.1588125,0.931625,-0.53759375,-1.20315625,1.09971875,0.020601042023527673,0.03152506940474965,True
2467,22201,0,22202,3140.0,38680.0,28904.0,0.000183,0.00042699999999999997,-0.000122,0.385,-1.7325000000000002,-3.5525,0.9776875,-0.031125,-0.40946875,1.1705625,0.92515625,-0.53753125,-1.20965625,1.108625,0.020638027715196492,0.03174130944367796,True
2468,22202,0,22203,3143.0,38683.0,28905.0,0.0018909999999999999,-0.002989,0.002257,0.2625,-1.6625,-3.4825000000000004,0.985375,-0.0280625,-0.409625,1.164875,0.9304687500000001,-0.532625,-1.2078125,1.09859375,0.020567000066238326,0.03166429058451621,True
2469,22203,0,22204,3142.0,38682.0,28907.0,0.004209,-0.006405,0.003843,0.17500000000000002,-1.4700000000000002,-3.6750000000000003,0.977,-0.025656250000000002,-0.4085625,1.16403125,0.92428125,-0.5353125,-1.2075625,1.1039375,0.02077235617031574,0.031696837010718515,True
2470,22204,0,22205,3144.0,38683.0,28906.0,-0.003538,-0.00122,0.003721,0.42000000000000004,-0.9275000000000001,-3.7450000000000006,0.977375,-0.02721875,-0.406875,1.1651562500000001,0.9246562500000001,-0.52959375,-1.2062187500000001,1.1041875,0.02048036364238605,0.0317121642848553,True
2471,22205,0,22206,3142.0,38680.0,28901.0,-0.006405,0.000732,0.000549,0.49000000000000005,-1.05,-3.6925000000000003,0.9799375,-0.026875,-0.4094375,1.1711875,0.9275,-0.5368437500000001,-1.20971875,1.10890625,0.020783795796881988,0.03174494955442531,True
2472,22206,0,22207,3142.0,38677.0,28900.0,-0.005246,0.002257,0.0,0.31500000000000006,-1.2425000000000002,-3.7625,0.97215625,-0.02534375,-0.409125,1.16465625,0.93096875,-0.53628125,-1.207375,1.1044375,0.02082375461847952,0.03166731958405031,True
2473,22207,0,22208,3139.0,38677.0,28896.0,-0.00122,0.001464,0.0011589999999999999,0.1925,-1.3825,-3.7625,0.977625,-0.02709375,-0.405,1.1691875,0.92528125,-0.53515625,-1.20634375,1.10734375,0.02070753064798599,0.03179135212737865,True
2474,22208,0,22209,3136.0,38674.0,28894.0,0.0015249999999999999,0.000183,-0.003965,0.29750000000000004,-1.7850000000000001,-3.9725000000000006,0.9854375,-0.0278125,-0.40803125,1.1656250000000001,0.92971875,-0.53596875,-1.20771875,1.104625,0.020710665846442277,0.031723913930133,True
2475,22209,0,22210,3134.0,38673.0,28889.0,0.004392,-0.000183,-0.0028669999999999998,0.15750000000000003,-1.7500000000000002,-3.9550000000000005,0.97678125,-0.027125,-0.40915625,1.16728125,0.925,-0.53490625,-1.20971875,1.11684375,0.020696278389080867,0.031756105966077065,True
2476,22210,0,22211,3130.0,38669.0,28885.0,0.0023179999999999997,0.000793,-0.0025009999999999998,0.35000000000000003,-1.8025000000000002,-4.0425,0.978125,-0.0273125,-0.40828125,1.16503125,0.92515625,-0.53609375,-1.20790625,1.1035625,0.020736033012589875,0.03172119858229003,True
2477,22211,0,22212,3125.0,38668.0,28881.0,0.0035989999999999998,-0.0013419999999999999,0.001952,0.385,-1.5750000000000002,-4.0075,0.98409375,-0.0306875,-0.40890625,1.1645625,0.92390625,-0.5426875,-1.2139375000000001,1.1093125,0.020861611019575586,0.03192802591820496,True
2478,22212,0,22213,3122.0,38665.0,28877.0,0.0008539999999999999,0.000732,0.0032329999999999998,0.36750000000000005,-1.2600000000000002,-3.99,0.977125,-0.027375,-0.4099375,1.16928125,0.91896875,-0.53346875,-1.20303125,1.11534375,0.020628707467222708,0.03146818897032475,True
2479,22213,0,22214,3118.0,38663.0,28874.0,-0.001403,0.000183,0.003172,0.28,-1.0150000000000001,-4.025,0.98409375,-0.02815625,-0.40775,1.16490625,0.938125,-0.5440625,-1.2059375,1.0992187500000001,0.021019594861282645,0.031666646003545795,True
2480,22214,0,22215,3115.0,38657.0,28869.0,-0.003538,-0.000549,0.000976,0.42000000000000004,-1.05,-3.8850000000000002,0.98440625,-0.02875,-0.40990625,1.169125,0.9195,-0.532375,-1.210625,1.11925,0.020528994848643883,0.03176116220839428,True
2481,22215,0,22216,3112.0,38657.0,28866.0,-0.001647,0.000122,0.000244,0.1925,-1.3125000000000002,-3.8675,0.9773125,-0.0275,-0.4079375,1.15921875,0.9313750000000001,-0.5328437500000001,-1.20484375,1.09059375,0.020598661742995045,0.03161718667666805,True
2482,22216,0,22217,3109.0,38653.0,28861.0,0.00122,-0.000549,-0.000488,0.22750000000000004,-1.4000000000000001,-3.9200000000000004,0.98046875,-0.028875,-0.4116875,1.165375,0.9187500000000001,-0.53221875,-1.2104062500000001,1.118125,0.020517661085995332,0.031682105479756015,True
2483,22217,0,22218,3106.0,38653.0,28862.0,6.1e-05,0.000915,-0.002806,0.2625,-1.54,-3.9200000000000004,0.977625,-0.027875,-0.40815625,1.16465625,0.92371875,-0.53396875,-1.2046875000000001,1.09925,0.02062828705608423,0.031602504494451684,True
2484,22218,0,22219,3104.0,38654.0,28856.0,0.000976,0.000793,-0.002257,0.1925,-1.5750000000000002,-3.9725000000000006,0.9831875,-0.030375,-0.411375,1.16471875,0.9189375000000001,-0.5377500000000001,-1.21328125,1.11396875,0.020677323715499588,0.03180491432466768,True
2485,22219,0,22220,3104.0,38652.0,28856.0,-0.00183,0.000183,-0.0032329999999999998,0.42000000000000004,-1.5225000000000002,-3.9550000000000005,0.9771875,-0.0281875,-0.40740625,1.1668125,0.91121875,-0.53425,-1.20478125,1.1005625,0.020626776852767047,0.031635862739336405,True
2486,22220,0,22221,3099.0,38653.0,28856.0,-0.0008539999999999999,0.0,0.000549,0.3325,-1.2425000000000002,-3.99,0.9828125,-0.02828125,-0.40803125,1.15546875,0.93353125,-0.541625,-1.20925,1.09909375,0.020917268110811734,0.031782728561936584,True
2487,22221,0,22222,3100.0,38649.0,28853.0,0.00061,-0.001769,0.003904,0.31500000000000006,-1.3125000000000002,-3.99,0.97828125,-0.021875000000000002,-0.40996875,1.17059375,0.91790625,-0.53271875,-1.20740625,1.10903125,0.02082295709683624,0.03163504773522663,True
2488,22222,0,22223,3095.0,38650.0,28853.0,0.00122,-0.002989,0.00366,0.385,-1.4175000000000002,-3.8850000000000002,0.98365625,-0.02925,-0.40759375000000003,1.1652500000000001,0.93253125,-0.54153125,-1.2045000000000001,1.10171875,0.020874054058872143,0.03161761788569502,True
2489,22223,0,22224,3097.0,38650.0,28852.0,0.001464,-0.0008539999999999999,0.0011589999999999999,0.35000000000000003,-1.5050000000000001,-3.8150000000000004,0.9783437500000001,-0.025906250000000002,-0.40828125,1.1711875,0.92109375,-0.5329375000000001,-1.20796875,1.10940625,0.02066736810461446,0.03172359930825446,True
2490,22224,0,22225,3095.0,38648.0,28851.0,-0.0018909999999999999,0.000366,-0.001586,0.36750000000000005,-1.6450000000000002,-3.8325000000000005,0.9835625,-0.028875,-0.40890625,1.16459375,0.93021875,-0.53696875,-1.207375,1.1046562500000001,0.02070727460986802,0.03167599759990876,True
2491,22225,0,22226,3094.0,38647.0,28850.0,-0.001098,-0.000244,-0.000793,0.35000000000000003,-1.8025000000000002,-3.6925000000000003,0.97478125,-0.02759375,-0.40775,1.16490625,0.9255,-0.53540625,-1.2070625,1.105125,0.020697130295121973,0.03170986305921207,True
2492,22226,0,22227,3095.0,38646.0,28850.0,0.001769,0.000366,-0.000549,0.385,-1.9075000000000002,-3.8325000000000005,0.97684375,-0.02675,-0.40746875,1.15746875,0.9248125,-0.53503125,-1.20671875,1.10615625,0.020716551970970075,0.031707815996479115,True
2493,22227,0,22228,3096.0,38651.0,28852.0,0.0046359999999999995,0.001403,-0.001647,0.35000000000000003,-1.8725000000000003,-3.9025000000000003,0.97809375,-0.029593750000000002,-0.409875,1.17046875,0.92553125,-0.5380625,-1.2080312500000001,1.1099375,0.020721633992088824,0.0316627761241767,True
2494,22228,0,22229,3097.0,38651.0,28853.0,0.002623,-0.000366,-0.0006709999999999999,0.35000000000000003,-1.715,-3.8850000000000002,0.98459375,-0.03003125,-0.41115625,1.1700625,0.9243125,-0.53815625,-1.2014375,1.10596875,0.02070754602844295,0.03135857825570466,True
2495,22229,0,22230,3097.0,38652.0,28854.0,-0.004026,-6.1e-05,0.0008539999999999999,0.3325,-1.2075,-3.9025000000000003,0.97128125,-0.02484375,-0.40809375000000003,1.1649375,0.9270625,-0.52859375,-1.20740625,1.1051875,0.020537255626405404,0.031709430636085376,True
2496,22230,0,22231,3098.0,38650.0,28856.0,-0.002928,0.000915,0.0015249999999999999,0.35000000000000003,-1.1375000000000002,-3.9550000000000005,0.97821875,-0.0273125,-0.405,1.1652500000000001,0.9214687500000001,-0.53453125,-1.2069375,1.0989375000000001,0.020673667853344457,0.0318141583046334,True
2497,22231,0,22232,3097.0,38652.0,28855.0,-0.001952,0.001098,0.00244,0.385,-1.1375000000000002,-3.8850000000000002,0.97775,-0.02634375,-0.41125,1.1691875,0.9253125,-0.53628125,-1.20834375,1.11096875,0.020782998646137543,0.03162023486767154,True
2498,22232,0,22233,3099.0,38651.0,28854.0,-0.0015249999999999999,0.000488,0.000122,0.28,-1.33,-3.8675,0.9846875,-0.030125,-0.407625,1.1685,0.9323125,-0.53653125,-1.2073125,1.11228125,0.02063886882951314,0.03172442520399586,True
2499,22233,0,22234,3100.0,38652.0,28853.0,-0.000244,-0.0018909999999999999,0.000244,0.35000000000000003,-1.5750000000000002,-3.7975000000000003,0.9833125,-0.0275625,-0.40715625,1.1698125,0.92290625,-0.53653125,-1.2090625,1.10903125,0.020743304944540603,0.031810236893974136,True
2500,22234,0,22235,3100.0,38652.0,28856.0,0.0028669999999999998,0.0006709999999999999,-0.0021349999999999997,0.28,-1.7675,-3.7625,0.9818125,-0.03125,-0.4118125,1.17428125,0.93284375,-0.53815625,-1.21015625,1.1115,0.02065787848261827,0.0316675447023459,True
2501,22235,0,22236,3102.0,38654.0,28858.0,0.003294,0.0025009999999999998,-0.000549,0.22750000000000004,-1.7500000000000002,-3.8850000000000002,0.98653125,-0.029468750000000002,-0.40653125,1.1713437500000001,0.93384375,-0.5385625,-1.21128125,1.1081875,0.020746681880815146,0.031920234121381674,True
2502,22236,0,22237,3101.0,38653.0,28857.0,0.0018909999999999999,0.001647,-0.002013,0.31500000000000006,-1.6625,-3.8325000000000005,0.9765312500000001,-0.02684375,-0.40565625,1.17328125,0.92453125,-0.5351875,-1.2066875000000001,1.112625,0.020718967401410732,0.03177852107699594,True
2503,22237,0,22238,3101.0,38654.0,28858.0,0.00122,0.0008539999999999999,0.002989,0.36750000000000005,-1.435,-3.6925000000000003,0.98709375,-0.03384375,-0.40953125,1.17465625,0.93171875,-0.53609375,-1.20934375,1.1109375000000001,0.02046984353407926,0.031726827478402726,True
2504,22238,0,22239,3103.0,38655.0,28859.0,0.0017079999999999999,-0.0021349999999999997,0.002257,0.29750000000000004,-1.4875,-3.7450000000000006,0.98821875,-0.0314375,-0.41053125,1.17540625,0.93371875,-0.53953125,-1.210375,1.1115,0.020705112286934984,0.031726769236871726,True
2505,22239,0,22240,3101.0,38654.0,28856.0,-0.003111,0.001769,-0.000305,0.36750000000000005,-1.33,-3.7800000000000002,0.9799375,-0.0305625,-0.41278125,1.16665625,0.9316875,-0.539,-1.2085625,1.10409375,0.02071956884958637,0.031567894837319664,True
2506,22240,0,22241,3105.0,38657.0,28858.0,-0.004148,0.003172,-0.000122,0.6125,-1.1375000000000002,-3.8325000000000005,0.97565625,-0.02684375,-0.40571875,1.1632500000000001,0.92428125,-0.5356562500000001,-1.2065000000000001,1.1048125,0.02073767641735689,0.031768839386666144,True
2507,22241,0,22242,3102.0,38656.0,28857.0,-0.003294,0.002074,-0.000915,0.5425000000000001,-1.2075,-3.7100000000000004,0.9786875,-0.029875000000000002,-0.40896875,1.17659375,0.9196875,-0.53134375,-1.20903125,1.1089375000000001,0.020441960094420022,0.03173713785610068,True
2508,22242,0,22243,3104.0,38655.0,28855.0,-0.0025009999999999998,0.000549,0.0006709999999999999,0.43750000000000006,-1.2600000000000002,-3.6925000000000003,0.9881875,-0.03003125,-0.40168750000000003,1.1615,0.9294687500000001,-0.53540625,-1.2064375,1.10396875,0.020597784069705388,0.031926368016107,True
2509,22243,0,22244,3103.0,38654.0,28857.0,6.1e-05,-0.002379,0.000976,0.3325,-1.435,-3.7100000000000004,0.9743437500000001,-0.02615625,-0.40618750000000003,1.15859375,0.925125,-0.53075,-1.2062187500000001,1.1048125,0.0205698460096002,0.03173943930007352,True
2510,22244,0,22245,3103.0,38656.0,28859.0,0.000976,0.000549,-6.1e-05,0.36750000000000005,-1.7850000000000001,-3.7100000000000004,0.97565625,-0.025718750000000002,-0.4096875,1.17059375,0.925625,-0.5358125,-1.20003125,1.1088125,0.020789763941992955,0.03136280832985079,True
2511,22245,0,22246,3105.0,38658.0,28859.0,0.0018909999999999999,0.00042699999999999997,0.000305,0.3325,-1.8200000000000003,-3.6400000000000006,0.9869375,-0.02775,-0.40709375000000003,1.16396875,0.9283750000000001,-0.53625,-1.20646875,1.105625,0.020724438331040807,0.03171308952191092,True
2512,22246,0,22247,3104.0,38658.0,28860.0,0.0021349999999999997,-0.000366,0.0,0.4025,-1.9075000000000002,-3.7100000000000004,0.9769375,-0.02665625,-0.4069375,1.1701875,0.9253750000000001,-0.52828125,-1.20684375,1.10909375,0.020450882590886794,0.031733693354607316,True
2513,22247,0,22248,3106.0,38659.0,28860.0,0.002013,-0.002013,6.1e-05,0.43750000000000006,-1.9775000000000003,-3.6750000000000003,0.98371875,-0.029468750000000002,-0.411125,1.16509375,0.9303750000000001,-0.5365625,-1.208,1.0948437500000001,0.020666861953462307,0.03161198825769597,True
2514,22248,0,22249,3106.0,38659.0,28863.0,0.0015249999999999999,-0.00183,-0.000915,0.4025,-1.9075000000000002,-3.6925000000000003,0.977625,-0.0269375,-0.407125,1.16540625,0.92584375,-0.53503125,-1.20509375,1.104875,0.0207089098368277,0.03165902725515552,True
2515,22249,0,22250,3106.0,38660.0,28861.0,0.001403,-0.001098,-0.000122,0.28,-1.6450000000000002,-3.6575,0.9845,-0.02859375,-0.41075,1.16565625,0.92225,-0.54053125,-1.2161875,1.1133125,0.02086089721468438,0.03194128771448896,True
2516,22250,0,22251,3107.0,38660.0,28864.0,0.000549,0.0013419999999999999,-0.000305,0.35000000000000003,-1.5050000000000001,-3.7975000000000003,0.97728125,-0.02753125,-0.40675,1.1613125,0.9236562500000001,-0.53659375,-1.20475,1.09071875,0.020747072930610018,0.03166069887620389,True
2517,22251,0,22252,3108.0,38660.0,28862.0,-0.0021349999999999997,0.00244,-0.001464,0.42000000000000004,-1.3475000000000001,-3.8675,0.977625,-0.029812500000000002,-0.40959375000000003,1.16709375,0.91234375,-0.52975,-1.2075,1.125,0.020380864052833805,0.03165352573638798,True
2518,22252,0,22253,3107.0,38661.0,28863.0,-0.002745,0.001403,0.000976,0.385,-1.2425000000000002,-3.8325000000000005,0.978875,-0.0266875,-0.40700000000000003,1.16590625,0.94871875,-0.5396562500000001,-1.2070625,1.09425,0.020903664858793615,0.03173961662530094,True
2519,22253,0,22254,3109.0,38663.0,28864.0,-0.0018909999999999999,-0.001281,0.00183,0.42000000000000004,-1.2075,-3.7975000000000003,0.969375,-0.0313125,-0.4093125,1.17203125,0.9125625,-0.529,-1.2031875,1.11425,0.02028975906070366,0.03149899194298341,True
2520,22254,0,22255,3111.0,38661.0,28867.0,-0.000305,-0.0013419999999999999,0.001586,0.3325,-1.435,-3.8325000000000005,0.985,-0.03059375,-0.40750000000000003,1.16540625,0.93475,-0.54653125,-1.216,1.10421875,0.02101875392271566,0.03206297588832487,True
2521,22255,0,22256,3110.0,38666.0,28868.0,-0.000305,-0.0008539999999999999,-0.001281,0.29750000000000004,-1.5225000000000002,-3.8325000000000005,0.97790625,-0.0280625,-0.4073125,1.16590625,0.92190625,-0.5346875,-1.2045625,1.09840625,0.020649335761867765,0.03163117788694011,True
2522,22256,0,22257,3111.0,38664.0,28865.0,-6.1e-05,-0.00042699999999999997,0.000122,0.24500000000000002,-1.5225000000000002,-3.8500000000000005,0.978125,-0.02696875,-0.4058125,1.1701875,0.911375,-0.52940625,-1.19990625,1.0865,0.020483068154167,0.03151177397733374,True
2523,22257,0,22258,3111.0,38662.0,28869.0,0.000549,0.000183,0.000305,0.29750000000000004,-1.6275000000000002,-3.8850000000000002,0.9825625,-0.0306875,-0.40765625,1.16490625,0.9446875,-0.542,-1.21096875,1.10240625,0.02083418221823812,0.031863610953069776,True
2524,22258,0,22259,3114.0,38664.0,28868.0,0.0011589999999999999,0.0008539999999999999,-0.000366,0.31500000000000006,-1.7850000000000001,-3.7625,0.97759375,-0.02646875,-0.40709375000000003,1.16878125,0.91278125,-0.53090625,-1.2000625,1.0995,0.02056334547363084,0.03146693584589324,True
2525,22259,0,22260,3114.0,38665.0,28871.0,0.0017079999999999999,0.001037,-0.0015249999999999999,0.29750000000000004,-2.0125,-3.8150000000000004,0.98046875,-0.029468750000000002,-0.40840625,1.1713437500000001,0.93453125,-0.5403125,-1.21328125,1.12371875,0.020816513644640832,0.03192265980850866,True
2526,22260,0,22261,3116.0,38666.0,28871.0,0.002257,0.0008539999999999999,-0.0017079999999999999,0.3325,-1.8725000000000003,-3.7800000000000002,0.9832500000000001,-0.0310625,-0.4090625,1.16434375,0.94446875,-0.5484687500000001,-1.2105000000000001,1.107125,0.021076925622906726,0.031789829634477705,True
2527,22261,0,22262,3115.0,38664.0,28869.0,0.000976,0.000488,-0.000793,0.385,-1.61,-3.7975000000000003,0.9780625000000001,-0.0271875,-0.40671875,1.16565625,0.92028125,-0.5348437500000001,-1.2024375,1.10034375,0.020691236315698976,0.0315730869285957,True
2528,22262,0,22263,3117.0,38667.0,28872.0,0.000366,-0.000915,0.000549,0.3325,-1.435,-3.7625,0.9785,-0.02775,-0.40715625,1.1654375000000001,0.91646875,-0.53046875,-1.2045937500000001,1.10178125,0.020493646294467975,0.03163857778901912,True
2529,22263,0,22264,3117.0,38668.0,28871.0,-0.002562,-0.0008539999999999999,-0.000366,0.29750000000000004,-1.4700000000000002,-3.7800000000000002,0.977625,-0.02725,-0.40721875,1.16609375,0.9223125,-0.53403125,-1.2023125000000001,1.1048125,0.02065625680655314,0.03154844421518859,True
2530,22264,0,22265,3118.0,38668.0,28872.0,-0.001647,-0.000732,0.001037,0.385,-1.33,-3.8325000000000005,0.9781875,-0.0265625,-0.40503125,1.16603125,0.9253750000000001,-0.534875,-1.2058125,1.10584375,0.020717957601169762,0.031769705896209456,True
2531,22265,0,22266,3119.0,38665.0,28873.0,-0.0028669999999999998,-0.001769,0.001586,0.385,-1.4525000000000001,-3.8325000000000005,0.97828125,-0.03028125,-0.40965625,1.1648125,0.9283750000000001,-0.5396875,-1.21028125,1.11296875,0.0207584652412546,0.03175787656077815,True
2532,22266,0,22267,3120.0,38667.0,28873.0,-0.001586,-0.001037,0.002623,0.31500000000000006,-1.4700000000000002,-3.7450000000000006,0.9755625,-0.03009375,-0.40953125,1.16709375,0.92603125,-0.5398125,-1.2080625,1.1005625,0.02077109391116986,0.031677613065264336,True
2533,22267,0,22268,3120.0,38668.0,28875.0,0.00061,0.00042699999999999997,0.0017079999999999999,0.31500000000000006,-1.6450000000000002,-3.7275000000000005,0.9785312500000001,-0.02740625,-0.406125,1.1656875,0.9254375,-0.531125,-1.20053125,1.10459375,0.02053386259293041,0.03152339298402687,True
2534,22268,0,22269,3122.0,38670.0,28876.0,0.000488,0.003721,-0.00061,0.4025,-1.6975000000000002,-3.9200000000000004,0.978375,-0.02834375,-0.40946875,1.168875,0.9292812500000001,-0.5380625,-1.21028125,1.10771875,0.020772575259354727,0.03176531400259566,True
2535,22269,0,22270,3121.0,38670.0,28876.0,-0.001037,0.002257,-0.0034159999999999998,0.36750000000000005,-1.8725000000000003,-3.7975000000000003,0.97840625,-0.0275625,-0.407625,1.16003125,0.9244375,-0.535375,-1.20578125,1.10440625,0.020697156656460318,0.031665602509344956,True
2536,22270,0,22271,3124.0,38671.0,28876.0,-6.1e-05,-0.002013,-0.0015249999999999999,0.24500000000000002,-1.8550000000000002,-3.8150000000000004,0.9783125,-0.02640625,-0.40809375000000003,1.16775,0.9248125,-0.535625,-1.2066875000000001,1.1046875,0.020754260386682634,0.031681820548614334,True
2537,22271,0,22272,3123.0,38672.0,28877.0,0.00244,-0.0040869999999999995,0.000183,0.14,-1.995,-3.6925000000000003,0.9785312500000001,-0.027875,-0.40734375,1.1658125,0.92478125,-0.53478125,-1.20603125,1.10540625,0.020660720176586045,0.03168636474653264,True
2538,22272,0,22273,3124.0,38672.0,28877.0,0.0017079999999999999,-0.0023179999999999997,-0.002257,0.12250000000000001,-2.0475000000000003,-3.7800000000000002,0.9738125,-0.02684375,-0.40403125,1.1620625,0.92484375,-0.53428125,-1.2074375,1.11121875,0.020682794610092765,0.03187179379101902,True
2539,22273,0,22274,3127.0,38672.0,28879.0,0.0008539999999999999,0.000915,0.0006709999999999999,0.3325,-1.7500000000000002,-3.9200000000000004,0.9907812500000001,-0.03465625,-0.41646875,1.163375,0.93225,-0.5365625,-1.20696875,1.09778125,0.020455442770355464,0.03136037529304272,True
2540,22274,0,22275,3127.0,38672.0,28879.0,0.000366,-0.000488,0.0011589999999999999,0.42000000000000004,-1.7675,-3.7625,0.97278125,-0.02421875,-0.41525,1.1600625,0.91734375,-0.5386875,-1.2075,1.1064375,0.020965618067388486,0.03142913815332738,True
2541,22275,0,22276,3129.0,38672.0,28881.0,0.000549,-0.001647,0.002074,0.35000000000000003,-1.6450000000000002,-3.6400000000000006,0.9679375,-0.0248125,-0.410625,1.178,0.92840625,-0.5369375,-1.20865625,1.10734375,0.020871594101749654,0.031657032492558974,True
2542,22276,0,22277,3128.0,38673.0,28881.0,0.0011589999999999999,-0.00061,0.000915,0.43750000000000006,-1.8200000000000003,-3.6225000000000005,0.9933125,-0.02609375,-0.39903125,1.1571875,0.92459375,-0.535,-1.20565625,1.11103125,0.020742052170368862,0.03200174563992954,True
2543,22277,0,22278,3128.0,38675.0,28882.0,-0.0006709999999999999,0.0026839999999999998,-0.002379,0.36750000000000005,-1.8200000000000003,-3.7625,0.9595312500000001,-0.028375,-0.41071875,1.17784375,0.931875,-0.53703125,-1.20865625,1.106625,0.02073014639861943,0.031653313531934096,True
2544,22278,0,22279,3130.0,38674.0,28882.0,-0.000244,0.003477,0.000366,0.5075000000000001,-1.6800000000000002,-3.6925000000000003,0.99521875,-0.03259375,-0.41140625000000003,1.17353125,0.92896875,-0.5369375,-1.19815625,1.1056875,0.0205544701737941,0.031222522481183523,True
2545,22279,0,22280,3131.0,38676.0,28886.0,-0.000793,0.001769,-0.0013419999999999999,0.45500000000000007,-1.6450000000000002,-3.6400000000000006,0.981,-0.02796875,-0.40565625,1.1598125000000001,0.92509375,-0.5349375000000001,-1.2065937500000001,1.10315625,0.020663135987201927,0.031774920004810255,True
2546,22280,0,22281,3133.0,38677.0,28884.0,-0.001098,-6.1e-05,-0.001403,0.42000000000000004,-1.7325000000000002,-3.6750000000000003,0.9717187500000001,-0.0245,-0.40271875,1.15703125,0.927125,-0.5361875,-1.20715625,1.11103125,0.020854401279742425,0.0319130604032337,True
2547,22281,0,22282,3133.0,38676.0,28885.0,-0.001586,-0.001769,0.0018909999999999999,0.36750000000000005,-1.4175000000000002,-3.7100000000000004,0.97990625,-0.03446875,-0.4149375,1.180125,0.93303125,-0.538625,-1.20703125,1.10571875,0.020545415645742172,0.0314235239423524,True
2548,22282,0,22283,3132.0,38676.0,28882.0,0.000183,-0.002745,0.004941,0.385,-1.33,-3.7100000000000004,0.98109375,-0.02925,-0.40525,1.16034375,0.9235,-0.52896875,-1.20525,1.10859375,0.020372595158530665,0.03173941936699695,True
2549,22283,0,22284,3133.0,38676.0,28882.0,-0.000122,-0.00183,0.000793,0.29750000000000004,-1.54,-3.7625,0.9705625,-0.030125,-0.40884375,1.17384375,0.93275,-0.53925,-1.2100625,1.1109375000000001,0.020747374104750554,0.0317817042302057,True
2550,22284,0,22285,3133.0,38673.0,28880.0,-0.001952,0.000305,-0.00183,0.3325,-1.6975000000000002,-3.7625,0.9875625,-0.02875,-0.40403125,1.1605625,0.91625,-0.535875,-1.20496875,1.10771875,0.020668714688186172,0.031776968578864036,True
2551,22285,0,22286,3132.0,38671.0,28876.0,-0.001037,0.0008539999999999999,-0.001403,0.29750000000000004,-1.7675,-3.6925000000000003,0.979,-0.02859375,-0.4070625,1.16090625,0.93315625,-0.53690625,-1.20984375,1.09584375,0.020716242496952933,0.03184395976274149,True
2552,22286,0,22287,3130.0,38671.0,28872.0,0.000183,0.001037,-0.001098,0.29750000000000004,-1.7500000000000002,-3.6925000000000003,0.9814375000000001,-0.0223125,-0.40484375,1.1656250000000001,0.92415625,-0.53553125,-1.20590625,1.10528125,0.020917368561155572,0.03178074583214004,True
2553,22287,0,22288,3127.0,38668.0,28873.0,0.003477,-0.0008539999999999999,0.0,0.22750000000000004,-1.9250000000000003,-3.7450000000000006,0.9782500000000001,-0.027,-0.40934375,1.172375,0.92615625,-0.5378125,-1.20759375,1.111375,0.020817360960762088,0.03166704477693354,True
2554,22288,0,22289,3125.0,38668.0,28869.0,0.002013,-0.000976,-0.001952,0.22750000000000004,-1.8025000000000002,-3.9025000000000003,0.9845625,-0.0306875,-0.41096875,1.17184375,0.9322812500000001,-0.53959375,-1.20575,1.11209375,0.020738169310565706,0.03153174374894618,True
2555,22289,0,22290,3120.0,38662.0,28862.0,-0.00122,-0.0006709999999999999,0.000793,0.3325,-1.435,-3.9550000000000005,0.98603125,-0.029593750000000002,-0.40171875,1.16490625,0.9309375,-0.536875,-1.20653125,1.10621875,0.020674240301586898,0.031928728789289484,True
2556,22290,0,22291,3115.0,38661.0,28860.0,-0.002257,0.001647,0.0021349999999999997,0.36750000000000005,-1.1375000000000002,-4.0600000000000005,0.97809375,-0.027375,-0.4063125,1.16559375,0.92515625,-0.535375,-1.205625,1.11121875,0.020704798683533473,0.03171167150189689,True
2557,22291,0,22292,3114.0,38657.0,28856.0,-0.003111,0.00244,0.002806,0.4025,-1.0675000000000001,-4.0425,0.9831875,-0.0304375,-0.4104375,1.16821875,0.9306562500000001,-0.5385625,-1.2118125,1.10525,0.020707203203121617,0.03178569569323903,True
2558,22292,0,22293,3110.0,38654.0,28852.0,-0.003294,0.0017079999999999999,0.002745,0.3325,-1.0150000000000001,-3.99,0.9776875,-0.02690625,-0.40471875,1.17059375,0.92496875,-0.53378125,-1.2049375,1.1114375,0.02066028855621267,0.03174849173896979,True
2559,22293,0,22294,3106.0,38652.0,28848.0,-0.0011589999999999999,0.000183,-0.001098,0.14,-1.5575,-4.025,0.9810625000000001,-0.0275625,-0.406625,1.16678125,0.92509375,-0.53096875,-1.2055,1.1124687500000001,0.02052125438380822,0.03169447144472436,True
2560,22294,0,22295,3103.0,38647.0,28845.0,0.000732,0.000732,-0.000793,0.15750000000000003,-1.8025000000000002,-3.8500000000000005,0.982625,-0.0313125,-0.4105625,1.16559375,0.9335,-0.53696875,-1.20215625,1.105625,0.020607934710761697,0.03140976280551391,True
2561,22295,0,22296,3101.0,38648.0,28845.0,0.002745,0.0013419999999999999,-0.0013419999999999999,0.21000000000000002,-1.9600000000000002,-3.8500000000000005,0.97765625,-0.0269375,-0.40565625,1.16575,0.92528125,-0.534,-1.2065937500000001,1.10315625,0.02066774680035869,0.031774920004810255,True
2562,22296,0,22297,3099.0,38648.0,28841.0,0.002379,0.000244,-0.00244,0.22750000000000004,-2.0475000000000003,-3.9550000000000005,0.98321875,-0.027875,-0.40618750000000003,1.1655625,0.9325,-0.535875,-1.20546875,1.0952187500000001,0.020704376754446294,0.031710628273874095,True
2563,22297,0,22298,3098.0,38645.0,28841.0,0.001586,-0.000976,-0.0015249999999999999,0.31500000000000006,-2.0125,-3.8150000000000004,0.9782500000000001,-0.029843750000000002,-0.40290625,1.16759375,0.93121875,-0.5391875,-1.20971875,1.1050625,0.02075634126028011,0.032004026225004985,True
2564,22298,0,22299,3094.0,38644.0,28838.0,0.000366,-0.002196,-0.000976,0.36750000000000005,-1.8550000000000002,-3.9200000000000004,0.97740625,-0.0276875,-0.4028125,1.17053125,0.92478125,-0.535125,-1.20534375,1.11034375,0.020682083339701753,0.031839726446896796,True
2565,22299,0,22300,3094.0,38643.0,28837.0,0.0034159999999999998,-0.0021349999999999997,0.001098,0.29750000000000004,-1.6450000000000002,-3.9025000000000003,0.986375,-0.029312500000000002,-0.40903125,1.1652500000000001,0.93325,-0.5374375,-1.20665625,1.10540625,0.02070815259335862,0.03164342751728524,True
2566,22300,0,22301,3094.0,38644.0,28837.0,0.002562,-0.00244,0.0017079999999999999,0.35000000000000003,-1.435,-3.9550000000000005,0.9775312500000001,-0.02375,-0.40821875,1.1713125,0.9246562500000001,-0.53521875,-1.20740625,1.11015625,0.020846308941101246,0.03170447177602813,True
2567,22301,0,22302,3093.0,38646.0,28838.0,6.1e-05,-0.0011589999999999999,0.001769,0.3325,-1.1725,-4.0600000000000005,0.977,-0.02821875,-0.40590625,1.1716875,0.92521875,-0.5341875,-1.205,1.1094375,0.02062300820029194,0.03170377901210078,True
2568,22302,0,22303,3093.0,38645.0,28839.0,-0.003904,6.1e-05,0.00042699999999999997,0.385,-0.9450000000000001,-4.095000000000001,0.98403125,-0.0286875,-0.4078125,1.16584375,0.9286562500000001,-0.53615625,-1.202375,1.10496875,0.0206824877062804,0.03152728661485277,True
2569,22303,0,22304,3092.0,38645.0,28838.0,-0.005429,0.002623,0.0,0.45500000000000007,-1.12,-4.0075,0.984,-0.03059375,-0.41053125,1.1649375,0.93203125,-0.5383125,-1.207125,1.0995,0.02069085842801945,0.03160192802630209,True
2570,22304,0,22305,3093.0,38645.0,28839.0,-0.000915,0.00061,-0.000793,0.3325,-1.5575,-3.8850000000000002,0.9775312500000001,-0.0266875,-0.40621875,1.16575,0.92459375,-0.53621875,-1.20534375,1.10521875,0.020766494429790654,0.03170458645302149,True
2571,22305,0,22306,3093.0,38646.0,28838.0,0.0015249999999999999,-0.00042699999999999997,-0.00183,0.3325,-1.9075000000000002,-3.8850000000000002,0.97909375,-0.029531250000000002,-0.40740625,1.16475,0.9273125,-0.5377500000000001,-1.20646875,1.1053125,0.02071170950881805,0.03170069191068265,True
2572,22306,0,22307,3092.0,38645.0,28837.0,0.003111,-0.001037,-0.000732,0.31500000000000006,-2.0650000000000004,-3.8325000000000005,0.9735,-0.02846875,-0.4085625,1.1660625,0.92453125,-0.5388125,-1.207125,1.10490625,0.02079741022512805,0.03168003094363201,True
2573,22307,0,22308,3093.0,38646.0,28840.0,0.0035989999999999998,-0.001037,0.00061,0.2625,-1.9250000000000003,-3.8850000000000002,0.968375,-0.02740625,-0.40590625,1.16884375,0.9250625,-0.53528125,-1.20703125,1.11259375,0.020699783092969437,0.03178180691151403,True
2574,22308,0,22309,3093.0,38647.0,28840.0,-0.001098,0.0011589999999999999,0.0008539999999999999,0.36750000000000005,-1.435,-3.9025000000000003,0.9811875,-0.0270625,-0.40703125,1.16471875,0.93240625,-0.53559375,-1.20634375,1.1050312500000001,0.020726266304437812,0.03171076725477094,True
2575,22309,0,22310,3095.0,38648.0,28841.0,-0.0018909999999999999,0.001037,0.0023179999999999997,0.385,-1.3825,-3.8675,0.98165625,-0.0286875,-0.40659375000000003,1.16596875,0.9358125,-0.5405625000000001,-1.2061875,1.10509375,0.020858323846488853,0.03172212180045078,True
2576,22310,0,22311,3095.0,38648.0,28843.0,-0.001403,-0.001037,0.001403,0.4025,-1.5050000000000001,-3.8500000000000005,0.979,-0.029500000000000002,-0.4088125,1.16540625,0.9244687500000001,-0.53990625,-1.21084375,1.10446875,0.02079903015114412,0.03181294755357008,True
2577,22311,0,22312,3096.0,38648.0,28843.0,0.000244,-0.001098,0.0008539999999999999,0.21000000000000002,-1.7325000000000002,-3.8500000000000005,0.977125,-0.02671875,-0.40715625,1.1645,0.922125,-0.533875,-1.2035,1.11221875,0.020671673349603355,0.031596554050032734,True
2578,22312,0,22313,3097.0,38650.0,28844.0,0.001586,0.0006709999999999999,-0.003355,0.17500000000000002,-2.0475000000000003,-3.7975000000000003,0.99128125,-0.03121875,-0.40459375000000003,1.1659375,0.9363750000000001,-0.53725,-1.20496875,1.10321875,0.02062298138544458,0.03175465155059952,True
2579,22313,0,22314,3097.0,38652.0,28843.0,0.0011589999999999999,0.002745,-0.003355,0.36750000000000005,-1.995,-3.7625,0.97996875,-0.025750000000000002,-0.40696875,1.1731875,0.9229375,-0.5385625,-1.20971875,1.10359375,0.02089822906292901,0.03184287805670184,True
2580,22314,0,22315,3097.0,38649.0,28846.0,0.001037,0.001647,-0.001464,0.35000000000000003,-1.8200000000000003,-3.7975000000000003,0.9707187500000001,-0.02303125,-0.40175,1.17121875,0.93825,-0.54071875,-1.209875,1.11359375,0.021095042295776283,0.03205589079676119,True
2581,22315,0,22316,3098.0,38652.0,28848.0,0.000732,-0.00042699999999999997,6.1e-05,0.28,-1.6975000000000002,-3.6925000000000003,0.98728125,-0.0324375,-0.41003125,1.18396875,0.9353750000000001,-0.54215625,-1.21184375,1.110875,0.02076911029364015,0.03180300925036472,True
2582,22316,0,22317,3099.0,38651.0,28846.0,-0.000488,-0.0011589999999999999,0.002562,0.29750000000000004,-1.6275000000000002,-3.6575,0.99965625,-0.029625000000000002,-0.405875,1.1844375,0.9284375,-0.54153125,-1.2130625,1.09971875,0.020858773838735106,0.03201465510189411,True
2583,22317,0,22318,3100.0,38653.0,28848.0,-0.000915,-0.00042699999999999997,-0.000305,0.4025,-1.5750000000000002,-3.9025000000000003,0.9985937500000001,-0.03871875,-0.40815625,1.1457187500000001,0.9209375,-0.53496875,-1.20434375,1.1024375,0.020226233220696478,0.03158929698377884,True
2584,22318,0,22319,3099.0,38654.0,28848.0,-0.001647,0.000732,0.000915,0.4025,-1.4525000000000001,-3.7450000000000006,0.9595,-0.02253125,-0.39778125000000003,1.1583125,0.9187500000000001,-0.5339375000000001,-1.20984375,1.11115625,0.02084485011833099,0.0322121195217642,True
2585,22319,0,22320,3101.0,38653.0,28847.0,-0.001952,0.000366,0.000305,0.43750000000000006,-1.4000000000000001,-3.7100000000000004,0.9869687500000001,-0.041625,-0.410375,1.15596875,0.93765625,-0.5360625,-1.20490625,1.1031875,0.020151460732544188,0.03152288058996451,True
2586,22320,0,22321,3100.0,38653.0,28849.0,-0.0011589999999999999,0.000732,0.000366,0.385,-1.5225000000000002,-3.7625,0.96559375,-0.014875000000000001,-0.4096875,1.18734375,0.921875,-0.5325,-1.20834375,1.109875,0.02109956180576786,0.03168221831313293,True
2587,22321,0,22322,3101.0,38652.0,28849.0,-0.00061,-0.000915,-0.000305,0.35000000000000003,-1.6450000000000002,-3.6050000000000004,0.9961875,-0.03034375,-0.40040625,1.1455312500000001,0.922,-0.534875,-1.20434375,1.1045625000000001,0.020563840247810515,0.03189678366452211,True
2588,22322,0,22323,3103.0,38655.0,28852.0,0.000305,0.001281,-0.002806,0.36750000000000005,-1.8550000000000002,-3.6575,0.975,-0.03215625,-0.411875,1.18034375,0.9306875,-0.53840625,-1.2058125,1.10515625,0.020630924227199962,0.03149819114142819,True
2589,22323,0,22324,3101.0,38653.0,28851.0,0.00042699999999999997,0.000366,0.000122,0.31500000000000006,-1.9075000000000002,-3.7275000000000005,1.000625,-0.034625,-0.40800000000000003,1.1634375000000001,0.92484375,-0.53615625,-1.206375,1.10625,0.02044049788768361,0.03167353496883229,True
2590,22324,0,22325,3103.0,38655.0,28852.0,0.0015249999999999999,-0.00122,0.000793,0.29750000000000004,-1.8200000000000003,-3.6925000000000003,0.965375,-0.02421875,-0.40028125000000003,1.1637187500000001,0.92525,-0.53496875,-1.20434375,1.10640625,0.020817226433190384,0.031901743127114746,True
2591,22325,0,22326,3102.0,38655.0,28853.0,0.000549,-0.002013,-0.0015249999999999999,0.2625,-1.7675,-3.6225000000000005,0.97196875,-0.0315625,-0.406125,1.1650625000000001,0.9290625,-0.5346875,-1.20703125,1.1138125,0.020506680592528432,0.03177312877731288,True
2592,22326,0,22327,3105.0,38657.0,28855.0,0.001586,-0.00183,0.0011589999999999999,0.3325,-1.7325000000000002,-3.7275000000000005,0.9793437500000001,-0.0284375,-0.40721875,1.16603125,0.9314687500000001,-0.54059375,-1.2095,1.0961875,0.020869757888396647,0.03182456018564431,True
2593,22327,0,22328,3106.0,38659.0,28855.0,-0.001952,0.000122,0.000549,0.35000000000000003,-1.6800000000000002,-3.7800000000000002,0.9762500000000001,-0.02740625,-0.40568750000000003,1.169625,0.91471875,-0.53659375,-1.2040625,1.1060625,0.020752167362268856,0.03167644104992995,True
2594,22328,0,22329,3105.0,38660.0,28856.0,-0.001098,0.002074,-0.0006709999999999999,0.42000000000000004,-1.5050000000000001,-3.6925000000000003,0.9811875,-0.02675,-0.40528125,1.17021875,0.9295625000000001,-0.53690625,-1.19578125,1.11090625,0.02079138440690745,0.031374300013023014,True
2595,22329,0,22330,3106.0,38660.0,28859.0,-0.000366,0.000793,-0.000549,0.385,-1.6275000000000002,-3.7800000000000002,0.9762500000000001,-0.029562500000000002,-0.406,1.1615312500000001,0.932125,-0.534625,-1.2059375,1.1038125,0.02058570285871498,0.03173607408968621,True
2596,22330,0,22331,3107.0,38660.0,28859.0,0.000122,0.0008539999999999999,-0.000183,0.42000000000000004,-1.7675,-3.7625,0.98309375,-0.03,-0.40909375000000003,1.165375,0.92496875,-0.53753125,-1.209875,1.10778125,0.02068387584834966,0.03176458629802805,True
2597,22331,0,22332,3107.0,38666.0,28859.0,0.0013419999999999999,0.002074,-6.1e-05,0.36750000000000005,-1.8025000000000002,-3.8850000000000002,0.97765625,-0.02696875,-0.40521875,1.17196875,0.9245625000000001,-0.535625,-1.2051875,1.10984375,0.0207313345390631,0.03173825824545047,True
2598,22332,0,22333,3109.0,38666.0,28862.0,0.00042699999999999997,0.002074,0.000305,0.43750000000000006,-1.8025000000000002,-3.6575,0.985,-0.029906250000000002,-0.4024375,1.16621875,0.93321875,-0.5387500000000001,-1.2085937500000001,1.1050625,0.020736335387906882,0.031979421700189054,True
2599,22333,0,22334,3111.0,38668.0,28865.0,-0.001098,0.000793,0.0006709999999999999,0.5425000000000001,-1.6275000000000002,-3.6575,0.97665625,-0.02690625,-0.40475,1.16259375,0.9256562500000001,-0.53509375,-1.20496875,1.11203125,0.020712678140877287,0.0317484523760816,True
2600,22334,0,22335,3111.0,38669.0,28865.0,-0.000305,0.0008539999999999999,0.002074,0.5075000000000001,-1.6800000000000002,-3.7275000000000005,0.983,-0.02865625,-0.40934375,1.1550625,0.92671875,-0.54059375,-1.208375,1.10384375,0.02086084408613789,0.031697055046190005,True
2601,22335,0,22336,3114.0,38669.0,28865.0,-0.000732,-0.000549,0.002928,0.49000000000000005,-1.7675,-3.6400000000000006,0.97590625,-0.0274375,-0.40965625,1.1726875,0.92509375,-0.5311875,-1.20653125,1.1119375,0.02053508416581953,0.0316138302448894,True
2602,22336,0,22337,3112.0,38669.0,28866.0,0.001098,-0.0030499999999999998,0.0006709999999999999,0.43750000000000006,-1.9775000000000003,-3.5875000000000004,0.97890625,-0.02759375,-0.4060625,1.16771875,0.9293125,-0.53634375,-1.20575,1.10584375,0.020734548112939608,0.03172639179552285,True
2603,22337,0,22338,3115.0,38674.0,28870.0,0.0015249999999999999,-0.0006709999999999999,-0.001464,0.35000000000000003,-2.1175,-3.6400000000000006,0.98609375,-0.0245625,-0.40659375000000003,1.16615625,0.91890625,-0.53771875,-1.20575,1.1054375,0.020912956710778176,0.03170531525544766,True
2604,22338,0,22339,3116.0,38673.0,28867.0,0.002562,-0.001037,-0.0021349999999999997,0.35000000000000003,-2.0825,-3.7625,0.9839375,-0.0309375,-0.41053125,1.166625,0.92940625,-0.5377500000000001,-1.20890625,1.10628125,0.02065439985328729,0.03167035459937895,True
2605,22339,0,22340,3117.0,38673.0,28870.0,0.0013419999999999999,-0.0008539999999999999,-0.002989,0.29750000000000004,-1.9425000000000001,-3.7975000000000003,0.97759375,-0.025875000000000002,-0.40575,1.1705,0.92171875,-0.5353125,-1.207,1.1115625,0.020763440449352338,0.03178680525250922,True
2606,22340,0,22341,3117.0,38675.0,28870.0,0.00042699999999999997,-0.001403,0.000244,0.385,-1.7325000000000002,-3.7625,0.98453125,-0.02834375,-0.40609375000000003,1.1672500000000001,0.93059375,-0.5366562500000001,-1.20609375,1.10571875,0.020716453571378537,0.0317383569201396,True
2607,22341,0,22342,3119.0,38675.0,28871.0,-0.000122,0.001464,-0.000122,0.31500000000000006,-1.4875,-3.8675,0.98409375,-0.029,-0.40659375000000003,1.16628125,0.93290625,-0.5385625,-1.20609375,1.10590625,0.020765784466795886,0.031718520447064504,True
2608,22342,0,22343,3118.0,38676.0,28874.0,-0.0021349999999999997,0.0008539999999999999,0.002623,0.45500000000000007,-1.225,-3.8325000000000005,0.98403125,-0.02821875,-0.40715625,1.166125,0.92471875,-0.5366562500000001,-1.20884375,1.10609375,0.020721547990060794,0.031801835417382046,True
2609,22343,0,22344,3121.0,38674.0,28876.0,-0.001586,-0.000305,0.0008539999999999999,0.35000000000000003,-1.3650000000000002,-3.7625,0.963875,-0.0266875,-0.4058125,1.16559375,0.92484375,-0.53528125,-1.20609375,1.1051875,0.020729077642018066,0.03174951493624433,True
2610,22344,0,22345,3122.0,38677.0,28875.0,-0.0023179999999999997,-0.00042699999999999997,-0.00061,0.31500000000000006,-1.4000000000000001,-3.9025000000000003,0.98028125,-0.028375,-0.40928125,1.1733125,0.927,-0.5376875,-1.2081875,1.10921875,0.020756336553719657,0.0316923321044006,True
2611,22345,0,22346,3124.0,38678.0,28878.0,-6.1e-05,-0.000793,0.002257,0.3325,-1.54,-3.8500000000000005,0.98371875,-0.02496875,-0.40790625,1.165375,0.929625,-0.5365,-1.205875,1.1060625,0.020847767611517534,0.03165804599126196,True
2612,22346,0,22347,3124.0,38678.0,28879.0,0.000732,-6.1e-05,0.00183,0.22750000000000004,-1.6450000000000002,-3.8325000000000005,0.97740625,-0.0275,-0.4054375,1.17375,0.92453125,-0.535625,-1.20525,1.11096875,0.02070968234964465,0.03173198044058281,True
2613,22347,0,22348,3125.0,38678.0,28880.0,0.003355,0.000976,-0.0008539999999999999,0.24500000000000002,-1.7325000000000002,-3.8850000000000002,0.982875,-0.0278125,-0.40634375,1.16640625,0.9323125,-0.53390625,-1.2061875,1.1056875,0.02062833960653942,0.03173204000009918,True
2614,22348,0,22349,3125.0,38679.0,28881.0,0.002379,0.001647,-0.0035989999999999998,0.17500000000000002,-1.9250000000000003,-3.9550000000000005,0.9778125,-0.030125,-0.4039375,1.16575,0.9186562500000001,-0.53828125,-1.21,1.09365625,0.02070871406284823,0.03197391907973026,True
2615,22349,0,22350,3128.0,38679.0,28883.0,0.001037,0.001647,-0.0046359999999999995,0.29750000000000004,-1.6975000000000002,-4.0075,0.9783125,-0.02909375,-0.40909375000000003,1.171375,0.92578125,-0.53446875,-1.2088125,1.12259375,0.02059857114289463,0.031723777151343405,True
2616,22350,0,22351,3128.0,38682.0,28883.0,-0.001037,-0.000244,-0.001403,0.22750000000000004,-1.225,-4.1475,0.9805625,-0.02821875,-0.40628125,1.166625,0.9413750000000001,-0.53703125,-1.20715625,1.09659375,0.020736514324649607,0.031771731489941474,True
2617,22351,0,22352,3130.0,38682.0,28886.0,-0.002257,-0.000793,0.00042699999999999997,0.24500000000000002,-1.1025,-4.112500000000001,0.98203125,-0.029562500000000002,-0.40700000000000003,1.16703125,0.9136562500000001,-0.53225,-1.2091875,1.11796875,0.0204908844480225,0.03182123580936514,True
2618,22352,0,22353,3130.0,38682.0,28885.0,-0.002562,-0.001098,0.0035989999999999998,0.15750000000000003,-1.05,-4.025,0.97771875,-0.02728125,-0.40584375,1.16690625,0.9268125,-0.53290625,-1.20384375,1.100625,0.020610073460008434,0.03166183729416272,True
2619,22353,0,22354,3130.0,38683.0,28887.0,-0.001769,-0.000732,0.001952,0.17500000000000002,-1.2075,-4.130000000000001,0.9780625000000001,-0.027,-0.40728125,1.17071875,0.91353125,-0.5260625,-1.201625,1.10025,0.020348251987044395,0.031519544870618456,True
2620,22354,0,22355,3132.0,38680.0,28886.0,0.0006709999999999999,-0.000488,0.000732,0.28,-1.3825,-3.9725000000000006,0.98565625,-0.02796875,-0.40965625,1.160875,0.9344375,-0.54053125,-1.2101250000000001,1.1191875,0.020886365286000075,0.03175187548653567,True
2621,22355,0,22356,3135.0,38682.0,28889.0,0.0023179999999999997,0.000244,0.000183,0.21000000000000002,-1.6275000000000002,-3.99,0.97821875,-0.0275625,-0.40640625,1.16628125,0.93040625,-0.540125,-1.21034375,1.10378125,0.020886711049760337,0.03188919230821674,True
2622,22356,0,22357,3134.0,38685.0,28889.0,0.001586,0.000183,-0.002379,0.21000000000000002,-1.8550000000000002,-3.8850000000000002,0.9774375000000001,-0.028,-0.4064375,1.16621875,0.92484375,-0.53421875,-1.19775,1.10071875,0.020633171781758892,0.03140409361947,True
2623,22357,0,22358,3136.0,38686.0,28889.0,0.002013,0.001586,-0.00244,0.3325,-1.8550000000000002,-3.7275000000000005,0.97775,-0.02740625,-0.4069375,1.16621875,0.91759375,-0.53659375,-1.20790625,1.10221875,0.020752167362268856,0.03177450527054384,True
2624,22358,0,22359,3136.0,38685.0,28892.0,0.001037,0.002562,-0.00366,0.29750000000000004,-1.9425000000000001,-3.7275000000000005,0.9786875,-0.0285,-0.4095625,1.1726875,0.934875,-0.5388125,-1.21090625,1.10671875,0.020796136732370407,0.031785598742607675,True
2625,22359,0,22360,3137.0,38686.0,28891.0,0.000305,6.1e-05,-0.0011589999999999999,0.3325,-1.7500000000000002,-3.7100000000000004,0.97740625,-0.02825,-0.40359375000000003,1.17203125,0.93625,-0.5364375,-1.2058125,1.1158125,0.02071154380092872,0.03182673639264753,True
2626,22360,0,22361,3137.0,38686.0,28891.0,-0.000183,-0.002806,0.000732,0.3325,-1.4000000000000001,-3.8150000000000004,0.9855625,-0.02921875,-0.40715625,1.17128125,0.932875,-0.54290625,-1.207,1.11575,0.020930182219149374,0.031731017177768085,True
2627,22361,0,22362,3137.0,38686.0,28892.0,-0.002623,-0.00366,0.001647,0.3325,-1.1725,-3.7800000000000002,0.9785625,-0.02696875,-0.4060625,1.1659375,0.9275625000000001,-0.53596875,-1.20159375,1.1011875,0.02074505413608338,0.031566703990695034,True
2628,22362,0,22363,3138.0,38685.0,28892.0,-0.002745,-0.000183,0.003904,0.28,-0.9975,-3.8325000000000005,0.97740625,-0.0268125,-0.40490625,1.16025,0.92009375,-0.53715625,-1.204625,1.106,0.02079881404349781,0.03172904774421361,True
2629,22363,0,22364,3136.0,38682.0,28889.0,-0.0032329999999999998,0.000305,0.0028669999999999998,0.31500000000000006,-1.2425000000000002,-3.8500000000000005,0.983625,-0.029812500000000002,-0.40890625,1.1713125,0.9315,-0.53778125,-1.20953125,1.11371875,0.020701494761267383,0.03175882137832293,True
2630,22364,0,22365,3134.0,38682.0,28886.0,-0.0008539999999999999,0.001098,0.000732,0.17500000000000002,-1.6450000000000002,-3.8850000000000002,0.98503125,-0.03053125,-0.41078125,1.16615625,0.93209375,-0.53990625,-1.20971875,1.096875,0.020757006763218584,0.03169164669875581,True
2631,22365,0,22366,3133.0,38682.0,28883.0,0.0023179999999999997,0.000244,-0.001098,0.21000000000000002,-1.9075000000000002,-3.8150000000000004,0.978,-0.027125,-0.406,1.16684375,0.9234687500000001,-0.53615625,-1.20546875,1.10590625,0.02074616923749008,0.03171806713572824,True
2632,22366,0,22367,3130.0,38678.0,28879.0,0.002928,0.0013419999999999999,-0.0044529999999999995,0.14,-1.9250000000000003,-3.9025000000000003,0.9775,-0.02715625,-0.40553125,1.1658125,0.9245,-0.53496875,-1.2046875000000001,1.1070312500000001,0.020697499359969635,0.03170665178848181,True
2633,22367,0,22368,3127.0,38676.0,28876.0,0.002989,0.001769,-0.000915,0.22750000000000004,-1.6800000000000002,-4.077500000000001,0.9821875,-0.029750000000000002,-0.40828125,1.1708125,0.9298125,-0.53465625,-1.2084375,1.1084687500000001,0.020579308096073282,0.03174160437353565,True
2634,22368,0,22369,3122.0,38676.0,28871.0,0.002074,-0.0011589999999999999,-0.000488,0.2625,-1.435,-3.9725000000000006,0.9828125,-0.028125,-0.40628125,1.1721875,0.93275,-0.5316875,-1.2074375,1.1113125,0.020527022448007297,0.0317825344206447,True
2635,22369,0,22370,3121.0,38671.0,28867.0,-0.000366,-0.001403,0.00122,0.24500000000000002,-1.2775,-4.0425,0.98121875,-0.0286875,-0.4089375,1.17253125,0.92653125,-0.53915625,-1.20796875,1.1135,0.020802212790017992,0.03169756587388661,True
2636,22370,0,22371,3117.0,38668.0,28865.0,-0.00061,-0.0015249999999999999,0.001281,0.17500000000000002,-1.0675000000000001,-4.1475,0.98484375,-0.025937500000000002,-0.40703125,1.1656875,0.9315625000000001,-0.538,-1.203,1.10196875,0.020868143287961532,0.03158230171011388,True
2637,22371,0,22372,3113.0,38668.0,28859.0,-0.001586,0.000366,0.0021349999999999997,0.15750000000000003,-1.0675000000000001,-4.1475,0.97875,-0.02721875,-0.4074375,1.17553125,0.9253750000000001,-0.53478125,-1.20246875,1.1136875,0.020687467918630822,0.031545768705694754,True
2638,22372,0,22373,3112.0,38664.0,28856.0,-0.00183,-0.001098,0.00122,0.22750000000000004,-1.2950000000000002,-4.112500000000001,0.98553125,-0.029781250000000002,-0.40721875,1.16471875,0.932,-0.53853125,-1.206375,1.10575,0.02073269972097454,0.03170452911217896,True
2639,22373,0,22374,3109.0,38660.0,28852.0,-0.0011589999999999999,-0.00061,0.000305,0.21000000000000002,-1.2600000000000002,-4.095000000000001,0.97709375,-0.02715625,-0.4049375,1.1649375,0.9248125,-0.5356562500000001,-1.20521875,1.10571875,0.020724939851568067,0.031750617121702226,True
2640,22374,0,22375,3107.0,38660.0,28849.0,-6.1e-05,-0.000305,-0.001586,0.31500000000000006,-1.3825,-3.9725000000000006,0.9764375000000001,-0.02496875,-0.40768750000000004,1.174625,0.9223125,-0.53715625,-1.20653125,1.113125,0.02087395518785923,0.031691935001965016,True
2641,22375,0,22376,3105.0,38657.0,28848.0,0.001464,0.00061,-0.001586,0.3325,-1.5925000000000002,-3.99,0.986625,-0.032,-0.40653125,1.172625,0.93271875,-0.53509375,-1.2085937500000001,1.10778125,0.02050506735887243,0.03181702668360865,True
2642,22376,0,22377,3102.0,38658.0,28846.0,0.00122,-0.000488,-0.0018909999999999999,0.29750000000000004,-1.5575,-3.9200000000000004,0.97784375,-0.02696875,-0.40034375,1.16465625,0.9239375,-0.53646875,-1.2053125,1.10184375,0.020765009227336352,0.03193647172595063,True
2643,22377,0,22378,3102.0,38656.0,28846.0,-0.002745,0.000183,-0.0011589999999999999,0.29750000000000004,-1.4875,-3.8675,0.9845625,-0.03334375,-0.410875,1.1633437500000001,0.9306875,-0.5393125,-1.2095625,1.1046875,0.02061870111479284,0.031681926253182696,True
2644,22378,0,22379,3101.0,38655.0,28843.0,-0.0023179999999999997,-0.000366,0.00061,0.3325,-1.33,-3.8325000000000005,0.97540625,-0.025968750000000002,-0.4040625,1.16384375,0.9211875,-0.5313125,-1.2044375,1.1079375,0.020599947516057284,0.0317553208636376,True
2645,22379,0,22380,3099.0,38654.0,28845.0,-0.000976,-0.000488,0.0015249999999999999,0.47250000000000003,-1.4000000000000001,-3.8325000000000005,0.97465625,-0.025968750000000002,-0.40468750000000003,1.16465625,0.9262812500000001,-0.538,-1.208625,1.108625,0.02086686975303611,0.03189136654617219,True
2646,22380,0,22381,3100.0,38654.0,28843.0,0.00042699999999999997,-0.000793,0.0023179999999999997,0.3325,-1.4700000000000002,-3.9025000000000003,0.9783437500000001,-0.025750000000000002,-0.406875,1.17403125,0.9290625,-0.53753125,-1.201625,1.10903125,0.020857079906928287,0.03153566486288086,True
2647,22381,0,22382,3098.0,38656.0,28843.0,0.00122,-0.000305,-0.000488,0.2625,-1.5225000000000002,-3.9375000000000004,0.98503125,-0.03046875,-0.41128125,1.16678125,0.9286562500000001,-0.5387500000000001,-1.20578125,1.1051875,0.020713412459884877,0.03152054650160863,True
2648,22382,0,22383,3097.0,38658.0,28843.0,0.000305,0.00061,0.000549,0.4025,-1.5225000000000002,-3.8850000000000002,0.976875,-0.02846875,-0.40490625,1.1645625,0.92415625,-0.53609375,-1.2054375,1.10678125,0.020688908559456414,0.031760260062932845,True
2649,22383,0,22384,3098.0,38655.0,28843.0,0.000183,6.1e-05,-6.1e-05,0.35000000000000003,-1.6800000000000002,-3.8150000000000004,0.98265625,-0.03209375,-0.4086875,1.169625,0.92759375,-0.53709375,-1.2065625,1.10540625,0.020581084505983924,0.03165346325981577,True
2650,22384,0,22385,3098.0,38655.0,28844.0,0.000305,-6.1e-05,-0.0015249999999999999,0.385,-1.6625,-3.7625,0.9758125,-0.0269375,-0.4049375,1.1655,0.9246562500000001,-0.53609375,-1.2054375,1.1068125,0.02075131661901154,0.0317590202510867,True
2651,22385,0,22386,3098.0,38654.0,28846.0,0.001098,0.000732,-0.0015249999999999999,0.385,-1.5575,-3.7100000000000004,0.97590625,-0.0240625,-0.4050625,1.16596875,0.9253125,-0.53546875,-1.20396875,1.10634375,0.020843549198545475,0.03169763690490213,True
2652,22386,0,22387,3099.0,38655.0,28847.0,-0.0040869999999999995,0.0025009999999999998,0.000244,0.4025,-1.435,-3.7625,0.97865625,-0.026375,-0.40525,1.1745625,0.924875,-0.53590625,-1.20509375,1.1143750000000001,0.020766758920918196,0.03173341698044666,True
2653,22387,0,22388,3098.0,38656.0,28847.0,-0.001647,-0.002196,-0.00122,0.12250000000000001,-1.5225000000000002,-3.6750000000000003,0.9705,-0.0310625,-0.40690625,1.16621875,0.92640625,-0.5394375,-1.2068125,1.106375,0.020716652531257086,0.031733732696270105,True
2654,22388,0,22389,3099.0,38658.0,28846.0,0.0018909999999999999,-0.0035989999999999998,-0.000305,0.17500000000000002,-1.5575,-3.8150000000000004,0.97859375,-0.0275625,-0.40803125,1.17184375,0.92521875,-0.5328437500000001,-1.2121250000000001,1.1226875,0.020596114137807608,0.03189313673480518,True
2655,22389,0,22390,3099.0,38660.0,28849.0,0.002196,-0.0011589999999999999,-0.0021349999999999997,0.21000000000000002,-1.5750000000000002,-4.0425,0.984625,-0.03096875,-0.40625,1.165875,0.9430625,-0.5483750000000001,-1.2136875,1.1084375,0.02107700611547608,0.032023776768074885,True
2656,22390,0,22391,3100.0,38661.0,28849.0,-0.0008539999999999999,0.00061,-0.0008539999999999999,0.29750000000000004,-1.6450000000000002,-3.8850000000000002,0.97821875,-0.0264375,-0.40518750000000003,1.171375,0.9200625,-0.53109375,-1.20153125,1.0965625,0.020572105554812453,0.03159902238083251,True
2657,22391,0,22392,3100.0,38658.0,28851.0,0.0013419999999999999,-0.000549,-0.000732,0.29750000000000004,-1.5050000000000001,-3.8850000000000002,0.983,-0.031593750000000004,-0.40903125,1.17309375,0.913125,-0.5375,-1.20471875,1.1186562500000001,0.02061767702496179,0.031568989437741696,True
2658,22392,0,22393,3102.0,38657.0,28849.0,0.000183,0.000915,-0.001952,0.24500000000000002,-1.4000000000000001,-3.9375000000000004,0.9850625000000001,-0.03109375,-0.40678125,1.16575,0.93871875,-0.54575,-1.2122187500000001,1.12396875,0.020967224468594357,0.03194631571249556,True
2659,22393,0,22394,3103.0,38661.0,28854.0,-0.000732,0.001952,0.000549,0.28,-1.5750000000000002,-3.9025000000000003,0.9785,-0.029875000000000002,-0.40878125,1.1655312500000001,0.9147500000000001,-0.5306875,-1.20609375,1.127375,0.020415754756160014,0.031631735877361004,True
2660,22394,0,22395,3102.0,38663.0,28851.0,-0.000305,0.002928,0.000793,0.35000000000000003,-1.5925000000000002,-3.9375000000000004,0.97790625,-0.02709375,-0.40621875,1.17225,0.93590625,-0.52696875,-1.19871875,1.1025625000000001,0.020380626937440034,0.03145001171934585,True
2661,22395,0,22396,3104.0,38662.0,28853.0,-0.0006709999999999999,0.002013,0.001647,0.43750000000000006,-1.5050000000000001,-3.9725000000000006,0.97503125,-0.028,-0.40590625,1.16678125,0.943875,-0.55028125,-1.2045625,1.09546875,0.021273941617267624,0.03168697135687239,True
2662,22396,0,22397,3103.0,38662.0,28852.0,0.0011589999999999999,-0.002074,-0.000732,0.31500000000000006,-1.6800000000000002,-3.7100000000000004,0.9765312500000001,-0.03053125,-0.40896875,1.17290625,0.9124375,-0.52978125,-1.20428125,1.1289375,0.020352810932629087,0.03155465899270585,True
2663,22397,0,22398,3104.0,38663.0,28855.0,0.000183,-0.002928,0.00042699999999999997,0.28,-1.6975000000000002,-3.8500000000000005,0.980625,-0.0275,-0.4055625,1.16609375,0.9525625,-0.54171875,-1.19803125,1.09621875,0.020952841780896053,0.03144962962136179,True
2664,22398,0,22399,3104.0,38665.0,28854.0,0.000183,-0.000732,-0.001037,0.36750000000000005,-1.54,-3.8500000000000005,0.9860625000000001,-0.02815625,-0.406375,1.1705625,0.9469062500000001,-0.53653125,-1.19984375,1.0965625,0.020719106332522046,0.03148705039093745,True
2665,22399,0,22400,3105.0,38664.0,28854.0,-0.0025009999999999998,0.001098,-0.001403,0.42000000000000004,-1.5575,-3.8500000000000005,0.985375,-0.0270625,-0.40475,1.166875,0.94565625,-0.535,-1.198,1.11559375,0.02070256776034237,0.03148067306929121,True
2666,22400,0,22401,3105.0,38665.0,28854.0,-0.0015249999999999999,0.000732,0.00061,0.43750000000000006,-1.4700000000000002,-3.8500000000000005,0.97828125,-0.02734375,-0.4053125,1.17375,0.9432812500000001,-0.53434375,-1.1981875,1.1036875,0.020664909775709814,0.03146555679848005,True
2667,22401,0,22402,3106.0,38664.0,28856.0,0.001037,-0.001769,0.0,0.31500000000000006,-1.715,-3.9025000000000003,0.98546875,-0.02759375,-0.406375,1.16015625,0.93234375,-0.5365625,-1.20296875,1.1029375000000001,0.020743278525669605,0.03160713953589297,True
2668,22402,0,22403,3107.0,38664.0,28856.0,0.001098,0.000305,0.00042699999999999997,0.35000000000000003,-1.6975000000000002,-3.8325000000000005,0.97740625,-0.02690625,-0.40665625,1.1728750000000001,0.92571875,-0.533625,-1.20815625,1.11225,0.02065405132751479,0.03179526467747914,True
2669,22403,0,22404,3106.0,38666.0,28856.0,0.001464,0.001281,-0.00122,0.3325,-1.61,-3.99,0.97821875,-0.028125,-0.4094375,1.16821875,0.92971875,-0.537625,-1.20496875,1.10640625,0.02076403074869716,0.031562477140543964,True
2670,22404,0,22405,3107.0,38665.0,28859.0,0.000244,0.001769,-0.0008539999999999999,0.35000000000000003,-1.5925000000000002,-3.9200000000000004,0.9793125,-0.02840625,-0.40575,1.1655,0.92471875,-0.53125,-1.20490625,1.10584375,0.020498089171974522,0.031706376610704516,True
2671,22405,0,22406,3108.0,38668.0,28859.0,0.0008539999999999999,0.002562,0.0011589999999999999,0.3325,-1.5750000000000002,-3.8500000000000005,0.97284375,-0.021750000000000002,-0.40575,1.1669375,0.9156562500000001,-0.53503125,-1.20575,1.1063125,0.020920342214766893,0.03173878976027295,True
2672,22406,0,22407,3110.0,38668.0,28860.0,-0.000122,0.000183,0.000183,0.35000000000000003,-1.5925000000000002,-3.9025000000000003,0.97765625,-0.0260625,-0.4078125,1.16903125,0.9253125,-0.538125,-1.2082187500000001,1.1120625,0.020868036983265836,0.03175179721891298,True
2673,22407,0,22408,3110.0,38668.0,28861.0,0.000183,-0.0008539999999999999,0.0,0.1925,-1.5575,-3.8850000000000002,0.98090625,-0.03071875,-0.40771875,1.16628125,0.9312812500000001,-0.53959375,-1.20546875,1.105875,0.02073689585835136,0.031649877568731985,True
