frame_seq,absolute_seq_u64,segment_id,sample_seq,PPG_G,PPG_R,PPG_IR,ACC_X,ACC_Y,ACC_Z,GYRO_X,GYRO_Y,GYRO_Z,Uh1,Uh2,Uh3,Uh4,Uc1,Uc2,Uc3,Uc4,UD1,UD2,parser_valid
6432,105928,0,105926,3399.0,40604.0,29057.0,-0.0055509999999999995,0.000305,0.0034159999999999998,0.2625,-0.805,-3.8675,1.06509375,0.15596875000000002,0.04209375,1.289875,1.0241875,-0.27446875,-0.44956250000000003,1.2693125,0.01773210793748061,0.02010899990541753,True
6433,105929,0,105927,3393.0,40601.0,29055.0,-0.008113,-0.002196,0.0046359999999999995,0.24500000000000002,-0.6300000000000001,-3.8500000000000005,1.0643125,0.15584375,0.042375,1.29553125,1.0325,-0.27465625,-0.448875,1.27196875,0.017734545674565422,0.020092949062073408,True
6434,105930,0,105928,3392.0,40595.0,29053.0,-0.005856,-0.000305,-0.0018909999999999999,0.24500000000000002,-1.1375000000000002,-3.7100000000000004,1.05684375,0.15690625,0.043250000000000004,1.29465625,1.0343437500000001,-0.27409375,-0.4495,1.26009375,0.017755554725910214,0.02015378637599951,True
6435,105931,0,105929,3391.0,40598.0,29051.0,-0.000793,-0.001464,-0.001037,0.1925,-1.6275000000000002,-3.6750000000000003,1.06640625,0.1524375,0.045625,1.2888125,1.02634375,-0.27896875,-0.44978125,1.26978125,0.01776872215793762,0.02026219559735325,True
6436,105932,0,105930,3390.0,40595.0,29050.0,0.001952,-0.001464,0.000793,0.035,-2.0125,-3.6050000000000004,1.06325,0.1466875,0.04609375,1.2846875,1.02634375,-0.27468750000000003,-0.452875,1.27321875,0.01735861687199887,0.020405320437780834,True
6437,105933,0,105931,3388.0,40596.0,29051.0,0.0066489999999999995,-0.00042699999999999997,-0.000183,0.1925,-2.4675000000000002,-3.6925000000000003,1.06615625,0.15,0.0418125,1.28340625,1.02625,-0.27434375,-0.45046875000000003,1.27515625,0.01748116259579623,0.020133816452905427,True
6438,105934,0,105932,3387.0,40596.0,29052.0,0.006954,-0.000366,-0.004392,0.21000000000000002,-2.7125000000000004,-3.7100000000000004,1.06165625,0.1515,0.039625,1.2849375,1.02659375,-0.27178125000000003,-0.4491875,1.274375,0.01743923305999637,0.019992995677259214,True
6439,105935,0,105933,3385.0,40597.0,29054.0,0.00244,0.00183,-0.001281,0.35000000000000003,-2.415,-3.7625,1.0579687500000001,0.15503125,0.039625,1.29003125,1.03503125,-0.27475,-0.4488125,1.267375,0.017704868227273195,0.019977964164926212,True
6440,105936,0,105934,3383.0,40594.0,29052.0,0.001769,0.000915,0.0025009999999999998,0.28,-1.8900000000000001,-3.8850000000000002,1.0735000000000001,0.158,0.047281250000000004,1.2858125,1.0269375,-0.27868750000000003,-0.451375,1.26790625,0.01798645416890843,0.02039379176017709,True
6441,105937,0,105935,3383.0,40596.0,29052.0,0.000305,-0.000244,0.0023179999999999997,0.2625,-1.33,-3.7975000000000003,1.0790625,0.151875,0.05178125,1.27240625,1.0261875,-0.27521875,-0.452625,1.27146875,0.017593816739550495,0.02062789782283088,True
6442,105938,0,105936,3382.0,40596.0,29051.0,-0.002623,-0.000366,0.000122,0.3325,-0.9800000000000001,-3.8325000000000005,1.07253125,0.149,0.04809375,1.2833125,1.027,-0.27465625,-0.45203125,1.272875,0.01745261583261349,0.020453311010716135,True
6443,105939,0,105937,3381.0,40596.0,29051.0,-0.0042699999999999995,0.000732,-0.002074,0.3325,-0.9275000000000001,-3.7975000000000003,1.0824375,0.16015625,0.04540625,1.2906875,1.027,-0.27668750000000003,-0.45075,1.2679375,0.017994372172892206,0.02029206670552028,True
6444,105940,0,105938,3380.0,40595.0,29049.0,-0.003172,-0.000183,0.00244,0.15750000000000003,-1.0150000000000001,-3.6575,1.081625,0.15525,0.051375000000000004,1.29584375,1.0259375,-0.279375,-0.45084375,1.26553125,0.017900996215924007,0.02053993535499158,True
6445,105941,0,105939,3379.0,40595.0,29050.0,0.00061,-0.000793,0.001952,0.17500000000000002,-1.225,-3.7100000000000004,1.0795625,0.1575625,0.047843750000000004,1.2829375,1.0260625,-0.27578125000000003,-0.45090625,1.2748125000000001,0.01785086731245776,0.020398016944668463,True
6446,105942,0,105940,3380.0,40594.0,29048.0,0.002257,-0.001281,-0.001403,0.2625,-1.4525000000000001,-3.6400000000000006,1.059125,0.1475,0.0420625,1.2825625,1.02640625,-0.27534375,-0.45246875000000003,1.27425,0.017418651383669898,0.0202241849302026,True
6447,105943,0,105941,3379.0,40594.0,29049.0,0.0017079999999999999,0.00061,-0.004331,0.28,-1.6800000000000002,-3.535,1.057,0.15778125,0.04546875,1.2960625000000001,1.03159375,-0.2740625,-0.44909375,1.2673125,0.017790336907965033,0.02022825488163544,True
6448,105944,0,105942,3378.0,40596.0,29050.0,0.0015249999999999999,0.001281,-0.000976,0.24500000000000002,-1.6450000000000002,-3.6225000000000005,1.0670625,0.15678125,0.043562500000000004,1.291625,1.0313125,-0.27618750000000003,-0.4489375,1.2713125,0.017835121350912288,0.020144024663648473,True
6449,105945,0,105943,3378.0,40595.0,29049.0,0.0015249999999999999,-0.001464,0.000549,0.3325,-1.2075,-3.7275000000000005,1.0537812500000001,0.15503125,0.04096875,1.2953125,1.03540625,-0.274625,-0.44990625,1.27303125,0.017699809986766016,0.020076764098021848,True
6450,105946,0,105944,3379.0,40595.0,29051.0,0.0008539999999999999,-0.00061,6.1e-05,0.4025,-1.1725,-3.7975000000000003,1.064875,0.164125,0.047031250000000004,1.2886250000000001,1.031875,-0.27,-0.44903125,1.25975,0.0178873094355171,0.02028965871602786,True
6451,105947,0,105945,3378.0,40597.0,29050.0,-0.0030499999999999998,0.000915,0.000488,0.3325,-1.1025,-3.8500000000000005,1.06784375,0.15325,0.047718750000000004,1.2886250000000001,1.02575,-0.2758125,-0.4506875,1.274,0.017674485663456165,0.020384140527745898,True
6452,105948,0,105946,3378.0,40595.0,29050.0,-0.003965,6.1e-05,0.001586,0.2625,-1.0150000000000001,-3.7625,1.0643125,0.1565625,0.04046875,1.29534375,1.03065625,-0.2689375,-0.44965625000000004,1.273875,0.01753269997914,0.020046294106895676,True
6453,105949,0,105947,3379.0,40594.0,29050.0,-0.002074,-0.001403,0.001281,0.35000000000000003,-1.0325000000000002,-3.6750000000000003,1.0645625,0.15921875,0.04853125,1.28559375,1.03190625,-0.27425,-0.45003125,1.26771875,0.017857142857142856,0.020391078232261974,True
6454,105950,0,105948,3379.0,40594.0,29049.0,-0.001769,0.000915,-0.00122,0.45500000000000007,-1.4875,-3.6575,1.0716875000000001,0.1539375,0.0449375,1.2885312500000001,1.024375,-0.2775625,-0.45146875000000003,1.2643125,0.017773612981121973,0.02030169455566959,True
6455,105951,0,105949,3378.0,40594.0,29051.0,0.000488,0.0015249999999999999,-0.0011589999999999999,0.4025,-1.6975000000000002,-3.6925000000000003,1.0635000000000001,0.1536875,0.044625,1.28865625,1.0263125,-0.27468750000000003,-0.44709375,1.275625,0.017646983097104756,0.020113587121168543,True
6456,105952,0,105950,3379.0,40592.0,29050.0,0.0015249999999999999,-6.1e-05,-0.00042699999999999997,0.385,-1.8200000000000003,-3.6750000000000003,1.0645,0.15803125,0.04275,1.2963125,1.0206250000000001,-0.27475,-0.4495,1.2733125,0.017828453434123936,0.02013333606004213,True
6457,105953,0,105951,3379.0,40594.0,29054.0,0.006161,0.00042699999999999997,-0.001281,0.4025,-1.8900000000000001,-3.6050000000000004,1.065125,0.15628125,0.04346875,1.294125,1.03328125,-0.2735625,-0.44921875,1.267875,0.017708309194416762,0.020151461894871384,True
6458,105954,0,105952,3380.0,40594.0,29055.0,0.00488,-0.000305,-0.000976,0.45500000000000007,-1.9600000000000002,-3.6575,1.069375,0.15596875000000002,0.0441875,1.2946875,1.0308125000000001,-0.27796875,-0.44853125,1.2672812500000001,0.017873715238223956,0.02015330675539047,True
6459,105955,0,105953,3378.0,40594.0,29054.0,0.001586,-6.1e-05,-0.0017079999999999999,0.21000000000000002,-1.225,-3.535,1.06990625,0.160625,0.04346875,1.292875,1.0323437500000001,-0.277125,-0.4489375,1.26296875,0.018031377273874067,0.020140190141187116,True
6460,105956,0,105954,3379.0,40595.0,29053.0,0.000366,6.1e-05,-0.000244,0.28,-0.8925000000000001,-3.6925000000000003,1.0715937500000001,0.15662500000000001,0.04440625,1.28859375,1.030125,-0.2784375,-0.44109375,1.2554375,0.01791970755943417,0.01986408648344553,True
6461,105957,0,105955,3378.0,40596.0,29053.0,-0.0021349999999999997,-0.0006709999999999999,6.1e-05,0.42000000000000004,-0.525,-3.7100000000000004,1.068375,0.15278125,0.044,1.2882500000000001,1.026,-0.27515625,-0.45003125,1.268,0.017628619795186692,0.020205751270767805,True
6462,105958,0,105956,3378.0,40593.0,29050.0,-0.0060999999999999995,-0.001037,0.002196,0.5075000000000001,-0.5075000000000001,-3.7625,1.0703125,0.16140625,0.04434375,1.28890625,1.022125,-0.27871875,-0.45215625,1.26734375,0.018128015919291456,0.02030495776829497,True
6463,105959,0,105957,3378.0,40590.0,29051.0,-0.0051849999999999995,0.000305,0.0040869999999999995,0.47250000000000003,-0.5775,-3.6750000000000003,1.06125,0.1543125,0.0451875,1.2885625,1.0190000000000001,-0.275375,-0.4515,1.269375,0.01770055045493633,0.02031317097110607,True
6464,105960,0,105958,3377.0,40590.0,29049.0,-0.001403,-0.000122,-0.001464,0.29750000000000004,-0.8575,-3.6575,1.06440625,0.15378125,0.04209375,1.2890625,1.02609375,-0.2755,-0.45034375,1.27153125,0.017683724331115737,0.020140309888281225,True
6465,105961,0,105959,3378.0,40592.0,29050.0,0.000915,-0.00061,-0.0018909999999999999,0.31500000000000006,-0.9975,-3.7100000000000004,1.065,0.15434375,0.0448125,1.28859375,1.02590625,-0.276,-0.45215625,1.267875,0.017727127615752184,0.02032412785682244,True
6466,105962,0,105960,3378.0,40593.0,29052.0,0.000732,-0.00061,-0.000183,0.36750000000000005,-1.0150000000000001,-3.8500000000000005,1.06925,0.15446875000000002,0.04459375,1.28821875,1.0266250000000001,-0.27771875,-0.451,1.2680625,0.01780181673782674,0.020268854034599812,True
6467,105963,0,105961,3378.0,40592.0,29050.0,0.000732,0.000976,0.000305,0.31500000000000006,-1.0850000000000002,-3.7625,1.068,0.1569375,0.041375,1.2921875,1.02715625,-0.27803125,-0.44875,1.2726250000000001,0.01791614589836233,0.020047037169589447,True
6468,105964,0,105962,3378.0,40593.0,29053.0,0.000183,0.000976,0.001403,0.24500000000000002,-1.1900000000000002,-3.6750000000000003,1.064625,0.15621875,0.043187500000000004,1.2884375000000001,1.03265625,-0.27478125000000003,-0.45153125,1.2727187500000001,0.01775505186066301,0.020232628580265297,True
6469,105965,0,105963,3381.0,40595.0,29054.0,0.000976,-0.000244,-0.001647,0.3325,-1.4175000000000002,-3.6400000000000006,1.06428125,0.15578125,0.04459375,1.2910625,1.0269375,-0.27475,-0.4523125,1.26784375,0.01773576452898588,0.020321441990404792,True
6470,105966,0,105964,3380.0,40595.0,29053.0,0.002074,0.001098,0.000122,0.29750000000000004,-1.4175000000000002,-3.6925000000000003,1.06575,0.15584375,0.04346875,1.2886875,1.03490625,-0.2744375,-0.4491875,1.27703125,0.017725693952743496,0.020150209490601683,True
6471,105967,0,105965,3382.0,40596.0,29056.0,0.000915,-0.00042699999999999997,0.0011589999999999999,0.24500000000000002,-1.3475000000000001,-3.6750000000000003,1.06353125,0.15915625,0.044375,1.2880625,1.0215,-0.27553125,-0.44959375,1.26659375,0.017906405240873977,0.020203556551936574,True
6472,105968,0,105966,3380.0,40595.0,29054.0,0.0026839999999999998,-0.00122,0.0015249999999999999,0.42000000000000004,-1.3825,-3.6925000000000003,1.06715625,0.1566875,0.04365625,1.29321875,1.02553125,-0.27778125,-0.44853125,1.264,0.017895735426811294,0.020131577433715984,True
6473,105969,0,105967,3381.0,40594.0,29055.0,0.000915,-0.00122,-0.000488,0.35000000000000003,-1.33,-3.6575,1.0641875,0.15634375,0.04221875,1.2984375000000001,1.037625,-0.2730625,-0.448125,1.276875,0.017690649871642688,0.02005649717514124,True
6474,105970,0,105968,3382.0,40591.0,29055.0,-0.002257,0.0013419999999999999,-0.002257,0.49000000000000005,-0.8750000000000001,-3.7625,1.06490625,0.15715625,0.03596875,1.2894375,1.0343437500000001,-0.2726875,-0.4493125,1.27765625,0.01770894755679609,0.019848461996630783,True
6475,105971,0,105969,3382.0,40593.0,29056.0,-0.000732,-0.000244,0.002074,0.29750000000000004,-0.5775,-3.8675,1.05484375,0.14621875,0.047875,1.28421875,1.0239375,-0.27418750000000003,-0.451875,1.26803125,0.01731906577717586,0.02043810546226005,True
6476,105972,0,105970,3381.0,40594.0,29056.0,-0.002074,-0.000915,0.0017079999999999999,0.1925,-0.42000000000000004,-3.7975000000000003,1.0693125,0.150375,0.042625,1.2788125000000001,1.02459375,-0.2704375,-0.4528125,1.271375,0.017338480198389503,0.020260961801428775,True
6477,105973,0,105971,3384.0,40595.0,29056.0,-0.005063,-0.000244,0.0013419999999999999,0.1925,-0.7175,-3.6925000000000003,1.05159375,0.16034375,0.03840625,1.3078125,1.02546875,-0.2683125,-0.44740625,1.2650625,0.017663207938335226,0.019871739972415273,True
6478,105974,0,105972,3381.0,40595.0,29058.0,-0.004209,-0.001403,0.0015249999999999999,0.22750000000000004,-0.9625000000000001,-3.7800000000000002,1.0601875,0.15887500000000002,0.043125000000000004,1.2980625000000001,1.03709375,-0.277375,-0.4474375,1.26525,0.017969405670917885,0.020066008963107076,True
6479,105975,0,105973,3384.0,40598.0,29058.0,0.001769,0.000549,0.000793,0.21000000000000002,-1.6975000000000002,-3.6750000000000003,1.08259375,0.149875,0.04984375,1.27134375,1.02353125,-0.27796875,-0.45275,1.2660625,0.017622716068451977,0.020553669832636408,True
6480,105976,0,105974,3385.0,40596.0,29058.0,0.000915,0.0006709999999999999,0.000122,0.28,-1.9425000000000001,-3.7800000000000002,1.0685,0.1441875,0.04340625,1.29140625,1.02421875,-0.274875,-0.4506875,1.27875,0.017263219687022074,0.02020776511907896,True
6481,105977,0,105975,3385.0,40597.0,29059.0,0.002806,0.0008539999999999999,-0.002074,0.3325,-2.1525000000000003,-3.6750000000000003,1.0525,0.15984375,0.04365625,1.3081875,1.03628125,-0.27515625,-0.447125,1.26465625,0.017919555100700948,0.020075213343082265,True
6482,105978,0,105976,3384.0,40597.0,29061.0,0.003843,0.0018909999999999999,-0.003721,0.36750000000000005,-2.1700000000000004,-3.7100000000000004,1.0824375,0.15221875,0.049875,1.281125,1.02590625,-0.27959375000000003,-0.45059375,1.26665625,0.017784996917421653,0.0204685724656482,True
6483,105979,0,105977,3384.0,40598.0,29062.0,0.000488,-0.000976,-0.000244,0.3325,-2.0125,-3.8325000000000005,1.07203125,0.14409375,0.03646875,1.2991875,1.023875,-0.274375,-0.4489375,1.2705625,0.017239115322227657,0.01985387913073932,True
6484,105980,0,105978,3387.0,40599.0,29062.0,0.0028669999999999998,-0.0034159999999999998,0.000366,0.14,-1.5575,-3.6750000000000003,1.06771875,0.16015625,0.04659375,1.2915625,1.0305625,-0.27653125,-0.44840625,1.2676875,0.017988051732061184,0.020246718536100893,True
6485,105981,0,105979,3387.0,40598.0,29063.0,0.0008539999999999999,-0.0013419999999999999,-6.1e-05,0.21000000000000002,-1.1900000000000002,-3.8675,1.08090625,0.154,0.050625,1.27828125,1.025875,-0.279375,-0.44353125,1.27334375,0.017849512188843408,0.020216238191852906,True
6486,105982,0,105980,3387.0,40599.0,29061.0,-0.002745,0.002196,-6.1e-05,0.28,-1.05,-3.8675,1.05121875,0.1585625,0.044,1.29121875,1.02728125,-0.27440625,-0.44856250000000003,1.2675,0.017836430087759616,0.020146890026765375,True
6487,105983,0,105981,3388.0,40598.0,29064.0,-0.004941,-0.000732,0.001098,0.4025,-0.9800000000000001,-3.8675,1.07390625,0.1525625,0.0454375,1.2915,1.02625,-0.27159375,-0.45134375,1.27159375,0.017475418152135148,0.02031713492228827,True
6488,105984,0,105982,3389.0,40600.0,29064.0,-0.0013419999999999999,0.000793,0.0023179999999999997,0.3325,-1.435,-3.7975000000000003,1.06690625,0.1568125,0.0448125,1.28884375,1.0339375,-0.27340625,-0.44934375,1.26821875,0.01772387219037295,0.02021143205530823,True
6489,105985,0,105983,3388.0,40599.0,29066.0,0.001098,0.001037,-0.00061,0.4025,-1.6275000000000002,-3.8675,1.06334375,0.15603125,0.04175,1.29359375,1.0260625,-0.27503125,-0.44934375,1.2711875000000001,0.017757443669614226,0.020086173069573696,True
6490,105986,0,105984,3391.0,40599.0,29063.0,0.00061,0.0018909999999999999,-0.003294,0.525,-1.7850000000000001,-3.7625,1.07059375,0.15234375,0.04428125,1.2885312500000001,1.0309375,-0.27565625,-0.44221875,1.26790625,0.01763083129832999,0.019904085016831788,True
6491,105987,0,105985,3389.0,40599.0,29064.0,0.0011589999999999999,0.000305,-0.002562,0.35000000000000003,-1.7500000000000002,-3.7625,1.063625,0.1565625,0.0443125,1.2894375,1.02575,-0.27440625,-0.44871875,1.2678125,0.017754038783131927,0.02016593405329267,True
6492,105988,0,105986,3392.0,40600.0,29067.0,0.002623,-0.000732,0.0013419999999999999,0.29750000000000004,-1.8725000000000003,-3.7975000000000003,1.064125,0.15662500000000001,0.044125,1.28896875,1.02578125,-0.27503125,-0.44915625000000003,1.2675625,0.017781902958415346,0.020175798500203866,True
6493,105989,0,105987,3392.0,40604.0,29068.0,0.0021349999999999997,0.000183,0.00061,0.29750000000000004,-1.5225000000000002,-3.7975000000000003,1.0649375,0.15962500000000002,0.043812500000000004,1.290125,1.01565625,-0.2740625,-0.44928125,1.2673125,0.01786629246752578,0.020168026411819365,True
6494,105990,0,105988,3394.0,40604.0,29068.0,6.1e-05,-0.000122,0.000366,0.21000000000000002,-1.2425000000000002,-3.7625,1.0690625,0.1608125,0.04459375,1.28990625,1.03459375,-0.2745,-0.44928125,1.26725,0.01793291313930256,0.020199980316394785,True
6495,105991,0,105989,3394.0,40605.0,29068.0,-0.002623,-0.001037,-6.1e-05,0.12250000000000001,-0.9975,-3.7625,1.06853125,0.15365625,0.04071875,1.2938125,1.02646875,-0.27925,-0.44856250000000003,1.2748125000000001,0.017830297476239997,0.02001267968208765,True
6496,105992,0,105990,3396.0,40604.0,29067.0,-0.003904,-0.001037,-0.000122,0.22750000000000004,-1.0675000000000001,-3.7450000000000006,1.06534375,0.155875,0.0483125,1.2895625,1.0304375000000001,-0.27403125,-0.4491875,1.26721875,0.01771054200154744,0.02034832445863487,True
6497,105993,0,105991,3396.0,40606.0,29070.0,-0.004148,0.000183,0.00122,0.31500000000000006,-1.2075,-3.6750000000000003,1.06375,0.15984375,0.04028125,1.29409375,1.0268125000000001,-0.27509375,-0.45206250000000003,1.2744375000000001,0.017917026582029164,0.020135060181528656,True
6498,105994,0,105992,3395.0,40607.0,29070.0,-0.0013419999999999999,-0.00122,-0.000549,0.2625,-1.8550000000000002,-3.7800000000000002,1.07234375,0.15371875000000002,0.0429375,1.288875,1.03521875,-0.2784375,-0.45225,1.2679375,0.01780000257430076,0.02025120387694384,True
6499,105995,0,105993,3396.0,40606.0,29073.0,0.000976,0.0,-0.000488,0.2625,-2.1,-3.7100000000000004,1.0639375,0.15621875,0.040125,1.2960625000000001,1.02665625,-0.2676875,-0.45,1.27325,0.017467929319594216,0.020046012269938653,True
6500,105996,0,105994,3397.0,40605.0,29073.0,0.003477,0.0,-0.000915,0.3325,-2.3625000000000003,-3.7450000000000006,1.063375,0.15621875,0.043875000000000004,1.29178125,1.03125,-0.2721875,-0.4495,1.2669062500000001,0.01765008819250428,0.020179349270946237,True
6501,105997,0,105995,3397.0,40608.0,29073.0,0.0030499999999999998,0.0013419999999999999,6.1e-05,0.29750000000000004,-2.5725000000000002,-3.6225000000000005,1.06253125,0.154125,0.04484375,1.288375,1.032,-0.27665625,-0.4448125,1.26809375,0.017744669841012393,0.02003109044096779,True
6502,105998,0,105996,3397.0,40608.0,29072.0,0.004758,0.000549,0.0,0.12250000000000001,-2.3975000000000004,-3.7450000000000006,1.06815625,0.1538125,0.04175,1.2790000000000001,1.01559375,-0.27828125,-0.45209375,1.2707187500000001,0.01779754281411498,0.02019637888882215,True
6503,105999,0,105997,3398.0,40607.0,29075.0,0.003294,0.000549,-0.002745,0.31500000000000006,-1.9425000000000001,-3.7450000000000006,1.06384375,0.15621875,0.047406250000000004,1.28809375,1.0306250000000001,-0.26934375,-0.44906250000000003,1.268125,0.017534981760683164,0.02030624896148881,True
6504,106000,0,105998,3400.0,40612.0,29076.0,0.000183,0.001769,0.000793,0.31500000000000006,-1.4875,-3.7975000000000003,1.0651875,0.15234375,0.040375,1.2904375000000001,1.02621875,-0.27484375,-0.45059375,1.2725,0.017597950553234768,0.020080033843758907,True
6505,106001,0,105999,3401.0,40611.0,29079.0,-0.003965,-6.1e-05,0.002196,0.2625,-1.0675000000000001,-3.8150000000000004,1.055625,0.15696875,0.043562500000000004,1.2758125,1.02628125,-0.2733125,-0.4488125,1.26015625,0.017726515488975806,0.020139014931706806,True
6506,106002,0,106000,3401.0,40610.0,29078.0,-0.007869,-0.000366,0.003111,0.22750000000000004,-1.0675000000000001,-3.7625,1.06490625,0.15165625,0.044625,1.28928125,1.025875,-0.2749375,-0.45103125,1.27240625,0.017573423206547905,0.020271384259099502,True
6507,106003,0,106001,3402.0,40611.0,29079.0,-0.004514,-0.002074,0.001098,0.21000000000000002,-1.1375000000000002,-3.7800000000000002,1.06453125,0.156125,0.04440625,1.2888125,1.0270625,-0.27284375,-0.449125,1.2599375,0.017672785043985628,0.020186049603002153,True
6508,106004,0,106002,3404.0,40611.0,29080.0,-0.000793,6.1e-05,0.001403,0.15750000000000003,-2.0825,-3.7275000000000005,1.0640625,0.1540625,0.043562500000000004,1.28928125,1.02734375,-0.27818750000000003,-0.4521875,1.26765625,0.017804047357324347,0.020274259716027452,True
6509,106005,0,106003,3403.0,40611.0,29080.0,-0.001647,0.0017079999999999999,-0.000305,0.2625,-2.3275,-3.7625,1.0638750000000001,0.15146875,0.04471875,1.29575,1.02634375,-0.275125,-0.45521875,1.28059375,0.017573287470198404,0.020442978045330306,True
6510,106006,0,106004,3405.0,40613.0,29080.0,0.001098,-0.0008539999999999999,-0.001281,0.15750000000000003,-2.6775,-3.7450000000000006,1.0639687500000001,0.15640625,0.044125,1.28934375,1.01875,-0.27290625,-0.44896875,1.2649375,0.017686901419149182,0.0201682841939908,True
6511,106007,0,106005,3403.0,40611.0,29083.0,0.007076,-0.000549,-0.0008539999999999999,0.17500000000000002,-2.8175000000000003,-3.6400000000000006,1.06421875,0.15496875000000002,0.04,1.29521875,1.02575,-0.27271875,-0.45803125,1.27359375,0.017620090456492436,0.020362687614114482,True
6512,106008,0,106006,3406.0,40616.0,29085.0,0.00976,-0.00042699999999999997,-0.0008539999999999999,0.24500000000000002,-2.6775,-3.7275000000000005,1.062,0.1563125,0.04425,1.29521875,1.03790625,-0.2715,-0.44756250000000003,1.27675,0.017626125290979133,0.020117036207597385,True
6513,106009,0,106007,3408.0,40618.0,29088.0,0.000244,0.001037,-0.0006709999999999999,0.29750000000000004,-2.1175,-3.6400000000000006,1.06828125,0.16365625,0.0410625,1.2951875,1.03575,-0.27209375,-0.45306250000000003,1.28440625,0.017952715760254513,0.020207080401483453,True
6514,106010,0,106008,3408.0,40616.0,29085.0,-0.00061,0.0023179999999999997,-0.002562,0.28,-1.6275000000000002,-3.7975000000000003,1.06615625,0.15653125,0.043625000000000004,1.2845312500000001,1.025125,-0.27175,-0.44825,1.25809375,0.017645256316499634,0.02011902692421748,True
6515,106011,0,106009,3409.0,40617.0,29088.0,-0.0013419999999999999,0.001647,-0.00122,0.3325,-1.3125000000000002,-3.7450000000000006,1.0641875,0.15240625,0.0416875,1.288875,1.0350625,-0.28296875,-0.4524375,1.2570625,0.01792923280848846,0.020207596890903002,True
6516,106012,0,106010,3409.0,40620.0,29089.0,-0.0006709999999999999,-0.000976,0.0023179999999999997,0.29750000000000004,-1.0150000000000001,-3.6225000000000005,1.064125,0.1565625,0.04428125,1.29090625,1.019125,-0.27384375,-0.44521875,1.28140625,0.017731277107689215,0.02002436570546132,True
6517,106013,0,106011,3410.0,40620.0,29090.0,-0.000915,-0.002562,0.001586,0.22750000000000004,-0.7175,-3.6225000000000005,1.0714062500000001,0.15278125,0.04365625,1.28953125,1.045125,-0.280625,-0.44871875,1.25340625,0.017849880305799377,0.02013909215590285,True
6518,106014,0,106012,3411.0,40618.0,29089.0,-0.006527,-0.000244,0.002379,0.3325,-0.6825000000000001,-3.6925000000000003,1.06390625,0.15571875000000002,0.04278125,1.29446875,1.02003125,-0.27434375,-0.45371875,1.28,0.017716750839041735,0.020303660358406632,True
6519,106015,0,106013,3412.0,40619.0,29088.0,-0.006893,0.000915,0.0015249999999999999,0.24500000000000002,-0.9800000000000001,-3.8150000000000004,1.0656875000000001,0.15671875,0.04453125,1.2916875,1.04196875,-0.27396875,-0.4464375,1.2688125000000001,0.017742772285640352,0.020083447741618795,True
6520,106016,0,106014,3413.0,40616.0,29087.0,-0.004575,-0.000122,0.001464,0.24500000000000002,-1.5575,-3.6750000000000003,1.0695937500000001,0.15678125,0.04425,1.2923125,1.0303437500000001,-0.27125,-0.446375,1.2645,0.01763531956532935,0.020069437697818184,True
6521,106017,0,106015,3412.0,40617.0,29086.0,0.001403,-0.000976,0.00122,0.22750000000000004,-2.0125,-3.6575,1.07115625,0.15403125,0.047156250000000004,1.2891875,1.036375,-0.27740625,-0.44959375,1.264125,0.017771152962438072,0.020317310998265566,True
6522,106018,0,106016,3410.0,40618.0,29084.0,0.004514,-0.000549,-0.002074,0.21000000000000002,-2.3625000000000003,-3.8150000000000004,1.0634375,0.1524375,0.04215625,1.2921875,1.02171875,-0.27718750000000003,-0.4485,1.2726250000000001,0.01769665452392292,0.020068971511544676,True
6523,106019,0,106017,3408.0,40617.0,29084.0,0.0042699999999999995,0.0013419999999999999,-0.001403,0.31500000000000006,-2.555,-3.8500000000000005,1.0643125,0.15646875,0.042125,1.293375,1.0260625,-0.27465625,-0.44959375,1.274375,0.017760292692095277,0.02011153048299627,True
6524,106020,0,106018,3408.0,40617.0,29084.0,0.00366,0.001586,-0.000366,0.24500000000000002,-2.4850000000000003,-3.9025000000000003,1.06375,0.15628125,0.04378125,1.292875,1.02715625,-0.27096875,-0.448875,1.268,0.01760333526036121,0.020150467046029723,True
6525,106021,0,106019,3407.0,40615.0,29080.0,0.000122,0.0011589999999999999,0.000366,0.28,-2.3275,-3.9025000000000003,1.06303125,0.15678125,0.04403125,1.2885625,1.03446875,-0.27421875,-0.4481875,1.2669375,0.01775546329374658,0.020133138704045036,True
6526,106022,0,106020,3405.0,40616.0,29081.0,0.0,0.001037,0.00042699999999999997,0.2625,-2.1875,-3.8500000000000005,1.06440625,0.1558125,0.0429375,1.29475,1.0263125,-0.27025,-0.451625,1.262625,0.017554928358793173,0.020226160837981115,True
6527,106023,0,106021,3404.0,40612.0,29078.0,-0.000366,0.0008539999999999999,0.000183,0.29750000000000004,-2.2750000000000004,-3.9200000000000004,1.063625,0.1613125,0.043375000000000004,1.2938125,1.0274375,-0.275,-0.4494375,1.27425,0.01797373841400618,0.020156394191072905,True
6528,106024,0,106022,3402.0,40612.0,29077.0,-6.1e-05,0.000122,0.000732,0.07,-2.2750000000000004,-3.9375000000000004,1.06321875,0.15675,0.04365625,1.294375,1.0323125,-0.27484375,-0.449375,1.27403125,0.01777946562477874,0.020165392775888955,True
6529,106025,0,106023,3401.0,40609.0,29077.0,0.000244,-0.001464,-0.000366,0.0175,-2.3275,-3.8150000000000004,1.063625,0.1565,0.0446875,1.293125,1.0343437500000001,-0.273875,-0.44925,1.2610000000000001,0.017729966888269794,0.020202562450790922,True
6530,106026,0,106024,3400.0,40610.0,29075.0,0.002196,-0.001403,-0.00061,0.15750000000000003,-2.345,-3.6575,1.0705,0.15490625,0.044625,1.2886875,1.0331875,-0.27690625,-0.44671875,1.2679375,0.01778696575062978,0.020098556171265314,True
6531,106027,0,106025,3399.0,40612.0,29077.0,0.00122,-0.000488,0.000183,0.1925,-2.345,-3.6575,1.0635625,0.154,0.04034375,1.27775,1.02703125,-0.2770625,-0.45125,1.27584375,0.017755957912947665,0.020105055978733192,True
6532,106028,0,106026,3397.0,40611.0,29076.0,-0.0006709999999999999,0.000183,-0.00042699999999999997,0.24500000000000002,-2.1875,-3.6925000000000003,1.0730625,0.15215625,0.0411875,1.2994375,1.0293125,-0.27818750000000003,-0.45184375,1.27609375,0.01772553037577455,0.020163356802081644,True
6533,106029,0,106027,3396.0,40611.0,29076.0,0.0026839999999999998,-0.001281,6.1e-05,0.08750000000000001,-2.0125,-3.6750000000000003,1.07525,0.1525625,0.0450625,1.29540625,1.033625,-0.27553125,-0.45078125,1.2734375,0.017634783996745694,0.020279259992970575,True
6534,106030,0,106028,3394.0,40611.0,29073.0,0.002745,-0.001647,-0.002196,0.15750000000000003,-1.995,-3.7450000000000006,1.06296875,0.15712500000000001,0.04615625,1.29265625,1.03259375,-0.27665625,-0.45265625,1.2730937500000001,0.017868245343713677,0.02039911308203991,True
6535,106031,0,106029,3395.0,40611.0,29076.0,0.001952,-0.00042699999999999997,-0.0023179999999999997,0.17500000000000002,-1.7675,-3.7800000000000002,1.0729375,0.15378125,0.04025,1.2981562500000001,1.0331875,-0.27840625,-0.45253125,1.27575,0.017801312637644822,0.020152566004797562,True
6536,106032,0,106030,3394.0,40610.0,29074.0,0.000305,0.000183,-6.1e-05,0.1925,-1.4175000000000002,-3.7800000000000002,1.07346875,0.15028125,0.039593750000000004,1.29884375,1.02321875,-0.2774375,-0.45446875000000003,1.27075,0.01761795288320689,0.020203362626718277,True
6537,106033,0,106031,3394.0,40611.0,29075.0,-0.002562,0.003294,0.0013419999999999999,0.22750000000000004,-1.0325000000000002,-3.8500000000000005,1.07575,0.15334375,0.037125,1.29065625,1.0343437500000001,-0.27575,-0.45075,1.2675625,0.017675818460809657,0.01995337566332321,True
6538,106034,0,106032,3392.0,40611.0,29075.0,-0.003111,0.001281,0.001464,0.2625,-0.8925000000000001,-3.8850000000000002,1.04903125,0.15709375,0.04378125,1.2873125,1.0260625,-0.27518750000000003,-0.45003125,1.2675,0.017807534957248013,0.020196804451937053,True
6539,106035,0,106033,3392.0,40612.0,29075.0,-0.002562,0.0011589999999999999,0.000488,0.385,-1.0675000000000001,-3.8675,1.0610625,0.15440625,0.04528125,1.2900625000000001,1.02603125,-0.27668750000000003,-0.450125,1.27184375,0.017757519430935544,0.02026191072642778,True
6540,106036,0,106034,3391.0,40610.0,29074.0,-0.000915,-0.00042699999999999997,0.000732,0.385,-1.2950000000000002,-3.8500000000000005,1.06878125,0.15453125,0.0389375,1.29740625,1.03084375,-0.2770625,-0.4496875,1.27153125,0.01777784070869365,0.019984918007643248,True
6541,106037,0,106035,3389.0,40611.0,29074.0,0.000122,-0.001647,-0.000244,0.35000000000000003,-1.4525000000000001,-3.7275000000000005,1.0751875,0.14984375,0.04059375,1.29628125,1.0305625,-0.27690625,-0.45203125,1.27228125,0.017578434237270246,0.020146588026301496,True
6542,106038,0,106036,3391.0,40610.0,29074.0,0.002013,-0.002745,-0.001647,0.36750000000000005,-1.8200000000000003,-3.6050000000000004,1.07375,0.15490625,0.04403125,1.28728125,1.026125,-0.2753125,-0.44915625000000003,1.26746875,0.017722480400612764,0.02017196401205052,True
6543,106039,0,106037,3389.0,40612.0,29075.0,0.0023179999999999997,-6.1e-05,-0.000793,0.29750000000000004,-1.6625,-3.6925000000000003,1.0659375,0.1551875,0.04059375,1.2944375000000001,1.0266250000000001,-0.27553125,-0.44959375,1.2685,0.01774291757260719,0.020048901630523003,True
6544,106040,0,106038,3387.0,40610.0,29075.0,0.001281,0.000244,0.000366,0.36750000000000005,-1.61,-3.7100000000000004,1.0685,0.15309375,0.0421875,1.2907187500000001,1.02984375,-0.27521875,-0.450125,1.27128125,0.01764402226035553,0.020135377630993705,True
6545,106041,0,106039,3387.0,40609.0,29075.0,0.0006709999999999999,6.1e-05,0.00042699999999999997,0.2625,-1.2950000000000002,-3.6575,1.06703125,0.15596875000000002,0.0424375,1.28915625,1.0293125,-0.277,-0.452625,1.27075,0.017834524447007456,0.020245781383389307,True
6546,106042,0,106040,3388.0,40610.0,29074.0,-0.00042699999999999997,0.0008539999999999999,-0.00042699999999999997,0.35000000000000003,-1.1900000000000002,-3.7450000000000006,1.064375,0.15634375,0.040625,1.29421875,1.02715625,-0.27396875,-0.452125,1.28046875,0.017727323637590164,0.020151622813968113,True
6547,106043,0,106041,3387.0,40610.0,29075.0,-0.0030499999999999998,0.00042699999999999997,0.001037,0.2625,-1.0325000000000002,-3.9025000000000003,1.06846875,0.153,0.04134375,1.296875,1.04046875,-0.28090625,-0.45759375,1.28528125,0.017870265859619636,0.02040010579536264,True
6548,106044,0,106042,3388.0,40612.0,29076.0,-0.00244,-0.00042699999999999997,0.001647,0.24500000000000002,-1.0675000000000001,-3.7800000000000002,1.07003125,0.1605625,0.044125,1.289625,1.04125,-0.26990625,-0.44790625,1.2626875,0.017736728999519728,0.020125700948317407,True
6549,106045,0,106043,3389.0,40613.0,29074.0,-0.002745,-0.000915,0.000183,0.1925,-1.225,-3.7275000000000005,1.0645625,0.1631875,0.04353125,1.29171875,1.0181875,-0.27728125,-0.4538125,1.28659375,0.018143248639095447,0.02033808634134248,True
6550,106046,0,106044,3388.0,40612.0,29079.0,-0.0017079999999999999,-0.000793,-6.1e-05,0.22750000000000004,-1.61,-3.7625,1.0713125000000001,0.1530625,0.04334375,1.2829062500000001,1.0479687500000001,-0.27740625,-0.44990625,1.26053125,0.017731249605793455,0.020173901484796083,True
6551,106047,0,106045,3388.0,40612.0,29079.0,0.001586,-0.000976,-0.000915,0.42000000000000004,-2.0125,-3.7450000000000006,1.06453125,0.1569375,0.04578125,1.294125,1.0141875,-0.27590625,-0.4556875,1.2863125,0.017830178842447954,0.02050519945513697,True
6552,106048,0,106046,3388.0,40612.0,29077.0,0.0051849999999999995,0.000244,-0.000732,0.36750000000000005,-2.0825,-3.7800000000000002,1.06434375,0.15653125,0.0444375,1.28959375,1.03753125,-0.2691875,-0.4436875,1.25715625,0.017541532859309775,0.019969368369645538,True
6553,106049,0,106047,3389.0,40613.0,29078.0,0.004331,-0.000305,-0.002074,0.12250000000000001,-1.8900000000000001,-3.7625,1.06428125,0.1528125,0.04046875,1.295125,1.01975,-0.28246875,-0.459,1.27821875,0.01792574117901418,0.020420652929392043,True
6554,106050,0,106048,3389.0,40615.0,29079.0,0.003294,-0.001037,-0.0026839999999999998,0.2625,-1.5750000000000002,-3.7275000000000005,1.0639375,0.15671875,0.04359375,1.2945312500000001,1.01415625,-0.27115625,-0.45028125,1.28575,0.017628950001094407,0.020199154150834155,True
6555,106051,0,106049,3389.0,40613.0,29080.0,0.002013,0.0,-0.000793,0.36750000000000005,-1.0850000000000002,-3.7275000000000005,1.06465625,0.15678125,0.04328125,1.29590625,1.03590625,-0.26478125,-0.4505,1.28953125,0.017373430885555586,0.02019513915870841,True
6556,106052,0,106050,3389.0,40612.0,29079.0,-0.002623,0.002074,0.002074,0.4025,-0.7350000000000001,-3.8325000000000005,1.071125,0.15659375,0.0445625,1.28965625,1.04153125,-0.27075,-0.44390625,1.26059375,0.01760735659178229,0.01998325247217801,True
6557,106053,0,106051,3389.0,40611.0,29078.0,-0.0059169999999999995,-0.000183,0.001952,0.43750000000000006,-0.6125,-3.6925000000000003,1.0649375,0.1523125,0.04459375,1.28909375,1.02675,-0.285625,-0.44975,1.25871875,0.0180327868852459,0.020218765018047216,True
6558,106054,0,106052,3390.0,40611.0,29077.0,-0.003477,0.000305,-0.000915,0.43750000000000006,-0.7875000000000001,-3.7975000000000003,1.0597812500000001,0.15696875,0.04065625,1.2933125,1.01403125,-0.27425,-0.45487500000000003,1.28040625,0.01776445204280256,0.02026308660338685,True
6559,106055,0,106053,3389.0,40614.0,29078.0,-0.002196,0.00122,-0.000244,0.45500000000000007,-1.1025,-3.7975000000000003,1.064,0.1563125,0.04034375,1.29159375,1.02425,-0.2715625,-0.44984375,1.26859375,0.017628654933113597,0.020048696630218753,True
6560,106056,0,106054,3390.0,40614.0,29080.0,-0.002013,-6.1e-05,0.000915,0.36750000000000005,-1.4700000000000002,-3.7975000000000003,1.06434375,0.15284375,0.041875,1.2885312500000001,1.020125,-0.275625,-0.4524375,1.27334375,0.017650163487036893,0.020215264838116854,True
6561,106057,0,106055,3390.0,40614.0,29080.0,0.00061,-0.002196,0.0008539999999999999,0.28,-1.7850000000000001,-3.7275000000000005,1.05734375,0.1595,0.0445625,1.2901562500000001,1.02678125,-0.27565625,-0.4519375,1.2747187500000001,0.017925622505055864,0.02030513941891108,True
6562,106058,0,106056,3391.0,40613.0,29080.0,0.006222,-0.000732,-0.002196,0.24500000000000002,-2.1175,-3.7275000000000005,1.0638750000000001,0.1553125,0.0418125,1.28125,1.02609375,-0.27446875,-0.450125,1.27484375,0.01770507336025634,0.020120040286092607,True
6563,106059,0,106057,3392.0,40617.0,29081.0,0.0032329999999999998,-0.000122,-0.002257,0.31500000000000006,-1.995,-3.7100000000000004,1.065,0.1565,0.044125,1.2943437500000001,1.032875,-0.27403125,-0.44940625,1.26765625,0.017736289682003272,0.020185817395872344,True
6564,106060,0,106058,3391.0,40616.0,29080.0,0.000488,0.000488,-0.002074,0.3325,-1.715,-3.6575,1.064125,0.15615625,0.04378125,1.2886875,1.02928125,-0.27884375,-0.4518125,1.2664375,0.017916833457112223,0.020268180528539553,True
6565,106061,0,106059,3391.0,40616.0,29080.0,0.001403,0.000915,0.00122,0.28,-1.2775,-3.7800000000000002,1.0637812500000001,0.15478125,0.04153125,1.2896875,1.0259375,-0.275375,-0.45387500000000003,1.2748125000000001,0.017719860146341714,0.020258803563852356,True
6566,106062,0,106060,3393.0,40617.0,29079.0,-0.000976,0.001037,0.000549,0.4025,-1.0325000000000002,-3.7800000000000002,1.06475,0.15565625,0.04390625,1.29390625,1.0290625,-0.27425,-0.44321875,1.2675,0.017710382401104053,0.019928840181901164,True
6567,106063,0,106061,3394.0,40616.0,29080.0,-0.004941,0.000976,0.000793,0.3325,-0.7525000000000001,-3.8325000000000005,1.06453125,0.1565,0.04309375,1.28721875,1.03290625,-0.27396875,-0.4424375,1.26196875,0.01773376057427774,0.0198642729474096,True
6568,106064,0,106062,3394.0,40615.0,29082.0,-0.004575,-0.000122,0.003721,0.22750000000000004,-0.9800000000000001,-3.8150000000000004,1.0643125,0.1559375,0.043750000000000004,1.2909375,1.0323125,-0.26909375,-0.44940625,1.26759375,0.01751327241051183,0.02017047960009254,True
6569,106065,0,106063,3394.0,40616.0,29081.0,-0.002013,-0.0018909999999999999,0.0028669999999999998,0.2625,-1.1900000000000002,-3.7100000000000004,1.0646875,0.15671875,0.039156250000000004,1.3005625,1.0335625,-0.27696875,-0.4493125,1.267875,0.017864153653861747,0.019978833760663003,True
6570,106066,0,106064,3395.0,40616.0,29082.0,-0.000305,-0.00042699999999999997,-0.0021349999999999997,0.21000000000000002,-1.54,-3.6925000000000003,1.06465625,0.1571875,0.04209375,1.30315625,1.027,-0.27525,-0.44940625,1.26696875,0.017813925706223418,0.020102737668731732,True
6571,106067,0,106065,3396.0,40617.0,29082.0,-0.00042699999999999997,0.000976,-0.0021349999999999997,0.17500000000000002,-1.8550000000000002,-3.7450000000000006,1.060625,0.1585625,0.0476875,1.30328125,1.03290625,-0.27221875,-0.44934375,1.2672812500000001,0.01774791396027609,0.020329022123548816,True
6572,106068,0,106066,3396.0,40618.0,29087.0,0.004026,-0.001037,0.000122,0.22750000000000004,-2.31,-3.7275000000000005,1.05171875,0.1580625,0.03890625,1.303,1.03196875,-0.27759375000000003,-0.44415625000000003,1.26740625,0.01794478705287669,0.019761880715355028,True
6573,106069,0,106067,3397.0,40619.0,29085.0,0.002928,-0.000305,0.000366,0.24500000000000002,-2.3275,-3.8675,1.05896875,0.1585,0.04184375,1.2968125,1.033,-0.2753125,-0.44934375,1.26675,0.017870521749205084,0.020090007528320672,True
6574,106070,0,106068,3399.0,40619.0,29087.0,0.000793,0.000122,0.000366,0.12250000000000001,-2.2575000000000003,-3.9725000000000006,1.073125,0.15871875,0.047125,1.30334375,1.03159375,-0.27959375000000003,-0.44946875000000003,1.26809375,0.018052711446211903,0.0203110241403507,True
6575,106071,0,106069,3399.0,40620.0,29088.0,-0.0011589999999999999,0.000915,-0.0013419999999999999,0.2625,-2.2750000000000004,-3.9200000000000004,1.07215625,0.1585625,0.04509375,1.2985312500000001,1.02884375,-0.27721875,-0.45071875,1.26778125,0.01795021309844234,0.020278033749007888,True
6576,106072,0,106070,3399.0,40623.0,29088.0,-0.000793,-0.000183,-0.00042699999999999997,0.22750000000000004,-2.3800000000000003,-3.7450000000000006,1.0815625,0.15340625,0.047843750000000004,1.2845312500000001,1.0259375,-0.27875,-0.45075,1.275625,0.017799773464449366,0.020391756899072626,True
6577,106073,0,106071,3400.0,40622.0,29088.0,0.0018909999999999999,-0.000305,-0.000305,0.22750000000000004,-2.3975000000000004,-3.8500000000000005,1.0575625,0.1571875,0.04684375,1.2965,1.03534375,-0.2768125,-0.44834375,1.26175,0.017877140996166614,0.0202544395261949,True
6578,106074,0,106072,3399.0,40623.0,29089.0,0.002379,-0.001281,-0.002074,0.24500000000000002,-2.415,-3.7625,1.07875,0.1560625,0.0455,1.30109375,1.0259375,-0.27603125,-0.448875,1.26846875,0.017799192361807492,0.020220766804198556,True
6579,106075,0,106073,3400.0,40623.0,29091.0,0.0028669999999999998,-0.000122,-0.000915,0.10500000000000001,-2.3275,-3.7800000000000002,1.06584375,0.16059375,0.04584375,1.293,1.0269375,-0.27528125000000003,-0.44546875,1.267875,0.01795550772455005,0.020098305539753662,True
6580,106076,0,106074,3403.0,40626.0,29091.0,0.002379,-0.000244,0.000183,0.14,-2.0825,-3.7800000000000002,1.0728125,0.15265625,0.0475,1.2826875,1.025625,-0.27675,-0.45284375,1.27103125,0.01768796276272565,0.020461577193859097,True
6581,106077,0,106075,3403.0,40625.0,29093.0,0.000488,-6.1e-05,-0.00061,0.2625,-1.7325000000000002,-3.7275000000000005,1.0575,0.15496875000000002,0.04396875,1.29175,1.02659375,-0.27468750000000003,-0.450375,1.2595625,0.017699764415092887,0.02021824818637751,True
6582,106078,0,106076,3404.0,40627.0,29091.0,-0.000915,-0.000305,0.000183,0.21000000000000002,-1.3825,-3.8675,1.05840625,0.15653125,0.04040625,1.2955,1.0318125,-0.273875,-0.44715625000000003,1.26846875,0.01773125428057943,0.019943526151431214,True
6583,106079,0,106077,3404.0,40628.0,29095.0,-0.003172,0.000244,-0.000549,0.3325,-1.2950000000000002,-3.7625,1.06678125,0.157,0.04421875,1.28884375,1.03178125,-0.27659375,-0.44946875000000003,1.26796875,0.01786056785664175,0.020192156526918404,True
6584,106080,0,106078,3405.0,40628.0,29095.0,-0.0026839999999999998,0.000183,0.001037,0.35000000000000003,-1.3825,-3.8325000000000005,1.07003125,0.15325,0.04175,1.2916875,1.0265625,-0.2725625,-0.450625,1.274375,0.01754295616707136,0.02013752204698244,True
6585,106081,0,106079,3406.0,40629.0,29096.0,-0.0018909999999999999,0.000183,0.000976,0.21000000000000002,-1.3125000000000002,-3.7625,1.06440625,0.15584375,0.04096875,1.28475,1.03084375,-0.274625,-0.45103125,1.2750625,0.017733281152643963,0.020121850688812972,True
6586,106082,0,106080,3407.0,40628.0,29098.0,-0.0025009999999999998,0.000305,0.000122,0.36750000000000005,-1.5225000000000002,-3.9375000000000004,1.06421875,0.156125,0.04034375,1.2935,1.033,-0.274875,-0.4505,1.2744375000000001,0.0177549832903362,0.020074998466289032,True
6587,106083,0,106081,3406.0,40628.0,29096.0,0.002623,0.000488,-0.0006709999999999999,0.1925,-1.8550000000000002,-3.8325000000000005,1.06484375,0.15665625,0.04353125,1.29271875,1.03334375,-0.27596875,-0.4434375,1.26878125,0.017821121968613508,0.019922269525307148,True
6588,106084,0,106082,3407.0,40630.0,29101.0,0.003477,-0.00061,0.000244,0.24500000000000002,-1.7850000000000001,-3.8325000000000005,1.06921875,0.153,0.04403125,1.2821875,1.02815625,-0.274125,-0.4535,1.268,0.017595896865489485,0.020346013863046193,True
6589,106085,0,106083,3409.0,40630.0,29102.0,0.001098,0.0,-0.00042699999999999997,0.12250000000000001,-1.6975000000000002,-3.8850000000000002,1.06465625,0.15171875,0.0404375,1.29534375,1.0234375,-0.27515625,-0.45321875,1.2730625,0.01758485076692349,0.020187782027672737,True
6590,106086,0,106084,3408.0,40630.0,29103.0,0.001403,0.000915,-0.000366,0.052500000000000005,-1.5925000000000002,-3.9025000000000003,1.0639687500000001,0.15628125,0.0468125,1.293875,1.02990625,-0.27371875,-0.44975,1.2680625,0.01771463220896057,0.020309512367202114,True
6591,106087,0,106085,3409.0,40631.0,29104.0,-0.0006709999999999999,6.1e-05,6.1e-05,0.35000000000000003,-1.54,-3.8675,1.0651875,0.1568125,0.047343750000000004,1.28075,1.0322500000000001,-0.27868750000000003,-0.45096875000000003,1.26171875,0.01793754295820151,0.020380071852981286,True
6592,106088,0,106086,3412.0,40632.0,29105.0,-0.002562,0.0006709999999999999,0.000793,0.29750000000000004,-1.4175000000000002,-3.8850000000000002,1.0684375,0.15325,0.043937500000000004,1.28821875,1.02603125,-0.2798125,-0.45290625,1.268,0.017836319782123525,0.020318392624598558,True
6593,106089,0,106087,3412.0,40632.0,29105.0,-0.0013419999999999999,-0.0008539999999999999,-0.000122,0.21000000000000002,-1.54,-3.8500000000000005,1.0730625,0.15525,0.04421875,1.28953125,1.0269062500000001,-0.2778125,-0.4519375,1.2715625,0.01783778913359678,0.020291081228225778,True
6594,106090,0,106088,3413.0,40634.0,29105.0,0.000183,-0.001098,0.00042699999999999997,0.29750000000000004,-1.7675,-3.7275000000000005,1.0615937500000001,0.1560625,0.043312500000000004,1.2944375000000001,1.02609375,-0.27490625,-0.4495,1.26834375,0.017753673096059845,0.02015634266549418,True
6595,106091,0,106089,3413.0,40634.0,29106.0,0.0013419999999999999,-6.1e-05,-0.000366,0.31500000000000006,-1.8375000000000001,-3.8850000000000002,1.07021875,0.15784375,0.046968750000000004,1.2891875,1.03084375,-0.277125,-0.44915625000000003,1.2690625,0.017916814696962675,0.020292111307522117,True
6596,106092,0,106090,3416.0,40636.0,29108.0,0.001098,0.00061,0.000488,0.24500000000000002,-1.8375000000000001,-3.9200000000000004,1.06553125,0.15240625,0.0413125,1.2887187500000001,1.0255625,-0.27546875,-0.45115625000000004,1.2739375,0.01762581824501329,0.02014091869377343,True
6597,106093,0,106091,3416.0,40637.0,29106.0,-0.0006709999999999999,-0.001037,-0.000976,0.2625,-1.8375000000000001,-3.9375000000000004,1.06415625,0.1585625,0.0428125,1.28990625,1.0263125,-0.2744375,-0.451875,1.26640625,0.017837694488286288,0.020231066124785934,True
6598,106094,0,106092,3417.0,40634.0,29109.0,-0.000305,-0.000122,-0.000183,0.2625,-1.8200000000000003,-3.8850000000000002,1.06434375,0.154875,0.04046875,1.2923125,1.02190625,-0.27596875,-0.45034375,1.27528125,0.017747746935948744,0.020073848654990793,True
6599,106095,0,106093,3416.0,40636.0,29108.0,0.000122,0.00042699999999999997,-0.00061,0.3325,-1.7675,-3.9025000000000003,1.06409375,0.1565625,0.047343750000000004,1.29371875,1.0345,-0.26940625,-0.45021875,1.268125,0.017551675785228576,0.02035002243078091,True
6600,106096,0,106094,3417.0,40634.0,29110.0,0.000549,-0.000732,0.0006709999999999999,0.47250000000000003,-1.8725000000000003,-3.8675,1.06928125,0.15634375,0.0425625,1.29309375,1.0323437500000001,-0.277875,-0.44984375,1.27215625,0.017885368880101737,0.0201394436314138,True
6601,106097,0,106095,3419.0,40636.0,29110.0,-0.000183,0.000488,0.000976,0.385,-1.8375000000000001,-3.9025000000000003,1.065,0.15721875,0.04103125,1.29065625,1.03246875,-0.2743125,-0.44946875000000003,1.27359375,0.017777279995056502,0.020061785596057174,True
6602,106098,0,106096,3420.0,40638.0,29111.0,-0.0011589999999999999,0.000976,-0.0011589999999999999,0.36750000000000005,-1.8725000000000003,-3.8675,1.0648125,0.1560625,0.043812500000000004,1.2921875,1.02240625,-0.27390625,-0.450375,1.27340625,0.017713207984396826,0.0202118576913442,True
6603,106099,0,106097,3419.0,40640.0,29111.0,0.0011589999999999999,-0.000305,-0.0006709999999999999,0.17500000000000002,-1.9250000000000003,-3.8675,1.064,0.1569375,0.04415625,1.29203125,1.0286875,-0.26959375,-0.44971875,1.26809375,0.017574717335348888,0.020199618860646404,True
6604,106100,0,106098,3421.0,40642.0,29114.0,0.001647,-0.000366,0.001769,0.31500000000000006,-2.0825,-3.8500000000000005,1.068875,0.16240625,0.0441875,1.28909375,1.03446875,-0.2775,-0.44953125,1.26703125,0.0181199155596746,0.020193383053100457,True
6605,106101,0,106099,3423.0,40642.0,29116.0,-0.000305,0.000183,0.000305,0.24500000000000002,-2.1350000000000002,-3.8500000000000005,1.0685625,0.15578125,0.04384375,1.2926875,1.03240625,-0.27871875,-0.4481875,1.2670625,0.017896331535205087,0.02012546942385811,True
6606,106102,0,106100,3422.0,40643.0,29117.0,0.000183,0.0008539999999999999,0.000366,0.22750000000000004,-2.0300000000000002,-3.9025000000000003,1.07053125,0.15737500000000001,0.043625000000000004,1.2885625,1.03696875,-0.2760625,-0.44825,1.26540625,0.01785452233038204,0.02011902692421748,True
6607,106103,0,106101,3424.0,40640.0,29116.0,-0.0028669999999999998,0.000366,0.000549,0.10500000000000001,-2.1175,-3.9025000000000003,1.07909375,0.160875,0.04303125,1.288125,1.032375,-0.27828125,-0.447375,1.2650937500000001,0.01808844067163939,0.02005966898286626,True
6608,106104,0,106102,3425.0,40644.0,29115.0,-0.0042699999999999995,-0.001037,0.002379,-0.0175,-2.3800000000000003,-3.8500000000000005,1.08809375,0.15784375,0.04475,1.3,1.02559375,-0.28021875,-0.45234375,1.2574687500000001,0.018041950301621562,0.02032908399629381,True
6609,106105,0,106103,3426.0,40644.0,29119.0,-0.000305,-0.001952,-0.000366,-0.07,-2.6250000000000004,-3.7975000000000003,1.0795937500000001,0.16003125,0.039156250000000004,1.30721875,1.01853125,-0.280875,-0.44746875,1.2649375,0.018158581599715826,0.01990492369480992,True
6610,106106,0,106104,3427.0,40646.0,29122.0,0.005246,-0.000366,-0.000976,-0.21000000000000002,-2.9400000000000004,-3.8150000000000004,1.0525625,0.15890625,0.0315,1.2976875,1.036,-0.2795625,-0.44840625,1.26778125,0.018059170135376203,0.01962934700498115,True
6611,106107,0,106105,3428.0,40650.0,29124.0,0.002074,0.0008539999999999999,-0.001647,-0.21000000000000002,-2.9575000000000005,-3.7625,1.04071875,0.15762500000000002,0.0313125,1.2913125,1.03865625,-0.27725,-0.44428125,1.2670000000000001,0.017912860805898528,0.019456237847042448,True
6612,106108,0,106106,3428.0,40652.0,29127.0,0.00549,6.1e-05,-0.00042699999999999997,-0.17500000000000002,-2.6950000000000003,-3.8150000000000004,1.0519687500000001,0.15578125,0.03409375,1.2988125,1.03959375,-0.270125,-0.4491875,1.2749062500000001,0.017548580816950883,0.019766761165376148,True
6613,106109,0,106107,3431.0,40655.0,29131.0,0.003538,-0.0021349999999999997,0.002257,-0.14,-2.3275,-3.8150000000000004,1.0534375,0.16028125000000001,0.04553125,1.307625,1.03871875,-0.27790625,-0.44775000000000004,1.2650000000000001,0.018048817533431245,0.02017695902485914,True
6614,106110,0,106108,3432.0,40657.0,29133.0,-0.002928,-0.002379,0.000305,0.0175,-2.345,-3.7275000000000005,1.0744375,0.1640625,0.04253125,1.3016875,1.0355625,-0.279625,-0.445875,1.2655625,0.018274067247743737,0.01997908645119064,True
6615,106111,0,106109,3433.0,40659.0,29134.0,-0.005307,0.0017079999999999999,-0.002257,0.1925,-2.1,-3.7625,1.08784375,0.15471875000000002,0.04803125,1.27903125,1.02390625,-0.27696875,-0.45003125,1.27146875,0.017781771045860078,0.02037062836064882,True
6616,106112,0,106110,3434.0,40658.0,29135.0,0.003355,-0.000366,-0.0017079999999999999,0.3325,-2.1525000000000003,-3.7625,1.0537812500000001,0.149125,0.0368125,1.3077812500000001,1.02625,-0.27340625,-0.449,1.26146875,0.0174071675663567,0.0198704445989611,True
6617,106113,0,106111,3435.0,40662.0,29139.0,0.0040869999999999995,-0.00122,-0.000244,0.28,-2.0125,-3.7800000000000002,1.07015625,0.16121875,0.0494375,1.2790000000000001,1.03096875,-0.27778125,-0.45296875000000003,1.26821875,0.01808237727654787,0.020545818184141754,True
6618,106114,0,106112,3437.0,40664.0,29140.0,0.001586,-0.000122,0.000915,0.24500000000000002,-1.6975000000000002,-3.9375000000000004,1.05190625,0.15665625,0.04071875,1.30059375,1.0268125000000001,-0.27428125000000003,-0.44925,1.2675,0.017752842836489754,0.020040236408069775,True
6619,106115,0,106113,3438.0,40663.0,29140.0,-0.0023179999999999997,0.00061,0.0,0.385,-1.5225000000000002,-3.8675,1.06415625,0.1553125,0.04846875,1.27446875,1.0285625,-0.273,-0.4509375,1.26803125,0.017645635067770775,0.020424830336260115,True
6620,106116,0,106114,3438.0,40665.0,29141.0,-0.0034159999999999998,0.0,0.000732,0.29750000000000004,-1.33,-3.8675,1.0558750000000001,0.15056250000000002,0.04284375,1.2894375,1.0261875,-0.274625,-0.45303125,1.2686250000000001,0.0175157185744373,0.02027867199490861,True
6621,106117,0,106115,3438.0,40663.0,29141.0,-0.0032329999999999998,0.000549,0.00061,0.36750000000000005,-1.2425000000000002,-3.7450000000000006,1.0518125,0.15571875000000002,0.04065625,1.28915625,1.02696875,-0.276,-0.45315625,1.2745625,0.01778376791893228,0.020194223393963713,True
6622,106118,0,106116,3440.0,40666.0,29140.0,-0.0044529999999999995,-0.001464,0.0017079999999999999,0.29750000000000004,-1.3825,-3.8325000000000005,1.064,0.1568125,0.040875,1.2961875,1.02634375,-0.27409375,-0.45125,1.2631875000000001,0.017751692583785957,0.020126782884310617,True
6623,106119,0,106117,3438.0,40663.0,29140.0,-0.000549,-0.000549,0.0011589999999999999,0.1925,-1.6975000000000002,-3.9200000000000004,1.06428125,0.156,0.03975,1.2900625000000001,1.0349375,-0.27465625,-0.450875,1.274875,0.017740982428947887,0.020065744068463807,True
6624,106120,0,106118,3438.0,40666.0,29140.0,0.002196,-0.000366,0.000366,0.22750000000000004,-1.9600000000000002,-3.9200000000000004,1.064,0.15621875,0.0396875,1.29496875,1.01765625,-0.2748125,-0.450875,1.2733125,0.017756316346418742,0.020063187922722603,True
6625,106121,0,106119,3439.0,40664.0,29139.0,0.001769,0.000732,-0.000122,0.28,-2.1875,-3.8500000000000005,1.0648125,0.15509375,0.04159375,1.2925,1.02578125,-0.27365625,-0.44478125,1.2755625,0.01766318166427853,0.019896884943488707,True
6626,106122,0,106120,3439.0,40665.0,29138.0,0.003111,0.000976,-0.001586,0.3325,-2.1875,-3.9025000000000003,1.06425,0.15759375,0.041875,1.28903125,1.028875,-0.27471875,-0.45403125,1.27353125,0.017809166172110643,0.02027912064600801,True
6627,106123,0,106121,3437.0,40662.0,29136.0,0.001769,0.000122,-0.00122,0.29750000000000004,-2.1525000000000003,-3.8675,1.0605625,0.15565625,0.039406250000000004,1.2901562500000001,1.02696875,-0.27046875,-0.454125,1.2669375,0.017557345282010674,0.02018192227282718,True
6628,106124,0,106122,3436.0,40663.0,29133.0,-0.000183,0.000732,-0.000732,0.35000000000000003,-1.8725000000000003,-3.9200000000000004,1.065625,0.15687500000000001,0.043562500000000004,1.2963125,1.0325625,-0.27468750000000003,-0.45090625,1.2690000000000001,0.01777829271746547,0.02022292118518102,True
6629,106125,0,106123,3434.0,40662.0,29133.0,-0.002379,0.000488,-0.000305,0.36750000000000005,-1.715,-3.99,1.07134375,0.1565,0.04334375,1.288125,1.033375,-0.2758125,-0.45009375,1.26803125,0.017808363777731435,0.020181415459807797,True
6630,106126,0,106124,3432.0,40663.0,29133.0,-0.0013419999999999999,-0.001647,0.0011589999999999999,0.31500000000000006,-1.6975000000000002,-4.0075,1.07146875,0.15371875000000002,0.04259375,1.28965625,1.02946875,-0.27525,-0.45321875,1.26796875,0.01767103325403446,0.020275960603345928,True
6631,106127,0,106125,3435.0,40662.0,29132.0,-0.000366,-0.000366,6.1e-05,0.2625,-1.9425000000000001,-4.0075,1.0640625,0.1520625,0.04203125,1.2921562500000001,1.0265312500000001,-0.26887500000000003,-0.453125,1.27234375,0.017344747129811332,0.02024920127795527,True
6632,106128,0,106126,3432.0,40661.0,29130.0,0.000183,0.000732,0.001098,0.3325,-2.0475000000000003,-4.0425,1.06428125,0.155875,0.039625,1.29546875,1.0270625,-0.2748125,-0.45046875000000003,1.27246875,0.01774215557792671,0.0200443498654806,True
6633,106129,0,106127,3428.0,40658.0,29126.0,0.0023179999999999997,-0.000244,0.000305,0.3325,-2.1175,-3.9550000000000005,1.06625,0.16178125000000002,0.04059375,1.29471875,1.0327187500000001,-0.27428125000000003,-0.45125,1.27203125,0.01796397164179681,0.020115280404887272,True
6634,106130,0,106128,3428.0,40656.0,29129.0,0.001769,-0.000915,-0.000976,0.28,-2.2225,-3.9375000000000004,1.0679375,0.1569375,0.04215625,1.293875,1.0205312500000001,-0.27471875,-0.44953125,1.2754375,0.017782131873309553,0.02011030375071097,True
6635,106131,0,106129,3426.0,40658.0,29128.0,0.002074,0.00042699999999999997,-0.000793,0.10500000000000001,-2.0475000000000003,-3.9725000000000006,1.064,0.15665625,0.04103125,1.28915625,1.031625,-0.27465625,-0.45253125,1.2684375,0.017768016797354236,0.02018451566236113,True
6636,106132,0,106130,3425.0,40657.0,29126.0,0.00122,-6.1e-05,-0.0023179999999999997,0.08750000000000001,-1.5575,-3.9200000000000004,1.06346875,0.15340625,0.04478125,1.2900625000000001,1.027125,-0.27428125000000003,-0.44928125,1.2689375,0.01761895627702674,0.020207649253492884,True
6637,106133,0,106131,3424.0,40657.0,29126.0,0.0013419999999999999,-0.000488,-0.001464,0.15750000000000003,-1.3125000000000002,-3.8675,1.06371875,0.15540625,0.040875,1.294875,1.02640625,-0.27503125,-0.452375,1.27146875,0.01773169704982357,0.020171864696169595,True
6638,106134,0,106132,3423.0,40657.0,29127.0,-0.0006709999999999999,0.000366,0.001098,0.052500000000000005,-0.9275000000000001,-3.9375000000000004,1.06375,0.15640625,0.04303125,1.294875,1.0309375,-0.274125,-0.44965625000000004,1.2694375,0.01773622118201995,0.0201511013063834,True
6639,106135,0,106133,3421.0,40655.0,29125.0,-0.004209,0.000183,0.001647,0.12250000000000001,-0.7175,-3.9025000000000003,1.07221875,0.15862500000000002,0.04359375,1.28971875,1.03090625,-0.27515625,-0.4505,1.26765625,0.01786934945063433,0.020207920083433875,True
6640,106136,0,106134,3420.0,40657.0,29127.0,-0.005307,-0.001281,0.001281,0.10500000000000001,-0.8925000000000001,-3.8150000000000004,1.071,0.1543125,0.0441875,1.2886875,1.027,-0.27296875,-0.452375,1.26803125,0.017603172253085025,0.02030733210986663,True
6641,106137,0,106135,3422.0,40658.0,29129.0,6.1e-05,0.000183,0.00042699999999999997,0.15750000000000003,-1.2600000000000002,-3.8325000000000005,1.0593125,0.1535,0.043250000000000004,1.28796875,1.0229375,-0.27884375,-0.4485,1.26840625,0.017807427505685893,0.02011370840746876,True
6642,106138,0,106136,3419.0,40660.0,29130.0,0.0017079999999999999,-0.000732,-0.000183,0.12250000000000001,-1.4000000000000001,-3.7800000000000002,1.06525,0.15215625,0.04409375,1.28878125,1.0263125,-0.2806875,-0.44515625000000003,1.25940625,0.017826667799254035,0.020014189927708072,True
6643,106139,0,106137,3418.0,40661.0,29128.0,0.004392,-0.0011589999999999999,-0.002562,0.12250000000000001,-1.4875,-3.7100000000000004,1.06515625,0.15225,0.043625000000000004,1.289625,1.02421875,-0.28378125,-0.4476875,1.26434375,0.017955657132268064,0.02009648151793498,True
6644,106140,0,106138,3418.0,40661.0,29129.0,0.0057339999999999995,0.000549,-0.001464,0.2625,-1.4875,-3.7100000000000004,1.0636875000000001,0.15434375,0.04246875,1.290125,1.0216875,-0.28359375000000003,-0.45234375,1.263625,0.018034295273943957,0.020235790280839643,True
6645,106141,0,106139,3419.0,40661.0,29131.0,0.0032329999999999998,0.000732,0.000366,0.385,-1.1375000000000002,-3.8500000000000005,1.07071875,0.155,0.043187500000000004,1.28478125,1.0414375,-0.275875,-0.445875,1.26171875,0.017749102761486456,0.020005931471055956,True
6646,106142,0,106140,3418.0,40660.0,29129.0,-0.004209,-0.000244,0.0006709999999999999,0.4025,-0.6300000000000001,-3.8675,1.0701875,0.1534375,0.04359375,1.2855,1.03890625,-0.27990625,-0.44606250000000003,1.261875,0.01784783456484722,0.020030066191641292,True
6647,106143,0,106141,3419.0,40660.0,29131.0,-0.004148,0.000732,0.000915,0.3325,-0.525,-3.99,1.06996875,0.1569375,0.044,1.28840625,1.04315625,-0.26846875,-0.44628125,1.26159375,0.017529175589209762,0.020055453219495298,True
6648,106144,0,106142,3418.0,40661.0,29131.0,-0.003294,0.0,0.001037,0.35000000000000003,-0.45500000000000007,-3.9200000000000004,1.0695000000000001,0.154625,0.04390625,1.28884375,1.0355625,-0.27668750000000003,-0.44571875,1.2633125,0.0177665301330752,0.020029069507314035,True
6649,106145,0,106143,3417.0,40662.0,29131.0,-0.004209,0.000915,0.002623,0.35000000000000003,-0.77,-3.7800000000000002,1.0718750000000001,0.154375,0.0444375,1.28753125,1.04240625,-0.277875,-0.446625,1.2630000000000001,0.01780427652749674,0.020087128591369973,True
6650,106146,0,106144,3417.0,40659.0,29132.0,-0.001769,-0.000732,0.000915,0.29750000000000004,-1.155,-3.8500000000000005,1.06640625,0.15325,0.04446875,1.2883437500000001,1.02771875,-0.2816875,-0.44975,1.2620625,0.017912161170841195,0.020213652491334264,True
6651,106147,0,106145,3416.0,40660.0,29131.0,0.00244,-0.0013419999999999999,-0.000915,0.31500000000000006,-2.1350000000000002,-3.8500000000000005,1.0636875000000001,0.155125,0.04553125,1.2894375,1.02553125,-0.28128125,-0.448375,1.26259375,0.017972949841763397,0.020202007290873118,True
6652,106148,0,106146,3418.0,40661.0,29133.0,0.0021349999999999997,0.0011589999999999999,-0.000305,0.35000000000000003,-2.2925000000000004,-3.9025000000000003,1.07071875,0.1575625,0.043000000000000003,1.29584375,1.03571875,-0.275875,-0.44765625000000003,1.268375,0.017854660233668197,0.020069664142140415,True
6653,106149,0,106147,3419.0,40660.0,29132.0,0.002928,0.001281,-0.001281,0.36750000000000005,-2.3975000000000004,-3.8150000000000004,1.07096875,0.1570625,0.045,1.2895625,1.0394375,-0.276625,-0.446875,1.2720625,0.01786440660511912,0.020120158506966638,True
6654,106150,0,106148,3417.0,40660.0,29134.0,0.005978,-6.1e-05,-0.001464,0.31500000000000006,-2.2925000000000004,-3.7975000000000003,1.07021875,0.15684375,0.04225,1.295625,1.01990625,-0.27340625,-0.44878125,1.2718125,0.01772515960754375,0.02008407883317292,True
6655,106151,0,106149,3417.0,40665.0,29132.0,0.0060999999999999995,-0.000366,-0.0018909999999999999,0.4025,-1.995,-3.8150000000000004,1.06421875,0.15621875,0.0404375,1.29203125,1.0306250000000001,-0.273375,-0.4515,1.2654375,0.01769814663185486,0.020118908860397116,True
6656,106152,0,106150,3418.0,40661.0,29133.0,-0.001098,0.001037,0.000915,0.4025,-1.1900000000000002,-3.7975000000000003,1.0644375,0.1546875,0.04121875,1.290125,1.027625,-0.27409375,-0.45206250000000003,1.26771875,0.017664150695636167,0.020173400505581075,True
6657,106153,0,106151,3417.0,40663.0,29135.0,-0.003294,0.0006709999999999999,0.0026839999999999998,0.35000000000000003,-0.8575,-3.8150000000000004,1.0658125,0.153875,0.04271875,1.2901562500000001,1.02709375,-0.27453125,-0.44978125,1.268,0.017648384044491077,0.020143329503203633,True
6658,106154,0,106152,3418.0,40663.0,29135.0,-0.003294,0.000366,0.0006709999999999999,0.36750000000000005,-0.7175,-3.8675,1.0701875,0.1566875,0.04303125,1.2921562500000001,1.03190625,-0.27546875,-0.44859375,1.26759375,0.017802179412086533,0.020108518511417452,True
6659,106155,0,106153,3418.0,40660.0,29135.0,-0.0030499999999999998,-0.001037,-0.000915,0.385,-0.7175,-3.7975000000000003,1.06996875,0.15690625,0.04340625,1.295375,1.033625,-0.27328125000000003,-0.45,1.26878125,0.017722676039111936,0.02018021472392638,True
6660,106156,0,106154,3418.0,40661.0,29134.0,-0.0017079999999999999,-0.00061,0.000305,0.2625,-0.7175,-3.7625,1.06403125,0.1625,0.0446875,1.295125,1.03546875,-0.275,-0.4501875,1.2727187500000001,0.018022657054582905,0.020240131082839345,True
6661,106157,0,106155,3419.0,40662.0,29134.0,-0.001037,-0.000488,0.001098,0.42000000000000004,-0.8575,-3.7800000000000002,1.06425,0.1561875,0.043000000000000003,1.29334375,1.03528125,-0.27425,-0.44621875,1.27475,0.017732267732267736,0.020012041739583958,True
6662,106158,0,106156,3419.0,40661.0,29133.0,0.000976,-0.001586,0.00061,0.5075000000000001,-1.0150000000000001,-3.6575,1.06459375,0.15596875000000002,0.0411875,1.28884375,1.03134375,-0.274625,-0.451375,1.2741875,0.017738430562779035,0.02014457264673255,True
6663,106159,0,106157,3420.0,40659.0,29134.0,0.00061,6.1e-05,-0.0015249999999999999,0.5075000000000001,-1.1375000000000002,-3.7450000000000006,1.0638125,0.1529375,0.04503125,1.289375,1.02615625,-0.2755,-0.4516875,1.26821875,0.017648967065559927,0.020314293236407512,True
6664,106160,0,106158,3420.0,40658.0,29134.0,-0.001098,0.0006709999999999999,-0.0013419999999999999,0.5075000000000001,-1.1025,-3.7800000000000002,1.064375,0.15978125,0.03925,1.2864375000000001,1.026375,-0.27509375,-0.4534375,1.26375,0.017914451926678964,0.02014798532926097,True
6665,106161,0,106159,3422.0,40660.0,29132.0,-0.002196,0.001769,0.0006709999999999999,0.5425000000000001,-1.1725,-3.7100000000000004,1.06325,0.14971875,0.04396875,1.2882500000000001,1.026875,-0.274875,-0.4531875,1.26990625,0.017491078738819457,0.020330938451275527,True
6666,106162,0,106160,3423.0,40661.0,29134.0,0.0013419999999999999,-0.001037,0.0013419999999999999,0.3325,-1.2600000000000002,-3.6750000000000003,1.0635000000000001,0.15234375,0.04153125,1.282875,1.02609375,-0.27528125000000003,-0.45146875000000003,1.267625,0.017615655843328283,0.02016238799560865,True
6667,106163,0,106161,3423.0,40657.0,29134.0,0.000915,0.0,-0.00183,0.36750000000000005,-1.2600000000000002,-3.7275000000000005,1.06265625,0.15275,0.04,1.28675,1.0264375000000001,-0.27203125,-0.4521875,1.27590625,0.01750085296219285,0.020128567229414546,True
6668,106164,0,106162,3423.0,40661.0,29135.0,-6.1e-05,0.001403,-0.000793,0.35000000000000003,-1.2600000000000002,-3.7450000000000006,1.061125,0.1549375,0.0383125,1.2882500000000001,1.01840625,-0.27503125,-0.45159375,1.27578125,0.01771238708498058,0.02003575942774691,True
6669,106165,0,106163,3421.0,40661.0,29135.0,0.0025009999999999998,-0.000183,-0.000122,0.22750000000000004,-1.3125000000000002,-3.7450000000000006,1.0566875,0.15156250000000002,0.04065625,1.28675,1.0276875,-0.2743125,-0.4529375,1.27346875,0.017544266186735463,0.02018545829105399,True
6670,106166,0,106164,3424.0,40660.0,29137.0,0.00244,-0.0013419999999999999,-0.000549,0.28,-1.1375000000000002,-3.6750000000000003,1.05984375,0.14934375,0.04003125,1.28746875,1.02028125,-0.27521875,-0.452375,1.27065625,0.017489543734801567,0.02013735884551092,True
6671,106167,0,106165,3424.0,40662.0,29136.0,-0.0011589999999999999,-0.000183,0.000915,0.5425000000000001,-0.9975,-3.7450000000000006,1.06384375,0.1506875,0.04515625,1.28753125,1.0268125000000001,-0.27578125000000003,-0.453125,1.27146875,0.017567663244617514,0.020376996805111822,True
6672,106168,0,106166,3424.0,40660.0,29134.0,-0.003355,0.001281,0.000122,0.56,-0.8575,-3.7100000000000004,1.0615,0.14975,0.047093750000000004,1.28684375,1.02675,-0.27484375,-0.45134375,1.2673125,0.01749110125580108,0.020384871485846254,True
6673,106169,0,106167,3426.0,40660.0,29134.0,-0.004026,0.0017079999999999999,0.000488,0.43750000000000006,-0.77,-3.7450000000000006,1.06528125,0.15059375,0.04059375,1.28784375,1.02021875,-0.27465625,-0.448125,1.27075,0.017518270727314624,0.01999002991026919,True
6674,106170,0,106168,3426.0,40660.0,29134.0,-0.0034159999999999998,-0.000122,0.000244,0.4025,-0.9625000000000001,-3.7800000000000002,1.0636875000000001,0.15340625,0.0445625,1.28603125,1.0250625,-0.27521875,-0.451375,1.268125,0.017656895470818362,0.020282601694178753,True
6675,106171,0,106169,3424.0,40662.0,29135.0,0.001647,-0.000366,0.000122,0.385,-1.1025,-3.7275000000000005,1.07403125,0.15465625,0.04628125,1.2871875,1.0258125,-0.2775625,-0.45078125,1.26821875,0.01780321850680026,0.020329105026040836,True
6676,106172,0,106170,3425.0,40663.0,29137.0,0.00183,0.00122,6.1e-05,0.1925,-1.2600000000000002,-3.6225000000000005,1.058125,0.15225,0.04134375,1.2887187500000001,1.02675,-0.2748125,-0.44546875,1.2693125,0.017592823837465275,0.019914222344376196,True
6677,106173,0,106171,3425.0,40661.0,29137.0,0.0011589999999999999,-0.000488,-0.001037,0.1925,-1.2950000000000002,-3.7975000000000003,1.0635937500000001,0.15384375,0.0411875,1.2965625,1.02615625,-0.274875,-0.45271875,1.273375,0.017661007523210724,0.020198418631875034,True
6678,106174,0,106172,3427.0,40661.0,29137.0,0.002379,-0.00061,-0.000183,0.28,-1.4525000000000001,-3.6750000000000003,1.066875,0.1566875,0.04275,1.28984375,1.03309375,-0.27484375,-0.4491875,1.26865625,0.01777689094291287,0.020120811785667724,True
6679,106175,0,106173,3427.0,40664.0,29138.0,0.000305,-0.0006709999999999999,0.000244,0.4025,-1.4700000000000002,-3.7625,1.07209375,0.154625,0.046,1.289875,1.0275,-0.2799375,-0.4441875,1.2686250000000001,0.017898007356897026,0.020053335787904587,True
6680,106176,0,106174,3426.0,40662.0,29140.0,-0.002196,0.0011589999999999999,-0.000488,0.49000000000000005,-1.5225000000000002,-3.8150000000000004,1.0641875,0.15715625,0.04121875,1.28928125,1.0267187500000001,-0.28303125,-0.46178125000000003,1.25878125,0.018127370321610898,0.02056268899060652,True
6681,106177,0,106175,3428.0,40664.0,29138.0,-0.0023179999999999997,-0.000183,-0.000549,0.43750000000000006,-1.4700000000000002,-3.8150000000000004,1.06478125,0.15634375,0.04021875,1.29421875,1.02340625,-0.27271875,-0.4543125,1.27934375,0.01767673841645778,0.020222660113630265,True
6682,106178,0,106176,3428.0,40663.0,29140.0,0.000244,-0.000305,0.00061,0.4025,-1.4700000000000002,-3.7100000000000004,1.0641875,0.15603125,0.0425,1.29190625,1.0149062500000001,-0.26840625,-0.45334375,1.2900625000000001,0.017489302578326503,0.02027713490102964,True
6683,106179,0,106177,3430.0,40662.0,29139.0,0.001098,-0.00061,0.00061,0.42000000000000004,-1.6975000000000002,-3.7275000000000005,1.0704375,0.15503125,0.043812500000000004,1.2887187500000001,1.04428125,-0.27971875,-0.44421875,1.2575625,0.01790589110510187,0.01996509910957985,True
6684,106180,0,106178,3430.0,40662.0,29139.0,0.002196,-0.0015249999999999999,-6.1e-05,0.36750000000000005,-1.8725000000000003,-3.6400000000000006,1.06453125,0.15515625,0.0416875,1.2894375,1.03759375,-0.27759375000000003,-0.44940625,1.2526875,0.017825077907484138,0.02008612172330361,True
6685,106181,0,106179,3431.0,40663.0,29142.0,0.0021349999999999997,0.0,-0.00042699999999999997,0.43750000000000006,-1.7850000000000001,-3.6050000000000004,1.06071875,0.155625,0.0428125,1.29184375,1.014,-0.26734375,-0.44903125,1.2814375,0.017429544591175128,0.020117105866924688,True
6686,106182,0,106180,3433.0,40664.0,29143.0,0.000976,0.00183,0.000122,0.5075000000000001,-1.5050000000000001,-3.7975000000000003,1.0726875,0.1544375,0.04803125,1.28878125,1.04696875,-0.27668750000000003,-0.452375,1.25665625,0.017758806674098352,0.020464525429533944,True
6687,106183,0,106181,3433.0,40665.0,29141.0,-0.0015249999999999999,0.000244,0.000488,0.47250000000000003,-1.2425000000000002,-3.6925000000000003,1.0645625,0.156,0.043437500000000004,1.29309375,1.0140625,-0.27190625,-0.44953125,1.26059375,0.01762969276465461,0.02016270761837203,True
6688,106184,0,106182,3431.0,40664.0,29141.0,-0.001464,-0.000732,0.0006709999999999999,0.56,-1.12,-3.6400000000000006,1.07203125,0.16215625,0.045,1.2881562500000001,1.0505625,-0.27921875,-0.442625,1.25875,0.01817912695399229,0.019949780352969453,True
6689,106185,0,106183,3432.0,40665.0,29141.0,-0.001769,0.000549,-0.000244,0.45500000000000007,-0.9975,-3.7100000000000004,1.06409375,0.153375,0.04275,1.29140625,1.0218125,-0.28146875,-0.45571875,1.28109375,0.017908461571131278,0.020382502558834018,True
6690,106186,0,106184,3433.0,40665.0,29142.0,-0.00244,0.0011589999999999999,0.001586,0.42000000000000004,-0.8925000000000001,-3.7800000000000002,1.06225,0.15628125,0.039281250000000004,1.29459375,1.01440625,-0.2711875,-0.45359375,1.2828125000000001,0.017612189350026654,0.020155524175255426,True
6691,106187,0,106185,3434.0,40666.0,29143.0,-0.000549,-0.000549,0.000732,0.31500000000000006,-0.9100000000000001,-3.6575,1.06540625,0.15525,0.04296875,1.29575,1.0285,-0.26987500000000003,-0.44965625000000004,1.27190625,0.017516571469774773,0.020148545033225163,True
6692,106188,0,106186,3436.0,40664.0,29145.0,0.000366,-0.000183,-0.00061,0.3325,-1.155,-3.7800000000000002,1.06546875,0.15690625,0.04284375,1.28903125,1.0229062500000001,-0.273375,-0.44396875,1.2645,0.0177264698460762,0.019915444377255637,True
6693,106189,0,106187,3436.0,40664.0,29145.0,-0.00061,-0.000976,-0.001037,0.28,-1.225,-3.8150000000000004,1.0645625,0.15628125,0.04253125,1.2945312500000001,1.023375,-0.2745625,-0.44953125,1.2656875,0.017748775080910315,0.020125641468075182,True
6694,106190,0,106188,3437.0,40665.0,29145.0,-0.002013,-0.000488,-0.000244,0.4025,-1.4000000000000001,-3.7450000000000006,1.06928125,0.15409375,0.041875,1.29446875,1.0265625,-0.27540625,-0.4539375,1.274125,0.017692803802202076,0.020275364652420497,True
6695,106191,0,106189,3437.0,40666.0,29145.0,0.001098,0.000793,0.000244,0.42000000000000004,-2.0125,-3.7100000000000004,1.06996875,0.15378125,0.04625,1.29228125,1.0310625,-0.27721875,-0.4515,1.274375,0.01775326920428231,0.020356624337975176,True
6696,106192,0,106190,3439.0,40665.0,29144.0,0.0034159999999999998,0.000183,-0.0006709999999999999,0.35000000000000003,-2.1700000000000004,-3.6575,1.0650625,0.1558125,0.04196875,1.289125,1.03359375,-0.27675,-0.45034375,1.2671875000000001,0.017817973987457134,0.020135197485720423,True
6697,106193,0,106191,3439.0,40665.0,29146.0,0.0073809999999999995,-0.001281,-0.0021349999999999997,0.29750000000000004,-2.2225,-3.6750000000000003,1.06528125,0.15578125,0.04240625,1.29028125,1.0261875,-0.27484375,-0.44928125,1.2680625,0.017739558055857727,0.02011050938358362,True
6698,106194,0,106192,3439.0,40665.0,29146.0,0.005612,-0.0008539999999999999,-0.001464,0.2625,-1.9600000000000002,-3.7275000000000005,1.06975,0.1540625,0.04240625,1.2866250000000001,1.02646875,-0.27575,-0.4516875,1.267375,0.017705426196924914,0.020206938682657383,True
6699,106195,0,106193,3440.0,40667.0,29146.0,0.000549,0.00061,-0.0017079999999999999,0.28,-1.5050000000000001,-3.7100000000000004,1.0700625,0.1575625,0.043937500000000004,1.2885312500000001,1.0336875,-0.2788125,-0.45387500000000003,1.2739375,0.01797349026028353,0.0203572031017579,True
6700,106196,0,106194,3438.0,40667.0,29145.0,-0.004758,0.00042699999999999997,0.002257,0.28,-0.6475000000000001,-3.8150000000000004,1.06490625,0.1535,0.040625,1.28990625,1.0266875,-0.27468750000000003,-0.4515,1.26371875,0.01763925900178942,0.02012657710160931,True
6701,106197,0,106195,3440.0,40667.0,29146.0,-0.0040869999999999995,-0.000732,0.000366,0.43750000000000006,-0.7350000000000001,-3.7100000000000004,1.06525,0.15659375,0.0425625,1.2824375000000001,1.0325312500000001,-0.2743125,-0.44953125,1.2589375,0.017751532612921582,0.020126919611188863,True
6702,106198,0,106196,3442.0,40666.0,29146.0,-0.0048189999999999995,0.000549,0.000366,0.525,-0.8750000000000001,-3.6925000000000003,1.07334375,0.160375,0.04425,1.28759375,1.0261875,-0.276625,-0.45384375,1.27609375,0.0180008547316606,0.02036873037597617,True
6703,106199,0,106197,3440.0,40667.0,29146.0,-0.004331,0.0011589999999999999,0.002013,0.5075000000000001,-1.0325000000000002,-3.7625,1.06175,0.147125,0.0401875,1.3015,1.02603125,-0.27265625,-0.451875,1.26984375,0.017294409218191767,0.020123712394243796,True
6704,106200,0,106198,3443.0,40668.0,29146.0,-0.002623,0.00042699999999999997,0.001647,0.45500000000000007,-1.4875,-3.6925000000000003,1.0594375,0.15828125,0.04503125,1.29028125,1.0329375,-0.277625,-0.44871875,1.2691875000000001,0.017955061502103277,0.02019533232186247,True
6705,106201,0,106199,3444.0,40666.0,29146.0,0.002806,6.1e-05,-0.001769,0.28,-2.345,-3.6925000000000003,1.0759375,0.1484375,0.0481875,1.2841875,1.0273125,-0.27518750000000003,-0.4524375,1.275125,0.01745094656838387,0.020473419060983183,True
6706,106202,0,106200,3444.0,40666.0,29145.0,0.0040869999999999995,0.000366,-0.00183,0.3325,-2.5725000000000002,-3.7100000000000004,1.05825,0.15284375,0.04,1.29803125,1.03184375,-0.27490625,-0.44865625000000003,1.2726250000000001,0.01762107732135938,0.019987039164984784,True
6707,106203,0,106201,3444.0,40666.0,29147.0,0.0050019999999999995,-0.000366,-0.000732,0.21000000000000002,-2.5900000000000003,-3.6925000000000003,1.0588125,0.15784375,0.03884375,1.3034375,1.034875,-0.27703125,-0.45009375,1.2676875,0.017913022211066273,0.01999736708576015,True
6708,106204,0,106202,3445.0,40668.0,29149.0,0.006161,-0.001281,-0.001647,0.15750000000000003,-2.5200000000000005,-3.7800000000000002,1.0735000000000001,0.15903125,0.04453125,1.304125,1.0275625,-0.278125,-0.45228125,1.2679375,0.018006178401338654,0.020317633963088826,True
6709,106205,0,106203,3446.0,40669.0,29150.0,0.004941,-0.000305,-0.00244,0.2625,-2.1700000000000004,-3.7800000000000002,1.0794062500000001,0.1590625,0.0535,1.2882500000000001,1.0269375,-0.27640625,-0.44996875000000003,1.26846875,0.017937941288159155,0.02059179523491211,True
6710,106206,0,106204,3445.0,40669.0,29151.0,-0.001281,0.002074,0.0013419999999999999,0.43750000000000006,-1.2075,-3.9200000000000004,1.07859375,0.1554375,0.043937500000000004,1.2844375000000001,1.0266250000000001,-0.275375,-0.45428125,1.27609375,0.017746893714309254,0.020373477548026483,True
6711,106207,0,106205,3447.0,40669.0,29149.0,-0.004514,0.0,0.002196,0.47250000000000003,-0.9625000000000001,-3.8150000000000004,1.0576875000000001,0.15746875,0.04565625,1.27365625,1.03565625,-0.2775,-0.4494375,1.26778125,0.01791653794665843,0.02024969899614255,True
6712,106208,0,106206,3447.0,40669.0,29150.0,-0.005429,0.000183,0.001647,0.47250000000000003,-0.77,-3.8325000000000005,1.05928125,0.1528125,0.038,1.3005,1.02609375,-0.27453125,-0.45015625000000004,1.26815625,0.017604613889300128,0.019965363207034723,True
6713,106209,0,106207,3450.0,40668.0,29150.0,-0.0042699999999999995,0.00061,0.000549,0.6125,-0.77,-3.7975000000000003,1.07665625,0.15290625,0.045875,1.2863437500000001,1.027,-0.27718750000000003,-0.4516875,1.27425,0.017715962773694444,0.020348800057255763,True
6714,106210,0,106208,3449.0,40667.0,29150.0,-0.001403,0.000366,-0.00061,0.49000000000000005,-0.805,-3.7100000000000004,1.05703125,0.15784375,0.0461875,1.28784375,1.032,-0.27734375,-0.4493125,1.26696875,0.017925663716814158,0.02026641853426349,True
6715,106211,0,106209,3450.0,40666.0,29149.0,-0.002745,-0.000915,0.000732,0.35000000000000003,-1.1900000000000002,-3.8150000000000004,1.0613125,0.15590625,0.044875,1.29709375,1.0267187500000001,-0.27468750000000003,-0.45040625,1.2738125,0.017738384891669564,0.020256565266681407,True
6716,106212,0,106210,3450.0,40664.0,29151.0,-0.002196,-0.000183,0.0017079999999999999,0.36750000000000005,-1.4700000000000002,-3.7800000000000002,1.06490625,0.15637500000000001,0.043250000000000004,1.29109375,1.03325,-0.27478125000000003,-0.45,1.2609062500000001,0.017761488581900197,0.020173824130879345,True
6717,106213,0,106211,3451.0,40666.0,29151.0,0.000549,-0.000244,-0.000305,0.31500000000000006,-1.5750000000000002,-3.7975000000000003,1.07096875,0.15684375,0.04340625,1.292125,1.0205625,-0.27768750000000003,-0.44953125,1.2685625,0.017898378912736233,0.020161429475258345,True
6718,106214,0,106212,3451.0,40666.0,29150.0,0.004026,-0.0006709999999999999,-0.001647,0.2625,-1.8550000000000002,-3.7450000000000006,1.07125,0.15665625,0.04328125,1.2874375,1.0268125000000001,-0.278625,-0.453125,1.26434375,0.01792857915141405,0.02030031948881789,True
6719,106215,0,106213,3451.0,40665.0,29153.0,0.0025009999999999998,0.000976,-0.0013419999999999999,0.31500000000000006,-1.8375000000000001,-3.7975000000000003,1.0694375,0.152625,0.03975,1.28303125,1.0178125,-0.2755,-0.45346875000000003,1.27434375,0.01763609400424296,0.020169684515617035,True
6720,106216,0,106214,3453.0,40667.0,29154.0,0.0015249999999999999,0.0011589999999999999,0.000488,0.49000000000000005,-1.8200000000000003,-3.7625,1.0593125,0.1544375,0.04115625,1.29209375,1.027125,-0.27371875,-0.45071875,1.274875,0.017638675573762263,0.020116995538219096,True
6721,106217,0,106215,3453.0,40665.0,29155.0,0.00183,0.00122,-0.000122,0.56,-1.715,-3.7100000000000004,1.06590625,0.15625,0.04328125,1.2884375000000001,1.03328125,-0.2774375,-0.44984375,1.26859375,0.017863808731872956,0.020168840547293884,True
6722,106218,0,106216,3453.0,40668.0,29155.0,0.0008539999999999999,0.000732,-6.1e-05,0.49000000000000005,-1.4000000000000001,-3.7625,1.07103125,0.1525,0.04184375,1.28528125,1.0210625,-0.27821875,-0.45278125,1.27284375,0.01774095350384797,0.02022776039024191,True
6723,106219,0,106217,3455.0,40666.0,29155.0,-0.0008539999999999999,0.0,-0.001098,0.42000000000000004,-1.2950000000000002,-3.6575,1.0638750000000001,0.15709375,0.04365625,1.288375,1.03265625,-0.273875,-0.44971875,1.26371875,0.01775442734215283,0.020179168727656634,True
6724,106220,0,106218,3455.0,40668.0,29156.0,0.000183,-0.000305,0.000183,0.4025,-1.155,-3.6400000000000006,1.05525,0.15325,0.0403125,1.29115625,1.0266250000000001,-0.27571875,-0.45296875000000003,1.27265625,0.0176706920366673,0.020172652860401662,True
6725,106221,0,106219,3456.0,40668.0,29155.0,-0.0006709999999999999,-0.00042699999999999997,-0.002196,0.36750000000000005,-0.9975,-3.7450000000000006,1.07190625,0.1576875,0.04328125,1.28690625,1.0327187500000001,-0.2774375,-0.451125,1.263625,0.0179230200880962,0.020220184142856413,True
6726,106222,0,106220,3457.0,40667.0,29157.0,-0.000915,-0.001464,-0.000915,0.42000000000000004,-0.8575,-3.6925000000000003,1.07190625,0.1521875,0.0398125,1.29009375,1.02765625,-0.274625,-0.45371875,1.26365625,0.017582660906193197,0.0201822575554076,True
6727,106223,0,106221,3457.0,40665.0,29155.0,-0.00122,-0.00042699999999999997,0.0017079999999999999,0.385,-0.7875000000000001,-3.6925000000000003,1.06465625,0.1564375,0.04303125,1.289125,1.0345625,-0.27618750000000003,-0.44975,1.26775,0.017820961384484284,0.020154858434135316,True
6728,106224,0,106222,3458.0,40667.0,29156.0,-0.0008539999999999999,-0.00122,0.001647,0.43750000000000006,-0.7875000000000001,-3.6750000000000003,1.0717812500000001,0.15209375,0.0445625,1.28465625,1.02634375,-0.27534375,-0.45309375,1.27359375,0.017607886603047587,0.02035146370794084,True
6729,106225,0,106223,3457.0,40666.0,29157.0,-0.002379,-0.000915,0.001281,0.35000000000000003,-0.8575,-3.6225000000000005,1.0639687500000001,0.15628125,0.04034375,1.29525,1.02775,-0.27425,-0.45096875000000003,1.2728125000000001,0.017736129849531913,0.020093784627654068,True
6730,106226,0,106224,3458.0,40665.0,29156.0,-0.0050019999999999995,0.002989,-0.0006709999999999999,0.47250000000000003,-1.2600000000000002,-3.9375000000000004,1.06925,0.15737500000000001,0.050937500000000004,1.28915625,1.0323437500000001,-0.2768125,-0.44978125,1.2683125,0.017884864415375786,0.020479477704938565,True
6731,106227,0,106225,3458.0,40664.0,29153.0,-0.000366,0.001037,0.000366,0.5775,-1.61,-3.7800000000000002,1.06434375,0.15584375,0.0398125,1.2953125,1.02665625,-0.2745625,-0.45071875,1.26746875,0.01773075209903371,0.020062038053584825,True
6732,106228,0,106226,3457.0,40665.0,29152.0,0.002562,-0.001769,0.00244,0.49000000000000005,-1.9600000000000002,-3.7975000000000003,1.070375,0.1564375,0.04446875,1.28884375,1.0324375000000001,-0.27459375,-0.45028125,1.2684375,0.017756476357096606,0.020234941060238317,True
6733,106229,0,106227,3457.0,40664.0,29150.0,0.0048189999999999995,-0.000244,-0.000183,0.47250000000000003,-2.1525000000000003,-3.8850000000000002,1.0649375,0.15396875000000002,0.04025,1.29175,1.02646875,-0.27518750000000003,-0.44978125,1.27540625,0.017678802686899947,0.020042357229678693,True
6734,106230,0,106228,3456.0,40662.0,29148.0,0.005124,0.0006709999999999999,-0.0032329999999999998,0.42000000000000004,-2.1700000000000004,-3.7625,1.06434375,0.1566875,0.0428125,1.2928125,1.03334375,-0.27465625,-0.44953125,1.26759375,0.01776930414823073,0.02013714475609834,True
6735,106231,0,106229,3454.0,40660.0,29146.0,-0.000183,0.001281,0.000305,0.3325,-1.7500000000000002,-3.8850000000000002,1.0557812500000001,0.15459375,0.04615625,1.289,1.0326250000000001,-0.277625,-0.45346875000000003,1.268125,0.017803172674427586,0.020431661663542114,True
6736,106232,0,106230,3453.0,40662.0,29145.0,-0.00061,0.00042699999999999997,0.00042699999999999997,0.3325,-1.6275000000000002,-3.7975000000000003,1.06375,0.15575,0.04184375,1.2935625,1.0274375,-0.27484375,-0.45075,1.269125,0.017738270714924786,0.020146365653405315,True
6737,106233,0,106231,3451.0,40660.0,29145.0,-0.0011589999999999999,6.1e-05,0.000793,0.43750000000000006,-1.54,-3.8500000000000005,1.068875,0.15628125,0.043437500000000004,1.28975,1.0385,-0.279625,-0.44978125,1.26121875,0.017953582479136317,0.02017272649422988,True
6738,106234,0,106232,3451.0,40659.0,29141.0,-0.00183,0.0008539999999999999,0.000976,0.36750000000000005,-1.5225000000000002,-3.9025000000000003,1.0698750000000001,0.15734375,0.04371875,1.28865625,1.0325625,-0.28025,-0.44821875,1.26546875,0.018022621266255496,0.020121609064055027,True
6739,106235,0,106233,3448.0,40656.0,29141.0,-0.0018909999999999999,6.1e-05,0.00183,0.4025,-1.7675,-3.8850000000000002,1.06996875,0.15696875,0.05165625,1.2895625,1.02609375,-0.27765625,-0.453125,1.2660625,0.017902263526776808,0.02064281150159744,True
6740,106236,0,106234,3447.0,40657.0,29140.0,-0.0026839999999999998,0.0008539999999999999,-0.000732,0.56,-2.1875,-3.9025000000000003,1.064875,0.1481875,0.04340625,1.29009375,1.0230625,-0.2753125,-0.45506250000000004,1.27225,0.01744570744454886,0.02038304952195481,True
6741,106237,0,106235,3444.0,40652.0,29137.0,-0.0008539999999999999,0.0006709999999999999,-0.0015249999999999999,0.45500000000000007,-2.4675000000000002,-3.8500000000000005,1.05903125,0.16009375,0.03784375,1.28353125,1.01771875,-0.27346875,-0.44940625,1.278875,0.017861579837039152,0.019928909316560602,True
6742,106238,0,106236,3443.0,40653.0,29138.0,0.002806,-6.1e-05,-0.001281,0.42000000000000004,-2.6775,-3.8150000000000004,1.0606875,0.15121875,0.04675,1.279125,1.02428125,-0.27496875,-0.4564375,1.28009375,0.01755666523772559,0.020574848646700894,True
6743,106239,0,106237,3440.0,40651.0,29133.0,0.005856,-0.001098,0.0,0.31500000000000006,-2.87,-3.7625,1.046,0.14628125,0.056625,1.2710625,1.02384375,-0.27465625,-0.45578125,1.27621875,0.017340616306358612,0.020952356613019675,True
6744,106240,0,106238,3438.0,40649.0,29133.0,0.005612,-0.00183,-0.003355,0.36750000000000005,-2.555,-3.8150000000000004,1.079875,0.1533125,0.047875,1.285,1.02371875,-0.27615625,-0.45175,1.25365625,0.017690969920330774,0.020433097835533244,True
6745,106241,0,106239,3437.0,40649.0,29133.0,-0.000183,0.000183,-0.000732,0.5950000000000001,-1.8900000000000001,-3.8850000000000002,1.0814375,0.1605,0.0524375,1.3109375,1.02365625,-0.2798125,-0.454125,1.26475,0.01813492175855971,0.020714807828945015,True
6746,106242,0,106240,3436.0,40647.0,29133.0,-0.0055509999999999995,0.001464,0.002623,0.5075000000000001,-1.5925000000000002,-3.9725000000000006,1.0526875,0.1570625,0.036625,1.2867187500000001,1.03728125,-0.27378125000000003,-0.45003125,1.27596875,0.017749346324030173,0.019904115664473844,True
6747,106243,0,106241,3436.0,40647.0,29132.0,-0.005307,0.000122,0.002806,0.43750000000000006,-1.5575,-3.9025000000000003,1.0540625000000001,0.147875,0.047843750000000004,1.29884375,1.03015625,-0.2744375,-0.449,1.2651875000000001,0.017397416520980143,0.020321638921837294,True
6748,106244,0,106242,3434.0,40646.0,29129.0,-0.0023179999999999997,-0.000732,0.001281,0.5075000000000001,-1.5225000000000002,-3.7800000000000002,1.05296875,0.142125,0.0565,1.29734375,1.03503125,-0.2735,-0.455125,1.2670625,0.017122582239891243,0.020920972597768362,True
6749,106245,0,106243,3432.0,40644.0,29128.0,-0.001037,0.001403,-0.00122,0.29750000000000004,-1.8725000000000003,-3.8500000000000005,1.0745625,0.15925,0.04,1.3060625000000001,1.0269062500000001,-0.27571875,-0.4501875,1.2676875,0.017917852586753998,0.02004841476164549,True
6750,106246,0,106244,3430.0,40644.0,29129.0,0.002379,-0.000732,-0.000488,0.2625,-1.8725000000000003,-3.8325000000000005,1.0749375,0.16084375,0.039593750000000004,1.306625,1.0346250000000001,-0.2700625,-0.44971875,1.2686250000000001,0.017754641134525302,0.02001301139711474,True
6751,106247,0,106245,3430.0,40642.0,29129.0,0.004209,0.001464,-0.000793,0.29750000000000004,-1.8375000000000001,-3.8325000000000005,1.05471875,0.15671875,0.04115625,1.28746875,1.03528125,-0.27415625,-0.4511875,1.272375,0.017750359500137106,0.020135780726396213,True
6752,106248,0,106246,3429.0,40645.0,29130.0,0.004148,0.001098,0.0,0.1925,-1.7675,-3.8325000000000005,1.0580625000000001,0.15140625,0.04475,1.28340625,1.0265,-0.27490625,-0.45290625,1.2679375,0.017561859790910624,0.020351619758898803,True
6753,106249,0,106247,3428.0,40642.0,29128.0,0.000244,-0.00042699999999999997,0.000122,0.2625,-1.5225000000000002,-3.7100000000000004,1.07246875,0.15428125,0.04884375,1.2945625,1.027,-0.27625,-0.4494375,1.2684375,0.01773466865763864,0.020380070093637126,True
6754,106250,0,106248,3427.0,40643.0,29127.0,-0.002623,0.000305,-0.000976,0.35000000000000003,-1.3825,-3.7450000000000006,1.065125,0.157,0.043250000000000004,1.28965625,1.02459375,-0.273875,-0.45478125,1.26796875,0.017750565165223928,0.020365393781635238,True
6755,106251,0,106249,3426.0,40642.0,29128.0,-0.0021349999999999997,6.1e-05,0.0013419999999999999,0.4025,-1.3825,-3.7100000000000004,1.07309375,0.1565625,0.04303125,1.28896875,1.02709375,-0.2725,-0.446625,1.26809375,0.017676897723761457,0.02002960531361691,True
6756,106252,0,106250,3427.0,40642.0,29127.0,-0.001281,-0.001037,0.000915,0.4025,-1.5050000000000001,-3.7800000000000002,1.07134375,0.1534375,0.0440625,1.2895,1.02796875,-0.2773125,-0.44959375,1.2686250000000001,0.01774290296753399,0.020190775153472645,True
6757,106253,0,106251,3425.0,40641.0,29127.0,6.1e-05,-0.00061,0.0,0.31500000000000006,-1.54,-3.7275000000000005,1.069375,0.15346875000000001,0.043625000000000004,1.290125,1.02625,-0.2783125,-0.451,1.26815625,0.01778464833583471,0.020229233978160403,True
6758,106254,0,106252,3425.0,40642.0,29128.0,-0.0013419999999999999,0.0006709999999999999,0.00061,0.31500000000000006,-1.5050000000000001,-3.7800000000000002,1.06675,0.15225,0.04140625,1.28959375,1.02675,-0.2789375,-0.4493125,1.26734375,0.01775973516139246,0.020070860888215157,True
6759,106255,0,106253,3425.0,40642.0,29127.0,0.000732,0.000183,-0.002013,0.24500000000000002,-1.6625,-3.7625,1.064125,0.153875,0.04046875,1.289625,1.02359375,-0.2785,-0.45396875000000003,1.2719375,0.017808966781308565,0.02021911065049513,True
6760,106256,0,106254,3423.0,40643.0,29127.0,0.002745,0.000183,0.000122,0.35000000000000003,-1.8200000000000003,-3.7100000000000004,1.063375,0.15615625,0.039281250000000004,1.28915625,1.01865625,-0.2705625,-0.45125,1.27365625,0.01758174125548182,0.02006160216757834,True
6761,106257,0,106255,3424.0,40644.0,29128.0,0.004575,-0.000305,-0.000793,0.36750000000000005,-1.6975000000000002,-3.7975000000000003,1.06565625,0.1568125,0.04453125,1.28840625,1.0331875,-0.27468750000000003,-0.44965625000000004,1.2687187500000001,0.017775718019027022,0.02021245186218109,True
6762,106258,0,106256,3424.0,40643.0,29126.0,0.004392,-0.0006709999999999999,-0.001647,0.2625,-1.54,-3.7100000000000004,1.0677812500000001,0.15628125,0.043562500000000004,1.28928125,1.026375,-0.2765625,-0.4489375,1.26740625,0.01782969685267426,0.020144024663648473,True
6763,106259,0,106257,3424.0,40643.0,29125.0,0.0006709999999999999,-0.000305,-0.000488,0.42000000000000004,-1.12,-3.6750000000000003,1.0697812500000001,0.1534375,0.0450625,1.28984375,1.02978125,-0.27521875,-0.4463125,1.268375,0.017658182791864645,0.020100168481442752,True
6764,106260,0,106258,3423.0,40643.0,29124.0,-0.003111,0.0,0.000732,0.4025,-0.5425000000000001,-3.6925000000000003,1.07284375,0.1536875,0.043812500000000004,1.288875,1.0306875,-0.27771875,-0.44953125,1.2669375,0.017769637025719313,0.020178045335736243,True
6765,106261,0,106259,3423.0,40642.0,29124.0,-0.0021349999999999997,-0.002745,0.000183,0.36750000000000005,-0.35000000000000003,-3.7100000000000004,1.0688125,0.15346875000000001,0.043062500000000004,1.2888125,1.026875,-0.27603125,-0.448875,1.2645,0.017692348291074144,0.02012106896534094,True
6766,106262,0,106260,3421.0,40641.0,29126.0,-0.002989,-0.000488,0.001098,0.29750000000000004,-0.14,-3.6925000000000003,1.064,0.1525,0.047875,1.28946875,1.02628125,-0.2745,-0.4519375,1.2719375,0.017590475601969146,0.020440609256423953,True
6767,106263,0,106261,3421.0,40643.0,29126.0,-0.004758,0.001037,0.00122,0.31500000000000006,-0.29750000000000004,-3.7100000000000004,1.06459375,0.15565625,0.0401875,1.28753125,1.0266250000000001,-0.27440625,-0.45103125,1.27496875,0.017716705223222506,0.02008989907123038,True
6768,106264,0,106262,3422.0,40640.0,29124.0,-0.003477,0.000732,0.000549,0.31500000000000006,-0.6125,-3.7625,1.0633125,0.155875,0.0395625,1.2941875,1.027625,-0.2749375,-0.45096875000000003,1.2748125000000001,0.017747213561311953,0.020061832928398797,True
6769,106265,0,106263,3421.0,40638.0,29123.0,0.0028669999999999998,0.00122,-0.000549,0.4025,-1.5050000000000001,-3.7625,1.06425,0.15546875000000002,0.04065625,1.29665625,1.0278125,-0.2739375,-0.450375,1.27175,0.017690012178699893,0.020082769691671398,True
6770,106266,0,106264,3420.0,40638.0,29122.0,0.004026,0.002257,-0.003294,0.42000000000000004,-1.8025000000000002,-3.7625,1.07234375,0.160875,0.04384375,1.28975,1.0306250000000001,-0.277,-0.4498125,1.26853125,0.018036619022119702,0.020190594508649094,True
6771,106267,0,106265,3420.0,40638.0,29123.0,0.004697,-0.000366,-0.001037,0.4025,-1.8900000000000001,-3.6750000000000003,1.06471875,0.1556875,0.039125,1.2939687500000001,1.0269375,-0.274375,-0.45109375,1.2710937500000001,0.01771672803110276,0.02004894975301463,True
6772,106268,0,106266,3420.0,40639.0,29123.0,0.004331,-0.0006709999999999999,0.004209,0.42000000000000004,-1.6450000000000002,-3.7100000000000004,1.06765625,0.1631875,0.04390625,1.28996875,1.02971875,-0.270125,-0.4496875,1.2685,0.01785373993747457,0.020188141463975767,True
6773,106269,0,106267,3420.0,40637.0,29123.0,0.004392,-0.001647,0.0030499999999999998,0.43750000000000006,-1.2950000000000002,-3.7100000000000004,1.06365625,0.1536875,0.04165625,1.2835625,1.02728125,-0.27921875,-0.45306250000000003,1.2710625,0.017830320425775648,0.020231361613703806,True
6774,106270,0,106268,3420.0,40637.0,29123.0,-0.003965,0.0011589999999999999,-0.002806,0.5425000000000001,-0.47250000000000003,-3.7625,1.06353125,0.15990625,0.0418125,1.295875,1.02665625,-0.2745625,-0.45115625000000004,1.28265625,0.017898108359316465,0.020161367624486063,True
6775,106271,0,106269,3419.0,40636.0,29123.0,-0.0066489999999999995,-0.000488,0.000305,0.43750000000000006,-0.1925,-3.7625,1.0695625,0.15659375,0.043562500000000004,1.2885312500000001,1.0442500000000001,-0.27446875,-0.44996875000000003,1.26571875,0.017757855153884675,0.02018535299763931,True
6776,106272,0,106270,3418.0,40635.0,29121.0,-0.00488,-0.001769,0.003721,0.49000000000000005,0.052500000000000005,-3.6925000000000003,1.07071875,0.1614375,0.043000000000000003,1.28953125,1.049375,-0.2720625,-0.4363125,1.26340625,0.017860039706143638,0.01961476388878232,True
6777,106273,0,106271,3420.0,40634.0,29120.0,-0.002806,-0.0017079999999999999,0.003477,0.49000000000000005,0.08750000000000001,-3.6225000000000005,1.0689375,0.1554375,0.04359375,1.28890625,1.03640625,-0.28,-0.44625000000000004,1.262,0.01793399917627677,0.020037582451296214,True
6778,106274,0,106272,3418.0,40636.0,29120.0,-0.001647,-0.000915,0.000793,0.4025,0.0,-3.7100000000000004,1.0693125,0.155875,0.043375000000000004,1.28925,1.0415,-0.2788125,-0.4469375,1.2633125,0.01790398521344485,0.0200561931325754,True
6779,106275,0,106273,3418.0,40633.0,29118.0,-0.0034159999999999998,-0.000549,-0.001464,0.36750000000000005,-0.7350000000000001,-3.6575,1.06425,0.15328125,0.041625,1.28959375,1.02371875,-0.277375,-0.45153125,1.263125,0.017738995669836628,0.0201687266518329,True
6780,106276,0,106274,3418.0,40632.0,29120.0,-0.0008539999999999999,-0.000244,-0.000183,0.24500000000000002,-1.2600000000000002,-3.6925000000000003,1.0638750000000001,0.15296875000000001,0.03896875,1.289,1.0205625,-0.283625,-0.4538125,1.26315625,0.017978936423206995,0.020151510117287438,True
6781,106277,0,106275,3417.0,40633.0,29120.0,0.000793,0.00122,0.00183,0.29750000000000004,-1.7325000000000002,-3.7625,1.064625,0.15325,0.04346875,1.2915625,1.0223125,-0.28371875,-0.446125,1.26153125,0.017994309458883848,0.020027458339511885,True
6782,106278,0,106276,3418.0,40633.0,29118.0,0.0032329999999999998,0.000183,0.001464,0.2625,-2.1875,-3.7100000000000004,1.0704375,0.15640625,0.0426875,1.2945312500000001,1.0290625,-0.27228125000000003,-0.45190625,1.2829062500000001,0.017661607311838478,0.0202272062121946,True
6783,106279,0,106277,3416.0,40634.0,29118.0,0.005673,0.000122,-0.0025009999999999998,0.36750000000000005,-2.4850000000000003,-3.7625,1.0705,0.15678125,0.04359375,1.28925,1.03978125,-0.2696875,-0.44756250000000003,1.25840625,0.017572074218096135,0.02009019304071725,True
6784,106280,0,106278,3417.0,40633.0,29120.0,0.004148,0.0037819999999999998,0.000122,0.43750000000000006,-2.1875,-3.8150000000000004,1.0649375,0.153,0.043250000000000004,1.28946875,1.032125,-0.2826875,-0.44509375,1.26171875,0.017942309721689576,0.019977168220105517,True
6785,106281,0,106279,3418.0,40634.0,29123.0,0.001586,0.002745,0.000732,0.45500000000000007,-1.9250000000000003,-3.7975000000000003,1.05790625,0.15228125,0.043062500000000004,1.2905312500000001,1.04175,-0.27625,-0.44696875,1.26340625,0.01765228361052469,0.020044663001420167,True
6786,106282,0,106280,3418.0,40633.0,29124.0,0.000366,-0.000244,0.00122,0.3325,-1.4525000000000001,-3.6750000000000003,1.06990625,0.15709375,0.04203125,1.29640625,1.03684375,-0.27690625,-0.4481875,1.27765625,0.01787707196010612,0.020051333048717826,True
6787,106283,0,106281,3419.0,40634.0,29122.0,-0.0006709999999999999,-0.001281,0.000549,0.28,-1.1025,-3.6225000000000005,1.0635937500000001,0.15621875,0.04271875,1.29603125,1.0270625,-0.2735,-0.448625,1.2673125,0.01770320514140936,0.020096989094478726,True
6788,106284,0,106282,3420.0,40631.0,29123.0,-0.0026839999999999998,-0.000976,-0.00122,0.29750000000000004,-0.9100000000000001,-3.6400000000000006,1.072,0.15428125,0.04290625,1.2898125,1.02934375,-0.27621875,-0.45146875000000003,1.27009375,0.0177334042188922,0.020218621836367193,True
6789,106285,0,106283,3417.0,40632.0,29123.0,-0.003538,-0.003538,0.0006709999999999999,0.17500000000000002,-1.0325000000000002,-3.6225000000000005,1.06415625,0.1535,0.045,1.2941875,1.0274375,-0.27546875,-0.45337500000000003,1.27571875,0.017670874017623243,0.0203806223067368,True
6790,106286,0,106284,3417.0,40632.0,29121.0,6.1e-05,-0.003721,0.000122,0.21000000000000002,-1.2600000000000002,-3.6750000000000003,1.0634375,0.15615625,0.0399375,1.2969375,1.032125,-0.274875,-0.4505,1.27465625,0.01775627062961189,0.020058383264145926,True
6791,106287,0,106285,3419.0,40633.0,29124.0,0.001647,-0.00122,-0.001098,0.24500000000000002,-1.3475000000000001,-3.7275000000000005,1.0695625,0.15634375,0.043687500000000004,1.27990625,1.03465625,-0.276,-0.44796875,1.26853125,0.01780951351128687,0.020110310800360458,True
6792,106288,0,106286,3418.0,40632.0,29122.0,0.000366,0.00061,-0.001037,0.28,-1.5925000000000002,-3.7100000000000004,1.05471875,0.15209375,0.04196875,1.2900625000000001,1.02634375,-0.27796875,-0.45225,1.268875,0.01771410550975357,0.0202115858458833,True
6793,106289,0,106287,3419.0,40636.0,29123.0,-0.0011589999999999999,0.000793,-0.000305,0.21000000000000002,-1.715,-3.7975000000000003,1.06465625,0.1568125,0.04309375,1.28984375,1.0267187500000001,-0.27453125,-0.44228125,1.26828125,0.01776939565001899,0.019858007320818306,True
6794,106290,0,106288,3419.0,40634.0,29124.0,0.0023179999999999997,0.001037,0.0015249999999999999,0.35000000000000003,-1.7675,-3.7975000000000003,1.06990625,0.1543125,0.04334375,1.2895625,1.0318125,-0.2760625,-0.45215625,1.2678125,0.017728369252633124,0.020264061579436374,True
6795,106291,0,106289,3419.0,40636.0,29123.0,0.0013419999999999999,0.002989,-0.00042699999999999997,0.3325,-1.7850000000000001,-3.8325000000000005,1.06434375,0.15365625,0.04153125,1.2979375,1.02621875,-0.27584375,-0.452625,1.2738125,0.017692484941949752,0.020208719922707685,True
6796,106292,0,106290,3420.0,40637.0,29126.0,-0.001769,0.002745,-0.0008539999999999999,0.29750000000000004,-1.7675,-3.8500000000000005,1.07146875,0.1570625,0.04340625,1.2899375,1.03459375,-0.27721875,-0.45028125,1.26803125,0.01788842677870586,0.020191485527390408,True
6797,106293,0,106291,3421.0,40637.0,29127.0,-0.001464,0.000915,0.000122,0.4025,-1.7675,-3.8150000000000004,1.07278125,0.154,0.044375,1.2885,1.02815625,-0.27909375000000003,-0.450875,1.27,0.017838134918030046,0.02025489885331302,True
6798,106294,0,106292,3421.0,40636.0,29127.0,0.0013419999999999999,-0.000183,0.0017079999999999999,0.385,-1.6275000000000002,-3.7625,1.0556875000000001,0.15196875,0.04078125,1.28890625,1.02703125,-0.27496875,-0.45021875,1.27378125,0.01758756126102119,0.020081619924157117,True
6799,106295,0,106293,3421.0,40639.0,29129.0,0.002257,-0.000366,-0.0018909999999999999,0.28,-1.6625,-3.6050000000000004,1.0619687500000001,0.1555625,0.040125,1.30059375,1.02803125,-0.27471875,-0.4509375,1.27553125,0.01772548858058345,0.02008358575208006,True
6800,106296,0,106294,3422.0,40640.0,29128.0,0.0023179999999999997,-0.0008539999999999999,-0.0023179999999999997,0.36750000000000005,-1.54,-3.6750000000000003,1.06190625,0.15571875000000002,0.040125,1.287875,1.0311875,-0.27403125,-0.45325,1.27415625,0.017704105081433476,0.020176254690071872,True
6801,106297,0,106295,3422.0,40639.0,29130.0,0.0018909999999999999,-0.001647,-0.000793,0.22750000000000004,-1.2775,-3.7100000000000004,1.06515625,0.15325,0.0449375,1.29046875,1.0266250000000001,-0.278875,-0.453125,1.2686875,0.0177983946949766,0.020368051118210863,True
6802,106298,0,106296,3422.0,40638.0,29129.0,0.000793,-0.001952,0.001281,0.31500000000000006,-1.0850000000000002,-3.6575,1.07584375,0.15787500000000002,0.0471875,1.2962500000000001,1.03184375,-0.27634375,-0.449875,1.2583125,0.017886497014197207,0.020329858537109086,True
6803,106299,0,106297,3422.0,40640.0,29130.0,-0.000244,-0.001586,0.000122,0.385,-0.805,-3.6400000000000006,1.0725625,0.1579375,0.04353125,1.2926250000000001,1.0325,-0.277375,-0.44996875000000003,1.2665625,0.017930789469619346,0.02018407487739632,True
6804,106300,0,106298,3422.0,40640.0,29130.0,-0.0046359999999999995,0.0015249999999999999,0.0011589999999999999,0.47250000000000003,-0.56,-3.8150000000000004,1.074375,0.15584375,0.04446875,1.2826250000000001,1.023875,-0.2780625,-0.44975,1.2678125,0.017872359048420768,0.020213652491334264,True
6805,106301,0,106299,3423.0,40637.0,29130.0,-0.006771,0.000305,0.002989,0.49000000000000005,-0.7000000000000001,-3.8325000000000005,1.074875,0.15071875,0.04228125,1.28765625,1.02721875,-0.27553125,-0.45259375,1.2708125000000001,0.017558833032747738,0.020238139358938152,True
6806,106302,0,106300,3423.0,40635.0,29128.0,-0.006344,-0.000976,0.0018909999999999999,0.6825000000000001,-1.05,-3.8850000000000002,1.0479375,0.151625,0.04484375,1.2827187500000001,1.0269375,-0.27475,-0.45253125,1.264375,0.017564547523661416,0.020340429991271353,True
6807,106303,0,106301,3423.0,40632.0,29126.0,-0.0040869999999999995,0.001403,0.0008539999999999999,0.8575,-1.7675,-3.8850000000000002,1.07515625,0.15775,0.04278125,1.2895,1.02640625,-0.2731875,-0.45040625,1.268375,0.017753642779713214,0.020170932742681932,True
6808,106304,0,106302,3422.0,40632.0,29123.0,0.001098,0.0011589999999999999,-0.000122,1.0325000000000002,-2.415,-3.8325000000000005,1.06246875,0.1568125,0.04271875,1.286125,1.0295,-0.27475,-0.45003125,1.272125,0.01777824694384082,0.02015334847475911,True
6809,106305,0,106303,3423.0,40624.0,29123.0,0.004514,6.1e-05,-0.001098,0.8925000000000001,-3.5000000000000004,-3.7975000000000003,1.06140625,0.15321875000000001,0.0444375,1.288,1.0270625,-0.27525,-0.45265625,1.26834375,0.017650436143809026,0.020328824194712998,True
6810,106306,0,106304,3422.0,40625.0,29121.0,0.008052,-0.000183,-0.002623,0.8575,-3.6575,-3.6925000000000003,1.0689375,0.1555,0.0428125,1.29353125,1.02615625,-0.27568750000000003,-0.44990625,1.26790625,0.017762112813488808,0.020152173385122894,True
6811,106307,0,106305,3421.0,40624.0,29121.0,0.009577,-0.000122,-0.0021349999999999997,0.8225000000000001,-3.5000000000000004,-3.6575,1.06428125,0.1558125,0.04015625,1.2945312500000001,1.03146875,-0.27418750000000003,-0.450125,1.2745625,0.017714290128145384,0.02005230034611275,True
6812,106308,0,106306,3420.0,40621.0,29120.0,0.008905999999999999,-0.000305,-0.003904,0.7000000000000001,-3.0450000000000004,-3.6050000000000004,1.06428125,0.15565625,0.05059375,1.29521875,1.029625,-0.27446875,-0.45059375,1.2768125000000001,0.017719234329278574,0.0204979684798043,True
6813,106309,0,106307,3420.0,40620.0,29118.0,0.0013419999999999999,-0.002928,0.003294,0.7350000000000001,-1.5925000000000002,-3.7975000000000003,1.064625,0.15621875,0.04628125,1.2894375,1.032875,-0.27368750000000003,-0.46171875,1.26846875,0.01771079280805605,0.020767142537766282,True
6814,106310,0,106308,3421.0,40618.0,29116.0,-0.010187,-0.003904,0.00244,1.2950000000000002,-1.715,-3.7275000000000005,1.06403125,0.15278125,0.0400625,1.2895,1.0243125,-0.27934375,-0.45290625,1.24821875,0.017798051069646395,0.020159924753320475,True
6815,106311,0,106309,3421.0,40612.0,29111.0,-0.014945,0.002562,0.004514,1.5575,-1.9775000000000003,-3.8150000000000004,1.0637812500000001,0.15209375,0.043500000000000004,1.2895,1.05071875,-0.27915625,-0.436625,1.26478125,0.017762149374527792,0.01964776232397068,True
6816,106312,0,106310,3419.0,40603.0,29106.0,-0.015311,0.0062829999999999995,0.0051849999999999995,1.4700000000000002,-2.6775,-3.9725000000000006,1.071375,0.15634375,0.0426875,1.29428125,1.04884375,-0.26378125,-0.43946875,1.27159375,0.017314902226956072,0.019728589640476534,True
6817,106313,0,106311,3418.0,40597.0,29098.0,-0.013176,0.000366,0.0013419999999999999,1.4000000000000001,-3.9725000000000006,-3.8150000000000004,1.07134375,0.16215625,0.04328125,1.28996875,1.0481875,-0.26915625,-0.44634375,1.2681875,0.017772043475965504,0.020028557440210256,True
6818,106314,0,106312,3417.0,40589.0,29093.0,0.006771,0.0028669999999999998,-0.002745,1.2425000000000002,-6.352500000000001,-3.8325000000000005,1.06459375,0.15684375,0.043437500000000004,1.28759375,1.04865625,-0.273375,-0.4403125,1.27153125,0.017723895008419716,0.01979311843905433,True
6819,106315,0,106313,3416.0,40583.0,29087.0,0.012749,0.005673,-0.003294,1.05,-6.8425,-3.99,1.0733125000000001,0.155625,0.043250000000000004,1.2839375,1.0469375,-0.28009375000000003,-0.4435625,1.26559375,0.017945513492920513,0.019915775370304555,True
6820,106316,0,106314,3415.0,40579.0,29088.0,0.013725,0.00183,-0.0040869999999999995,0.805,-6.8775,-3.8325000000000005,1.06646875,0.157,0.0423125,1.29553125,1.04803125,-0.26903125,-0.4465,1.2885625,0.017554522288564772,0.019995193585993904,True
6821,106317,0,106315,3416.0,40580.0,29084.0,0.017568,-0.0011589999999999999,-0.005246,0.42000000000000004,-6.405,-3.7100000000000004,1.0640625,0.15546875000000002,0.039093750000000003,1.29003125,1.0261875,-0.2713125,-0.46390625,1.2715625,0.017583773024223554,0.020560902860719554,True
6822,106318,0,106316,3417.0,40581.0,29087.0,0.020191,-0.00061,-0.0068319999999999995,0.14,-5.197500000000001,-3.7975000000000003,1.0649375,0.16165625,0.039375,1.291625,1.0146875,-0.27918750000000003,-0.45734375,1.2749375,0.01815726947205297,0.020309595149718578,True
6823,106319,0,106317,3416.0,40584.0,29090.0,0.0055509999999999995,0.000488,-0.001403,-0.08750000000000001,-1.5225000000000002,-3.7800000000000002,1.06478125,0.1558125,0.041125,1.28734375,1.01496875,-0.27190625,-0.453,1.2821875,0.01762196778425675,0.020207132049237315,True
6824,106320,0,106318,3415.0,40584.0,29091.0,-0.005307,-0.0011589999999999999,0.000976,-0.15750000000000003,0.43750000000000006,-3.8150000000000004,1.0639687500000001,0.15571875000000002,0.04221875,1.2946875,1.0168125000000001,-0.273125,-0.45203125,1.2730625,0.017667430543038855,0.020213044672924667,True
6825,106321,0,106319,3416.0,40587.0,29091.0,-0.011529,-0.0028669999999999998,0.003294,-0.15750000000000003,1.7325000000000002,-3.8325000000000005,1.0638750000000001,0.1553125,0.04065625,1.2921562500000001,1.026125,-0.2724375,-0.45406250000000004,1.2685625,0.017622869561410962,0.020230534292614982,True
6826,106322,0,106320,3416.0,40586.0,29090.0,-0.016042999999999998,-0.00244,0.005978,-0.15750000000000003,2.45,-3.8325000000000005,1.064875,0.15565625,0.04021875,1.2934375,1.0269375,-0.27478125000000003,-0.44890625,1.27115625,0.017731879664209128,0.020006007426201327,True
6827,106323,0,106321,3416.0,40585.0,29092.0,-0.018788,-0.000915,0.007869,-0.10500000000000001,2.7300000000000004,-3.8675,1.06553125,0.15615625,0.042875,1.29621875,1.0350625,-0.27409375,-0.44890625,1.2673125,0.01772465758891617,0.02011465236814019,True
6828,106324,0,106322,3416.0,40585.0,29091.0,-0.015006,-0.001952,0.002196,0.31500000000000006,0.385,-3.6400000000000006,1.06784375,0.15715625,0.04315625,1.2902500000000001,1.03109375,-0.27846875,-0.45284375,1.26859375,0.017942853171083947,0.02028393936799273,True
6829,106325,0,106323,3416.0,40584.0,29087.0,-0.0070149999999999995,-6.1e-05,0.000244,0.35000000000000003,-1.225,-3.6750000000000003,1.06878125,0.15440625,0.04365625,1.2908125,1.0265625,-0.275625,-0.45403125,1.27084375,0.01771452846219201,0.020351961396957812,True
6830,106326,0,106324,3414.0,40581.0,29081.0,-0.000183,0.0018909999999999999,0.000244,0.43750000000000006,-2.8175000000000003,-3.7625,1.06478125,0.154125,0.04175,1.2895625,1.027875,-0.27446875,-0.45221875,1.27371875,0.017656153649088614,0.020201387655261346,True
6831,106327,0,106325,3412.0,40576.0,29082.0,0.0066489999999999995,0.0,-0.00244,0.45500000000000007,-4.2,-3.7450000000000006,1.06490625,0.15384375,0.041125,1.28996875,1.025875,-0.27459375,-0.4545,1.27628125,0.01764962595923979,0.020267230979983238,True
6832,106328,0,106326,3411.0,40578.0,29080.0,0.010309,0.000732,-0.00366,0.35000000000000003,-5.005000000000001,-3.7275000000000005,1.0530625,0.155125,0.042625,1.29084375,1.0267187500000001,-0.27478125000000003,-0.451,1.2726875,0.017709994812002684,0.020188335855384237,True
6833,106329,0,106327,3408.0,40573.0,29077.0,0.014335,0.002379,-0.00488,0.28,-5.1450000000000005,-3.6925000000000003,1.064625,0.15603125,0.04025,1.29490625,1.03128125,-0.273625,-0.4505,1.26840625,0.017700539165452216,0.020071164188871393,True
6834,106330,0,106328,3407.0,40573.0,29076.0,0.014335,-6.1e-05,-0.0040869999999999995,0.15750000000000003,-4.3925,-3.8500000000000005,1.07153125,0.15734375,0.043750000000000004,1.289375,1.01896875,-0.278,-0.4521875,1.2690000000000001,0.017931615042425242,0.02028192774163866,True
6835,106331,0,106329,3404.0,40573.0,29077.0,0.011407,-0.0011589999999999999,-0.00183,0.035,-3.5875000000000004,-3.9025000000000003,1.04975,0.15996875,0.03503125,1.30609375,1.02734375,-0.2745625,-0.4501875,1.26978125,0.017900683071013123,0.019845195461180003,True
6836,106332,0,106330,3402.0,40574.0,29076.0,0.002623,0.0006709999999999999,0.000549,0.035,-2.3800000000000003,-3.9550000000000005,1.05953125,0.15778125,0.045125,1.2866875,1.03515625,-0.27671875,-0.4534375,1.273875,0.017897805896853337,0.02038823784999553,True
6837,106333,0,106331,3400.0,40571.0,29074.0,-0.005063,0.002196,0.000488,0.052500000000000005,-1.2075,-3.99,1.059125,0.15740625,0.0448125,1.286125,1.02075,-0.2735625,-0.450375,1.2690000000000001,0.01775465591422767,0.020252756859557366,True
6838,106334,0,106332,3396.0,40572.0,29073.0,-0.00671,-0.000976,0.003172,0.0,-0.36750000000000005,-3.8500000000000005,1.07175,0.14690625000000002,0.035750000000000004,1.30140625,1.02775,-0.27490625,-0.45090625,1.26865625,0.01737648317385366,0.019903403375897365,True
6839,106335,0,106333,3394.0,40571.0,29071.0,-0.006954,-0.0017079999999999999,0.001769,0.14,-0.36750000000000005,-3.9200000000000004,1.0815937500000001,0.15178125,0.035625000000000004,1.2886875,1.02634375,-0.27418750000000003,-0.45025,1.2741875,0.017548218658194017,0.01987198494902915,True
6840,106336,0,106334,3392.0,40569.0,29071.0,-0.007686,-0.0006709999999999999,0.002623,0.12250000000000001,-0.47250000000000003,-3.7975000000000003,1.0463437500000001,0.15840625,0.039875,1.30525,1.03428125,-0.27734375,-0.4501875,1.268,0.017948833467417536,0.020043302326413655,True
6841,106337,0,106335,3388.0,40569.0,29070.0,-0.008052,-6.1e-05,0.00122,-0.0175,-0.77,-3.6750000000000003,1.07328125,0.1584375,0.04459375,1.303375,1.0295,-0.27728125,-0.44959375,1.26846875,0.01794759246363305,0.020212503530861327,True
6842,106338,0,106336,3388.0,40568.0,29068.0,-0.003904,-0.000122,0.000732,-0.14,-1.2075,-3.7450000000000006,1.08171875,0.15853125,0.046,1.2839375,1.0264375000000001,-0.276125,-0.453125,1.2730625,0.017904680009680294,0.02041150159744409,True
6843,106339,0,106337,3385.0,40571.0,29069.0,0.0048189999999999995,-0.0030499999999999998,-0.0013419999999999999,0.0175,-2.1875,-3.7275000000000005,1.07471875,0.152,0.0455625,1.2849375,1.0271875,-0.27128125000000003,-0.45240625,1.27075,0.017439592316536648,0.020364815834842433,True
6844,106340,0,106338,3384.0,40570.0,29068.0,0.0030499999999999998,-0.001647,-0.000549,0.28,-2.5900000000000003,-3.7800000000000002,1.07215625,0.14984375,0.03725,1.29934375,1.0265,-0.27475,-0.44746875,1.2680625,0.01749116880709379,0.019826950387246127,True
6845,106341,0,106339,3384.0,40569.0,29066.0,-0.000305,0.00042699999999999997,-0.002562,0.665,-3.1500000000000004,-3.7100000000000004,1.06390625,0.15771875,0.04190625,1.296875,1.0343437500000001,-0.27659375,-0.44953125,1.26765625,0.017890174563719427,0.02010007860580149,True
6846,106342,0,106340,3381.0,40567.0,29063.0,-0.0011589999999999999,0.0017079999999999999,0.0006709999999999999,0.6475000000000001,-3.3075,-3.8150000000000004,1.07325,0.15878125,0.04584375,1.2864375000000001,1.02890625,-0.27675,-0.454125,1.26803125,0.01794026177309566,0.020445170293355415,True
6847,106343,0,106341,3378.0,40563.0,29062.0,0.0,0.001464,-6.1e-05,0.7000000000000001,-3.6400000000000006,-3.8325000000000005,1.07228125,0.1574375,0.0450625,1.28521875,1.0266875,-0.2691875,-0.45396875000000003,1.26778125,0.017578874447280117,0.020406963593588463,True
6848,106344,0,106342,3376.0,40562.0,29060.0,0.00183,0.001098,-0.000244,0.7875000000000001,-4.235,-3.8325000000000005,1.06915625,0.15475,0.04334375,1.2887187500000001,1.0266250000000001,-0.277875,-0.4519375,1.26846875,0.017819722689897694,0.02025529674284502,True
6849,106345,0,106343,3376.0,40556.0,29055.0,-0.000366,0.0026839999999999998,0.000915,0.8225000000000001,-4.4275,-3.7975000000000003,1.071,0.15396875000000002,0.0426875,1.28875,1.026125,-0.27890625,-0.45406250000000004,1.26834375,0.01782926279885446,0.020313598200707963,True
6850,106346,0,106344,3373.0,40553.0,29052.0,0.0032329999999999998,0.0023179999999999997,-0.001037,0.805,-4.4625,-3.7450000000000006,1.0684375,0.15762500000000002,0.043625000000000004,1.293875,1.02746875,-0.27890625,-0.45078125,1.2675625,0.01797985648550375,0.020220468415503085,True
6851,106347,0,106345,3372.0,40551.0,29052.0,0.008296,-0.000488,-0.0023179999999999997,0.6125,-4.2175,-3.7625,1.0658125,0.15675,0.043187500000000004,1.2928125,1.0186250000000001,-0.2758125,-0.4506875,1.26140625,0.01781866209421415,0.020198818540378465,True
6852,106348,0,106346,3369.0,40552.0,29050.0,0.008173999999999999,-0.0008539999999999999,-0.0017079999999999999,0.5425000000000001,-3.6575,-3.7975000000000003,1.07190625,0.15640625,0.041375,1.29146875,1.0350625,-0.2701875,-0.4501875,1.27228125,0.017576862560291305,0.020104651549195687,True
6853,106349,0,106347,3369.0,40548.0,29050.0,0.00488,-0.000305,-0.002745,0.15750000000000003,-1.8025000000000002,-3.7625,1.06465625,0.1615,0.037375,1.2953125,1.0327187500000001,-0.27359375,-0.45028125,1.266,0.017924570810615964,0.019944811473283156,True
6854,106350,0,106348,3368.0,40550.0,29051.0,0.002806,-0.000305,-0.000549,0.14,-0.6125,-3.9550000000000005,1.06446875,0.15178125,0.040375,1.28921875,1.02915625,-0.2745625,-0.4541875,1.26853125,0.017563395838750957,0.020224041383505382,True
6855,106351,0,106349,3367.0,40547.0,29052.0,-0.002989,-0.001037,0.001098,0.1925,0.17500000000000002,-3.9200000000000004,1.0695625,0.1538125,0.04284375,1.2893125,1.0267187500000001,-0.2780625,-0.45334375,1.26796875,0.017788692981575444,0.020291192283263922,True
6856,106352,0,106350,3366.0,40547.0,29051.0,-0.009821,-0.000549,0.004514,0.29750000000000004,0.6475000000000001,-3.7625,1.07125,0.16178125000000002,0.0423125,1.2901875,1.0175,-0.27825,-0.444875,1.27571875,0.018124504443277418,0.019930046686677676,True
6857,106353,0,106351,3366.0,40549.0,29051.0,-0.012565999999999999,0.0006709999999999999,0.004209,0.15750000000000003,0.8225000000000001,-3.7975000000000003,1.0649375,0.1555,0.0446875,1.29490625,1.02684375,-0.27518750000000003,-0.45153125,1.2683125,0.017741881499370497,0.020293974431560398,True
6858,106354,0,106352,3364.0,40547.0,29049.0,-0.008357,-0.001098,0.002196,0.525,-0.5950000000000001,-3.6575,1.06503125,0.160875,0.04275,1.29290625,1.031375,-0.27421875,-0.45046875000000003,1.26840625,0.017924109298059283,0.020172159276087502,True
6859,106355,0,106353,3366.0,40545.0,29047.0,-0.0055509999999999995,0.002562,0.00183,0.47250000000000003,-1.33,-3.8500000000000005,1.07028125,0.15675,0.043687500000000004,1.2846250000000001,1.02940625,-0.2785625,-0.445875,1.2680625,0.01792991244848207,0.020026384819524765,True
6860,106356,0,106354,3364.0,40542.0,29047.0,-0.000305,0.001098,0.0,0.47250000000000003,-2.3625000000000003,-3.7100000000000004,1.07175,0.15734375,0.04315625,1.2787187500000001,1.02865625,-0.2770625,-0.45290625,1.2679375,0.01789369080381945,0.02028644345700217,True
6861,106357,0,106355,3363.0,40542.0,29045.0,0.006405,-0.000976,-0.003111,0.35000000000000003,-3.08,-3.6050000000000004,1.06646875,0.15765625,0.04234375,1.28746875,1.02684375,-0.2759375,-0.45390625,1.2684375,0.01786105068032903,0.020293281364812628,True
6862,106358,0,106356,3362.0,40542.0,29045.0,0.01342,-0.000244,-0.0035989999999999998,0.21000000000000002,-3.3950000000000005,-3.7800000000000002,1.06415625,0.15296875000000001,0.04190625,1.2902500000000001,1.02665625,-0.27525,-0.4544375,1.2735,0.017640137588696304,0.02029667417212111,True
6863,106359,0,106357,3360.0,40544.0,29047.0,0.008173999999999999,0.00122,-0.003355,0.2625,-2.7300000000000004,-3.7450000000000006,1.06425,0.15659375,0.040375,1.28503125,1.02696875,-0.27509375,-0.4538125,1.27571875,0.01778314450381886,0.02020901648771536,True
6864,106360,0,106358,3360.0,40541.0,29046.0,0.0035989999999999998,0.001403,0.000793,0.2625,-1.8375000000000001,-3.8325000000000005,1.0644375,0.15565625,0.0406875,1.2943437500000001,1.03146875,-0.2749375,-0.450375,1.26775,0.017738202209583442,0.02008404779067806,True
6865,106361,0,106359,3360.0,40543.0,29046.0,0.001769,-0.0008539999999999999,0.000244,0.21000000000000002,-1.12,-3.7800000000000002,1.06428125,0.15634375,0.04490625,1.29325,1.03421875,-0.27421875,-0.45115625000000004,1.26146875,0.01773744005664446,0.020287895383270475,True
6866,106362,0,106360,3357.0,40542.0,29045.0,-0.000488,-0.001037,0.000305,0.29750000000000004,-0.29750000000000004,-3.7800000000000002,1.06528125,0.15628125,0.0415,1.28375,1.031625,-0.272875,-0.45146875000000003,1.27475,0.01768048696332841,0.020161109953773227,True
6867,106363,0,106361,3359.0,40542.0,29046.0,-0.004026,0.000488,0.0,0.1925,0.3325,-3.8325000000000005,1.0649375,0.155875,0.04315625,1.28665625,1.02478125,-0.27478125000000003,-0.4503125,1.2726875,0.017740891073941195,0.020182513004690636,True
6868,106364,0,106362,3359.0,40543.0,29045.0,-0.008784,-0.000183,0.005978,0.31500000000000006,0.665,-3.7450000000000006,1.06384375,0.155625,0.04359375,1.29009375,1.02678125,-0.27453125,-0.44928125,1.26809375,0.01772047606480558,0.02015907931853825,True
6869,106365,0,106363,3358.0,40542.0,29045.0,-0.007869,-0.001464,0.002379,0.45500000000000007,0.1925,-3.8150000000000004,1.0674375,0.15615625,0.04234375,1.2904375000000001,1.02753125,-0.2769375,-0.45225,1.2681875,0.017839719280901885,0.020226921857906737,True
6870,106366,0,106364,3357.0,40539.0,29042.0,-0.0070149999999999995,0.0,0.0013419999999999999,0.45500000000000007,-0.28,-3.7975000000000003,1.0666875,0.15728125,0.042125,1.2880625,1.027125,-0.27971875,-0.4505,1.2683125,0.017998561041816023,0.020147849737224187,True
6871,106367,0,106365,3357.0,40541.0,29041.0,-0.004148,0.002623,0.00061,0.45500000000000007,-0.8750000000000001,-3.7800000000000002,1.06965625,0.15703125,0.04278125,1.29409375,1.03715625,-0.27884375,-0.451625,1.27825,0.017952873064640898,0.02021977066963852,True
6872,106368,0,106366,3357.0,40539.0,29044.0,0.0062829999999999995,-0.001464,-0.0032329999999999998,0.31500000000000006,-1.4175000000000002,-3.6225000000000005,1.0648125,0.15609375,0.0421875,1.2905312500000001,1.0279375,-0.2705625,-0.4546875,1.27103125,0.01757916611945026,0.02031819053095649,True
6873,106369,0,106367,3356.0,40541.0,29044.0,0.009516,-0.0018909999999999999,-0.002379,0.1925,-1.7850000000000001,-3.7975000000000003,1.06590625,0.15175,0.04328125,1.2885312500000001,1.0239375,-0.27446875,-0.45503125,1.265875,0.01755831422675316,0.02037668629027002,True
6874,106370,0,106368,3357.0,40541.0,29043.0,0.0060999999999999995,-6.1e-05,-0.00122,0.36750000000000005,-1.715,-3.7800000000000002,1.0854375,0.15678125,0.04434375,1.31296875,1.02559375,-0.2779375,-0.45040625,1.2658125,0.01790591766701764,0.020234837611338256,True
6875,106371,0,106369,3356.0,40540.0,29045.0,0.001464,0.00122,-0.00061,0.31500000000000006,-1.33,-3.7625,1.06290625,0.15684375,0.029687500000000002,1.2915625,1.0378125,-0.273,-0.44984375,1.27215625,0.01770871956494871,0.01961285539912704,True
6876,106372,0,106370,3356.0,40540.0,29043.0,-0.00122,0.000549,0.00042699999999999997,0.42000000000000004,-1.155,-3.7275000000000005,1.05165625,0.15081250000000002,0.04115625,1.27959375,1.0370625,-0.27315625,-0.4505,1.27953125,0.01746656865029656,0.020108228870575243,True
6877,106373,0,106371,3358.0,40540.0,29044.0,-0.004514,-0.000549,0.0015249999999999999,0.665,-1.155,-3.6925000000000003,1.0518750000000001,0.14825,0.0346875,1.27921875,1.03290625,-0.26587500000000003,-0.45125,1.26715625,0.01706614741895769,0.019873728336997083,True
6878,106374,0,106372,3355.0,40535.0,29041.0,-0.009089,0.002806,0.002989,0.6825000000000001,-1.5050000000000001,-3.7100000000000004,1.0521875,0.15021875,0.0328125,1.296375,1.03340625,-0.27328125000000003,-0.44359375,1.2767187500000001,0.01744716734578272,0.01949002486592218,True
6879,106375,0,106373,3355.0,40533.0,29035.0,-0.007076,0.002257,0.002623,0.43750000000000006,-1.9425000000000001,-3.8675,1.0519375,0.16009375,0.03459375,1.29546875,1.03928125,-0.27284375,-0.4499375,1.26190625,0.017836290813679382,0.01981727969652274,True
6880,106376,0,106374,3355.0,40532.0,29038.0,0.000793,0.000366,-0.0013419999999999999,0.47250000000000003,-2.45,-3.7100000000000004,1.05275,0.1608125,0.04259375,1.3101562500000001,1.0384375000000001,-0.2768125,-0.44875,1.26625,0.01802646043421063,0.02009688634388261,True
