frame_seq,absolute_seq_u64,segment_id,sample_seq,PPG_G,PPG_R,PPG_IR,ACC_X,ACC_Y,ACC_Z,GYRO_X,GYRO_Y,GYRO_Z,Uh1,Uh2,Uh3,Uh4,Uc1,Uc2,Uc3,Uc4,UD1,UD2,parser_valid
11189,78994,1,78995,2869.0,37634.0,28903.0,-0.000915,0.000549,-0.000122,0.49000000000000005,-1.61,-3.8150000000000004,0.90971875,0.38471875,0.10871875,1.20275,0.8797812500000001,-0.20003125,-0.37603125,1.1813125,0.02416319193802694,0.019886338142104245,True
11190,78995,1,78996,2870.0,37631.0,28903.0,0.0028669999999999998,-0.000793,-0.00042699999999999997,0.28,-1.8200000000000003,-3.7800000000000002,0.91009375,0.3848125,0.10871875,1.197375,0.87903125,-0.20459375,-0.37509375,1.18221875,0.024351007750336648,0.019848641607788688,True
11191,78996,1,78997,2870.0,37632.0,28902.0,0.00488,-0.0017079999999999999,-0.001403,0.2625,-1.9075000000000002,-3.6925000000000003,0.91278125,0.385625,0.10690625000000001,1.1973125,0.87875,-0.19846875,-0.3784375,1.1770625000000001,0.02413763267562126,0.01990873082001256,True
11192,78997,1,78998,2869.0,37631.0,28900.0,0.0032329999999999998,-0.001952,-0.00244,0.31500000000000006,-1.61,-3.7975000000000003,0.91371875,0.3851875,0.10903125,1.19609375,0.88596875,-0.200625,-0.37596875,1.1835,0.024206502931225955,0.019896645133334445,True
11193,78998,1,78999,2869.0,37630.0,28899.0,0.000732,-0.0013419999999999999,-0.00061,0.29750000000000004,-1.2600000000000002,-3.7800000000000002,0.90940625,0.38525,0.1071875,1.19753125,0.87896875,-0.2041875,-0.3778125,1.176375,0.02435270756351561,0.01989514030432386,True
11194,78999,1,79000,2872.0,37630.0,28899.0,-0.003111,-0.0011589999999999999,0.0018909999999999999,0.36750000000000005,-1.0675000000000001,-3.8325000000000005,0.91028125,0.38334375,0.10875,1.1975625,0.88696875,-0.20321875,-0.376125,1.1771562500000001,0.024234896443267488,0.01989138962817101,True
11195,79000,1,79001,2873.0,37634.0,28903.0,-0.005673,0.000732,0.000915,0.5075000000000001,-0.9800000000000001,-3.9025000000000003,0.915,0.38634375,0.10825,1.201375,0.8859375,-0.200375,-0.37665625,1.1845,0.024244200761351836,0.019892238091514296,True
11196,79001,1,79002,2871.0,37637.0,28903.0,-0.004575,0.000366,0.000183,0.43750000000000006,-1.2425000000000002,-3.7800000000000002,0.90190625,0.38421875,0.11090625,1.1978125,0.87284375,-0.20309375000000002,-0.37515625,1.1758125,0.02426600938154859,0.019940897814757597,True
11197,79002,1,79003,2872.0,37638.0,28905.0,-0.0011589999999999999,0.0006709999999999999,0.000732,0.31500000000000006,-1.5925000000000002,-3.9025000000000003,0.91790625,0.38625,0.1069375,1.2138125,0.885875,-0.2000625,-0.37934375000000004,1.1765625,0.024227726684590174,0.01994644544113293,True
11198,79003,1,79004,2874.0,37636.0,28902.0,0.002196,0.001586,-0.000244,0.35000000000000003,-1.8900000000000001,-3.8500000000000005,0.90084375,0.3760625,0.10965625,1.1940625,0.87090625,-0.20015625,-0.3763125,1.17603125,0.023810538413362517,0.01993610600454847,True
11199,79004,1,79005,2872.0,37636.0,28904.0,0.0048189999999999995,0.00122,0.000244,0.36750000000000005,-2.1350000000000002,-3.7625,0.91209375,0.38646875,0.111875,1.18684375,0.88125,-0.20315625,-0.37546875,1.1793125,0.02436149210911284,0.01999320525887323,True
11200,79005,1,79006,2872.0,37635.0,28905.0,0.004941,0.000915,-0.000793,0.3325,-2.0475000000000003,-3.7625,0.92496875,0.38828125,0.11056250000000001,1.1969375,0.88625,-0.1939375,-0.3756875,1.1800625,0.024064654626804752,0.01994815530844002,True
11201,79006,1,79007,2873.0,37633.0,28903.0,0.003721,0.00042699999999999997,-0.0006709999999999999,0.4025,-1.7675,-3.8325000000000005,0.920125,0.387375,0.106875,1.211,0.884875,-0.2005,-0.375875,1.183875,0.024291853474101774,0.019804417277328505,True
11202,79007,1,79008,2870.0,37633.0,28904.0,0.001952,-0.00042699999999999997,-0.000915,0.385,-1.4175000000000002,-3.8150000000000004,0.9035625,0.38903125,0.105625,1.19228125,0.8788125,-0.20075,-0.37584375000000003,1.1768125,0.024370370752972534,0.019751880383627744,True
11203,79008,1,79009,2873.0,37634.0,28904.0,-0.002623,-6.1e-05,-0.000244,0.45500000000000007,-1.0675000000000001,-3.8675,0.92553125,0.385125,0.11143750000000001,1.2024375,0.87909375,-0.199875,-0.375875,1.17865625,0.024173678583050532,0.01999159004548555,True
11204,79009,1,79010,2873.0,37634.0,28903.0,-0.004026,-0.0006709999999999999,0.000183,0.6125,-0.7875000000000001,-3.7975000000000003,0.92253125,0.387125,0.10640625000000001,1.2065000000000001,0.88075,-0.20034375000000001,-0.376,1.1832500000000001,0.0242752233633045,0.019790213734821135,True
11205,79010,1,79011,2873.0,37634.0,28906.0,-0.002745,-0.000305,0.0025009999999999998,0.525,-0.6475000000000001,-3.8325000000000005,0.90465625,0.3825625,0.10325000000000001,1.1920625,0.8781875,-0.2015625,-0.3765,1.176125,0.02413583833688424,0.019680840153426457,True
11206,79011,1,79012,2873.0,37636.0,28907.0,-0.003904,-0.000732,0.002379,0.5775,-0.6300000000000001,-3.8850000000000002,0.92440625,0.38178125,0.1093125,1.20115625,0.88578125,-0.20125,-0.372125,1.180625,0.024090956045658796,0.01975361196448812,True
11207,79012,1,79013,2875.0,37637.0,28904.0,-0.002074,-0.0015249999999999999,-0.000732,0.56,-0.9450000000000001,-3.8850000000000002,0.9215625000000001,0.38775,0.1065625,1.20609375,0.8866875000000001,-0.2005,-0.37628125,1.18309375,0.024307349021714424,0.019807933172743483,True
11208,79013,1,79014,2875.0,37634.0,28906.0,0.000366,-0.000793,-0.001586,0.43750000000000006,-1.1375000000000002,-3.7100000000000004,0.9048125,0.3858125,0.10821875,1.19228125,0.87896875,-0.20065625,-0.37821875,1.1767812500000001,0.024233588706917813,0.019953775334795535,True
11209,79014,1,79015,2876.0,37636.0,28907.0,0.002074,0.0008539999999999999,-0.00061,0.43750000000000006,-1.4000000000000001,-3.6925000000000003,0.911,0.38525,0.11006250000000001,1.19615625,0.88034375,-0.20065625,-0.3720625,1.1821875,0.02421034553556786,0.01978187114857432,True
11210,79015,1,79016,2876.0,37637.0,28906.0,0.002074,0.000915,-0.0006709999999999999,0.4025,-1.5575,-3.9725000000000006,0.9126562500000001,0.3909375,0.10984375,1.2033125,0.88578125,-0.2006875,-0.3756875,1.17275,0.024446619543349746,0.01991866896061906,True
11211,79016,1,79017,2875.0,37637.0,28907.0,-0.000915,0.0017079999999999999,-0.000305,0.47250000000000003,-1.4700000000000002,-3.9725000000000006,0.9101250000000001,0.38478125,0.10546875,1.19746875,0.87934375,-0.19725,-0.3770625,1.17675,0.024053611464112657,0.019794478928706033,True
11212,79017,1,79018,2878.0,37637.0,28910.0,-0.000915,0.0018909999999999999,-0.00183,0.35000000000000003,-1.435,-3.99,0.9098125,0.38428125,0.1084375,1.19903125,0.8801875,-0.20328125,-0.3735,1.1818125,0.024276150573592167,0.01977301167251318,True
11213,79018,1,79019,2876.0,37638.0,28910.0,0.000549,0.000732,0.001464,0.36750000000000005,-1.3475000000000001,-3.8675,0.9153125,0.38540625,0.1069375,1.19771875,0.87909375,-0.20134375000000002,-0.37675000000000003,1.1761875,0.024244521546453388,0.019842165177884667,True
11214,79019,1,79020,2877.0,37639.0,28910.0,0.0021349999999999997,-0.000366,0.0011589999999999999,0.43750000000000006,-1.4525000000000001,-3.9725000000000006,0.91696875,0.385875,0.11565625,1.20415625,0.8814375,-0.19990625,-0.37615625,1.18271875,0.02420593054983426,0.02017596601186867,True
11215,79020,1,79021,2879.0,37639.0,28910.0,-0.00183,-0.00042699999999999997,0.000549,0.4025,-1.2600000000000002,-3.7625,0.911625,0.38509375,0.106125,1.197625,0.87928125,-0.20003125,-0.37496875,1.1693437500000001,0.024178687785785403,0.019737204791288192,True
11216,79021,1,79022,2879.0,37640.0,28914.0,-0.000244,-0.0011589999999999999,-0.00061,0.31500000000000006,-1.0850000000000002,-3.7450000000000006,0.9169375000000001,0.38856250000000003,0.10609375,1.20375,0.88446875,-0.19993750000000002,-0.376375,1.176625,0.02431824462356566,0.019792473245098995,True
11217,79022,1,79023,2878.0,37638.0,28915.0,-0.000915,-0.001281,0.0006709999999999999,0.43750000000000006,-1.1725,-3.9025000000000003,0.91078125,0.39156250000000004,0.10975,1.19690625,0.8787812500000001,-0.201625,-0.37543750000000004,1.17553125,0.024510234333438352,0.01990477094000877,True
11218,79023,1,79024,2878.0,37638.0,28914.0,-0.000915,-0.001037,0.000488,0.4025,-1.2425000000000002,-3.9200000000000004,0.90409375,0.38846875000000003,0.10878125,1.2058125,0.8853125000000001,-0.1998125,-0.370875,1.17246875,0.02430933090907213,0.01968153584965661,True
11219,79024,1,79025,2880.0,37639.0,28912.0,-0.0008539999999999999,-0.000305,0.000976,0.5075000000000001,-1.4175000000000002,-3.8675,0.91053125,0.385125,0.10546875,1.19753125,0.8787812500000001,-0.203375,-0.3774375,1.17684375,0.024314790809133024,0.019809557505787882,True
11220,79025,1,79026,2880.0,37637.0,28913.0,0.0013419999999999999,0.000732,-0.001281,0.45500000000000007,-1.5575,-3.8850000000000002,0.91459375,0.38409375,0.10878125,1.2025937500000001,0.887,-0.200375,-0.37609375,1.1711875,0.02415122699544945,0.019891415128808324,True
11221,79026,1,79027,2879.0,37640.0,28914.0,0.0028669999999999998,-0.000122,-0.000976,0.31500000000000006,-1.5050000000000001,-3.9375000000000004,0.91815625,0.3854375,0.10765625000000001,1.202875,0.8795000000000001,-0.2013125,-0.37234375000000003,1.1814375,0.024244552852247164,0.01969445388279492,True
11222,79027,1,79028,2880.0,37639.0,28914.0,0.0021349999999999997,-0.000122,-0.000549,0.35000000000000003,-1.3825,-3.9550000000000005,0.9140625,0.38615625000000003,0.10475,1.20309375,0.87934375,-0.19968750000000002,-0.37846875,1.1755,0.02420873203424631,0.019821538216997326,True
11223,79028,1,79029,2879.0,37640.0,28914.0,-0.001281,-0.00042699999999999997,0.000305,0.47250000000000003,-1.2075,-3.9725000000000006,0.90990625,0.389875,0.10728125000000001,1.20290625,0.8796875000000001,-0.200875,-0.37509375,1.17684375,0.024410274421895903,0.01978966747563791,True
11224,79029,1,79030,2881.0,37639.0,28914.0,-0.0034159999999999998,-0.000915,0.00042699999999999997,0.385,-1.3125000000000002,-3.9200000000000004,0.9103125,0.3828125,0.10625,1.18975,0.87884375,-0.20165625,-0.375,1.176125,0.02414994841520402,0.019743589743589744,True
11225,79030,1,79031,2883.0,37640.0,28914.0,0.0017079999999999999,0.001586,0.0011589999999999999,0.385,-1.4175000000000002,-3.8850000000000002,0.91215625,0.38475,0.10925,1.2035,0.88546875,-0.19965625,-0.376375,1.18165625,0.024149361625746234,0.019921953120593198,True
11226,79031,1,79032,2882.0,37641.0,28915.0,-0.000305,0.002074,0.000549,0.4025,-1.4000000000000001,-3.9025000000000003,0.912625,0.3863125,0.10846875,1.19128125,0.879375,-0.200375,-0.3776875,1.17625,0.02424290945904764,0.019942672987337293,True
11227,79032,1,79033,2881.0,37640.0,28913.0,-0.000976,-0.000732,-0.000976,0.45500000000000007,-1.3650000000000002,-3.7975000000000003,0.9098125,0.38478125,0.10721875,1.20028125,0.87909375,-0.202125,-0.372375,1.17446875,0.0242501949725489,0.019677760169043847,True
11228,79033,1,79034,2882.0,37641.0,28913.0,0.000183,-0.002623,-0.00122,0.43750000000000006,-1.54,-3.7800000000000002,0.9101250000000001,0.38603125,0.1075,1.20065625,0.8797812500000001,-0.20040625,-0.377875,1.17953125,0.024232547749069293,0.019910472098162782,True
11229,79034,1,79035,2883.0,37640.0,28915.0,0.001464,-0.000488,-0.000305,0.45500000000000007,-1.61,-3.7100000000000004,0.90075,0.38696875000000003,0.108625,1.19771875,0.87075,-0.20140625,-0.3776875,1.17571875,0.02431160379368451,0.019949082537053606,True
11230,79035,1,79036,2883.0,37641.0,28916.0,0.002806,0.000366,0.000244,0.4025,-1.3125000000000002,-3.7450000000000006,0.9104375,0.38440625,0.1086875,1.19746875,0.87015625,-0.20171875,-0.3756875,1.1783125,0.02421832127108741,0.019871234401080993,True
11231,79036,1,79037,2884.0,37642.0,28917.0,-0.0008539999999999999,0.0015249999999999999,-0.001037,0.47250000000000003,-1.12,-3.7800000000000002,0.914375,0.38521875,0.10903125,1.19784375,0.88509375,-0.200125,-0.3768125,1.188375,0.024187633328340247,0.01993056926536232,True
11232,79037,1,79038,2884.0,37644.0,28919.0,-0.0028669999999999998,0.0015249999999999999,-0.0006709999999999999,0.47250000000000003,-1.0850000000000002,-3.8850000000000002,0.91515625,0.386875,0.10853125,1.19728125,0.88403125,-0.19865625,-0.377125,1.1870625000000001,0.02419684977342492,0.01992262213037838,True
11233,79038,1,79039,2888.0,37648.0,28919.0,-0.0034159999999999998,0.001403,-0.001098,0.49000000000000005,-1.0325000000000002,-3.8150000000000004,0.9158125,0.3879375,0.10884375,1.197875,0.8698750000000001,-0.19759375,-0.37553125,1.1844375,0.024197912240757413,0.01987136177801253,True
11234,79039,1,79040,2887.0,37650.0,28919.0,-0.002928,-0.0008539999999999999,0.000305,0.49000000000000005,-1.05,-3.7975000000000003,0.89778125,0.38265625000000003,0.10971875,1.19725,0.89115625,-0.199,-0.3740625,1.1738125,0.024036375470060743,0.019848199289716272,True
11235,79040,1,79041,2887.0,37649.0,28920.0,-0.0006709999999999999,-0.0023179999999999997,0.000976,0.42000000000000004,-1.3650000000000002,-3.7975000000000003,0.91146875,0.3741875,0.1120625,1.1865,0.883625,-0.202875,-0.37343750000000003,1.17371875,0.023842725296065036,0.019919225591384062,True
11236,79041,1,79042,2886.0,37647.0,28918.0,0.001098,-0.0018909999999999999,0.0006709999999999999,0.35000000000000003,-1.435,-3.7100000000000004,0.9198125,0.38184375,0.11275,1.18771875,0.8920625,-0.202875,-0.3745,1.1748125,0.024159061681721695,0.019990153644177316,True
11237,79042,1,79043,2886.0,37643.0,28917.0,0.0008539999999999999,0.000122,-0.000122,0.1925,-1.435,-3.8500000000000005,0.89896875,0.38125000000000003,0.09946875000000001,1.20065625,0.8639375,-0.20559375,-0.3784375,1.17440625,0.024244137783234507,0.019603645639717473,True
11238,79043,1,79044,2886.0,37642.0,28916.0,0.001647,0.0,-0.000549,0.22750000000000004,-1.4175000000000002,-3.8500000000000005,0.89915625,0.39537500000000003,0.09890625,1.2126875,0.87671875,-0.19943750000000002,-0.38053125,1.184375,0.024579600248972735,0.019664768379483114,True
11239,79044,1,79045,2885.0,37637.0,28915.0,0.0028669999999999998,0.000549,-0.0006709999999999999,0.31500000000000006,-1.435,-3.8675,0.898875,0.389375,0.10571875,1.2159375000000001,0.87675,-0.19925,-0.38234375,1.18690625,0.02432410095354195,0.02001704614635334,True
11240,79045,1,79046,2883.0,37634.0,28911.0,0.0006709999999999999,0.001037,-0.00061,0.42000000000000004,-1.5225000000000002,-3.9725000000000006,0.933125,0.3756875,0.10740625000000001,1.1908125,0.8882187500000001,-0.20190625,-0.37384375000000003,1.17459375,0.023865630419091472,0.01974452634291627,True
11241,79046,1,79047,2880.0,37631.0,28910.0,-0.00061,0.000122,0.0015249999999999999,0.4025,-1.4175000000000002,-3.9725000000000006,0.8988125,0.38665625000000003,0.10546875,1.2195,0.87615625,-0.197,-0.37946875,1.18425,0.0241210170682316,0.01989122507027558,True
11242,79047,1,79048,2880.0,37625.0,28908.0,-0.0008539999999999999,0.0011589999999999999,0.0006709999999999999,0.385,-1.3475000000000001,-3.9725000000000006,0.93015625,0.38028125,0.115375,1.1873125,0.8836875000000001,-0.1978125,-0.373875,1.17396875,0.023890330995828653,0.020072721305085875,True
11243,79048,1,79049,2880.0,37621.0,28903.0,-0.00042699999999999997,0.000549,0.000488,0.4025,-1.3650000000000002,-4.0425,0.90165625,0.38065625000000003,0.09490625,1.2146875,0.88175,-0.20321875,-0.3780625,1.17940625,0.02412385749312785,0.019401408540978188,True
11244,79049,1,79050,2876.0,37617.0,28900.0,0.0006709999999999999,-0.000366,0.000122,0.29750000000000004,-1.33,-3.99,0.91615625,0.39071875,0.1125625,1.18834375,0.8785937500000001,-0.20015625,-0.37540625,1.1691875,0.02441616466835829,0.02001889712094542,True
11245,79050,1,79051,2875.0,37614.0,28902.0,-0.001769,-0.000305,-0.00042699999999999997,0.385,-1.2425000000000002,-3.9200000000000004,0.89625,0.38009375,0.0979375,1.2142187500000001,0.8835625,-0.20325000000000001,-0.37765625,1.1793437500000001,0.024101876814064227,0.0195094124358243,True
11246,79051,1,79052,2875.0,37614.0,28902.0,-0.003172,-0.000183,0.0006709999999999999,0.385,-1.2950000000000002,-3.9550000000000005,0.9166562500000001,0.3895,0.108375,1.201,0.8788125,-0.2004375,-0.3788125,1.1753437500000001,0.024377141942165302,0.019984053776204234,True
11247,79052,1,79053,2874.0,37613.0,28901.0,-0.0023179999999999997,-0.000488,0.000244,0.385,-1.4000000000000001,-3.8675,0.9041250000000001,0.38534375,0.108375,1.20115625,0.879625,-0.2019375,-0.37828125,1.17203125,0.024265877473652678,0.019962697329205685,True
11248,79053,1,79054,2872.0,37610.0,28900.0,-0.0011589999999999999,0.000183,-0.000488,0.36750000000000005,-1.6450000000000002,-3.8325000000000005,0.90053125,0.38665625000000003,0.111375,1.20434375,0.8794062500000001,-0.20396875,-0.37478125,1.1764375,0.02440198985961755,0.019945050788917337,True
11249,79054,1,79055,2872.0,37608.0,28898.0,0.0021349999999999997,6.1e-05,0.000122,0.36750000000000005,-1.7675,-3.7800000000000002,0.91528125,0.38746875000000003,0.10871875,1.20096875,0.8790625,-0.200625,-0.3735,1.18190625,0.024300767025645004,0.01978455084415451,True
11250,79055,1,79056,2870.0,37607.0,28897.0,0.002745,-0.00042699999999999997,-6.1e-05,0.35000000000000003,-1.9775000000000003,-3.8675,0.91796875,0.38346875,0.108875,1.1976875,0.87871875,-0.2005625,-0.37584375000000003,1.17753125,0.024132961785495687,0.01988520910173622,True
11251,79056,1,79057,2869.0,37604.0,28897.0,0.0018909999999999999,-0.000183,-0.000183,0.43750000000000006,-1.8375000000000001,-3.8325000000000005,0.91096875,0.385375,0.10653125000000001,1.19959375,0.88590625,-0.19759375,-0.37503125,1.17546875,0.024092013281279263,0.01975638492771163,True
11252,79057,1,79058,2868.0,37604.0,28898.0,0.000976,-0.0006709999999999999,-0.00122,0.42000000000000004,-1.7325000000000002,-3.8150000000000004,0.91046875,0.383875,0.10521875,1.1993125,0.88503125,-0.203375,-0.37034375,1.169,0.024263145119224075,0.019513984081574558,True
11253,79058,1,79059,2868.0,37603.0,28894.0,-0.001952,0.000183,-0.00042699999999999997,0.4025,-1.6800000000000002,-3.7975000000000003,0.9076875,0.38515625000000003,0.10759375,1.1985937500000001,0.88396875,-0.20059375000000002,-0.37571875,1.17578125,0.024203951607592273,0.019827620467601594,True
11254,79059,1,79060,2867.0,37602.0,28895.0,-0.000549,-0.00061,0.000915,0.36750000000000005,-1.5925000000000002,-3.8325000000000005,0.9135,0.3854375,0.10815625,1.2029375,0.8815000000000001,-0.19975,-0.3798125,1.1669375,0.024181551462308493,0.020015279034652132,True
11255,79060,1,79061,2869.0,37602.0,28895.0,0.001464,0.000549,-0.00042699999999999997,0.385,-1.4000000000000001,-3.8500000000000005,0.9104375,0.38884375,0.10528125,1.198,0.87953125,-0.20228125,-0.3721875,1.1773125,0.02442435049381967,0.019590722006385352,True
11256,79061,1,79062,2867.0,37603.0,28896.0,0.000366,0.0013419999999999999,-0.0011589999999999999,0.36750000000000005,-1.2425000000000002,-3.8325000000000005,0.91115625,0.38484375,0.1093125,1.19778125,0.8882187500000001,-0.2000625,-0.37571875,1.18228125,0.02416961733053375,0.019898131208951533,True
11257,79062,1,79063,2866.0,37601.0,28894.0,-0.001403,0.000183,-0.0017079999999999999,0.4025,-1.1900000000000002,-3.9025000000000003,0.919,0.38584375,0.1085625,1.19740625,0.8799375,-0.200125,-0.37746875,1.1792500000000001,0.024213459641220857,0.019937724256133035,True
11258,79063,1,79064,2867.0,37599.0,28893.0,-0.0017079999999999999,0.0,-0.001281,0.36750000000000005,-1.12,-3.8150000000000004,0.91240625,0.38603125,0.1083125,1.20578125,0.87915625,-0.20025,-0.37725000000000003,1.1773437500000001,0.024226247662730755,0.01991867417366602,True
11259,79064,1,79065,2867.0,37600.0,28897.0,0.001464,0.0,0.0006709999999999999,0.3325,-1.2600000000000002,-3.9375000000000004,0.915,0.38528125,0.1089375,1.20271875,0.87834375,-0.20084375000000002,-0.3764375,1.18040625,0.02421919690300054,0.019911646236247606,True
11260,79065,1,79066,2867.0,37600.0,28897.0,0.0006709999999999999,0.000305,0.000549,0.385,-1.2425000000000002,-3.9025000000000003,0.918,0.38609375,0.10925,1.19796875,0.87934375,-0.20071875,-0.37753125,1.18284375,0.02424773024561512,0.019968439174906195,True
11261,79066,1,79067,2868.0,37600.0,28897.0,-0.000549,0.00042699999999999997,0.0006709999999999999,0.4025,-1.2425000000000002,-3.8850000000000002,0.9157500000000001,0.38353125,0.1095,1.19784375,0.87796875,-0.2010625,-0.3755,1.1646875,0.02415570597365302,0.019897027753276855,True
11262,79067,1,79068,2868.0,37603.0,28899.0,-0.001464,-0.000183,-0.000183,0.5075000000000001,-1.2775,-3.9375000000000004,0.9020625,0.38575,0.10578125000000001,1.19809375,0.88503125,-0.1975,-0.376,1.17675,0.024103729724145057,0.019764573761076466,True
11263,79068,1,79069,2867.0,37602.0,28899.0,-0.0017079999999999999,-0.000366,6.1e-05,0.47250000000000003,-1.1900000000000002,-3.9200000000000004,0.911,0.385,0.10825,1.19590625,0.88509375,-0.20221875,-0.373375,1.17690625,0.024263013076022213,0.019760291711755144,True
11264,79069,1,79070,2868.0,37604.0,28899.0,0.0015249999999999999,-0.001403,6.1e-05,0.385,-1.2075,-3.9025000000000003,0.9101250000000001,0.38265625000000003,0.10975,1.19821875,0.8835625,-0.1995,-0.37584375000000003,1.18059375,0.024056540424388935,0.01992110529507312,True
11265,79070,1,79071,2866.0,37603.0,28900.0,0.000732,-0.000549,-0.000793,0.3325,-1.1025,-3.9550000000000005,0.9184687500000001,0.38596875,0.10471875,1.20334375,0.879375,-0.2010625,-0.37646875,1.1773125,0.024256424692097715,0.01973983618935782,True
11266,79071,1,79072,2867.0,37602.0,28898.0,0.0,-0.0013419999999999999,-0.000976,0.385,-1.0675000000000001,-3.9025000000000003,0.91025,0.38240625,0.11006250000000001,1.19759375,0.88,-0.2024375,-0.37575000000000003,1.18225,0.024164663166674847,0.01993015599520015,True
11267,79072,1,79073,2866.0,37601.0,28897.0,-0.001281,0.0,-0.000366,0.45500000000000007,-1.0675000000000001,-3.8850000000000002,0.90575,0.38678125,0.1115,1.1980625,0.8800625,-0.1955,-0.37603125,1.1793437500000001,0.02406568370151475,0.02000043587899486,True
11268,79073,1,79074,2868.0,37599.0,28895.0,-0.0011589999999999999,0.000488,-0.001464,0.36750000000000005,-1.225,-3.8150000000000004,0.9128437500000001,0.38284375,0.1085625,1.19759375,0.8843125000000001,-0.20059375000000002,-0.37225,1.18265625,0.02410839610081881,0.019727866733682774,True
11269,79074,1,79075,2866.0,37600.0,28898.0,-0.0015249999999999999,0.0037819999999999998,0.00061,0.47250000000000003,-1.3825,-3.7800000000000002,0.91478125,0.38528125,0.10778125000000001,1.206375,0.88003125,-0.20059375000000002,-0.3800625,1.1746875,0.02420911677012057,0.02000994665210559,True
11270,79075,1,79076,2867.0,37600.0,28898.0,-0.004148,0.003172,0.00183,0.43750000000000006,-1.6450000000000002,-3.6750000000000003,0.90840625,0.385375,0.10559375,1.18846875,0.880125,-0.20690625,-0.37453125,1.17528125,0.02446744924292009,0.019697814701564773,True
11271,79076,1,79077,2866.0,37600.0,28897.0,-0.0008539999999999999,-0.0008539999999999999,0.002562,0.36750000000000005,-1.9075000000000002,-3.3950000000000005,0.910375,0.384625,0.10559375,1.19784375,0.8908125,-0.20625000000000002,-0.37478125,1.17359375,0.024410018073844564,0.019707869173184886,True
11272,79077,1,79078,2865.0,37597.0,28897.0,0.0037819999999999998,-0.0026839999999999998,0.0023179999999999997,0.43750000000000006,-2.0825,-3.43,0.91125,0.38265625000000003,0.107875,1.1985937500000001,0.9005,-0.1983125,-0.373125,1.18534375,0.024008647297203062,0.01973485139882555,True
11273,79078,1,79079,2866.0,37591.0,28894.0,0.006039,-0.00061,-0.00122,0.4025,-1.995,-3.535,0.9101250000000001,0.381625,0.107125,1.1979375,0.894875,-0.1988125,-0.3740625,1.1756875,0.023986197669823673,0.019741784940446427,True
11274,79079,1,79080,2864.0,37591.0,28895.0,0.002257,-0.000915,-0.002562,0.385,-1.61,-3.5000000000000004,0.9018125,0.3813125,0.1063125,1.198125,0.89375,-0.19818750000000002,-0.37365625,1.17803125,0.02394807462335764,0.019692111231773037,True
11275,79080,1,79081,2865.0,37592.0,28897.0,-0.008479,0.005429,-0.0050019999999999995,0.47250000000000003,-1.54,-3.5875000000000004,0.9101875,0.38165625000000003,0.10646875,1.1969375,0.889,-0.19834375,-0.37396875,1.18971875,0.02396858256053165,0.019711090341001606,True
11276,79081,1,79082,2866.0,37594.0,28897.0,-0.007259,0.003172,0.004209,0.49000000000000005,-1.6275000000000002,-3.4125000000000005,0.9179375000000001,0.3856875,0.11203125,1.1976875,0.881875,-0.20090625,-0.3804375,1.1719375,0.02423850346513367,0.020199340147197934,True
11277,79082,1,79083,2867.0,37593.0,28896.0,0.000976,-0.006222,0.004941,0.3325,-1.6975000000000002,-3.535,0.9106875,0.3825625,0.1058125,1.20071875,0.8775625,-0.2083125,-0.37215625,1.1711875,0.024407938388931488,0.019611262339580646,True
11278,79083,1,79084,2864.0,37589.0,28894.0,0.00549,-0.005429,0.002806,0.36750000000000005,-1.7850000000000001,-3.8150000000000004,0.91134375,0.38321875,0.1060625,1.197125,0.89796875,-0.204125,-0.37228125,1.16490625,0.024266266597119293,0.01962654808933817,True
11279,79084,1,79085,2866.0,37587.0,28895.0,-0.000244,0.003904,-0.003172,0.45500000000000007,-1.5925000000000002,-3.5700000000000003,0.911875,0.38425,0.108125,1.19771875,0.8760625,-0.20946875,-0.37921875,1.17778125,0.024524237030190923,0.01999012991341242,True
11280,79085,1,79086,2864.0,37587.0,28897.0,-0.000366,0.001464,-0.000244,0.4025,-1.54,-3.5525,0.91828125,0.3836875,0.1091875,1.1970625,0.8569687500000001,-0.19490625,-0.3814375,1.1889375,0.02391386616759468,0.020122890621194912,True
11281,79086,1,79087,2865.0,37587.0,28897.0,0.001586,-0.001464,0.000549,0.4025,-1.3125000000000002,-3.6750000000000003,0.916125,0.383375,0.108375,1.19796875,0.87440625,-0.19565625,-0.3816875,1.18371875,0.02393120666028639,0.020099613695729632,True
11282,79087,1,79088,2864.0,37583.0,28894.0,0.0025009999999999998,0.00042699999999999997,0.001037,0.36750000000000005,-1.1375000000000002,-3.7275000000000005,0.9178437500000001,0.381375,0.1084375,1.1981875,0.8758750000000001,-0.20046875,-0.3745,1.18275,0.024042664462852605,0.01981322693798847,True
11283,79088,1,79089,2863.0,37584.0,28895.0,0.000549,0.001464,0.001647,0.31500000000000006,-0.9625000000000001,-3.6750000000000003,0.9100312500000001,0.37984375000000004,0.10596875,1.19328125,0.8828125,-0.2018125,-0.37475,1.1752500000000001,0.02403358219554837,0.019721997148688705,True
11284,79089,1,79090,2864.0,37584.0,28897.0,-0.0051849999999999995,-0.000122,-0.000122,0.47250000000000003,-0.7525000000000001,-3.4125000000000005,0.9111875,0.382375,0.10853125,1.1980625,0.878375,-0.20659375,-0.37853125,1.18425,0.024330922230642222,0.019979156865736113,True
11285,79090,1,79091,2863.0,37587.0,28896.0,-0.004148,0.001403,-0.000732,0.36750000000000005,-0.7525000000000001,-3.8325000000000005,0.91678125,0.38421875,0.108875,1.19734375,0.884625,-0.20165625,-0.37646875,1.18103125,0.02420805394258916,0.01991033873599924,True
11286,79091,1,79092,2866.0,37585.0,28897.0,-0.002562,-0.001281,0.00042699999999999997,0.5075000000000001,-1.0325000000000002,-3.8150000000000004,0.9149375000000001,0.37975000000000003,0.10859375,1.19809375,0.88465625,-0.20234375000000002,-0.37615625,1.1761875,0.02405113141160141,0.019886236165720345,True
11287,79092,1,79093,2864.0,37584.0,28895.0,0.000244,-0.002196,0.00061,0.385,-1.3125000000000002,-3.6925000000000003,0.91009375,0.38184375,0.10825,1.2016875,0.885875,-0.20478125,-0.37509375,1.17653125,0.02423591413370034,0.01982941091252213,True
11288,79093,1,79094,2866.0,37583.0,28897.0,-0.00042699999999999997,-0.001098,0.000305,0.36750000000000005,-1.5925000000000002,-3.8500000000000005,0.9111250000000001,0.38221875,0.1060625,1.1985000000000001,0.87415625,-0.2064375,-0.37521875,1.17646875,0.024318169495201433,0.019744694598894625,True
11289,79094,1,79095,2867.0,37584.0,28897.0,0.001403,-0.0006709999999999999,-0.000732,0.43750000000000006,-2.2575000000000003,-3.7450000000000006,0.90659375,0.3821875,0.1080625,1.20334375,0.88578125,-0.2054375,-0.3738125,1.17684375,0.024276570088848842,0.019770193932524917,True
11290,79095,1,79096,2865.0,37584.0,28898.0,0.003721,0.00122,0.0006709999999999999,0.36750000000000005,-2.205,-3.9375000000000004,0.89775,0.38115625000000003,0.10821875,1.2030625,0.86884375,-0.20678125,-0.37728125,1.1772500000000001,0.024288132070429645,0.019916084776681157,True
11291,79096,1,79097,2867.0,37584.0,28897.0,0.003843,0.001098,0.0006709999999999999,0.35000000000000003,-2.2925000000000004,-3.9375000000000004,0.9178125,0.379875,0.1085625,1.19796875,0.87990625,-0.203875,-0.3756875,1.1825625,0.02411803895037468,0.019866106340590394,True
11292,79097,1,79098,2867.0,37583.0,28898.0,0.002989,0.0021349999999999997,6.1e-05,0.42000000000000004,-2.1525000000000003,-3.8850000000000002,0.9155,0.378375,0.1125,1.19828125,0.8767812500000001,-0.20321875,-0.37496875,1.1761875,0.02402960350056746,0.019998743588132806,True
11293,79098,1,79099,2867.0,37580.0,28895.0,0.003477,0.00122,-0.002745,0.31500000000000006,-1.8200000000000003,-3.9550000000000005,0.9106875,0.38025000000000003,0.1054375,1.209,0.8741875,-0.20750000000000002,-0.37815625,1.1778125,0.02427966539295673,0.019837174929912924,True
11294,79099,1,79100,2867.0,37581.0,28898.0,0.000549,0.000366,0.001586,0.36750000000000005,-1.2425000000000002,-3.9725000000000006,0.91,0.3808125,0.10915625,1.2075625,0.87740625,-0.20621875,-0.37825000000000003,1.1814375,0.024251257747557122,0.01999348804774748,True
11295,79100,1,79101,2868.0,37581.0,28897.0,-0.00122,-0.00183,0.0017079999999999999,0.31500000000000006,-0.9275000000000001,-3.9550000000000005,0.923,0.37709375,0.11081250000000001,1.1889375,0.8795000000000001,-0.2040625,-0.37521875,1.17640625,0.024010690354150262,0.019939564644932677,True
11296,79101,1,79102,2869.0,37579.0,28897.0,-0.00488,-0.003172,0.000122,0.4025,-0.7875000000000001,-3.9375000000000004,0.9067500000000001,0.3775,0.10515625,1.19615625,0.8883125000000001,-0.20784375,-0.37446875,1.17721875,0.02417992102249917,0.019677351942285926,True
11297,79102,1,79103,2868.0,37580.0,28895.0,-0.006771,-0.002196,-0.000122,0.43750000000000006,-0.8225000000000001,-3.7450000000000006,0.90825,0.38009375,0.10959375,1.18815625,0.8789375,-0.202,-0.37859375,1.181625,0.024051473018758783,0.020025252687103826,True
11298,79103,1,79104,2869.0,37579.0,28897.0,-0.003172,-0.001281,-0.000183,0.36750000000000005,-0.9800000000000001,-3.8150000000000004,0.9169375000000001,0.3758125,0.1053125,1.20875,0.8871875,-0.204375,-0.37443750000000003,1.1765625,0.02397035659875539,0.019682505493716522,True
11299,79104,1,79105,2868.0,37579.0,28896.0,0.001464,0.000122,0.000366,0.31500000000000006,-1.5225000000000002,-3.9725000000000006,0.9201875,0.37978125,0.1095,1.19453125,0.8797812500000001,-0.2051875,-0.37615625,1.1765625,0.02416708195299045,0.019923413889341147,True
11300,79105,1,79106,2868.0,37577.0,28896.0,0.001098,0.000366,-0.000244,0.3325,-1.6625,-4.0075,0.9106562500000001,0.376,0.10596875,1.2100625,0.88596875,-0.20753125,-0.37684375000000003,1.17409375,0.024105359773107803,0.019806194146852998,True
11301,79106,1,79107,2868.0,37578.0,28897.0,0.000793,0.002013,0.00061,0.4025,-1.715,-3.9375000000000004,0.92259375,0.375125,0.10978125,1.19325,0.87896875,-0.2055625,-0.37571875,1.17971875,0.023989837046753202,0.019917361411137875,True
11302,79107,1,79108,2868.0,37576.0,28896.0,0.00122,0.003172,0.000122,0.28,-1.8375000000000001,-3.99,0.90946875,0.37465625,0.10703125000000001,1.208375,0.883875,-0.20778125,-0.37715625,1.1769687500000001,0.024059929077556417,0.019862345510461257,True
11303,79108,1,79109,2869.0,37573.0,28895.0,0.001952,0.001098,-0.000122,0.36750000000000005,-1.9075000000000002,-3.9550000000000005,0.9150625,0.3788125,0.10771875,1.20478125,0.8801875,-0.20625000000000002,-0.37665625,1.1804375,0.024169894138910405,0.0198704447005524,True
11304,79109,1,79110,2867.0,37574.0,28897.0,0.000732,-0.001037,-0.000549,0.3325,-2.0125,-3.9200000000000004,0.9177500000000001,0.378,0.11006250000000001,1.19590625,0.87925,-0.20596875,-0.37571875,1.1800625,0.02412498983334431,0.019928899532449685,True
11305,79110,1,79111,2867.0,37571.0,28896.0,0.000976,-0.000488,-0.000366,0.36750000000000005,-1.9075000000000002,-3.8500000000000005,0.9059375000000001,0.37753125,0.10981250000000001,1.1971875,0.88421875,-0.2064375,-0.37515625,1.1778125,0.024124522660552587,0.019896026307523674,True
11306,79111,1,79112,2867.0,37572.0,28896.0,0.002379,-0.000366,0.000244,0.1925,-1.8375000000000001,-3.8150000000000004,0.909375,0.37475,0.1121875,1.19834375,0.88284375,-0.20684375,-0.3745625,1.1773437500000001,0.024026005042478947,0.019969589197754833,True
11307,79112,1,79113,2867.0,37572.0,28897.0,0.002745,-0.001037,0.000793,0.3325,-1.8200000000000003,-3.8325000000000005,0.91028125,0.37290625,0.1065625,1.198,0.88434375,-0.20659375,-0.3751875,1.1770625000000001,0.02393975814957443,0.019763950533713843,True
11308,79113,1,79114,2867.0,37570.0,28897.0,0.000915,-0.0013419999999999999,-0.000366,0.4025,-1.6625,-3.9550000000000005,0.911,0.3766875,0.1088125,1.19765625,0.8827812500000001,-0.21090625000000002,-0.38034375,1.1853125,0.02426979576611264,0.020063550170411355,True
11309,79114,1,79115,2868.0,37573.0,28896.0,-0.002928,-0.000488,0.00042699999999999997,0.31500000000000006,-1.12,-3.9725000000000006,0.90134375,0.37293750000000003,0.10609375,1.203375,0.8864062500000001,-0.20684375,-0.373125,1.1756875,0.02395112952303003,0.019661768854014407,True
11310,79115,1,79116,2869.0,37572.0,28896.0,-0.00244,0.000244,-0.000732,0.31500000000000006,-1.155,-3.9550000000000005,0.9147500000000001,0.3763125,0.1095,1.197625,0.87,-0.20446875,-0.38556250000000003,1.202125,0.023994794349700404,0.02030145911130818,True
11311,79116,1,79117,2868.0,37574.0,28898.0,-0.002257,0.000976,0.000549,0.28,-1.33,-3.9025000000000003,0.9109375000000001,0.37628125,0.10621875,1.2040625,0.8938125,-0.20153125,-0.3688125,1.16028125,0.023875038898623413,0.019493409865581263,True
11312,79117,1,79118,2871.0,37574.0,28899.0,-0.00183,6.1e-05,0.001037,0.3325,-1.3825,-3.9025000000000003,0.9196562500000001,0.38003125,0.10971875,1.19884375,0.86625,-0.210625,-0.38634375,1.197125,0.024396571753104265,0.020341815283400157,True
11313,79118,1,79119,2870.0,37576.0,28901.0,-0.0006709999999999999,0.0015249999999999999,0.000305,0.385,-1.54,-3.8850000000000002,0.9052187500000001,0.371875,0.11,1.19909375,0.8788125,-0.2033125,-0.36715625,1.19671875,0.02376482557914335,0.019581942394283288,True
11314,79119,1,79120,2868.0,37575.0,28897.0,0.003294,0.001403,-0.000305,0.3325,-1.61,-3.99,0.910375,0.373125,0.1085625,1.19203125,0.88184375,-0.20228125,-0.37290625,1.19421875,0.023774876593502938,0.01975426094292715,True
11315,79120,1,79121,2871.0,37573.0,28898.0,0.0013419999999999999,0.000366,0.000488,0.31500000000000006,-1.5225000000000002,-3.9025000000000003,0.9111875,0.373,0.10640625000000001,1.198125,0.8915937500000001,-0.20265625,-0.37315625,1.1831562500000001,0.0237848376663202,0.019675847275627257,True
11316,79121,1,79122,2870.0,37573.0,28897.0,-0.001586,-0.0011589999999999999,0.0011589999999999999,0.17500000000000002,-1.6450000000000002,-3.8675,0.91078125,0.3755,0.107875,1.20471875,0.9031250000000001,-0.21912500000000001,-0.37546875,1.16653125,0.02455187790640661,0.019829105850528515,True
11317,79122,1,79123,2870.0,37573.0,28899.0,-0.002562,-0.001464,-0.0008539999999999999,0.29750000000000004,-1.6975000000000002,-3.9025000000000003,0.9180625,0.374,0.10943750000000001,1.1895,0.862625,-0.198125,-0.37796875,1.1930625,0.023643360797582457,0.019993718713746403,True
11318,79123,1,79124,2872.0,37572.0,28897.0,0.00122,-0.0006709999999999999,-0.00122,0.31500000000000006,-1.8025000000000002,-3.9025000000000003,0.911375,0.3818125,0.106125,1.2026875000000001,0.90428125,-0.21178125,-0.37443750000000003,1.15965625,0.02451673191124672,0.019715839596298378,True
11319,79124,1,79125,2873.0,37573.0,28899.0,0.0018909999999999999,-0.0008539999999999999,-0.00042699999999999997,0.2625,-1.9425000000000001,-3.8325000000000005,0.914625,0.37553125,0.10859375,1.198,0.87009375,-0.21790625,-0.38021875,1.1871875,0.024504079496963118,0.02004955349303418,True
11320,79125,1,79126,2872.0,37574.0,28897.0,0.001952,-0.001098,-0.00183,0.29750000000000004,-1.9250000000000003,-3.8500000000000005,0.9199375000000001,0.37259375,0.1143125,1.19453125,0.86975,-0.20521875,-0.37434375000000003,1.18684375,0.02387140169927198,0.02004797565062649,True
11321,79126,1,79127,2873.0,37572.0,28898.0,0.0011589999999999999,0.001647,-0.000549,0.385,-1.9425000000000001,-3.9025000000000003,0.9107500000000001,0.37493750000000003,0.10515625,1.2036875,0.89384375,-0.208625,-0.3691875,1.1729687500000001,0.024105561550893533,0.019464898039788976,True
11322,79127,1,79128,2873.0,37576.0,28899.0,0.000793,0.002257,0.000244,0.3325,-1.7325000000000002,-3.8325000000000005,0.915125,0.37971875,0.1083125,1.19625,0.870125,-0.20821875,-0.37621875,1.1807812500000001,0.024286689825123955,0.019877211267641744,True
11323,79128,1,79129,2873.0,37574.0,28900.0,0.002989,-0.000732,0.0015249999999999999,0.35000000000000003,-1.5050000000000001,-3.8325000000000005,0.91,0.3798125,0.108625,1.19890625,0.88671875,-0.20815625000000001,-0.37503125,1.17,0.02428804341511965,0.019842282253484292,True
11324,79129,1,79130,2873.0,37572.0,28899.0,-0.001464,0.001403,0.000183,0.45500000000000007,-1.2950000000000002,-3.8675,0.91078125,0.37378125,0.1063125,1.198,0.88665625,-0.210375,-0.3746875,1.17675,0.024128343736930968,0.019733586328029847,True
11325,79130,1,79131,2875.0,37576.0,28900.0,-0.0044529999999999995,0.00122,-0.000915,0.5950000000000001,-1.1375000000000002,-3.8850000000000002,0.9105,0.3728125,0.10959375,1.198,0.88678125,-0.2115,-0.37543750000000004,1.17578125,0.024133676145633273,0.019898360798652332,True
11326,79131,1,79132,2876.0,37578.0,28902.0,-0.0055509999999999995,0.000793,-0.002623,0.45500000000000007,-1.1725,-3.6575,0.91571875,0.37684375000000003,0.10815625,1.198125,0.8883125000000001,-0.20800000000000002,-0.36946875,1.1830625000000001,0.024159110624586918,0.019599319332720376,True
11327,79132,1,79133,2875.0,37578.0,28902.0,-0.000732,-0.001037,0.001098,0.43750000000000006,-1.3125000000000002,-3.7800000000000002,0.91621875,0.3751875,0.108625,1.20159375,0.8870625,-0.2086875,-0.37065625,1.183375,0.024118407906252665,0.019666325152815693,True
11328,79133,1,79134,2876.0,37577.0,28901.0,0.0021349999999999997,-0.00183,0.000732,0.29750000000000004,-1.3650000000000002,-3.8500000000000005,0.9165,0.37493750000000003,0.10684375,1.2006875000000001,0.87934375,-0.20921875,-0.3786875,1.17728125,0.02412949612428117,0.01991621780294776,True
11329,79134,1,79135,2875.0,37573.0,28900.0,0.0,-0.0008539999999999999,0.000183,0.35000000000000003,-1.3650000000000002,-3.6750000000000003,0.9106562500000001,0.3723125,0.10646875,1.19865625,0.880125,-0.21128125,-0.3746875,1.17690625,0.02410420762015641,0.019739996666623932,True
11330,79135,1,79136,2875.0,37574.0,28899.0,-0.001769,-0.001769,-0.0011589999999999999,0.35000000000000003,-1.1900000000000002,-3.6575,0.9114375,0.37396875,0.11140625,1.18846875,0.88584375,-0.2119375,-0.3730625,1.17453125,0.024199065027323816,0.019877221009875143,True
11331,79136,1,79137,2875.0,37569.0,28897.0,-0.0011589999999999999,-0.000183,-0.001464,0.31500000000000006,-1.1025,-3.7975000000000003,0.9196562500000001,0.37446875,0.10559375,1.19575,0.8845625,-0.20915625000000002,-0.37878125,1.17684375,0.024107614242028782,0.019868712674059538,True
11332,79137,1,79138,2874.0,37567.0,28898.0,-0.001403,0.000915,-0.000732,0.43750000000000006,-1.2600000000000002,-3.9025000000000003,0.9110312500000001,0.37425,0.1086875,1.19509375,0.88028125,-0.212125,-0.3755625,1.176125,0.024218237763104233,0.019866208215707844,True
11333,79138,1,79139,2872.0,37567.0,28896.0,0.0,0.000915,0.001281,0.29750000000000004,-1.6450000000000002,-3.8675,0.92940625,0.3750625,0.10421875,1.2081875,0.8795625,-0.2091875,-0.37909375,1.18390625,0.02413339976816653,0.019824875565770367,True
11334,79139,1,79140,2872.0,37565.0,28895.0,0.001647,0.000732,-0.000793,0.47250000000000003,-1.8900000000000001,-3.9375000000000004,0.9044375,0.374625,0.10165625,1.194125,0.8759687500000001,-0.2078125,-0.3774375,1.17753125,0.02405989801845995,0.01965316288883932,True
11335,79140,1,79141,2871.0,37561.0,28893.0,0.001586,0.0011589999999999999,-0.00042699999999999997,0.3325,-1.9075000000000002,-3.9200000000000004,0.90525,0.3745,0.1009375,1.20834375,0.87975,-0.20984375,-0.37646875,1.1820625,0.02413661798209664,0.019584717331135176,True
11336,79141,1,79142,2870.0,37557.0,28890.0,0.000793,0.000793,-6.1e-05,0.35000000000000003,-1.9600000000000002,-3.9025000000000003,0.90528125,0.37271875,0.10265625,1.19428125,0.8809375,-0.2035625,-0.37925000000000003,1.17684375,0.023809769739475333,0.019767066255114495,True
11337,79142,1,79143,2867.0,37555.0,28888.0,0.002623,0.000122,0.000732,0.36750000000000005,-2.0650000000000004,-3.9375000000000004,0.90553125,0.37259375,0.1055,1.18725,0.8798125,-0.21071875,-0.37775000000000003,1.177625,0.024093150890037083,0.019823404538975093,True
11338,79143,1,79144,2867.0,37548.0,28883.0,0.002013,-0.000549,-0.002196,0.28,-1.6275000000000002,-3.8500000000000005,0.904375,0.3705,0.10146875,1.1949375,0.87928125,-0.2114375,-0.37425,1.17775,0.024035644310669287,0.019517267197965066,True
11339,79144,1,79145,2863.0,37547.0,28883.0,-0.0023179999999999997,0.000305,-0.0017079999999999999,0.4025,-1.4700000000000002,-3.8500000000000005,0.90428125,0.3661875,0.10309375,1.1945937500000001,0.8761875,-0.21425,-0.37603125,1.17728125,0.02397090556180761,0.019655578674235577,True
11340,79145,1,79146,2864.0,37544.0,28880.0,-0.002745,-0.001769,0.0013419999999999999,0.385,-1.3650000000000002,-3.8150000000000004,0.904875,0.36496875,0.10465625,1.19309375,0.8794375,-0.21406250000000002,-0.37490625,1.177125,0.023913015422339808,0.019674434645261456,True
11341,79146,1,79147,2860.0,37540.0,28879.0,-0.002379,-0.000793,0.0023179999999999997,0.42000000000000004,-1.1725,-3.7800000000000002,0.913625,0.36865625,0.11121875,1.2036875,0.88475,-0.21256250000000002,-0.37546875,1.182625,0.024004842527510253,0.019966282699691675,True
11342,79147,1,79148,2860.0,37540.0,28881.0,-0.001037,-0.000488,0.000488,0.3325,-1.3125000000000002,-3.8500000000000005,0.926125,0.37528125,0.11040625,1.19675,0.8855937500000001,-0.20971875,-0.375125,1.1670625000000001,0.024163849487099057,0.01991912861985323,True
11343,79148,1,79149,2859.0,37537.0,28878.0,0.0008539999999999999,0.001037,0.000549,0.15750000000000003,-1.5925000000000002,-3.7450000000000006,0.92409375,0.3693125,0.11140625,1.1925937500000001,0.8845937500000001,-0.2115,-0.37065625,1.1733125,0.023989116742044066,0.019780448054204532,True
11344,79149,1,79150,2858.0,37535.0,28879.0,0.0013419999999999999,-6.1e-05,-0.000366,0.35000000000000003,-1.6625,-3.6925000000000003,0.90934375,0.37109375,0.11096875,1.19546875,0.88490625,-0.21346875,-0.37490625,1.17740625,0.024142038715539257,0.019933410000294874,True
11345,79150,1,79151,2858.0,37533.0,28879.0,0.002745,-0.002257,-0.001037,0.385,-1.5750000000000002,-3.7625,0.91853125,0.3715625,0.108625,1.20003125,0.8860625,-0.21071875,-0.3753125,1.1851562500000001,0.024050556119900406,0.01985359162062025,True
11346,79151,1,79152,2857.0,37532.0,28875.0,0.001647,-0.0013419999999999999,-0.000183,0.29750000000000004,-1.4525000000000001,-3.7800000000000002,0.91059375,0.3720625,0.10859375,1.20325,0.88075,-0.2108125,-0.37540625,1.1771562500000001,0.024074987157081163,0.019856079321754892,True
11347,79152,1,79153,2856.0,37531.0,28878.0,-0.00061,0.000793,0.0008539999999999999,0.42000000000000004,-1.3825,-3.8500000000000005,0.91209375,0.37190625,0.1063125,1.19921875,0.8798750000000001,-0.21275,-0.3769375,1.17753125,0.024146627293471414,0.019824065266607013,True
11348,79153,1,79154,2858.0,37533.0,28879.0,-0.002196,0.001281,-0.00122,0.385,-1.3650000000000002,-3.9025000000000003,0.90640625,0.37134375000000003,0.10565625000000001,1.204625,0.8798750000000001,-0.214,-0.3765625,1.17840625,0.024173773436854715,0.019782065252227424,True
11349,79154,1,79155,2858.0,37536.0,28879.0,-0.002379,0.001403,-0.00244,0.3325,-1.4000000000000001,-3.9025000000000003,0.904875,0.37090625,0.10565625000000001,1.2019375,0.87975,-0.21431250000000002,-0.37784375000000003,1.176625,0.024168299223857794,0.019833583517820358,True
11350,79155,1,79156,2858.0,37537.0,28881.0,-0.002623,0.000488,-0.001098,0.36750000000000005,-1.5225000000000002,-3.9025000000000003,0.91059375,0.36775,0.1085,1.19325,0.87921875,-0.2136875,-0.375375,1.18275,0.024012761377216918,0.019850976651641258,True
11351,79156,1,79157,2858.0,37534.0,28880.0,0.001464,-0.000183,-0.0017079999999999999,0.385,-1.6800000000000002,-3.8325000000000005,0.9179375000000001,0.3728125,0.108375,1.20453125,0.88609375,-0.2061875,-0.376,1.181875,0.02391950405242461,0.019870979652116837,True
11352,79157,1,79158,2857.0,37533.0,28879.0,0.0037819999999999998,-0.000549,0.00061,0.29750000000000004,-1.6800000000000002,-3.7975000000000003,0.91115625,0.3785,0.106,1.19834375,0.88034375,-0.21490625,-0.370375,1.16978125,0.024505824795419146,0.01954729871821833,True
11353,79158,1,79159,2855.0,37531.0,28884.0,0.002379,0.001586,0.001403,0.49000000000000005,-1.5750000000000002,-3.7800000000000002,0.911,0.36825,0.10953125,1.19903125,0.8813125,-0.21390625,-0.37471875,1.17765625,0.02404222780039879,0.019866895900080898,True
11354,79159,1,79160,2857.0,37533.0,28883.0,-0.000793,0.000549,0.000732,0.43750000000000006,-1.4525000000000001,-3.8150000000000004,0.91790625,0.370375,0.1074375,1.20415625,0.88884375,-0.21171875,-0.37896875,1.1768750000000001,0.024041818592494598,0.019951879629855142,True
11355,79160,1,79161,2858.0,37534.0,28883.0,-0.0021349999999999997,0.001281,0.000366,0.31500000000000006,-1.4000000000000001,-3.8150000000000004,0.91121875,0.36815625,0.10921875,1.19834375,0.88021875,-0.20903125,-0.37543750000000004,1.177125,0.023841825558385366,0.019882976459396882,True
11356,79161,1,79162,2859.0,37536.0,28883.0,-0.002928,-0.000244,0.0,0.35000000000000003,-1.2600000000000002,-3.7450000000000006,0.91934375,0.3710625,0.11575,1.20628125,0.88509375,-0.211375,-0.37921875,1.179125,0.02405635780702253,0.020302896293590212,True
11357,79162,1,79163,2859.0,37537.0,28885.0,-0.001586,-0.002013,0.0011589999999999999,0.36750000000000005,-1.4000000000000001,-3.8325000000000005,0.91059375,0.36996875,0.106125,1.1990625,0.880125,-0.21559375,-0.37184375000000003,1.17653125,0.024181215874584945,0.019611513798581615,True
11358,79163,1,79164,2860.0,37538.0,28884.0,-0.001464,-0.0006709999999999999,-0.000305,0.36750000000000005,-1.54,-3.9025000000000003,0.9171875,0.36953125000000003,0.10875,1.20359375,0.88525,-0.21156250000000001,-0.376375,1.18346875,0.024000671166926963,0.01990144145714857,True
11359,79164,1,79165,2860.0,37536.0,28885.0,-6.1e-05,0.00061,-0.00183,0.3325,-1.6450000000000002,-3.8675,0.9108125,0.37075,0.10640625000000001,1.19171875,0.87975,-0.2139375,-0.37603125,1.1776875,0.024146733673529968,0.019791470360869347,True
11360,79165,1,79166,2860.0,37539.0,28884.0,0.0011589999999999999,0.000976,-0.001098,0.35000000000000003,-1.8200000000000003,-3.8850000000000002,0.9109375000000001,0.36809375,0.10921875,1.19821875,0.8872187500000001,-0.21359375,-0.374125,1.177125,0.024023179128459606,0.01983019903278579,True
11361,79166,1,79167,2860.0,37536.0,28886.0,0.0021349999999999997,-0.000732,-0.0013419999999999999,0.45500000000000007,-1.8375000000000001,-3.8850000000000002,0.915125,0.37193750000000003,0.1090625,1.1956875,0.88590625,-0.21153125,-0.37559375,1.176625,0.024098795899164784,0.019882849007524177,True
11362,79167,1,79168,2861.0,37535.0,28881.0,0.0030499999999999998,-0.000305,0.0017079999999999999,0.3325,-1.6275000000000002,-3.7975000000000003,0.9156562500000001,0.3718125,0.10825,1.2024062500000001,0.8871875,-0.21178125,-0.37615625,1.1815,0.02410370984167057,0.019872134270553832,True
11363,79168,1,79169,2860.0,37534.0,28882.0,0.000366,0.00042699999999999997,0.00061,0.28,-1.5750000000000002,-3.7975000000000003,0.91159375,0.3705625,0.1079375,1.19540625,0.87928125,-0.212375,-0.37659375,1.1769375,0.024076014847779284,0.019876905484384994,True
11364,79169,1,79170,2861.0,37536.0,28882.0,-0.00061,0.00061,-0.000488,0.385,-1.5225000000000002,-3.8500000000000005,0.915125,0.37053125000000003,0.11106250000000001,1.201125,0.88015625,-0.21156250000000001,-0.37659375,1.179875,0.024041973747047515,0.020005102230495186,True
11365,79170,1,79171,2860.0,37533.0,28882.0,-0.00244,0.0,0.0,0.29750000000000004,-1.3125000000000002,-3.7975000000000003,0.9108437500000001,0.36893750000000003,0.108625,1.19996875,0.88034375,-0.21578125,-0.369875,1.18440625,0.024146185661468183,0.01963489759385307,True
11366,79171,1,79172,2861.0,37536.0,28886.0,-0.001281,-0.000732,0.000976,0.3325,-1.3125000000000002,-3.7450000000000006,0.91140625,0.370125,0.10840625,1.199,0.87975,-0.21406250000000002,-0.37296875,1.17684375,0.024125959863199327,0.01975036381236898,True
11367,79172,1,79173,2863.0,37538.0,28885.0,-0.00061,0.0,0.000244,0.43750000000000006,-1.3475000000000001,-3.8500000000000005,0.9144375,0.37103125000000003,0.1085625,1.20253125,0.89034375,-0.207375,-0.37846875,1.177125,0.0238938030249046,0.019977926218192027,True
11368,79173,1,79174,2863.0,37539.0,28886.0,-0.002379,-0.0008539999999999999,-0.000915,0.43750000000000006,-1.435,-3.8500000000000005,0.9068125,0.3706875,0.10671875,1.1965625,0.8774375,-0.21790625,-0.36709375,1.1728750000000001,0.02430407252897843,0.019444768623668958,True
11369,79174,1,79175,2861.0,37539.0,28887.0,-6.1e-05,-0.000488,0.0006709999999999999,0.3325,-1.5750000000000002,-3.8325000000000005,0.911375,0.3706875,0.1085,1.2120312500000001,0.88809375,-0.21053125,-0.3764375,1.1820625,0.024006856520341742,0.0198936985767506,True
11370,79175,1,79176,2861.0,37537.0,28885.0,0.001769,0.000244,0.000488,0.385,-1.5225000000000002,-3.8500000000000005,0.91109375,0.3700625,0.10296875,1.19875,0.8768125,-0.217125,-0.37375,1.17434375,0.02424678817159345,0.0195586953177086,True
11371,79176,1,79177,2861.0,37534.0,28884.0,0.002379,-0.000549,0.000183,0.385,-1.4525000000000001,-3.9550000000000005,0.9165625000000001,0.36175,0.11021875,1.19396875,0.88853125,-0.21331250000000002,-0.3745,1.17490625,0.02374984835304959,0.01988630536010995,True
11372,79177,1,79178,2861.0,37536.0,28885.0,0.0015249999999999999,0.00042699999999999997,0.001037,0.36750000000000005,-1.3650000000000002,-3.99,0.94021875,0.37009375,0.11384375000000001,1.20521875,0.890875,-0.2111875,-0.37478125,1.1679375,0.024008787260021838,0.02004633374914903,True
11373,79178,1,79179,2862.0,37535.0,28884.0,-0.0018909999999999999,0.001647,0.0015249999999999999,0.43750000000000006,-1.4000000000000001,-3.8325000000000005,0.92934375,0.37396875,0.1005625,1.20571875,0.8895625,-0.21106250000000001,-0.37865625,1.17728125,0.024163799089775593,0.0196573078140843,True
11374,79179,1,79180,2861.0,37536.0,28883.0,-0.001769,0.000244,-0.0017079999999999999,0.47250000000000003,-1.4875,-3.8675,0.9000312500000001,0.36171875000000003,0.1144375,1.2046875000000001,0.87609375,-0.21815625,-0.37365625,1.18259375,0.023943812816056138,0.02002546294218784,True
11375,79180,1,79181,2861.0,37538.0,28887.0,-0.000244,0.000244,-0.002196,0.385,-1.54,-3.8675,0.920375,0.37371875,0.0989375,1.18921875,0.88896875,-0.21134375,-0.38015625000000003,1.175125,0.024164809109366348,0.019650971268898247,True
11376,79181,1,79182,2862.0,37541.0,28888.0,0.0021349999999999997,-0.000305,-0.0013419999999999999,0.385,-1.4525000000000001,-3.8500000000000005,0.9285625000000001,0.37415625,0.1078125,1.2178437500000001,0.8889375,-0.21059375,-0.37646875,1.1839375,0.024152650118297904,0.01986675161881271,True
11377,79182,1,79183,2863.0,37541.0,28888.0,0.0017079999999999999,0.000122,0.000915,0.35000000000000003,-1.4525000000000001,-3.8850000000000002,0.9000312500000001,0.3649375,0.10553125000000001,1.19384375,0.87696875,-0.2163125,-0.3711875,1.17471875,0.024002415727002204,0.019560751809898472,True
11378,79183,1,79184,2864.0,37540.0,28887.0,-0.0011589999999999999,-0.001037,0.000366,0.31500000000000006,-1.4000000000000001,-3.7100000000000004,0.9310625,0.37809375,0.10278125,1.2143125000000001,0.8871875,-0.2119375,-0.37925000000000003,1.18103125,0.024369435531543065,0.01977219356624999,True
11379,79184,1,79185,2864.0,37540.0,28889.0,-0.00122,-0.000122,-0.000793,0.35000000000000003,-1.5575,-3.7800000000000002,0.8900625,0.36278125,0.10540625,1.1869687500000001,0.87715625,-0.2165625,-0.37721875,1.1768125,0.023923451150426493,0.01979819785634897,True
11380,79185,1,79186,2866.0,37540.0,28889.0,-0.0006709999999999999,-0.000549,0.000732,0.36750000000000005,-1.5750000000000002,-3.7450000000000006,0.9290625,0.37784375000000003,0.10778125000000001,1.2163125000000001,0.8788750000000001,-0.21228125,-0.37621875,1.18321875,0.024372961552311393,0.01985541748553598,True
11381,79186,1,79187,2865.0,37539.0,28890.0,0.000976,-0.0008539999999999999,0.001098,0.2625,-1.54,-3.8500000000000005,0.89975,0.36853125000000003,0.10200000000000001,1.18984375,0.87934375,-0.21528125,-0.377625,1.17709375,0.024109259519750573,0.019674804251849802,True
11382,79187,1,79188,2864.0,37540.0,28889.0,0.0013419999999999999,-0.000488,6.1e-05,0.31500000000000006,-1.6975000000000002,-3.8325000000000005,0.9104375,0.36843750000000003,0.11209375,1.19084375,0.8845625,-0.215875,-0.37171875,1.17815625,0.024129315996221486,0.01985139025125177,True
11383,79188,1,79189,2865.0,37542.0,28890.0,-0.0006709999999999999,0.0,-0.000549,0.3325,-1.7500000000000002,-3.7800000000000002,0.91715625,0.36809375,0.11034375,1.19734375,0.8853125000000001,-0.21303125,-0.37640625,1.1838125,0.02400050592591541,0.019968078764686654,True
11384,79189,1,79190,2865.0,37542.0,28889.0,0.000549,0.000183,0.0,0.2625,-1.8025000000000002,-3.8150000000000004,0.9151875,0.36925,0.108125,1.19884375,0.8798750000000001,-0.2163125,-0.37521875,1.17665625,0.024180498166267054,0.019829309224147988,True
11385,79190,1,79191,2865.0,37543.0,28892.0,0.0006709999999999999,-0.000183,0.00042699999999999997,0.36750000000000005,-1.8375000000000001,-3.7625,0.91746875,0.36940625,0.1089375,1.20090625,0.88634375,-0.20965625000000002,-0.37840625,1.183,0.02391865848983296,0.019990796157972796,True
11386,79191,1,79192,2867.0,37546.0,28892.0,0.002257,6.1e-05,0.0,0.47250000000000003,-1.6450000000000002,-3.8500000000000005,0.91190625,0.36934375,0.1064375,1.20209375,0.88053125,-0.21559375,-0.3746875,1.17759375,0.02415540605937032,0.019738714598905114,True
11387,79192,1,79193,2868.0,37542.0,28894.0,-0.002074,-0.000549,0.000122,0.4025,-1.1725,-3.6575,0.9115625,0.36871875,0.109125,1.1976875,0.88596875,-0.21525,-0.3753125,1.18275,0.024115743178369,0.01987410417815156,True
11388,79193,1,79194,2867.0,37543.0,28895.0,0.000549,-0.0006709999999999999,0.00042699999999999997,0.385,-1.2775,-3.8325000000000005,0.91534375,0.36993750000000003,0.10840625,1.2056875,0.880625,-0.21325,-0.3778125,1.1754375000000001,0.02408546973248118,0.019945134535758694,True
11389,79194,1,79195,2868.0,37544.0,28895.0,-0.001037,0.00061,0.0008539999999999999,0.385,-1.3475000000000001,-3.9725000000000006,0.91146875,0.368875,0.10525,1.199,0.88103125,-0.212125,-0.37521875,1.1769687500000001,0.023996241552527914,0.01971136156470391,True
11390,79195,1,79196,2870.0,37546.0,28892.0,-0.0018909999999999999,0.000732,0.0011589999999999999,0.3325,-1.225,-3.7275000000000005,0.9107500000000001,0.36603125000000003,0.11025,1.19490625,0.88828125,-0.21296875,-0.375125,1.182625,0.02391280499215942,0.019912718396315917,True
11391,79196,1,79197,2870.0,37548.0,28892.0,-0.001586,0.000305,0.000305,0.4025,-1.2775,-3.7625,0.915875,0.37046875,0.10859375,1.1988750000000001,0.8796875000000001,-0.213125,-0.37596875,1.183375,0.02410237216385741,0.01987869712870386,True
11392,79197,1,79198,2869.0,37548.0,28893.0,0.000915,-6.1e-05,-0.0018909999999999999,0.3325,-1.33,-3.7800000000000002,0.91159375,0.36771875,0.11009375,1.19803125,0.8868125,-0.21225,-0.37571875,1.185,0.02395352559138452,0.019930181545928773,True
11393,79198,1,79199,2870.0,37544.0,28894.0,0.003294,-0.000793,0.000488,0.35000000000000003,-1.4700000000000002,-3.8850000000000002,0.9189375000000001,0.36909375,0.10878125,1.2044062500000001,0.8805000000000001,-0.21281250000000002,-0.37846875,1.18025,0.024032988732721576,0.01998689930022779,True
11394,79199,1,79200,2868.0,37544.0,28892.0,0.002257,-0.00061,0.000305,0.31500000000000006,-1.3475000000000001,-3.8500000000000005,0.91178125,0.368625,0.1045625,1.20525,0.87965625,-0.2093125,-0.3768125,1.1775625,0.02387252839170877,0.019747249563493996,True
11395,79200,1,79201,2870.0,37541.0,28892.0,-0.000122,0.00042699999999999997,0.000122,0.24500000000000002,-1.225,-3.7975000000000003,0.9128437500000001,0.36909375,0.10890625,1.20478125,0.8794062500000001,-0.214875,-0.37721875,1.1821875,0.02411611664317904,0.019941774530779888,True
11396,79201,1,79202,2869.0,37542.0,28892.0,-0.000793,-0.000549,-0.000122,0.2625,-1.05,-3.7800000000000002,0.91628125,0.3698125,0.10921875,1.19765625,0.88034375,-0.2131875,-0.3760625,1.181875,0.024077788188771095,0.01990810656971363,True
11397,79202,1,79203,2869.0,37543.0,28893.0,-0.001647,0.000244,0.000732,0.5075000000000001,-1.0675000000000001,-3.9200000000000004,0.9166875,0.37565625,0.10803125,1.2043125000000001,0.8791875,-0.21359375,-0.3775625,1.1808750000000001,0.024335503687881937,0.0199197007494084,True
11398,79203,1,79204,2870.0,37547.0,28894.0,-0.002013,0.000305,-0.000488,0.49000000000000005,-1.1375000000000002,-3.9375000000000004,0.913625,0.36821875,0.1065625,1.193,0.88084375,-0.2174375,-0.37240625,1.17078125,0.024183246059786466,0.019652091184061894,True
11399,79204,1,79205,2872.0,37546.0,28894.0,-0.00244,0.000244,0.000244,0.36750000000000005,-1.3125000000000002,-3.7625,0.911625,0.36709375,0.10959375,1.1984375,0.88484375,-0.2129375,-0.37478125,1.176375,0.023955426721768064,0.019871973210015985,True
11400,79205,1,79206,2871.0,37546.0,28896.0,-0.000976,0.000366,-0.000244,0.3325,-1.54,-3.8150000000000004,0.9173125,0.3681875,0.109,1.2042187500000001,0.8798750000000001,-0.21378125,-0.37309375,1.17675,0.02403460839062466,0.019779752006246643,True
11401,79206,1,79207,2871.0,37547.0,28894.0,0.000976,0.000549,-0.001464,0.36750000000000005,-1.6800000000000002,-3.8500000000000005,0.91178125,0.36865625,0.1081875,1.20565625,0.88028125,-0.21456250000000002,-0.377125,1.17784375,0.02408545477540633,0.019908520795622945,True
11402,79207,1,79208,2871.0,37546.0,28895.0,0.002928,-0.001403,0.000122,0.31500000000000006,-1.7850000000000001,-3.8150000000000004,0.9151875,0.36978125,0.10871875,1.20428125,0.8795000000000001,-0.21371875,-0.37871875,1.17090625,0.024097909372140534,0.019994385471960044,True
11403,79208,1,79209,2871.0,37545.0,28894.0,0.0026839999999999998,-0.000366,-0.000244,0.3325,-1.8025000000000002,-3.8675,0.9158125,0.3666875,0.10915625,1.19990625,0.87990625,-0.2073125,-0.3758125,1.1788125,0.023711843270499362,0.019895490663131742,True
11404,79209,1,79210,2872.0,37547.0,28897.0,0.000793,0.000183,0.0,0.31500000000000006,-1.61,-3.9375000000000004,0.91690625,0.3685625,0.10665625000000001,1.2034375,0.8806875000000001,-0.21425,-0.37684375000000003,1.1775,0.024068988302342626,0.019834397141754664,True
11405,79210,1,79211,2873.0,37547.0,28895.0,-0.00042699999999999997,-0.00061,-0.001037,0.3325,-1.4525000000000001,-3.9025000000000003,0.91134375,0.3665,0.10943750000000001,1.198625,0.88021875,-0.21503125,-0.3753125,1.19215625,0.024015300413870004,0.019886924526608635,True
11406,79211,1,79212,2873.0,37552.0,28897.0,-0.002806,0.00061,0.001403,0.28,-1.4700000000000002,-3.8150000000000004,0.91640625,0.36915625,0.1085625,1.2055,0.8735937500000001,-0.21459375,-0.38046875,1.1761875,0.024107362940995036,0.02005832024866216,True
11407,79212,1,79213,2875.0,37552.0,28899.0,0.0,0.0006709999999999999,-0.000488,0.43750000000000006,-1.54,-3.8500000000000005,0.91715625,0.36925,0.10968750000000001,1.1980625,0.87553125,-0.21728125,-0.3808125,1.1853125,0.024219533313633218,0.020118279487199204,True
11408,79213,1,79214,2874.0,37552.0,28900.0,0.00122,-0.000366,-0.0015249999999999999,0.385,-1.4700000000000002,-3.9025000000000003,0.91828125,0.3685,0.1088125,1.2033125,0.87371875,-0.21481250000000002,-0.38115625000000003,1.17071875,0.024089077708117707,0.02009620647092978,True
11409,79214,1,79215,2874.0,37550.0,28899.0,0.000793,-0.0011589999999999999,-0.001769,0.3325,-1.435,-3.8325000000000005,0.9115,0.36743750000000003,0.10603125000000001,1.19978125,0.88025,-0.2181875,-0.37190625,1.1867812500000001,0.024181206789318982,0.01961018129224094,True
11410,79215,1,79216,2876.0,37550.0,28898.0,-0.0018909999999999999,-0.000122,0.000366,0.35000000000000003,-1.5925000000000002,-3.8850000000000002,0.91171875,0.3665,0.10928125,1.1985625,0.8890625,-0.20800000000000002,-0.377875,1.1915625,0.0237318241903503,0.019983540402926835,True
11411,79216,1,79217,2876.0,37553.0,28899.0,-0.001403,-0.0008539999999999999,0.00183,0.29750000000000004,-1.8025000000000002,-3.9025000000000003,0.91640625,0.36828125,0.10896875,1.1995625,0.8736875000000001,-0.21409375,-0.37934375000000004,1.18,0.02405107562615264,0.02002976392668486,True
11412,79217,1,79218,2875.0,37550.0,28899.0,0.0032329999999999998,0.002013,-0.000244,0.385,-1.8200000000000003,-3.9375000000000004,0.9165625000000001,0.36834375,0.112,1.20503125,0.87421875,-0.21665625,-0.37925000000000003,1.16528125,0.024156927114989294,0.020150332762492694,True
11413,79218,1,79219,2877.0,37549.0,28900.0,0.001769,0.001403,-0.002257,0.36750000000000005,-1.6275000000000002,-3.9375000000000004,0.9201875,0.368125,0.10840625,1.20196875,0.873625,-0.2149375,-0.379375,1.1750625000000001,0.02407862915194392,0.02000794729151178,True
11414,79219,1,79220,2877.0,37549.0,28898.0,0.000122,-0.001037,-0.001586,0.22750000000000004,-1.4875,-3.8500000000000005,0.9166562500000001,0.3685625,0.1061875,1.20034375,0.8713125,-0.22112500000000002,-0.368125,1.17184375,0.02434599961810197,0.019464464336094795,True
11415,79220,1,79221,2877.0,37548.0,28899.0,0.0,0.000183,0.0006709999999999999,0.36750000000000005,-1.5050000000000001,-3.8500000000000005,0.9117500000000001,0.36515625,0.10921875,1.2049375,0.89590625,-0.21171875,-0.3760625,1.17328125,0.02382627214352554,0.01990810656971363,True
11416,79221,1,79222,2876.0,37550.0,28901.0,0.002074,0.001464,0.002379,0.36750000000000005,-1.3475000000000001,-3.8325000000000005,0.91134375,0.3649375,0.109875,1.19815625,0.87815625,-0.213,-0.37409375,1.18759375,0.023868892743567505,0.019855866436059803,True
11417,79222,1,79223,2877.0,37551.0,28899.0,-0.000366,-0.001098,-0.001647,0.45500000000000007,-0.8750000000000001,-3.7625,0.9064375,0.3680625,0.10803125,1.20546875,0.8739687500000001,-0.21540625,-0.372625,1.17178125,0.024094939559397233,0.019721152317405285,True
11418,79223,1,79224,2878.0,37552.0,28902.0,-0.003477,0.000122,-0.003111,0.47250000000000003,-0.7525000000000001,-3.7450000000000006,0.9116562500000001,0.36878125,0.105125,1.19590625,0.87615625,-0.21671875000000002,-0.37628125,1.17528125,0.02417751166226845,0.019748961913540444,True
11419,79224,1,79225,2879.0,37554.0,28903.0,-0.0048189999999999995,0.0006709999999999999,-0.002013,0.4025,-0.7525000000000001,-3.7625,0.9116875,0.3650625,0.10909375,1.19803125,0.885875,-0.21256250000000002,-0.37443750000000003,1.1734375000000001,0.02385641751053818,0.019837637278809,True
11420,79225,1,79226,2880.0,37554.0,28903.0,-0.0037819999999999998,0.000366,-0.000183,0.4025,-0.8400000000000001,-3.7625,0.9155,0.3653125,0.10996875,1.1988750000000001,0.88875,-0.21425,-0.375,1.1812500000000001,0.023934769815294712,0.019896153846153845,True
11421,79226,1,79227,2881.0,37553.0,28905.0,0.0,-0.0006709999999999999,0.00244,0.49000000000000005,-1.12,-3.7450000000000006,0.9126875,0.36565625,0.1080625,1.19846875,0.88834375,-0.21403125,-0.37478125,1.17840625,0.023940148338579516,0.01980915213341658,True
11422,79227,1,79228,2880.0,37553.0,28903.0,0.0011589999999999999,-0.000976,0.00122,0.525,-1.33,-3.8325000000000005,0.913625,0.3653125,0.10959375,1.19865625,0.88634375,-0.21415625,-0.37175,1.1846875000000001,0.02393099078147726,0.019750069240001233,True
11423,79228,1,79229,2879.0,37551.0,28901.0,0.00042699999999999997,0.000183,0.000366,0.43750000000000006,-1.4700000000000002,-3.8325000000000005,0.91703125,0.36796875,0.109125,1.20034375,0.8800625,-0.210625,-0.376375,1.18409375,0.023898340088287683,0.019916825204732043,True
11424,79229,1,79230,2881.0,37553.0,28901.0,-0.00183,-0.00042699999999999997,-0.000732,0.35000000000000003,-1.5750000000000002,-3.8325000000000005,0.9163125,0.3675625,0.109125,1.1985625,0.88046875,-0.21403125,-0.3755625,1.1848750000000001,0.024018873354679428,0.019884156519464936,True
11425,79230,1,79231,2880.0,37549.0,28900.0,-0.001281,-0.000244,-0.0006709999999999999,0.385,-1.6450000000000002,-3.8325000000000005,0.90553125,0.3651875,0.11025,1.199375,0.88534375,-0.21396875,-0.3751875,1.1791562500000001,0.023918270316591536,0.01991523142129676,True
11426,79231,1,79232,2879.0,37546.0,28898.0,0.002196,-0.000305,0.000915,0.35000000000000003,-1.7500000000000002,-3.7975000000000003,0.9131875,0.36512500000000003,0.1090625,1.19940625,0.8895625,-0.21234375,-0.37509375,1.17940625,0.023850179724959505,0.019862744117650828,True
11427,79232,1,79233,2878.0,37544.0,28898.0,0.002806,0.0013419999999999999,-0.00122,0.35000000000000003,-1.6625,-4.0075,0.9121875,0.36671875,0.10665625000000001,1.199625,0.88628125,-0.2159375,-0.37446875,1.1773125,0.02406085868036288,0.0197388917450765,True
11428,79233,1,79234,2876.0,37541.0,28894.0,-0.001098,0.001464,0.0,0.36750000000000005,-1.6625,-3.9550000000000005,0.91171875,0.37003125000000003,0.11325,1.21025,0.88103125,-0.2179375,-0.3780625,1.177625,0.02427823385042595,0.020153878102494818,True
11429,79234,1,79235,2875.0,37541.0,28894.0,-0.001952,0.000976,0.001037,0.4025,-1.5925000000000002,-3.9725000000000006,0.90971875,0.36740625,0.10384375,1.1949375,0.8804375,-0.21834375,-0.3765,1.1735,0.02418621215581681,0.019705197628863864,True
11430,79235,1,79236,2875.0,37536.0,28894.0,-0.001464,0.000183,0.000305,0.29750000000000004,-1.4700000000000002,-3.9550000000000005,0.9053125,0.36375,0.1048125,1.203,0.88828125,-0.21690625,-0.37409375,1.177625,0.02397730924031636,0.019648166406186895,True
11431,79236,1,79237,2874.0,37535.0,28893.0,0.001037,-0.001037,0.000183,0.3325,-1.4700000000000002,-4.025,0.90921875,0.36846875,0.10946875,1.19990625,0.880625,-0.21484375,-0.37609375,1.1863125,0.02408904662042265,0.01991961899145551,True
11432,79237,1,79238,2871.0,37529.0,28887.0,-0.000976,-0.0006709999999999999,-0.00042699999999999997,0.29750000000000004,-1.4175000000000002,-4.025,0.92315625,0.36453125000000003,0.11106250000000001,1.19725,0.88265625,-0.2103125,-0.371625,1.17765625,0.023743755889148482,0.01980530637575459,True
11433,79238,1,79239,2872.0,37525.0,28885.0,-0.001281,-0.0008539999999999999,0.000244,0.31500000000000006,-1.5050000000000001,-3.9200000000000004,0.9088437500000001,0.37343750000000003,0.11571875000000001,1.2065625,0.8815000000000001,-0.21653125,-0.37803125,1.177,0.024362231894792946,0.020253891503236136,True
11434,79239,1,79240,2869.0,37520.0,28884.0,-0.002562,-0.000305,-0.000915,0.22750000000000004,-1.4525000000000001,-3.9550000000000005,0.9234375,0.36278125,0.11075,1.19746875,0.88090625,-0.21375,-0.375,1.1771562500000001,0.023810076919105878,0.019928205128205128,True
11435,79240,1,79241,2868.0,37518.0,28880.0,-0.001281,6.1e-05,0.0,0.2625,-1.5750000000000002,-3.9025000000000003,0.90921875,0.3678125,0.10653125000000001,1.208,0.8746875000000001,-0.21865625,-0.3775625,1.18146875,0.02421557760868752,0.019858168756617896,True
11436,79241,1,79242,2865.0,37514.0,28880.0,0.001098,-0.000183,-0.000549,0.29750000000000004,-1.6800000000000002,-3.9200000000000004,0.92196875,0.36696875,0.10978125,1.19671875,0.88103125,-0.2141875,-0.37546875,1.1808125,0.024000650445116112,0.019907309474817794,True
11437,79242,1,79243,2864.0,37511.0,28878.0,0.0,0.000244,0.00061,0.31500000000000006,-1.8550000000000002,-3.9200000000000004,0.9144375,0.36184375,0.10759375,1.20475,0.88421875,-0.21559375,-0.374375,1.17796875,0.023845688276794785,0.019773583938049694,True
11438,79243,1,79244,2864.0,37510.0,28877.0,0.0023179999999999997,0.000244,-0.0006709999999999999,0.3325,-1.9075000000000002,-3.9025000000000003,0.90853125,0.36753125000000003,0.10971875,1.2006875000000001,0.88021875,-0.21665625,-0.3763125,1.1810625000000001,0.024123375827329593,0.019938669969052948,True
11439,79244,1,79245,2863.0,37506.0,28875.0,0.002074,-0.001098,-0.000244,0.29750000000000004,-1.7850000000000001,-3.8500000000000005,0.9234375,0.36746875,0.11046875,1.19621875,0.87403125,-0.214375,-0.3750625,1.17959375,0.024028856825749168,0.01991917969441104,True
11440,79245,1,79246,2862.0,37507.0,28875.0,-0.000244,-0.0015249999999999999,0.000366,0.3325,-1.6450000000000002,-3.8500000000000005,0.90890625,0.36728125,0.11006250000000001,1.1969375,0.8824062500000001,-0.21640625,-0.37596875,1.18178125,0.024102977707520085,0.019938951144249397,True
11441,79246,1,79247,2862.0,37506.0,28874.0,-0.000244,-0.000366,-0.000183,0.3325,-1.6975000000000002,-3.8500000000000005,0.9095,0.36634375,0.10596875,1.2040625,0.88421875,-0.21628125,-0.3765,1.16840625,0.024059226682461826,0.01979237175148196,True
11442,79247,1,79248,2861.0,37506.0,28875.0,-0.0021349999999999997,0.000305,0.0015249999999999999,0.4025,-1.4875,-3.9375000000000004,0.917125,0.36703125000000003,0.109125,1.1987812500000001,0.8803125,-0.2101875,-0.37553125,1.18153125,0.023841977679850683,0.01988289998807718,True
11443,79248,1,79249,2861.0,37505.0,28873.0,-0.0008539999999999999,0.000732,-0.000244,0.385,-1.54,-3.9375000000000004,0.90190625,0.3619375,0.105375,1.20553125,0.885875,-0.20959375,-0.37515625,1.178125,0.023607634886479666,0.019713976192460306,True
11444,79249,1,79250,2862.0,37504.0,28874.0,-0.001586,0.000732,-0.0021349999999999997,0.525,-1.7325000000000002,-3.8675,0.91746875,0.3668125,0.10971875,1.19896875,0.88025,-0.21515625,-0.3716875,1.18815625,0.024033243642605027,0.019752684339153784,True
11445,79250,1,79251,2862.0,37506.0,28873.0,0.00042699999999999997,0.000488,-0.001098,0.4025,-1.7850000000000001,-3.7800000000000002,0.9150312500000001,0.363375,0.1070625,1.2073125,0.883375,-0.2098125,-0.37671875,1.17396875,0.02367583392064684,0.019846036497426466,True
11446,79251,1,79252,2863.0,37504.0,28875.0,0.001952,-0.000183,0.001037,0.35000000000000003,-1.8550000000000002,-3.7100000000000004,0.92028125,0.3665625,0.110125,1.19890625,0.87665625,-0.2183125,-0.38059375,1.1869687500000001,0.02415011367947292,0.020127432294383726,True
11447,79252,1,79253,2862.0,37506.0,28875.0,0.002623,-0.000366,0.000915,0.29750000000000004,-1.715,-3.7800000000000002,0.9005,0.36609375,0.1089375,1.19884375,0.9009375000000001,-0.22237500000000002,-0.3703125,1.18640625,0.024294428188813028,0.019665320253894978,True
11448,79253,1,79254,2862.0,37503.0,28876.0,0.0017079999999999999,0.000793,0.000793,0.4025,-1.5925000000000002,-3.8500000000000005,0.9115,0.36471875,0.1055,1.205125,0.8769375,-0.210625,-0.37009375,1.1673125,0.02376410150502104,0.01951546657468234,True
11449,79254,1,79255,2863.0,37504.0,28875.0,-0.000366,0.000793,0.00042699999999999997,0.4025,-1.4700000000000002,-3.8500000000000005,0.91809375,0.36215625,0.10859375,1.2,0.868375,-0.21490625,-0.37753125,1.1947812500000001,0.023830878965306754,0.019941518893550798,True
11450,79255,1,79256,2862.0,37504.0,28875.0,-0.000366,-0.000122,6.1e-05,0.3325,-1.2600000000000002,-3.7800000000000002,0.9114375,0.36228125,0.1055,1.1988750000000001,0.8946875,-0.21021875,-0.3703125,1.17990625,0.023647039537798478,0.019524267487337307,True
11451,79256,1,79257,2861.0,37502.0,28875.0,-0.00244,-0.000732,0.0,0.42000000000000004,-1.1900000000000002,-3.8850000000000002,0.9110312500000001,0.36540625,0.1074375,1.198625,0.9034375,-0.21506250000000002,-0.36996875,1.18553125,0.023971391773199017,0.01958994100064244,True
11452,79257,1,79258,2864.0,37504.0,28873.0,-0.0034159999999999998,-0.001281,0.00042699999999999997,0.4025,-1.2600000000000002,-3.8675,0.9110625,0.36240625,0.1074375,1.1987812500000001,0.90275,-0.2054375,-0.372125,1.164375,0.023459346686049366,0.019676679813516465,True
11453,79258,1,79259,2863.0,37504.0,28875.0,-0.0015249999999999999,-0.0006709999999999999,-0.000976,0.4025,-1.3650000000000002,-3.8325000000000005,0.91196875,0.36584375,0.1064375,1.20603125,0.9059375000000001,-0.22137500000000002,-0.36965625,1.1648125,0.02424382389521652,0.019536334247636344,True
11454,79259,1,79260,2864.0,37505.0,28875.0,-6.1e-05,0.0,-0.0015249999999999999,0.36750000000000005,-1.6975000000000002,-3.8325000000000005,0.9163125,0.368125,0.1123125,1.19821875,0.86925,-0.2164375,-0.3866875,1.19546875,0.024139079086261138,0.020461983612985568,True
11455,79260,1,79261,2864.0,37505.0,28875.0,0.0013419999999999999,0.000488,-0.001098,0.31500000000000006,-1.8375000000000001,-3.8850000000000002,0.9175,0.3633125,0.10934375,1.1996875,0.8705625,-0.20709375,-0.3716875,1.18540625,0.023563598996678405,0.01973729763275522,True
11456,79261,1,79262,2864.0,37505.0,28875.0,0.0046359999999999995,0.000915,0.00042699999999999997,0.35000000000000003,-1.8900000000000001,-3.7625,0.9111250000000001,0.36175,0.11,1.1976875,0.89890625,-0.2124375,-0.3720625,1.189375,0.023714568184223503,0.01977930673696574,True
11457,79262,1,79263,2863.0,37505.0,28874.0,0.003721,-0.000122,0.001403,0.29750000000000004,-1.54,-3.7800000000000002,0.91840625,0.36546875,0.1085625,1.2000625,0.87584375,-0.214375,-0.3800625,1.17984375,0.0239462612600986,0.020041991278734416,True
11458,79263,1,79264,2863.0,37503.0,28874.0,0.001464,0.001037,0.000793,0.35000000000000003,-1.3650000000000002,-3.7800000000000002,0.9173125,0.36403125000000003,0.109375,1.19984375,0.8818125,-0.21425,-0.37375,1.17840625,0.023881856757900825,0.019821529309195344,True
11459,79264,1,79265,2863.0,37502.0,28873.0,-0.001281,0.0008539999999999999,6.1e-05,0.385,-1.155,-3.7975000000000003,0.911375,0.36503125000000003,0.105875,1.2045937500000001,0.87090625,-0.216125,-0.3775,1.17684375,0.02399873018494908,0.019828735514306223,True
11460,79265,1,79266,2863.0,37502.0,28871.0,-0.0026839999999999998,-0.00042699999999999997,-0.000244,0.385,-0.9975,-3.7100000000000004,0.9113125,0.36671875,0.107875,1.2036875,0.88084375,-0.213125,-0.37821875,1.1787812500000001,0.02394749748328644,0.019939674632708758,True
11461,79266,1,79267,2862.0,37501.0,28872.0,-0.001281,-0.001098,-0.000915,0.385,-1.0150000000000001,-3.7625,0.91603125,0.366375,0.10940625,1.19290625,0.8811875,-0.21596875000000001,-0.37609375,1.1784375,0.024047922922761457,0.01991705500394213,True
11462,79267,1,79268,2863.0,37501.0,28872.0,-0.0023179999999999997,-0.000915,-0.000183,0.45500000000000007,-0.9625000000000001,-3.7275000000000005,0.912125,0.36512500000000003,0.1065625,1.2036875,0.8888125,-0.21665625,-0.37571875,1.17828125,0.024024012398491227,0.019785314022791635,True
11463,79268,1,79269,2863.0,37502.0,28873.0,-0.0021349999999999997,6.1e-05,-0.000915,0.4025,-0.9975,-3.8150000000000004,0.9160625,0.36678125,0.10915625,1.19965625,0.8755000000000001,-0.21525,-0.375875,1.18334375,0.024035731615407646,0.019898003661407027,True
11464,79269,1,79270,2863.0,37503.0,28871.0,-0.0026839999999999998,-6.1e-05,0.00042699999999999997,0.42000000000000004,-1.3125000000000002,-3.7800000000000002,0.91228125,0.37125,0.11006250000000001,1.20003125,0.8879375,-0.21778125,-0.37446875,1.16625,0.02432226321310917,0.019878638380580092,True
11465,79270,1,79271,2867.0,37505.0,28872.0,0.000915,0.000366,0.000915,0.385,-1.5050000000000001,-3.7450000000000006,0.9118125,0.36584375,0.1059375,1.2041875,0.88171875,-0.21653125,-0.376375,1.17746875,0.0240486547799863,0.01978606335027255,True
11466,79271,1,79272,2866.0,37503.0,28874.0,0.003965,0.000122,0.000366,0.36750000000000005,-1.6275000000000002,-3.7800000000000002,0.9106562500000001,0.3678125,0.109875,1.19940625,0.86725,-0.20903125,-0.37528125,1.17740625,0.023827626311978097,0.01990361649673273,True
11467,79272,1,79273,2863.0,37502.0,28874.0,0.003843,-0.000122,-0.000183,0.36750000000000005,-1.6625,-3.8500000000000005,0.9115625,0.36478125,0.10665625000000001,1.2114375,0.8815625,-0.21615625,-0.3771875,1.18053125,0.02398966599003506,0.019848218749599394,True
11468,79273,1,79274,2866.0,37504.0,28873.0,-0.000183,0.0006709999999999999,-0.000915,0.4025,-1.4700000000000002,-3.8500000000000005,0.91715625,0.37240625,0.10959375,1.1945937500000001,0.87975,-0.21503125,-0.37465625,1.1773437500000001,0.02425920883335635,0.01986694684155802,True
11469,79274,1,79275,2863.0,37501.0,28875.0,-0.000732,-0.000305,0.000549,0.49000000000000005,-1.2075,-3.8325000000000005,0.91525,0.35771875000000003,0.11168750000000001,1.18553125,0.8795937500000001,-0.21784375,-0.374625,1.1728750000000001,0.02376605060060312,0.019951588998805107,True
11470,79275,1,79276,2864.0,37500.0,28872.0,-6.1e-05,-0.000549,-0.000366,0.4025,-0.9800000000000001,-3.7800000000000002,0.900625,0.3644375,0.1125,1.19378125,0.8829375,-0.2165625,-0.37409375,1.1780625,0.02399184442465771,0.01996356274784575,True
11471,79276,1,79277,2864.0,37503.0,28874.0,-0.002257,-0.000732,0.000549,0.36750000000000005,-1.12,-3.9550000000000005,0.91396875,0.358,0.11031250000000001,1.1938125,0.884375,-0.2170625,-0.37453125,1.17821875,0.02374617070092626,0.019891408168105796,True
11472,79277,1,79278,2864.0,37504.0,28872.0,-0.004026,0.000183,-0.000366,0.43750000000000006,-1.155,-3.9200000000000004,0.90646875,0.359375,0.10825,1.19384375,0.8804375,-0.21815625,-0.3779375,1.1780625,0.023847036249920968,0.01994375036854533,True
11473,79278,1,79279,2865.0,37502.0,28872.0,-0.0013419999999999999,-0.000183,-0.0006709999999999999,0.3325,-1.2775,-3.8325000000000005,0.9051875,0.3610625,0.1024375,1.20615625,0.8806875000000001,-0.2185,-0.37543750000000004,1.17721875,0.023930569605879803,0.01960477632452751,True
11474,79279,1,79280,2865.0,37502.0,28872.0,0.0013419999999999999,0.000732,0.00042699999999999997,0.35000000000000003,-1.4000000000000001,-3.6925000000000003,0.8981250000000001,0.365875,0.09984375000000001,1.21065625,0.8804062500000001,-0.21628125,-0.378125,1.18284375,0.024039869870606165,0.019606460710165363,True
11475,79280,1,79281,2865.0,37503.0,28872.0,0.0028669999999999998,-0.000183,-0.000244,0.43750000000000006,-1.5750000000000002,-3.8150000000000004,0.90515625,0.367,0.1081875,1.19509375,0.880875,-0.21553125,-0.37790625,1.17846875,0.024056100359144503,0.01993993023908688,True
11476,79281,1,79282,2865.0,37503.0,28874.0,-0.000305,-0.000183,0.000244,0.36750000000000005,-1.61,-3.8675,0.9067500000000001,0.35634375,0.1120625,1.195625,0.8693125,-0.217,-0.374375,1.17771875,0.02367525911549738,0.019956921972358266,True
11477,79282,1,79283,2865.0,37500.0,28873.0,-0.001037,0.000793,-0.0008539999999999999,0.42000000000000004,-1.61,-3.8325000000000005,0.92771875,0.3673125,0.11221875,1.1945625,0.8861875,-0.2149375,-0.374625,1.1688125,0.0240450754828502,0.019973384205910858,True
11478,79283,1,79284,2866.0,37503.0,28875.0,-0.000732,0.0008539999999999999,0.000305,0.36750000000000005,-1.61,-3.8150000000000004,0.9234375,0.35946875,0.1136875,1.19425,0.89034375,-0.22037500000000002,-0.37143750000000003,1.17803125,0.023940329165010862,0.019905473364055775,True
11479,79284,1,79285,2869.0,37505.0,28875.0,0.000366,-0.000915,0.000549,0.36750000000000005,-1.7500000000000002,-3.8325000000000005,0.9053125,0.3639375,0.10715625000000001,1.2004375,0.88053125,-0.2196875,-0.37659375,1.1773125,0.024097131723933272,0.019844856297857448,True
11480,79285,1,79286,2868.0,37507.0,28874.0,0.000305,-0.000488,-0.000976,0.43750000000000006,-1.6625,-3.9025000000000003,0.90653125,0.36440625,0.10684375,1.19953125,0.88075,-0.21840625,-0.37403125,1.1780625,0.024064857694754374,0.019728989229059104,True
11481,79286,1,79287,2867.0,37507.0,28876.0,0.00122,-0.000305,-0.001037,0.31500000000000006,-1.3650000000000002,-3.8500000000000005,0.9188125,0.36384375,0.10853125,1.19921875,0.8894375,-0.215875,-0.37465625,1.18634375,0.023939616057648137,0.019823356483232454,True
11482,79287,1,79288,2868.0,37504.0,28877.0,0.00122,0.000366,0.000305,0.43750000000000006,-1.1725,-3.9200000000000004,0.91728125,0.365,0.1050625,1.201875,0.8738125,-0.21546875000000001,-0.37803125,1.17746875,0.02397098961794824,0.01981676637648908,True
11483,79288,1,79289,2869.0,37506.0,28876.0,-0.0011589999999999999,0.000549,0.001037,0.525,-0.9975,-3.8150000000000004,0.910875,0.3639375,0.10968750000000001,1.19896875,0.88025,-0.2193125,-0.37471875,1.1781875,0.024082021320795132,0.019873306230456505,True
11484,79289,1,79290,2867.0,37505.0,28879.0,-0.002989,-6.1e-05,0.000549,0.5425000000000001,-1.0150000000000001,-3.8500000000000005,0.9198437500000001,0.36603125000000003,0.10890625,1.2065937500000001,0.88553125,-0.21584375,-0.37559375,1.1848750000000001,0.02402868989440023,0.019876438907257387,True
11485,79290,1,79291,2870.0,37507.0,28879.0,-0.0025009999999999998,0.000244,0.0,0.4025,-0.9975,-3.8850000000000002,0.912625,0.36521875,0.10615625000000001,1.206375,0.8765625,-0.216375,-0.37746875,1.17821875,0.024016548719616376,0.01983901630475888,True
11486,79291,1,79292,2870.0,37509.0,28879.0,-6.1e-05,-0.00061,-6.1e-05,0.5075000000000001,-1.4000000000000001,-3.8325000000000005,0.91190625,0.363375,0.106625,1.1998125,0.880875,-0.21875,-0.37478125,1.1779375,0.024036129032258064,0.019750177245180404,True
11487,79292,1,79293,2869.0,37506.0,28880.0,0.00122,0.000488,0.000122,0.36750000000000005,-1.4525000000000001,-3.9550000000000005,0.9185,0.36434375,0.109375,1.203125,0.88784375,-0.215,-0.37546875,1.1843125,0.02392499483791039,0.019890643128657782,True
11488,79293,1,79294,2871.0,37507.0,28881.0,0.003904,-0.00061,-0.0011589999999999999,0.47250000000000003,-1.435,-3.8150000000000004,0.919375,0.36534375,0.1085625,1.20590625,0.8788125,-0.21531250000000002,-0.37678125,1.18140625,0.02397888732594304,0.019910083493898525,True
11489,79294,1,79295,2870.0,37508.0,28881.0,0.00366,-0.000366,6.1e-05,0.42000000000000004,-1.3825,-3.8675,0.91178125,0.36540625,0.10790625000000001,1.20740625,0.88046875,-0.21721875000000002,-0.37765625,1.1829375,0.024058295298670495,0.019918342231936264,True
11490,79295,1,79296,2870.0,37507.0,28880.0,0.000305,0.000366,-6.1e-05,0.36750000000000005,-1.3475000000000001,-3.8675,0.91815625,0.3648125,0.10865625,1.19603125,0.88071875,-0.2156875,-0.3756875,1.1839375,0.023972063564166823,0.019869952385958345,True
11491,79296,1,79297,2871.0,37509.0,28882.0,-0.002074,0.000366,0.000488,0.35000000000000003,-1.0675000000000001,-3.8150000000000004,0.91890625,0.36203125,0.109375,1.1999375,0.8878125,-0.21109375,-0.37493750000000003,1.171875,0.02367199953533698,0.019869281716106964,True
11492,79297,1,79298,2871.0,37510.0,28883.0,-0.001952,0.000732,-0.000244,0.36750000000000005,-1.05,-3.7800000000000002,0.91190625,0.36312500000000003,0.10909375,1.1998125,0.887625,-0.21678125,-0.37321875,1.17746875,0.023946462744713442,0.019788625579048726,True
11493,79298,1,79299,2873.0,37511.0,28879.0,-0.00061,-0.0006709999999999999,0.00061,0.3325,-1.0675000000000001,-3.8325000000000005,0.9210625,0.3655,0.11121875,1.192375,0.88590625,-0.2161875,-0.37765625,1.18375,0.024020606051220906,0.0200542248601114,True
11494,79299,1,79300,2872.0,37508.0,28884.0,0.000122,-0.00042699999999999997,-0.000366,0.47250000000000003,-1.225,-3.8150000000000004,0.9125625,0.3649375,0.10828125,1.19909375,0.8805937500000001,-0.21603125,-0.37478125,1.17796875,0.02399108028901309,0.01981812657293078,True
11495,79300,1,79301,2874.0,37511.0,28886.0,-0.0011589999999999999,0.000305,-0.000915,0.525,-1.33,-3.8325000000000005,0.90346875,0.36371875000000004,0.10934375,1.19928125,0.88703125,-0.21509375,-0.37575000000000003,1.17890625,0.023902963415122026,0.019900669722982885,True
11496,79301,1,79302,2874.0,37511.0,28885.0,0.000488,0.00042699999999999997,-0.000183,0.4025,-1.5050000000000001,-3.7275000000000005,0.90725,0.3651875,0.11190625,1.20378125,0.884875,-0.21465625,-0.37778125,1.179125,0.023945983127470576,0.020087451560014305,True
11497,79302,1,79303,2874.0,37513.0,28885.0,0.002806,-0.001281,0.000488,0.4025,-1.5225000000000002,-3.8150000000000004,0.91171875,0.36365625,0.11015625,1.1988125,0.880875,-0.21378125,-0.37396875,1.1789687500000001,0.023847473223538765,0.019862378792948936,True
11498,79303,1,79304,2873.0,37510.0,28885.0,0.003721,0.000549,-0.000122,0.35000000000000003,-1.54,-3.8150000000000004,0.9087500000000001,0.36534375,0.10871875,1.1881875,0.88134375,-0.21640625,-0.37578125,1.177,0.024022969964835307,0.019876286016473833,True
11499,79304,1,79305,2875.0,37510.0,28886.0,0.001281,-0.000305,-0.000915,0.29750000000000004,-1.3125000000000002,-3.7975000000000003,0.91546875,0.3651875,0.10968750000000001,1.201125,0.88696875,-0.21546875000000001,-0.37493750000000003,1.1835,0.023978732602481626,0.01988210226180067,True
11500,79305,1,79306,2875.0,37510.0,28885.0,-0.001281,-0.000549,0.000793,0.24500000000000002,-1.1025,-3.7100000000000004,0.9046875,0.3655,0.1085625,1.1993125,0.8776875000000001,-0.219,-0.3741875,1.17828125,0.024133944423799496,0.019805788398074807,True
11501,79306,1,79307,2875.0,37509.0,28884.0,-0.003355,0.000305,-0.000366,0.43750000000000006,-1.155,-3.8150000000000004,0.9121875,0.36384375,0.10909375,1.2021875,0.8881875,-0.21525,-0.3750625,1.1894375,0.023914423761885586,0.019862769582642097,True
11502,79307,1,79308,2877.0,37511.0,28886.0,-0.002623,0.0006709999999999999,0.000305,0.42000000000000004,-1.3475000000000001,-3.8325000000000005,0.9116562500000001,0.36575,0.1080625,1.1983125000000001,0.880375,-0.21446875,-0.37753125,1.17728125,0.02396165515710519,0.019919726284834523,True
11503,79308,1,79309,2876.0,37512.0,28886.0,-0.001281,0.00061,0.001037,0.5075000000000001,-1.5925000000000002,-3.8150000000000004,0.91178125,0.36362500000000003,0.1105,1.19965625,0.88609375,-0.21871875000000002,-0.37443750000000003,1.1763125,0.024045192316377185,0.01989533091789298,True
11504,79309,1,79310,2877.0,37510.0,28887.0,0.000488,0.000183,0.000244,0.385,-1.7325000000000002,-3.7800000000000002,0.9129375000000001,0.36571875,0.10965625,1.19959375,0.88090625,-0.21440625,-0.3746875,1.186625,0.023957845342584026,0.019870767573943255,True
11505,79310,1,79311,2875.0,37514.0,28887.0,0.003477,0.0,0.000122,0.385,-1.7850000000000001,-3.7625,0.9245625000000001,0.36646875,0.10728125000000001,1.21646875,0.8848125,-0.21565625,-0.3735,1.1831562500000001,0.0240391998461739,0.019725572855765483,True
11506,79311,1,79312,2879.0,37513.0,28886.0,0.002806,0.0,-0.002196,0.35000000000000003,-1.4875,-3.8500000000000005,0.9101250000000001,0.3643125,0.098875,1.1978125,0.87121875,-0.2185625,-0.37728125,1.17703125,0.024067283101546592,0.019532787316058883,True
11507,79312,1,79313,2877.0,37513.0,28887.0,-0.000549,-0.001037,0.000793,0.3325,-1.2600000000000002,-3.8150000000000004,0.9032187500000001,0.36109375,0.096625,1.21125,0.8778750000000001,-0.213625,-0.37834375000000003,1.17471875,0.02373534528597019,0.019483224737119397,True
11508,79313,1,79314,2878.0,37513.0,28889.0,-0.0030499999999999998,-0.001403,0.0006709999999999999,0.31500000000000006,-1.1375000000000002,-3.9550000000000005,0.90015625,0.36825,0.0981875,1.2100625,0.8788750000000001,-0.21434375,-0.37640625,1.1829375,0.02405986121345948,0.019469389586498215,True
11509,79314,1,79315,2877.0,37511.0,28889.0,-0.001403,-0.000915,0.000122,0.43750000000000006,-1.05,-3.9375000000000004,0.90171875,0.36671875,0.10262500000000001,1.2163125000000001,0.867125,-0.2155,-0.379,1.1855625,0.02404322644587145,0.019755732392633004,True
11510,79315,1,79316,2878.0,37514.0,28890.0,-0.0026839999999999998,0.002257,-0.0015249999999999999,0.31500000000000006,-0.9800000000000001,-3.9025000000000003,0.900875,0.366875,0.1044375,1.22125,0.878,-0.2164375,-0.378125,1.1869687500000001,0.024087461254364933,0.019794898089988463,True
11511,79316,1,79317,2881.0,37515.0,28890.0,-0.002928,0.001098,-0.000122,0.42000000000000004,-1.4700000000000002,-3.7800000000000002,0.9304375,0.3700625,0.1144375,1.19628125,0.8775000000000001,-0.2139375,-0.37409375,1.17859375,0.02411834093484383,0.020043052882735383,True
11512,79317,1,79318,2880.0,37517.0,28890.0,-0.000915,-0.000183,-6.1e-05,0.49000000000000005,-1.5575,-3.7275000000000005,0.9345,0.36462500000000003,0.11665625,1.193375,0.89196875,-0.2168125,-0.37396875,1.1796875,0.024009662708500554,0.02012905674214422,True
11513,79318,1,79319,2881.0,37516.0,28891.0,0.003355,-0.000122,-0.000183,0.385,-1.6625,-3.7625,0.91728125,0.3535625,0.10578125000000001,1.1896875,0.886625,-0.21578125,-0.37284375000000003,1.17621875,0.023511269123311893,0.019637634611266896,True
11514,79319,1,79320,2880.0,37515.0,28892.0,0.004209,0.000183,0.000793,0.385,-1.54,-3.5700000000000003,0.90734375,0.35371875,0.106,1.18946875,0.88209375,-0.21709375,-0.37340625,1.17778125,0.023570644185989496,0.019669234783299933,True
11515,79320,1,79321,2881.0,37515.0,28893.0,0.002745,6.1e-05,-0.000793,0.36750000000000005,-0.9100000000000001,-3.6400000000000006,0.9005,0.35931250000000003,0.10615625000000001,1.19015625,0.882,-0.218125,-0.37384375000000003,1.1771875,0.02384319595344396,0.019693241858908694,True
11516,79321,1,79322,2882.0,37513.0,28891.0,-0.000915,0.000488,-0.001281,0.385,-0.56,-3.8150000000000004,0.93275,0.36909375,0.10603125000000001,1.2051875,0.88853125,-0.21506250000000002,-0.3771875,1.1794375,0.02412367302376362,0.019822580024869564,True
11517,79322,1,79323,2884.0,37516.0,28892.0,-0.0040869999999999995,0.000183,0.000549,0.385,-0.4025,-3.6400000000000006,0.9000625,0.35740625,0.11503125,1.1926875000000001,0.88025,-0.2179375,-0.374125,1.178125,0.023756926038809044,0.02006866913171242,True
11518,79323,1,79324,2883.0,37515.0,28892.0,-0.0053679999999999995,-0.000793,0.00042699999999999997,0.5075000000000001,-0.3325,-3.6575,0.92034375,0.36740625,0.10759375,1.1991875,0.8875937500000001,-0.21540625,-0.37640625,1.17803125,0.024067839043584078,0.01985526476036639,True
11519,79324,1,79325,2883.0,37516.0,28892.0,-0.004392,-0.000244,0.001403,0.47250000000000003,-0.4025,-3.7275000000000005,0.9126562500000001,0.3625,0.11028125,1.2025000000000001,0.8885000000000001,-0.21509375,-0.37490625,1.1859375,0.023852633236243405,0.019905204763608065,True
11520,79325,1,79326,2885.0,37518.0,28894.0,-0.001037,-0.00042699999999999997,-0.0008539999999999999,0.5425000000000001,-0.7875000000000001,-3.7975000000000003,0.91228125,0.3651875,0.1066875,1.20225,0.8804375,-0.21937500000000001,-0.37409375,1.1685,0.024136151325127093,0.01972509234317686,True
11521,79326,1,79327,2883.0,37515.0,28891.0,-0.00122,0.00122,-0.002379,0.4025,-1.1025,-3.7450000000000006,0.91221875,0.3639375,0.10865625,1.1999375,0.8876875000000001,-0.21584375,-0.37540625,1.17653125,0.023942227906058405,0.019858643381584665,True
11522,79327,1,79328,2884.0,37513.0,28893.0,-0.000732,0.000732,-0.001037,0.385,-1.5225000000000002,-3.6400000000000006,0.9054375,0.36203125,0.11478125,1.19903125,0.88884375,-0.21528125,-0.37465625,1.1848125,0.02384083397751162,0.020079770355735785,True
11523,79328,1,79329,2883.0,37515.0,28891.0,0.001769,0.000305,0.0013419999999999999,0.45500000000000007,-1.8200000000000003,-3.6925000000000003,0.9166875,0.36559375,0.10909375,1.20453125,0.88228125,-0.21528125,-0.378625,1.18375,0.023987951822777197,0.02000599910782499,True
11524,79329,1,79330,2882.0,37512.0,28889.0,0.0026839999999999998,-0.0008539999999999999,-0.00061,0.35000000000000003,-2.2575000000000003,-3.5525,0.917625,0.3653125,0.11046875,1.20271875,0.88003125,-0.2173125,-0.377,1.179,0.02405820216425749,0.019997077162899456,True
11525,79330,1,79331,2881.0,37508.0,28888.0,0.004941,0.003172,0.00042699999999999997,0.29750000000000004,-1.7500000000000002,-3.8150000000000004,0.9096875,0.36340625,0.11009375,1.19921875,0.88953125,-0.21,-0.37478125,1.18321875,0.023684686080132175,0.019892486214619875,True
11526,79331,1,79332,2878.0,37505.0,28885.0,-0.00061,0.001281,0.0006709999999999999,0.4025,-1.3825,-3.9725000000000006,0.9195,0.3665625,0.1088125,1.19234375,0.87725,-0.21296875,-0.37771875,1.18415625,0.0239347457134929,0.019958030322258926,True
11527,79332,1,79333,2879.0,37505.0,28883.0,-0.0028669999999999998,-0.000549,-0.000976,0.36750000000000005,-1.2950000000000002,-3.7975000000000003,0.91378125,0.36578125,0.1079375,1.19940625,0.8805625,-0.2199375,-0.37571875,1.17740625,0.02418333036573691,0.019841722615871582,True
11528,79333,1,79334,2877.0,37501.0,28884.0,-0.003355,6.1e-05,-0.000793,0.45500000000000007,-1.2075,-3.8500000000000005,0.91253125,0.36296875,0.11240625,1.198625,0.88953125,-0.21503125,-0.3750625,1.18434375,0.023869471570473404,0.01999866667008546,True
11529,79334,1,79335,2876.0,37499.0,28882.0,-0.0017079999999999999,0.0006709999999999999,0.00122,0.385,-1.1900000000000002,-3.9375000000000004,0.91521875,0.3649375,0.10959375,1.2000625,0.88115625,-0.21937500000000001,-0.37528125,1.18271875,0.024125829010864238,0.019892078168328827,True
11530,79335,1,79336,2874.0,37496.0,28878.0,-0.001647,-0.000915,0.000305,0.28,-1.3475000000000001,-3.9025000000000003,0.908875,0.364,0.1068125,1.1959375,0.8806875000000001,-0.2194375,-0.37440625,1.1663125,0.024089638745738832,0.01974278860638913,True
11531,79336,1,79337,2873.0,37493.0,28877.0,-0.0006709999999999999,-0.000976,0.000793,0.28,-1.4525000000000001,-3.7625,0.9118437500000001,0.36165625,0.10965625,1.19921875,0.87925,-0.21490625,-0.3746875,1.17975,0.02381023052690943,0.019870767573943255,True
11532,79337,1,79338,2872.0,37491.0,28877.0,0.00042699999999999997,-6.1e-05,0.000183,0.385,-1.7325000000000002,-3.7450000000000006,0.9188125,0.36562500000000003,0.1074375,1.2058125,0.88165625,-0.21659375,-0.3771875,1.17759375,0.024042140526059737,0.019880267155511683,True
11533,79338,1,79339,2870.0,37487.0,28874.0,0.001464,0.00042699999999999997,-0.000244,0.42000000000000004,-1.9425000000000001,-3.7100000000000004,0.91096875,0.3636875,0.107375,1.19909375,0.8831875,-0.2164375,-0.3750625,1.1775625,0.023955835783029605,0.01979225694293092,True
11534,79339,1,79340,2867.0,37483.0,28873.0,0.0017079999999999999,0.000366,-0.000305,0.3325,-1.995,-3.6925000000000003,0.9185,0.3636875,0.109375,1.20471875,0.887375,-0.2156875,-0.3746875,1.18209375,0.023925606076639367,0.019859228964473903,True
11535,79340,1,79341,2868.0,37482.0,28871.0,0.0034159999999999998,0.0,-0.000549,0.28,-1.7850000000000001,-3.8500000000000005,0.9114375,0.36378125,0.1073125,1.20003125,0.88109375,-0.21690625,-0.37478125,1.17853125,0.023978599661135493,0.01977838262651075,True
11536,79341,1,79342,2864.0,37480.0,28868.0,0.001586,-0.000549,-0.000488,0.36750000000000005,-1.5225000000000002,-3.7450000000000006,0.90778125,0.36540625,0.11315625,1.203875,0.884625,-0.21584375,-0.37728125,1.1786875,0.024002880345641478,0.02011862992309694,True
11537,79342,1,79343,2865.0,37477.0,28872.0,-0.001403,-0.0008539999999999999,-0.0018909999999999999,0.47250000000000003,-1.3650000000000002,-3.8150000000000004,0.912375,0.36321875000000003,0.10921875,1.19834375,0.8807812500000001,-0.2178125,-0.37396875,1.1816875,0.023991896460508148,0.019823915627199613,True
11538,79343,1,79344,2863.0,37477.0,28872.0,-0.0034159999999999998,-0.000976,0.000366,0.42000000000000004,-1.1375000000000002,-3.7450000000000006,0.91659375,0.365,0.10703125000000001,1.20296875,0.88290625,-0.21596875000000001,-0.375625,1.1793125,0.023991142208589118,0.01980077433911951,True
11539,79344,1,79345,2864.0,37475.0,28871.0,-0.002379,-0.000122,0.0018909999999999999,0.5425000000000001,-1.1900000000000002,-3.7625,0.91053125,0.36303125,0.10903125,1.2065625,0.88725,-0.21581250000000002,-0.37471875,1.1813125,0.02390354442990505,0.019846382842878957,True
11540,79345,1,79346,2863.0,37478.0,28870.0,-0.002745,0.0006709999999999999,0.001037,0.525,-1.435,-3.9200000000000004,0.912,0.36509375,0.11015625,1.199,0.88125,-0.22075,-0.37440625,1.1894375,0.024187679985136712,0.019879971435201628,True
11541,79346,1,79347,2864.0,37478.0,28870.0,-0.000549,0.001403,-0.00042699999999999997,0.43750000000000006,-1.6975000000000002,-3.7800000000000002,0.91321875,0.36325,0.109125,1.199625,0.89190625,-0.21409375,-0.375,1.19609375,0.023843293742926062,0.01986153846153846,True
11542,79347,1,79348,2863.0,37477.0,28872.0,0.002196,0.0008539999999999999,-0.002562,0.35000000000000003,-1.8025000000000002,-3.7800000000000002,0.911625,0.3634375,0.10928125,1.19965625,0.89246875,-0.209,-0.377125,1.1929375,0.023645648312611015,0.01995338867893568,True
11543,79348,1,79349,2864.0,37477.0,28872.0,0.0026839999999999998,0.000732,-0.001403,0.31500000000000006,-1.8375000000000001,-3.7625,0.91696875,0.3645,0.11290625,1.19896875,0.87265625,-0.21428125,-0.378125,1.189625,0.0239024749082734,0.020142289450070502,True
11544,79349,1,79350,2865.0,37477.0,28872.0,0.0046359999999999995,0.00042699999999999997,0.000366,0.3325,-1.7675,-3.7275000000000005,0.9179375000000001,0.36515625,0.108625,1.20384375,0.8754375,-0.218625,-0.3786875,1.16475,0.02410464054008021,0.019989283672470062,True
11545,79350,1,79351,2862.0,37476.0,28870.0,-6.1e-05,-0.0011589999999999999,0.0008539999999999999,0.28,-1.2075,-3.6750000000000003,0.917875,0.369,0.1088125,1.20334375,0.87421875,-0.22365625,-0.37543750000000004,1.17459375,0.02446601140156123,0.01986631009187015,True
11546,79351,1,79352,2863.0,37473.0,28871.0,-0.0025009999999999998,-0.000183,0.000732,0.47250000000000003,-1.0325000000000002,-3.8500000000000005,0.9038125,0.36434375,0.10596875,1.1929687500000001,0.87565625,-0.22075,-0.37046875,1.17103125,0.024156714800326166,0.01954978810163428,True
11547,79352,1,79353,2864.0,37474.0,28874.0,-0.005124,-0.0006709999999999999,0.000305,0.47250000000000003,-1.05,-3.7450000000000006,0.912625,0.3626875,0.10934375,1.19909375,0.89884375,-0.21356250000000002,-0.37815625,1.192125,0.02379864590350966,0.019997410591705435,True
11548,79353,1,79354,2864.0,37480.0,28872.0,-0.003904,-0.002074,0.000122,0.385,-1.0850000000000002,-3.7100000000000004,0.92025,0.3648125,0.1085,1.20878125,0.8751875,-0.2184375,-0.373375,1.17228125,0.024082891392146998,0.019770548805817825,True
11549,79354,1,79355,2864.0,37479.0,28873.0,-0.00042699999999999997,-0.002196,-0.00042699999999999997,0.36750000000000005,-1.2425000000000002,-3.7450000000000006,0.91225,0.36365625,0.10690625000000001,1.19915625,0.89153125,-0.2215,-0.3715,1.16884375,0.024158547158516196,0.019629741706501447,True
11550,79355,1,79356,2865.0,37480.0,28870.0,0.0017079999999999999,0.000549,-0.00061,0.31500000000000006,-1.54,-3.7975000000000003,0.91246875,0.36146875,0.10734375,1.20003125,0.8965,-0.214,-0.366,1.1776875,0.0237659515156521,0.019426403595173603,True
11551,79356,1,79357,2864.0,37477.0,28872.0,0.001098,0.000793,-0.0017079999999999999,0.35000000000000003,-1.5575,-3.6400000000000006,0.912,0.36215625,0.109125,1.19890625,0.890625,-0.21334375,-0.372125,1.1860625,0.023767886250737263,0.019745918749390953,True
11552,79357,1,79358,2865.0,37477.0,28873.0,0.000793,0.0021349999999999997,-6.1e-05,0.45500000000000007,-1.4700000000000002,-3.7625,0.91828125,0.36153125,0.10921875,1.2007812500000001,0.88190625,-0.2136875,-0.37628125,1.1814375,0.023755933498357078,0.01991690180387954,True
11553,79358,1,79359,2864.0,37478.0,28871.0,0.002989,0.000488,0.0,0.49000000000000005,-1.4000000000000001,-3.8325000000000005,0.9078437500000001,0.36309375,0.10975,1.19359375,0.88421875,-0.2109375,-0.37409375,1.18428125,0.023709583736689254,0.019850738040260472,True
11554,79359,1,79360,2863.0,37475.0,28870.0,0.002257,0.00042699999999999997,0.000976,0.525,-1.3125000000000002,-3.8675,0.914875,0.36446875,0.10971875,1.19890625,0.880875,-0.21665625,-0.37496875,1.18471875,0.023996913281535307,0.019884640877744716,True
11555,79360,1,79361,2864.0,37474.0,28872.0,-0.001952,0.000488,6.1e-05,0.5950000000000001,-0.8925000000000001,-3.7450000000000006,0.91796875,0.36078125,0.10968750000000001,1.1987812500000001,0.87790625,-0.21603125,-0.3750625,1.184625,0.023819448118692032,0.019887128494542324,True
11556,79361,1,79362,2863.0,37474.0,28871.0,-0.003477,0.000244,-0.000488,0.525,-0.8400000000000001,-3.7275000000000005,0.91809375,0.3641875,0.11006250000000001,1.1979375,0.88646875,-0.2160625,-0.374875,1.183,0.023961368616388395,0.019894973820378567,True
11557,79362,1,79363,2863.0,37472.0,28869.0,-0.003721,-0.000488,0.000793,0.4025,-0.8575,-3.6925000000000003,0.9179375000000001,0.3645,0.114,1.2004375,0.88290625,-0.21646875000000002,-0.37384375000000003,1.18371875,0.023990646860930127,0.020015051996056226,True
11558,79363,1,79364,2863.0,37475.0,28871.0,-0.002745,-0.001098,0.000244,0.5075000000000001,-0.9975,-3.7100000000000004,0.91478125,0.36440625,0.10803125,1.19425,0.8806875000000001,-0.21628125,-0.3784375,1.18390625,0.023979218526791763,0.01995487815820846,True
11559,79364,1,79365,2865.0,37474.0,28867.0,6.1e-05,-0.0006709999999999999,0.0,0.45500000000000007,-1.155,-3.8150000000000004,0.9179375000000001,0.36509375,0.10928125,1.20478125,0.87825,-0.21156250000000001,-0.37584375000000003,1.17946875,0.02381739096764201,0.01990187519149978,True
11560,79365,1,79366,2863.0,37474.0,28868.0,0.00042699999999999997,0.000183,-0.000793,0.45500000000000007,-1.2600000000000002,-3.6925000000000003,0.9128437500000001,0.36540625,0.10646875,1.2054375,0.8806875000000001,-0.22053125,-0.37325,1.1784375,0.02419176912149687,0.01968218231052486,True
11561,79366,1,79367,2866.0,37476.0,28868.0,-0.000183,0.000305,-0.000366,0.525,-1.3125000000000002,-3.7800000000000002,0.912625,0.36659375,0.10578125000000001,1.20665625,0.8831875,-0.21446875,-0.3731875,1.1791562500000001,0.02399650002645629,0.019651461262504135,True
11562,79367,1,79368,2866.0,37475.0,28871.0,0.000244,-0.00042699999999999997,0.00061,0.43750000000000006,-1.3475000000000001,-3.8150000000000004,0.9029375000000001,0.36459375,0.10790625000000001,1.20075,0.88109375,-0.21671875000000002,-0.3765625,1.17809375,0.024004593933684763,0.019874367027754632,True
11563,79368,1,79369,2866.0,37475.0,28869.0,0.001281,0.000488,0.00122,0.36750000000000005,-1.3125000000000002,-3.8500000000000005,0.91253125,0.36446875,0.1041875,1.2063125000000001,0.8800625,-0.22071875,-0.373125,1.1790625000000001,0.024160616620842432,0.0195835577095674,True
11564,79369,1,79370,2865.0,37475.0,28870.0,0.00244,-6.1e-05,0.000244,0.4025,-1.3475000000000001,-3.9550000000000005,0.91071875,0.36478125,0.10740625000000001,1.20796875,0.86815625,-0.21937500000000001,-0.37715625,1.17775,0.024119377564449953,0.019877728765019507,True
11565,79370,1,79371,2867.0,37476.0,28870.0,-0.002623,0.0013419999999999999,-0.000488,0.28,-1.5750000000000002,-3.8150000000000004,0.90971875,0.36412500000000003,0.1045,1.19809375,0.880875,-0.22087500000000002,-0.37478125,1.17803125,0.024152719503321003,0.019662996975613883,True
11566,79371,1,79372,2867.0,37475.0,28871.0,0.000122,-0.001281,-0.000915,0.14,-1.8900000000000001,-3.535,0.9101250000000001,0.36103125,0.111125,1.200875,0.884875,-0.21946875000000002,-0.37046875,1.18546875,0.023968320940152745,0.01976136589494201,True
11567,79372,1,79373,2867.0,37476.0,28872.0,0.0025009999999999998,0.0011589999999999999,-0.000183,0.29750000000000004,-1.5925000000000002,-3.7275000000000005,0.92371875,0.36475,0.1083125,1.19525,0.8811875,-0.2163125,-0.3751875,1.1721875,0.023994673012251555,0.01983574485324472,True
11568,79373,1,79374,2866.0,37474.0,28871.0,0.000366,0.0015249999999999999,-0.0008539999999999999,0.24500000000000002,-1.5750000000000002,-4.025,0.9103125,0.36078125,0.11090625,1.197,0.88271875,-0.2168125,-0.3745625,1.185125,0.02385094033329118,0.019917024151715545,True
11569,79374,1,79375,2867.0,37475.0,28871.0,-0.00183,-0.002196,-0.000488,0.28,-1.5050000000000001,-3.8325000000000005,0.92415625,0.36628125,0.1120625,1.207625,0.87921875,-0.21725,-0.3770625,1.1791562500000001,0.024095685926354152,0.020064968861609148,True
11570,79375,1,79376,2868.0,37475.0,28869.0,-0.0006709999999999999,0.000122,0.000366,0.3325,-1.5925000000000002,-3.8850000000000002,0.9106562500000001,0.3675625,0.10525,1.1955,0.8809375,-0.21765625,-0.37475,1.1780625,0.024164962288619484,0.019692509666765817,True
11571,79376,1,79377,2867.0,37475.0,28871.0,0.0,-0.000183,0.000732,0.31500000000000006,-1.5050000000000001,-3.9025000000000003,0.91059375,0.3601875,0.11093750000000001,1.19734375,0.8858125,-0.21796875000000002,-0.3745625,1.1767812500000001,0.023873028162198783,0.019918306226009187,True
11572,79377,1,79378,2869.0,37475.0,28871.0,0.0018909999999999999,-0.000122,0.001281,0.31500000000000006,-1.6625,-3.9375000000000004,0.9207500000000001,0.367375,0.10853125,1.20596875,0.88465625,-0.21634375,-0.37593750000000004,1.17821875,0.02410433036572666,0.019874876607309976,True
11573,79378,1,79379,2865.0,37474.0,28869.0,0.0006709999999999999,-0.000183,0.00061,0.24500000000000002,-1.8200000000000003,-3.9375000000000004,0.909875,0.35959375,0.1180625,1.202625,0.8817812500000001,-0.21903125,-0.374375,1.17996875,0.023891335455459226,0.020203082130311033,True
11574,79379,1,79380,2868.0,37475.0,28870.0,-0.000976,-6.1e-05,-0.001037,0.35000000000000003,-1.8550000000000002,-3.7625,0.915625,0.3648125,0.10796875,1.2035625,0.8804375,-0.2163125,-0.3718125,1.177125,0.023997253917168438,0.019685907644332975,True
11575,79380,1,79381,2866.0,37474.0,28872.0,0.00122,0.000244,-0.001647,0.36750000000000005,-1.9600000000000002,-3.7625,0.90959375,0.36075,0.11009375,1.1964062500000001,0.8807812500000001,-0.217625,-0.37471875,1.1799375,0.023882399698566644,0.019889973089433084,True
11576,79381,1,79382,2864.0,37475.0,28871.0,0.002379,-0.00061,0.000549,0.2625,-2.0125,-3.9375000000000004,0.91271875,0.3651875,0.1095,1.2081250000000001,0.88234375,-0.21628125,-0.37534375000000003,1.181125,0.02401147987988453,0.019890745130517393,True
11577,79382,1,79383,2869.0,37474.0,28871.0,0.002806,-0.0008539999999999999,0.000976,0.3325,-1.9600000000000002,-3.7625,0.91278125,0.3635625,0.1059375,1.200125,0.88096875,-0.21996875000000002,-0.37284375000000003,1.17953125,0.024092981127401332,0.019644045434788465,True
11578,79383,1,79384,2866.0,37474.0,28869.0,0.001281,-0.000183,0.000122,0.3325,-1.715,-3.8325000000000005,0.91825,0.36353125000000003,0.10953125,1.20509375,0.88196875,-0.21684375,-0.378375,1.17321875,0.02396575730476851,0.02001389551190348,True
11579,79384,1,79385,2867.0,37473.0,28870.0,-0.0026839999999999998,0.000976,-0.000976,0.36750000000000005,-1.4875,-3.8150000000000004,0.9065,0.36428125,0.10559375,1.20475,0.87134375,-0.22925,-0.36975,1.1656250000000001,0.024496476366375353,0.019505483232285927,True
11580,79385,1,79386,2869.0,37473.0,28870.0,-0.00122,0.000549,0.000244,0.22750000000000004,-1.5925000000000002,-3.8325000000000005,0.912375,0.360875,0.11059375,1.19990625,0.90971875,-0.20909375,-0.375625,1.195625,0.02354358060181414,0.019946924437834926,True
11581,79386,1,79387,2866.0,37473.0,28872.0,-0.000366,-0.000976,0.0011589999999999999,0.385,-1.5050000000000001,-3.9025000000000003,0.918875,0.36446875,0.1085,1.20540625,0.869375,-0.22990625,-0.37646875,1.16865625,0.02453063556529444,0.019894955047580466,True
11582,79387,1,79388,2867.0,37475.0,28870.0,-0.00042699999999999997,-0.000305,0.0013419999999999999,0.31500000000000006,-1.4700000000000002,-3.8675,0.91353125,0.36475,0.1061875,1.206875,0.88753125,-0.2270625,-0.3641875,1.16846875,0.024427744799849348,0.01930599984095509,True
11583,79388,1,79389,2868.0,37473.0,28872.0,-0.0015249999999999999,0.001281,0.000183,0.31500000000000006,-1.5750000000000002,-3.8150000000000004,0.9059375000000001,0.36843750000000003,0.10584375,1.20765625,0.88553125,-0.2253125,-0.36809375,1.16021875,0.02450948775170599,0.019449100322014315,True
11584,79389,1,79390,2868.0,37472.0,28872.0,0.00122,-0.000244,-0.0006709999999999999,0.31500000000000006,-1.8025000000000002,-3.7800000000000002,0.907,0.3634375,0.1070625,1.2005000000000001,0.88253125,-0.2249375,-0.36803125000000003,1.177875,0.024287988359103098,0.019496599668879695,True
11585,79390,1,79391,2868.0,37472.0,28870.0,0.0032329999999999998,0.000305,-0.000183,0.2625,-1.7675,-3.6925000000000003,0.9178437500000001,0.361,0.10984375,1.2026875000000001,0.889625,-0.21540625,-0.3863125,1.1795625,0.023803286389217606,0.02034568572021703,True
11586,79391,1,79392,2868.0,37473.0,28871.0,0.0023179999999999997,-6.1e-05,-0.000122,0.29750000000000004,-1.8200000000000003,-3.7975000000000003,0.9176875,0.36321875000000003,0.10846875,1.19709375,0.869125,-0.23046875,-0.37359375,1.16825,0.024501692729324523,0.019778064119083793,True
11587,79392,1,79393,2868.0,37470.0,28869.0,0.000732,-0.000793,0.00042699999999999997,0.385,-1.6975000000000002,-3.7625,0.91228125,0.363375,0.10675,1.19134375,0.86971875,-0.22534375,-0.36759375,1.1925937500000001,0.024301770743707193,0.019466171131484824,True
11588,79393,1,79394,2868.0,37471.0,28872.0,-0.000976,-0.000549,-0.001037,0.385,-1.5750000000000002,-3.7800000000000002,0.918125,0.36109375,0.10959375,1.20746875,0.87915625,-0.21546875000000001,-0.38075000000000003,1.18815625,0.023809677440169312,0.02011192231576141,True
11589,79394,1,79395,2868.0,37471.0,28871.0,-0.000976,-0.001098,-0.000549,0.28,-1.4875,-3.7800000000000002,0.912875,0.3624375,0.10746875,1.19934375,0.87046875,-0.22759375,-0.36909375,1.19475,0.024353687621165434,0.01955602062551054,True
11590,79395,1,79396,2867.0,37470.0,28871.0,0.0006709999999999999,0.0,-0.000244,0.24500000000000002,-1.4525000000000001,-3.8675,0.91971875,0.3625,0.10759375,1.2005625,0.8698750000000001,-0.2208125,-0.3733125,1.17778125,0.024083110341570912,0.019730853161629137,True
11591,79396,1,79397,2868.0,37470.0,28870.0,0.0,0.000366,0.00042699999999999997,0.29750000000000004,-1.3125000000000002,-3.8850000000000002,0.919875,0.36228125,0.1075,1.20334375,0.8728125,-0.216125,-0.3721875,1.1768125,0.0238851694893382,0.01968175815158159,True
11592,79397,1,79398,2869.0,37471.0,28870.0,-0.000305,-0.0006709999999999999,-0.001037,0.385,-1.3650000000000002,-3.7975000000000003,0.91290625,0.36015625,0.11021875,1.2002187500000001,0.87815625,-0.21903125,-0.3740625,1.18175,0.02391456099219493,0.01986871289921407,True
11593,79398,1,79399,2869.0,37470.0,28870.0,-0.000549,0.000183,-0.000366,0.385,-1.3650000000000002,-3.8500000000000005,0.91659375,0.36246875,0.1060625,1.20190625,0.885375,-0.2185625,-0.37290625,1.17965625,0.023991153479897907,0.0196516880296128,True
11594,79399,1,79400,2869.0,37468.0,28871.0,0.000549,0.000793,0.0013419999999999999,0.36750000000000005,-1.2425000000000002,-3.8150000000000004,0.9127500000000001,0.35946875,0.109125,1.20153125,0.8834375,-0.2204375,-0.373625,1.18403125,0.023942847853181848,0.019806245480514285,True
11595,79400,1,79401,2868.0,37465.0,28870.0,0.001647,0.00122,0.0,0.42000000000000004,-1.4000000000000001,-3.8150000000000004,0.9148125,0.36284375,0.10921875,1.2,0.8813125,-0.216875,-0.3771875,1.17840625,0.023938627506645677,0.019953337520991706,True
11596,79401,1,79402,2868.0,37464.0,28870.0,0.002074,0.001464,-0.0011589999999999999,0.29750000000000004,-1.4000000000000001,-3.7625,0.9125,0.36103125,0.10946875,1.2018125,0.8838125,-0.2185,-0.37425,1.1846875000000001,0.023929279269979564,0.01984548242510026,True
11597,79402,1,79403,2867.0,37461.0,28867.0,0.000183,-0.000183,-0.00042699999999999997,0.385,-1.1900000000000002,-3.7450000000000006,0.91215625,0.368625,0.10956250000000001,1.19996875,0.88184375,-0.21721875000000002,-0.37521875,1.179125,0.024191206927921892,0.01988828305387003,True
11598,79403,1,79404,2866.0,37463.0,28867.0,-0.0028669999999999998,-0.002074,0.000732,0.42000000000000004,-1.1375000000000002,-3.7975000000000003,0.91540625,0.36012500000000003,0.1089375,1.2065000000000001,0.8891875,-0.21753125,-0.374125,1.17684375,0.023852813238343606,0.01981866015703128,True
11599,79404,1,79405,2870.0,37463.0,28868.0,-0.002013,0.000305,0.000244,0.35000000000000003,-1.2600000000000002,-3.7450000000000006,0.91240625,0.3615,0.11171875,1.2009375,0.8805937500000001,-0.22053125,-0.37393750000000003,1.1785,0.024030490660686892,0.0199252275099171,True
11600,79405,1,79406,2870.0,37465.0,28870.0,0.001464,0.001403,0.0,0.36750000000000005,-1.3475000000000001,-3.7100000000000004,0.9200625,0.36275,0.1060625,1.2009375,0.8880625,-0.21834375,-0.37625000000000003,1.17921875,0.023993950866272595,0.019786164812060924,True
11601,79406,1,79407,2869.0,37465.0,28870.0,0.000793,0.000183,-0.00061,0.35000000000000003,-1.4175000000000002,-3.7625,0.91325,0.36362500000000003,0.10771875,1.19853125,0.8845937500000001,-0.21771875000000002,-0.37559375,1.18246875,0.024004893111577656,0.019827722145229796,True
11602,79407,1,79408,2870.0,37465.0,28869.0,0.0011589999999999999,-0.00042699999999999997,-0.001952,0.42000000000000004,-1.435,-3.7975000000000003,0.91015625,0.354375,0.11140625,1.1959375,0.88171875,-0.22021875,-0.3746875,1.17815625,0.02372372256134144,0.019942563366197003,True
11603,79408,1,79409,2869.0,37466.0,28869.0,0.000793,-0.000732,-0.000244,0.47250000000000003,-1.54,-3.7800000000000002,0.9295,0.3648125,0.11140625,1.21359375,0.8894375,-0.213125,-0.37493750000000003,1.18628125,0.02386876952066286,0.01995261526311606,True
11604,79409,1,79410,2871.0,37466.0,28871.0,0.001647,0.0018909999999999999,0.00122,0.525,-1.3475000000000001,-3.8500000000000005,0.9118125,0.36346875,0.10140625,1.20940625,0.882875,-0.21421875,-0.3775625,1.18409375,0.023857366862187118,0.019647934447917015,True
11605,79410,1,79411,2870.0,37467.0,28870.0,0.001098,0.000732,0.0008539999999999999,0.5950000000000001,-1.12,-3.7800000000000002,0.90578125,0.35375,0.11131250000000001,1.2131875,0.8810625,-0.2206875,-0.37490625,1.18396875,0.023716812332432762,0.01994751261863828,True
11606,79411,1,79412,2872.0,37466.0,28871.0,-0.0006709999999999999,0.0011589999999999999,-0.0006709999999999999,0.49000000000000005,-0.8575,-3.7450000000000006,0.90778125,0.36125,0.10484375,1.1958125,0.88025,-0.218625,-0.37715625,1.1709687500000001,0.023943349385029084,0.01977260985887146,True
11607,79412,1,79413,2873.0,37469.0,28874.0,-0.001952,0.001586,-0.000549,0.4025,-0.665,-3.7800000000000002,0.9072187500000001,0.35675,0.11446875000000001,1.19575,0.881625,-0.21937500000000001,-0.3746875,1.1781875,0.023787773218755647,0.02006820600264106,True
11608,79413,1,79414,2872.0,37472.0,28874.0,-0.001952,0.001281,-0.0015249999999999999,0.5075000000000001,-0.665,-3.8850000000000002,0.92528125,0.36412500000000003,0.10553125000000001,1.2154375,0.8896875,-0.2184375,-0.3775,1.18440625,0.024054503929082958,0.01981463439647216,True
11609,79414,1,79415,2873.0,37472.0,28874.0,-0.001586,-0.0015249999999999999,0.00061,0.4025,-0.6825000000000001,-3.6225000000000005,0.90734375,0.372375,0.10175000000000001,1.18653125,0.88165625,-0.21884375,-0.37796875,1.1791875,0.02441151840702552,0.019678372505912742,True
11610,79415,1,79416,2873.0,37471.0,28877.0,-0.0026839999999999998,-0.003172,0.0006709999999999999,0.31500000000000006,-0.7175,-3.7800000000000002,0.9168437500000001,0.35946875,0.1135625,1.200875,0.8765937500000001,-0.2225,-0.37421875,1.1832500000000001,0.024025957271132214,0.02001217987756018,True
11611,79416,1,79417,2874.0,37472.0,28874.0,-0.002196,-0.0025009999999999998,0.0008539999999999999,0.4025,-0.7350000000000001,-3.8150000000000004,0.92509375,0.368125,0.10690625000000001,1.208375,0.88928125,-0.21778125,-0.37475,1.183875,0.02419322579354787,0.01976045908163161,True
11612,79417,1,79418,2873.0,37469.0,28873.0,-0.000732,-0.000183,0.0008539999999999999,0.45500000000000007,-1.0150000000000001,-3.8325000000000005,0.906375,0.35634375,0.10646875,1.1945625,0.88175,-0.2205,-0.3765625,1.1792500000000001,0.023816343593237133,0.01981539644894558,True
11613,79418,1,79419,2874.0,37469.0,28874.0,-0.000976,0.00061,0.000244,0.4025,-1.2950000000000002,-3.7975000000000003,0.9087500000000001,0.35934375,0.1120625,1.2011875,0.881625,-0.22059375,-0.37459375,1.18475,0.023943983619311562,0.019965717377340906,True
11614,79419,1,79420,2872.0,37467.0,28873.0,0.001769,0.002257,-0.000183,0.4025,-1.6800000000000002,-3.9025000000000003,0.91690625,0.3630625,0.10775,1.2001875,0.8766875000000001,-0.218625,-0.37596875,1.17815625,0.024018188480972806,0.019844083119773447,True
11615,79420,1,79421,2872.0,37464.0,28870.0,0.002379,0.000793,0.000122,0.45500000000000007,-1.7325000000000002,-3.9375000000000004,0.91315625,0.3644375,0.10953125,1.207375,0.8866875000000001,-0.217875,-0.37496875,1.17884375,0.024044739680917505,0.019876948560190462,True
11616,79421,1,79422,2869.0,37465.0,28870.0,0.002562,0.00183,0.000488,0.4025,-1.8200000000000003,-3.9375000000000004,0.9131875,0.36171875000000003,0.106625,1.1916875,0.88203125,-0.21890625,-0.37543750000000004,1.16840625,0.023974038877168535,0.019776568112880026,True
11617,79422,1,79423,2870.0,37460.0,28870.0,0.000122,0.0008539999999999999,0.000305,0.35000000000000003,-1.8550000000000002,-4.0075,0.90771875,0.359875,0.10978125,1.2056875,0.88878125,-0.21784375,-0.374625,1.184375,0.023855086190321964,0.01987338266742565,True
11618,79423,1,79424,2868.0,37460.0,28866.0,0.0,0.001403,0.000122,0.31500000000000006,-1.61,-4.0075,0.9131875,0.36040625,0.11165625,1.20015625,0.8813125,-0.22259375,-0.3730625,1.1796875,0.024068438170458104,0.019887478235449486,True
11619,79424,1,79425,2868.0,37457.0,28866.0,-0.000305,-0.000793,0.000305,0.35000000000000003,-1.4175000000000002,-4.0075,0.9193125,0.36034375,0.109875,1.200125,0.8894375,-0.21840625,-0.375125,1.1832500000000001,0.023897113378383433,0.01989733385982636,True
11620,79425,1,79426,2865.0,37456.0,28865.0,-0.0006709999999999999,-0.001037,-0.0008539999999999999,0.3325,-1.4700000000000002,-4.0075,0.92028125,0.36190625,0.10815625,1.199625,0.88184375,-0.2190625,-0.376875,1.18440625,0.023988077573192605,0.01989718739584135,True
11621,79426,1,79427,2863.0,37454.0,28865.0,-0.002074,-0.000488,0.00042699999999999997,0.36750000000000005,-1.5050000000000001,-3.9725000000000006,0.9125625,0.36121875000000003,0.108875,1.20575,0.88153125,-0.2190625,-0.3771875,1.1785,0.02395969084269881,0.019939236222390296,True
11622,79427,1,79428,2864.0,37451.0,28864.0,-0.0018909999999999999,-0.0008539999999999999,0.000244,0.36750000000000005,-1.5050000000000001,-3.99,0.91296875,0.3606875,0.10903125,1.204875,0.8819375,-0.22071875,-0.3763125,1.17965625,0.024004500279332132,0.019910466359503717,True
11623,79428,1,79429,2859.0,37447.0,28862.0,-0.0017079999999999999,-0.001098,0.000549,0.28,-1.6450000000000002,-3.8850000000000002,0.9040312500000001,0.361,0.1076875,1.19690625,0.881875,-0.22134375,-0.3741875,1.1786875,0.024042586406875132,0.019769889765556287,True
11624,79429,1,79430,2860.0,37444.0,28863.0,0.000976,-0.000244,-0.000366,0.22750000000000004,-2.0650000000000004,-3.9375000000000004,0.912625,0.35765625,0.11059375,1.19996875,0.88684375,-0.22153125,-0.37390625,1.1705,0.02391209267580884,0.01987781503016161,True
11625,79430,1,79431,2859.0,37442.0,28861.0,0.001769,0.000976,0.000915,0.21000000000000002,-2.0475000000000003,-3.8675,0.91859375,0.36375,0.109625,1.2055,0.888,-0.2191875,-0.3745625,1.18378125,0.024069242620133314,0.019864459105676257,True
11626,79431,1,79432,2856.0,37440.0,28859.0,0.002623,0.00042699999999999997,-0.000732,0.2625,-2.0650000000000004,-3.9550000000000005,0.92115625,0.36125,0.1089375,1.2075625,0.88146875,-0.21865625,-0.37596875,1.18384375,0.02394460881784059,0.019892799132342178,True
11627,79432,1,79433,2856.0,37442.0,28860.0,0.000976,-0.000732,-0.0006709999999999999,0.28,-2.1175,-3.8850000000000002,0.91959375,0.36125,0.1093125,1.19871875,0.883,-0.21887500000000001,-0.37496875,1.18421875,0.023953424756517384,0.019867974189710497,True
11628,79433,1,79434,2856.0,37439.0,28858.0,0.0,-0.000976,-0.001037,0.24500000000000002,-2.1,-3.7450000000000006,0.90990625,0.35881250000000003,0.11031250000000001,1.19940625,0.8894375,-0.21859375,-0.37421875,1.1779375,0.02384144413834928,0.019878842270585593,True
11629,79434,1,79435,2854.0,37437.0,28857.0,0.0006709999999999999,0.001037,0.000366,0.29750000000000004,-2.0650000000000004,-3.9200000000000004,0.9204375,0.35909375,0.10825,1.193,0.8868125,-0.2190625,-0.37465625,1.17984375,0.023871950039354328,0.019811817858969807,True
11630,79435,1,79436,2853.0,37437.0,28856.0,0.000793,-0.000793,0.000976,0.3325,-1.8200000000000003,-3.7975000000000003,0.92040625,0.3606875,0.10965625,1.20175,0.8870625,-0.21903125,-0.3733125,1.18259375,0.023936496221334206,0.01981547440463827,True
11631,79436,1,79437,2855.0,37435.0,28856.0,0.001037,-0.000305,0.000488,0.22750000000000004,-1.7500000000000002,-3.8675,0.917375,0.36062500000000003,0.10871875,1.2045937500000001,0.87690625,-0.21915625,-0.3769375,1.1805,0.023938953282073978,0.019922775369137325,True
11632,79437,1,79438,2854.0,37434.0,28853.0,-0.000976,0.000549,-0.0013419999999999999,0.1925,-1.5925000000000002,-3.9025000000000003,0.91353125,0.35996875,0.10690625000000001,1.2025000000000001,0.8814062500000001,-0.21925,-0.36725,1.1772500000000001,0.023915635290110142,0.019458750987493462,True
11633,79438,1,79439,2854.0,37432.0,28852.0,-0.0006709999999999999,0.000793,0.000793,0.36750000000000005,-1.4525000000000001,-3.9025000000000003,0.91328125,0.3599375,0.1065625,1.1925000000000001,0.88128125,-0.21990625,-0.37540625,1.171125,0.023940792504099803,0.019772747377287302,True
11634,79439,1,79440,2853.0,37433.0,28854.0,-0.0008539999999999999,0.000305,0.00042699999999999997,0.28,-1.4700000000000002,-3.8325000000000005,0.9125625,0.36025,0.10771875,1.2002187500000001,0.88203125,-0.22184375,-0.3748125,1.17990625,0.02403176884501206,0.01979630612543173,True
