frame_seq,absolute_seq_u64,segment_id,sample_seq,PPG_G,PPG_R,PPG_IR,ACC_X,ACC_Y,ACC_Z,GYRO_X,GYRO_Y,GYRO_Z,Uh1,Uh2,Uh3,Uh4,Uc1,Uc2,Uc3,Uc4,UD1,UD2,parser_valid
30132,129628,0,129626,3118.0,42099.0,30798.0,-0.013725,0.0011589999999999999,0.002379,0.525,0.525,-3.6400000000000006,1.06953125,0.2010625,0.05409375,1.3157812500000001,1.03,-0.2758125,-0.490375,1.279625,0.019644038690775027,0.022231948265389975,True
30133,129629,0,129627,3111.0,42092.0,30791.0,-0.0048189999999999995,0.00793,-0.003904,0.3325,-1.8725000000000003,-3.8850000000000002,1.06878125,0.2088125,0.0544375,1.31459375,1.02615625,-0.2721875,-0.4898125,1.2774375,0.019816920086003786,0.022223526619487184,True
30134,129630,0,129628,3107.0,42092.0,30789.0,0.008662,0.0068319999999999995,-0.00488,0.12250000000000001,-4.0600000000000005,-3.9375000000000004,1.0694062500000001,0.2023125,0.0533125,1.3038125,1.027625,-0.27275,-0.4881875,1.27784375,0.019571844970182613,0.02211270229779154,True
30135,129631,0,129629,3107.0,42090.0,30785.0,0.021655,0.00183,-0.003721,-0.15750000000000003,-5.617500000000001,-3.8500000000000005,1.06928125,0.203,0.05353125,1.31640625,1.02403125,-0.2726875,-0.4899375,1.2831875,0.019597644471795718,0.02219151233031934,True
30136,129632,0,129630,3103.0,42089.0,30785.0,0.029402,-0.0006709999999999999,-0.011346,-0.21000000000000002,-5.95,-4.0075,1.06884375,0.2030625,0.055718750000000004,1.31021875,1.02478125,-0.27590625,-0.48903125000000003,1.28309375,0.01973021089583422,0.02224465289944861,True
30137,129633,0,129631,3102.0,42089.0,30783.0,0.017506999999999998,0.000732,-0.011346,-0.07,-4.4975000000000005,-3.9725000000000006,1.0644375,0.20234375000000002,0.05121875,1.314625,1.0247187500000001,-0.272375,-0.4898125,1.2831875,0.019557985158024295,0.02209209441681107,True
30138,129634,0,129632,3100.0,42089.0,30783.0,0.001281,0.0,-0.0018909999999999999,0.15750000000000003,-2.45,-3.9725000000000006,1.05375,0.19996875,0.054906250000000004,1.31834375,1.01765625,-0.2768125,-0.49212500000000003,1.28603125,0.019639367812393,0.02233498522484268,True
30139,129635,0,129633,3101.0,42088.0,30781.0,-0.009089,-0.002379,0.006588,0.29750000000000004,-0.29750000000000004,-3.8675,1.06834375,0.20521875,0.0625,1.30875,1.02296875,-0.276,-0.49009375,1.28128125,0.01982281883341572,0.022563970380881045,True
30140,129636,0,129634,3101.0,42089.0,30782.0,-0.014457,-0.0048189999999999995,0.008235,0.385,1.1375000000000002,-3.6925000000000003,1.06703125,0.19528125000000002,0.051562500000000004,1.31734375,1.023625,-0.27209375,-0.489375,1.2829375,0.01925565238886736,0.0220886608988592,True
30141,129637,0,129635,3099.0,42091.0,30780.0,-0.021289,0.000122,0.00244,0.6125,1.5750000000000002,-3.6925000000000003,1.05878125,0.20703125,0.05834375,1.306375,1.03025,-0.27596875,-0.49125,1.2798125,0.01989621938362398,0.02244041239218088,True
30142,129638,0,129636,3100.0,42089.0,30781.0,-0.018971,0.001586,0.002379,0.5775,0.5425000000000001,-3.6575,1.0617812500000001,0.19790625,0.0528125,1.3063125,1.02296875,-0.271625,-0.49065625,1.27703125,0.019344862571006267,0.02219086105542803,True
30143,129639,0,129637,3099.0,42087.0,30781.0,-0.0062829999999999995,0.001281,0.0048189999999999995,0.45500000000000007,-0.8925000000000001,-3.6575,1.058,0.2001875,0.0531875,1.3215625,1.0313125,-0.27171875,-0.49021875000000004,1.28175,0.019442638358686485,0.02218870543979931,True
30144,129640,0,129638,3099.0,42084.0,30780.0,0.0060999999999999995,0.000549,0.0025009999999999998,0.29750000000000004,-2.4325,-3.6575,1.06540625,0.20825,0.06275,1.30609375,1.03028125,-0.27375,-0.49212500000000003,1.28528125,0.01985684123796282,0.022655241225495948,True
30145,129641,0,129639,3100.0,42085.0,30782.0,0.014029999999999999,0.0,-0.004209,0.08750000000000001,-3.8325000000000005,-3.6925000000000003,1.059375,0.20103125,0.0485625,1.32775,1.02346875,-0.27184375,-0.4901875,1.27875,0.019482450730591905,0.021998606584780128,True
30146,129642,0,129640,3099.0,42087.0,30781.0,0.015433,0.003904,-0.0068319999999999995,0.07,-4.2175,-3.9025000000000003,1.0540625000000001,0.20575000000000002,0.0573125,1.31484375,1.03128125,-0.27371875,-0.4885,1.279625,0.01975258735334898,0.02228852318435184,True
30147,129643,0,129641,3101.0,42087.0,30781.0,0.010797,0.0008539999999999999,-0.000976,0.17500000000000002,-3.3600000000000003,-3.9025000000000003,1.07728125,0.200125,0.05865625,1.3076875000000001,1.016375,-0.2725,-0.4923125,1.281375,0.019471624266144814,0.02249557896993189,True
30148,129644,0,129642,3101.0,42090.0,30781.0,0.004026,-0.00244,0.000976,0.29750000000000004,-2.1700000000000004,-3.9025000000000003,1.07734375,0.19828125,0.0578125,1.3059687500000001,1.0233125,-0.272375,-0.493875,1.27675,0.01939061381508814,0.02252348801486086,True
30149,129645,0,129643,3103.0,42091.0,30782.0,-0.005307,-0.001952,0.00061,0.385,-1.1025,-3.8850000000000002,1.05965625,0.202125,0.0585,1.31434375,1.02484375,-0.27015625,-0.49096875,1.28515625,0.01945934114041808,0.02243556617171381,True
30150,129646,0,129644,3102.0,42093.0,30785.0,-0.012261,0.000244,0.00244,0.56,-0.24500000000000002,-3.7975000000000003,1.06725,0.20209375000000002,0.055093750000000004,1.314,1.0261875,-0.27671875,-0.48840625,1.2824375000000001,0.01972311435209917,0.022194176070564002,True
30151,129647,0,129645,3102.0,42092.0,30785.0,-0.009577,-0.002196,0.0030499999999999998,0.4025,-0.15750000000000003,-3.6050000000000004,1.06984375,0.20315625,0.05396875,1.31334375,1.024,-0.272875,-0.489875,1.2789062500000001,0.019611654985245877,0.02220688141527876,True
30152,129648,0,129646,3104.0,42092.0,30787.0,-0.00488,-0.002745,0.001464,0.385,-0.8400000000000001,-3.5875000000000004,1.07003125,0.2005625,0.05240625,1.314625,1.02346875,-0.2731875,-0.49059375,1.278,0.019517420198727507,0.022171777685055107,True
30153,129649,0,129647,3104.0,42092.0,30786.0,0.000976,-0.000549,-0.0017079999999999999,0.31500000000000006,-1.6450000000000002,-3.6050000000000004,1.07375,0.20190625,0.0528125,1.31184375,1.02365625,-0.27590625,-0.49328125,1.28646875,0.019682581366040664,0.022295655058466292,True
30154,129650,0,129648,3105.0,42093.0,30788.0,0.005246,0.0017079999999999999,-0.00366,0.21000000000000002,-2.4850000000000003,-3.7275000000000005,1.065125,0.203625,0.05603125,1.3111875,1.0236875,-0.2679375,-0.48925,1.2758125,0.019431502986193203,0.022266147391202265,True
30155,129651,0,129649,3105.0,42091.0,30789.0,0.01281,0.00042699999999999997,-0.001769,0.15750000000000003,-2.9575000000000005,-3.7975000000000003,1.0658750000000001,0.20125,0.0528125,1.3143125,1.017625,-0.2726875,-0.48515625,1.2739375,0.01952554697538128,0.02197121980791934,True
30156,129652,0,129650,3105.0,42095.0,30790.0,0.008723,0.000549,-0.0028669999999999998,0.4025,-2.5025000000000004,-3.7975000000000003,1.06884375,0.201875,0.0533125,1.31565625,1.02359375,-0.27140625,-0.49062500000000003,1.2825625,0.019499539710436022,0.022210029347964785,True
30157,129653,0,129651,3106.0,42093.0,30790.0,0.0032329999999999998,0.0006709999999999999,-0.001647,0.5075000000000001,-1.715,-3.8675,1.07109375,0.20321875,0.055406250000000004,1.30465625,1.0293125,-0.2735625,-0.489875,1.28,0.01964199733763843,0.022265579142400686,True
30158,129654,0,129652,3107.0,42095.0,30793.0,-0.003172,0.0025009999999999998,0.000488,0.5950000000000001,-0.7525000000000001,-3.8850000000000002,1.06684375,0.200375,0.05234375,1.3109375,1.01840625,-0.26921875,-0.48628125,1.28646875,0.019349355858436935,0.021997011081460155,True
30159,129655,0,129653,3106.0,42095.0,30791.0,-0.0077469999999999995,0.0006709999999999999,0.0042699999999999995,0.7000000000000001,0.035,-3.6750000000000003,1.06390625,0.20384375000000002,0.055343750000000004,1.311125,1.015125,-0.271625,-0.48959375,1.2793125,0.019589489784882553,0.022251798276563897,True
30160,129656,0,129654,3108.0,42093.0,30791.0,-0.009637999999999999,-0.001281,0.001586,0.665,0.3325,-3.6050000000000004,1.0705,0.20234375000000002,0.05684375,1.311375,1.02340625,-0.275,-0.48859375,1.2866250000000001,0.019664006179196707,0.02227312460520523,True
30161,129657,0,129655,3108.0,42095.0,30793.0,-0.008418,-0.000915,-0.000183,0.6475000000000001,-0.10500000000000001,-3.535,1.06465625,0.20403125,0.05721875,1.312375,1.02628125,-0.271625,-0.49,1.26834375,0.019597214854794435,0.022344579420171498,True
30162,129658,0,129656,3108.0,42096.0,30793.0,-0.003172,-0.000183,-0.000122,0.5425000000000001,-0.8575,-3.5700000000000003,1.06171875,0.204375,0.057,1.313375,1.02359375,-0.27115625,-0.48865625,1.2876875,0.019592443190669995,0.02228200046705299,True
30163,129659,0,129657,3108.0,42096.0,30794.0,0.002562,-0.0006709999999999999,0.000366,0.49000000000000005,-1.6450000000000002,-3.5700000000000003,1.07246875,0.200875,0.054843750000000004,1.31915625,1.03028125,-0.27378125000000003,-0.49234375,1.283875,0.019554277313098882,0.022341165287621773,True
30164,129660,0,129658,3108.0,42093.0,30794.0,0.005429,-0.00042699999999999997,-0.0011589999999999999,0.43750000000000006,-2.3625000000000003,-3.5525,1.069625,0.20234375000000002,0.0545,1.3179687500000001,1.03046875,-0.27540625,-0.49271875,1.2860625,0.019680412145522796,0.022342099118743197,True
30165,129661,0,129659,3108.0,42095.0,30794.0,0.006344,0.001769,-0.0018909999999999999,0.5425000000000001,-2.8175000000000003,-3.5875000000000004,1.07075,0.201375,0.0558125,1.31134375,1.026375,-0.27525,-0.49262500000000004,1.28675,0.019634195322396266,0.0223919445139098,True
30166,129662,0,129660,3108.0,42093.0,30794.0,0.007808,0.000305,-0.001647,0.47250000000000003,-2.5200000000000005,-3.6575,1.06346875,0.202875,0.0570625,1.311,1.01728125,-0.27234375,-0.49021875000000004,1.279875,0.019578609914833626,0.022346931874587687,True
30167,129663,0,129661,3110.0,42096.0,30793.0,0.0066489999999999995,-0.0015249999999999999,6.1e-05,0.43750000000000006,-1.8900000000000001,-3.6750000000000003,1.06584375,0.20350000000000001,0.05621875,1.3111875,1.02309375,-0.272,-0.49021875000000004,1.27996875,0.019590474620962427,0.022312479344432153,True
30168,129664,0,129662,3111.0,42093.0,30793.0,0.000976,-0.000976,-0.001281,0.665,-1.225,-3.7275000000000005,1.06425,0.20153125,0.0529375,1.31525,1.020875,-0.2724375,-0.489875,1.2795625,0.019527035552156638,0.022164772176256516,True
30169,129665,0,129663,3111.0,42095.0,30797.0,-0.0050019999999999995,0.000488,0.0,0.6475000000000001,-0.5075000000000001,-3.6225000000000005,1.064625,0.20403125,0.0559375,1.3114375,1.02303125,-0.273,-0.48971875000000004,1.28009375,0.01965275202900342,0.022281033750132392,True
30170,129666,0,129664,3112.0,42098.0,30797.0,-0.007442,0.000488,0.002928,0.6125,0.14,-3.6225000000000005,1.06459375,0.20446875,0.0555,1.31121875,1.02396875,-0.2723125,-0.49015625,1.2789375,0.01964300888100382,0.022280635714604723,True
30171,129667,0,129665,3112.0,42098.0,30796.0,-0.0068319999999999995,-0.000366,0.004209,0.5950000000000001,-0.08750000000000001,-3.5525,1.0651875,0.2039375,0.0558125,1.31209375,1.02284375,-0.27187500000000003,-0.49040625,1.27965625,0.019603450495686882,0.02230337644970671,True
30172,129668,0,129666,3113.0,42096.0,30797.0,-0.003965,-0.00042699999999999997,0.0026839999999999998,0.5075000000000001,-0.6825000000000001,-3.5700000000000003,1.0646875,0.201375,0.055,1.31371875,1.02284375,-0.27275,-0.4928125,1.28703125,0.019533221410841378,0.0223662554065606,True
30173,129669,0,129667,3113.0,42096.0,30799.0,0.00042699999999999997,0.0006709999999999999,-0.001586,0.525,-1.2950000000000002,-3.5875000000000004,1.06884375,0.20159375000000002,0.05321875,1.318125,1.03575,-0.276875,-0.49425,1.28865625,0.019708827845429034,0.022350908886779552,True
30174,129670,0,129668,3114.0,42094.0,30797.0,0.004575,0.000488,-0.001769,0.47250000000000003,-1.6625,-3.6400000000000006,1.07315625,0.199625,0.05734375,1.31028125,1.0313125,-0.27718750000000003,-0.4950625,1.2876875,0.019640351667589172,0.022551738743267137,True
30175,129671,0,129669,3115.0,42096.0,30798.0,0.006222,-0.001037,-0.003294,0.385,-1.9425000000000001,-3.6225000000000005,1.06565625,0.2046875,0.0545625,1.30575,1.031,-0.2716875,-0.48796875,1.27846875,0.019626777083381616,0.0221550123466243,True
30176,129672,0,129670,3115.0,42097.0,30799.0,0.003965,0.000183,0.000366,0.45500000000000007,-1.7675,-3.6575,1.07184375,0.18959375,0.04253125,1.33525,1.02015625,-0.27221875,-0.49053125000000003,1.277125,0.01902638175589119,0.021766065201219348,True
30177,129673,0,129671,3115.0,42097.0,30799.0,0.001098,0.000244,0.000366,0.5775,-1.3825,-3.7100000000000004,1.08571875,0.19503125000000002,0.051187500000000004,1.329375,1.01975,-0.27346875,-0.49140625,1.27821875,0.019300908527958124,0.02215445468754984,True
30178,129674,0,129672,3116.0,42098.0,30801.0,-0.0008539999999999999,0.0,-0.000915,0.49000000000000005,-0.9975,-3.7800000000000002,1.08284375,0.19546875,0.06075,1.301,1.01365625,-0.27371875,-0.48809375,1.28584375,0.019329032557073685,0.02241267758949183,True
30179,129675,0,129673,3119.0,42096.0,30798.0,-0.0042699999999999995,6.1e-05,0.001403,0.5425000000000001,-0.5950000000000001,-3.7100000000000004,1.05171875,0.20590625,0.06,1.30909375,1.02903125,-0.27109375,-0.48896875,1.27590625,0.019653008014935466,0.022416981115221522,True
30180,129676,0,129674,3116.0,42097.0,30801.0,-0.0064659999999999995,0.000244,0.0025009999999999998,0.45500000000000007,-0.7350000000000001,-3.6400000000000006,1.0589375,0.20275,0.05071875,1.32365625,1.0094375,-0.2713125,-0.48890625,1.27684375,0.019531803234785924,0.02203548800796279,True
30181,129677,0,129675,3119.0,42096.0,30803.0,-0.005307,6.1e-05,0.004392,0.45500000000000007,-1.1900000000000002,-3.6050000000000004,1.08775,0.201125,0.04971875,1.329375,1.0209062500000001,-0.27221875,-0.491,1.27675,0.019501461933717948,0.022078263443714018,True
30182,129678,0,129676,3119.0,42097.0,30800.0,-0.00549,0.001769,-0.001403,0.28,-2.3800000000000003,-3.5000000000000004,1.08553125,0.19768750000000002,0.0530625,1.31503125,1.0211875,-0.27468750000000003,-0.49175,1.28675,0.019459570797770314,0.022244735472148787,True
30183,129679,0,129677,3118.0,42096.0,30801.0,0.009455,-0.00244,-0.006527,0.22750000000000004,-3.2025,-3.3075,1.08415625,0.199875,0.059625000000000004,1.2975,1.028375,-0.27678125,-0.4918125,1.2801875,0.019634244140169944,0.022515177265872013,True
30184,129680,0,129678,3118.0,42096.0,30801.0,0.012444,-0.0017079999999999999,-0.00183,0.4025,-2.6950000000000003,-3.3775000000000004,1.05246875,0.20790625000000001,0.06290625,1.3015625,1.029125,-0.274875,-0.49343750000000003,1.28753125,0.0198881044701569,0.022713992268337185,True
30185,129681,0,129679,3119.0,42097.0,30803.0,-0.0021349999999999997,0.0015249999999999999,-6.1e-05,0.24500000000000002,-2.1875,-3.7450000000000006,1.066125,0.19878125,0.053,1.31090625,1.0313125,-0.27175,-0.4948125,1.2861875,0.01938596310525611,0.022364429203122094,True
30186,129682,0,129680,3121.0,42095.0,30803.0,0.000732,0.000366,0.0015249999999999999,0.29750000000000004,-1.9775000000000003,-3.8150000000000004,1.05921875,0.2040625,0.061375,1.30475,1.03078125,-0.2744375,-0.49343750000000003,1.28040625,0.019712094255531155,0.02265147552278034,True
30187,129683,0,129681,3120.0,42096.0,30805.0,0.002989,0.000488,-0.001037,0.35000000000000003,-1.715,-3.6750000000000003,1.05553125,0.2054375,0.05784375,1.3095937500000001,1.02215625,-0.26959375,-0.4900625,1.28046875,0.01957310266060799,0.022372595006648104,True
30188,129684,0,129682,3122.0,42099.0,30805.0,-0.000793,-0.000976,0.000244,0.47250000000000003,-1.3125000000000002,-3.7625,1.06540625,0.203625,0.0538125,1.31628125,1.02328125,-0.27025,-0.49159375,1.28446875,0.019524932788084176,0.02226912039972899,True
30189,129685,0,129683,3122.0,42097.0,30807.0,-0.002928,-0.001281,0.002562,0.45500000000000007,-1.0325000000000002,-3.7800000000000002,1.0714375,0.20234375000000002,0.05240625,1.31875,1.0309375,-0.27603125,-0.493,1.2860625,0.019705651021519426,0.022267841832360268,True
30190,129686,0,129684,3123.0,42102.0,30807.0,-0.0030499999999999998,0.00061,0.000488,0.4025,-1.05,-3.8150000000000004,1.06984375,0.2039375,0.05271875,1.31675,1.030125,-0.27346875,-0.49328125,1.286,0.019667821476895428,0.022291827478198745,True
30191,129687,0,129685,3123.0,42100.0,30808.0,-0.002989,-0.000549,-0.000183,0.42000000000000004,-1.3125000000000002,-3.8500000000000005,1.0674375,0.2016875,0.05421875,1.31128125,1.02903125,-0.275625,-0.49259375,1.2831875,0.01966221261038593,0.02232562649678538,True
30192,129688,0,129686,3124.0,42100.0,30808.0,-0.000549,0.000122,-0.000244,0.36750000000000005,-1.6625,-3.9025000000000003,1.06409375,0.20446875,0.05709375,1.31134375,1.02309375,-0.2719375,-0.49090625,1.27246875,0.01962786242342623,0.02237565218722766,True
30193,129689,0,129687,3122.0,42099.0,30810.0,0.001403,-0.000122,-0.000183,0.24500000000000002,-1.7675,-3.7275000000000005,1.06440625,0.20409375,0.05684375,1.3121875,1.0241875,-0.272125,-0.49040625,1.27975,0.019619985889162982,0.022345484775288284,True
30194,129690,0,129688,3125.0,42102.0,30810.0,0.003294,-0.0006709999999999999,-0.0006709999999999999,0.1925,-2.0300000000000002,-3.6575,1.06621875,0.2041875,0.0565,1.3111875,1.02359375,-0.273,-0.49053125000000003,1.2750000000000001,0.019659189222593004,0.02233643870016091,True
30195,129691,0,129689,3125.0,42102.0,30809.0,0.00244,6.1e-05,-0.001464,0.3325,-2.0825,-3.7975000000000003,1.06496875,0.20315625,0.055843750000000004,1.30171875,1.02328125,-0.27371875,-0.49153125000000003,1.28084375,0.019645733103832722,0.022349562157327342,True
30196,129692,0,129690,3125.0,42103.0,30811.0,0.0025009999999999998,0.000183,0.000488,0.385,-1.8200000000000003,-3.7800000000000002,1.07065625,0.20075,0.05303125,1.3129375,1.0276875,-0.27490625,-0.49265625,1.2809062500000001,0.019594565890444993,0.022279637391309896,True
30197,129693,0,129691,3126.0,42102.0,30809.0,-0.000183,0.000183,0.000305,0.49000000000000005,-1.61,-3.8325000000000005,1.060875,0.20040625,0.05378125,1.319125,1.0176875,-0.27021875,-0.49265625,1.2840625,0.019391048957892065,0.022310258814823323,True
30198,129694,0,129692,3128.0,42106.0,30812.0,-0.0008539999999999999,0.000488,0.00042699999999999997,0.6125,-1.2775,-3.9200000000000004,1.0704375,0.2016875,0.055375,1.312875,1.02896875,-0.26987500000000003,-0.49196875,1.27896875,0.019429951740583748,0.022347886998671757,True
30199,129695,0,129693,3128.0,42103.0,30812.0,-0.0040869999999999995,0.001769,0.0028669999999999998,0.56,-1.0675000000000001,-3.9200000000000004,1.072,0.20009375000000001,0.055125,1.311,1.0298125,-0.27528125000000003,-0.49275,1.27965625,0.019582677337672456,0.02236886425574915,True
30200,129696,0,129694,3129.0,42101.0,30812.0,-0.004392,-0.001403,-0.000366,0.3325,-1.3825,-3.7800000000000002,1.0645,0.20346875,0.056375,1.31134375,1.02378125,-0.27275,-0.49175,1.28003125,0.01961948069337014,0.022379985097022465,True
30201,129697,0,129695,3128.0,42102.0,30813.0,6.1e-05,-0.001464,-0.000732,0.29750000000000004,-1.8550000000000002,-3.6575,1.06534375,0.2034375,0.0563125,1.31109375,1.0226875,-0.27278125000000003,-0.490875,1.279125,0.01961945543426343,0.022342505116701633,True
30202,129698,0,129696,3128.0,42102.0,30810.0,0.001586,0.001098,-0.000122,0.15750000000000003,-2.31,-3.8325000000000005,1.0645625,0.202875,0.055281250000000004,1.3168125,1.023125,-0.27290625,-0.491,1.28021875,0.019601330186820958,0.022305387693438407,True
30203,129699,0,129697,3130.0,42102.0,30814.0,0.0015249999999999999,0.000122,0.00042699999999999997,0.15750000000000003,-2.5900000000000003,-3.8150000000000004,1.0690625,0.2015,0.056,1.3115625,1.01925,-0.27471875,-0.49262500000000004,1.283,0.019617889496659977,0.02239959987955558,True
30204,129700,0,129698,3131.0,42101.0,30815.0,0.004148,0.000244,-0.000915,0.052500000000000005,-2.87,-3.7975000000000003,1.061125,0.2036875,0.05625,1.3108125,1.02325,-0.27196875,-0.49096875,1.2805625,0.019596937310658,0.022343695571454273,True
30205,129701,0,129699,3130.0,42102.0,30814.0,0.008052,-0.000122,-0.002562,0.07,-2.4850000000000003,-3.8325000000000005,1.062,0.20146875,0.0568125,1.31221875,1.02728125,-0.27175,-0.49284375,1.2723125,0.019496688537085295,0.02244150395970252,True
30206,129702,0,129700,3132.0,42104.0,30816.0,0.005063,0.00042699999999999997,-0.002196,0.22750000000000004,-1.9775000000000003,-3.7450000000000006,1.06490625,0.2035625,0.0551875,1.3118750000000001,1.023125,-0.27234375,-0.48581250000000004,1.280375,0.019606934332412788,0.022094427129996198,True
30207,129703,0,129701,3133.0,42103.0,30817.0,0.0013419999999999999,-0.000549,-0.0015249999999999999,0.31500000000000006,-1.3125000000000002,-3.7800000000000002,1.07171875,0.20540625,0.051625000000000004,1.3139687500000001,1.02734375,-0.2750625,-0.49484375,1.27553125,0.01979268848432419,0.022309542186812276,True
30208,129704,0,129702,3134.0,42104.0,30818.0,-0.003172,0.001952,0.000305,0.4025,-0.5950000000000001,-3.7100000000000004,1.07103125,0.20109375000000002,0.05403125,1.31284375,1.03440625,-0.27534375,-0.4936875,1.2930625,0.01962639560974291,0.022361628889076012,True
30209,129705,0,129703,3134.0,42104.0,30819.0,-0.007503,0.0017079999999999999,0.001464,0.43750000000000006,-0.10500000000000001,-3.7275000000000005,1.07275,0.20134375000000002,0.052625,1.310875,1.039375,-0.27859375000000003,-0.49815625,1.2933125,0.01976792828044252,0.022482559274231095,True
30210,129706,0,129704,3134.0,42106.0,30820.0,-0.005124,-0.0011589999999999999,0.004026,0.5075000000000001,-0.1925,-3.6225000000000005,1.06446875,0.2036875,0.05525,1.3123125,1.02715625,-0.2744375,-0.49196875,1.28309375,0.019696645905801113,0.022342783284826785,True
30211,129707,0,129705,3136.0,42104.0,30818.0,-0.004697,-0.0006709999999999999,0.002257,0.24500000000000002,-0.5425000000000001,-3.4650000000000003,1.06421875,0.2096875,0.056375,1.3114375,1.0260625,-0.273625,-0.49325,1.2761875,0.01991101452708444,0.022439855878660448,True
30212,129708,0,129706,3136.0,42106.0,30820.0,-0.002562,-0.000549,0.00183,0.17500000000000002,-1.0675000000000001,-3.5175000000000005,1.064375,0.20396875,0.05603125,1.31121875,1.0135625,-0.2706875,-0.48803125,1.27503125,0.019556769869003503,0.022217486348560585,True
30213,129709,0,129707,3135.0,42103.0,30819.0,-0.000732,-0.000793,-0.001098,0.12250000000000001,-1.5575,-3.5525,1.06415625,0.20421875,0.059750000000000004,1.31809375,1.01734375,-0.27065625,-0.48696875,1.28703125,0.019565807990873756,0.022326926439190233,True
30214,129710,0,129708,3134.0,42104.0,30817.0,0.002989,-0.002196,-0.002013,0.035,-2.1175,-3.5875000000000004,1.0718125,0.20203125,0.05221875,1.31846875,1.029375,-0.27921875,-0.4975,1.29628125,0.01982147798721901,0.022439789774466784,True
30215,129711,0,129709,3133.0,42101.0,30811.0,0.003172,0.00061,-0.001098,0.15750000000000003,-2.4675000000000002,-3.6575,1.07271875,0.20203125,0.05315625,1.31434375,1.0415625,-0.28015625,-0.49946875,1.29090625,0.019859324422593038,0.02255661155917922,True
30216,129712,0,129710,3129.0,42097.0,30809.0,0.0032329999999999998,0.000793,-0.000793,0.035,-2.2575000000000003,-3.7100000000000004,1.06009375,0.2025625,0.0534375,1.3146875,1.0415625,-0.28025,-0.49843750000000003,1.28775,0.019884988828368737,0.02252694687161171,True
30217,129713,0,129711,3125.0,42097.0,30807.0,0.004514,6.1e-05,0.000366,-0.07,-2.205,-3.8150000000000004,1.0581875,0.202375,0.05603125,1.3114375,1.02734375,-0.2770625,-0.493875,1.27709375,0.01974857954911143,0.02245076575266266,True
30218,129714,0,129712,3122.0,42093.0,30802.0,0.002928,-0.001098,-0.000732,0.14,-2.0650000000000004,-3.9375000000000004,1.0643125,0.20409375,0.054375,1.31853125,1.00796875,-0.27071875,-0.48709375,1.2885312500000001,0.01956318248712762,0.022112413809825836,True
30219,129715,0,129713,3118.0,42093.0,30796.0,-0.004514,0.0034159999999999998,0.0017079999999999999,0.36750000000000005,-1.8025000000000002,-3.9200000000000004,1.07065625,0.20159375000000002,0.055375,1.31146875,1.03690625,-0.28109375000000003,-0.49371875,1.2806250000000001,0.019879149801478774,0.022417737200481243,True
30220,129716,0,129714,3112.0,42090.0,30792.0,-0.003477,0.002196,0.001952,0.10500000000000001,-1.6625,-3.9375000000000004,1.06478125,0.20415625,0.0551875,1.31228125,1.0208125000000001,-0.27153125,-0.49028125,1.26875,0.01959857806663929,0.02227286589450662,True
30221,129717,0,129715,3107.0,42085.0,30787.0,-0.001647,-0.00061,0.000366,0.10500000000000001,-1.7850000000000001,-3.8325000000000005,1.0658750000000001,0.20421875,0.057,1.3118125,1.0184375,-0.27015625,-0.48965625,1.2785,0.019545609641470684,0.02232192417972384,True
30222,129718,0,129716,3102.0,42082.0,30784.0,-0.000244,-0.0021349999999999997,0.0008539999999999999,0.07,-1.9775000000000003,-3.7275000000000005,1.06425,0.20715625000000001,0.05990625,1.31146875,1.0225312500000001,-0.27184375,-0.49053125000000003,1.28009375,0.019734800740055028,0.022475523065674616,True
30223,129719,0,129717,3097.0,42081.0,30779.0,0.000793,-0.000305,-0.0013419999999999999,0.10500000000000001,-2.1700000000000004,-3.8325000000000005,1.0649375,0.20334375000000002,0.0556875,1.3168125,1.02359375,-0.2723125,-0.49162500000000003,1.27990625,0.01959665977438285,0.022346924714060423,True
30224,129720,0,129718,3094.0,42078.0,30777.0,0.002928,-0.001769,-6.1e-05,0.035,-2.4325,-3.7625,1.07025,0.20103125,0.0535,1.3161875,1.0290625,-0.2765625,-0.49125,1.287375,0.019673038553131236,0.02224263767672128,True
30225,129721,0,129719,3091.0,42080.0,30774.0,0.003355,-0.000122,-0.000915,0.12250000000000001,-2.2575000000000003,-3.8150000000000004,1.06921875,0.20550000000000002,0.0564375,1.31046875,1.03084375,-0.27471875,-0.49112500000000003,1.2801875,0.01978266998459045,0.022357588718362267,True
30226,129722,0,129720,3089.0,42077.0,30773.0,0.002623,-0.001281,-0.001037,0.21000000000000002,-2.0475000000000003,-3.8325000000000005,1.06440625,0.20400000000000001,0.0584375,1.30609375,1.02315625,-0.2723125,-0.49128125,1.26778125,0.01962369675324508,0.0224454876161287,True
30227,129723,0,129721,3088.0,42077.0,30771.0,0.0,-0.001464,-0.000305,0.15750000000000003,-1.6800000000000002,-3.7975000000000003,1.06515625,0.20196875,0.0524375,1.31303125,1.0234375,-0.27328125000000003,-0.49396875,1.2871875,0.01957914115958262,0.022307787503811523,True
30228,129724,0,129722,3085.0,42079.0,30772.0,-0.003111,0.0006709999999999999,0.000244,0.24500000000000002,-1.4525000000000001,-3.8500000000000005,1.065,0.2036875,0.0556875,1.3093125,1.025875,-0.27275,-0.4913125,1.27984375,0.019628492857216424,0.022334450225972982,True
30229,129725,0,129723,3083.0,42077.0,30769.0,-0.0025009999999999998,0.000183,0.002745,0.31500000000000006,-1.4700000000000002,-3.9200000000000004,1.06525,0.2038125,0.054718750000000003,1.30478125,1.0234375,-0.27215625,-0.49128125,1.27278125,0.01960966076097998,0.022293647867034316,True
30230,129726,0,129724,3083.0,42075.0,30770.0,0.000488,0.0,0.0008539999999999999,0.24500000000000002,-1.5925000000000002,-3.8500000000000005,1.0644375,0.2059375,0.054625,1.3125625,1.0230000000000001,-0.27325,-0.49140625,1.27990625,0.019741381973983705,0.022294810041787613,True
30231,129727,0,129725,3082.0,42074.0,30769.0,0.000122,-0.000732,0.000244,0.2625,-1.7850000000000001,-3.7975000000000003,1.05140625,0.20340625,0.055843750000000004,1.3113125,1.0231875,-0.2724375,-0.49096875,1.280125,0.019604283665371473,0.02232710782418519,True
30232,129728,0,129726,3082.0,42075.0,30768.0,-0.000549,0.000793,-6.1e-05,0.12250000000000001,-1.9775000000000003,-3.8850000000000002,1.06453125,0.20375000000000001,0.056875,1.308125,1.01978125,-0.272625,-0.49034375,1.28015625,0.019626019023488393,0.022344265788429366,True
30233,129729,0,129727,3082.0,42073.0,30768.0,-0.000549,0.0011589999999999999,-0.002928,0.08750000000000001,-2.205,-3.8325000000000005,1.0638750000000001,0.20496875,0.05675,1.31253125,1.0223125,-0.27246875,-0.489,1.27921875,0.01966991923720161,0.022285515945934906,True
30234,129730,0,129728,3082.0,42075.0,30768.0,0.004331,-0.000366,-0.001098,0.1925,-2.24,-3.7975000000000003,1.068375,0.2006875,0.05078125,1.31446875,1.023125,-0.27240625,-0.492,1.28509375,0.0194910115267208,0.022161573166748324,True
30235,129731,0,129729,3082.0,42076.0,30770.0,0.00244,0.000244,-0.001647,0.17500000000000002,-2.0475000000000003,-3.8850000000000002,1.07546875,0.202,0.0644375,1.309,1.029375,-0.27496875,-0.49112500000000003,1.281125,0.019648583481698612,0.0226842376575188,True
30236,129732,0,129730,3081.0,42074.0,30768.0,0.0021349999999999997,0.000549,-0.000366,0.3325,-1.6975000000000002,-3.7625,1.06290625,0.20471875,0.0565625,1.30909375,1.02221875,-0.27159375,-0.48562500000000003,1.27990625,0.01962427786597244,0.022143094162391203,True
30237,129733,0,129731,3082.0,42076.0,30772.0,0.000793,0.0017079999999999999,0.000122,0.36750000000000005,-1.5575,-3.7800000000000002,1.0621875,0.20446875,0.0575,1.3099375,1.023875,-0.27278125000000003,-0.49040625,1.2786875,0.019661941294840286,0.02237228098247656,True
30238,129734,0,129732,3084.0,42074.0,30769.0,-0.002928,0.002257,0.000244,0.42000000000000004,-1.2950000000000002,-3.8850000000000002,1.0615937500000001,0.20528125,0.0579375,1.30946875,1.02390625,-0.27184375,-0.49062500000000003,1.28021875,0.019657550737158153,0.022398877121347454,True
30239,129735,0,129733,3084.0,42078.0,30771.0,-0.001586,-0.000915,0.00488,0.385,-0.9450000000000001,-3.8150000000000004,1.0621875,0.2040625,0.05796875,1.3110625,1.02296875,-0.272375,-0.4905625,1.279625,0.019628796110804977,0.022397658281633998,True
30240,129736,0,129734,3085.0,42079.0,30775.0,-0.000244,-0.0028669999999999998,0.000122,0.36750000000000005,-1.1025,-3.7625,1.06815625,0.20246875,0.0551875,1.32096875,1.02353125,-0.27334375,-0.4910625,1.2794375,0.019602264315150237,0.02230405479549938,True
30241,129737,0,129735,3084.0,42078.0,30775.0,-0.001281,-0.0051849999999999995,-0.001403,0.35000000000000003,-1.3825,-3.6925000000000003,1.07275,0.19865625,0.0523125,1.31715625,1.024,-0.27459375,-0.4925,1.284125,0.019495691869199666,0.022244054302337453,True
30242,129738,0,129736,3083.0,42076.0,30775.0,-0.0015249999999999999,-0.004026,-0.001403,0.14,-1.5575,-3.6575,1.06890625,0.205625,0.054625,1.3150625,1.0255625,-0.2733125,-0.49271875,1.2828125000000001,0.01973103176585396,0.022347202676305584,True
30243,129739,0,129737,3085.0,42079.0,30773.0,0.000244,-0.000976,-0.0021349999999999997,0.1925,-1.6275000000000002,-3.7100000000000004,1.0706875,0.20015625,0.0551875,1.31625,1.02634375,-0.27359375,-0.49259375,1.2725312500000001,0.019517093549446092,0.02236517926975374,True
30244,129740,0,129738,3084.0,42080.0,30777.0,0.001586,0.0018909999999999999,-0.000915,0.10500000000000001,-1.5575,-3.7800000000000002,1.06365625,0.20159375000000002,0.0528125,1.31659375,1.0260625,-0.27403125,-0.4918125,1.28596875,0.019593984826891907,0.022237023086796863,True
30245,129741,0,129739,3086.0,42081.0,30778.0,0.000732,0.0032329999999999998,0.000549,0.1925,-1.5575,-3.7975000000000003,1.070875,0.20259375000000002,0.0535,1.317125,1.024375,-0.2745625,-0.49328125,1.28821875,0.019656636448133723,0.022323723980428308,True
30246,129742,0,129740,3085.0,42081.0,30777.0,0.000488,0.002623,0.001098,0.2625,-1.5575,-3.8675,1.07059375,0.20265625,0.053,1.3155000000000001,1.03378125,-0.27646875,-0.4958125,1.28946875,0.019736190009100894,0.022404339517213403,True
30247,129743,0,129741,3085.0,42079.0,30774.0,-0.000244,0.0023179999999999997,0.001281,0.3325,-1.4000000000000001,-3.8500000000000005,1.0695000000000001,0.20390625,0.0570625,1.3119375,1.020375,-0.2668125,-0.4908125,1.2775625,0.019397634114492787,0.02237063388566631,True
30248,129744,0,129742,3084.0,42079.0,30775.0,-0.001098,0.0011589999999999999,0.002074,0.43750000000000006,-1.3475000000000001,-3.8150000000000004,1.06575,0.20390625,0.055875,1.313375,1.00075,-0.26928125,-0.494875,1.30553125,0.01949738416748539,0.022484295184196694,True
30249,129745,0,129743,3087.0,42081.0,30777.0,-0.000793,-0.000732,-0.001586,0.31500000000000006,-1.4000000000000001,-3.8500000000000005,1.07228125,0.20246875,0.052000000000000005,1.31746875,1.042875,-0.28128125,-0.49359375,1.290875,0.01992275428216952,0.02227495709975185,True
30250,129746,0,129744,3085.0,42078.0,30776.0,0.001098,-0.001037,-0.000976,0.3325,-1.435,-3.8850000000000002,1.0735625,0.2011875,0.0566875,1.3115625,1.02296875,-0.26621875,-0.48346875,1.26896875,0.01926160209859643,0.02206208015357301,True
30251,129747,0,129745,3085.0,42081.0,30777.0,0.0028669999999999998,-0.001403,-0.000305,0.385,-1.435,-3.8325000000000005,1.0644375,0.2038125,0.0574375,1.31240625,1.0024375,-0.26787500000000003,-0.485375,1.27171875,0.019436703872918418,0.022168845688497727,True
30252,129748,0,129746,3084.0,42080.0,30777.0,0.002562,-0.001769,-0.00042699999999999997,0.3325,-1.225,-3.7275000000000005,1.0650625,0.2036875,0.05696875,1.3118750000000001,1.00628125,-0.26587500000000003,-0.489,1.26959375,0.019350734313104308,0.02229444852791049,True
30253,129749,0,129747,3086.0,42081.0,30776.0,-0.000244,-0.001647,-0.001037,0.43750000000000006,-1.1375000000000002,-3.6225000000000005,1.06478125,0.2048125,0.05671875,1.31565625,1.01059375,-0.26696875000000003,-0.4836875,1.27034375,0.0194412930127501,0.02207209391967611,True
30254,129750,0,129748,3085.0,42082.0,30777.0,-0.002379,0.00183,-0.000732,0.4025,-0.77,-3.8325000000000005,1.06734375,0.20771875,0.05428125,1.3163125,1.014375,-0.26678125,-0.48109375,1.2839375,0.019553479100158783,0.021868916702302156,True
30255,129751,0,129749,3087.0,42085.0,30781.0,-0.0018909999999999999,-0.000122,0.000976,0.385,-0.7175,-3.7625,1.0699375,0.20803125,0.05734375,1.31803125,1.0141875,-0.2699375,-0.492875,1.29178125,0.019693859945045182,0.022464441189529605,True
30256,129752,0,129750,3087.0,42082.0,30782.0,-0.0023179999999999997,0.0008539999999999999,0.002196,0.42000000000000004,-0.805,-3.8325000000000005,1.0717812500000001,0.200375,0.05696875,1.31090625,1.03334375,-0.27653125,-0.49321875,1.27546875,0.0196447443454262,0.022462850049056942,True
30257,129753,0,129751,3088.0,42086.0,30784.0,-0.002013,0.001647,0.00183,0.5075000000000001,-0.8575,-3.8850000000000002,1.0638125,0.20309375000000002,0.05646875,1.31234375,1.01234375,-0.27378125000000003,-0.4911875,1.26996875,0.019645682520105928,0.022361359570661897,True
30258,129754,0,129752,3088.0,42086.0,30783.0,-0.001586,0.0013419999999999999,0.001403,0.36750000000000005,-1.0850000000000002,-3.8150000000000004,1.0659375,0.203625,0.05828125,1.31246875,1.01221875,-0.2680625,-0.4845625,1.27359375,0.019436553700980456,0.022170857657758843,True
30259,129755,0,129753,3090.0,42087.0,30784.0,0.000976,-0.00061,-0.000793,0.1925,-1.435,-3.8150000000000004,1.06271875,0.20390625,0.055093750000000004,1.3100625000000001,1.0095625,-0.2705,-0.48678125,1.27840625,0.01954662038276921,0.02212928659212815,True
30260,129756,0,129754,3088.0,42087.0,30785.0,0.001586,-0.0015249999999999999,-0.000976,0.14,-1.6975000000000002,-3.8150000000000004,1.05921875,0.2034375,0.05446875,1.3097812500000001,1.0295,-0.27153125,-0.49415625,1.28684375,0.019568965184262942,0.022398199570560835,True
30261,129757,0,129755,3090.0,42084.0,30785.0,0.0015249999999999999,-0.000305,-0.001403,0.17500000000000002,-1.8375000000000001,-3.8325000000000005,1.068,0.20475000000000002,0.0550625,1.31675,1.0298125,-0.27521875,-0.49415625,1.28725,0.019771963949861422,0.02242244004628655,True
30262,129758,0,129756,3091.0,42085.0,30784.0,0.000549,-0.000732,-0.002257,0.22750000000000004,-1.9425000000000001,-3.9200000000000004,1.0715000000000001,0.2020625,0.05275,1.31128125,1.028125,-0.27390625,-0.4895625,1.2799375,0.01960824702451836,0.022144638149415693,True
30263,129759,0,129757,3092.0,42087.0,30786.0,0.0015249999999999999,-0.0015249999999999999,0.000366,0.1925,-1.8550000000000002,-3.8675,1.06409375,0.20334375000000002,0.055906250000000005,1.3115625,1.023125,-0.2721875,-0.490375,1.2805,0.019591610768497896,0.022305956932060046,True
30264,129760,0,129758,3092.0,42087.0,30787.0,0.000122,-0.000366,0.000305,0.14,-1.6800000000000002,-3.8675,1.065125,0.20328125,0.05684375,1.31190625,1.0220625,-0.2725,-0.49040625,1.27990625,0.01960165825522711,0.022345484775288284,True
30265,129761,0,129759,3096.0,42090.0,30787.0,6.1e-05,0.0013419999999999999,-0.000366,0.14,-1.6450000000000002,-3.9025000000000003,1.06471875,0.20409375,0.05625,1.31103125,1.021875,-0.2715,-0.49053125000000003,1.28103125,0.019594740745318584,0.02232623067333421,True
30266,129762,0,129760,3095.0,42088.0,30790.0,-0.000976,0.0013419999999999999,-0.00122,0.14,-1.4875,-3.8675,1.0645625,0.20340625,0.055906250000000005,1.31675,1.02303125,-0.27234375,-0.4845625,1.28025,0.01960049696478116,0.02207385776241663,True
30267,129763,0,129761,3097.0,42089.0,30791.0,-0.0025009999999999998,0.000244,-0.000244,0.15750000000000003,-1.3825,-3.8325000000000005,1.0705625,0.20125,0.0568125,1.3090625,1.02375,-0.27468750000000003,-0.49434375,1.28796875,0.0196063286087617,0.022501368300589807,True
30268,129764,0,129762,3098.0,42091.0,30790.0,-0.001037,-6.1e-05,0.001464,0.21000000000000002,-1.435,-3.7625,1.06503125,0.2038125,0.05684375,1.309375,1.031,-0.27346875,-0.49009375,1.28109375,0.019662671821471744,0.022333009648033707,True
30269,129765,0,129763,3098.0,42091.0,30794.0,-0.000976,-0.000488,-0.000183,0.15750000000000003,-1.7675,-3.8500000000000005,1.065,0.2034375,0.0551875,1.305,1.0230625,-0.27184375,-0.48925,1.28115625,0.01958158823430956,0.022231693498167567,True
30270,129766,0,129764,3099.0,42091.0,30793.0,0.0006709999999999999,6.1e-05,0.0,0.28,-2.0475000000000003,-3.7100000000000004,1.066125,0.203375,0.05653125,1.30771875,1.0183125,-0.2723125,-0.4909375,1.27875,0.019597947249566764,0.02235393193911013,True
30271,129767,0,129765,3100.0,42090.0,30793.0,0.000793,0.000183,-0.0013419999999999999,0.22750000000000004,-2.1525000000000003,-3.7450000000000006,1.0611875,0.2001875,0.0474375,1.3255937500000001,1.0236875,-0.2719375,-0.48378125,1.28021875,0.01945147559810584,0.02169676099356589,True
30272,129768,0,129766,3099.0,42092.0,30794.0,0.00122,-0.000732,0.000183,0.29750000000000004,-2.205,-3.6575,1.0800625,0.19946875,0.05434375,1.32525,1.02284375,-0.27259375,-0.48821875000000003,1.28321875,0.019448374774533525,0.022156062290157385,True
30273,129769,0,129767,3103.0,42091.0,30796.0,0.003111,-0.001586,-0.000244,0.17500000000000002,-2.1350000000000002,-3.7275000000000005,1.07490625,0.19775,0.055843750000000004,1.3259375,1.0246875,-0.27290625,-0.49325,1.2704375,0.019390189421590175,0.022418166229471386,True
30274,129770,0,129768,3101.0,42093.0,30798.0,0.0015249999999999999,-0.000183,-0.000732,0.28,-1.715,-3.8500000000000005,1.07821875,0.19590625,0.059625000000000004,1.32771875,1.0235625,-0.27259375,-0.49171875000000004,1.2793125,0.019301604304237163,0.022511435625562213,True
30275,129771,0,129769,3102.0,42094.0,30797.0,-0.00061,0.001098,-0.000122,0.35000000000000003,-1.435,-3.8500000000000005,1.07328125,0.20653125,0.06009375,1.3068125,1.02328125,-0.27571875,-0.4888125,1.28553125,0.019865529213218457,0.02241457196015527,True
30276,129772,0,129770,3104.0,42094.0,30797.0,-0.002379,0.0,-0.000549,0.31500000000000006,-1.225,-3.7975000000000003,1.0588125,0.20534375,0.05809375,1.3086875,1.02803125,-0.2734375,-0.49028125,1.28009375,0.019724493080141615,0.022391535417748624,True
30277,129773,0,129771,3105.0,42094.0,30800.0,-0.002623,-0.00042699999999999997,0.001647,0.3325,-1.0325000000000002,-3.7800000000000002,1.06384375,0.2005625,0.047468750000000004,1.3259375,1.0226250000000001,-0.2713125,-0.49090625,1.274125,0.019441676258751976,0.021982649172077904,True
30278,129774,0,129772,3106.0,42097.0,30802.0,-0.0018909999999999999,0.0006709999999999999,0.000793,0.385,-1.0675000000000001,-3.7450000000000006,1.0821875,0.19584375,0.05278125,1.317125,1.0227187500000001,-0.27278125000000003,-0.49128125,1.28525,0.019306605006379318,0.022214538081791864,True
30279,129775,0,129773,3108.0,42098.0,30801.0,-0.002379,-6.1e-05,0.000915,0.385,-1.33,-3.7625,1.05859375,0.205875,0.0645,1.306,1.02878125,-0.2731875,-0.49221875,1.2786875,0.019736283090138043,0.02273043351778817,True
30280,129776,0,129774,3108.0,42100.0,30802.0,-0.000488,-0.000549,0.000366,0.385,-1.6800000000000002,-3.7450000000000006,1.05965625,0.2016875,0.0484375,1.32228125,1.0225,-0.272,-0.49128125,1.2746875,0.01951580009887937,0.022037179047135397,True
30281,129777,0,129775,3108.0,42099.0,30804.0,-6.1e-05,0.000915,0.0,0.4025,-1.8550000000000002,-3.8500000000000005,1.075625,0.199375,0.05796875,1.31128125,1.02259375,-0.27284375,-0.49446875,1.2863437500000001,0.019454611699545918,0.022553561199403438,True
30282,129778,0,129776,3111.0,42097.0,30806.0,0.000122,0.001281,-6.1e-05,0.28,-1.9600000000000002,-3.7450000000000006,1.067125,0.2028125,0.05853125,1.31046875,1.02990625,-0.274875,-0.4928125,1.2862500000000001,0.019678268168219198,0.02251043035584419,True
30283,129779,0,129777,3110.0,42099.0,30806.0,0.0028669999999999998,-0.0011589999999999999,-0.00061,0.22750000000000004,-2.1350000000000002,-3.6750000000000003,1.0625,0.203125,0.0553125,1.3120625000000001,1.01703125,-0.2719375,-0.4916875,1.28646875,0.019572500135186983,0.02233410825611751,True
30284,129780,0,129778,3112.0,42101.0,30806.0,0.003843,-0.001098,0.000793,0.17500000000000002,-2.1175,-3.6750000000000003,1.0656875000000001,0.20275,0.0605625,1.311375,1.02965625,-0.2754375,-0.4896875,1.2810625,0.01969840914298661,0.02246864113721337,True
30285,129781,0,129779,3112.0,42102.0,30810.0,0.0037819999999999998,-0.000915,-0.00042699999999999997,0.29750000000000004,-2.1175,-3.6925000000000003,1.06475,0.20434375,0.0560625,1.3146875,1.02296875,-0.27215625,-0.4904375,1.2806250000000001,0.019631547980002807,0.02231483206455581,True
30286,129782,0,129780,3113.0,42101.0,30812.0,0.00122,-0.000915,-0.002379,0.4025,-1.9775000000000003,-3.6575,1.06953125,0.20425000000000001,0.05378125,1.3133125,1.02525,-0.275125,-0.49196875,1.28821875,0.019747581114412386,0.02228281464714836,True
30287,129783,0,129781,3114.0,42101.0,30812.0,-0.000549,0.000183,-0.000122,0.4025,-1.61,-3.7275000000000005,1.056375,0.20421875,0.05428125,1.32025,1.0279375,-0.27253125,-0.49090625,1.2818125,0.019641544389813075,0.02226081364383974,True
30288,129784,0,129782,3114.0,42102.0,30814.0,0.00042699999999999997,-0.000244,-0.0008539999999999999,0.31500000000000006,-1.155,-3.6925000000000003,1.06609375,0.21046875,0.056,1.3111875,1.02928125,-0.27575,-0.4905625,1.279875,0.020028989835535464,0.022317270172949277,True
30289,129785,0,129783,3116.0,42101.0,30814.0,-0.000976,0.001769,0.000793,0.29750000000000004,-0.9975,-3.8150000000000004,1.0711875,0.20509375,0.05640625,1.31134375,1.02375,-0.27603125,-0.4928125,1.27525,0.01981893148205599,0.022423670209372647,True
30290,129786,0,129784,3117.0,42102.0,30815.0,-0.003965,0.000732,0.0015249999999999999,0.385,-0.8225000000000001,-3.8150000000000004,1.0675000000000001,0.2023125,0.055375,1.3176875000000001,1.0231875,-0.2729375,-0.49515625,1.27846875,0.019579418436684887,0.022475106685633003,True
30291,129787,0,129785,3118.0,42102.0,30817.0,-0.0062829999999999995,-0.000488,0.0018909999999999999,0.29750000000000004,-0.9975,-3.8150000000000004,1.06859375,0.20453125,0.05725,1.31175,1.0304375000000001,-0.27509375,-0.49296875,1.28040625,0.019757905157420867,0.022464355203980733,True
30292,129788,0,129786,3119.0,42102.0,30819.0,-0.003294,-0.002623,0.00061,0.28,-1.2600000000000002,-3.7800000000000002,1.06475,0.204375,0.05725,1.31184375,1.0171875,-0.27165625,-0.49053125000000003,1.2805312500000001,0.019612639743116007,0.022367062780640986,True
30293,129789,0,129787,3119.0,42103.0,30817.0,0.001098,0.0006709999999999999,0.00042699999999999997,0.24500000000000002,-1.8900000000000001,-3.7625,1.06503125,0.203875,0.05659375,1.312875,1.0226875,-0.27184375,-0.49021875000000004,1.28040625,0.019599613234985495,0.022327791580056836,True
30294,129790,0,129788,3119.0,42103.0,30818.0,0.00061,0.0015249999999999999,0.0,0.1925,-2.1,-3.7100000000000004,1.06271875,0.20828125,0.05615625,1.306125,1.02028125,-0.27209375,-0.4935625,1.28740625,0.01979124689232877,0.022443397117099646,True
30295,129791,0,129789,3122.0,42104.0,30820.0,0.002806,-0.000915,-0.000915,0.14,-2.3975000000000004,-3.7100000000000004,1.070875,0.201,0.0525625,1.31671875,1.01646875,-0.27625,-0.4940625,1.286875,0.019659131867566036,0.022316632857452702,True
30296,129792,0,129790,3123.0,42105.0,30821.0,0.005246,-0.000976,-0.00042699999999999997,0.15750000000000003,-2.45,-3.7450000000000006,1.0725,0.20496875,0.0536875,1.31703125,1.02865625,-0.26778125,-0.4943125,1.28640625,0.019480561289466874,0.022372540564263646,True
30297,129793,0,129791,3123.0,42106.0,30822.0,0.0068319999999999995,0.0013419999999999999,-0.0008539999999999999,0.1925,-2.345,-3.8675,1.06878125,0.2021875,0.05675,1.3120625000000001,1.0285625,-0.27528125000000003,-0.49262500000000004,1.284125,0.019668927625709796,0.022430221342138706,True
30298,129794,0,129792,3123.0,42104.0,30823.0,0.000732,0.000976,-0.0018909999999999999,0.24500000000000002,-1.6625,-3.7100000000000004,1.06471875,0.2043125,0.05684375,1.3116875000000001,1.02428125,-0.2739375,-0.4904375,1.2805625,0.019702201177703455,0.02234673227050354,True
30299,129795,0,129793,3125.0,42110.0,30826.0,0.000488,0.001098,0.000305,0.21000000000000002,-1.225,-3.7450000000000006,1.05740625,0.20140625,0.05821875,1.3170625,1.02309375,-0.272875,-0.489375,1.283,0.019539558045760956,0.02236046244544828,True
30300,129796,0,129794,3127.0,42106.0,30825.0,0.000915,-0.001647,-0.000488,0.24500000000000002,-0.7525000000000001,-3.7275000000000005,1.071,0.20296875,0.0548125,1.31490625,1.0285625,-0.27378125000000003,-0.49275,1.28521875,0.019640532930978772,0.0223561053781221,True
30301,129797,0,129795,3129.0,42108.0,30826.0,-0.000549,-0.000976,0.00061,0.43750000000000006,-0.43750000000000006,-3.5875000000000004,1.06640625,0.2076875,0.05646875,1.312,1.02984375,-0.27418750000000003,-0.49090625,1.28075,0.01985133385000013,0.022350132510919232,True
30302,129798,0,129796,3128.0,42106.0,30828.0,-0.004392,-6.1e-05,0.002379,0.36750000000000005,-0.08750000000000001,-3.5875000000000004,1.0645625,0.20296875,0.05459375,1.31434375,1.01984375,-0.27303125,-0.49153125000000003,1.27996875,0.019610241304328233,0.02229852410718501,True
30303,129799,0,129797,3129.0,42108.0,30826.0,-0.010492,0.001952,0.0071979999999999995,0.385,-0.3325,-3.5000000000000004,1.0685625,0.203875,0.0553125,1.3141875,1.03003125,-0.269125,-0.49190625,1.28640625,0.019489783830278183,0.022342840300558473,True
30304,129800,0,129798,3129.0,42106.0,30826.0,-0.005673,0.000305,-0.0050019999999999995,0.36750000000000005,-1.3475000000000001,-3.43,1.06746875,0.20275,0.0558125,1.31484375,1.02640625,-0.2708125,-0.49459375,1.2920625000000001,0.019511604730991183,0.022470519642727286,True
30305,129801,0,129799,3128.0,42106.0,30824.0,0.004941,-0.008296,0.001037,0.28,-1.2775,-3.3775000000000004,1.0686875,0.20350000000000001,0.055968750000000005,1.31571875,1.03759375,-0.277625,-0.49496875,1.28428125,0.019817630431312783,0.02249186376283905,True
30306,129802,0,129800,3126.0,42106.0,30823.0,0.002257,-0.002379,-6.1e-05,0.2625,-1.33,-3.5175000000000005,1.07021875,0.20109375000000002,0.05415625,1.3128125,1.0354375,-0.27675,-0.4960625,1.2888125,0.01968318452840681,0.022461518050094786,True
30307,129803,0,129801,3122.0,42103.0,30817.0,-0.00042699999999999997,0.004026,0.000122,0.47250000000000003,-1.5925000000000002,-3.7275000000000005,1.0651875,0.20409375,0.05646875,1.312,1.0199375,-0.27190625,-0.4904375,1.27803125,0.019611150236706273,0.02233142017164863,True
30308,129804,0,129802,3119.0,42102.0,30813.0,-0.0008539999999999999,0.000183,0.0015249999999999999,0.36750000000000005,-2.0475000000000003,-3.7975000000000003,1.06584375,0.20228125,0.04940625,1.32321875,1.0205,-0.27196875,-0.48928125,1.27740625,0.01953900010686195,0.021996868527940156,True
30309,129805,0,129803,3115.0,42097.0,30807.0,-0.000183,-0.000244,0.002074,0.28,-2.5200000000000005,-3.7800000000000002,1.097375,0.197625,0.06009375,1.30471875,1.02575,-0.27871875,-0.49543750000000003,1.291375,0.019619805925714266,0.022678968277255712,True
30310,129806,0,129804,3109.0,42092.0,30800.0,0.001281,0.0013419999999999999,0.000366,0.10500000000000001,-2.87,-3.7625,1.05871875,0.20809375,0.06165625,1.300375,1.0325625,-0.27584375,-0.493875,1.28265625,0.019934940469370915,0.022680415001709614,True
30311,129807,0,129805,3102.0,42087.0,30796.0,0.0028669999999999998,-0.000183,-0.0018909999999999999,0.10500000000000001,-3.0275000000000003,-3.8325000000000005,1.05275,0.207625,0.05421875,1.326625,1.0266875,-0.27203125,-0.48978125,1.27459375,0.019761685582042086,0.022213346638202416,True
30312,129808,0,129806,3096.0,42088.0,30788.0,0.006588,0.000244,-0.002989,-0.0175,-3.115,-3.7975000000000003,1.08734375,0.19353125000000002,0.054843750000000004,1.321625,1.0205,-0.274875,-0.49515625,1.2891875,0.019295928403338842,0.02245341872436515,True
30313,129809,0,129807,3091.0,42084.0,30784.0,0.00244,-0.0017079999999999999,-0.000122,0.0,-2.765,-3.6925000000000003,1.069125,0.2095625,0.06381250000000001,1.302125,1.03596875,-0.27868750000000003,-0.49328125,1.292375,0.02011023042328792,0.022744757809858573,True
30314,129810,0,129808,3086.0,42080.0,30780.0,0.001647,-0.000488,-0.00061,0.08750000000000001,-2.45,-3.8500000000000005,1.05209375,0.2023125,0.047625,1.33225,1.02334375,-0.27209375,-0.48878125,1.27796875,0.0195453369159799,0.021904162747993023,True
30315,129811,0,129809,3082.0,42081.0,30776.0,0.001464,-0.00061,-0.0011589999999999999,0.07,-2.1875,-3.8500000000000005,1.06984375,0.19928125,0.0558125,1.3233125000000001,1.0326250000000001,-0.2714375,-0.4951875,1.289125,0.019393937833307152,0.022494214424772216,True
30316,129812,0,129810,3078.0,42076.0,30775.0,0.000305,-0.00042699999999999997,-0.000244,0.08750000000000001,-1.8200000000000003,-3.8500000000000005,1.074625,0.19715625,0.052875,1.31953125,1.0290625,-0.27078125000000003,-0.4921875,1.2862500000000001,0.019279869699291203,0.022254545454545454,True
30317,129813,0,129811,3074.0,42073.0,30773.0,-0.0018909999999999999,-0.0006709999999999999,0.00042699999999999997,0.21000000000000002,-1.4700000000000002,-3.8150000000000004,1.0756875000000001,0.2016875,0.0566875,1.31334375,1.03028125,-0.27403125,-0.49371875,1.28621875,0.019597846978960283,0.02247132236708646,True
30318,129814,0,129812,3073.0,42074.0,30772.0,-0.004941,0.0021349999999999997,0.001281,0.1925,-1.2950000000000002,-3.8675,1.069375,0.20315625,0.06215625,1.3018125,1.029,-0.27609375,-0.49090625,1.2825,0.019741643978451025,0.022582361565325906,True
30319,129815,0,129813,3072.0,42075.0,30770.0,-0.002745,0.00042699999999999997,-0.000244,0.15750000000000003,-1.3825,-3.8325000000000005,1.05253125,0.20384375000000002,0.055375,1.32890625,1.02325,-0.27153125,-0.48803125,1.279875,0.0195857029003887,0.022190687542511203,True
30320,129816,0,129814,3069.0,42076.0,30771.0,-0.001647,-0.001098,-6.1e-05,0.22750000000000004,-1.715,-3.7975000000000003,1.07890625,0.20334375000000002,0.05784375,1.3018750000000001,1.02446875,-0.27459375,-0.4865625,1.28546875,0.019688794997856553,0.022232857306941304,True
30321,129817,0,129815,3069.0,42076.0,30769.0,-0.0008539999999999999,-0.000305,0.000976,0.17500000000000002,-1.9425000000000001,-3.8850000000000002,1.05484375,0.20496875,0.0570625,1.309,1.01034375,-0.272875,-0.49146875,1.27928125,0.019686326815426685,0.022396829508234375,True
30322,129818,0,129816,3066.0,42077.0,30768.0,6.1e-05,0.001037,0.000366,0.1925,-2.2750000000000004,-3.9025000000000003,1.0616875000000001,0.20321875,0.05434375,1.317375,1.023125,-0.275625,-0.4941875,1.28553125,0.01972529028603795,0.022394343555996704,True
30323,129819,0,129817,3066.0,42074.0,30767.0,0.003294,-0.000793,-0.001647,0.15750000000000003,-2.5025000000000004,-3.7450000000000006,1.07103125,0.19996875,0.0571875,1.31728125,1.02640625,-0.27640625,-0.49278125,1.2796875,0.019622962109558533,0.022454320086658187,True
30324,129820,0,129818,3067.0,42075.0,30768.0,0.0026839999999999998,-0.001098,-0.002806,0.08750000000000001,-2.415,-3.7625,1.06709375,0.20090625,0.051812500000000004,1.31728125,1.0305625,-0.2734375,-0.4955,1.28690625,0.01954168007724493,0.022343389602171828,True
30325,129821,0,129819,3064.0,42074.0,30769.0,0.003111,0.00042699999999999997,-0.000488,0.10500000000000001,-2.3800000000000003,-3.6750000000000003,1.07003125,0.20025,0.052875,1.317375,1.0296875,-0.27509375,-0.49512500000000004,1.289125,0.01958154126593229,0.022371798470103746,True
30326,129822,0,129820,3065.0,42079.0,30767.0,0.0018909999999999999,0.000976,0.000488,0.17500000000000002,-2.1525000000000003,-3.7800000000000002,1.0646875,0.203375,0.05621875,1.3118125,1.02365625,-0.2715,-0.4915,1.2805625,0.019565127824815114,0.022363626156013314,True
30327,129823,0,129821,3066.0,42078.0,30769.0,0.000244,0.00042699999999999997,-0.000122,0.1925,-1.8900000000000001,-3.7975000000000003,1.064625,0.20359375000000002,0.05646875,1.31259375,1.022,-0.27325,-0.4910625,1.28103125,0.01964482506462876,0.022356369798166166,True
30328,129824,0,129822,3066.0,42078.0,30769.0,0.00042699999999999997,0.000305,-0.000549,0.07,-1.5575,-3.7800000000000002,1.065,0.203875,0.05671875,1.3116875000000001,1.0214375,-0.27184375,-0.49062500000000003,1.28003125,0.019599613234985495,0.02234911318106418,True
30329,129825,0,129823,3067.0,42079.0,30769.0,-0.001098,-0.000793,0.001037,0.4025,-1.3475000000000001,-3.7625,1.065125,0.20409375,0.055593750000000004,1.3118125,1.022875,-0.27215625,-0.49162500000000003,1.2805312500000001,0.01962124811222736,0.022343096874952156,True
30330,129826,0,129824,3067.0,42079.0,30769.0,-0.0023179999999999997,0.000305,0.0011589999999999999,0.31500000000000006,-1.2600000000000002,-3.7450000000000006,1.0645,0.2038125,0.0555625,1.31084375,1.02240625,-0.2699375,-0.49134375,1.2807187500000001,0.019520033786654786,0.022330593845019224,True
30331,129827,0,129825,3069.0,42080.0,30770.0,-0.004331,0.0006709999999999999,-0.000122,0.385,-1.2950000000000002,-3.7450000000000006,1.0649375,0.20290625,0.055,1.3185,1.01475,-0.2685625,-0.48859375,1.28375,0.01942713953494361,0.022197834450988024,True
30332,129828,0,129826,3070.0,42079.0,30770.0,-0.0035989999999999998,0.000366,0.000122,0.36750000000000005,-1.4000000000000001,-3.8325000000000005,1.06996875,0.19996875,0.05309375,1.31790625,1.02975,-0.27165625,-0.49503125000000003,1.28028125,0.01943110083392022,0.022376987169591796,True
30333,129829,0,129827,3070.0,42081.0,30772.0,0.000793,-0.000915,-0.000122,0.17500000000000002,-1.6625,-3.8850000000000002,1.0715000000000001,0.20209375000000002,0.0526875,1.3195625,1.03040625,-0.2749375,-0.49378125,1.28709375,0.019651183447949146,0.02231050993810929,True
30334,129830,0,129828,3070.0,42084.0,30771.0,0.002928,-0.000183,0.000122,0.08750000000000001,-1.8200000000000003,-3.8150000000000004,1.07384375,0.20346875,0.054375,1.3161875,1.03084375,-0.2730625,-0.494,1.28565625,0.019632102459259105,0.02238813587000898,True
30335,129831,0,129829,3070.0,42084.0,30773.0,0.0017079999999999999,-0.000122,0.0,0.07,-1.7675,-3.8675,1.07065625,0.20228125,0.05446875,1.31521875,1.02890625,-0.27590625,-0.49296875,1.28484375,0.019698028781108844,0.022350802207266117,True
30336,129832,0,129830,3071.0,42083.0,30774.0,0.0017079999999999999,0.000366,-0.0008539999999999999,0.08750000000000001,-1.8025000000000002,-3.9550000000000005,1.06475,0.2043125,0.05675,1.3093125,1.02265625,-0.27234375,-0.49109375,1.28115625,0.019637833697044603,0.022369101012485404,True
30337,129833,0,129831,3073.0,42084.0,30774.0,0.00122,0.00122,-0.00122,0.12250000000000001,-1.8550000000000002,-3.9025000000000003,1.06459375,0.20350000000000001,0.05628125,1.31165625,1.023375,-0.272,-0.49190625,1.28003125,0.019590474620962427,0.02238239418379286,True
30338,129834,0,129832,3071.0,42083.0,30774.0,-0.000244,-0.001098,-0.0011589999999999999,0.31500000000000006,-1.715,-3.7800000000000002,1.064375,0.202,0.055,1.315,1.02246875,-0.27184375,-0.49484375,1.2861562500000001,0.019522363232088624,0.022447326286782296,True
30339,129835,0,129833,3073.0,42083.0,30775.0,-0.0013419999999999999,0.000366,-0.000366,0.3325,-1.6625,-3.7450000000000006,1.0697812500000001,0.20125,0.05421875,1.3116875000000001,1.0279375,-0.27265625,-0.4915625,1.2810625,0.01952428465673179,0.02228446020951093,True
30340,129836,0,129834,3073.0,42083.0,30775.0,-0.002013,0.002013,0.000549,0.28,-1.5750000000000002,-3.7275000000000005,1.06515625,0.2013125,0.053375,1.3135000000000001,1.02275,-0.27234375,-0.4938125,1.2806250000000001,0.019514236238517346,0.022339825619225262,True
30341,129837,0,129835,3074.0,42085.0,30777.0,-0.000183,0.000366,-6.1e-05,0.29750000000000004,-1.5750000000000002,-3.8500000000000005,1.065125,0.204125,0.05603125,1.31115625,1.016,-0.271625,-0.4909375,1.2807187500000001,0.019601077389750376,0.02233351622411351,True
30342,129838,0,129836,3074.0,42085.0,30777.0,0.000244,-0.0008539999999999999,0.001403,0.35000000000000003,-1.54,-3.7800000000000002,1.066625,0.20209375000000002,0.0549375,1.3101562500000001,1.02203125,-0.274625,-0.493875,1.27971875,0.019638562902619505,0.02240611173201464,True
30343,129839,0,129837,3075.0,42085.0,30779.0,0.000183,-0.0011589999999999999,-0.001769,0.28,-1.3475000000000001,-3.7625,1.06459375,0.20253125,0.05978125,1.31890625,1.01884375,-0.27259375,-0.49525,1.29196875,0.019574545880577762,0.022658729753727763,True
30344,129840,0,129838,3075.0,42088.0,30780.0,0.000122,0.00042699999999999997,-6.1e-05,0.28,-1.3650000000000002,-3.7450000000000006,1.0710625,0.2043125,0.055375,1.318375,1.0401562500000001,-0.270625,-0.49028125,1.28075,0.019568408312517705,0.0222805219927803,True
30345,129841,0,129839,3077.0,42088.0,30780.0,6.1e-05,-6.1e-05,-0.000122,0.4025,-1.1725,-3.6225000000000005,1.0698750000000001,0.201,0.05340625,1.3181875,1.02103125,-0.26975,-0.4815,1.28121875,0.019396573924329672,0.021849406694851217,True
30346,129842,0,129840,3076.0,42088.0,30780.0,-0.000305,-0.000366,-0.001281,0.5075000000000001,-1.2425000000000002,-3.6400000000000006,1.0714062500000001,0.20328125,0.057875,1.31753125,1.024125,-0.2700625,-0.48709375,1.2755,0.01950319452205778,0.02225534624744923,True
30347,129843,0,129841,3077.0,42088.0,30779.0,-0.0006709999999999999,0.001037,0.00042699999999999997,0.6300000000000001,-1.225,-3.6925000000000003,1.07046875,0.201,0.0548125,1.3194062500000001,1.030875,-0.2723125,-0.48690625,1.284125,0.01950009913558916,0.022122792665978375,True
30348,129844,0,129842,3078.0,42088.0,30782.0,-0.00042699999999999997,0.000732,-0.000183,0.5950000000000001,-1.0850000000000002,-3.7625,1.07115625,0.20265625,0.0539375,1.31784375,1.0261875,-0.27503125,-0.49353125000000003,1.2886250000000001,0.019678141505997032,0.022351564762635036,True
30349,129845,0,129843,3079.0,42087.0,30783.0,0.001464,-0.000488,0.0,0.5075000000000001,-0.9800000000000001,-3.6750000000000003,1.07196875,0.20553125,0.0544375,1.31803125,1.032375,-0.277,-0.48428125,1.2894375,0.019876065823619064,0.02200263689586559,True
30350,129846,0,129844,3080.0,42090.0,30785.0,0.001952,-0.000976,-0.001464,0.5425000000000001,-1.0150000000000001,-3.7100000000000004,1.0718750000000001,0.19993750000000002,0.05890625,1.311625,1.0327187500000001,-0.2735,-0.49990625,1.28740625,0.01950429480709416,0.022808760747808986,True
30351,129847,0,129845,3080.0,42089.0,30783.0,0.000488,-0.000244,-0.000183,0.5775,-0.7350000000000001,-3.7800000000000002,1.0643125,0.20400000000000001,0.0555625,1.3075,1.03403125,-0.27871875,-0.4971875,1.2861562500000001,0.019882381561012154,0.022563814723628988,True
30352,129848,0,129846,3082.0,42091.0,30785.0,-0.0011589999999999999,6.1e-05,-0.000244,0.56,-0.43750000000000006,-3.7625,1.064375,0.2034375,0.05646875,1.3004375000000001,1.02921875,-0.274625,-0.4909375,1.27528125,0.019693919061571495,0.02235137997473555,True
30353,129849,0,129847,3083.0,42093.0,30787.0,-0.003111,-0.000793,0.000183,0.7525000000000001,-0.36750000000000005,-3.6925000000000003,1.06415625,0.204375,0.0571875,1.3079687500000001,1.01571875,-0.271125,-0.4881875,1.268375,0.019591180878513047,0.02227094185717093,True
30354,129850,0,129848,3085.0,42094.0,30789.0,-0.0035989999999999998,0.001647,0.0023179999999999997,0.7525000000000001,-0.29750000000000004,-3.7800000000000002,1.06434375,0.20384375000000002,0.0569375,1.3118125,1.01540625,-0.27046875,-0.48903125000000003,1.2741875,0.01954278283150176,0.022294420078376925,True
30355,129851,0,129849,3083.0,42093.0,30790.0,-0.00366,0.00183,0.0017079999999999999,0.8225000000000001,-0.36750000000000005,-3.7625,1.06628125,0.20184375000000002,0.059750000000000004,1.317375,1.0170000000000001,-0.27403125,-0.4905625,1.28078125,0.019604283899074242,0.022470390379967793,True
30356,129852,0,129850,3087.0,42094.0,30792.0,-0.0037819999999999998,-0.000122,0.001403,0.7350000000000001,-0.77,-3.7275000000000005,1.0698750000000001,0.20090625,0.05346875,1.32065625,1.03065625,-0.2730625,-0.489875,1.2830625,0.019526532756218955,0.022186464814540702,True
30357,129853,0,129851,3087.0,42096.0,30790.0,0.002074,0.000244,-0.001098,0.49000000000000005,-1.3650000000000002,-3.6575,1.06965625,0.204125,0.057625,1.3110625,1.02928125,-0.27575,-0.49025,1.28015625,0.019767669381996436,0.022371147701636365,True
30358,129854,0,129852,3088.0,42096.0,30790.0,0.0018909999999999999,-6.1e-05,-0.002013,0.45500000000000007,-1.5750000000000002,-3.6400000000000006,1.06434375,0.203625,0.05628125,1.315625,1.02259375,-0.27234375,-0.49190625,1.2803125,0.01960950927946544,0.02238239418379286,True
30359,129855,0,129853,3089.0,42095.0,30795.0,0.003965,0.000183,-0.000122,0.31500000000000006,-1.6275000000000002,-3.6400000000000006,1.0658750000000001,0.2010625,0.0554375,1.3179375,1.02503125,-0.27325,-0.4923125,1.2867187500000001,0.019540543602525415,0.022364160182914535,True
30360,129856,0,129854,3092.0,42098.0,30795.0,0.002379,0.000183,-0.0015249999999999999,0.3325,-1.5575,-3.6750000000000003,1.071125,0.2035625,0.05709375,1.31175,1.03021875,-0.27609375,-0.4936875,1.281875,0.01975837854885529,0.022486661104008942,True
30361,129857,0,129855,3093.0,42096.0,30795.0,0.004026,-0.001037,-0.000366,0.43750000000000006,-1.4175000000000002,-3.5525,1.06459375,0.2039375,0.0570625,1.31246875,1.02325,-0.27153125,-0.48825,1.281125,0.019589565450263878,0.022268332771839552,True
30362,129858,0,129856,3092.0,42096.0,30798.0,0.000549,0.000549,0.000549,0.2625,-1.0150000000000001,-3.7100000000000004,1.06421875,0.20409375,0.05696875,1.311375,1.0230000000000001,-0.27215625,-0.48325,1.2803125,0.01962124811222736,0.022064830036861934,True
30363,129859,0,129857,3094.0,42099.0,30798.0,0.000732,-0.001037,0.000366,0.29750000000000004,-0.525,-3.7975000000000003,1.06428125,0.20340625,0.0556875,1.31084375,1.0228125000000001,-0.27209375,-0.4916875,1.28359375,0.019590398953530742,0.022349419573477733,True
30364,129860,0,129858,3096.0,42099.0,30799.0,-0.001952,-0.00061,-0.001098,0.36750000000000005,-0.22750000000000004,-3.7800000000000002,1.0689375,0.2059375,0.057375,1.3034375,1.031375,-0.27134375,-0.493375,1.28028125,0.01966439332391722,0.022485672146039488,True
30365,129861,0,129859,3100.0,42101.0,30800.0,-0.003538,-0.00061,-0.000122,0.45500000000000007,-0.08750000000000001,-3.6925000000000003,1.064375,0.2033125,0.0534375,1.322,1.0225312500000001,-0.27290625,-0.49243750000000003,1.28584375,0.019619354398487,0.02228749180231653,True
30366,129862,0,129860,3100.0,42099.0,30801.0,-0.004331,0.000366,0.002257,0.5425000000000001,-0.12250000000000001,-3.7625,1.06534375,0.20425000000000001,0.055781250000000004,1.3215937500000001,1.027625,-0.27187500000000003,-0.49234375,1.28103125,0.01961632547959315,0.022379442555390396,True
30367,129863,0,129861,3101.0,42104.0,30801.0,-0.003477,-0.000488,0.001037,0.5075000000000001,-0.5425000000000001,-3.7625,1.06384375,0.20440625,0.05696875,1.32053125,1.01921875,-0.2728125,-0.4905625,1.279875,0.01966062853243727,0.02235682622642906,True
30368,129864,0,129862,3104.0,42102.0,30804.0,-0.0013419999999999999,-0.000183,0.000305,0.56,-0.8750000000000001,-3.7800000000000002,1.07571875,0.20600000000000002,0.0581875,1.30896875,1.01825,-0.27618750000000003,-0.49025,1.2813125,0.01986257108946782,0.022394116025765357,True
30369,129865,0,129863,3104.0,42103.0,30804.0,0.002013,0.000366,-0.0011589999999999999,0.45500000000000007,-1.155,-3.7625,1.0715937500000001,0.20253125,0.062625,1.309125,1.0225312500000001,-0.27475,-0.49396875,1.28075,0.01966163400240991,0.022723706218495114,True
30370,129866,0,129864,3104.0,42105.0,30807.0,0.0015249999999999999,0.00042699999999999997,-0.000732,0.49000000000000005,-1.33,-3.6925000000000003,1.0614375,0.20853125,0.05328125,1.3205625,1.01146875,-0.2724375,-0.49162500000000003,1.28065625,0.019815428508158688,0.022248676843614913,True
30371,129867,0,129865,3106.0,42104.0,30806.0,0.001403,0.001403,-0.000488,0.385,-1.4700000000000002,-3.6925000000000003,1.0751875,0.20178125,0.05259375,1.3156875000000001,1.02953125,-0.27521875,-0.4945625,1.2848125000000001,0.01964966845046453,0.02233786580184888,True
30372,129868,0,129866,3106.0,42105.0,30807.0,0.0021349999999999997,-0.001647,-0.000549,0.5425000000000001,-1.61,-3.7100000000000004,1.06040625,0.20596875,0.0575625,1.3099375,1.028375,-0.2685,-0.49103125000000003,1.2815625,0.019550806601149637,0.02239978155268574,True
30373,129869,0,129867,3108.0,42105.0,30806.0,0.00061,6.1e-05,-0.000122,0.385,-1.5050000000000001,-3.7450000000000006,1.0619375,0.2050625,0.0565,1.30909375,1.02340625,-0.27159375,-0.4901875,1.2803125,0.019638440512378796,0.022322715985739185,True
30374,129870,0,129868,3110.0,42106.0,30811.0,-0.000244,0.000732,-0.000549,0.42000000000000004,-1.3475000000000001,-3.8500000000000005,1.0540625000000001,0.203,0.053875,1.3149375,1.0229375,-0.272125,-0.489,1.2803125,0.019574923909628845,0.02216811629711299,True
30375,129871,0,129869,3110.0,42109.0,30811.0,-0.001281,-0.000549,0.0,0.43750000000000006,-1.1725,-3.7975000000000003,1.07546875,0.2005625,0.05140625,1.3219375,1.02209375,-0.272625,-0.49025,1.28465625,0.019494698245451407,0.02211722011821031,True
30376,129872,0,129870,3109.0,42108.0,30813.0,0.0006709999999999999,-0.000366,0.000549,0.43750000000000006,-1.155,-3.6400000000000006,1.07453125,0.20496875,0.06409375,1.31640625,1.0268125000000001,-0.2745625,-0.49253125000000003,1.283375,0.019754475492606716,0.022726315802904205,True
30377,129873,0,129871,3111.0,42109.0,30814.0,-0.0013419999999999999,-0.000305,-6.1e-05,0.5950000000000001,-1.05,-3.7275000000000005,1.06915625,0.2010625,0.0569375,1.31575,1.02625,-0.2728125,-0.4930625,1.2834375,0.019522871525497924,0.02245533811870198,True
30378,129874,0,129872,3112.0,42109.0,30812.0,-0.000488,0.0006709999999999999,6.1e-05,0.45500000000000007,-1.1375000000000002,-3.7100000000000004,1.0685625,0.20253125,0.05609375,1.315625,1.02684375,-0.2731875,-0.49253125000000003,1.284,0.019598528211426706,0.022399685618447462,True
30379,129875,0,129873,3112.0,42108.0,30815.0,-0.000793,0.001281,0.00061,0.35000000000000003,-1.1025,-3.7800000000000002,1.05709375,0.2083125,0.05740625,1.31853125,1.0267187500000001,-0.27259375,-0.4925625,1.2834375,0.01981272602974291,0.02245452063253896,True
30380,129876,0,129874,3114.0,42111.0,30815.0,-0.000183,0.000305,0.000244,0.385,-1.0675000000000001,-3.7450000000000006,1.06725,0.2048125,0.055625,1.31121875,1.02984375,-0.27296875,-0.4931875,1.28109375,0.019683675899759893,0.022406740649823547,True
30381,129877,0,129875,3114.0,42111.0,30816.0,0.001464,-0.001647,-0.000305,0.31500000000000006,-1.0675000000000001,-3.6925000000000003,1.0666875,0.20121875,0.054125,1.3185,1.02446875,-0.2715,-0.4933125,1.29346875,0.0194762890633047,0.02235048852620486,True
30382,129878,0,129876,3116.0,42111.0,30817.0,0.000793,0.000488,0.004697,0.2625,-1.1025,-3.9375000000000004,1.07278125,0.202875,0.055,1.3178125,1.0419375,-0.28290625,-0.5036875000000001,1.2974375,0.020005070439210713,0.022800139774880823,True
30383,129879,0,129877,3117.0,42111.0,30816.0,-0.0025009999999999998,-0.003538,-0.006954,0.43750000000000006,-1.3125000000000002,-3.9025000000000003,1.071625,0.20028125,0.056125,1.3178750000000001,1.03325,-0.27771875,-0.4925625,1.27634375,0.019688835055806056,0.02240220883380414,True
30384,129880,0,129878,3117.0,42112.0,30818.0,-0.005246,-0.00183,-0.013297999999999999,0.5950000000000001,-1.6800000000000002,-3.6050000000000004,1.0705625,0.20815625000000001,0.05328125,1.31871875,1.01965625,-0.26675,-0.4918125,1.2875,0.019570245294487313,0.022256162135815792,True
30385,129881,0,129879,3117.0,42110.0,30816.0,-0.005063,0.0057339999999999995,0.000549,0.42000000000000004,-1.7500000000000002,-3.8850000000000002,1.0721875,0.19984375000000001,0.05709375,1.315125,1.036,-0.283875,-0.49771875,1.30046875,0.01991933947938704,0.022647516924407498,True
30386,129882,0,129880,3120.0,42111.0,30821.0,0.003904,0.003965,0.018422,0.14,-1.5750000000000002,-4.0600000000000005,1.07175,0.20078125,0.05315625,1.3178750000000001,1.046,-0.28340625,-0.49115625,1.30046875,0.019939027293586542,0.02222485922852254,True
30387,129883,0,129881,3120.0,42114.0,30820.0,0.007137,-0.0013419999999999999,-0.005246,0.35000000000000003,-1.995,-3.7275000000000005,1.06653125,0.20375000000000001,0.05678125,1.3113125,1.03446875,-0.27946875,-0.49453125000000003,1.2794375,0.019902360919655627,0.022507575032692243,True
30388,129884,0,129882,3121.0,42113.0,30823.0,0.000488,0.005795,-0.010735999999999999,0.2625,-1.6625,-3.9200000000000004,1.06465625,0.20353125,0.05646875,1.312125,1.02353125,-0.2753125,-0.49171875000000004,1.27809375,0.019725544212870587,0.022382565535544543,True
30389,129885,0,129883,3120.0,42116.0,30824.0,-0.003721,0.005612,-0.0075639999999999995,0.3325,-1.3125000000000002,-3.9025000000000003,1.06484375,0.20421875,0.0555625,1.31278125,1.01584375,-0.2738125,-0.495,1.287375,0.019693290866443006,0.022476525821596243,True
30390,129886,0,129884,3123.0,42116.0,30824.0,0.0,-0.002623,0.000732,0.31500000000000006,-0.9450000000000001,-3.6575,1.070625,0.20225,0.0534375,1.3154375,1.0475,-0.28275,-0.5035000000000001,1.3011875,0.019973026119364568,0.022728895872018286,True
30391,129887,0,129885,3126.0,42114.0,30829.0,0.002745,-0.0060999999999999995,0.008967,0.28,-0.77,-3.6050000000000004,1.0554375,0.20309375000000002,0.05678125,1.3126875,1.0386875,-0.27396875,-0.48928125,1.27578125,0.01965325509451354,0.0222980206901744,True
30392,129888,0,129886,3127.0,42118.0,30830.0,-0.004514,0.000122,-0.003721,0.42000000000000004,-0.5950000000000001,-3.7275000000000005,1.064375,0.20409375,0.05665625,1.31221875,1.01,-0.26903125,-0.48596875,1.2713125,0.019495009715313625,0.022160650678768837,True
30393,129889,0,129887,3126.0,42117.0,30828.0,-0.004514,0.001647,-0.0050019999999999995,0.36750000000000005,-0.525,-3.6575,1.056375,0.20459375,0.0570625,1.3130625,1.0109062500000001,-0.2725,-0.48903125000000003,1.278375,0.019655731795241528,0.02229952440442086,True
30394,129890,0,129888,3128.0,42119.0,30827.0,0.000244,-0.000366,0.001281,0.3325,-0.4025,-3.6750000000000003,1.06503125,0.2034375,0.05640625,1.31171875,1.0215625,-0.27184375,-0.48815625,1.2770000000000001,0.01958158823430956,0.022237790972932072,True
30395,129891,0,129889,3127.0,42117.0,30829.0,0.002806,-0.003965,0.005307,0.3325,-0.5075000000000001,-3.7100000000000004,1.064,0.20371875,0.05625,1.3065625,1.01896875,-0.2683125,-0.49103125000000003,1.2806250000000001,0.019450518036637283,0.022346190505963284,True
30396,129892,0,129890,3129.0,42117.0,30829.0,-0.000122,-0.001586,0.001647,0.385,-0.525,-3.8150000000000004,1.0697812500000001,0.2006875,0.05621875,1.31628125,1.02284375,-0.274125,-0.49462500000000004,1.287125,0.019560437296915954,0.022488352036416158,True
30397,129893,0,129891,3128.0,42116.0,30824.0,-0.00732,0.005124,-0.001403,0.47250000000000003,-0.7175,-4.0075,1.06484375,0.20396875,0.0564375,1.31303125,1.0291875,-0.27565625,-0.49040625,1.281,0.019757447339863364,0.022328896647028872,True
30398,129894,0,129892,3126.0,42113.0,30821.0,-0.0034159999999999998,0.000793,0.0018909999999999999,0.31500000000000006,-1.225,-3.8675,1.065,0.203125,0.0538125,1.31709375,1.02259375,-0.2721875,-0.4914375,1.28309375,0.019582598395797658,0.022262882691144608,True
30399,129895,0,129893,3124.0,42112.0,30817.0,0.001403,-0.001403,0.003904,0.3325,-1.5575,-3.8150000000000004,1.06765625,0.20246875,0.055031250000000004,1.3151875,1.02825,-0.27309375,-0.4930625,1.2801875,0.019592166738119237,0.022377509958176934,True
30400,129896,0,129894,3119.0,42109.0,30812.0,0.0042699999999999995,-0.000305,0.002196,0.42000000000000004,-2.1350000000000002,-3.8850000000000002,1.0675625,0.20325000000000001,0.0605625,1.3118750000000001,1.02340625,-0.2720625,-0.492,1.281125,0.019582699245274275,0.022560938265556097,True
30401,129897,0,129895,3116.0,42107.0,30808.0,0.004026,0.000305,-0.003477,0.28,-2.555,-3.8500000000000005,1.06478125,0.2033125,0.0566875,1.31228125,1.02275,-0.2664375,-0.49040625,1.28096875,0.019358012481230508,0.02233910472595774,True
30402,129898,0,129896,3109.0,42104.0,30802.0,0.002989,-0.001464,0.000915,0.4025,-2.6075000000000004,-3.8850000000000002,1.06409375,0.206625,0.05659375,1.312875,1.02709375,-0.27165625,-0.48975,1.28165625,0.01970534046270534,0.022309078287855125,True
30403,129899,0,129897,3105.0,42100.0,30798.0,0.0057339999999999995,-0.001769,0.000549,0.47250000000000003,-2.66,-3.99,1.06503125,0.20278125,0.05296875,1.32371875,1.0231875,-0.27153125,-0.4909375,1.28015625,0.019541927335136718,0.022208469969759222,True
30404,129900,0,129898,3099.0,42095.0,30792.0,0.003172,-6.1e-05,0.001952,0.5950000000000001,-2.4675000000000002,-3.99,1.07884375,0.19853125,0.056625,1.311125,1.02809375,-0.27037500000000003,-0.4906875,1.28846875,0.019320107332498983,0.02234778015112887,True
30405,129901,0,129899,3095.0,42093.0,30789.0,-0.002074,-0.000732,-0.001586,0.8225000000000001,-2.4675000000000002,-3.8325000000000005,1.06315625,0.20615625,0.05709375,1.30790625,1.02703125,-0.27571875,-0.49062500000000003,1.28046875,0.01985008167883804,0.022364425162689806,True
30406,129902,0,129900,3089.0,42091.0,30786.0,-0.0050019999999999995,0.00061,-0.002196,0.9975,-2.6075000000000004,-3.8500000000000005,1.05753125,0.20596875,0.055718750000000004,1.30403125,1.0225625,-0.27140625,-0.49021875000000004,1.280125,0.019668205256957456,0.022292063030265912,True
30407,129903,0,129901,3086.0,42087.0,30782.0,-0.001281,0.001281,0.0040869999999999995,0.8575,-2.6775,-3.8675,1.074625,0.1941875,0.049375,1.3233125000000001,1.02275,-0.2723125,-0.49134375,1.27975,0.01921942954549551,0.02207795356267457,True
30408,129904,0,129902,3084.0,42084.0,30778.0,0.0015249999999999999,-0.0013419999999999999,0.0013419999999999999,0.7525000000000001,-2.9575000000000005,-3.8850000000000002,1.08053125,0.20034375000000001,0.05659375,1.31290625,1.02353125,-0.27259375,-0.49493750000000003,1.2850625,0.019484423661974733,0.02251613215996163,True
30409,129905,0,129903,3079.0,42084.0,30777.0,0.001769,-0.00122,-0.00244,0.7000000000000001,-3.1850000000000005,-3.7975000000000003,1.05965625,0.20800000000000002,0.06365625,1.304375,1.02946875,-0.27453125,-0.49496875,1.28821875,0.01987808724421816,0.022805703722320526,True
30410,129906,0,129904,3076.0,42081.0,30773.0,0.002928,0.00183,-0.0034159999999999998,0.5775,-3.2025,-3.9375000000000004,1.06165625,0.19993750000000002,0.0565,1.326875,1.02784375,-0.274,-0.4958125,1.27965625,0.019524491225179203,0.022547221081154176,True
30411,129907,0,129905,3075.0,42081.0,30772.0,0.002013,-0.00122,-0.00183,0.4025,-2.9225000000000003,-3.9550000000000005,1.0760625,0.193625,0.047625,1.3239687500000001,1.02284375,-0.27228125000000003,-0.4919375,1.28021875,0.019194992230077264,0.022030208920792816,True
30412,129908,0,129906,3073.0,42080.0,30770.0,0.00488,-0.002623,-0.001464,0.21000000000000002,-2.6075000000000004,-3.7100000000000004,1.08178125,0.20225,0.06003125,1.307625,1.0230625,-0.27278125000000003,-0.49378125,1.286875,0.01957053232208402,0.022610330938592833,True
30413,129909,0,129907,3073.0,42079.0,30769.0,0.0040869999999999995,-0.000122,-0.0017079999999999999,0.2625,-2.1700000000000004,-3.8850000000000002,1.0585,0.20971875,0.05825,1.3062500000000001,1.0310625,-0.2728125,-0.4860625,1.28059375,0.019879494805144646,0.022229482588309167,True
30414,129910,0,129908,3073.0,42079.0,30766.0,0.001281,0.001769,0.001586,0.24500000000000002,-1.5925000000000002,-3.9200000000000004,1.0581875,0.205375,0.05965625,1.30575,1.0210625,-0.27325,-0.4908125,1.28128125,0.019718208315738516,0.022476540947753365,True
30415,129911,0,129909,3072.0,42077.0,30766.0,-0.0018909999999999999,0.000244,0.0011589999999999999,0.28,-1.12,-3.9375000000000004,1.0584375,0.205875,0.059187500000000004,1.30653125,1.0195,-0.27184375,-0.48628125,1.278,0.019682013238075495,0.022276504318106693,True
30416,129912,0,129910,3071.0,42076.0,30765.0,-0.002928,-0.000793,0.000122,0.28,-0.9275000000000001,-3.8325000000000005,1.05875,0.205625,0.05859375,1.3098750000000001,1.01384375,-0.27209375,-0.49128125,1.2815,0.019681810515419586,0.02245186743751922,True
30417,129913,0,129911,3069.0,42080.0,30768.0,-0.002928,0.001952,-0.000122,0.36750000000000005,-0.6825000000000001,-3.8150000000000004,1.062625,0.20215625,0.052125,1.32059375,1.01328125,-0.2725,-0.49178125,1.27984375,0.01955530950664332,0.022207704880591324,True
30418,129914,0,129912,3071.0,42080.0,30767.0,-0.002623,0.0011589999999999999,0.0017079999999999999,0.35000000000000003,-0.77,-3.7975000000000003,1.07040625,0.2028125,0.0539375,1.31284375,1.0289375,-0.2731875,-0.49290625,1.28703125,0.019610115070383734,0.02232661752828944,True
30419,129915,0,129913,3071.0,42081.0,30768.0,-0.003111,-0.000366,0.002013,0.31500000000000006,-0.8575,-3.6925000000000003,1.0548125,0.20421875,0.05675,1.3118125,1.02896875,-0.27184375,-0.49134375,1.281125,0.019613775735516592,0.022379080363853047,True
30420,129916,0,129914,3070.0,42080.0,30767.0,-0.002013,-0.000732,0.000488,0.3325,-1.2075,-3.8675,1.0705625,0.205375,0.055031250000000004,1.3133125,1.02303125,-0.27240625,-0.49221875,1.274375,0.0196841320583945,0.02234383114024735,True
30421,129917,0,129915,3072.0,42080.0,30770.0,0.000915,-0.000549,-0.0006709999999999999,0.29750000000000004,-1.4525000000000001,-3.7800000000000002,1.064,0.20371875,0.0555625,1.31321875,1.0219375,-0.27037500000000003,-0.49146875,1.28121875,0.01953384527433136,0.02233558369177022,True
30422,129918,0,129916,3070.0,42081.0,30769.0,0.001098,-0.001403,-0.000488,0.24500000000000002,-1.7325000000000002,-3.8150000000000004,1.0678750000000001,0.20296875,0.0538125,1.3196875000000001,1.02284375,-0.270625,-0.4925,1.2843125,0.01951304303041228,0.022305297540063284,True
30423,129919,0,129917,3073.0,42085.0,30771.0,0.001647,-0.0015249999999999999,-0.000305,0.29750000000000004,-1.8725000000000003,-3.7100000000000004,1.06975,0.20400000000000001,0.056875,1.31153125,1.0205312500000001,-0.27418750000000003,-0.491375,1.2866250000000001,0.019699423513145395,0.022385431606024568,True
30424,129920,0,129918,3072.0,42082.0,30773.0,0.0025009999999999998,0.000122,0.0,0.3325,-1.7500000000000002,-3.8150000000000004,1.06371875,0.20265625,0.055343750000000004,1.31746875,1.01365625,-0.272,-0.488,1.2863437500000001,0.019555712343441004,0.02218816359032996,True
30425,129921,0,129919,3074.0,42082.0,30773.0,0.003721,0.001464,0.003111,0.14,-1.4875,-3.9550000000000005,1.06846875,0.2045625,0.05746875,1.31225,1.02928125,-0.27603125,-0.4909375,1.28084375,0.019797047756725063,0.022392211404728787,True
30426,129922,0,129920,3075.0,42084.0,30774.0,-0.004148,0.000122,-0.005307,0.43750000000000006,-1.2600000000000002,-3.7625,1.06546875,0.200125,0.0543125,1.31878125,1.0229375,-0.273,-0.49353125000000003,1.28690625,0.01949182218926379,0.022366874927436203,True
30427,129923,0,129921,3074.0,42083.0,30773.0,-0.001037,0.003721,-0.001647,0.29750000000000004,-0.8925000000000001,-3.9025000000000003,1.05965625,0.20515625,0.05759375,1.3121875,1.0314375,-0.27378125000000003,-0.49090625,1.28015625,0.019730650740704028,0.0223960679282744,True
30428,129924,0,129922,3073.0,42083.0,30775.0,-0.000549,0.002806,0.012139,0.49000000000000005,-0.7175,-3.99,1.0561875,0.20146875,0.05409375,1.31203125,1.0224375,-0.27253125,-0.490375,1.28696875,0.019528247594696162,0.022231948265389975,True
30429,129925,0,129923,3075.0,42083.0,30773.0,0.003111,-0.002257,0.0064659999999999995,0.3325,-0.6475000000000001,-3.8675,1.06453125,0.20409375,0.05403125,1.31884375,1.02259375,-0.2723125,-0.49243750000000003,1.28725,0.019627559178796827,0.0223117339791109,True
30430,129926,0,129924,3075.0,42084.0,30775.0,0.000549,-0.001586,0.003172,0.5075000000000001,-0.77,-3.8850000000000002,1.0726875,0.2040625,0.0560625,1.3121875,1.0238125,-0.27703125,-0.49096875,1.2814375,0.019816827891589915,0.022336039688099312,True
30431,129927,0,129925,3076.0,42083.0,30774.0,-0.005124,0.002623,-0.0042699999999999995,0.5950000000000001,-0.9800000000000001,-3.8500000000000005,1.06478125,0.20440625,0.059750000000000004,1.3079375,1.0227187500000001,-0.2720625,-0.4869375,1.2809375,0.019630336317731548,0.02232567874198233,True
30432,129928,0,129926,3077.0,42084.0,30774.0,-0.003477,0.000488,6.1e-05,0.5950000000000001,-1.0150000000000001,-3.6750000000000003,1.06428125,0.2003125,0.055156250000000004,1.312,1.02240625,-0.27525,-0.49543750000000003,1.28775,0.019590426463167217,0.022477400128085075,True
30433,129929,0,129927,3075.0,42085.0,30775.0,-0.0011589999999999999,-0.0028669999999999998,0.009516,0.56,-1.2600000000000002,-3.5700000000000003,1.06628125,0.2008125,0.055656250000000004,1.31521875,1.030125,-0.27418750000000003,-0.49215625,1.2806875,0.019568111188067575,0.022366854694551446,True
30434,129930,0,129928,3076.0,42086.0,30775.0,0.002257,-0.002806,0.0028669999999999998,0.45500000000000007,-1.5050000000000001,-3.5700000000000003,1.06484375,0.20434375,0.06053125,1.31046875,1.0226875,-0.27234375,-0.4918125,1.2743125,0.019639121170570928,0.022552179427308614,True
30435,129931,0,129929,3076.0,42086.0,30772.0,-0.000122,0.000488,-0.0037819999999999998,0.4025,-1.8900000000000001,-3.6050000000000004,1.06421875,0.20434375,0.0570625,1.31278125,1.0225312500000001,-0.27,-0.49134375,1.28096875,0.01954444787803873,0.022391839974072472,True
30436,129932,0,129930,3076.0,42085.0,30773.0,0.002196,0.000366,-0.001098,0.385,-1.7675,-3.7275000000000005,1.06421875,0.20415625,0.0573125,1.30465625,1.0225,-0.27209375,-0.49112500000000003,1.2881562500000001,0.019621298636422747,0.02239331594608251,True
30437,129933,0,129931,3077.0,42085.0,30772.0,0.006405,-0.001586,0.001464,0.29750000000000004,-1.3825,-3.6225000000000005,1.06771875,0.2033125,0.055531250000000004,1.31575,1.02984375,-0.27568750000000003,-0.495375,1.28584375,0.01973167598240009,0.02249021498956436,True
30438,129934,0,129932,3076.0,42084.0,30774.0,0.004758,-0.000488,0.001281,0.31500000000000006,-0.9450000000000001,-3.6925000000000003,1.06721875,0.204625,0.05703125,1.31353125,1.03065625,-0.27725,-0.49490625,1.28953125,0.019848829665633463,0.022532745966316974,True
30439,129935,0,129933,3079.0,42084.0,30773.0,-0.000915,0.0015249999999999999,-0.001403,0.3325,-0.6300000000000001,-3.8500000000000005,1.06815625,0.2023125,0.0564375,1.31228125,1.0349375,-0.2749375,-0.49384375,1.2846875,0.019660194799677653,0.022466104365510213,True
30440,129936,0,129934,3079.0,42085.0,30775.0,-0.004941,0.00183,-0.002745,0.49000000000000005,-0.5775,-3.8675,1.065125,0.20821875,0.0569375,1.3115625,1.02859375,-0.271125,-0.485,1.2784375000000001,0.019749548074100398,0.022133449050439045,True
30441,129937,0,129935,3077.0,42086.0,30776.0,-0.004392,-0.000122,0.004697,0.5425000000000001,-0.525,-3.6225000000000005,1.0646875,0.2050625,0.05659375,1.31321875,1.0225625,-0.2740625,-0.49078125,1.28521875,0.019738146426870246,0.022350246585130882,True
30442,129938,0,129936,3079.0,42086.0,30774.0,-0.002623,-0.001952,0.002806,0.5075000000000001,-0.9100000000000001,-3.7275000000000005,1.06546875,0.20528125,0.05365625,1.3365,1.02590625,-0.27534375,-0.49678125,1.2886875,0.019798895741692635,0.022469788760513178,True
30443,129939,0,129937,3081.0,42087.0,30775.0,-0.001098,-0.00042699999999999997,-0.000366,0.525,-1.4525000000000001,-3.7100000000000004,1.090875,0.19843750000000002,0.0539375,1.30965625,1.01009375,-0.27140625,-0.4891875,1.2791875,0.019357912152288253,0.022178155155208802,True
30444,129940,0,129938,3080.0,42084.0,30773.0,0.000183,0.00122,-0.0028669999999999998,0.525,-1.7500000000000002,-3.7275000000000005,1.06115625,0.20021875,0.05228125,1.30728125,1.02028125,-0.27175,-0.483125,1.27815625,0.01944518833623451,0.021868378730247877,True
30445,129941,0,129939,3080.0,42085.0,30775.0,0.0021349999999999997,0.0008539999999999999,-0.000915,0.35000000000000003,-1.8725000000000003,-3.6750000000000003,1.0601875,0.2015,0.05675,1.30159375,1.0205312500000001,-0.27184375,-0.48934375,1.2689062500000001,0.019501763231316124,0.02229923984794407,True
30446,129942,0,129940,3083.0,42085.0,30777.0,0.004514,-0.001098,-0.0008539999999999999,0.3325,-1.7500000000000002,-3.6750000000000003,1.05190625,0.208875,0.06453125,1.30240625,1.02421875,-0.27575,-0.49293750000000003,1.288875,0.019963337898932062,0.0227603875606999,True
30447,129943,0,129941,3083.0,42084.0,30777.0,0.0021349999999999997,-0.000183,-0.00061,0.28,-1.5925000000000002,-3.8675,1.0521875,0.214625,0.06371875,1.3024375000000001,1.03509375,-0.2784375,-0.49215625,1.2915,0.020308658660591318,0.0226960417174376,True
30448,129944,0,129942,3084.0,42087.0,30778.0,-0.001769,0.0006709999999999999,-0.001037,0.24500000000000002,-1.5225000000000002,-3.8675,1.0561875,0.20915625000000002,0.0615625,1.31809375,1.03321875,-0.27796875,-0.49534375,1.2889375,0.020064487479002954,0.022735188192653962,True
30449,129945,0,129943,3085.0,42087.0,30780.0,-0.001281,-0.000488,-0.0013419999999999999,0.28,-1.4700000000000002,-3.7975000000000003,1.0645625,0.1983125,0.053875,1.32265625,1.03125,-0.276125,-0.49184375,1.28065625,0.01954337852519708,0.022281652437865156,True
30450,129946,0,129944,3085.0,42088.0,30781.0,-0.000915,-0.000183,0.001403,0.385,-1.3650000000000002,-3.7100000000000004,1.0774375,0.19815625,0.05165625,1.3266875,1.02925,-0.2758125,-0.49546875,1.288,0.019524320761663487,0.02233576362975295,True
30451,129947,0,129945,3086.0,42087.0,30782.0,-0.00366,-0.000183,-0.000305,0.36750000000000005,-1.5225000000000002,-3.7800000000000002,1.0579375,0.21225,0.06253125,1.302375,1.0279375,-0.27418750000000003,-0.4933125,1.284875,0.020039290707464463,0.02269369445231224,True
30452,129948,0,129946,3088.0,42088.0,30781.0,-0.002745,0.000488,0.00042699999999999997,0.385,-1.5925000000000002,-3.7100000000000004,1.0463437500000001,0.20750000000000002,0.06171875,1.3018750000000001,1.02584375,-0.27215625,-0.49065625,1.2805,0.01976158381066783,0.022554520155008098,True
30453,129949,0,129947,3088.0,42087.0,30783.0,0.000488,0.0008539999999999999,0.000549,0.28,-1.8550000000000002,-3.8150000000000004,1.05240625,0.2036875,0.059937500000000005,1.3159375,1.0249062500000001,-0.27390625,-0.4945,1.28490625,0.019675191338435694,0.022635183408520283,True
30454,129950,0,129948,3090.0,42089.0,30784.0,0.002806,0.000366,0.000488,0.22750000000000004,-2.0300000000000002,-3.7975000000000003,1.0715000000000001,0.198,0.05171875,1.31315625,1.0267187500000001,-0.27465625,-0.49203125000000003,1.28125,0.01947118200695427,0.022201098571601734,True
30455,129951,0,129949,3089.0,42091.0,30786.0,0.002623,-0.001464,0.000488,0.29750000000000004,-2.1,-3.7800000000000002,1.06265625,0.20725000000000002,0.05575,1.31221875,1.0225,-0.27296875,-0.4911875,1.27996875,0.019784096249042468,0.02233201227992722,True
30456,129952,0,129950,3089.0,42090.0,30785.0,0.002074,0.000244,-0.002379,0.24500000000000002,-1.9775000000000003,-3.7800000000000002,1.06453125,0.20415625,0.05703125,1.3116875000000001,1.02275,-0.27225,-0.4915,1.2809375,0.019627609718917697,0.022396800930935226,True
30457,129953,0,129951,3091.0,42093.0,30787.0,0.00122,0.000915,0.000976,0.31500000000000006,-1.7675,-3.9375000000000004,1.0545625,0.20384375000000002,0.055718750000000004,1.31271875,1.01371875,-0.27221875,-0.49115625,1.281,0.0196134727073519,0.022329488833341626,True
30458,129954,0,129952,3092.0,42092.0,30788.0,0.000915,-0.000305,0.001952,0.31500000000000006,-1.6800000000000002,-3.8500000000000005,1.061,0.2031875,0.0571875,1.31665625,1.02353125,-0.27278125000000003,-0.491875,1.28078125,0.019609155831699344,0.022418148875902724,True
30459,129955,0,129953,3093.0,42093.0,30786.0,0.0006709999999999999,-0.001403,0.000244,0.29750000000000004,-1.5225000000000002,-3.7975000000000003,1.0695000000000001,0.20025,0.05428125,1.31784375,1.01628125,-0.27515625,-0.49543750000000003,1.27990625,0.019584065499063472,0.022441679190257368,True
30460,129956,0,129954,3093.0,42091.0,30789.0,-0.002074,0.0,-0.000732,0.22750000000000004,-1.33,-3.9025000000000003,1.07103125,0.20375000000000001,0.06321875,1.31225,1.029375,-0.2729375,-0.49334375,1.27921875,0.019638640770199323,0.022723010205578813,True
30461,129957,0,129955,3095.0,42095.0,30788.0,-0.00366,0.000976,0.00122,0.29750000000000004,-1.2600000000000002,-3.9025000000000003,1.065,0.20390625,0.05625,1.3117812500000001,1.0228125000000001,-0.2720625,-0.4908125,1.27828125,0.01960973650261489,0.022337458179470363,True
30462,129958,0,129956,3094.0,42096.0,30789.0,-0.00061,0.000122,0.0018909999999999999,0.1925,-1.4700000000000002,-3.8850000000000002,1.0676875000000001,0.20075,0.05625,1.31446875,1.0227187500000001,-0.27609375,-0.49490625,1.28096875,0.01964252383067189,0.022500851580111683,True
30463,129959,0,129957,3097.0,42096.0,30790.0,0.0,-0.0018909999999999999,-0.0006709999999999999,0.14,-1.6625,-3.9025000000000003,1.0651875,0.20446875,0.05678125,1.313125,1.02375,-0.27137500000000003,-0.49071875000000004,1.281,0.01960514185949498,0.0223554075970106,True
30464,129960,0,129958,3099.0,42095.0,30789.0,0.0011589999999999999,-0.001281,-0.0015249999999999999,0.2625,-1.8025000000000002,-3.8150000000000004,1.06528125,0.20403125,0.05678125,1.3125625,1.02375,-0.27159375,-0.49115625,1.28009375,0.019595952573159724,0.022372871840217832,True
30465,129961,0,129959,3096.0,42096.0,30789.0,0.001647,0.001281,-0.000305,0.28,-1.9075000000000002,-3.8325000000000005,1.07078125,0.201125,0.055,1.311625,1.0218125,-0.2744375,-0.49546875,1.280375,0.01959108218264584,0.022472268468020234,True
30466,129962,0,129960,3100.0,42095.0,30792.0,0.0021349999999999997,-0.000549,-0.000305,0.21000000000000002,-1.9600000000000002,-3.6400000000000006,1.0645,0.2039375,0.05684375,1.312875,1.021875,-0.27125,-0.49153125000000003,1.28084375,0.01957820466601432,0.02239039259744121,True
30467,129963,0,129961,3099.0,42098.0,30794.0,0.004331,-0.000305,-0.001769,0.29750000000000004,-1.8375000000000001,-3.8150000000000004,1.05365625,0.20271875,0.055281250000000004,1.31884375,1.0233125,-0.27265625,-0.4925625,1.28753125,0.019584795133412724,0.022367759600490967,True
30468,129964,0,129962,3102.0,42098.0,30794.0,0.000488,0.0015249999999999999,-0.000183,0.21000000000000002,-1.61,-3.9025000000000003,1.0696875000000001,0.20034375000000001,0.05775,1.3144375,1.02178125,-0.2755,-0.4925625,1.28184375,0.019601810467343616,0.022468555505370254,True
30469,129965,0,129963,3102.0,42099.0,30795.0,-0.004514,0.000732,0.002257,0.12250000000000001,-1.2775,-3.8500000000000005,1.068375,0.2023125,0.054875,1.31953125,1.02421875,-0.27390625,-0.49446875,1.2856875,0.019618546149736408,0.022427257174132426,True
30470,129966,0,129964,3104.0,42099.0,30796.0,-0.005246,-0.001647,0.002623,0.035,-1.3650000000000002,-3.8150000000000004,1.0694062500000001,0.20046875,0.053625,1.31921875,1.02803125,-0.2731875,-0.49375,1.2836875,0.019513557912408497,0.02234753763715234,True
30471,129967,0,129965,3104.0,42098.0,30797.0,0.001281,-0.00183,0.000976,0.14,-1.7850000000000001,-3.8325000000000005,1.0716875000000001,0.20190625,0.0543125,1.31715625,1.028375,-0.27371875,-0.4909375,1.2858125,0.019594237079969462,0.022263337203812635,True
30472,129968,0,129966,3104.0,42098.0,30798.0,-0.000549,0.001098,-0.000976,0.31500000000000006,-2.0475000000000003,-3.9375000000000004,1.06965625,0.20459375,0.0576875,1.312875,1.0279375,-0.2733125,-0.49121875000000004,1.2815625,0.019688546835130143,0.022412369739664345,True
30473,129969,0,129967,3104.0,42099.0,30799.0,0.000183,0.001281,-0.001098,0.29750000000000004,-2.2225,-3.8325000000000005,1.0650625,0.20496875,0.05684375,1.31253125,1.0231875,-0.27137500000000003,-0.49075,1.2805,0.0196257422581127,0.022359207047558772,True
30474,129970,0,129968,3106.0,42102.0,30800.0,0.002196,0.000305,-0.000366,0.15750000000000003,-2.1700000000000004,-3.7800000000000002,1.06425,0.20959375,0.05709375,1.3121875,1.02334375,-0.272,-0.49128125,1.2806250000000001,0.019841535514172712,0.022390621152170227,True
30475,129971,0,129969,3108.0,42100.0,30801.0,0.00488,0.000732,-0.00183,0.15750000000000003,-2.1,-3.7275000000000005,1.06490625,0.20450000000000002,0.057,1.3125625,1.02371875,-0.2680625,-0.49121875000000004,1.28140625,0.01947260931934719,0.022384298453910143,True
30476,129972,0,129970,3106.0,42101.0,30802.0,0.0013419999999999999,-0.000244,0.000305,0.36750000000000005,-1.4525000000000001,-3.6400000000000006,1.0650625,0.2044375,0.0568125,1.31259375,1.02259375,-0.2695,-0.49046875,1.27840625,0.019528111415562745,0.022346703755925457,True
30477,129973,0,129971,3109.0,42101.0,30802.0,-0.000488,0.000793,-0.001464,0.36750000000000005,-1.2600000000000002,-3.7625,1.0643125,0.20403125,0.05659375,1.3185625,1.02315625,-0.27546875,-0.49328125,1.29578125,0.01975245071220303,0.022450034129257387,True
30478,129974,0,129972,3110.0,42100.0,30804.0,-0.002257,0.000793,-0.000305,0.42000000000000004,-0.9100000000000001,-3.6925000000000003,1.068125,0.202,0.054125,1.31934375,1.0375625,-0.280375,-0.49790625,1.2956875,0.019866867789315446,0.022533813476406785,True
30479,129975,0,129973,3112.0,42102.0,30805.0,-0.0035989999999999998,-0.000488,0.0018909999999999999,0.35000000000000003,-0.6125,-3.7275000000000005,1.0715937500000001,0.20153125,0.0543125,1.319625,1.0366250000000001,-0.2739375,-0.495,1.2903125,0.019587623557158786,0.022425494998979383,True
30480,129976,0,129974,3113.0,42102.0,30805.0,-0.002013,-0.0006709999999999999,0.0026839999999999998,0.4025,-0.525,-3.5875000000000004,1.07125,0.20246875,0.0574375,1.312625,1.02203125,-0.26821875,-0.4875,1.2729062500000001,0.019395222403786848,0.022253700867789685,True
30481,129977,0,129975,3114.0,42102.0,30807.0,-0.002623,-0.0006709999999999999,0.001464,0.2625,-0.665,-3.5700000000000003,1.0643125,0.20365625,0.0573125,1.31128125,1.01184375,-0.27009375,-0.48165625,1.28459375,0.019519908117371816,0.022015207815034982,True
30482,129978,0,129976,3113.0,42103.0,30807.0,-0.002806,-0.001586,-0.001037,0.29750000000000004,-0.8575,-3.6750000000000003,1.0657812500000001,0.20025,0.05396875,1.31909375,1.03678125,-0.2779375,-0.49915625,1.279125,0.01969638071603076,0.0225773081470918,True
30483,129979,0,129977,3114.0,42100.0,30803.0,-0.0013419999999999999,-0.0008539999999999999,-0.0008539999999999999,0.385,-1.0675000000000001,-3.6225000000000005,1.0645,0.20515625,0.0565625,1.31671875,1.01678125,-0.27009375,-0.49021875000000004,1.2903437500000001,0.019581712575790937,0.022326515560421444,True
30484,129980,0,129978,3114.0,42100.0,30802.0,0.001769,0.0,-0.000732,0.2625,-1.2075,-3.6925000000000003,1.0616875000000001,0.207875,0.0543125,1.31184375,1.04196875,-0.2750625,-0.49325,1.2758125,0.019894387501576977,0.022355649005338207,True
30485,129981,0,129979,3110.0,42096.0,30800.0,0.001037,0.001037,6.1e-05,0.24500000000000002,-1.2425000000000002,-3.9725000000000006,1.064875,0.20434375,0.0566875,1.31240625,1.00621875,-0.2695625,-0.4885625,1.2753125,0.019526773504878796,0.022265496392448517,True
30486,129982,0,129980,3108.0,42094.0,30797.0,-0.000793,0.001769,0.000244,0.15750000000000003,-1.33,-3.9550000000000005,1.0581875,0.2041875,0.057125,1.31203125,1.0167187500000001,-0.27125,-0.488875,1.27484375,0.0195885049183705,0.022295838416423786,True
30487,129983,0,129981,3105.0,42094.0,30793.0,-0.000793,0.000915,0.000183,0.15750000000000003,-1.3475000000000001,-3.9025000000000003,1.0525,0.20446875,0.056,1.31146875,1.01575,-0.27003125,-0.48878125,1.2799375,0.01955086069367958,0.022246156084227343,True
30488,129984,0,129982,3099.0,42091.0,30788.0,-0.0008539999999999999,0.001281,0.0015249999999999999,0.15750000000000003,-1.4525000000000001,-3.99,1.0624375,0.2036875,0.05625,1.31546875,1.02028125,-0.2725,-0.492,1.2810625,0.01961839530332681,0.022384860362567368,True
30489,129985,0,129983,3096.0,42089.0,30784.0,0.001037,0.000305,0.002013,0.08750000000000001,-1.6275000000000002,-3.99,1.07128125,0.2065625,0.0575,1.31203125,1.01903125,-0.27434375,-0.49112500000000003,1.281625,0.019811297679262697,0.02240097178059399,True
30490,129986,0,129984,3090.0,42087.0,30778.0,-0.000915,0.0006709999999999999,-0.000183,0.10500000000000001,-1.995,-3.8500000000000005,1.0641875,0.2015,0.058937500000000004,1.308375,1.0233125,-0.27265625,-0.4936875,1.28525,0.019534584312337056,0.022561935600754278,True
30491,129987,0,129985,3086.0,42083.0,30775.0,-0.000732,0.0011589999999999999,0.000122,0.052500000000000005,-2.1350000000000002,-3.9025000000000003,1.0720625,0.20125,0.053625,1.3166875,1.022125,-0.27518750000000003,-0.49553125000000003,1.286375,0.019626521937266193,0.022418629928673217,True
30492,129988,0,129986,3080.0,42083.0,30771.0,0.002196,-0.001464,-0.000976,0.10500000000000001,-2.31,-3.7625,1.0714062500000001,0.203,0.05721875,1.313,1.03153125,-0.2721875,-0.49415625,1.280875,0.019577448468540384,0.022510471247606256,True
30493,129989,0,129987,3079.0,42082.0,30768.0,0.002623,-0.0018909999999999999,-0.001037,0.035,-2.3800000000000003,-3.7625,1.065125,0.20403125,0.05715625,1.3118125,1.02434375,-0.27240625,-0.49228125,1.27465625,0.019628770839314705,0.02243308797542083,True
30494,129990,0,129988,3076.0,42078.0,30765.0,0.002196,-0.000732,-0.0011589999999999999,-0.052500000000000005,-2.2575000000000003,-3.7450000000000006,1.0700625,0.20290625,0.0550625,1.316,1.01384375,-0.27603125,-0.49365625,1.2878125,0.019728822024810997,0.02240248431672997,True
30495,129991,0,129989,3073.0,42077.0,30763.0,0.0026839999999999998,-0.000976,-0.000366,0.052500000000000005,-1.8900000000000001,-3.7275000000000005,1.0659687500000001,0.2038125,0.05721875,1.2998750000000001,1.028,-0.27259375,-0.49040625,1.28078125,0.019627331751473822,0.022360796893681582,True
30496,129992,0,129990,3071.0,42076.0,30764.0,0.004209,-0.000488,0.001098,0.08750000000000001,-1.4525000000000001,-3.7275000000000005,1.071,0.20146875,0.0534375,1.312625,1.023375,-0.27340625,-0.494,1.277875,0.01956359132744297,0.022349861190495632,True
30497,129993,0,129991,3071.0,42078.0,30761.0,6.1e-05,-0.002928,-0.0046359999999999995,0.10500000000000001,-1.1025,-3.8325000000000005,1.06484375,0.20425000000000001,0.05659375,1.31828125,1.0228125000000001,-0.27203125,-0.49209375,1.2816875,0.019622636650980744,0.022402637585853598,True
30498,129994,0,129992,3071.0,42075.0,30760.0,-0.0060999999999999995,-0.00042699999999999997,-0.0030499999999999998,0.385,-0.9975,-3.6575,1.06496875,0.202,0.0569375,1.2998750000000001,1.0216875,-0.27596875,-0.4940625,1.2729375,0.019688967098377898,0.022495247572753604,True
30499,129995,0,129993,3071.0,42079.0,30761.0,-0.008052,0.0034159999999999998,0.00122,0.43750000000000006,-0.7875000000000001,-3.8500000000000005,1.0651875,0.1978125,0.05109375,1.3198125,1.02221875,-0.27359375,-0.49365625,1.28884375,0.019420538007479837,0.022240452566161903,True
30500,129996,0,129994,3071.0,42080.0,30761.0,6.1e-05,-0.0013419999999999999,0.004758,0.35000000000000003,-1.2075,-3.9375000000000004,1.06653125,0.20471875,0.0608125,1.3101875,1.0293125,-0.27303125,-0.4911875,1.28059375,0.019682337779711796,0.02253871928423234,True
30501,129997,0,129995,3071.0,42077.0,30761.0,0.000122,-0.00042699999999999997,-0.002623,0.36750000000000005,-1.6275000000000002,-3.9375000000000004,1.07615625,0.20028125,0.0548125,1.32221875,1.0224375,-0.27471875,-0.4950625,1.27384375,0.019567682941743658,0.02244840159113699,True
30502,129998,0,129996,3072.0,42078.0,30763.0,-0.002257,0.0026839999999999998,-0.00549,0.31500000000000006,-1.8375000000000001,-3.9550000000000005,1.0634375,0.20634375,0.05746875,1.30971875,1.03178125,-0.26646875000000003,-0.49109375,1.2825,0.019484190504644398,0.022398448415559224,True
30503,129999,0,129997,3073.0,42079.0,30763.0,-0.000305,0.0018909999999999999,-0.0023179999999999997,0.31500000000000006,-2.2225,-3.8850000000000002,1.06815625,0.2020625,0.05653125,1.32309375,1.0165,-0.273,-0.49178125,1.28775,0.01957164338977465,0.022387612170919582,True
30504,130000,0,129998,3072.0,42079.0,30763.0,0.003843,-0.001037,-0.000244,0.2625,-2.4325,-3.7275000000000005,1.0745,0.19965625,0.0529375,1.30115625,1.03109375,-0.27546875,-0.49490625,1.2863437500000001,0.019572227621763225,0.022365619382601228,True
30505,130001,0,129999,3075.0,42081.0,30764.0,0.0059169999999999995,-0.001769,6.1e-05,0.15750000000000003,-2.31,-3.7275000000000005,1.06225,0.204375,0.05734375,1.31071875,1.01746875,-0.2715625,-0.4910625,1.2807187500000001,0.019608852952915576,0.02239209711706056,True
30506,130002,0,130000,3075.0,42080.0,30765.0,0.0017079999999999999,-0.000183,-0.004148,0.385,-2.1875,-3.6750000000000003,1.0721875,0.20128125,0.0546875,1.31821875,1.02121875,-0.2665625,-0.49334375,1.286125,0.019279358170321816,0.022374701290018843,True
30507,130003,0,130001,3076.0,42080.0,30765.0,6.1e-05,0.0017079999999999999,-0.002196,0.5425000000000001,-1.7675,-3.6050000000000004,1.061625,0.204125,0.0485625,1.32021875,1.02646875,-0.2719375,-0.49190625,1.28521875,0.019613699977597585,0.022067239049635017,True
30508,130004,0,130002,3076.0,42082.0,30766.0,6.1e-05,0.0013419999999999999,0.002379,0.36750000000000005,-1.3650000000000002,-3.6400000000000006,1.06246875,0.20490625,0.05740625,1.311,1.027625,-0.2726875,-0.49084375,1.2805,0.01967617924467573,0.022385917185887075,True
30509,130005,0,130003,3076.0,42085.0,30768.0,-0.001769,-0.001586,0.0034159999999999998,0.47250000000000003,-1.155,-3.7275000000000005,1.07215625,0.20490625,0.053625,1.31790625,1.02284375,-0.27228125000000003,-0.49393750000000003,1.28309375,0.019659771369862487,0.022355021523183034,True
30510,130006,0,130004,3078.0,42082.0,30769.0,-0.003538,0.000549,-0.00183,0.3325,-0.8925000000000001,-3.8850000000000002,1.068,0.2048125,0.05828125,1.3113125,1.02559375,-0.2734375,-0.4909375,1.2806250000000001,0.019702607016414547,0.022425386941598294,True
30511,130007,0,130005,3079.0,42081.0,30769.0,-0.005246,0.0013419999999999999,-0.00122,0.35000000000000003,-0.8750000000000001,-3.8500000000000005,1.0639375,0.20490625,0.06121875,1.32015625,1.0227187500000001,-0.2721875,-0.4914375,1.28103125,0.019655984859213865,0.022565284295787053,True
30512,130008,0,130006,3079.0,42084.0,30771.0,-0.003843,0.000488,0.001281,0.29750000000000004,-1.0325000000000002,-3.8150000000000004,1.07209375,0.20459375,0.0569375,1.31271875,1.02725,-0.27609375,-0.489375,1.28171875,0.019800858612189203,0.02230814383788888,True
30513,130009,0,130007,3079.0,42085.0,30769.0,-0.00122,-0.000915,0.002806,0.2625,-1.3825,-3.7450000000000006,1.0729375,0.20134375000000002,0.05809375,1.3121875,1.0226875,-0.27578125000000003,-0.49275,1.27821875,0.01965436230811315,0.022490073593206154,True
30514,130010,0,130008,3080.0,42084.0,30770.0,0.00183,-0.00042699999999999997,0.000244,0.24500000000000002,-1.6800000000000002,-3.7625,1.064375,0.20625000000000002,0.05321875,1.3175937500000001,1.0130625,-0.27259375,-0.49384375,1.298,0.01972775365220291,0.022334693794231458,True
30515,130011,0,130009,3079.0,42085.0,30768.0,0.002562,0.0011589999999999999,-0.002013,0.22750000000000004,-2.205,-3.7100000000000004,1.0713125000000001,0.20059375000000002,0.05996875,1.3115,1.02646875,-0.26578125,-0.48859375,1.2745,0.019219451259167682,0.022400735036081847,True
30516,130012,0,130010,3081.0,42087.0,30771.0,0.004758,0.001281,-0.000976,0.1925,-2.1700000000000004,-3.6925000000000003,1.064125,0.2043125,0.0563125,1.313,1.0015625,-0.27134375,-0.49343750000000003,1.30053125,0.019597441942208083,0.02244478750685771,True
30517,130013,0,130011,3082.0,42084.0,30771.0,0.005429,-6.1e-05,0.000305,0.28,-1.9425000000000001,-3.7625,1.0705,0.2015,0.0543125,1.31375,1.04653125,-0.28340625,-0.49443750000000003,1.28328125,0.019968625694758126,0.022403045589432298,True
30518,130014,0,130012,3083.0,42086.0,30773.0,0.004575,-0.0011589999999999999,-0.000732,0.35000000000000003,-1.5925000000000002,-3.6750000000000003,1.06834375,0.20475000000000002,0.05696875,1.312625,1.02015625,-0.26709375,-0.485875,1.27078125,0.019443768374612227,0.022169669248086905,True
30519,130015,0,130013,3082.0,42087.0,30771.0,0.00122,-0.00042699999999999997,-0.002257,0.35000000000000003,-1.1375000000000002,-3.7100000000000004,1.06453125,0.20140625,0.058125,1.31746875,1.01825,-0.276875,-0.499,1.292,0.019701104446103544,0.022740724111188212,True
30520,130016,0,130014,3083.0,42087.0,30773.0,-0.003538,0.000244,0.0008539999999999999,0.43750000000000006,-0.2625,-3.6750000000000003,1.06475,0.2039375,0.056,1.31915625,1.01075,-0.2714375,-0.50015625,1.30146875,0.019585778551435198,0.022700110330929012,True
30521,130017,0,130015,3084.0,42086.0,30773.0,-0.004331,-6.1e-05,0.0018909999999999999,0.5075000000000001,-0.15750000000000003,-3.7275000000000005,1.06990625,0.2014375,0.0573125,1.31228125,1.0439375,-0.274875,-0.4839375,1.27578125,0.019621625240088772,0.02210632991527609,True
30522,130018,0,130016,3085.0,42089.0,30774.0,-0.0050019999999999995,0.000488,0.0032329999999999998,0.5775,-0.14,-3.7100000000000004,1.0644375,0.199625,0.05303125,1.31275,1.0420625000000001,-0.2780625,-0.49140625,1.27121875,0.01967568458150233,0.02222973619573192,True
30523,130019,0,130017,3085.0,42087.0,30774.0,-0.005856,0.0,0.001403,0.56,-0.35000000000000003,-3.7975000000000003,1.06478125,0.20409375,0.05328125,1.3174062500000001,1.01059375,-0.27259375,-0.49653125000000004,1.298,0.01963891889386564,0.02244450426016949,True
30524,130020,0,130018,3086.0,42088.0,30776.0,-0.0040869999999999995,0.00042699999999999997,-0.000732,0.5425000000000001,-0.6825000000000001,-3.7800000000000002,1.0715937500000001,0.20325000000000001,0.05759375,1.31278125,1.047125,-0.28134375,-0.47990625000000003,1.270875,0.01995745190173011,0.02195678343335159,True
30525,130021,0,130019,3088.0,42088.0,30777.0,0.002196,-6.1e-05,0.000793,0.43750000000000006,-1.4000000000000001,-3.7975000000000003,1.064625,0.19978125,0.05365625,1.32059375,1.0123125,-0.277875,-0.5014375,1.2920625000000001,0.019674549358211953,0.022655558474885398,True
30526,130022,0,130020,3088.0,42091.0,30777.0,0.001464,0.000305,-0.0017079999999999999,0.43750000000000006,-1.8550000000000002,-3.6925000000000003,1.0646875,0.20500000000000002,0.05709375,1.3039375,1.02346875,-0.26975,-0.4856875,1.27421875,0.019561388147797155,0.022167286501553203,True
30527,130023,0,130021,3089.0,42092.0,30779.0,0.00366,0.000244,-0.000183,0.36750000000000005,-1.9775000000000003,-3.6750000000000003,1.06975,0.20059375000000002,0.059750000000000004,1.31290625,1.023875,-0.277375,-0.4905625,1.284875,0.01968782662870265,0.022470390379967793,True
30528,130024,0,130022,3088.0,42092.0,30780.0,0.003355,0.0006709999999999999,-0.0023179999999999997,0.36750000000000005,-2.0125,-3.6925000000000003,1.065125,0.20359375000000002,0.053625,1.32084375,1.0231875,-0.2695625,-0.4913125,1.280875,0.019495870599233092,0.022250236691071578,True
30529,130025,0,130023,3090.0,42092.0,30782.0,0.003843,-0.00061,-0.001037,0.3325,-1.8725000000000003,-3.6575,1.064375,0.20415625,0.059000000000000004,1.31640625,1.031125,-0.272375,-0.4876875,1.2841875,0.019632658526411197,0.022324994959201434,True
30530,130026,0,130024,3092.0,42092.0,30781.0,0.000976,0.0008539999999999999,-0.000244,0.2625,-1.4000000000000001,-3.7975000000000003,1.0648125,0.20346875,0.0546875,1.3174062500000001,1.02796875,-0.2720625,-0.4914375,1.28590625,0.01959171166438781,0.0222986094630011,True
30531,130027,0,130025,3093.0,42093.0,30782.0,-0.0018909999999999999,0.000366,-6.1e-05,0.28,-1.0325000000000002,-3.8500000000000005,1.0650625,0.20375000000000001,0.0549375,1.31671875,1.0286875,-0.272,-0.49134375,1.2875,0.01960077455504285,0.02230507462458037,True
30532,130028,0,130026,3093.0,42094.0,30783.0,-0.002928,-0.0006709999999999999,0.000915,0.14,-0.8225000000000001,-3.7975000000000003,1.06453125,0.20303125,0.05675,1.3155000000000001,1.03046875,-0.26884375,-0.4893125,1.2810625,0.01944365396476707,0.02229799223640925,True
30533,130029,0,130027,3094.0,42097.0,30784.0,-0.002379,0.0006709999999999999,0.001098,0.28,-0.7875000000000001,-3.8150000000000004,1.06790625,0.20365625,0.057,1.30175,1.0226250000000001,-0.27603125,-0.494375,1.2809062500000001,0.019759716695866424,0.022510270215100405,True
30534,130030,0,130028,3096.0,42096.0,30788.0,-0.003721,-0.00122,0.0013419999999999999,0.14,-0.9275000000000001,-3.7275000000000005,1.068875,0.2015625,0.05778125,1.313,1.0224375,-0.27465625,-0.49434375,1.288125,0.019617940006874456,0.022540918247707698,True
30535,130031,0,130029,3098.0,42095.0,30786.0,-0.003172,-6.1e-05,-0.000793,0.3325,-1.6275000000000002,-3.7275000000000005,1.0645625,0.2019375,0.05684375,1.31271875,1.02234375,-0.273,-0.4925,1.2881562500000001,0.019566493634902978,0.022429059916300908,True
30536,130032,0,130030,3099.0,42097.0,30788.0,0.0,0.001464,0.000793,0.4025,-1.8900000000000001,-3.8150000000000004,1.0646875,0.2033125,0.05290625,1.31465625,1.02325,-0.27187500000000003,-0.49215625,1.28840625,0.01957770052787434,0.02225457384953601,True
30537,130033,0,130031,3101.0,42097.0,30788.0,0.002013,6.1e-05,-0.00061,0.42000000000000004,-2.1525000000000003,-3.8500000000000005,1.06521875,0.205375,0.04678125,1.3305625,1.0305625,-0.264125,-0.4844375,1.2805,0.019349554125689675,0.021696179460933097,True
30538,130034,0,130032,3100.0,42099.0,30789.0,0.002989,-0.000122,-0.0015249999999999999,0.31500000000000006,-2.345,-3.7975000000000003,1.07203125,0.20650000000000002,0.059375000000000004,1.3078125,1.0248125000000001,-0.2763125,-0.49428125,1.287625,0.01988821407699378,0.022603490355529415,True
30539,130035,0,130033,3103.0,42098.0,30790.0,0.004575,-0.000915,-0.000305,0.29750000000000004,-2.2750000000000004,-3.7100000000000004,1.058875,0.2030625,0.055968750000000005,1.3226875,1.0229375,-0.2719375,-0.4916875,1.281125,0.019569925145036318,0.022360903061497902,True
30540,130036,0,130034,3103.0,42101.0,30791.0,0.0017079999999999999,0.000305,-0.000732,0.15750000000000003,-1.7850000000000001,-3.7800000000000002,1.0778125,0.19993750000000002,0.06078125,1.3039687500000001,1.0133125,-0.27340625,-0.4865625,1.2893125,0.01950050788607388,0.022352821062572584,True
30541,130037,0,130035,3104.0,42101.0,30792.0,-0.000488,-0.001098,-0.000305,0.22750000000000004,-1.5750000000000002,-3.7275000000000005,1.05746875,0.198,0.04946875,1.316375,1.0266875,-0.27259375,-0.492,1.2845,0.01938786414204292,0.022107984239751754,True
30542,130038,0,130036,3105.0,42100.0,30793.0,-0.001037,-0.000793,-0.00042699999999999997,0.3325,-1.4875,-3.7975000000000003,1.051125,0.2103125,0.0490625,1.32496875,1.03003125,-0.2714375,-0.4914375,1.28084375,0.01984843295746286,0.022068937358209372,True
30543,130039,0,130037,3106.0,42098.0,30794.0,-0.00244,0.000366,0.000183,0.45500000000000007,-1.3475000000000001,-3.8150000000000004,1.0631875,0.20784375,0.06003125,1.30746875,1.014875,-0.27718750000000003,-0.4943125,1.2865312500000001,0.019978889646916475,0.022631529258067565,True
30544,130040,0,130038,3106.0,42100.0,30795.0,-0.002623,0.0008539999999999999,0.002074,0.385,-1.2950000000000002,-3.9550000000000005,1.0577812500000001,0.20234375000000002,0.04984375,1.32834375,1.02284375,-0.27015625,-0.4908125,1.27996875,0.01946835426739373,0.022075880496002325,True
30545,130041,0,130039,3108.0,42102.0,30795.0,-0.00183,-0.000366,-0.0011589999999999999,0.56,-1.6625,-3.8675,1.0631875,0.2055625,0.06475,1.30809375,1.02240625,-0.268625,-0.49343750000000003,1.28059375,0.01953911686385199,0.022789267533395427,True
30546,130042,0,130040,3107.0,42101.0,30795.0,-0.000732,-0.000183,0.0015249999999999999,0.42000000000000004,-1.8025000000000002,-3.7625,1.06846875,0.2018125,0.0488125,1.3245,1.0210625,-0.27234375,-0.4914375,1.27978125,0.019534835814938555,0.02205872970910752,True
30547,130043,0,130041,3109.0,42102.0,30797.0,-0.001403,0.000305,6.1e-05,0.525,-2.24,-3.8500000000000005,1.0751875,0.19596875,0.0543125,1.306125,1.02175,-0.272625,-0.49490625,1.2874375,0.019305441830045164,0.022421753502322547,True
30548,130044,0,130042,3112.0,42102.0,30800.0,-0.000366,6.1e-05,0.000122,0.6475000000000001,-2.6425,-3.7800000000000002,1.05775,0.20546875,0.054781250000000004,1.31846875,1.02771875,-0.27421875,-0.49053125000000003,1.2805312500000001,0.0197611921083969,0.02226625851572738,True
30549,130045,0,130043,3111.0,42102.0,30800.0,0.0015249999999999999,0.0015249999999999999,-0.001098,0.5775,-3.0975,-3.9550000000000005,1.06625,0.20525000000000002,0.05646875,1.3160625000000001,1.0267187500000001,-0.27509375,-0.490875,1.28003125,0.019787513693948145,0.02234888504391942,True
30550,130046,0,130044,3113.0,42104.0,30801.0,0.001769,0.000732,-0.0011589999999999999,0.47250000000000003,-3.325,-3.9550000000000005,1.0625625,0.2044375,0.05396875,1.3157812500000001,1.02921875,-0.27240625,-0.49203125000000003,1.28675,0.01964550795205976,0.022292965186380777,True
30551,130047,0,130045,3111.0,42104.0,30801.0,0.0035989999999999998,-0.000122,-0.001037,0.35000000000000003,-3.1500000000000004,-3.7800000000000002,1.06415625,0.19978125,0.05525,1.312375,1.02328125,-0.271625,-0.48859375,1.2875625,0.019422113270125097,0.02220804328545815,True
30552,130048,0,130046,3116.0,42103.0,30804.0,0.004941,-0.00122,-0.00122,0.28,-2.975,-3.8150000000000004,1.06534375,0.20428125,0.0529375,1.31840625,1.02321875,-0.27215625,-0.49128125,1.2865312500000001,0.019628973013058944,0.022220917903182383,True
30553,130049,0,130047,3117.0,42103.0,30803.0,0.003965,-0.001037,-0.0008539999999999999,0.28,-2.6250000000000004,-3.8850000000000002,1.0645,0.20490625,0.0561875,1.31728125,1.031625,-0.27125,-0.4911875,1.28040625,0.019618118143894525,0.0223498758482005,True
30554,130050,0,130048,3117.0,42104.0,30804.0,-0.002623,0.00042699999999999997,-0.001098,0.052500000000000005,-1.9075000000000002,-3.9200000000000004,1.06721875,0.2040625,0.06084375,1.3131875,1.0265625,-0.27584375,-0.49296875,1.28128125,0.019768880329854653,0.022611080986252436,True
30555,130051,0,130049,3117.0,42103.0,30806.0,-0.002623,-0.000366,0.0011589999999999999,0.21000000000000002,-1.715,-3.8850000000000002,1.06421875,0.20196875,0.05371875,1.32003125,1.0224375,-0.27196875,-0.4869375,1.28759375,0.019526125172685056,0.022079373951928456,True
30556,130052,0,130050,3117.0,42104.0,30805.0,-0.0028669999999999998,0.00122,0.003294,0.15750000000000003,-1.4875,-3.8675,1.064375,0.2044375,0.056375,1.3181875,1.03046875,-0.27525,-0.49053125000000003,1.280875,0.01976035262252706,0.02233133468674756,True
30557,130053,0,130051,3118.0,42103.0,30807.0,0.0,0.000244,0.000549,0.07,-1.4000000000000001,-3.9550000000000005,1.07015625,0.2025625,0.05425,1.31271875,1.0245,-0.2754375,-0.49040625,1.28809375,0.019690685286310496,0.022239575956401293,True
30558,130054,0,130052,3119.0,42104.0,30806.0,0.00042699999999999997,-0.0013419999999999999,-0.0013419999999999999,0.10500000000000001,-1.54,-3.9025000000000003,1.05509375,0.20500000000000002,0.05278125,1.32078125,1.0225312500000001,-0.2724375,-0.4919375,1.28590625,0.019669944561604084,0.022240737385517174,True
30559,130055,0,130053,3119.0,42107.0,30807.0,-0.0035989999999999998,0.0011589999999999999,0.000305,0.17500000000000002,-1.435,-3.9550000000000005,1.06290625,0.2046875,0.05696875,1.31775,1.02934375,-0.27315625,-0.49103125000000003,1.28115625,0.019686098712440828,0.022375537983930344,True
30560,130056,0,130054,3120.0,42104.0,30808.0,-0.0044529999999999995,-0.000976,0.0013419999999999999,0.035,-1.61,-3.99,1.0697812500000001,0.20140625,0.05753125,1.304875,1.0230000000000001,-0.26934375,-0.49490625,1.2847187500000001,0.019396898607940315,0.022553158373488365,True
30561,130057,0,130055,3121.0,42106.0,30809.0,0.002257,-0.0021349999999999997,-0.000183,0.0,-1.8025000000000002,-3.8500000000000005,1.06515625,0.2019375,0.0580625,1.31259375,1.0230625,-0.27315625,-0.4928125,1.28740625,0.01957280483455875,0.02249129208824017,True
30562,130058,0,130056,3120.0,42104.0,30811.0,0.002928,-0.00042699999999999997,-0.000366,-0.0175,-2.0475000000000003,-3.8325000000000005,1.0616875000000001,0.2016875,0.056,1.313,1.02303125,-0.27253125,-0.493375,1.2858125,0.019537259839762285,0.02242953451698674,True
30563,130059,0,130057,3122.0,42106.0,30811.0,0.000183,0.000549,-0.000244,0.07,-2.1350000000000002,-3.8850000000000002,1.06384375,0.20700000000000002,0.055093750000000004,1.31834375,1.022375,-0.2716875,-0.490875,1.28571875,0.01972205270029124,0.022292741684402866,True
30564,130060,0,130058,3125.0,42108.0,30812.0,0.0026839999999999998,-0.000488,-0.00183,0.17500000000000002,-2.1,-3.7975000000000003,1.06628125,0.20446875,0.055781250000000004,1.31190625,1.03021875,-0.2745,-0.49084375,1.2807187500000001,0.019731353889884447,0.022319565858158728,True
30565,130061,0,130059,3126.0,42108.0,30814.0,0.004514,0.000305,0.000488,0.21000000000000002,-1.9600000000000002,-3.8325000000000005,1.06434375,0.2003125,0.055875,1.31846875,1.0226875,-0.27259375,-0.49321875,1.28771875,0.019483136201708978,0.022418194831987932,True
30566,130062,0,130060,3128.0,42111.0,30816.0,0.002257,0.000122,-0.0013419999999999999,0.29750000000000004,-1.7325000000000002,-3.9200000000000004,1.06609375,0.21109375,0.05759375,1.31209375,1.028125,-0.2738125,-0.49090625,1.27496875,0.01997651790381095,0.0223960679282744,True
30567,130063,0,130061,3128.0,42110.0,30816.0,-0.0013419999999999999,0.0013419999999999999,-0.001464,0.28,-1.5050000000000001,-3.8675,1.06765625,0.20328125,0.05671875,1.31565625,1.02246875,-0.27253125,-0.49140625,1.2859375,0.019602920482386852,0.02238029921209608,True
30568,130064,0,130062,3128.0,42111.0,30819.0,-0.0032329999999999998,0.002989,0.000305,0.21000000000000002,-1.2775,-3.7625,1.06453125,0.204375,0.058812500000000004,1.3118750000000001,1.02809375,-0.2719375,-0.49109375,1.281125,0.019623999938200236,0.022453315299566807,True
30569,130065,0,130063,3131.0,42110.0,30821.0,-0.000915,-0.00042699999999999997,0.0008539999999999999,0.28,-1.1375000000000002,-3.6400000000000006,1.0648125,0.2048125,0.05409375,1.3155937500000001,1.0229375,-0.27225,-0.4928125,1.28125,0.019654646767398986,0.022329254755859503,True
30570,130066,0,130064,3132.0,42111.0,30820.0,0.000366,-0.0032329999999999998,0.000793,0.17500000000000002,-1.155,-3.6575,1.06659375,0.20253125,0.0565,1.31515625,1.0284375000000001,-0.27546875,-0.49040625,1.2874375,0.019690659938337955,0.022331448666761095,True
30571,130067,0,130065,3133.0,42112.0,30821.0,-0.00042699999999999997,-0.001769,0.000488,0.24500000000000002,-1.1025,-3.6925000000000003,1.06615625,0.20459375,0.0570625,1.31265625,1.033625,-0.272,-0.49062500000000003,1.28046875,0.019635536832564273,0.022363149164221,True
30572,130068,0,130066,3134.0,42110.0,30821.0,-0.001281,-0.0008539999999999999,-0.0006709999999999999,0.21000000000000002,-1.225,-3.7275000000000005,1.06525,0.2035625,0.0573125,1.312625,1.02259375,-0.27646875,-0.48725,1.28025,0.01977352039719533,0.022238613972577568,True
30573,130069,0,130067,3135.0,42111.0,30819.0,-0.00366,-0.00061,6.1e-05,0.21000000000000002,-1.1725,-3.6050000000000004,1.06771875,0.2019375,0.0574375,1.309625,1.01971875,-0.278125,-0.4898125,1.2785312500000001,0.0197734586175827,0.022346026536544532,True
30574,130070,0,130068,3132.0,42108.0,30818.0,-0.001464,6.1e-05,0.000366,0.24500000000000002,-1.6275000000000002,-3.8150000000000004,1.0733125000000001,0.20071875,0.0544375,1.31246875,1.01496875,-0.27678125,-0.49646875,1.291875,0.019668999571349682,0.02248921081737547,True
30575,130071,0,130069,3131.0,42107.0,30814.0,-6.1e-05,0.000793,0.0008539999999999999,0.2625,-1.8200000000000003,-3.9375000000000004,1.062,0.20484375,0.0523125,1.33378125,1.01959375,-0.27071875,-0.48962500000000003,1.28075,0.019594083920567867,0.022129269027190087,True
30576,130072,0,130070,3126.0,42106.0,30807.0,-0.0006709999999999999,0.0008539999999999999,0.00042699999999999997,0.15750000000000003,-2.1525000000000003,-3.8850000000000002,1.0619375,0.21225,0.058937500000000004,1.3243125,1.03484375,-0.27518750000000003,-0.48915625,1.27903125,0.020079659528891382,0.02238107938079737,True
30577,130073,0,130071,3123.0,42103.0,30803.0,0.000915,0.002074,0.000122,0.07,-2.4850000000000003,-3.9550000000000005,1.08253125,0.1910625,0.0526875,1.3018125,1.01896875,-0.2720625,-0.4971875,1.28909375,0.019080578751805702,0.022446454312357287,True
30578,130074,0,130072,3119.0,42098.0,30801.0,0.0037819999999999998,-6.1e-05,-0.001098,0.15750000000000003,-2.765,-3.9725000000000006,1.05146875,0.20575000000000002,0.05403125,1.318625,1.03175,-0.2715,-0.48912500000000003,1.2788125000000001,0.019662979214304845,0.022179487833885448,True
30579,130075,0,130073,3113.0,42099.0,30798.0,0.0050019999999999995,0.00061,0.000183,0.08750000000000001,-2.6425,-4.0075,1.08690625,0.19415625,0.0525625,1.30640625,1.019125,-0.27468750000000003,-0.49771875,1.2829062500000001,0.019314100335998147,0.022462550722197345,True
