frame_seq,absolute_seq_u64,segment_id,sample_seq,PPG_G,PPG_R,PPG_IR,ACC_X,ACC_Y,ACC_Z,GYRO_X,GYRO_Y,GYRO_Z,Uh1,Uh2,Uh3,Uh4,Uc1,Uc2,Uc3,Uc4,UD1,UD2,parser_valid
840,34800,0,34798,3688.0,40375.0,29596.0,-0.030560999999999998,-0.000976,0.007808,0.7175,2.6425,-3.6050000000000004,1.1813125,0.34115625,0.3256875,1.4139375,1.144375,-0.14759375,-0.20878125,1.3931875,0.020240111915912948,0.022077474470136742,True
841,34801,0,34799,3687.0,40378.0,29598.0,-0.025254,-0.0018909999999999999,0.006344,0.42000000000000004,1.54,-3.4475000000000002,1.18446875,0.34484375,0.32515625,1.4149375,1.14534375,-0.14459375,-0.20865625000000002,1.38696875,0.020271101061702476,0.022050480393764112,True
842,34802,0,34800,3686.0,40376.0,29600.0,-0.010187,-0.002989,0.004697,0.24500000000000002,-0.24500000000000002,-3.5000000000000004,1.177375,0.344375,0.325875,1.4128125,1.14621875,-0.14496875,-0.21121875,1.37909375,0.020266903430968406,0.022183672600124684,True
843,34803,0,34801,3686.0,40374.0,29598.0,0.018056,-0.000366,-0.004575,0.22750000000000004,-3.7100000000000004,-3.6050000000000004,1.187375,0.34403125,0.32228125,1.4151562500000001,1.15134375,-0.1455625,-0.20803125,1.38721875,0.020276758928270983,0.021906469572985202,True
844,34804,0,34802,3688.0,40371.0,29597.0,0.020862,0.0008539999999999999,-0.0062829999999999995,0.36750000000000005,-4.550000000000001,-3.7975000000000003,1.18740625,0.34415625,0.3221875,1.41459375,1.1499375,-0.145125,-0.21015625000000002,1.3873125,0.02026418376380325,0.02198844751363387,True
845,34805,0,34803,3685.0,40372.0,29595.0,0.020557,0.003477,-0.002928,0.525,-4.532500000000001,-3.9200000000000004,1.17578125,0.3444375,0.33184375,1.41471875,1.14840625,-0.14475,-0.207875,1.38728125,0.02026061566178983,0.02229517254199305,True
846,34806,0,34804,3686.0,40369.0,29590.0,0.014457,0.00366,-6.1e-05,0.7525000000000001,-3.6225000000000005,-4.0075,1.19,0.34440625,0.3218125,1.40909375,1.14634375,-0.14484375,-0.21156250000000001,1.38746875,0.020263125537931883,0.022029763671799374,True
847,34807,0,34805,3685.0,40368.0,29592.0,0.0062829999999999995,0.002074,0.002989,0.9100000000000001,-2.3275,-4.095000000000001,1.1895,0.3445625,0.32175,1.4134375000000001,1.1500625,-0.14615625000000002,-0.20525000000000002,1.3845,0.02032285159258008,0.021772136210119707,True
848,34808,0,34806,3684.0,40369.0,29595.0,-0.012017,0.002257,-0.0011589999999999999,0.9625000000000001,0.24500000000000002,-3.7100000000000004,1.18871875,0.3443125,0.320875,1.4160625,1.14653125,-0.14475,-0.20753125,1.38796875,0.020255438552894522,0.02182817589050928,True
849,34809,0,34807,3686.0,40371.0,29598.0,-0.012383,0.001403,0.00042699999999999997,0.8400000000000001,1.0850000000000002,-3.7275000000000005,1.181375,0.34368750000000003,0.32528125,1.4215625,1.15059375,-0.14421875,-0.20896875,1.39340625,0.020207994926321648,0.022068267571290084,True
850,34810,0,34808,3684.0,40374.0,29597.0,-0.012688,-0.000976,0.001403,0.5775,1.4525000000000001,-3.6925000000000003,1.18040625,0.3435,0.32509375,1.4197187500000001,1.1451875,-0.14671875,-0.20846875,1.39365625,0.020301671422747657,0.022040324215053874,True
851,34811,0,34809,3685.0,40374.0,29600.0,-0.012444,-0.002745,0.001281,0.3325,0.9450000000000001,-3.535,1.1810625000000001,0.34003125,0.32565625,1.4205,1.14459375,-0.143625,-0.20871875,1.3880000000000001,0.02003246198530668,0.022073658896136338,True
852,34812,0,34810,3686.0,40374.0,29599.0,-0.009882,-0.001769,0.000976,0.08750000000000001,0.052500000000000005,-3.4475000000000002,1.1809375,0.3394375,0.3256875,1.41975,1.14503125,-0.14771875,-0.208625,1.39225,0.02017400712023781,0.022071162653806233,True
853,34813,0,34811,3685.0,40374.0,29598.0,0.0026839999999999998,-0.000549,6.1e-05,-0.10500000000000001,-2.5375,-3.5525,1.18375,0.34378125,0.32456250000000003,1.41378125,1.14515625,-0.1479375,-0.2088125,1.3900625,0.020362763900643687,0.02203226614275277,True
854,34814,0,34812,3683.0,40372.0,29592.0,0.010126,-0.000915,0.000488,-0.15750000000000003,-3.6400000000000006,-3.6050000000000004,1.1850625000000001,0.34425,0.32290625,1.41365625,1.1448125,-0.14559375,-0.211375,1.3880625,0.020287086541410895,0.02206736502986716,True
855,34815,0,34813,3684.0,40369.0,29588.0,0.014701,0.000732,-0.000732,-0.14,-4.2700000000000005,-3.7100000000000004,1.1769687500000001,0.3424375,0.32525,1.4178125,1.1485,-0.14421875,-0.20965625000000002,1.3866875,0.020156222698239096,0.022094747834348127,True
856,34816,0,34814,3684.0,40369.0,29587.0,0.013237,0.0017079999999999999,-0.002623,-0.08750000000000001,-4.1825,-3.7450000000000006,1.18178125,0.34384375,0.32556250000000003,1.41859375,1.1445625,-0.1483125,-0.20909375,1.39178125,0.02038056489454491,0.022084934509372125,True
857,34817,0,34815,3683.0,40369.0,29583.0,0.011712,-0.00042699999999999997,-0.002074,-0.07,-3.7100000000000004,-3.6925000000000003,1.1812500000000001,0.3438125,0.32565625,1.420375,1.14296875,-0.14315625,-0.210875,1.38746875,0.020170053366572568,0.02216075420652909,True
858,34818,0,34816,3683.0,40366.0,29583.0,0.0040869999999999995,-0.002257,-0.0018909999999999999,-0.0175,-1.435,-3.6400000000000006,1.18146875,0.34509375000000003,0.32440625,1.4154375000000001,1.15459375,-0.14365625,-0.21134375,1.384875,0.020243412801240493,0.02212805722524178,True
859,34819,0,34817,3683.0,40366.0,29583.0,-0.003477,-0.003172,-0.0026839999999999998,0.10500000000000001,-0.3325,-3.5000000000000004,1.1923125,0.3446875,0.321375,1.414,1.14628125,-0.1445,-0.20640625,1.3960625,0.020260825446789123,0.02180337075025336,True
860,34820,0,34818,3683.0,40366.0,29583.0,-0.0075639999999999995,-0.0032329999999999998,0.0015249999999999999,0.21000000000000002,0.6475000000000001,-3.5875000000000004,1.1834375,0.3334375,0.32953125,1.43946875,1.1418125000000001,-0.15003125,-0.20653125,1.3979375,0.020019384032888155,0.022145366242839935,True
861,34821,0,34819,3681.0,40370.0,29584.0,-0.010614,-0.002257,0.00366,0.28,1.0675000000000001,-3.6050000000000004,1.17403125,0.33965625,0.3315625,1.43196875,1.14175,-0.14909375,-0.20725000000000002,1.397375,0.020238854718927085,0.022258311043179217,True
862,34822,0,34820,3685.0,40373.0,29586.0,-0.012322,-0.001464,0.00366,0.31500000000000006,0.8225000000000001,-3.4825000000000004,1.16784375,0.34415625,0.32634375,1.42634375,1.1418125000000001,-0.14665625000000002,-0.20865625000000002,1.3963125,0.020326313296483857,0.02209953309572893,True
863,34823,0,34821,3684.0,40373.0,29591.0,-0.005612,0.002928,0.000366,0.5075000000000001,-0.42000000000000004,-3.6225000000000005,1.16903125,0.33718750000000003,0.33071875,1.43253125,1.14159375,-0.14934375,-0.20153125,1.395875,0.020146768998639975,0.021992410087688152,True
864,34824,0,34822,3684.0,40374.0,29590.0,6.1e-05,0.0035989999999999998,-0.0008539999999999999,0.6125,-1.2425000000000002,-3.5700000000000003,1.170125,0.34096875,0.32215625000000003,1.4040000000000001,1.142625,-0.1473125,-0.2064375,1.3854375,0.020220935559599022,0.02183690805390095,True
865,34825,0,34823,3683.0,40372.0,29586.0,0.0050019999999999995,0.003538,-0.00122,0.525,-1.8200000000000003,-3.6575,1.2019375,0.3435625,0.33146875000000003,1.43121875,1.1550625,-0.14328125,-0.21165625000000002,1.3938125000000001,0.020164771513814014,0.022432376967189104,True
866,34826,0,34824,3683.0,40374.0,29583.0,0.008601,0.002928,-0.0006709999999999999,0.47250000000000003,-2.2225,-3.7275000000000005,1.1693437500000001,0.3385625,0.321875,1.4035625,1.14046875,-0.15103125,-0.20709375,1.388875,0.020272167466968933,0.021851807386006426,True
867,34827,0,34825,3684.0,40371.0,29583.0,0.007442,0.00244,-0.00366,0.36750000000000005,-2.0650000000000004,-3.6925000000000003,1.201875,0.3478125,0.3224375,1.40996875,1.1497187500000001,-0.1436875,-0.20971875,1.38721875,0.020357288007476076,0.021981100048921468,True
868,34828,0,34826,3685.0,40371.0,29584.0,0.000976,-0.000915,-0.002806,0.31500000000000006,-1.0675000000000001,-3.3950000000000005,1.1865937500000001,0.33971875,0.32475,1.4244375,1.150625,-0.1446875,-0.210375,1.38884375,0.020062643179788515,0.02210312727498025,True
869,34829,0,34827,3684.0,40367.0,29584.0,-0.000793,-0.00122,0.0013419999999999999,0.3325,-0.5425000000000001,-3.4125000000000005,1.16921875,0.339375,0.3293125,1.4271562500000001,1.144875,-0.1465,-0.208875,1.3939062500000001,0.02012196384569192,0.022230999994836607,True
870,34830,0,34828,3686.0,40370.0,29584.0,-0.003843,-0.0008539999999999999,0.00366,0.4025,-0.28,-3.4825000000000004,1.1645625,0.34609375000000003,0.3251875,1.4115625,1.14471875,-0.147375,-0.2085625,1.3885625,0.020435709885650098,0.022047984055228394,True
871,34831,0,34829,3685.0,40372.0,29584.0,-0.0034159999999999998,-0.001464,0.002745,0.21000000000000002,-0.28,-3.4650000000000003,1.1835,0.34115625,0.32490625,1.42103125,1.15265625,-0.1414375,-0.20734375,1.3895,0.01999026569979522,0.021987129422244026,True
872,34832,0,34830,3686.0,40371.0,29583.0,-0.0023179999999999997,-0.002623,0.0,0.12250000000000001,-0.36750000000000005,-3.3950000000000005,1.1733437500000001,0.34375,0.32190625,1.41521875,1.1446875,-0.14665625000000002,-0.20946875,1.39090625,0.020309489020865986,0.02194905660620909,True
873,34833,0,34831,3685.0,40372.0,29584.0,0.000305,-0.001464,-0.0006709999999999999,0.14,-0.9100000000000001,-3.4650000000000003,1.18121875,0.3415,0.3246875,1.408625,1.15175,-0.14478125,-0.2073125,1.39384375,0.020140221812943532,0.0219768303482677,True
874,34834,0,34832,3687.0,40373.0,29585.0,-0.0023179999999999997,0.001586,0.000366,0.4025,-1.12,-3.6050000000000004,1.18665625,0.34368750000000003,0.32115625000000003,1.41521875,1.140125,-0.148875,-0.20865625000000002,1.3885625,0.020396912899669238,0.021885250239777353,True
875,34835,0,34833,3687.0,40375.0,29586.0,-0.002623,0.000976,0.000305,0.525,-1.155,-3.5700000000000003,1.1804375,0.3415,0.3253125,1.41975,1.15240625,-0.1394375,-0.212125,1.3877187500000001,0.019923310143411588,0.022197039706345477,True
876,34836,0,34834,3688.0,40379.0,29590.0,-0.000976,0.0015249999999999999,0.002257,0.6125,-1.3650000000000002,-3.43,1.181375,0.3448125,0.32296875,1.41396875,1.1440000000000001,-0.144875,-0.20875,1.39225,0.02028121909929126,0.021963907678008987,True
877,34837,0,34835,3688.0,40382.0,29592.0,0.0025009999999999998,6.1e-05,-0.000122,0.6125,-1.4000000000000001,-3.5525,1.18646875,0.34409375000000003,0.3204375,1.41878125,1.1444375,-0.1469375,-0.2111875,1.38690625,0.020335135666790044,0.02195782424963666,True
878,34838,0,34836,3688.0,40383.0,29591.0,0.001586,0.0,-0.0017079999999999999,0.45500000000000007,-1.2600000000000002,-3.5000000000000004,1.1808750000000001,0.34390625,0.321,1.40696875,1.150875,-0.14434375,-0.21165625000000002,1.3880937500000001,0.020222127594584135,0.021999992255796217,True
879,34839,0,34837,3689.0,40387.0,29593.0,0.001281,0.000122,-0.001769,0.43750000000000006,-1.2075,-3.5000000000000004,1.18165625,0.341375,0.32534375,1.41540625,1.14278125,-0.14571875,-0.21046875,1.39509375,0.02017308969110725,0.022131438491871415,True
880,34840,0,34838,3689.0,40386.0,29595.0,-0.001647,0.00042699999999999997,-0.003477,0.31500000000000006,-1.0325000000000002,-3.535,1.186625,0.34509375000000003,0.32056250000000003,1.41415625,1.14359375,-0.1474375,-0.20825,1.3876875,0.020396832997290087,0.021844309274730724,True
881,34841,0,34839,3690.0,40388.0,29595.0,-0.0021349999999999997,-0.000183,-0.001464,0.4025,-1.0675000000000001,-3.5875000000000004,1.18071875,0.34553125,0.32490625,1.421875,1.14915625,-0.14528125,-0.211625,1.39253125,0.02032747081792638,0.02216006773605654,True
882,34842,0,34840,3690.0,40389.0,29596.0,-0.002257,0.001281,0.0032329999999999998,0.45500000000000007,-1.61,-3.6225000000000005,1.18140625,0.343,0.32378125,1.4141875,1.14421875,-0.14578125,-0.20884375,1.39421875,0.020242925459287017,0.02200125728846509,True
883,34843,0,34841,3688.0,40393.0,29596.0,-0.000976,0.001769,0.0034159999999999998,0.31500000000000006,-2.0650000000000004,-3.6400000000000006,1.18640625,0.34390625,0.3201875,1.41465625,1.1443125,-0.14678125,-0.21053125,1.38721875,0.02032103140040663,0.021920987380233552,True
884,34844,0,34842,3689.0,40392.0,29598.0,-0.00042699999999999997,6.1e-05,0.001037,0.17500000000000002,-2.45,-3.4825000000000004,1.17071875,0.3440625,0.32453125,1.42109375,1.15025,-0.14509375,-0.21140625000000002,1.3854375,0.020259032955711756,0.02213574438700767,True
885,34845,0,34843,3689.0,40393.0,29596.0,0.0053679999999999995,-0.0030499999999999998,-0.003355,0.15750000000000003,-2.7825,-3.5700000000000003,1.181125,0.34271875,0.324125,1.4218125,1.14515625,-0.14590625000000002,-0.20890625000000002,1.38775,0.020236349588245422,0.022017981502158945,True
886,34846,0,34844,3690.0,40392.0,29599.0,0.010248,-0.003294,-0.004026,0.10500000000000001,-2.6250000000000004,-3.6050000000000004,1.18059375,0.343125,0.33253125,1.41421875,1.1445,-0.146125,-0.2086875,1.39246875,0.020262050328986536,0.02235638549177852,True
887,34847,0,34845,3691.0,40398.0,29600.0,0.00042699999999999997,0.000122,-0.000122,0.43750000000000006,-1.4525000000000001,-3.4825000000000004,1.18565625,0.34328125,0.32446875000000003,1.412375,1.14428125,-0.146875,-0.20903125,1.38734375,0.020298951727708035,0.02203723042407986,True
888,34848,0,34846,3690.0,40398.0,29603.0,-0.003904,-0.000366,-0.000122,0.6125,-0.8750000000000001,-3.3600000000000003,1.18103125,0.34290625,0.32303125,1.414375,1.1448125,-0.14675,-0.2085,1.3911875,0.02027835008852123,0.021956389284755354,True
889,34849,0,34847,3692.0,40402.0,29606.0,-0.0068319999999999995,-0.000366,0.0018909999999999999,0.5950000000000001,-0.6300000000000001,-3.3775000000000004,1.1866875000000001,0.3440625,0.32456250000000003,1.41890625,1.1460000000000001,-0.1455,-0.21306250000000002,1.389875,0.02027551717711375,0.022203924018285585,True
890,34850,0,34848,3693.0,40407.0,29608.0,-0.004697,0.000976,0.00183,0.5425000000000001,-0.7000000000000001,-3.4650000000000003,1.1799375,0.33984375,0.3244375,1.41403125,1.154375,-0.1440625,-0.209875,1.4009375,0.020042453501766738,0.02207002307942523,True
891,34851,0,34849,3692.0,40408.0,29608.0,-0.003965,0.002745,0.00122,0.56,-0.7175,-3.4825000000000004,1.18625,0.34328125,0.32309375,1.414625,1.14259375,-0.1501875,-0.2020625,1.3985,0.02043332996897022,0.021698822156169542,True
892,34852,0,34850,3692.0,40408.0,29613.0,0.000244,0.00244,-0.0015249999999999999,0.6300000000000001,-1.2775,-3.3425000000000002,1.1885937500000001,0.344625,0.325,1.42025,1.1370625,-0.1468125,-0.2141875,1.380625,0.02035206510176033,0.02226742070119016,True
893,34853,0,34851,3694.0,40411.0,29615.0,0.0008539999999999999,0.0013419999999999999,-0.0013419999999999999,0.49000000000000005,-1.6450000000000002,-3.4125000000000005,1.1710625000000001,0.34371875,0.3214375,1.4155,1.1457187500000001,-0.1449375,-0.2060625,1.402625,0.02023845578395057,0.02179206138957957,True
894,34854,0,34852,3694.0,40413.0,29613.0,0.002928,0.0008539999999999999,-0.0011589999999999999,0.42000000000000004,-1.715,-3.5525,1.18796875,0.34265625,0.32496875000000003,1.42215625,1.12559375,-0.145125,-0.21115625000000002,1.38196875,0.020202059421933,0.02214371732039853,True
895,34855,0,34853,3694.0,40410.0,29616.0,0.003538,-0.002379,0.000549,0.43750000000000006,-1.8025000000000002,-3.6225000000000005,1.1809375,0.343375,0.32106250000000003,1.4146875,1.1505625,-0.14396875,-0.20690625,1.40078125,0.020184906427200375,0.021810666119302217,True
896,34856,0,34854,3695.0,40416.0,29615.0,0.003355,-0.0030499999999999998,0.001464,0.42000000000000004,-1.5750000000000002,-3.5525,1.1865,0.34953125,0.32153125,1.41909375,1.1378125000000001,-0.1539375,-0.2048125,1.3815,0.020844168782005006,0.021745417362766185,True
897,34857,0,34855,3694.0,40415.0,29616.0,-0.002745,0.00061,0.00122,0.49000000000000005,-0.9100000000000001,-3.5875000000000004,1.181,0.33953125,0.32275,1.41509375,1.161375,-0.142375,-0.21003125,1.39625,0.01996101253501364,0.02200663206496274,True
898,34858,0,34856,3694.0,40414.0,29617.0,-0.004941,-0.000793,0.00042699999999999997,0.45500000000000007,-0.6475000000000001,-3.5875000000000004,1.18865625,0.34403125,0.32465625,1.4135,1.1379375,-0.14871875,-0.215625,1.38309375,0.020404809261360915,0.022311265969802558,True
899,34859,0,34857,3693.0,40415.0,29618.0,-0.0040869999999999995,6.1e-05,-0.000366,0.385,-0.77,-3.5525,1.18015625,0.34309375000000003,0.322875,1.41421875,1.14403125,-0.14628125,-0.20650000000000002,1.3945625,0.0202670959943366,0.021869126061181916,True
900,34860,0,34858,3693.0,40417.0,29615.0,-0.0011589999999999999,-0.000793,-0.0008539999999999999,0.22750000000000004,-0.8925000000000001,-3.7800000000000002,1.1878125,0.34403125,0.32159375,1.41496875,1.13721875,-0.14628125,-0.20940625000000002,1.38421875,0.020305921848731884,0.02193362342374671,True
901,34861,0,34859,3692.0,40415.0,29611.0,-0.00042699999999999997,0.000549,0.0006709999999999999,0.2625,-1.1025,-3.8675,1.1871875,0.34196875,0.323625,1.4158125000000001,1.14459375,-0.13978125,-0.210375,1.37959375,0.019956684570205045,0.022056659593252894,True
902,34862,0,34860,3689.0,40412.0,29608.0,-0.002623,0.000793,0.001037,0.17500000000000002,-1.7850000000000001,-3.7625,1.17565625,0.34068750000000003,0.3241875,1.4158125000000001,1.15071875,-0.14409375,-0.21171875,1.3886875,0.020078668307854795,0.022134167984253494,True
903,34863,0,34861,3688.0,40408.0,29605.0,-0.0013419999999999999,-0.0006709999999999999,-0.001098,0.1925,-2.205,-3.8325000000000005,1.18025,0.33953125,0.3249375,1.420625,1.1475625,-0.14200000000000002,-0.2095625,1.388125,0.019945789495485047,0.022078052835527284,True
904,34864,0,34862,3686.0,40408.0,29604.0,0.000244,0.001098,-0.0015249999999999999,0.385,-2.7300000000000004,-3.8850000000000002,1.18084375,0.3410625,0.3251875,1.421,1.14378125,-0.14565625000000001,-0.210125,1.3879375,0.020157611164533993,0.02211110021117198,True
905,34865,0,34863,3686.0,40407.0,29598.0,0.002745,0.002928,0.000122,0.4025,-3.0975,-3.8500000000000005,1.18053125,0.34040625,0.3245,1.4195625,1.14978125,-0.144625,-0.21256250000000002,1.38821875,0.020088580791791134,0.022181150797235937,True
906,34866,0,34864,3684.0,40402.0,29593.0,0.0030499999999999998,0.0023179999999999997,0.002257,0.3325,-3.3600000000000003,-3.8850000000000002,1.17946875,0.34246875,0.32356250000000003,1.4213437500000001,1.14284375,-0.14421875,-0.208875,1.38146875,0.02015751700394116,0.021993483794682737,True
907,34867,0,34865,3684.0,40398.0,29592.0,0.003843,-0.000793,-0.00061,0.15750000000000003,-3.4125000000000005,-3.7975000000000003,1.1812500000000001,0.34103125,0.32396875,1.42009375,1.15115625,-0.13871875,-0.21306250000000002,1.379375,0.019874708553037846,0.02217940213056486,True
908,34868,0,34866,3681.0,40394.0,29588.0,0.003721,-0.0013419999999999999,-0.00244,-0.0175,-3.2725000000000004,-3.7625,1.1811562500000001,0.340625,0.32428125,1.42071875,1.1500000000000001,-0.14446875,-0.2121875,1.3883750000000001,0.020091299378869124,0.02215697156648899,True
909,34869,0,34867,3682.0,40392.0,29582.0,0.005673,-0.002806,-0.004697,-0.10500000000000001,-3.0275000000000003,-3.8850000000000002,1.18075,0.33840625,0.32428125,1.41090625,1.1433125,-0.1489375,-0.20959375,1.39378125,0.020180753294011384,0.022052208125136342,True
910,34870,0,34868,3682.0,40390.0,29582.0,0.00366,-0.003172,-0.0017079999999999999,-0.07,-2.5025000000000004,-3.9025000000000003,1.1808125,0.33909375,0.32303125,1.4154375000000001,1.14040625,-0.14475,-0.2068125,1.38921875,0.020039294256515395,0.02188820812322977,True
911,34871,0,34869,3679.0,40388.0,29577.0,-0.0013419999999999999,-0.0023179999999999997,0.002562,-0.08750000000000001,-2.1350000000000002,-3.7450000000000006,1.1885937500000001,0.34396875,0.32109375,1.412375,1.15140625,-0.14546875,-0.212625,1.38775,0.020270366463686896,0.02204299409915282,True
912,34872,0,34870,3680.0,40387.0,29575.0,-0.00244,-0.00122,0.001952,0.17500000000000002,-1.6975000000000002,-3.7450000000000006,1.18771875,0.34415625,0.3206875,1.4155625,1.15234375,-0.14509375,-0.208375,1.396125,0.020262915732103957,0.021854523486190214,True
913,34873,0,34871,3677.0,40387.0,29577.0,-0.002562,0.0011589999999999999,0.00042699999999999997,0.2625,-1.715,-3.7100000000000004,1.1832500000000001,0.3398125,0.3258125,1.4253437500000001,1.1434375,-0.1454375,-0.20734375,1.39225,0.02009696448863269,0.022024566408695708,True
914,34874,0,34872,3677.0,40386.0,29573.0,-0.00366,0.0018909999999999999,-0.000915,0.24500000000000002,-1.8900000000000001,-3.7100000000000004,1.1776875,0.3395,0.325875,1.41528125,1.145,-0.14621875,-0.20984375,1.39221875,0.020115727229548106,0.022128137444092342,True
915,34875,0,34873,3677.0,40382.0,29572.0,-0.0006709999999999999,0.0013419999999999999,-0.000915,0.29750000000000004,-2.1700000000000004,-3.6050000000000004,1.17828125,0.3375,0.33103125,1.42021875,1.13471875,-0.14796875,-0.2095,1.3944375,0.020103916607892746,0.022327237241578722,True
916,34876,0,34874,3675.0,40381.0,29570.0,0.001037,0.001769,-0.0011589999999999999,0.31500000000000006,-2.2575000000000003,-3.5525,1.17621875,0.3368125,0.3258125,1.4255312500000001,1.14265625,-0.14221875,-0.206125,1.39284375,0.019842055734831745,0.02197532649277817,True
917,34877,0,34875,3675.0,40381.0,29569.0,-0.000183,0.00122,0.00042699999999999997,0.24500000000000002,-2.3625000000000003,-3.6225000000000005,1.17846875,0.337375,0.32584375,1.42346875,1.14365625,-0.14590625000000002,-0.2085,1.3925625,0.02001503878115985,0.022072567486626598,True
918,34878,0,34876,3675.0,40379.0,29567.0,0.0006709999999999999,-0.000366,0.00061,0.12250000000000001,-2.415,-3.5175000000000005,1.17865625,0.34259375000000003,0.32306250000000003,1.41275,1.1434375,-0.14590625000000002,-0.20959375,1.38740625,0.020231172727260965,0.022001866512113614,True
919,34879,0,34877,3673.0,40379.0,29566.0,0.00244,-0.000793,0.001647,0.052500000000000005,-2.3800000000000003,-3.6225000000000005,1.1870625000000001,0.34475,0.32056250000000003,1.41253125,1.143875,-0.14521875,-0.2090625,1.3878125000000001,0.020292578629050522,0.021877137951954975,True
920,34880,0,34878,3673.0,40374.0,29568.0,0.0032329999999999998,-0.000915,0.000793,0.08750000000000001,-2.205,-3.6575,1.18575,0.343625,0.32584375,1.4146875,1.14721875,-0.14503125,-0.209375,1.388875,0.020238377202348827,0.022107912740415642,True
921,34881,0,34879,3673.0,40373.0,29568.0,0.002196,-0.000305,-0.000122,0.10500000000000001,-2.1,-3.5525,1.17971875,0.34003125,0.3236875,1.421,1.1470625,-0.14490625000000001,-0.21156250000000001,1.3885625,0.0200844639850279,0.02210720600952541,True
922,34882,0,34880,3671.0,40371.0,29564.0,0.0,-0.0015249999999999999,-0.000732,0.21000000000000002,-1.4700000000000002,-3.7975000000000003,1.18009375,0.3395,0.32453125,1.42109375,1.1390625,-0.14484375,-0.2100625,1.385625,0.020059924802785276,0.02208146922379899,True
923,34883,0,34881,3672.0,40369.0,29563.0,-0.004209,0.000244,-6.1e-05,0.10500000000000001,-1.33,-3.7625,1.18040625,0.33984375,0.3244375,1.4195,1.1431875,-0.14203125,-0.21053125,1.38928125,0.01996000232996136,0.022096530822717904,True
924,34884,0,34882,3672.0,40372.0,29564.0,-0.0055509999999999995,0.001281,6.1e-05,0.17500000000000002,-1.4700000000000002,-3.7450000000000006,1.1810625000000001,0.339875,0.32453125,1.4209687500000001,1.15009375,-0.1420625,-0.218125,1.3820000000000001,0.019962565335915273,0.022407029858835067,True
925,34885,0,34883,3672.0,40371.0,29565.0,-0.005795,0.00061,-0.0006709999999999999,0.22750000000000004,-1.7850000000000001,-3.7450000000000006,1.17965625,0.33968750000000003,0.32378125,1.4205,1.17346875,-0.14209375,-0.2115,1.38325,0.019956067397841167,0.022108553786423808,True
926,34886,0,34884,3671.0,40369.0,29564.0,-0.002013,0.000976,-0.000244,0.28,-2.2575000000000003,-3.6575,1.18109375,0.342125,0.324125,1.4225625,1.15525,-0.14375000000000002,-0.21903125,1.3794375,0.0201242557597722,0.022426836333513545,True
927,34887,0,34885,3672.0,40368.0,29565.0,0.003843,-0.000793,0.004026,0.08750000000000001,-2.6425,-3.6050000000000004,1.18121875,0.3398125,0.32815625,1.42184375,1.16609375,-0.13715625,-0.21325,1.3764687500000001,0.019760768213944013,0.022359916574602748,True
928,34888,0,34886,3671.0,40366.0,29562.0,0.005307,-0.0030499999999999998,0.000915,0.14,-2.7475,-3.535,1.18046875,0.33915625,0.3245,1.408375,1.1675625,-0.14065625,-0.21621875000000002,1.3780937500000001,0.019875702426275177,0.022328785331112027,True
929,34889,0,34887,3670.0,40368.0,29561.0,0.007137,-0.0015249999999999999,-0.0018909999999999999,0.2625,-2.7125000000000004,-3.4650000000000003,1.17978125,0.3395625,0.32428125,1.42178125,1.165125,-0.13978125,-0.2201875,1.3783125,0.019857004710844263,0.02247995602841638,True
930,34890,0,34888,3672.0,40367.0,29560.0,0.006405,0.001769,-0.002562,0.21000000000000002,-2.205,-3.535,1.18128125,0.33821875,0.32421875,1.41546875,1.151125,-0.142875,-0.21053125,1.3979375,0.019926945320306717,0.022087495498472387,True
931,34891,0,34889,3671.0,40365.0,29559.0,0.002257,0.000488,-0.002989,0.24500000000000002,-1.715,-3.5700000000000003,1.18765625,0.34246875,0.3235,1.41590625,1.131,-0.1576875,-0.20309375000000002,1.3953125,0.02070381322715595,0.02175729084220896,True
932,34892,0,34890,3670.0,40367.0,29562.0,-0.0042699999999999995,-0.000549,0.000183,0.5075000000000001,-0.7525000000000001,-3.5000000000000004,1.183375,0.34009375000000003,0.32406250000000003,1.41465625,1.1503125,-0.13725,-0.210625,1.3775,0.019776227614993425,0.02208482845857965,True
933,34893,0,34891,3671.0,40369.0,29560.0,-0.00488,0.001952,0.001464,0.6300000000000001,-0.6475000000000001,-3.6400000000000006,1.17990625,0.33884375,0.32490625,1.4201875,1.1565,-0.14009375,-0.21281250000000002,1.39484375,0.019839918807274724,0.022208025193273192,True
934,34894,0,34892,3669.0,40369.0,29561.0,-0.006954,0.003294,0.002257,0.6825000000000001,-0.6300000000000001,-3.6750000000000003,1.18603125,0.342625,0.324625,1.41225,1.13290625,-0.15496875000000002,-0.20671875,1.3844687500000001,0.020600057700343746,0.02195025916100256,True
935,34895,0,34893,3669.0,40374.0,29563.0,-0.0062829999999999995,0.001586,0.001586,0.5775,-0.8925000000000001,-3.5875000000000004,1.186,0.34296875,0.32225,1.4148125,1.1401875000000001,-0.14490625000000001,-0.19968750000000002,1.38775,0.020206125256750584,0.021567943800927178,True
936,34896,0,34894,3669.0,40374.0,29564.0,-0.004026,-6.1e-05,0.000488,0.6475000000000001,-1.3650000000000002,-3.5525,1.18646875,0.34246875,0.32365625000000003,1.4086875,1.1505625,-0.1450625,-0.2103125,1.3884375,0.020191757631606872,0.022055425761232948,True
937,34897,0,34895,3668.0,40372.0,29563.0,0.002989,0.000122,0.000183,0.28,-2.0475000000000003,-3.6050000000000004,1.1813125,0.342625,0.3213125,1.41565625,1.14909375,-0.1448125,-0.2121875,1.38803125,0.020188083879301197,0.022034357696924328,True
938,34898,0,34896,3670.0,40372.0,29559.0,0.0071979999999999995,-0.001586,-0.0013419999999999999,0.2625,-2.1875,-3.5000000000000004,1.17565625,0.34303125,0.32325,1.4144375,1.14921875,-0.1445,-0.2114375,1.38921875,0.020192228043653834,0.02208408732443086,True
939,34899,0,34897,3670.0,40372.0,29559.0,0.0070149999999999995,-0.0017079999999999999,-0.003172,0.28,-2.1175,-3.6750000000000003,1.18396875,0.34259375000000003,0.3209375,1.41465625,1.1439062500000001,-0.14184375,-0.20965625000000002,1.387875,0.020066300859891865,0.02191661643275088,True
940,34900,0,34898,3670.0,40374.0,29558.0,0.004148,-0.000488,-0.001647,0.29750000000000004,-1.8025000000000002,-3.7100000000000004,1.18040625,0.342,0.32496875000000003,1.4181875,1.1506875,-0.14490625000000001,-0.20740625000000001,1.39471875,0.020166002922459063,0.021992236363612895,True
941,34901,0,34899,3669.0,40375.0,29561.0,-0.0042699999999999995,0.000183,0.002074,0.385,-1.715,-3.6575,1.1838125,0.3423125,0.323875,1.41559375,1.14378125,-0.139,-0.2116875,1.38775,0.019939206263722607,0.022119998864184913,True
942,34902,0,34900,3670.0,40376.0,29560.0,-0.002196,-0.000488,0.000976,0.3325,-1.33,-3.7100000000000004,1.17965625,0.33859375,0.32453125,1.42259375,1.15103125,-0.1451875,-0.20953125,1.3950625,0.020036342645920645,0.022060009939267204,True
943,34903,0,34901,3672.0,40378.0,29563.0,-0.000244,-0.001281,0.0006709999999999999,0.28,-1.4000000000000001,-3.6400000000000006,1.18025,0.34178125,0.31734375,1.41575,1.1435625,-0.14175000000000001,-0.21256250000000002,1.38840625,0.020028840079944495,0.02188559141561328,True
944,34904,0,34902,3671.0,40379.0,29561.0,0.000183,-0.002257,0.0011589999999999999,0.385,-1.4525000000000001,-3.5175000000000005,1.17796875,0.33425,0.32696875000000003,1.412,1.14384375,-0.1463125,-0.20725000000000002,1.3895,0.01990210720581041,0.02206854351485609,True
945,34905,0,34903,3671.0,40376.0,29562.0,-0.00042699999999999997,-0.000366,-0.002928,0.42000000000000004,-1.61,-3.5700000000000003,1.19203125,0.34565625,0.324875,1.4285625,1.14978125,-0.1443125,-0.209125,1.39696875,0.020293340305299643,0.022057798454095306,True
946,34906,0,34904,3672.0,40378.0,29562.0,0.001952,0.0006709999999999999,-0.004514,0.5425000000000001,-1.33,-3.5700000000000003,1.17378125,0.33721875,0.32146875,1.4096875,1.14334375,-0.14821875,-0.20978125,1.388125,0.020102414386154257,0.021943610085283196,True
947,34907,0,34905,3672.0,40377.0,29563.0,0.001769,0.0017079999999999999,0.000366,0.5950000000000001,-1.0675000000000001,-3.6225000000000005,1.19559375,0.34084375,0.32621875,1.41903125,1.149375,-0.1458125,-0.20846875,1.39115625,0.020154892282046834,0.022086795555790777,True
948,34908,0,34906,3673.0,40377.0,29563.0,-0.00122,0.0021349999999999997,0.00671,0.6125,-0.805,-3.5875000000000004,1.16846875,0.339375,0.3213125,1.4094375000000001,1.14315625,-0.1475,-0.20865625000000002,1.388875,0.02016254270628429,0.021891704542667458,True
949,34909,0,34907,3672.0,40378.0,29563.0,-0.002806,0.0015249999999999999,0.008296,0.5425000000000001,-0.9800000000000001,-3.535,1.1940625,0.344875,0.31628125,1.42190625,1.150875,-0.145125,-0.213,1.3883125,0.020293951677616082,0.021859383389088508,True
950,34910,0,34908,3674.0,40377.0,29561.0,6.1e-05,-0.00122,0.0051849999999999995,0.35000000000000003,-0.8750000000000001,-3.5700000000000003,1.16621875,0.34434375,0.32690625,1.41265625,1.14290625,-0.14709375,-0.20934375,1.38853125,0.02035182805384188,0.02215053846719823,True
951,34911,0,34909,3673.0,40377.0,29559.0,0.002196,-0.0006709999999999999,-0.003843,0.35000000000000003,-1.05,-3.5000000000000004,1.178625,0.3453125,0.3183125,1.4096250000000001,1.14925,-0.14396875,-0.212375,1.3843125,0.02026515421164965,0.021918027454968788,True
952,34912,0,34910,3674.0,40377.0,29559.0,0.001647,0.000183,-0.003843,0.42000000000000004,-0.9975,-3.6575,1.19065625,0.34475,0.31684375,1.4099062500000001,1.1498125000000001,-0.14503125,-0.2111875,1.3884375,0.020284970639663183,0.02180939080332181,True
953,34913,0,34911,3674.0,40379.0,29562.0,0.000305,0.0011589999999999999,-0.000488,0.31500000000000006,-0.8400000000000001,-3.6750000000000003,1.18809375,0.34459375000000003,0.319875,1.41065625,1.15034375,-0.14509375,-0.21115625000000002,1.38915625,0.02028103535526757,0.021933328772763595,True
954,34914,0,34912,3674.0,40377.0,29560.0,-0.002562,-0.000244,0.0017079999999999999,0.28,-0.7000000000000001,-3.5000000000000004,1.18615625,0.34321875,0.32290625,1.41884375,1.15040625,-0.14546875,-0.21190625000000002,1.3883125,0.020239304734972274,0.02208882251887953,True
955,34915,0,34913,3675.0,40379.0,29560.0,-0.0037819999999999998,-0.001952,0.000183,0.24500000000000002,-0.665,-3.4125000000000005,1.1796875,0.3428125,0.32390625,1.420125,1.14903125,-0.145125,-0.213,1.3760625,0.020208530707544484,0.022174296865320284,True
956,34916,0,34914,3676.0,40380.0,29563.0,-0.000305,0.000366,-0.0013419999999999999,0.47250000000000003,-0.9100000000000001,-3.5700000000000003,1.18615625,0.34246875,0.32175,1.4151875,1.149,-0.14578125,-0.204375,1.3880625,0.020220923686202947,0.021736772794174606,True
957,34917,0,34915,3677.0,40383.0,29564.0,-0.00042699999999999997,0.001281,6.1e-05,0.4025,-1.0150000000000001,-3.6400000000000006,1.175375,0.34290625,0.32109375,1.41575,1.14203125,-0.1450625,-0.212625,1.38846875,0.020209877278222,0.02204299409915282,True
958,34918,0,34916,3677.0,40384.0,29565.0,0.0017079999999999999,0.001098,0.002806,0.56,-1.0325000000000002,-3.6925000000000003,1.18103125,0.34290625,0.327375,1.42028125,1.15078125,-0.1445,-0.21259375,1.3875625,0.02018705088115306,0.02230115268010062,True
959,34919,0,34917,3677.0,40384.0,29567.0,0.001952,0.001464,0.001769,0.525,-1.05,-3.5875000000000004,1.1798125,0.3385,0.3245,1.42225,1.14928125,-0.14503125,-0.21125,1.38846875,0.020026118210138992,0.022128142908771745,True
960,34920,0,34918,3677.0,40385.0,29568.0,0.000915,0.00122,-0.001586,0.42000000000000004,-0.9625000000000001,-3.6050000000000004,1.179625,0.34,0.32521875,1.4215312500000001,1.14290625,-0.146875,-0.20978125,1.3955312500000001,0.02016306457874984,0.022098506156473432,True
961,34921,0,34919,3678.0,40389.0,29572.0,-0.0008539999999999999,-0.0023179999999999997,-0.0032329999999999998,0.36750000000000005,-0.7350000000000001,-3.535,1.17921875,0.3373125,0.32453125,1.41965625,1.14275,-0.1478125,-0.2081875,1.3931875,0.0200898114477243,0.022005726368403252,True
962,34922,0,34920,3680.0,40389.0,29574.0,-0.004148,-0.002257,0.001647,0.49000000000000005,-0.8575,-3.6575,1.18,0.341,0.32484375,1.41940625,1.143375,-0.14765625000000002,-0.20890625000000002,1.39353125,0.020236177165226958,0.022047670988853532,True
963,34923,0,34921,3680.0,40394.0,29576.0,-0.004575,-0.000549,0.003111,0.525,-0.9275000000000001,-3.6575,1.1788125,0.34496875,0.32128125,1.4157187500000001,1.135625,-0.14490625000000001,-0.2085625,1.3882812500000001,0.02028895846302986,0.021886625858102894,True
964,34924,0,34922,3680.0,40396.0,29578.0,-0.002806,6.1e-05,0.0023179999999999997,0.47250000000000003,-1.1900000000000002,-3.6050000000000004,1.1850625000000001,0.3429375,0.32196875,1.4149375,1.1495312500000001,-0.145625,-0.2105625,1.38821875,0.02023399684207802,0.02199582310406873,True
965,34925,0,34923,3679.0,40396.0,29576.0,-0.001769,0.0021349999999999997,-0.000244,0.385,-1.4700000000000002,-3.4825000000000004,1.1853125,0.3424375,0.32153125,1.4153125,1.14996875,-0.145375,-0.2111875,1.3878125000000001,0.020203144494546056,0.02200299964634118,True
966,34926,0,34924,3679.0,40396.0,29579.0,0.002074,0.0026839999999999998,-0.000549,0.36750000000000005,-1.8725000000000003,-3.7625,1.1736875,0.33971875,0.32275,1.41646875,1.14178125,-0.144375,-0.212875,1.38846875,0.020049959876782895,0.022121495278854743,True
967,34927,0,34925,3680.0,40398.0,29578.0,0.002074,0.000732,-0.001586,0.12250000000000001,-2.0825,-3.6575,1.1795625,0.34184375,0.32925,1.422625,1.14871875,-0.14571875,-0.2098125,1.3864687500000001,0.020192503070549515,0.022266281492266823,True
968,34928,0,34926,3682.0,40396.0,29580.0,0.001769,-0.0011589999999999999,-0.002013,0.08750000000000001,-2.24,-3.5700000000000003,1.1791562500000001,0.34425,0.32453125,1.41609375,1.143,-0.14671875,-0.21046875,1.3936250000000001,0.020332731543493875,0.02209787862946685,True
969,34929,0,34927,3682.0,40397.0,29577.0,0.001098,0.000183,-0.000976,0.052500000000000005,-2.345,-3.6400000000000006,1.17940625,0.34096875,0.3245,1.41503125,1.13984375,-0.14809375,-0.20978125,1.39525,0.020252633812969188,0.022068817742828636,True
970,34930,0,34928,3682.0,40394.0,29576.0,-0.0015249999999999999,0.00122,0.000122,-0.035,-2.6425,-3.5000000000000004,1.17940625,0.33959375,0.32434375,1.4191875,1.14296875,-0.1483125,-0.2094375,1.39359375,0.020204569159853306,0.02204847799540985,True
971,34931,0,34929,3682.0,40392.0,29575.0,-0.0011589999999999999,-0.002379,0.002196,-0.10500000000000001,-3.5175000000000005,-3.2550000000000003,1.17975,0.34365625,0.32453125,1.4181875,1.1437187500000001,-0.14915625,-0.21021875,1.38803125,0.02040702767824445,0.02208778059884321,True
972,34932,0,34930,3684.0,40393.0,29573.0,0.0018909999999999999,0.0011589999999999999,-0.000488,-0.17500000000000002,-3.7100000000000004,-3.3600000000000003,1.17959375,0.34109375000000003,0.323625,1.41675,1.144875,-0.14446875,-0.2093125,1.39253125,0.020110713763374893,0.02201373954753982,True
973,34933,0,34931,3683.0,40391.0,29570.0,0.008479,-0.004697,0.000915,-0.3325,-3.7975000000000003,-3.2550000000000003,1.179625,0.34140625,0.32409375,1.4169375,1.1426875,-0.144625,-0.21015625000000002,1.3908125,0.020129997877374364,0.022067185130207494,True
974,34934,0,34932,3684.0,40388.0,29572.0,0.008967,-0.004758,-0.001647,-0.035,-3.43,-3.5000000000000004,1.17659375,0.34065625,0.32503125,1.41590625,1.1411875,-0.1441875,-0.2094375,1.3980937500000001,0.02008117895870383,0.022076876011679333,True
975,34935,0,34933,3687.0,40387.0,29569.0,0.009577,0.00122,-0.001098,-0.035,-2.7825,-3.5525,1.18403125,0.34259375000000003,0.32115625000000003,1.4153125,1.14025,-0.14996875,-0.20750000000000002,1.3898125000000001,0.020395989125244728,0.021838531446865643,True
976,34936,0,34934,3685.0,40384.0,29565.0,-0.000305,0.003721,-0.0034159999999999998,0.0175,-0.36750000000000005,-3.7625,1.19503125,0.34234375,0.32053125,1.40828125,1.13634375,-0.14828125,-0.20703125,1.38596875,0.020317180958789767,0.02179377117960303,True
977,34937,0,34935,3687.0,40386.0,29567.0,-0.008905999999999999,-0.0008539999999999999,-0.0034159999999999998,-0.052500000000000005,0.4025,-3.8150000000000004,1.19515625,0.3445625,0.324625,1.4275312500000001,1.1520625,-0.14396875,-0.2090625,1.39515625,0.020234090553153155,0.022044947011062486,True
978,34938,0,34936,3687.0,40385.0,29567.0,-0.014213,-0.001647,-0.000305,0.15750000000000003,0.6125,-3.7275000000000005,1.17196875,0.34246875,0.31525000000000003,1.4059062500000001,1.1410625,-0.14675,-0.21015625000000002,1.3860625,0.020260231708200894,0.021701894220529868,True
979,34939,0,34937,3687.0,40387.0,29568.0,-0.014945,6.1e-05,0.002562,0.24500000000000002,0.35000000000000003,-3.9200000000000004,1.17978125,0.34184375,0.32940625,1.4321875,1.155125,-0.143625,-0.2074375,1.3965625,0.02010753356217221,0.022176810329470026,True
980,34940,0,34938,3687.0,40389.0,29570.0,-0.011712,-0.000793,0.006771,0.22750000000000004,-0.4025,-3.8500000000000005,1.16678125,0.32946875000000003,0.327,1.4073437500000001,1.14053125,-0.14903125,-0.207875,1.3875625,0.019814459430955434,0.022095082695197325,True
981,34941,0,34939,3688.0,40389.0,29566.0,0.002562,-0.002989,0.000122,0.24500000000000002,-2.5900000000000003,-3.4475000000000002,1.20178125,0.34600000000000003,0.31193750000000003,1.4158125000000001,1.15025,-0.14503125,-0.21356250000000002,1.38571875,0.020336741125568023,0.021702713097256965,True
982,34942,0,34940,3686.0,40384.0,29564.0,0.01281,-0.001464,-0.0048189999999999995,0.2625,-3.3425000000000002,-3.5000000000000004,1.15465625,0.33021875,0.32965625,1.41684375,1.1391875,-0.14828125,-0.20325000000000001,1.39353125,0.01981507483063624,0.022017962463718715,True
983,34943,0,34941,3686.0,40381.0,29555.0,0.016104,-0.000549,-0.006527,0.4025,-3.4475000000000002,-3.5525,1.1855625,0.34118750000000003,0.3214375,1.40909375,1.1401875000000001,-0.1465,-0.20853125,1.38075,0.02019702648416955,0.02189181757980464,True
984,34944,0,34942,3682.0,40378.0,29551.0,0.015067,0.001952,-0.004392,0.43750000000000006,-3.0625000000000004,-3.6750000000000003,1.2023125000000001,0.3453125,0.314375,1.40565625,1.14059375,-0.14625,-0.21,1.3883750000000001,0.0203577160014495,0.02165943824865758,True
985,34945,0,34943,3683.0,40377.0,29551.0,0.008113,0.002745,-0.0006709999999999999,0.42000000000000004,-2.1525000000000003,-3.8150000000000004,1.19209375,0.35228125,0.31390625,1.4046875,1.14821875,-0.145,-0.21140625000000002,1.38846875,0.020595620211223856,0.021696901641142803,True
986,34946,0,34944,3682.0,40375.0,29549.0,-0.006893,0.000549,0.002196,0.28,-0.5075000000000001,-3.9375000000000004,1.19228125,0.34275,0.32875,1.41028125,1.1480000000000001,-0.145875,-0.20784375,1.3945,0.020236375778471476,0.022166110932536072,True
987,34947,0,34945,3679.0,40375.0,29545.0,-0.007625,-6.1e-05,0.001403,0.2625,-0.035,-3.9025000000000003,1.18303125,0.344625,0.32265625000000003,1.4189375,1.14509375,-0.1459375,-0.21015625000000002,1.389,0.020316564639496812,0.022007809222627385,True
988,34948,0,34946,3678.0,40373.0,29542.0,-0.008539999999999999,0.000244,0.00042699999999999997,0.36750000000000005,-0.07,-3.99,1.17971875,0.3419375,0.3215,1.42159375,1.14825,-0.14784375,-0.20884375,1.38734375,0.02028260804859647,0.021907025196112474,True
989,34949,0,34947,3677.0,40370.0,29541.0,-0.005429,0.0015249999999999999,0.00244,0.5775,-0.22750000000000004,-4.077500000000001,1.17996875,0.3446875,0.32328125,1.4154375000000001,1.1490625,-0.14784375,-0.20975,1.3859375,0.02039648985222542,0.02201721413893163,True
990,34950,0,34948,3678.0,40370.0,29539.0,-0.0008539999999999999,0.001037,0.002562,0.5425000000000001,-0.5775,-4.025,1.185625,0.33903125,0.32506250000000003,1.4174375000000001,1.14528125,-0.14540625000000001,-0.2135,1.3958125000000001,0.0200633402057586,0.02224224089867223,True
991,34951,0,34949,3673.0,40368.0,29538.0,-0.002562,0.000549,-0.000732,0.6825000000000001,-1.1375000000000002,-4.2525,1.1844375,0.34140625,0.3241875,1.4156875,1.1437187500000001,-0.14553125,-0.2085625,1.3935625,0.020166775166729867,0.022006676356764267,True
992,34952,0,34950,3673.0,40369.0,29541.0,-0.009333,0.002379,-0.000976,0.7000000000000001,-1.4875,-3.9375000000000004,1.1865,0.3374375,0.32456250000000003,1.4109375,1.143375,-0.14528125,-0.212875,1.392125,0.019992260392493875,0.022196352147359617,True
993,34953,0,34951,3673.0,40370.0,29540.0,-0.008418,0.001586,0.000549,0.49000000000000005,-2.0475000000000003,-3.6750000000000003,1.1875625,0.34215625,0.32209375,1.42065625,1.143375,-0.14675,-0.21196875,1.3883750000000001,0.020247290007972086,0.022057789084169374,True
994,34954,0,34952,3673.0,40369.0,29537.0,0.003172,-0.001586,0.001037,0.07,-2.8350000000000004,-3.6225000000000005,1.17984375,0.34221875,0.3224375,1.41103125,1.1495625,-0.14490625000000001,-0.20921875,1.39025,0.020175062804395856,0.021960900741582166,True
995,34955,0,34953,3671.0,40370.0,29538.0,0.009089,-0.0042699999999999995,-0.000915,-0.14,-3.3075,-3.7275000000000005,1.18590625,0.34218750000000003,0.3248125,1.40728125,1.13553125,-0.14378125,-0.213875,1.3965625,0.020128112699828244,0.02224705876279612,True
996,34956,0,34954,3671.0,40368.0,29537.0,0.00244,0.000305,-0.000244,-0.36750000000000005,-3.6575,-3.7450000000000006,1.1863125,0.34221875,0.32256250000000003,1.42078125,1.14353125,-0.1475,-0.21175,1.3891875,0.02028030852055078,0.022068313938480282,True
997,34957,0,34955,3671.0,40366.0,29533.0,0.0032329999999999998,0.000549,6.1e-05,-0.36750000000000005,-4.025,-3.7100000000000004,1.17965625,0.339125,0.32534375,1.41565625,1.13978125,-0.144875,-0.20590625,1.39578125,0.02004566186406018,0.021947122925835505,True
998,34958,0,34956,3669.0,40364.0,29532.0,0.007869,-0.000488,0.000183,-0.3325,-3.9725000000000006,-3.8325000000000005,1.1788750000000001,0.33946875,0.32525,1.41465625,1.1421875000000001,-0.14534375,-0.21315625,1.3944375,0.02007892308429032,0.022236103564565235,True
999,34959,0,34957,3669.0,40361.0,29528.0,0.006344,-6.1e-05,0.000732,-0.1925,-3.7100000000000004,-3.9725000000000006,1.18540625,0.34225,0.3248125,1.4158125000000001,1.1428125,-0.1459375,-0.21221875,1.39134375,0.020218204408091425,0.02218017504075293,True
1000,34960,0,34958,3670.0,40359.0,29527.0,0.003904,-0.000183,-0.00042699999999999997,-0.07,-3.4125000000000005,-3.9725000000000006,1.1865625,0.341875,0.3236875,1.42046875,1.142625,-0.14103125,-0.21059375,1.3888125,0.020003546865877984,0.02206807712016563,True
1001,34961,0,34959,3670.0,40359.0,29525.0,0.000122,0.00042699999999999997,-0.001037,0.07,-2.5900000000000003,-3.8850000000000002,1.1815,0.3454375,0.321125,1.41603125,1.1425,-0.14653125,-0.20815625000000001,1.38865625,0.020374303244901897,0.021863757178946664,True
1002,34962,0,34960,3668.0,40358.0,29527.0,-0.001586,0.00042699999999999997,0.000366,0.052500000000000005,-2.0125,-4.025,1.18028125,0.34284375,0.32478125,1.41675,1.1451875,-0.14553125,-0.2096875,1.393,0.020226309992661683,0.022076648036039294,True
1003,34963,0,34961,3668.0,40357.0,29526.0,-0.0026839999999999998,0.000244,0.000183,0.0,-1.5575,-3.9550000000000005,1.18540625,0.3425,0.32065625000000003,1.416,1.13584375,-0.1445,-0.21090625000000002,1.3888125,0.020170225103025533,0.021955497845108547,True
1004,34964,0,34962,3669.0,40356.0,29528.0,-0.003294,-0.001037,-0.002928,-0.07,-1.12,-3.8325000000000005,1.18546875,0.34218750000000003,0.321,1.416125,1.1393125,-0.14525,-0.21071875,1.388125,0.020187718081196095,0.021962121632593,True
1005,34965,0,34963,3668.0,40355.0,29528.0,-0.004514,-0.002013,0.001037,-0.10500000000000001,-0.9625000000000001,-3.8675,1.186375,0.34265625,0.3204375,1.41625,1.14365625,-0.1478125,-0.20828125,1.38903125,0.020311104784336054,0.021840408434613674,True
1006,34966,0,34964,3668.0,40356.0,29527.0,-0.005307,-0.0006709999999999999,0.002196,-0.31500000000000006,-1.1725,-3.7275000000000005,1.1783125,0.34246875,0.32325,1.4163125,1.14028125,-0.14615625000000002,-0.2045625,1.3891875,0.02023614006887742,0.02180632267160375,True
1007,34967,0,34965,3671.0,40356.0,29529.0,-0.003721,-0.001464,0.003172,-0.3325,-1.5750000000000002,-3.7275000000000005,1.180375,0.34271875,0.320375,1.4155312500000001,1.1503125,-0.1434375,-0.206625,1.38978125,0.020136165365847343,0.021770899495489358,True
1008,34968,0,34966,3668.0,40352.0,29528.0,0.000793,-0.000366,0.0013419999999999999,-0.21000000000000002,-2.0475000000000003,-3.7450000000000006,1.17040625,0.343,0.323625,1.41775,1.1520625,-0.1453125,-0.21184375,1.3859375,0.02022390474341552,0.022115984041900977,True
1009,34969,0,34967,3669.0,40355.0,29527.0,0.002806,0.000305,-0.002562,-0.21000000000000002,-2.45,-3.5175000000000005,1.17890625,0.3420625,0.32606250000000003,1.4231562500000001,1.151125,-0.14309375,-0.215375,1.38384375,0.020095032352678496,0.022359244901224946,True
1010,34970,0,34968,3669.0,40354.0,29524.0,0.005612,0.0006709999999999999,0.000305,-0.0175,-2.6250000000000004,-3.7275000000000005,1.18025,0.34234375,0.3259375,1.4158125000000001,1.15671875,-0.14059375,-0.210375,1.38825,0.02000520389023157,0.02215217649458135,True
1011,34971,0,34969,3669.0,40356.0,29527.0,0.006161,0.00183,0.001586,0.36750000000000005,-2.5200000000000005,-3.8150000000000004,1.1856875,0.34240625,0.322125,1.4158125000000001,1.1377187500000001,-0.14915625,-0.20415625,1.4021875,0.02035526603543343,0.021743424747557562,True
1012,34972,0,34970,3667.0,40355.0,29527.0,0.002196,0.000366,-0.000183,0.385,-2.3800000000000003,-3.7450000000000006,1.1869687500000001,0.34190625,0.32196875,1.41496875,1.1374375,-0.1535,-0.20309375000000002,1.39359375,0.020510743784544684,0.021694024136893655,True
1013,34973,0,34971,3669.0,40357.0,29528.0,-0.00183,0.001098,-0.002196,0.385,-1.995,-3.5875000000000004,1.18059375,0.339375,0.32353125,1.42075,1.15328125,-0.14496875,-0.21128125,1.38415625,0.020059820951311026,0.02208939272885445,True
1014,34974,0,34972,3669.0,40358.0,29527.0,-0.004148,0.0015249999999999999,-0.000976,0.3325,-1.9250000000000003,-3.6050000000000004,1.18065625,0.33918750000000003,0.33109375,1.41678125,1.15796875,-0.142625,-0.21384375,1.38403125,0.019956922662717914,0.022505204280092873,True
1015,34975,0,34973,3670.0,40359.0,29530.0,-0.0025009999999999998,-0.001647,0.002196,0.17500000000000002,-2.0475000000000003,-3.4825000000000004,1.17421875,0.33796875,0.32428125,1.4228125,1.1455312500000001,-0.14515625000000001,-0.21075,1.3880000000000001,0.020009189213675106,0.022098912673089437,True
1016,34976,0,34974,3668.0,40358.0,29532.0,-0.001098,-0.0026839999999999998,0.0013419999999999999,0.17500000000000002,-2.345,-3.4650000000000003,1.1794375,0.341375,0.32621875,1.41646875,1.15309375,-0.1431875,-0.2105,1.38253125,0.020070361463249208,0.022168842031350035,True
1017,34977,0,34975,3669.0,40358.0,29530.0,-0.000793,-0.001037,0.0023179999999999997,0.15750000000000003,-2.5025000000000004,-3.3425000000000002,1.185,0.34296875,0.32390625,1.416,1.14184375,-0.1445625,-0.21025,1.389,0.02019217577456622,0.022063227352051303,True
1018,34978,0,34976,3668.0,40358.0,29530.0,0.001403,0.001586,-0.0013419999999999999,0.08750000000000001,-2.555,-3.2550000000000003,1.1840625,0.3430625,0.32221875,1.4073125,1.14109375,-0.147625,-0.20846875,1.3965,0.020320321356655156,0.021921564122059554,True
1019,34979,0,34977,3670.0,40356.0,29531.0,0.0028669999999999998,0.000976,-0.000549,0.0175,-2.66,-3.2900000000000005,1.18034375,0.33918750000000003,0.32890625,1.42003125,1.1435625,-0.14671875,-0.209125,1.3884375,0.020123075728456896,0.022224316244391317,True
1020,34980,0,34978,3669.0,40355.0,29530.0,0.002989,0.000915,-0.00183,-0.035,-2.4325,-3.3775000000000004,1.1803125,0.33928125000000003,0.32446875000000003,1.4199375,1.1484375,-0.14496875,-0.21096875,1.3822812500000001,0.020055938154817453,0.022115492590522635,True
1021,34981,0,34979,3670.0,40352.0,29530.0,-0.001586,0.001647,-0.0017079999999999999,0.10500000000000001,-2.3800000000000003,-3.4125000000000005,1.17828125,0.33968750000000003,0.32396875,1.41503125,1.1439375,-0.14665625000000002,-0.206875,1.393375,0.020141246264687274,0.021929462187911496,True
1022,34982,0,34980,3670.0,40353.0,29530.0,-0.0026839999999999998,-0.0006709999999999999,-0.0008539999999999999,0.3325,-2.2750000000000004,-3.4125000000000005,1.185,0.34268750000000003,0.3248125,1.4206875,1.14325,-0.1446875,-0.211125,1.38953125,0.020185599834332088,0.02213600152822308,True
1023,34983,0,34981,3673.0,40354.0,29533.0,-0.002745,-0.000976,0.001403,0.5075000000000001,-2.2925000000000004,-3.5000000000000004,1.1795625,0.342625,0.3243125,1.4205,1.143,-0.14871875,-0.20753125,1.387375,0.020346576358217763,0.021970177153029596,True
1024,34984,0,34982,3672.0,40358.0,29538.0,-0.001952,-0.000549,0.0044529999999999995,0.6825000000000001,-2.4850000000000003,-3.4825000000000004,1.1801875,0.34165625,0.323,1.4170625000000001,1.1446875,-0.1476875,-0.20853125,1.3890625,0.02026462161231795,0.021956360941971644,True
1025,34985,0,34983,3674.0,40360.0,29540.0,0.003843,-0.000915,-0.001464,0.8575,-2.2925000000000004,-3.535,1.1792500000000001,0.33865625,0.32503125,1.4160625,1.1501875,-0.1455625,-0.20946875,1.39378125,0.02005415073680723,0.022078138331721963,True
1026,34986,0,34984,3675.0,40363.0,29546.0,0.00366,0.0008539999999999999,-0.0018909999999999999,0.9100000000000001,-2.1175,-3.535,1.189375,0.34346875,0.31934375,1.41578125,1.136625,-0.1458125,-0.2115,1.3888125,0.020263606784820348,0.021925273114016063,True
1027,34987,0,34985,3676.0,40364.0,29549.0,0.000305,0.003111,-0.000366,0.77,-1.9250000000000003,-3.7100000000000004,1.17946875,0.33765625,0.326125,1.41384375,1.15159375,-0.14509375,-0.2063125,1.39109375,0.01999370990224463,0.02199581204282974,True
1028,34988,0,34986,3678.0,40367.0,29556.0,-0.0037819999999999998,0.002196,0.0013419999999999999,0.5775,-1.7500000000000002,-3.5875000000000004,1.180375,0.34384375,0.324125,1.42565625,1.14090625,-0.1455625,-0.21225,1.38865625,0.020268993526243177,0.022153042364918586,True
1029,34989,0,34987,3679.0,40372.0,29557.0,-0.006161,-0.00042699999999999997,0.0023179999999999997,0.43750000000000006,-1.9250000000000003,-3.535,1.1775,0.34015625,0.32471875,1.4133125,1.14278125,-0.14465625000000001,-0.20909375,1.39415625,0.020079494815752448,0.02205008190362351,True
1030,34990,0,34988,3678.0,40375.0,29561.0,-0.004331,-0.000732,0.001647,0.24500000000000002,-2.8350000000000004,-3.5525,1.17821875,0.34278125,0.32003125,1.4136875,1.1436250000000001,-0.14946875,-0.209625,1.38846875,0.020383471168491023,0.021877920455190856,True
1031,34991,0,34989,3679.0,40377.0,29563.0,0.002196,0.000244,0.0008539999999999999,0.07,-3.3425000000000002,-3.535,1.19165625,0.3479375,0.32534375,1.42128125,1.15140625,-0.1451875,-0.2126875,1.3925,0.02042332452377933,0.022221046300622348,True
1032,34992,0,34990,3677.0,40374.0,29561.0,0.008418,-0.001464,-0.000976,-0.035,-3.6575,-3.5700000000000003,1.1770625000000001,0.33918750000000003,0.32771875,1.40321875,1.14246875,-0.1470625,-0.20740625000000001,1.38921875,0.020137024948686823,0.0221058379602317,True
1033,34993,0,34991,3679.0,40372.0,29560.0,0.010369999999999999,-0.00061,-0.003721,0.035,-3.5700000000000003,-3.6750000000000003,1.1855625,0.33921875,0.32575,1.41659375,1.1476250000000001,-0.14575,-0.2095625,1.392625,0.020085056376380937,0.022111613954196817,True
1034,34994,0,34992,3679.0,40376.0,29563.0,0.007259,0.000915,-0.0053679999999999995,0.17500000000000002,-3.22,-3.7275000000000005,1.18803125,0.3434375,0.32225,1.4251562500000001,1.14265625,-0.14525,-0.2094375,1.38915625,0.02023948809807312,0.021961993127680064,True
1035,34995,0,34993,3677.0,40376.0,29562.0,-0.004392,0.0030499999999999998,0.001403,0.052500000000000005,-2.4325,-3.7800000000000002,1.1775,0.33978125000000003,0.32215625000000003,1.4137187500000001,1.14334375,-0.14571875,-0.20840625000000002,1.38896875,0.020107084201003544,0.021916457222374976,True
1036,34996,0,34994,3680.0,40379.0,29566.0,-0.006771,-0.000366,0.0035989999999999998,-0.08750000000000001,-2.3800000000000003,-3.7450000000000006,1.1830625000000001,0.34068750000000003,0.32634375,1.42090625,1.1466875,-0.145125,-0.2090625,1.3893125,0.020120521223228292,0.022115943151454126,True
1037,34997,0,34995,3680.0,40378.0,29564.0,-0.0062829999999999995,-0.003111,0.0035989999999999998,-0.08750000000000001,-2.5725000000000002,-3.535,1.17784375,0.3423125,0.32328125,1.423375,1.1430625,-0.1460625,-0.2105,1.3885625,0.02022586498316237,0.02204751037772867,True
1038,34998,0,34996,3681.0,40378.0,29568.0,-0.0011589999999999999,-0.003294,0.002257,-0.10500000000000001,-3.0275000000000003,-3.4125000000000005,1.18065625,0.3420625,0.32203125,1.41796875,1.1435625,-0.14721875,-0.20790625000000001,1.38921875,0.02026242670286821,0.021891091882429936,True
1039,34999,0,34997,3680.0,40379.0,29565.0,0.002745,-0.0021349999999999997,0.000366,-0.1925,-3.2550000000000003,-3.43,1.18009375,0.346375,0.32221875,1.4240625,1.14421875,-0.14653125,-0.20853125,1.3862812500000001,0.02041312869731548,0.021924089260888145,True
1040,35000,0,34998,3682.0,40379.0,29567.0,0.01159,-0.004697,-0.0017079999999999999,-0.15750000000000003,-3.1500000000000004,-3.6225000000000005,1.18040625,0.3420625,0.32575,1.4159375,1.1435625,-0.152625,-0.20428125,1.38465625,0.020481728176543958,0.021898243724960846,True
1041,35001,0,34999,3682.0,40379.0,29567.0,0.006771,0.00042699999999999997,-0.001952,0.15750000000000003,-2.5725000000000002,-3.6925000000000003,1.180125,0.342,0.32390625,1.423125,1.16796875,-0.152375,-0.20528125,1.3816875,0.02046900149571212,0.02186248094101365,True
1042,35002,0,35000,3682.0,40382.0,29571.0,-0.0025009999999999998,0.003538,-0.001281,0.385,-1.995,-3.5875000000000004,1.187125,0.34253125,0.32471875,1.42084375,1.1410625,-0.15165625,-0.20753125,1.37896875,0.02046184720768374,0.021986959120418363,True
1043,35003,0,35001,3683.0,40384.0,29573.0,-0.007625,0.004514,0.003538,0.6475000000000001,-1.5050000000000001,-3.6750000000000003,1.1845,0.34315625,0.3245,1.42065625,1.13478125,-0.15796875,-0.2103125,1.37903125,0.020743672830523058,0.022090276612497257,True
1044,35004,0,35002,3685.0,40390.0,29578.0,-0.009516,0.005063,0.00549,0.8225000000000001,-1.1725,-3.6050000000000004,1.18709375,0.33918750000000003,0.325875,1.416375,1.13071875,-0.14703125,-0.21875,1.40346875,0.02013575685416815,0.022487741935483873,True
1045,35005,0,35003,3686.0,40390.0,29578.0,-0.001464,0.001769,-0.000732,0.7525000000000001,-1.6275000000000002,-3.4650000000000003,1.1796875,0.33853125,0.3244375,1.41559375,1.1495625,-0.1391875,-0.206625,1.4105,0.019790175207844093,0.021938725452226405,True
1046,35006,0,35004,3686.0,40392.0,29580.0,0.003477,0.000183,-0.002562,0.56,-1.7675,-3.2725000000000004,1.18028125,0.34134375,0.32456250000000003,1.41809375,1.165875,-0.14359375,-0.19884375,1.391375,0.02008555582161417,0.02162939086707397,True
1047,35007,0,35005,3686.0,40394.0,29580.0,0.005978,-0.000122,-0.0053679999999999995,0.24500000000000002,-1.995,-3.1850000000000005,1.1795,0.3423125,0.32440625,1.42284375,1.15803125,-0.1461875,-0.20628125,1.37375,0.02023093707857607,0.02192354515421488,True
1048,35008,0,35006,3686.0,40393.0,29582.0,0.005063,-0.003721,-0.00915,-0.0175,-2.2225,-3.325,1.18603125,0.33946875,0.3254375,1.416,1.13421875,-0.1476875,-0.21475,1.40678125,0.02017403322781943,0.022308200580224865,True
1049,35009,0,35007,3687.0,40395.0,29582.0,0.0028669999999999998,-0.006405,-0.003355,-0.14,-2.1,-3.535,1.179875,0.343375,0.32365625000000003,1.42215625,1.15625,-0.13978125,-0.20309375000000002,1.38059375,0.020014939033467835,0.021763746628465627,True
1050,35010,0,35008,3688.0,40397.0,29583.0,-0.0042699999999999995,-0.003843,0.008173999999999999,-0.15750000000000003,-1.5750000000000002,-3.6575,1.18084375,0.34259375000000003,0.3241875,1.423125,1.14546875,-0.1505,-0.20428125,1.37903125,0.0204175379391731,0.021833689029704197,True
1051,35011,0,35009,3688.0,40397.0,29586.0,-0.004514,-0.0026839999999999998,0.004209,-0.07,-1.6275000000000002,-3.4475000000000002,1.1849375,0.34253125,0.3233125,1.41234375,1.134125,-0.1466875,-0.2100625,1.386875,0.0202602841487057,0.022031128585479696,True
1052,35012,0,35010,3689.0,40403.0,29587.0,-0.0023179999999999997,0.0013419999999999999,-0.000549,0.21000000000000002,-1.4875,-3.3950000000000005,1.1799375,0.33771875,0.3229375,1.4164375,1.143125,-0.147625,-0.2081875,1.3843750000000001,0.020099026301758454,0.021939891204163876,True
1053,35013,0,35011,3690.0,40402.0,29587.0,-0.001403,0.00549,-0.00122,0.49000000000000005,-1.3825,-3.4825000000000004,1.18403125,0.3424375,0.3291875,1.4129375,1.15078125,-0.14490625000000001,-0.21234375,1.3889375,0.020184122686332653,0.022365916145561087,True
1054,35014,0,35012,3691.0,40405.0,29589.0,-0.000305,0.003904,-0.002379,0.6475000000000001,-1.4525000000000001,-3.43,1.179,0.3403125,0.32465625,1.41884375,1.1508125,-0.14521875,-0.20934375,1.39309375,0.020108794831274826,0.022057599144958237,True
1055,35015,0,35013,3692.0,40409.0,29591.0,0.00122,0.0057339999999999995,0.000244,0.77,-1.6625,-3.5000000000000004,1.17940625,0.34034375,0.32506250000000003,1.4196875,1.14828125,-0.14403125,-0.21028125,1.385375,0.020061894179332625,0.02211224828294797,True
1056,35016,0,35014,3694.0,40412.0,29593.0,0.00042699999999999997,0.002928,-0.004209,0.6475000000000001,-1.9250000000000003,-3.4650000000000003,1.18040625,0.34253125,0.323625,1.41565625,1.14028125,-0.1485,-0.20846875,1.3939062500000001,0.020333819905998304,0.02197965329798069,True
1057,35017,0,35015,3693.0,40413.0,29594.0,0.000976,-0.000183,-0.001281,0.6125,-2.1350000000000002,-3.4475000000000002,1.18421875,0.342625,0.32403125,1.41609375,1.14290625,-0.14578125,-0.209625,1.38753125,0.020227394795933558,0.02204314399748034,True
1058,35018,0,35016,3696.0,40416.0,29595.0,0.003111,-0.001037,0.00122,0.35000000000000003,-2.1875,-3.6750000000000003,1.18434375,0.343,0.325125,1.4161875,1.14434375,-0.14584375,-0.2084375,1.3885,0.020245461498938095,0.022040352666296614,True
1059,35019,0,35017,3697.0,40417.0,29597.0,0.004209,-0.002013,0.001098,0.12250000000000001,-2.0650000000000004,-3.6575,1.18946875,0.3424375,0.321125,1.41703125,1.147375,-0.145125,-0.21059375,1.3804375,0.02019299962207692,0.021962235023666035,True
1060,35020,0,35018,3697.0,40420.0,29600.0,0.001586,-0.003477,-0.00183,-0.07,-1.3125000000000002,-3.3775000000000004,1.19790625,0.3441875,0.3183125,1.4129375,1.15065625,-0.14503125,-0.21009375,1.389375,0.020261673921006005,0.021825865502895874,True
1061,35021,0,35019,3699.0,40422.0,29599.0,0.000549,-0.002013,-0.001098,-0.07,-0.525,-3.325,1.19746875,0.34334375,0.31865625000000003,1.41196875,1.14925,-0.1450625,-0.21325,1.38878125,0.020227996924837118,0.02196756940931102,True
1062,35022,0,35020,3697.0,40424.0,29600.0,-0.00061,-0.0017079999999999999,-0.000488,-0.12250000000000001,0.052500000000000005,-3.2025,1.17409375,0.344625,0.32209375,1.41253125,1.14653125,-0.14425,-0.20978125,1.3895625,0.02024809219586444,0.021969426097148234,True
1063,35023,0,35021,3700.0,40425.0,29602.0,-0.005612,-0.000488,-0.000732,-0.052500000000000005,0.45500000000000007,-3.3425000000000002,1.1850625000000001,0.3461875,0.3199375,1.4108125,1.1460000000000001,-0.1448125,-0.21109375,1.38934375,0.02033563110088347,0.021933385392801593,True
1064,35024,0,35022,3699.0,40427.0,29603.0,-0.010187,0.000793,0.002745,0.28,0.525,-3.4125000000000005,1.193875,0.34471875,0.32203125,1.4166875,1.137,-0.13878125,-0.21153125,1.389125,0.020030008764423433,0.022037536349544185,True
1065,35025,0,35023,3701.0,40426.0,29604.0,-0.007869,0.0034159999999999998,0.003355,0.47250000000000003,-0.8925000000000001,-3.4125000000000005,1.1868750000000001,0.34115625,0.32825,1.4074375000000001,1.14428125,-0.14640625000000002,-0.20784375,1.39425,0.020191928146657438,0.022145456470074914,True
1066,35026,0,35024,3701.0,40429.0,29603.0,0.000915,0.00061,0.000976,0.385,-1.5925000000000002,-3.3425000000000002,1.17390625,0.3374375,0.3274375,1.42484375,1.143125,-0.14584375,-0.20446875,1.39653125,0.020015090588830633,0.021975539124361076,True
1067,35027,0,35025,3702.0,40430.0,29603.0,0.008662,-0.001281,-0.0037819999999999998,0.45500000000000007,-2.2225,-3.43,1.18259375,0.34453125,0.32453125,1.4113437500000001,1.1321875000000001,-0.144125,-0.2103125,1.38925,0.02023913685006187,0.02209156738476631,True
1068,35028,0,35026,3701.0,40429.0,29601.0,0.010369999999999999,-0.00122,-0.005124,0.47250000000000003,-2.6425,-3.5175000000000005,1.18978125,0.34096875,0.3228125,1.40978125,1.1483125,-0.145375,-0.20765625000000001,1.3916875,0.02014231503962974,0.02191326349489121,True
1069,35029,0,35027,3701.0,40428.0,29599.0,0.009271999999999999,-0.000366,-0.001647,0.3325,-2.3275,-3.6575,1.17503125,0.336125,0.327625,1.42209375,1.142875,-0.1466875,-0.208375,1.39646875,0.01999497860731415,0.0221410978638591,True
1070,35030,0,35028,3698.0,40428.0,29599.0,0.000122,-0.00183,-0.001281,0.36750000000000005,-1.0675000000000001,-3.5875000000000004,1.172625,0.33996875,0.327125,1.4191562500000001,1.1429375,-0.14878125,-0.209375,1.39434375,0.020239116622086262,0.022160836452820444,True
1071,35031,0,35029,3698.0,40428.0,29600.0,-0.0030499999999999998,-0.0015249999999999999,-0.000122,0.43750000000000006,-0.6125,-3.5700000000000003,1.1783125,0.34184375,0.32525,1.421375,1.1425625,-0.14821875,-0.20865625000000002,1.394125,0.02029393989981145,0.022054352975498175,True
1072,35032,0,35030,3695.0,40429.0,29600.0,-0.005795,0.000732,0.001281,0.36750000000000005,-0.10500000000000001,-3.43,1.17846875,0.34221875,0.3253125,1.4204375,1.143,-0.14465625000000001,-0.209625,1.390625,0.02016491744420673,0.022096067163369943,True
1073,35033,0,35031,3694.0,40429.0,29599.0,-0.005063,0.001403,0.002013,0.385,-0.035,-3.5000000000000004,1.179625,0.33996875,0.32456250000000003,1.4225,1.1420625,-0.14065625,-0.21206250000000001,1.3893125,0.019909359340635157,0.022163539351511257,True
1074,35034,0,35032,3694.0,40428.0,29598.0,-0.001647,0.000915,-0.00042699999999999997,0.43750000000000006,-0.035,-3.3775000000000004,1.17959375,0.34134375,0.3238125,1.42221875,1.1499375,-0.14096875,-0.2124375,1.38928125,0.01997900353522474,0.022147708176840933,True
1075,35035,0,35033,3693.0,40430.0,29597.0,-0.0026839999999999998,0.002013,-0.000488,0.7175,-0.4025,-3.5000000000000004,1.175375,0.33971875,0.32590625,1.416625,1.14440625,-0.14378125,-0.2085,1.39290625,0.020025860696530295,0.022075149224445957,True
1076,35036,0,35034,3692.0,40428.0,29601.0,-0.000488,0.002806,0.000915,0.665,-0.525,-3.5700000000000003,1.18615625,0.3470625,0.323375,1.41903125,1.14221875,-0.145625,-0.21259375,1.38878125,0.02040483524448011,0.02213594939616909,True
1077,35037,0,35035,3690.0,40429.0,29601.0,0.0011589999999999999,0.0018909999999999999,0.00061,0.5950000000000001,-0.8400000000000001,-3.5700000000000003,1.17959375,0.3393125,0.32834375,1.41615625,1.15075,-0.14453125,-0.2085625,1.38821875,0.020039475812975247,0.022178361478505798,True
1078,35038,0,35036,3690.0,40427.0,29602.0,0.002806,-6.1e-05,-0.000915,0.56,-0.9275000000000001,-3.43,1.17975,0.3395625,0.32456250000000003,1.42190625,1.1436875,-0.14784375,-0.2095,1.3936250000000001,0.020184255581826016,0.022060038414671926,True
1079,35039,0,35037,3688.0,40425.0,29603.0,-0.00122,0.000488,0.001647,0.31500000000000006,-1.0150000000000001,-3.5525,1.18,0.33928125000000003,0.3246875,1.42284375,1.1434375,-0.1468125,-0.20890625000000002,1.3961875000000001,0.020130762600653815,0.022041216752615583,True
1080,35040,0,35038,3689.0,40426.0,29598.0,-0.0037819999999999998,-0.0017079999999999999,-0.0006709999999999999,0.08750000000000001,-1.0675000000000001,-3.325,1.179125,0.34318750000000003,0.32590625,1.4228750000000001,1.13603125,-0.14871875,-0.2095,1.39375,0.020369869519475024,0.02211554348499556,True
1081,35041,0,35039,3688.0,40425.0,29598.0,-0.0017079999999999999,-0.003538,-0.0006709999999999999,0.1925,-1.1375000000000002,-3.1500000000000004,1.1800625,0.33840625,0.32759375,1.41590625,1.14309375,-0.14525,-0.211625,1.3775,0.020031113780143092,0.022271068133592854,True
1082,35042,0,35040,3687.0,40423.0,29598.0,0.002745,-0.001647,-0.001952,0.15750000000000003,-0.9975,-3.3600000000000003,1.17996875,0.33959375,0.32606250000000003,1.42021875,1.14096875,-0.14065625,-0.212875,1.3865,0.019893825380161323,0.022258302659225723,True
1083,35043,0,35041,3687.0,40422.0,29597.0,0.0046359999999999995,-0.002562,-0.0026839999999999998,0.24500000000000002,-0.9625000000000001,-3.4475000000000002,1.179875,0.34053125,0.3296875,1.4144375,1.1481875,-0.1443125,-0.210875,1.3895,0.020081074994369792,0.022327259960658177,True
1084,35044,0,35042,3689.0,40424.0,29597.0,-0.00042699999999999997,0.000549,-0.001098,0.6825000000000001,-0.4025,-3.43,1.173375,0.34196875,0.32509375,1.4228125,1.14675,-0.1456875,-0.20946875,1.3940625,0.02019641188514512,0.022080719966232225,True
1085,35045,0,35043,3688.0,40422.0,29598.0,-0.004392,0.002379,-0.000183,0.8750000000000001,-0.2625,-3.5175000000000005,1.1740625,0.34240625,0.32556250000000003,1.4155625,1.1434375,-0.14759375,-0.208625,1.3889375,0.020291876908025256,0.022065999204828858,True
1086,35046,0,35044,3687.0,40425.0,29601.0,-0.005429,0.002989,0.002379,0.9975,-0.14,-3.5700000000000003,1.18390625,0.339375,0.32521875,1.41890625,1.1496250000000001,-0.1450625,-0.21071875,1.3940000000000001,0.02006362584482852,0.022136372964970317,True
1087,35047,0,35045,3688.0,40429.0,29605.0,-0.006405,0.000305,0.0015249999999999999,1.1725,-0.36750000000000005,-3.7275000000000005,1.1800625,0.3425,0.32356250000000003,1.41921875,1.1430625,-0.14346875,-0.211625,1.38928125,0.02012837322723149,0.02210456753728839,True
1088,35048,0,35046,3689.0,40435.0,29610.0,-0.0051849999999999995,0.000305,0.0006709999999999999,1.5225000000000002,-0.7000000000000001,-3.6225000000000005,1.17990625,0.342625,0.32521875,1.41690625,1.14215625,-0.14803125,-0.2088125,1.3894375,0.020318685400077908,0.02205937403992864,True
1089,35049,0,35047,3689.0,40441.0,29615.0,-0.001098,-0.000488,-0.0026839999999999998,2.1700000000000004,-2.1,-3.7800000000000002,1.1801875,0.34228125,0.32459375,1.4170625000000001,1.14353125,-0.14615625000000002,-0.208875,1.39015625,0.02022837485779957,0.022036081808840768,True
1090,35050,0,35048,3690.0,40450.0,29625.0,0.000915,0.001281,-0.000305,2.6250000000000004,-2.6950000000000003,-3.9550000000000005,1.1793125,0.34253125,0.32521875,1.415875,1.14259375,-0.14453125,-0.21071875,1.40140625,0.02017278757482608,0.022136372964970317,True
1091,35051,0,35049,3689.0,40460.0,29637.0,0.0008539999999999999,0.005307,0.003111,2.9225000000000003,-3.325,-4.445,1.1833125,0.3425625,0.32446875000000003,1.42259375,1.1291875,-0.14415625,-0.21331250000000002,1.387375,0.020158863493107155,0.02221014782673788,True
1092,35052,0,35050,3689.0,40472.0,29646.0,-0.0028669999999999998,0.006222,0.0066489999999999995,2.7825,-4.305000000000001,-4.532500000000001,1.1803125,0.34253125,0.32084375,1.4166875,1.13975,-0.1485,-0.2066875,1.38928125,0.020333819905998304,0.021792789699127565,True
1093,35053,0,35051,3690.0,40481.0,29657.0,-0.0050019999999999995,0.0048189999999999995,0.0055509999999999995,2.0300000000000002,-5.5125,-4.375,1.18853125,0.34334375,0.32309375,1.4235,1.15365625,-0.1441875,-0.21334375,1.3841875000000001,0.02019248939315104,0.022154622902918975,True
1094,35054,0,35052,3689.0,40491.0,29663.0,0.004941,-0.000793,-0.002257,0.77,-8.4525,-4.375,1.1749375,0.342125,0.325375,1.4388750000000001,1.143,-0.14246875,-0.20975,1.3989375,0.020072253381295153,0.02210369789031279,True
1095,35055,0,35053,3690.0,40495.0,29667.0,0.017568,0.0023179999999999997,-0.001647,0.47250000000000003,-8.5225,-4.0600000000000005,1.1668125,0.32978125,0.3305625,1.41921875,1.1394375,-0.148375,-0.2075625,1.39484375,0.019800762991298588,0.02222962349059307,True
1096,35056,0,35054,3689.0,40496.0,29666.0,0.021411,-0.000976,-0.0021349999999999997,0.31500000000000006,-7.577500000000001,-3.5700000000000003,1.19125,0.35059375,0.31871875,1.405375,1.1420937500000001,-0.1448125,-0.2096875,1.3869375,0.020518123717051022,0.021826231751235943,True
1097,35057,0,35055,3689.0,40494.0,29666.0,0.018971,-0.0048189999999999995,-0.0028669999999999998,0.0175,-6.335000000000001,-3.3950000000000005,1.18803125,0.33690625,0.32640625,1.4287812500000001,1.15525,-0.14371875,-0.209125,1.399875,0.019906833946199774,0.022121049397696116,True
1098,35058,0,35056,3689.0,40492.0,29664.0,0.013908,-0.00366,-0.004392,-0.07,-4.585000000000001,-3.43,1.1695312500000001,0.3398125,0.324625,1.40528125,1.1399062500000001,-0.15081250000000002,-0.20953125,1.3868125,0.020315051512242083,0.02206388238103536,True
1099,35059,0,35057,3689.0,40496.0,29661.0,0.00042699999999999997,0.000122,-0.004575,0.21000000000000002,-1.1900000000000002,-3.325,1.2028125,0.34725,0.3245,1.41290625,1.15296875,-0.14440625,-0.2159375,1.38665625,0.020363153473695383,0.02231743041127357,True
1100,35060,0,35058,3688.0,40496.0,29663.0,-0.011041,-0.0015249999999999999,-0.00183,0.36750000000000005,-0.0175,-3.4650000000000003,1.175875,0.3373125,0.33087500000000003,1.43734375,1.14896875,-0.14278125,-0.20909375,1.39484375,0.01988560245104321,0.0223043768418634,True
1101,35061,0,35059,3687.0,40502.0,29667.0,-0.018361,0.000915,0.002806,0.525,0.43750000000000006,-3.6400000000000006,1.18596875,0.347875,0.32040625,1.41740625,1.14059375,-0.14575,-0.21075,1.38703125,0.020443556319435098,0.02193885980401268,True
1102,35062,0,35060,3690.0,40505.0,29673.0,-0.021655,0.002562,0.0062829999999999995,0.6300000000000001,0.45500000000000007,-3.7100000000000004,1.1706875,0.3334375,0.3293125,1.41540625,1.1424375,-0.147,-0.2094375,1.3931875,0.019896363937549177,0.02225371820390292,True
1103,35063,0,35061,3689.0,40509.0,29676.0,-0.018483,0.001769,0.007137,0.6125,-0.14,-3.5175000000000005,1.1924375,0.345375,0.3168125,1.4115,1.1445,-0.145625,-0.2106875,1.3895,0.020334946807133797,0.02178789842295887,True
1104,35064,0,35062,3690.0,40512.0,29679.0,0.001098,-0.002745,0.00061,0.47250000000000003,-2.5200000000000005,-3.3950000000000005,1.1746875,0.34450000000000003,0.3271875,1.4131562500000001,1.14453125,-0.14459375,-0.20796875,1.388875,0.02025686392010634,0.022106615202896775,True
1105,35065,0,35063,3690.0,40515.0,29679.0,0.009394,0.000305,0.0,0.3325,-3.1325000000000003,-3.535,1.17640625,0.34246875,0.32390625,1.42084375,1.14325,-0.14471875,-0.21256250000000002,1.3893125,0.020177808035142263,0.02215662840312751,True
1106,35066,0,35064,3690.0,40517.0,29677.0,0.012444,0.000915,-0.000793,0.24500000000000002,-3.3950000000000005,-3.7275000000000005,1.18053125,0.34128125,0.32428125,1.4219375,1.149125,-0.1445625,-0.2100625,1.395125,0.020122284261725597,0.022071142939015544,True
1107,35067,0,35065,3691.0,40517.0,29678.0,0.012199999999999999,-0.0013419999999999999,-0.0030499999999999998,0.2625,-3.1325000000000003,-3.5525,1.18228125,0.3415625,0.322375,1.41609375,1.143,-0.14684375,-0.20959375,1.3956875,0.020226504757997615,0.02197346867912643,True
1108,35068,0,35066,3691.0,40519.0,29676.0,0.009821,0.000976,-0.003721,0.21000000000000002,-2.4675000000000002,-3.5700000000000003,1.17996875,0.34209375000000003,0.324625,1.41546875,1.14290625,-0.145875,-0.21221875,1.38925,0.020209197223128177,0.022172431016880684,True
1109,35069,0,35067,3691.0,40521.0,29679.0,0.000549,0.001769,-0.002806,0.10500000000000001,-1.05,-3.5875000000000004,1.1791562500000001,0.3395625,0.3245,1.4197187500000001,1.143125,-0.14475,-0.21371875,1.39434375,0.020058708414872797,0.02222784346167397,True
1110,35070,0,35068,3692.0,40523.0,29679.0,-0.004209,-0.002013,-0.001281,0.31500000000000006,-0.7525000000000001,-3.7100000000000004,1.17196875,0.34168750000000003,0.323875,1.42128125,1.14165625,-0.1450625,-0.21053125,1.3896875,0.02015940111979416,0.022073297131800857,True
1111,35071,0,35069,3693.0,40527.0,29683.0,-0.0077469999999999995,-0.000366,0.002928,0.43750000000000006,-0.56,-3.8500000000000005,1.17965625,0.34368750000000003,0.3249375,1.42303125,1.1475625,-0.14475,-0.21090625000000002,1.39315625,0.020229553008417982,0.022132329309234342,True
1112,35072,0,35070,3694.0,40531.0,29683.0,-0.009271999999999999,0.001769,0.005246,0.35000000000000003,-0.6475000000000001,-3.8675,1.1759375,0.34068750000000003,0.32365625000000003,1.416,1.13146875,-0.1481875,-0.20990625000000002,1.3949375,0.020244790628696257,0.022039015537286523,True
1113,35073,0,35071,3696.0,40530.0,29683.0,-0.008723,0.000549,0.0025009999999999998,0.21000000000000002,-1.2075,-3.6225000000000005,1.18425,0.34275,0.32578125,1.41578125,1.1425,-0.14546875,-0.2129375,1.3816875,0.020219891154525632,0.022249210778328737,True
1114,35074,0,35072,3696.0,40533.0,29685.0,0.004331,-0.002013,0.0011589999999999999,-0.10500000000000001,-2.1700000000000004,-3.535,1.18375,0.34175,0.320625,1.41621875,1.14675,-0.14546875,-0.21196875,1.38859375,0.020178475516239462,0.021997126937477976,True
1115,35075,0,35073,3696.0,40534.0,29682.0,0.009089,-0.001952,-0.002806,-0.17500000000000002,-2.2225,-3.6225000000000005,1.18053125,0.34278125,0.32353125,1.42475,1.1395,-0.14615625000000002,-0.20896875,1.38928125,0.020249082087340508,0.021995980312048607,True
1116,35076,0,35074,3697.0,40533.0,29685.0,0.008296,-0.002196,-0.005856,-0.14,-1.8900000000000001,-3.5000000000000004,1.18021875,0.341875,0.32159375,1.4161875,1.142625,-0.14628125,-0.20946875,1.3910625,0.020216622383622734,0.021936148433657803,True
1117,35077,0,35075,3698.0,40537.0,29687.0,0.0015249999999999999,-0.002379,-0.0050019999999999995,0.17500000000000002,-1.4700000000000002,-3.5700000000000003,1.17946875,0.33984375,0.32356250000000003,1.416375,1.1456875,-0.14425,-0.210125,1.39475,0.02005006367975812,0.0220439795333564,True
1118,35078,0,35076,3699.0,40540.0,29688.0,-0.004331,-6.1e-05,-0.000305,0.42000000000000004,-1.1375000000000002,-3.6750000000000003,1.1843125,0.34225,0.32921875,1.41678125,1.14303125,-0.14834375,-0.2063125,1.38965625,0.02031583428987754,0.02212361961368548,True
1119,35079,0,35077,3700.0,40544.0,29692.0,-0.010369999999999999,0.002806,0.008601,0.665,-1.715,-3.9375000000000004,1.18440625,0.34265625,0.3229375,1.423,1.14575,-0.1453125,-0.2103125,1.38946875,0.02020966802562609,0.02202573799904483,True
1120,35080,0,35078,3701.0,40546.0,29694.0,-0.004392,0.001647,0.003721,0.6300000000000001,-2.555,-3.8500000000000005,1.1805,0.34203125,0.32240625,1.4175625,1.14809375,-0.14640625000000002,-0.2101875,1.39278125,0.02022816542316727,0.02199874536287668,True
1121,35081,0,35079,3704.0,40550.0,29698.0,0.0018909999999999999,0.0011589999999999999,-0.001769,0.45500000000000007,-3.4650000000000003,-3.7625,1.18740625,0.3415,0.3241875,1.4204375,1.1475312500000001,-0.145125,-0.211625,1.391,0.020154171908408014,0.022130381583227065,True
1122,35082,0,35080,3703.0,40549.0,29693.0,0.010431,6.1e-05,-0.002745,0.28,-4.0600000000000005,-3.7275000000000005,1.18671875,0.3469375,0.32084375,1.4160625,1.14315625,-0.14728125,-0.2091875,1.3917187500000001,0.020466848622968686,0.02189380581235946,True
1123,35083,0,35081,3703.0,40550.0,29695.0,0.013603,0.00042699999999999997,-0.002013,0.10500000000000001,-4.112500000000001,-3.7100000000000004,1.1829375,0.34025,0.3300625,1.414625,1.148875,-0.139625,-0.21065625000000002,1.40271875,0.019879140624595452,0.022333915463361307,True
1124,35084,0,35082,3705.0,40549.0,29695.0,0.009943,-0.00183,-0.002196,-0.0175,-2.7300000000000004,-3.4650000000000003,1.1835,0.33875,0.3236875,1.412875,1.14375,-0.1441875,-0.2175,1.3936875,0.020002226208688943,0.022346959843088675,True
1125,35085,0,35083,3706.0,40551.0,29696.0,0.0028669999999999998,-0.000488,-0.002745,0.12250000000000001,-1.715,-3.5000000000000004,1.1865,0.34228125,0.3233125,1.42246875,1.1375,-0.15071875,-0.20646875,1.38325,0.020413471131164575,0.021885936997729172,True
1126,35086,0,35084,3707.0,40556.0,29696.0,-0.003843,-6.1e-05,-0.004148,0.1925,-0.7875000000000001,-3.6050000000000004,1.1711875,0.34228125,0.320625,1.42078125,1.15690625,-0.1491875,-0.20625000000000002,1.3845625,0.020351357576730067,0.021766072811773816,True
1127,35087,0,35085,3707.0,40559.0,29700.0,-0.008418,-0.000488,0.0006709999999999999,0.29750000000000004,0.08750000000000001,-3.6225000000000005,1.1799375,0.34521875,0.3235,1.418625,1.15978125,-0.13934375000000002,-0.21803125,1.3880937500000001,0.020073557302070402,0.022360663606790912,True
1128,35088,0,35086,3710.0,40562.0,29701.0,-0.012139,-0.0017079999999999999,0.00488,0.28,0.5775,-3.5175000000000005,1.18771875,0.34275,0.32371875,1.4214375000000001,1.13253125,-0.14875,-0.21206250000000001,1.38315625,0.02035302034266784,0.02212869101919756,True
1129,35089,0,35087,3709.0,40563.0,29704.0,-0.009637999999999999,0.00042699999999999997,0.001037,0.22750000000000004,0.035,-3.3950000000000005,1.17978125,0.3393125,0.3241875,1.4153437500000001,1.1585625,-0.14300000000000002,-0.21790625,1.39765625,0.019977322619392786,0.022384005636325397,True
1130,35090,0,35088,3709.0,40566.0,29705.0,-0.0035989999999999998,-0.00042699999999999997,-0.0013419999999999999,0.17500000000000002,-0.7350000000000001,-3.3600000000000003,1.18746875,0.34303125,0.323375,1.4198125,1.136625,-0.14856250000000001,-0.21315625,1.3840000000000001,0.020357060591080733,0.022158666324221983,True
1131,35091,0,35089,3709.0,40570.0,29708.0,0.0023179999999999997,-0.000976,-0.00061,0.2625,-1.5750000000000002,-3.5000000000000004,1.18034375,0.3420625,0.321,1.42221875,1.1483125,-0.14921875,-0.20684375,1.387,0.020343567014978487,0.021805558603649015,True
1132,35092,0,35090,3713.0,40572.0,29707.0,0.0066489999999999995,0.001037,0.002806,0.29750000000000004,-2.0475000000000003,-3.5175000000000005,1.17928125,0.34253125,0.31909375,1.42084375,1.15759375,-0.14359375,-0.2064375,1.38653125,0.02013474071149826,0.021710392121930374,True
1133,35093,0,35091,3714.0,40573.0,29706.0,0.008052,0.002074,0.000732,0.31500000000000006,-2.31,-3.5000000000000004,1.1796875,0.3415625,0.32290625,1.41890625,1.1555625,-0.1474375,-0.20746875,1.385625,0.02025059594832785,0.021909560453320837,True
1134,35094,0,35092,3712.0,40575.0,29706.0,0.00671,0.0008539999999999999,-0.006954,0.42000000000000004,-2.0125,-3.5525,1.18003125,0.34703125,0.32359375,1.4110625,1.148375,-0.145,-0.208625,1.38996875,0.020378183889003938,0.021984674883435137,True
1135,35095,0,35093,3713.0,40576.0,29706.0,0.002562,0.0018909999999999999,-0.004514,0.525,-1.54,-3.5700000000000003,1.1792500000000001,0.3380625,0.32425,1.4148125,1.1485,-0.1463125,-0.21053125,1.389125,0.020059998809342006,0.02208878625907889,True
1136,35096,0,35094,3713.0,40579.0,29706.0,-0.0037819999999999998,0.003172,-0.000183,0.56,-1.0850000000000002,-3.5875000000000004,1.1869687500000001,0.343125,0.32365625000000003,1.42028125,1.1440000000000001,-0.1444375,-0.21256250000000002,1.394125,0.020193574606987636,0.02214630318455554,True
1137,35097,0,35095,3715.0,40580.0,29709.0,-0.007076,0.001098,0.005856,0.525,-1.05,-3.4650000000000003,1.17859375,0.34303125,0.32365625000000003,1.41853125,1.13440625,-0.14596875,-0.21034375,1.39375,0.020251827750750316,0.022056688063340695,True
1138,35098,0,35096,3716.0,40584.0,29714.0,-0.001952,-0.002074,0.003538,0.43750000000000006,-1.1025,-3.4825000000000004,1.18384375,0.34118750000000003,0.32375,1.4177187500000001,1.14196875,-0.14540625000000001,-0.21365625,1.39240625,0.020152642906971177,0.022194345391353277,True
1139,35099,0,35097,3718.0,40586.0,29714.0,0.004331,-0.003843,-0.003538,0.17500000000000002,-1.12,-3.4650000000000003,1.1834375,0.3429375,0.32425,1.41984375,1.14284375,-0.14534375,-0.21231250000000002,1.37984375,0.02022258432332321,0.02216072917446444,True
1140,35100,0,35098,3719.0,40587.0,29715.0,0.0070149999999999995,-0.007137,-0.011101999999999999,-0.0175,-0.2625,-3.325,1.17984375,0.34234375,0.32246875,1.4168125,1.1425,-0.14825,-0.2101875,1.3894375,0.02031591316140921,0.022001326920743594,True
1141,35101,0,35099,3719.0,40586.0,29714.0,-0.000305,-0.008539999999999999,-0.010553,-0.07,1.435,-3.2550000000000003,1.18046875,0.33878125000000003,0.3239375,1.416875,1.1500000000000001,-0.14403125,-0.2100625,1.3941875000000001,0.01999717839165736,0.02205694429743831,True
1142,35102,0,35100,3721.0,40592.0,29718.0,-0.013663999999999999,-0.004941,-0.00671,-0.0175,2.5025000000000004,-3.0450000000000004,1.179625,0.3415625,0.321,1.4171875,1.14240625,-0.1455,-0.206125,1.38784375,0.020171978215402456,0.02177651317590073,True
1143,35103,0,35101,3722.0,40596.0,29723.0,-0.025498,0.003721,0.021045,0.10500000000000001,1.155,-3.2550000000000003,1.17421875,0.3385,0.32396875,1.4175625,1.1397187500000001,-0.1451875,-0.21303125,1.39459375,0.020032459884604337,0.022178140128572298,True
1144,35104,0,35102,3723.0,40598.0,29725.0,-0.012627,0.009028,0.013969,0.56,-1.5225000000000002,-3.6400000000000006,1.18059375,0.34171875,0.32146875,1.41384375,1.14203125,-0.147,-0.20975,1.3880625,0.020239315442912163,0.021942347607885257,True
1145,35105,0,35103,3723.0,40598.0,29724.0,0.008723,0.010858,-0.000305,0.47250000000000003,-4.69,-3.6400000000000006,1.183875,0.34075,0.32471875,1.41521875,1.14975,-0.1455625,-0.21256250000000002,1.39671875,0.02014086439278439,0.022190185363486416,True
1146,35106,0,35104,3723.0,40595.0,29720.0,0.02928,0.0077469999999999995,-0.009882,0.525,-7.3500000000000005,-3.7450000000000006,1.1741875,0.34309375000000003,0.3255,1.41365625,1.14246875,-0.14896875,-0.2098125,1.3961875000000001,0.020376128897843723,0.022111385621016274,True
1147,35107,0,35105,3721.0,40589.0,29712.0,0.041541,0.007137,-0.011407,0.5950000000000001,-8.4175,-4.340000000000001,1.18953125,0.34803125,0.3228125,1.42303125,1.14515625,-0.1416875,-0.212375,1.38496875,0.020285191331384768,0.022103882828512278,True
1148,35108,0,35106,3720.0,40586.0,29708.0,0.023729,0.00732,-0.004392,-0.43750000000000006,-5.652500000000001,-4.567500000000001,1.1778125,0.34075,0.31790625,1.42625,1.1440937500000001,-0.14159375,-0.20990625000000002,1.39015625,0.019979780746662592,0.02180150945442013,True
1149,35109,0,35107,3721.0,40579.0,29703.0,0.0077469999999999995,0.004331,0.003172,0.22750000000000004,-2.0475000000000003,-4.077500000000001,1.1769375,0.34125,0.31878125,1.4235625,1.142375,-0.145875,-0.210875,1.3890625,0.020174253366258214,0.0218767909049136,True
1150,35110,0,35108,3718.0,40579.0,29699.0,-0.011833999999999999,-0.010126,-0.0071979999999999995,0.28,1.05,-3.5525,1.17703125,0.340125,0.320375,1.4198125,1.14196875,-0.14771875,-0.209375,1.3897187500000001,0.020202477718521548,0.021882018846004905,True
1151,35111,0,35109,3717.0,40581.0,29700.0,-0.025131999999999998,-0.014884,-0.007503,0.14,3.8325000000000005,-3.4825000000000004,1.1773437500000001,0.34053125,0.32240625,1.42603125,1.142125,-0.14746875,-0.20921875,1.3899062500000001,0.02020915753333359,0.02195960991099723,True
1152,35112,0,35110,3717.0,40584.0,29704.0,-0.034404,-0.010126,0.0035989999999999998,-0.21000000000000002,5.775,-3.43,1.17871875,0.3455625,0.32165625000000003,1.424,1.1395625,-0.1473125,-0.21034375,1.38978125,0.02041117412134373,0.021974078744751404,True
1153,35113,0,35111,3716.0,40589.0,29708.0,-0.038857,-0.003843,0.00793,-0.08750000000000001,3.8675,-3.1500000000000004,1.1789687500000001,0.3434375,0.3245,1.41421875,1.142625,-0.1455,-0.210375,1.3922812500000001,0.020249632436685927,0.022092801123485283,True
1154,35114,0,35112,3713.0,40591.0,29712.0,-0.026352,-0.002196,0.0035989999999999998,-0.2625,0.525,-2.7125000000000004,1.1845625,0.3410625,0.32356250000000003,1.41909375,1.14315625,-0.1453125,-0.2083125,1.3883750000000001,0.020143661424966028,0.02197075901098022,True
1155,35115,0,35113,3712.0,40595.0,29711.0,-0.0018909999999999999,-0.00244,0.005795,-0.35000000000000003,-3.115,-2.87,1.18609375,0.34209375000000003,0.32303125,1.42228125,1.14275,-0.14559375,-0.21053125,1.3903125,0.0201977845336688,0.022038446595425285,True
1156,35116,0,35114,3710.0,40592.0,29707.0,0.024704999999999998,0.0018909999999999999,0.003111,-0.42000000000000004,-6.2475000000000005,-3.5700000000000003,1.1798125,0.3424375,0.32306250000000003,1.422375,1.1420625,-0.14771875,-0.21053125,1.3908125,0.020298242458203223,0.022039737356031795,True
1157,35117,0,35115,3709.0,40588.0,29701.0,0.04209,0.005795,-0.00366,-0.24500000000000002,-8.5225,-4.025,1.18128125,0.34175,0.32271875,1.421875,1.1423125,-0.15121875,-0.20721875,1.38503125,0.02041175458277856,0.02189171360299291,True
1158,35118,0,35116,3707.0,40581.0,29692.0,0.03782,0.006527,-0.010187,0.2625,-7.682500000000001,-4.130000000000001,1.1867812500000001,0.34246875,0.3236875,1.419875,1.1399062500000001,-0.1593125,-0.21481250000000002,1.38371875,0.020769682498208507,0.022238454251917086,True
1159,35119,0,35117,3708.0,40576.0,29687.0,0.020739999999999998,0.008418,-0.007991,0.56,-5.040000000000001,-4.1825,1.1867812500000001,0.340375,0.32425,1.406875,1.13575,-0.15121875,-0.21525,1.39796875,0.020354821638141965,0.022279348757497857,True
1160,35120,0,35118,3706.0,40576.0,29686.0,0.000915,0.005307,-0.001037,0.7525000000000001,-1.9600000000000002,-4.112500000000001,1.1855625,0.33878125000000003,0.32278125,1.41696875,1.1302812500000001,-0.13725,-0.21509375,1.4084375,0.01972185108079835,0.02221238561176332,True
1161,35121,0,35119,3707.0,40577.0,29689.0,-0.014579,0.0013419999999999999,0.004392,0.665,1.0675000000000001,-3.99,1.17990625,0.34071875,0.32515625,1.41903125,1.15021875,-0.14065625,-0.2115,1.39871875,0.019940427261582832,0.02216534498069099,True
1162,35122,0,35120,3707.0,40580.0,29692.0,-0.026718,-0.0042699999999999995,0.003172,0.5075000000000001,3.1325000000000003,-3.7625,1.17965625,0.342125,0.32340625,1.4215,1.1620625,-0.14775,-0.2029375,1.37871875,0.020286569142052575,0.021747101978840378,True
1163,35123,0,35121,3707.0,40582.0,29697.0,-0.027999,-0.0071979999999999995,0.002806,-0.24500000000000002,3.9550000000000005,-3.2725000000000004,1.1868750000000001,0.34240625,0.32315625000000003,1.423375,1.13265625,-0.15253125,-0.20646875,1.37996875,0.020492158559985305,0.021879482111574,True
1164,35124,0,35122,3708.0,40583.0,29700.0,-0.018727,-0.0060999999999999995,0.005246,-0.49000000000000005,2.7825,-3.325,1.17428125,0.34240625,0.32065625000000003,1.420875,1.148125,-0.15637500000000001,-0.202375,1.3808125,0.02064801734531775,0.02161074068144139,True
1165,35125,0,35123,3708.0,40585.0,29698.0,-0.0055509999999999995,-0.005307,0.0026839999999999998,-0.47250000000000003,0.8750000000000001,-3.3950000000000005,1.17928125,0.3395,0.319875,1.416875,1.16190625,-0.14075000000000001,-0.208125,1.399875,0.019893748122987068,0.02181085895747812,True
1166,35126,0,35124,3708.0,40586.0,29700.0,0.0032329999999999998,-0.0026839999999999998,-0.001403,-0.36750000000000005,-1.3475000000000001,-3.3600000000000003,1.1795625,0.3385625,0.32015625000000003,1.4156250000000001,1.1588125,-0.13665625,-0.2069375,1.4083125,0.019688673736653145,0.02177449130027291,True
1167,35127,0,35125,3709.0,40588.0,29699.0,0.005307,6.1e-05,-0.000305,-0.15750000000000003,-3.3075,-3.5175000000000005,1.1800625,0.33953125,0.322875,1.41296875,1.1504375,-0.1415625,-0.21303125,1.39484375,0.019928028684970164,0.022132968171839285,True
1168,35128,0,35126,3708.0,40585.0,29700.0,0.018178,0.004331,0.003477,0.22750000000000004,-5.3025,-3.7975000000000003,1.1863125,0.342625,0.3228125,1.42390625,1.13115625,-0.14665625000000002,-0.20665625,1.38159375,0.020262898719154956,0.02187285780125043,True
1169,35129,0,35127,3707.0,40582.0,29697.0,0.018239,0.005124,0.000915,0.49000000000000005,-4.9,-3.7975000000000003,1.1803125,0.3405625,0.32325,1.416125,1.1385625,-0.1480625,-0.21,1.3915,0.02023454262634942,0.022026022304832714,True
1170,35130,0,35128,3709.0,40581.0,29694.0,0.015493999999999999,0.0050019999999999995,-0.003538,0.7000000000000001,-4.0600000000000005,-3.8150000000000004,1.18584375,0.34234375,0.3211875,1.4192500000000001,1.15015625,-0.14071875,-0.21059375,1.389875,0.020010278277236462,0.021964816538214804,True
1171,35131,0,35129,3708.0,40581.0,29696.0,0.008905999999999999,0.002806,-0.007869,0.77,-2.5725000000000002,-3.7100000000000004,1.17953125,0.339375,0.32225,1.41609375,1.14290625,-0.146375,-0.2098125,1.38865625,0.020116891251792456,0.021977142532599126,True
1172,35132,0,35130,3710.0,40581.0,29694.0,0.002562,0.001403,-0.007076,0.7875000000000001,-0.805,-3.6400000000000006,1.182375,0.341625,0.32325,1.4197187500000001,1.14975,-0.14440625,-0.21228125,1.3829375,0.020130180256555285,0.02211816575524043,True
1173,35133,0,35131,3711.0,40586.0,29697.0,-0.017995,-0.000122,0.0028669999999999998,0.6300000000000001,1.5050000000000001,-3.535,1.1789375,0.3424375,0.32128125,1.4175625,1.1374375,-0.1475625,-0.20571875,1.3901875000000001,0.02029190316828044,0.021771714587074595,True
1174,35134,0,35132,3709.0,40589.0,29699.0,-0.019886,-0.002989,0.0026839999999999998,0.28,1.3475000000000001,-3.5000000000000004,1.1825625,0.34515625,0.32309375,1.4211562500000001,1.1415,-0.14509375,-0.213125,1.3941875000000001,0.020304332013620776,0.022145788699310803,True
1175,35135,0,35133,3711.0,40592.0,29703.0,-0.016347999999999998,-0.003965,0.00183,-0.0175,0.5075000000000001,-3.43,1.180125,0.341375,0.32075,1.4131562500000001,1.1423125,-0.14390625,-0.20915625000000002,1.38840625,0.02009953339675513,0.021888670737956844,True
1176,35136,0,35134,3709.0,40592.0,29706.0,-0.0064659999999999995,-0.004514,0.002257,0.035,-0.7875000000000001,-3.4125000000000005,1.17984375,0.34034375,0.324,1.41659375,1.14896875,-0.14753125,-0.21034375,1.390875,0.020203928714244857,0.02207088653997323,True
1177,35137,0,35135,3708.0,40593.0,29702.0,0.0048189999999999995,-0.0017079999999999999,0.005063,-0.08750000000000001,-2.24,-3.6050000000000004,1.18425,0.33575,0.33078125,1.41346875,1.150125,-0.14403125,-0.20959375,1.39425,0.01987162976356734,0.022320696727924236,True
1178,35138,0,35136,3708.0,40591.0,29701.0,0.01525,0.000244,-0.000976,0.052500000000000005,-3.3425000000000002,-3.6050000000000004,1.19196875,0.3446875,0.32925,1.42484375,1.141875,-0.14415625,-0.20975,1.39596875,0.02024687650867899,0.022263757370480898,True
1179,35139,0,35137,3708.0,40588.0,29696.0,0.013847,0.000732,-0.005429,0.385,-3.0275000000000003,-3.4475000000000002,1.18978125,0.3439375,0.3219375,1.4288750000000001,1.13565625,-0.145625,-0.2135,1.3969375,0.020275412212357312,0.022113180663679354,True
1180,35140,0,35138,3709.0,40585.0,29697.0,0.008357,0.0035989999999999998,-0.0034159999999999998,0.7350000000000001,-2.1,-3.5700000000000003,1.17590625,0.34218750000000003,0.3166875,1.40378125,1.14315625,-0.1449375,-0.21025,1.3895625,0.020175036692474356,0.021765058188164106,True
1181,35141,0,35139,3709.0,40587.0,29699.0,0.000732,0.006405,-0.000488,0.9800000000000001,-0.9625000000000001,-3.6575,1.18528125,0.338,0.32525,1.4308125,1.14484375,-0.14496875,-0.2106875,1.39365625,0.02000287326940525,0.02213640153754411,True
1182,35142,0,35140,3710.0,40586.0,29700.0,-0.007869,0.004209,0.000549,0.7875000000000001,0.035,-3.6225000000000005,1.1732500000000001,0.33215625,0.31990625,1.412,1.14234375,-0.1479375,-0.20928125,1.38959375,0.019881356327015504,0.0218588686931794,True
1183,35143,0,35141,3710.0,40590.0,29704.0,-0.012322,-0.001647,-0.000793,0.6825000000000001,0.35000000000000003,-3.6050000000000004,1.17446875,0.33225,0.32334375,1.4016250000000001,1.144875,-0.14278125,-0.209375,1.3824687500000001,0.019675912442772104,0.022004646960113592,True
1184,35144,0,35142,3709.0,40591.0,29703.0,-0.0077469999999999995,-0.0035989999999999998,0.00061,0.49000000000000005,-0.07,-3.5175000000000005,1.1752500000000001,0.33575,0.32590625,1.4099375,1.14540625,-0.147,-0.20396875,1.39015625,0.019992131527726012,0.021892070902628312,True
1185,35145,0,35143,3711.0,40592.0,29705.0,-0.003294,-0.0030499999999999998,0.001098,0.21000000000000002,-0.6825000000000001,-3.535,1.18225,0.33828125000000003,0.32665625,1.41465625,1.1371875,-0.146125,-0.209,1.39259375,0.02006144878318985,0.022126326985831713,True
1186,35146,0,35144,3711.0,40593.0,29706.0,0.00244,-0.002562,0.0011589999999999999,0.12250000000000001,-1.54,-3.5700000000000003,1.1881875,0.34840625000000003,0.33025,1.4109375,1.1439062500000001,-0.14496875,-0.21003125,1.38765625,0.020433863680192173,0.0223164210083372,True
1187,35147,0,35145,3710.0,40590.0,29703.0,0.00732,-0.00244,0.000183,0.12250000000000001,-2.0475000000000003,-3.5000000000000004,1.18334375,0.34003125,0.32509375,1.41484375,1.15021875,-0.14856250000000001,-0.20953125,1.38909375,0.02023282959389405,0.022083244589876146,True
1188,35148,0,35146,3711.0,40590.0,29703.0,0.005673,0.002257,-0.000976,0.07,-2.0650000000000004,-3.7625,1.17540625,0.33959375,0.327125,1.416875,1.14834375,-0.1460625,-0.20921875,1.38925,0.020113268985367697,0.022154525329323153,True
1189,35149,0,35147,3713.0,40591.0,29704.0,0.0011589999999999999,0.001464,0.0015249999999999999,0.12250000000000001,-1.6975000000000002,-3.6400000000000006,1.17409375,0.34018750000000003,0.3273125,1.4161875,1.1480625,-0.14528125,-0.2096875,1.39521875,0.020106154282216116,0.022181203288972648,True
1190,35150,0,35148,3713.0,40593.0,29705.0,-0.000488,0.002928,0.001464,0.29750000000000004,-1.1025,-3.6575,1.17709375,0.34159375000000003,0.32840625,1.423875,1.1424375,-0.145,-0.21296875,1.38928125,0.02015298198384759,0.02235888566948239,True
1191,35151,0,35149,3713.0,40593.0,29705.0,-0.001952,0.002074,0.00042699999999999997,0.36750000000000005,-0.7875000000000001,-3.6225000000000005,1.1785625,0.34400000000000003,0.3229375,1.41625,1.14296875,-0.1470625,-0.2068125,1.394125,0.020336324552934753,0.021884335246534416,True
1192,35152,0,35150,3714.0,40594.0,29706.0,-0.0046359999999999995,0.0011589999999999999,0.000488,0.22750000000000004,-0.5950000000000001,-3.5525,1.184,0.34228125,0.32328125,1.41096875,1.148875,-0.144625,-0.211375,1.39540625,0.020166237827259688,0.02208285361735961,True
1193,35153,0,35151,3713.0,40593.0,29709.0,-0.0037819999999999998,-0.003477,-0.002379,0.21000000000000002,-0.8400000000000001,-3.4825000000000004,1.18046875,0.3419375,0.31971875,1.4209687500000001,1.14203125,-0.14725,-0.2121875,1.3904375,0.020258518050709707,0.021968533409052776,True
1194,35154,0,35152,3716.0,40595.0,29710.0,-0.0011589999999999999,-0.001281,6.1e-05,0.22750000000000004,-1.2075,-3.5175000000000005,1.17940625,0.34059375000000003,0.321,1.416875,1.14175,-0.14809375,-0.2094375,1.3895625,0.02023710463688257,0.02191036037082646,True
1195,35155,0,35153,3716.0,40597.0,29714.0,0.000305,-0.000793,0.000915,0.17500000000000002,-1.61,-3.5175000000000005,1.1793437500000001,0.34034375,0.32890625,1.42215625,1.14734375,-0.1451875,-0.2104375,1.39684375,0.02010882085715839,0.02227732357170332,True
1196,35156,0,35154,3716.0,40598.0,29714.0,0.0023179999999999997,-0.0015249999999999999,0.000915,0.052500000000000005,-1.9075000000000002,-3.6225000000000005,1.17865625,0.342125,0.32084375,1.417375,1.1395625,-0.14859375,-0.212625,1.38921875,0.020320800253637958,0.02203266890723331,True
1197,35157,0,35155,3717.0,40598.0,29712.0,0.003294,-0.002623,-0.000488,0.035,-2.0825,-3.5175000000000005,1.1766875,0.3435,0.322625,1.4249375,1.15025,-0.14350000000000002,-0.213375,1.3936875,0.020171060533891113,0.022136525783786856,True
1198,35158,0,35156,3718.0,40602.0,29715.0,0.003904,0.0028669999999999998,0.000732,0.17500000000000002,-1.8900000000000001,-3.7100000000000004,1.17984375,0.342,0.321125,1.41615625,1.141125,-0.146375,-0.209375,1.3890625,0.020225603222015727,0.02191299858009552,True
1199,35159,0,35157,3719.0,40600.0,29717.0,0.001586,0.002013,0.00122,0.21000000000000002,-1.3825,-3.6400000000000006,1.18546875,0.34650000000000003,0.32746875000000003,1.4212500000000001,1.1474375,-0.1445,-0.21381250000000002,1.39525,0.020335894303050384,0.02235423479883641,True
1200,35160,0,35158,3719.0,40604.0,29717.0,-0.00042699999999999997,-0.000366,0.000366,0.22750000000000004,-1.0150000000000001,-3.5175000000000005,1.1793437500000001,0.34121875,0.32059375,1.4165625,1.13503125,-0.1469375,-0.20990625000000002,1.3843125,0.020216072949209397,0.021912517732281592,True
1201,35161,0,35159,3720.0,40603.0,29715.0,-0.000793,0.001464,-0.001281,0.385,-0.6300000000000001,-3.535,1.1845625,0.34175,0.32356250000000003,1.42221875,1.14690625,-0.14615625000000002,-0.2106875,1.39146875,0.02020637342641233,0.022066700914627063,True
1202,35162,0,35160,3721.0,40604.0,29715.0,-0.0037819999999999998,0.0021349999999999997,-0.002074,0.47250000000000003,-0.29750000000000004,-3.4650000000000003,1.179,0.3495625,0.32075,1.41709375,1.14196875,-0.14675,-0.20909375,1.3894375,0.020554008303394867,0.021886145572880024,True
1203,35163,0,35161,3721.0,40608.0,29717.0,-0.006405,0.002013,0.0028669999999999998,0.14,-0.24500000000000002,-3.5700000000000003,1.17940625,0.3410625,0.321625,1.4180625,1.1468125,-0.144625,-0.21021875,1.38984375,0.02011576075420513,0.021967738312979927,True
1204,35164,0,35162,3722.0,40611.0,29718.0,-0.006161,-0.003843,-0.000122,0.052500000000000005,-0.7175,-3.4825000000000004,1.179,0.33925,0.322,1.41690625,1.14909375,-0.14728125,-0.20890625000000002,1.3900000000000001,0.02014848980151751,0.02193020388932276,True
1205,35165,0,35163,3722.0,40613.0,29719.0,-0.000122,-0.0042699999999999995,-0.001464,0.10500000000000001,-1.4000000000000001,-3.5875000000000004,1.1787812500000001,0.34259375000000003,0.323375,1.41659375,1.1484375,-0.14425,-0.21078125,1.39659375,0.020163962434119925,0.022062743225190223,True
1206,35166,0,35164,3723.0,40616.0,29723.0,0.004209,-0.001769,0.000244,0.08750000000000001,-1.8025000000000002,-3.6925000000000003,1.18225,0.34296875,0.32303125,1.42,1.1425,-0.14515625000000001,-0.2129375,1.3908125,0.020216270085226723,0.022135635133077102,True
1207,35167,0,35165,3723.0,40616.0,29722.0,0.0044529999999999995,-0.0025009999999999998,6.1e-05,0.052500000000000005,-2.1875,-3.5000000000000004,1.178375,0.34190625,0.3233125,1.41709375,1.14128125,-0.14946875,-0.209,1.3890625,0.020347238487389084,0.021988206865215416,True
1208,35168,0,35166,3724.0,40618.0,29721.0,0.008052,-6.1e-05,-0.0008539999999999999,0.21000000000000002,-2.1700000000000004,-3.5875000000000004,1.17959375,0.340625,0.324,1.41946875,1.1538125000000001,-0.142375,-0.20659375,1.3975312500000001,0.020006316694194334,0.021919389216006484,True
1209,35169,0,35167,3725.0,40619.0,29723.0,0.007991,0.002379,-0.0015249999999999999,0.21000000000000002,-1.7325000000000002,-3.5525,1.17871875,0.34190625,0.32075,1.41609375,1.13984375,-0.14890625,-0.20878125,1.3875,0.020324419454814852,0.02187351955191879,True
1210,35170,0,35168,3726.0,40619.0,29721.0,0.003172,0.001952,-0.0023179999999999997,0.42000000000000004,-1.0675000000000001,-3.535,1.18021875,0.3393125,0.32309375,1.4398125,1.15009375,-0.143125,-0.2051875,1.40159375,0.019982396645007637,0.021825125295972195,True
1211,35171,0,35169,3726.0,40620.0,29720.0,-0.0017079999999999999,0.001769,-0.0013419999999999999,0.6300000000000001,-0.36750000000000005,-3.4825000000000004,1.1763125,0.33925,0.320125,1.40965625,1.13940625,-0.15046875,-0.21171875,1.38759375,0.020277815518591123,0.021966377335355423,True
1212,35172,0,35170,3728.0,40619.0,29724.0,-0.007625,0.0021349999999999997,0.001281,0.7175,0.45500000000000007,-3.5525,1.20203125,0.340875,0.3275,1.4356875,1.154,-0.14334375,-0.21015625000000002,1.39003125,0.020055993693914084,0.02220788021556036,True
1213,35173,0,35171,3728.0,40622.0,29725.0,-0.0073809999999999995,0.000488,0.001464,0.6300000000000001,0.31500000000000006,-3.4825000000000004,1.16771875,0.3423125,0.31815625000000003,1.40125,1.1397187500000001,-0.14684375,-0.21053125,1.3873125,0.02025756471795615,0.021837087940810882,True
1214,35174,0,35172,3728.0,40624.0,29728.0,-0.005063,-0.000976,0.001037,0.49000000000000005,0.08750000000000001,-3.3775000000000004,1.16971875,0.327875,0.319625,1.40640625,1.1420000000000001,-0.15071875,-0.2078125,1.387375,0.019816956793470175,0.021787904214806687,True
1215,35175,0,35173,3728.0,40627.0,29730.0,-0.000366,-0.0018909999999999999,0.000305,0.45500000000000007,-0.49000000000000005,-3.3600000000000003,1.19509375,0.34778125,0.32796875000000003,1.43046875,1.1525,-0.14171875,-0.2038125,1.3969375,0.02027610399528824,0.021970970482439494,True
1216,35176,0,35174,3730.0,40629.0,29732.0,0.0028669999999999998,-0.0021349999999999997,0.000366,0.4025,-0.7000000000000001,-3.535,1.16825,0.33709375,0.31340625,1.39559375,1.1384375,-0.15040625,-0.211125,1.38696875,0.020185995835991375,0.021664885460712793,True
1217,35177,0,35175,3729.0,40628.0,29732.0,0.000244,0.000183,-0.002928,0.42000000000000004,-0.9625000000000001,-3.5700000000000003,1.17721875,0.33584375,0.33071875,1.414,1.1490625,-0.14709375,-0.2085625,1.3980000000000001,0.01999981881877607,0.022276467262358105,True
1218,35178,0,35176,3729.0,40629.0,29732.0,-0.0006709999999999999,0.000549,0.000732,0.385,-0.9450000000000001,-3.5700000000000003,1.193125,0.33775,0.33403125,1.41165625,1.14678125,-0.14371875,-0.2084375,1.38090625,0.019941780923868654,0.022408251255373258,True
1219,35179,0,35177,3731.0,40630.0,29729.0,-0.001464,0.0013419999999999999,0.001403,0.47250000000000003,-0.9975,-3.5700000000000003,1.200375,0.33990625,0.33040625,1.4094375000000001,1.1495312500000001,-0.14496875,-0.20984375,1.395375,0.020081823464774624,0.022315303046926933,True
1220,35180,0,35178,3729.0,40631.0,29731.0,-0.001586,0.001098,0.00244,0.24500000000000002,-1.1025,-3.5700000000000003,1.190625,0.33596875,0.3256875,1.4099375,1.150875,-0.14403125,-0.209875,1.39471875,0.019880689973841875,0.02212165490321615,True
1221,35181,0,35179,3728.0,40631.0,29728.0,-0.001586,-0.001098,6.1e-05,0.24500000000000002,-1.2075,-3.5700000000000003,1.1790625000000001,0.34115625,0.326125,1.4172500000000001,1.149,-0.1443125,-0.21096875,1.3879375,0.02010696100789782,0.02218390166647091,True
1222,35182,0,35180,3726.0,40630.0,29727.0,0.003355,-6.1e-05,-0.000183,0.385,-1.4000000000000001,-3.7975000000000003,1.184125,0.3490625,0.31959375,1.41703125,1.1400625,-0.14865625,-0.2096875,1.3900000000000001,0.020610618862074367,0.0218623743078055,True
1223,35183,0,35181,3727.0,40631.0,29725.0,0.003477,0.000183,-0.000244,0.36750000000000005,-1.3475000000000001,-3.8675,1.1787812500000001,0.34440625,0.3229375,1.4215312500000001,1.150125,-0.1446875,-0.21228125,1.38940625,0.020256785265909943,0.02210525908210322,True
1224,35184,0,35182,3723.0,40627.0,29721.0,0.0015249999999999999,-0.000305,-0.000122,0.4025,-1.1900000000000002,-3.7975000000000003,1.17159375,0.3399375,0.323625,1.42278125,1.1478125000000001,-0.14465625000000001,-0.211125,1.3899375,0.0200704348400073,0.022086953828043928,True
1225,35185,0,35183,3721.0,40630.0,29721.0,-0.000366,-0.000915,-0.001037,0.43750000000000006,-1.1025,-3.7275000000000005,1.17871875,0.3394375,0.32365625000000003,1.424,1.14496875,-0.14509375,-0.21256250000000002,1.38996875,0.020067482653696466,0.02214630318455554,True
1226,35186,0,35184,3721.0,40630.0,29720.0,-0.0017079999999999999,0.002013,0.0006709999999999999,0.36750000000000005,-1.0850000000000002,-3.9025000000000003,1.17971875,0.3434375,0.323875,1.42303125,1.1513125,-0.14475,-0.2115,1.3902812500000001,0.020219198790627363,0.022112425913305662,True
1227,35187,0,35185,3719.0,40628.0,29719.0,-0.003111,0.00061,0.000122,0.21000000000000002,-1.225,-4.0425,1.1793125,0.339875,0.32365625000000003,1.4234375000000001,1.1488125,-0.14440625,-0.21381250000000002,1.3904375,0.0200576997001117,0.022196783344217274,True
1228,35188,0,35186,3716.0,40629.0,29715.0,-0.002806,0.000488,0.0018909999999999999,0.22750000000000004,-1.4000000000000001,-3.8850000000000002,1.1792500000000001,0.34303125,0.3246875,1.4155625,1.142625,-0.1475,-0.21009375,1.39034375,0.020313955896055492,0.022089185424984156,True
1229,35189,0,35187,3714.0,40627.0,29714.0,-0.002745,-0.000183,-0.001281,0.29750000000000004,-1.61,-3.8325000000000005,1.18578125,0.34184375,0.32353125,1.4229687500000001,1.14225,-0.14578125,-0.21265625,1.38965625,0.020195039247280517,0.02214492678803054,True
1230,35190,0,35188,3712.0,40627.0,29711.0,-0.002257,-0.000122,0.000122,0.385,-1.9775000000000003,-3.7450000000000006,1.17959375,0.34146875,0.323375,1.4171875,1.13975,-0.1470625,-0.2094375,1.38909375,0.020231498137713435,0.022008462608848308,True
1231,35191,0,35189,3710.0,40625.0,29713.0,-0.0017079999999999999,-0.00042699999999999997,0.001769,0.15750000000000003,-2.1875,-3.6750000000000003,1.17978125,0.3395,0.32434375,1.41671875,1.147875,-0.14459375,-0.21046875,1.39325,0.020049778224162502,0.022090134045835028,True
1232,35192,0,35190,3711.0,40625.0,29707.0,0.0046359999999999995,-0.0026839999999999998,0.00122,0.035,-2.7125000000000004,-3.7100000000000004,1.1835,0.341625,0.32075,1.42175,1.141875,-0.148125,-0.21306250000000002,1.3897187500000001,0.020281077723425734,0.022046467686605113,True
1233,35193,0,35191,3709.0,40624.0,29709.0,0.0062829999999999995,0.0008539999999999999,-0.000732,0.14,-2.765,-3.7450000000000006,1.179375,0.338625,0.32415625,1.42196875,1.1465625,-0.1446875,-0.21106250000000001,1.39321875,0.020017343359693514,0.02210637182899346,True
1234,35194,0,35192,3708.0,40625.0,29706.0,0.0042699999999999995,0.001403,-0.001403,0.07,-2.8350000000000004,-3.7800000000000002,1.1755,0.34218750000000003,0.32178125,1.422375,1.14165625,-0.14853125,-0.20734375,1.39003125,0.020320852846899332,0.021858036365514085,True
1235,35195,0,35193,3706.0,40622.0,29706.0,0.0030499999999999998,-0.000488,-0.0034159999999999998,0.08750000000000001,-2.7475,-3.6400000000000006,1.17928125,0.34128125,0.32134375,1.4156875,1.1414375,-0.14703125,-0.2095625,1.389625,0.020222465235762675,0.02192960942602742,True
1236,35196,0,35194,3708.0,40624.0,29704.0,0.001281,-0.000488,-0.002745,0.24500000000000002,-2.6425,-3.6750000000000003,1.1793125,0.341,0.3235,1.40625,1.13878125,-0.144875,-0.209625,1.39296875,0.020123318095455044,0.022021200245770024,True
1237,35197,0,35195,3704.0,40625.0,29704.0,-0.0053679999999999995,0.002196,0.005795,0.56,-2.31,-3.9375000000000004,1.186625,0.34368750000000003,0.32803125,1.42225,1.14203125,-0.14575,-0.2095625,1.38940625,0.020270130354203122,0.022205843248922816,True
1238,35198,0,35196,3706.0,40627.0,29707.0,-0.0051849999999999995,0.001281,0.0044529999999999995,0.22750000000000004,-2.5025000000000004,-3.9025000000000003,1.1848750000000001,0.3415,0.3266875,1.42084375,1.1419062500000001,-0.1396875,-0.21159375,1.39015625,0.019933460199101583,0.0222323757600633,True
1239,35199,0,35197,3704.0,40630.0,29705.0,-0.002806,-0.001037,0.001037,0.08750000000000001,-2.7125000000000004,-3.6925000000000003,1.179625,0.341625,0.3214375,1.421875,1.1339062500000001,-0.14881250000000001,-0.20975,1.39053125,0.020308969643952474,0.02194105680562583,True
1240,35200,0,35198,3703.0,40630.0,29704.0,0.000732,-0.002257,0.002196,0.052500000000000005,-3.08,-3.7800000000000002,1.17990625,0.34165625,0.3226875,1.42484375,1.1459375,-0.14965625,-0.21146875,1.38728125,0.020344492481130037,0.02206211673961333,True
1241,35201,0,35199,3704.0,40628.0,29704.0,0.0023179999999999997,0.002196,-0.010492,-0.0175,-3.2900000000000005,-3.8850000000000002,1.18128125,0.34403125,0.32771875,1.41765625,1.14021875,-0.15390625,-0.2168125,1.398875,0.0206151955234984,0.022485669821327645,True
1242,35202,0,35200,3703.0,40628.0,29701.0,0.001098,-0.0044529999999999995,0.006893,-0.052500000000000005,-3.6925000000000003,-3.6050000000000004,1.179625,0.3390625,0.32090625,1.418625,1.13503125,-0.1425625,-0.21146875,1.40465625,0.019949207960008385,0.021988546233899998,True
1243,35203,0,35201,3703.0,40627.0,29700.0,-0.00042699999999999997,0.002074,0.01098,0.0175,-3.7975000000000003,-4.1475,1.17871875,0.3418125,0.3215,1.4233125,1.1515625,-0.14200000000000002,-0.20775000000000002,1.3766875,0.020040282495236518,0.0218628331835879,True
1244,35204,0,35202,3701.0,40629.0,29696.0,0.002013,0.001647,-0.000976,0.07,-4.165,-3.7625,1.180125,0.34171875,0.32303125,1.41496875,1.1558125000000001,-0.1520625,-0.2063125,1.3809375,0.020444682519350055,0.021868004471973995,True
1245,35205,0,35203,3702.0,40626.0,29696.0,0.004026,-0.0015249999999999999,-0.0064659999999999995,-0.052500000000000005,-4.375,-3.3775000000000004,1.17903125,0.34309375000000003,0.31946875,1.4064375,1.1545625,-0.14159375,-0.2068125,1.4056250000000001,0.020076864229396623,0.021741038808806405,True
1246,35206,0,35204,3703.0,40623.0,29694.0,0.0060999999999999995,-0.0011589999999999999,-0.00488,0.0175,-4.322500000000001,-3.7800000000000002,1.1845937500000001,0.33909375,0.32384375,1.423875,1.13490625,-0.1453125,-0.21306250000000002,1.38575,0.02006212385944477,0.02217423962788681,True
1247,35207,0,35205,3701.0,40625.0,29693.0,0.006527,0.001281,0.002745,0.36750000000000005,-3.3775000000000004,-3.7275000000000005,1.17790625,0.341625,0.3224375,1.41709375,1.12959375,-0.14990625,-0.20584375,1.38978125,0.020353339880977796,0.02182453359015837,True
1248,35208,0,35206,3702.0,40625.0,29695.0,-0.001586,0.00183,0.006161,0.1925,-2.6950000000000003,-3.7625,1.1788125,0.33796875,0.32103125,1.4133125,1.1545,-0.1426875,-0.2086875,1.40384375,0.019908978650367736,0.021881349412271937,True
1249,35209,0,35207,3701.0,40623.0,29692.0,-0.0051849999999999995,-0.001586,6.1e-05,0.21000000000000002,-2.1875,-3.5875000000000004,1.1848125,0.3428125,0.3265,1.4211562500000001,1.13565625,-0.14571875,-0.21481250000000002,1.3843750000000001,0.0202326240547302,0.022354602167578216,True
1250,35210,0,35208,3700.0,40624.0,29692.0,-0.004026,-0.001037,-0.008357,0.21000000000000002,-1.9600000000000002,-3.4125000000000005,1.17846875,0.34168750000000003,0.32284375,1.41721875,1.14121875,-0.1481875,-0.2080625,1.3921875000000001,0.020286201604157665,0.02193096824663271,True
1251,35211,0,35209,3700.0,40625.0,29693.0,-0.0032329999999999998,0.00122,-0.003111,0.28,-1.6275000000000002,-3.6925000000000003,1.1793437500000001,0.3410625,0.3245,1.40721875,1.1463125,-0.1441875,-0.2091875,1.39775,0.020098004954608638,0.02204483318574818,True
1252,35212,0,35210,3699.0,40627.0,29692.0,-0.005063,-0.000183,0.003355,0.42000000000000004,-2.0125,-3.6925000000000003,1.17825,0.34034375,0.32290625,1.406125,1.14871875,-0.1436875,-0.209875,1.39665625,0.02004794213808475,0.022006774095281366,True
1253,35213,0,35211,3701.0,40628.0,29693.0,-0.0057339999999999995,0.000549,-0.001464,0.35000000000000003,-2.345,-3.3775000000000004,1.1832500000000001,0.34034375,0.32390625,1.4170625000000001,1.14775,-0.1450625,-0.210375,1.39665625,0.020103747919476292,0.022068276513684735,True
1254,35214,0,35212,3699.0,40630.0,29694.0,-0.002928,0.000976,0.000183,0.14,-2.8350000000000004,-3.5700000000000003,1.18340625,0.34609375000000003,0.32321875,1.42290625,1.1410625,-0.14546875,-0.21309375,1.39015625,0.02035837469504501,0.022149689153208686,True
1255,35215,0,35213,3699.0,40628.0,29692.0,0.002257,0.000244,0.0006709999999999999,0.08750000000000001,-3.4825000000000004,-3.5875000000000004,1.17953125,0.3480625,0.32015625000000003,1.4204375,1.1420625,-0.147125,-0.2106875,1.38984375,0.020507099706486797,0.021926008916516727,True
1256,35216,0,35214,3700.0,40630.0,29694.0,0.007625,-0.00061,-0.000305,-0.052500000000000005,-3.7450000000000006,-3.5000000000000004,1.179,0.33984375,0.32346875,1.416125,1.14778125,-0.14390625,-0.21021875,1.38996875,0.020036111596482033,0.022043894171753408,True
1257,35217,0,35215,3699.0,40629.0,29693.0,0.006771,-0.001098,-0.000549,-0.08750000000000001,-3.7275000000000005,-3.6575,1.18525,0.345875,0.32340625,1.4173125,1.14225,-0.14959375,-0.2091875,1.3894375,0.020516649477799187,0.021999654056956683,True
1258,35218,0,35216,3700.0,40629.0,29691.0,0.004697,-0.002074,-0.002928,0.035,-3.3950000000000005,-3.6225000000000005,1.17975,0.33959375,0.3235,1.4231875,1.146625,-0.14434375,-0.21434375,1.38665625,0.02004351433241999,0.022211783046980158,True
1259,35219,0,35217,3701.0,40631.0,29693.0,0.0040869999999999995,-0.002562,0.000366,0.08750000000000001,-2.7125000000000004,-3.5000000000000004,1.17953125,0.341,0.32125,1.40478125,1.14125,-0.1415625,-0.209,1.3923125,0.019988867746236393,0.021903011276797887,True
1260,35220,0,35218,3702.0,40629.0,29691.0,0.000305,-0.001769,0.0008539999999999999,0.1925,-1.9775000000000003,-3.7100000000000004,1.1915625,0.34303125,0.32203125,1.4249687500000001,1.14975,-0.14196875,-0.20984375,1.39096875,0.020089496636433182,0.021969369380998173,True
1261,35221,0,35219,3703.0,40631.0,29693.0,-0.00366,-0.000488,-0.000549,0.31500000000000006,-1.4525000000000001,-3.7800000000000002,1.1766875,0.33734375,0.31996875,1.4144375,1.146375,-0.14840625,-0.210375,1.38975,0.020115199113813154,0.021905639627638977,True
1262,35222,0,35220,3703.0,40632.0,29694.0,-0.008173999999999999,0.0023179999999999997,0.0013419999999999999,0.47250000000000003,-1.2425000000000002,-3.7450000000000006,1.188375,0.3420625,0.32421875,1.414875,1.15021875,-0.1438125,-0.21421875,1.3956875,0.020124203665017694,0.022236418426673378,True
1263,35223,0,35221,3701.0,40636.0,29696.0,-0.008113,0.001952,0.002562,0.43750000000000006,-1.4875,-3.7800000000000002,1.1849687500000001,0.34271875,0.32115625000000003,1.40321875,1.1420000000000001,-0.147375,-0.211375,1.38946875,0.020295943140817584,0.021995084954902395,True
1264,35224,0,35222,3702.0,40640.0,29698.0,-0.004941,0.0,0.000732,0.45500000000000007,-1.8900000000000001,-3.6575,1.17203125,0.3373125,0.3253125,1.41584375,1.14934375,-0.14653125,-0.20665625,1.395125,0.020037815990650833,0.02197613517976073,True
1265,35225,0,35223,3702.0,40639.0,29695.0,-0.0008539999999999999,0.000732,-0.000244,0.385,-2.4850000000000003,-3.7450000000000006,1.17771875,0.34328125,0.3185,1.41521875,1.1420625,-0.14784375,-0.208375,1.389875,0.02033825483900607,0.02176416219593426,True
1266,35226,0,35224,3702.0,40640.0,29696.0,0.006405,0.000732,-0.0006709999999999999,0.15750000000000003,-3.0975,-3.7625,1.1668125,0.3403125,0.32396875,1.4256875,1.14459375,-0.1444375,-0.20978125,1.39403125,0.020077088149185504,0.022046874132743356,True
1267,35227,0,35225,3705.0,40640.0,29693.0,0.00671,-0.0021349999999999997,-0.002989,0.14,-3.2375000000000003,-3.7625,1.18753125,0.3428125,0.320375,1.40684375,1.14225,-0.14365625,-0.21146875,1.389625,0.020148926283689944,0.021966604153248654,True
1268,35228,0,35226,3702.0,40641.0,29697.0,0.004575,-0.000183,0.001952,0.17500000000000002,-2.9400000000000004,-3.8325000000000005,1.1765,0.33725,0.3241875,1.42396875,1.1446875,-0.1436875,-0.20896875,1.39384375,0.019919803054110938,0.02202308803426416,True
1269,35229,0,35227,3703.0,40644.0,29695.0,0.002074,0.0021349999999999997,0.002074,0.14,-2.5900000000000003,-3.6750000000000003,1.1760625,0.34118750000000003,0.32409375,1.416125,1.14265625,-0.14565625000000001,-0.209625,1.38834375,0.02016278807911879,0.022045725615328617,True
1270,35230,0,35228,3703.0,40643.0,29693.0,0.002745,0.000122,0.0015249999999999999,0.10500000000000001,-2.2575000000000003,-3.5875000000000004,1.18615625,0.3424375,0.32278125,1.4236875,1.13884375,-0.14475,-0.210375,1.39034375,0.020177781919464895,0.022021808831957375,True
1271,35231,0,35229,3705.0,40643.0,29695.0,0.0034159999999999998,-0.001098,-0.003172,0.17500000000000002,-1.8200000000000003,-3.535,1.1793437500000001,0.3375,0.32256250000000003,1.416375,1.1405,-0.1441875,-0.2094375,1.38653125,0.01995045391359722,0.021974901316893464,True
1272,35232,0,35230,3704.0,40647.0,29697.0,-0.001281,0.000244,-0.001647,0.49000000000000005,-0.43750000000000006,-3.6225000000000005,1.18371875,0.342375,0.3225,1.4226875,1.14271875,-0.14059375,-0.21334375,1.39109375,0.020006498390289177,0.022130101300032134,True
1273,35233,0,35231,3705.0,40649.0,29698.0,-0.008723,0.000549,0.001586,0.6475000000000001,-0.10500000000000001,-3.5700000000000003,1.17825,0.34203125,0.32375,1.42165625,1.16940625,-0.14515625000000001,-0.22212500000000002,1.3880625,0.02017744242181079,0.02253621430819963,True
1274,35234,0,35232,3705.0,40650.0,29699.0,-0.012199999999999999,0.0017079999999999999,0.00244,0.6475000000000001,-0.14,-3.5875000000000004,1.1765,0.34228125,0.3221875,1.42240625,1.1414375,-0.14128125,-0.20253125,1.37225,0.02003052344208119,0.02168032527589444,True
1275,35235,0,35233,3706.0,40655.0,29704.0,-0.011101999999999999,0.001464,0.002196,0.45500000000000007,-0.42000000000000004,-3.5000000000000004,1.18059375,0.3413125,0.32071875,1.41790625,1.1586875,-0.14696875,-0.20515625,1.3916250000000001,0.02022122341960624,0.021725742836301663,True
1276,35236,0,35234,3705.0,40657.0,29703.0,0.0026839999999999998,-0.0013419999999999999,0.0,0.42000000000000004,-1.6625,-3.4650000000000003,1.17871875,0.34128125,0.32165625000000003,1.4181875,1.160875,-0.139375,-0.20475000000000002,1.40846875,0.019911710638738575,0.021748055650233945,True
1277,35237,0,35235,3707.0,40655.0,29704.0,0.006771,0.0028669999999999998,0.0,0.28,-2.1700000000000004,-3.6050000000000004,1.17865625,0.33871875,0.32256250000000003,1.4175312500000001,1.15325,-0.14028125,-0.213875,1.4103125,0.019842353742253932,0.02215413683270439,True
1278,35238,0,35236,3705.0,40656.0,29702.0,0.005978,-0.00042699999999999997,-0.00122,0.17500000000000002,-2.2750000000000004,-3.5700000000000003,1.1806875000000001,0.3399375,0.32421875,1.41640625,1.1300937500000001,-0.14553125,-0.21446875,1.40040625,0.020105946105451706,0.022246513254601134,True
1279,35239,0,35237,3708.0,40657.0,29703.0,0.004575,-0.003172,-0.003172,0.385,-2.2575000000000003,-3.535,1.176375,0.34334375,0.32340625,1.42409375,1.13021875,-0.14721875,-0.22021875,1.37190625,0.020315486643777556,0.022445090426774117,True
1280,35240,0,35238,3708.0,40656.0,29702.0,0.005124,-0.002379,0.000244,0.4025,-1.8200000000000003,-3.5700000000000003,1.18396875,0.3424375,0.31925000000000003,1.4220625,1.1379375,-0.15056250000000002,-0.20346875,1.38396875,0.02041360320282395,0.021596852723847693,True
1281,35241,0,35239,3709.0,40658.0,29704.0,-0.0006709999999999999,0.000732,0.00061,0.385,-1.3650000000000002,-3.4475000000000002,1.17928125,0.34171875,0.3256875,1.4100625,1.1513125,-0.15003125,-0.2043125,1.3905625,0.02036229249185754,0.02189692436007013,True
1282,35242,0,35240,3708.0,40659.0,29704.0,-0.0018909999999999999,-0.001403,-0.0013419999999999999,0.35000000000000003,-1.1725,-3.3075,1.1711562500000001,0.34196875,0.32475,1.4166875,1.1599375,-0.14053125,-0.208125,1.394375,0.019987132636113798,0.022012237626829835,True
1283,35243,0,35241,3709.0,40658.0,29704.0,-0.00042699999999999997,6.1e-05,-0.0032329999999999998,0.47250000000000003,-0.9975,-3.43,1.1760625,0.33946875,0.32409375,1.4175625,1.136125,-0.1418125,-0.209375,1.39215625,0.019935588928958834,0.022035626694204207,True
1284,35244,0,35242,3709.0,40662.0,29706.0,-0.001952,0.000793,-0.001281,0.5075000000000001,-0.77,-3.5000000000000004,1.185375,0.3435625,0.3238125,1.4105625,1.14075,-0.144875,-0.21028125,1.3968125,0.02022944827836135,0.022060617325542223,True
1285,35245,0,35243,3710.0,40660.0,29707.0,-0.00366,0.001098,0.002623,0.525,-0.6125,-3.3425000000000002,1.181,0.34075,0.32340625,1.41796875,1.1415625,-0.14225000000000002,-0.2085,1.389875,0.020006420279799934,0.02197187971167152,True
1286,35246,0,35244,3711.0,40662.0,29711.0,-0.00244,0.001586,0.001098,0.5075000000000001,-0.9100000000000001,-3.2900000000000005,1.17890625,0.340625,0.32403125,1.41646875,1.1475,-0.14665625000000002,-0.209875,1.39090625,0.020180071516113125,0.02205324273669319,True
1287,35247,0,35245,3712.0,40660.0,29710.0,0.0021349999999999997,0.001403,-0.000549,0.47250000000000003,-0.9450000000000001,-3.22,1.1804375,0.33978125000000003,0.32434375,1.41825,1.1477187500000001,-0.14465625000000001,-0.21003125,1.398125,0.020063963428760767,0.022072462215429814,True
1288,35248,0,35246,3711.0,40658.0,29709.0,0.004148,0.0006709999999999999,-0.0034159999999999998,0.385,-0.8925000000000001,-3.3425000000000002,1.18390625,0.34278125,0.323875,1.420875,1.13796875,-0.14471875,-0.2066875,1.39053125,0.02019075082413209,0.021918013358911664,True
1289,35249,0,35247,3712.0,40662.0,29711.0,0.0035989999999999998,-0.000488,-0.002623,0.47250000000000003,-0.6300000000000001,-3.325,1.17946875,0.34146875,0.32209375,1.41790625,1.141125,-0.14259375,-0.2070625,1.3902812500000001,0.020050144777836888,0.021859581268896217,True
1290,35250,0,35248,3713.0,40664.0,29714.0,0.001403,-0.00122,-0.001098,0.49000000000000005,-0.5075000000000001,-3.325,1.1787812500000001,0.34068750000000003,0.32359375,1.4249375,1.1485,-0.14253125,-0.20996875,1.39840625,0.020015247986890358,0.022038958641778503,True
1291,35251,0,35249,3713.0,40665.0,29712.0,-0.008173999999999999,-0.000549,0.00122,0.31500000000000006,-0.1925,-3.3600000000000003,1.1719375,0.33978125000000003,0.32371875,1.417125,1.142625,-0.148375,-0.2096875,1.39678125,0.020214869530558476,0.022032760645919115,True
