frame_seq,absolute_seq_u64,segment_id,sample_seq,PPG_G,PPG_R,PPG_IR,ACC_X,ACC_Y,ACC_Z,GYRO_X,GYRO_Y,GYRO_Z,Uh1,Uh2,Uh3,Uh4,Uc1,Uc2,Uc3,Uc4,UD1,UD2,parser_valid
35637,55371,0,55372,3689.0,41770.0,29469.0,0.008905999999999999,-0.000793,-0.002806,0.4025,-2.3625000000000003,-3.7625,0.9114375,-0.02065625,-0.088375,1.13853125,0.8688750000000001,-0.48275,-0.6151875,1.0987500000000001,0.018874258406429017,0.021401929195136133,True
35638,55372,0,55373,3688.0,41772.0,29468.0,0.012444,0.0008539999999999999,-0.005429,0.47250000000000003,-3.0275000000000003,-3.9200000000000004,0.91134375,-0.031468750000000004,-0.09346875,1.13953125,0.8724375,-0.48146875,-0.61484375,1.1003125,0.01838125010371365,0.02118132478496842,True
35639,55373,0,55374,3686.0,41772.0,29468.0,0.011956,0.002989,-0.005124,0.5950000000000001,-3.2375000000000003,-4.0425,0.9243125,-0.031656250000000004,-0.09046875,1.13715625,0.861125,-0.482,-0.6195625,1.1066562500000001,0.01839489216567274,0.0214907860365106,True
35640,55374,0,55375,3686.0,41769.0,29468.0,0.009455,0.004697,-0.003904,0.5075000000000001,-2.9050000000000002,-3.8850000000000002,0.91171875,-0.025781250000000002,-0.07940625,1.1254375,0.8683125,-0.4821875,-0.617625,1.10365625,0.018642380302005285,0.02186314683077673,True
35641,55375,0,55376,3687.0,41775.0,29469.0,0.00549,0.004026,-0.000549,0.5425000000000001,-2.0650000000000004,-3.8150000000000004,0.8878125,-0.0175,-0.08115625,1.11903125,0.86875,-0.4801875,-0.61146875,1.09053125,0.01890048840516438,0.021547373112382816,True
35642,55376,0,55377,3686.0,41771.0,29471.0,-0.004148,-0.001403,0.0018909999999999999,0.24500000000000002,-0.36750000000000005,-3.8325000000000005,0.87671875,-0.0213125,-0.0831875,1.12078125,0.8556875,-0.47928125,-0.61215625,1.09128125,0.018708423066955856,0.021492174217770946,True
35643,55377,0,55378,3685.0,41773.0,29470.0,-0.009699,-0.001403,0.0040869999999999995,0.22750000000000004,0.1925,-3.6925000000000003,0.88825,-0.01725,-0.08115625,1.1183125,0.85640625,-0.479125,-0.61221875,1.08759375,0.018868117222327188,0.021577189175600024,True
35644,55378,0,55379,3685.0,41773.0,29472.0,-0.010431,-0.0023179999999999997,0.0060999999999999995,0.21000000000000002,0.2625,-3.5175000000000005,0.88815625,-0.01503125,-0.0814375,1.119,0.8631562500000001,-0.482625,-0.61503125,1.098875,0.01909900388540853,0.021677557285246188,True
35645,55379,0,55380,3683.0,41772.0,29473.0,-0.008662,-0.0026839999999999998,0.00488,0.28,0.07,-3.5700000000000003,0.888375,-0.02015625,-0.08578125,1.12565625,0.85975,-0.47971875,-0.613,1.09371875,0.018773193625845886,0.021420336813878844,True
35646,55380,0,55381,3684.0,41775.0,29475.0,-0.004941,-0.001952,0.000793,0.29750000000000004,-0.56,-3.6400000000000006,0.891375,-0.01878125,-0.08278125,1.12165625,0.859,-0.4800625,-0.61271875,1.09428125,0.018843140208485987,0.02153104276625271,True
35647,55381,0,55382,3683.0,41773.0,29476.0,0.003538,-0.000183,-0.004148,0.35000000000000003,-2.0475000000000003,-3.6225000000000005,0.892,-0.0190625,-0.0840625,1.12590625,0.8591562500000001,-0.47946875,-0.6126875,1.09415625,0.0188078530094735,0.02147774394811619,True
35648,55382,0,55383,3681.0,41776.0,29474.0,0.008296,0.0008539999999999999,-0.003477,0.525,-2.5200000000000005,-3.6400000000000006,0.8992187500000001,-0.020625,-0.08637500000000001,1.13053125,0.859625,-0.47965625,-0.609125,1.0930312500000001,0.018751539862819765,0.021242120554875482,True
35649,55383,0,55384,3682.0,41775.0,29475.0,0.009577,0.002623,-0.003355,0.5775,-2.5725000000000002,-3.7100000000000004,0.90296875,-0.016,-0.08575,1.13015625,0.86178125,-0.47800000000000004,-0.61246875,1.09465625,0.018874091020508212,0.021400484256582347,True
35650,55384,0,55385,3682.0,41777.0,29477.0,0.0066489999999999995,0.003111,-0.002928,0.56,-2.31,-3.5875000000000004,0.90153125,-0.02071875,-0.08650000000000001,1.13140625,0.85903125,-0.47953125,-0.6125625,1.0950625,0.018742699576814813,0.021373739528340457,True
35651,55385,0,55386,3682.0,41777.0,29476.0,0.002623,0.001769,0.000305,0.43750000000000006,-1.7325000000000002,-3.6400000000000006,0.90759375,-0.0239375,-0.08896875,1.13653125,0.86275,-0.4763125,-0.61653125,1.10153125,0.01848215494061861,0.02143122825235582,True
35652,55386,0,55387,3681.0,41778.0,29476.0,-0.003355,-0.00042699999999999997,0.002562,0.35000000000000003,-0.6300000000000001,-3.7275000000000005,0.905375,-0.02346875,-0.08421875,1.12965625,0.86853125,-0.47821875,-0.61453125,1.0944375,0.01857774066995786,0.021544692223216724,True
35653,55387,0,55388,3679.0,41780.0,29480.0,-0.006039,-0.0013419999999999999,0.00244,0.28,-0.3325,-3.6400000000000006,0.9011250000000001,-0.0208125,-0.08600000000000001,1.1308125,0.85946875,-0.47953125,-0.61315625,1.0941875,0.018738869846619304,0.021417661540258575,True
35654,55388,0,55389,3680.0,41780.0,29478.0,-0.005673,-0.002013,0.002562,0.29750000000000004,-0.385,-3.6750000000000003,0.90171875,-0.0214375,-0.0861875,1.1296875,0.85984375,-0.47953125,-0.613125,1.09384375,0.01871333831198259,0.021408801198547524,True
35655,55389,0,55390,3680.0,41783.0,29482.0,-0.0050019999999999995,-0.00183,0.000793,0.35000000000000003,-0.525,-3.7100000000000004,0.9020625,-0.02071875,-0.08490625,1.1285625,0.86003125,-0.477875,-0.61271875,1.0936875,0.01867630462203112,0.021444705290836676,True
35656,55390,0,55391,3677.0,41785.0,29482.0,-0.003965,-0.000366,0.001403,0.385,-0.8225000000000001,-3.6400000000000006,0.90115625,-0.0230625,-0.0865625,1.1295,0.85875,-0.481,-0.61353125,1.0948125,0.018705833095053304,0.02140971746993841,True
35657,55391,0,55392,3678.0,41783.0,29480.0,0.002379,0.000366,-0.0028669999999999998,0.36750000000000005,-1.8375000000000001,-3.7800000000000002,0.9012187500000001,-0.021718750000000002,-0.0860625,1.1300937500000001,0.8591875,-0.48059375,-0.6135625,1.0938125,0.018744439153972725,0.021431273916565307,True
35658,55392,0,55393,3679.0,41783.0,29481.0,0.004697,0.0006709999999999999,-0.002745,0.5425000000000001,-1.995,-3.7625,0.9011250000000001,-0.01996875,-0.0858125,1.12878125,0.8595,-0.4801875,-0.61321875,1.09465625,0.018799641546863154,0.02142776429840165,True
35659,55393,0,55394,3680.0,41781.0,29482.0,0.0055509999999999995,0.0008539999999999999,-0.001464,0.56,-2.0650000000000004,-3.7450000000000006,0.900875,-0.02140625,-0.0856875,1.12975,0.85971875,-0.47953125,-0.61253125,1.0938125,0.018714614888714422,0.02140550862683008,True
35660,55394,0,55395,3679.0,41783.0,29482.0,0.003965,0.0017079999999999999,-0.00122,0.525,-1.7325000000000002,-3.7100000000000004,0.90065625,-0.02125,-0.08612500000000001,1.129625,0.85928125,-0.47959375,-0.6135625,1.0935625,0.018723503121860427,0.02142873466610126,True
35661,55395,0,55396,3680.0,41782.0,29483.0,0.00122,0.001647,0.000366,0.43750000000000006,-1.4700000000000002,-3.7275000000000005,0.9066875,-0.022875,-0.08725000000000001,1.136125,0.86434375,-0.4815625,-0.6169687500000001,1.10028125,0.0187360386004774,0.02151843938949632,True
35662,55396,0,55397,3679.0,41783.0,29485.0,-0.0050019999999999995,-0.000488,0.0028669999999999998,0.42000000000000004,-0.8750000000000001,-3.7625,0.9045625,-0.021937500000000002,-0.08662500000000001,1.1270625,0.8645,-0.47890625000000003,-0.6149687500000001,1.1004375,0.01866785816870392,0.021464327473501268,True
35663,55397,0,55398,3679.0,41781.0,29484.0,-0.001952,-0.001098,0.003965,0.3325,-0.77,-3.7975000000000003,0.90821875,-0.02371875,-0.08678125,1.13540625,0.856375,-0.48234375,-0.6151875,1.09959375,0.01873288785923529,0.02146667580736486,True
35664,55398,0,55399,3679.0,41783.0,29485.0,-0.0018909999999999999,-0.001281,0.0006709999999999999,0.28,-0.77,-3.8850000000000002,0.9085625,-0.02440625,-0.08734375,1.13690625,0.8669687500000001,-0.48134375,-0.61284375,1.0968437500000001,0.018664723009740834,0.02135064136991485,True
35665,55399,0,55400,3679.0,41784.0,29489.0,-0.002623,-0.000366,-0.000976,0.36750000000000005,-0.805,-3.8500000000000005,0.90725,-0.02496875,-0.0891875,1.136625,0.857625,-0.4819375,-0.61615625,1.09784375,0.018665546793426788,0.021407434395855365,True
35666,55400,0,55401,3679.0,41785.0,29492.0,-0.0023179999999999997,0.0013419999999999999,-0.002196,0.45500000000000007,-1.0325000000000002,-3.7100000000000004,0.9088125,-0.02359375,-0.08903125,1.13434375,0.86403125,-0.48071875000000003,-0.6158750000000001,1.0988437500000001,0.018672858614496357,0.021402600963808926,True
35667,55401,0,55402,3679.0,41787.0,29492.0,0.0,0.000244,-0.0015249999999999999,0.4025,-1.715,-3.5525,0.90878125,-0.022375,-0.08728125,1.12971875,0.86375,-0.48084375,-0.6145,1.09546875,0.018727653126743234,0.021419031465193285,True
35668,55402,0,55403,3679.0,41786.0,29491.0,0.003843,-0.001952,-0.001281,0.22750000000000004,-1.9250000000000003,-3.7275000000000005,0.90109375,-0.0206875,-0.0861875,1.12928125,0.85975,-0.48031250000000003,-0.61221875,1.0932187500000001,0.01877529136934016,0.021372768353117293,True
35669,55403,0,55404,3680.0,41785.0,29493.0,0.004575,-0.002623,-0.00061,0.28,-2.0475000000000003,-3.8500000000000005,0.90796875,-0.02290625,-0.08940625,1.1361875000000001,0.86340625,-0.4834375,-0.61509375,1.1048125,0.018809909760424775,0.021356307042300012,True
35670,55404,0,55405,3679.0,41787.0,29496.0,0.004026,-0.00122,0.0006709999999999999,0.35000000000000003,-1.9775000000000003,-3.7625,0.90578125,-0.0203125,-0.08328125,1.129875,0.8630625000000001,-0.47859375,-0.612375,1.087875,0.018721714763537015,0.021497061945464427,True
35671,55405,0,55406,3679.0,41791.0,29496.0,0.002379,0.00042699999999999997,-0.000793,0.35000000000000003,-1.6275000000000002,-3.7975000000000003,0.90096875,-0.02046875,-0.0855625,1.12971875,0.860375,-0.47650000000000003,-0.6133125,1.09065625,0.01863139133454538,0.02144164870128716,True
35672,55406,0,55407,3681.0,41788.0,29497.0,-0.000793,0.002623,-0.00122,0.385,-1.2600000000000002,-3.9550000000000005,0.90178125,-0.01884375,-0.08615625,1.12965625,0.8551562500000001,-0.47828125,-0.61078125,1.08840625,0.018769189523876396,0.021316877130830622,True
35673,55407,0,55408,3681.0,41789.0,29499.0,-0.003965,0.0017079999999999999,0.0011589999999999999,0.31500000000000006,-0.9275000000000001,-3.9550000000000005,0.90084375,-0.02109375,-0.0829375,1.1299375,0.85540625,-0.479875,-0.61175,1.0875625,0.01874115983026874,0.02148618038132193,True
35674,55408,0,55409,3680.0,41788.0,29499.0,-0.004758,0.002257,0.0015249999999999999,0.21000000000000002,-0.805,-3.9025000000000003,0.900875,-0.021125,-0.08603125,1.12965625,0.8529375,-0.4786875,-0.614375,1.09259375,0.018692280785070688,0.02146484523779296,True
35675,55409,0,55410,3682.0,41791.0,29499.0,-0.003965,-0.000122,0.0023179999999999997,0.31500000000000006,-0.8750000000000001,-3.8150000000000004,0.9011250000000001,-0.02040625,-0.08553125,1.13128125,0.8440625,-0.476875,-0.6109375,1.08965625,0.0186489799045017,0.021348485810424738,True
35676,55410,0,55411,3681.0,41791.0,29502.0,-0.001281,-0.0021349999999999997,-0.000549,0.28,-1.5225000000000002,-3.7625,0.89334375,-0.0230625,-0.085625,1.1306875,0.8629687500000001,-0.476625,-0.6098125,1.088375,0.018530434649384874,0.021299938794738887,True
35677,55411,0,55412,3682.0,41790.0,29502.0,0.00061,-0.001464,-0.00061,0.36750000000000005,-1.8725000000000003,-3.7275000000000005,0.9012187500000001,-0.02021875,-0.08559375,1.1300625,0.8530625000000001,-0.47765625,-0.61078125,1.08053125,0.018687961597630493,0.021339732967639947,True
35678,55412,0,55413,3683.0,41793.0,29505.0,0.002074,-0.000183,6.1e-05,0.49000000000000005,-2.1,-3.7275000000000005,0.9015625,-0.016625,-0.085625,1.12825,0.85309375,-0.4786875,-0.61575,1.09159375,0.01887611417074547,0.02153600844987457,True
35679,55413,0,55414,3684.0,41790.0,29505.0,0.003904,0.00042699999999999997,0.000122,0.43750000000000006,-2.31,-3.7975000000000003,0.9002187500000001,-0.0205,-0.08121875,1.119,0.8535625,-0.47771875,-0.6066875,1.0880625,0.018678977182054596,0.021354713022628504,True
35680,55414,0,55415,3684.0,41792.0,29506.0,0.005856,-6.1e-05,0.000183,0.385,-2.0650000000000004,-3.8500000000000005,0.9013125000000001,-0.01990625,-0.08515625,1.1334375,0.84715625,-0.47784375,-0.610125,1.08559375,0.018708245083883256,0.021331413391845834,True
35681,55415,0,55416,3685.0,41793.0,29508.0,-0.000366,0.000793,-0.001586,0.43750000000000006,-1.4700000000000002,-3.9550000000000005,0.904375,-0.021750000000000002,-0.0890625,1.1284687500000001,0.85590625,-0.47821875,-0.6099687500000001,1.10190625,0.018647956154897914,0.021166473443815323,True
35682,55416,0,55417,3687.0,41794.0,29508.0,-0.003843,0.0008539999999999999,-0.000549,0.3325,-1.1375000000000002,-3.9550000000000005,0.9078437500000001,-0.02309375,-0.08762500000000001,1.1350625,0.8677812500000001,-0.48034375,-0.6128125,1.0968437500000001,0.018678250790493903,0.02133797183885425,True
35683,55417,0,55418,3685.0,41793.0,29512.0,-0.004941,-0.000366,-0.000549,0.31500000000000006,-1.0325000000000002,-3.8675,0.9024375,-0.02046875,-0.0885,1.1365625,0.8601562500000001,-0.48040625000000003,-0.613625,1.09809375,0.018787984778643126,0.021334728224712936,True
35684,55418,0,55419,3688.0,41794.0,29511.0,-0.004758,-0.001586,0.000183,0.24500000000000002,-1.155,-3.9025000000000003,0.90571875,-0.0248125,-0.08334375000000001,1.12996875,0.8629375,-0.4826875,-0.60834375,1.08528125,0.01870199094768497,0.021334227339050396,True
35685,55419,0,55420,3687.0,41796.0,29514.0,-0.002928,-0.000366,-6.1e-05,0.21000000000000002,-1.2075,-3.8850000000000002,0.901875,-0.02090625,-0.0838125,1.1193125,0.85971875,-0.47909375,-0.6138125,1.09490625,0.01871750256277359,0.021532625228212816,True
35686,55420,0,55421,3689.0,41798.0,29516.0,0.001464,-6.1e-05,0.003294,0.42000000000000004,-1.8025000000000002,-3.9550000000000005,0.901625,-0.02065625,-0.08503125,1.13459375,0.8606875,-0.47890625000000003,-0.61246875,1.09828125,0.0187201991510548,0.021429686934594887,True
35687,55421,0,55422,3690.0,41799.0,29516.0,0.00244,0.001281,0.0028669999999999998,0.45500000000000007,-1.8375000000000001,-4.025,0.9077500000000001,-0.02253125,-0.0866875,1.1359375,0.8675,-0.4824375,-0.61653125,1.09415625,0.018785149558739812,0.02152389971678077,True
35688,55422,0,55423,3691.0,41799.0,29520.0,0.002623,0.001403,-0.0006709999999999999,0.43750000000000006,-1.995,-3.9550000000000005,0.9072187500000001,-0.0221875,-0.0881875,1.13403125,0.86246875,-0.48234375,-0.61675,1.10009375,0.018795432933172505,0.021471660556328518,True
35689,55423,0,55424,3690.0,41800.0,29521.0,0.0035989999999999998,0.001037,-0.0025009999999999998,0.47250000000000003,-2.2225,-3.9200000000000004,0.9079375000000001,-0.0211875,-0.08596875,1.1326875,0.8639375,-0.47981250000000003,-0.611,1.0933125000000001,0.018734824868450278,0.02133319450652147,True
35690,55424,0,55425,3691.0,41802.0,29520.0,0.004209,0.001403,-0.003111,0.43750000000000006,-2.1700000000000004,-3.8500000000000005,0.9078125,-0.023625,-0.08859375,1.13171875,0.86453125,-0.48215625,-0.6148125,1.0875000000000001,0.01872920200809518,0.021378133593339375,True
35691,55425,0,55426,3691.0,41801.0,29522.0,0.00244,-0.00042699999999999997,-0.0028669999999999998,0.35000000000000003,-1.3125000000000002,-3.8325000000000005,0.904875,-0.021,-0.08853125,1.132875,0.86278125,-0.4794375,-0.61334375,1.0939375,0.018727452377122637,0.02132227564570539,True
35692,55426,0,55427,3695.0,41802.0,29523.0,0.000244,-0.001464,-0.002623,0.3325,-0.805,-3.7800000000000002,0.905875,-0.020875,-0.08625000000000001,1.130125,0.85884375,-0.47990625000000003,-0.613125,1.09434375,0.01875134836351753,0.021406261902948122,True
35693,55427,0,55428,3694.0,41802.0,29523.0,-0.00366,-0.001952,0.000549,0.28,-0.35000000000000003,-3.7450000000000006,0.90190625,-0.0206875,-0.08915625,1.1376875,0.8596875,-0.47953125,-0.61390625,1.08934375,0.01874397615354665,0.021319249154124,True
35694,55428,0,55429,3695.0,41805.0,29521.0,-0.004392,-0.0011589999999999999,0.003477,0.2625,-0.22750000000000004,-3.8325000000000005,0.905625,-0.02615625,-0.089875,1.1350625,0.86140625,-0.47975,-0.61375,1.0950312500000001,0.018529345683677326,0.021283835254684882,True
35695,55429,0,55430,3694.0,41802.0,29518.0,-0.006954,-0.0011589999999999999,0.0040869999999999995,0.21000000000000002,-0.12250000000000001,-3.7800000000000002,0.90434375,-0.0221875,-0.0854375,1.1315625,0.85884375,-0.47965625,-0.609,1.09375,0.018687711352155932,0.02127524482912755,True
35696,55430,0,55431,3695.0,41799.0,29515.0,-0.004209,0.000244,0.001403,0.3325,-0.6125,-3.9375000000000004,0.9084375,-0.026625,-0.08875,1.1398125000000001,0.86065625,-0.4801875,-0.61440625,1.10146875,0.018527737992202878,0.021355633959279436,True
35697,55431,0,55432,3692.0,41797.0,29511.0,-0.0035989999999999998,0.001037,-0.00042699999999999997,0.31500000000000006,-1.1725,-3.8850000000000002,0.910875,-0.0190625,-0.0845625,1.128125,0.868625,-0.48125,-0.6164375,1.09403125,0.018879244319632373,0.021606497690821427,True
35698,55432,0,55433,3688.0,41796.0,29503.0,0.00042699999999999997,0.0018909999999999999,0.0,0.45500000000000007,-1.6625,-3.8675,0.8995,-0.0235625,-0.08496875,1.13746875,0.85984375,-0.47965625,-0.61415625,1.09834375,0.018631542262771767,0.021499315053710197,True
35699,55433,0,55434,3683.0,41792.0,29499.0,0.0037819999999999998,0.000488,-0.001281,0.36750000000000005,-1.9250000000000003,-3.8325000000000005,0.9076875,-0.02203125,-0.08715625,1.13453125,0.8601875,-0.47978125,-0.6135,1.09409375,0.018699105001193587,0.02138435208320637,True
35700,55434,0,55435,3677.0,41788.0,29493.0,0.005124,0.000366,-0.001403,0.29750000000000004,-2.2225,-3.8325000000000005,0.9086875,-0.025656250000000002,-0.08825,1.139875,0.85909375,-0.4791875,-0.6169375,1.0984375,0.018527218274707852,0.02147657481764334,True
35701,55435,0,55436,3672.0,41786.0,29490.0,0.003538,-0.0006709999999999999,-0.000915,0.45500000000000007,-2.3800000000000003,-3.8850000000000002,0.91371875,-0.016875,-0.08425,1.1278125,0.86609375,-0.48071875000000003,-0.6133125,1.0947500000000001,0.018947309298261515,0.021494973502652275,True
35702,55436,0,55437,3664.0,41781.0,29484.0,0.004575,0.000183,-0.000366,0.45500000000000007,-2.24,-3.99,0.8981250000000001,-0.01925,-0.08540625,1.1261875000000001,0.8601562500000001,-0.4790625,-0.61325,1.09371875,0.01878390971876476,0.02144551207174997,True
35703,55437,0,55438,3658.0,41781.0,29483.0,0.0032329999999999998,0.000122,0.000488,0.45500000000000007,-2.0825,-3.9550000000000005,0.89959375,-0.0205,-0.0871875,1.14134375,0.8599375,-0.47775,-0.6136875,1.09359375,0.018680230004800277,0.021390537277277126,True
35704,55438,0,55439,3653.0,41780.0,29480.0,0.00183,0.000915,0.000976,0.4025,-1.715,-3.9200000000000004,0.91,-0.0205,-0.07996875,1.13453125,0.86484375,-0.478375,-0.6148750000000001,1.0948437500000001,0.018705285787965906,0.021731016306196962,True
35705,55439,0,55440,3646.0,41777.0,29477.0,-0.001586,-0.000793,0.000549,0.36750000000000005,-1.4175000000000002,-3.9025000000000003,0.904375,-0.0166875,-0.08721875,1.13196875,0.8637812500000001,-0.4799375,-0.6139375,1.09784375,0.01892365942519257,0.021399207258082947,True
35706,55440,0,55441,3639.0,41776.0,29474.0,-0.003721,0.000244,0.002806,0.2625,-1.155,-3.8500000000000005,0.90615625,-0.02478125,-0.08840625,1.13678125,0.86421875,-0.480375,-0.61509375,1.0915625,0.018610570712254207,0.021396932522347187,True
35707,55441,0,55442,3636.0,41774.0,29473.0,-0.0026839999999999998,-0.001281,-0.000244,0.17500000000000002,-1.12,-3.8150000000000004,0.90828125,-0.02053125,-0.08853125,1.1354375,0.86303125,-0.48125,-0.61625,1.09446875,0.018819249425580803,0.021437820545371453,True
35708,55442,0,55443,3631.0,41774.0,29474.0,-0.002623,-0.000793,-0.001647,0.21000000000000002,-1.2075,-3.8500000000000005,0.90365625,-0.02053125,-0.0855625,1.129875,0.86071875,-0.47946875,-0.6133125,1.095,0.018747853749889895,0.02144164870128716,True
35709,55443,0,55444,3627.0,41774.0,29468.0,-0.003111,0.000488,-0.000976,0.31500000000000006,-1.4175000000000002,-3.8150000000000004,0.9025625,-0.01925,-0.08509375,1.1305625,0.8605625,-0.47853125,-0.6105,1.0950625,0.01876261468914725,0.02134886532171228,True
35710,55444,0,55445,3622.0,41773.0,29469.0,-0.001098,0.00042699999999999997,-0.0011589999999999999,0.385,-1.7500000000000002,-3.6575,0.9021250000000001,-0.020875,-0.08890625,1.13478125,0.8594375,-0.47828125,-0.6109375,1.08003125,0.018686207799005497,0.021211351660212055,True
35711,55445,0,55446,3620.0,41772.0,29470.0,0.0060999999999999995,-0.001281,0.00061,0.3325,-1.7850000000000001,-3.6575,0.9085,-0.01971875,-0.08590625,1.1264375,0.85721875,-0.4764375,-0.6100625000000001,1.0833125000000001,0.018659527147281953,0.021298452614657116,True
35712,55446,0,55447,3616.0,41771.0,29468.0,0.004575,-0.001037,-0.000366,0.21000000000000002,-1.6975000000000002,-3.8325000000000005,0.9028125,-0.01984375,-0.0860625,1.1204687500000001,0.847125,-0.474375,-0.60975,1.0830625,0.018571720421869813,0.021279675738274464,True
35713,55447,0,55448,3613.0,41770.0,29468.0,0.001037,0.000366,-0.0018909999999999999,0.28,-1.6275000000000002,-3.8500000000000005,0.9024375,-0.02071875,-0.08484375,1.121625,0.8473125,-0.475125,-0.608375,1.08334375,0.018566044095791136,0.02127451528189082,True
35714,55448,0,55449,3610.0,41770.0,29467.0,-0.003355,0.001769,-0.00122,0.45500000000000007,-1.61,-3.8150000000000004,0.89790625,-0.01990625,-0.08528125,1.130875,0.8485,-0.475125,-0.60925,1.08315625,0.018599241066184546,0.02129153671891667,True
35715,55449,0,55450,3609.0,41770.0,29468.0,-0.001647,0.002379,-0.000793,0.43750000000000006,-1.5925000000000002,-3.8850000000000002,0.90390625,-0.01928125,-0.089125,1.135,0.8395625,-0.4736875,-0.60746875,1.08590625,0.018567134601191585,0.021064488804847105,True
35716,55450,0,55451,3607.0,41770.0,29468.0,0.000915,-0.0008539999999999999,0.001769,0.385,-1.4000000000000001,-3.7975000000000003,0.90540625,-0.020375,-0.0859375,1.12909375,0.8476250000000001,-0.47350000000000003,-0.61134375,1.0894375,0.018514924305881874,0.021348133419167734,True
35717,55451,0,55452,3606.0,41768.0,29467.0,-0.000915,-0.000976,0.000915,0.31500000000000006,-1.2950000000000002,-3.7275000000000005,0.90953125,-0.022125,-0.0888125,1.13484375,0.884375,-0.4896875,-0.6149687500000001,1.10378125,0.01909221993951536,0.021375458784606425,True
35718,55452,0,55453,3603.0,41770.0,29470.0,-0.0026839999999999998,-0.000305,0.001403,0.385,-1.4175000000000002,-3.6400000000000006,0.91059375,-0.023625,-0.08834375,1.13003125,0.87190625,-0.483,-0.6168125,1.0735625,0.018763019237838498,0.02146779766876804,True
35719,55453,0,55454,3602.0,41769.0,29469.0,-0.002989,0.0013419999999999999,0.00042699999999999997,0.3325,-1.6450000000000002,-3.7450000000000006,0.90215625,-0.01959375,-0.0860625,1.12996875,0.8488125,-0.4748125,-0.6078125,1.0868125,0.01859947854554555,0.02120261603911359,True
35720,55454,0,55455,3601.0,41770.0,29470.0,-0.001586,0.000732,0.000305,0.35000000000000003,-1.8550000000000002,-3.7275000000000005,0.9034375,-0.01553125,-0.08596875,1.12975,0.84821875,-0.475375,-0.60940625,1.085625,0.018788016526815218,0.02126981426055332,True
35721,55455,0,55456,3600.0,41769.0,29468.0,0.0028669999999999998,-0.0011589999999999999,-0.000488,0.28,-2.0475000000000003,-3.8150000000000004,0.9024375,-0.01978125,-0.08612500000000001,1.129875,0.8508125,-0.4769375,-0.60921875,1.08646875,0.018677019949901823,0.02125600797465381,True
35722,55456,0,55457,3598.0,41767.0,29469.0,0.00244,-0.0008539999999999999,-0.001952,0.3325,-2.1175,-3.7100000000000004,0.90534375,-0.017125,-0.08078125,1.12815625,0.8589375,-0.478375,-0.61003125,1.078125,0.018843162587385803,0.021505458267144624,True
35723,55457,0,55458,3596.0,41767.0,29469.0,0.000183,0.000793,0.0008539999999999999,0.42000000000000004,-2.0650000000000004,-3.7625,0.9018125,-0.01946875,-0.08959375,1.1377187500000001,0.8569375,-0.4786875,-0.613375,1.09471875,0.01875994168396488,0.021280350622375026,True
35724,55458,0,55459,3596.0,41767.0,29468.0,0.002623,0.000976,0.000549,0.43750000000000006,-1.9250000000000003,-3.8500000000000005,0.908875,-0.022125,-0.0814375,1.13025,0.85240625,-0.48203125,-0.6178125,1.09890625,0.01878546127580815,0.02178808535486246,True
35725,55459,0,55460,3594.0,41767.0,29467.0,0.002806,0.0011589999999999999,-0.002013,0.385,-1.715,-3.8325000000000005,0.9031875,-0.02,-0.08334375000000001,1.1235,0.86609375,-0.47881250000000003,-0.6138750000000001,1.09428125,0.018743249902339013,0.021554153907095083,True
35726,55460,0,55461,3593.0,41768.0,29468.0,-0.001586,-0.000244,0.00061,0.42000000000000004,-1.54,-3.7800000000000002,0.90334375,-0.02075,-0.0881875,1.135125,0.8606875,-0.479375,-0.6140625000000001,1.09346875,0.018735159700768503,0.021364819399479467,True
35727,55461,0,55462,3592.0,41765.0,29466.0,-0.000976,0.000732,0.00122,0.385,-1.3475000000000001,-3.6925000000000003,0.908375,-0.01971875,-0.0834375,1.13103125,0.8667812500000001,-0.482625,-0.61484375,1.097875,0.018907541572850135,0.021588853270701754,True
35728,55462,0,55463,3591.0,41766.0,29466.0,-0.000793,-0.000976,0.002196,0.385,-1.2950000000000002,-3.6575,0.9014375,-0.02028125,-0.085125,1.13040625,0.868625,-0.48040625000000003,-0.6149375,1.099625,0.018795643965263033,0.021524023776213125,True
35729,55463,0,55464,3587.0,41766.0,29466.0,0.001464,-0.0026839999999999998,0.000244,0.28,-1.2600000000000002,-3.6925000000000003,0.90259375,-0.0198125,-0.0855625,1.12996875,0.8609375,-0.48181250000000003,-0.6139687500000001,1.08184375,0.01887115179891195,0.021467738720518204,True
35730,55464,0,55465,3588.0,41765.0,29464.0,-0.003111,0.000488,-0.001403,0.31500000000000006,-1.0850000000000002,-3.6925000000000003,0.9023125000000001,-0.018125,-0.08734375,1.1275625,0.86059375,-0.478625,-0.61415625,1.09821875,0.018812331166476876,0.021402825863673466,True
35731,55465,0,55466,3587.0,41764.0,29466.0,-0.003294,0.001037,6.1e-05,0.35000000000000003,-0.9625000000000001,-3.7625,0.90609375,-0.01953125,-0.085,1.13065625,0.865125,-0.47996875,-0.6164375,1.0839375,0.018808745415575746,0.02158872501351993,True
35732,55466,0,55467,3587.0,41766.0,29463.0,-0.001281,0.0006709999999999999,0.000549,0.4025,-1.155,-3.7800000000000002,0.90328125,-0.0191875,-0.083625,1.13171875,0.8605,-0.47831250000000003,-0.61365625,1.09378125,0.018756399159460032,0.021534031539909883,True
35733,55467,0,55468,3585.0,41768.0,29466.0,0.001281,-0.0008539999999999999,0.000244,0.31500000000000006,-1.1725,-3.8150000000000004,0.9052187500000001,-0.0285625,-0.09090625000000001,1.1490625,0.86075,-0.478875,-0.61509375,1.0988437500000001,0.01839596386680352,0.02129536882222925,True
35734,55468,0,55469,3583.0,41765.0,29467.0,0.000732,-0.000732,-0.000305,0.35000000000000003,-1.2775,-3.7450000000000006,0.91609375,-0.021656250000000002,-0.083375,1.1268125,0.86203125,-0.481125,-0.61603125,1.09753125,0.01876828577118086,0.021638591720588594,True
35735,55469,0,55470,3584.0,41768.0,29466.0,-0.002074,0.001037,0.000549,0.35000000000000003,-1.5575,-3.7275000000000005,0.90865625,-0.0193125,-0.08578125,1.13396875,0.86821875,-0.48321875000000003,-0.6173125,1.100125,0.018947927343090868,0.02159176595739279,True
35736,55470,0,55471,3582.0,41766.0,29468.0,0.000366,0.0006709999999999999,0.000305,0.385,-1.7500000000000002,-3.7450000000000006,0.89609375,-0.018125,-0.0825,1.125125,0.86609375,-0.48203125,-0.6158125,1.1011250000000001,0.018948846411590135,0.021665443706154325,True
35737,55471,0,55472,3582.0,41767.0,29467.0,0.002562,-0.000183,0.00061,0.35000000000000003,-1.6625,-3.7975000000000003,0.8954062500000001,-0.014781250000000001,-0.08403125,1.12140625,0.86709375,-0.47325,-0.6138125,1.09359375,0.01873346408834135,0.02152373794185683,True
35738,55472,0,55473,3582.0,41768.0,29468.0,0.0026839999999999998,-0.000122,-0.001281,0.385,-1.6275000000000002,-3.8325000000000005,0.90115625,-0.02053125,-0.08803125,1.12940625,0.86121875,-0.47475,-0.61228125,1.09425,0.01855866760641069,0.02130034167393565,True
35739,55473,0,55474,3581.0,41766.0,29467.0,0.000244,0.0021349999999999997,-0.000305,0.49000000000000005,-1.4700000000000002,-3.7800000000000002,0.8993125000000001,-0.02028125,-0.08296875000000001,1.145875,0.84765625,-0.47371875,-0.6126875,1.094125,0.01852752761572044,0.021522182411002455,True
35740,55474,0,55475,3581.0,41765.0,29469.0,-0.000305,0.002745,0.0025009999999999998,0.4025,-1.155,-3.8850000000000002,0.9166562500000001,-0.0271875,-0.088375,1.1460937500000001,0.85509375,-0.47675,-0.612125,1.089875,0.018366919627810067,0.0212801617089138,True
35741,55475,0,55476,3580.0,41766.0,29471.0,0.000549,-0.000122,0.001281,0.36750000000000005,-1.0850000000000002,-3.7625,0.9187500000000001,-0.017750000000000002,-0.08175,1.11334375,0.8561875,-0.4814375,-0.6139375,1.09909375,0.018940370637957844,0.02162138828864744,True
35742,55476,0,55477,3580.0,41766.0,29470.0,-6.1e-05,-0.003172,-0.001586,0.1925,-1.155,-3.7975000000000003,0.896875,-0.01703125,-0.08340625,1.12353125,0.86371875,-0.48209375,-0.61534375,1.0998125,0.018996026432584016,0.02160999681347127,True
35743,55477,0,55478,3580.0,41768.0,29470.0,-0.0026839999999999998,-0.003843,-0.003111,0.21000000000000002,-1.2775,-3.6925000000000003,0.8955000000000001,-0.0185625,-0.083875,1.12434375,0.86803125,-0.47934375,-0.614125,1.09334375,0.018823268086996817,0.021542508620558315,True
35744,55478,0,55479,3580.0,41770.0,29471.0,-0.0034159999999999998,-0.003111,-0.001403,0.28,-1.4000000000000001,-3.6575,0.8960312500000001,-0.0181875,-0.08309375000000001,1.1246875,0.86034375,-0.47815625,-0.61325,1.094375,0.018790988393989027,0.021539465531776582,True
35745,55479,0,55480,3578.0,41769.0,29475.0,0.001586,-0.000488,0.000488,0.21000000000000002,-1.9600000000000002,-3.7275000000000005,0.8955000000000001,-0.0185,-0.08321875000000001,1.12775,0.84840625,-0.4785625,-0.6139687500000001,1.09609375,0.0187945064176052,0.02156295904129642,True
35746,55480,0,55481,3579.0,41769.0,29472.0,0.003294,0.0,0.0008539999999999999,0.31500000000000006,-1.9600000000000002,-3.9375000000000004,0.9000312500000001,-0.014968750000000001,-0.08590625,1.1226875,0.86653125,-0.47828125,-0.6089687500000001,1.09353125,0.018927493122091653,0.021254954050035118,True
35747,55481,0,55482,3578.0,41771.0,29474.0,0.0028669999999999998,0.000793,0.001281,0.42000000000000004,-1.7850000000000001,-4.0075,0.9029375000000001,-0.02009375,-0.08153125,1.1360937500000001,0.8610625000000001,-0.4781875,-0.61721875,1.0991250000000001,0.01871436559590043,0.02176068326158901,True
35748,55482,0,55483,3578.0,41770.0,29475.0,0.000732,0.003355,-6.1e-05,0.4025,-1.8200000000000003,-3.9025000000000003,0.8965,-0.02325,-0.08909375,1.1324375,0.86078125,-0.47946875,-0.61528125,1.094125,0.01863679129066067,0.021376456951918844,True
35749,55483,0,55484,3579.0,41772.0,29478.0,-0.001281,0.0037819999999999998,-0.000549,0.385,-1.5575,-3.9375000000000004,0.89628125,-0.01965625,-0.0869375,1.1311875,0.8612500000000001,-0.47746875,-0.61446875,1.091875,0.018703424960965376,0.021431754443207312,True
35750,55484,0,55485,3579.0,41771.0,29480.0,-0.0025009999999999998,6.1e-05,-0.001403,0.36750000000000005,-1.4875,-3.8500000000000005,0.90890625,-0.0183125,-0.085375,1.13115625,0.86090625,-0.47903125,-0.6138750000000001,1.094375,0.01882095517975206,0.021471629314766573,True
35751,55485,0,55486,3578.0,41773.0,29479.0,-0.000793,-0.0025009999999999998,0.00061,0.2625,-1.4700000000000002,-3.8325000000000005,0.8941875,-0.01678125,-0.0863125,1.12996875,0.86059375,-0.478125,-0.6134375,1.0940625,0.018847184986595177,0.021416147175704326,True
35752,55486,0,55487,3579.0,41770.0,29482.0,0.001403,-0.001952,0.0011589999999999999,0.2625,-1.6975000000000002,-3.7800000000000002,0.908625,-0.021812500000000002,-0.08834375,1.13021875,0.8686875000000001,-0.48103125,-0.61484375,1.09346875,0.018758145656139383,0.021389532484844636,True
35753,55487,0,55488,3580.0,41771.0,29481.0,0.002562,-0.0017079999999999999,-0.000549,0.24500000000000002,-1.8025000000000002,-3.7975000000000003,0.89459375,-0.01528125,-0.08828125,1.13671875,0.8615625,-0.47815625,-0.61634375,1.10003125,0.018909716698944593,0.021451703200236632,True
35754,55488,0,55489,3582.0,41772.0,29484.0,0.0034159999999999998,-0.0011589999999999999,-0.00042699999999999997,0.2625,-1.9600000000000002,-3.7975000000000003,0.89834375,-0.01971875,-0.08684375,1.1353125,0.8602500000000001,-0.478375,-0.61675,1.09396875,0.01873720171375755,0.021526247372216072,True
35755,55489,0,55490,3581.0,41771.0,29484.0,0.002379,0.001769,-0.001403,0.385,-1.8725000000000003,-3.8675,0.90215625,-0.019125,-0.08728125,1.136875,0.86121875,-0.47890625000000003,-0.6079375,1.09871875,0.018782753008010723,0.021158061296278896,True
35756,55490,0,55491,3580.0,41773.0,29484.0,0.0018909999999999999,0.0021349999999999997,0.001403,0.31500000000000006,-1.5925000000000002,-3.9025000000000003,0.9078437500000001,-0.02003125,-0.08496875,1.128625,0.86178125,-0.4781875,-0.6136875,1.10175,0.01871691888952154,0.021480680210959856,True
35757,55491,0,55492,3582.0,41772.0,29484.0,-0.001952,0.0,0.002196,0.28,-1.1375000000000002,-3.8325000000000005,0.9045625,-0.02259375,-0.0881875,1.1304375,0.86815625,-0.4815625,-0.61075,1.0935625,0.018747526837798855,0.02123309935698831,True
35758,55492,0,55493,3582.0,41771.0,29487.0,-0.0028669999999999998,0.0,-6.1e-05,0.28,-0.8925000000000001,-3.8500000000000005,0.90240625,-0.01978125,-0.08521875,1.1285,0.86090625,-0.47753125,-0.6169687500000001,1.10225,0.018700823842273718,0.02160095361050495,True
35759,55493,0,55494,3583.0,41777.0,29486.0,-0.005612,-0.000366,0.000366,0.21000000000000002,-0.7875000000000001,-3.8150000000000004,0.90478125,-0.01971875,-0.08603125,1.1315625,0.8559375,-0.47975,-0.61159375,1.099625,0.018792318140503885,0.021354265202756323,True
35760,55494,0,55495,3583.0,41776.0,29489.0,-0.0068319999999999995,-0.000732,0.000488,0.2625,-1.0675000000000001,-3.8675,0.9025625,-0.0195,-0.08565625,1.13053125,0.8613125,-0.47821875,-0.60703125,1.09834375,0.01873987460791035,0.02118804965552275,True
35761,55495,0,55496,3583.0,41777.0,29489.0,-0.0028669999999999998,-0.00122,0.001403,0.22750000000000004,-1.54,-3.7800000000000002,0.90225,-0.019625,-0.08515625,1.13075,0.8649687500000001,-0.477875,-0.6137812500000001,1.094375,0.018720987830847243,0.021476789552600743,True
35762,55496,0,55497,3584.0,41777.0,29492.0,0.0015249999999999999,-0.002379,0.000244,0.385,-2.1350000000000002,-3.8675,0.9028125,-0.016,-0.08559375,1.1346875,0.86046875,-0.4794375,-0.61365625,1.09409375,0.01893170543645049,0.021454045454949427,True
35763,55497,0,55498,3586.0,41779.0,29490.0,0.0040869999999999995,-0.0013419999999999999,-0.0017079999999999999,0.4025,-2.66,-3.9375000000000004,0.9077500000000001,-0.02090625,-0.0848125,1.1305625,0.859625,-0.4766875,-0.613625,1.09878125,0.01862103481118513,0.021484543621672958,True
35764,55498,0,55499,3585.0,41777.0,29492.0,0.006954,0.00061,0.000122,0.6125,-2.975,-3.99,0.9018125,-0.01965625,-0.08621875,1.1302812500000001,0.8610625000000001,-0.47771875,-0.6135,1.09434375,0.018713447306032145,0.021422440936884234,True
35765,55499,0,55500,3585.0,41774.0,29491.0,0.008418,0.0025009999999999998,-0.001647,0.49000000000000005,-2.8175000000000003,-3.9550000000000005,0.90175,-0.02053125,-0.0871875,1.133875,0.85959375,-0.47159375000000003,-0.6160625,1.09975,0.018432085159962253,0.021484955199475953,True
35766,55500,0,55501,3587.0,41775.0,29491.0,0.00488,0.002928,-0.0026839999999999998,0.5075000000000001,-2.3625000000000003,-4.112500000000001,0.8952187500000001,-0.0138125,-0.08546875,1.13053125,0.86853125,-0.48034375,-0.6134375,1.09996875,0.019057381496123803,0.02145042723106027,True
35767,55501,0,55502,3586.0,41777.0,29492.0,0.000305,0.002989,-0.001586,0.49000000000000005,-1.7675,-4.025,0.90290625,-0.01928125,-0.0856875,1.13121875,0.86103125,-0.47784375,-0.6138125,1.08753125,0.018733778378661314,0.021456448488018667,True
35768,55502,0,55503,3587.0,41778.0,29494.0,-0.0044529999999999995,0.002379,-0.000976,0.385,-1.1025,-3.9375000000000004,0.903,-0.01953125,-0.08603125,1.13025,0.861625,-0.47765625,-0.61434375,1.0948125,0.018716048437031223,0.021463602904302496,True
35769,55503,0,55504,3589.0,41780.0,29498.0,-0.0057339999999999995,-0.000122,0.00042699999999999997,0.385,-0.665,-3.8850000000000002,0.90184375,-0.01925,-0.08715625,1.13371875,0.861,-0.47884375,-0.61465625,1.0969375000000001,0.01877514128909786,0.021430321619868242,True
35770,55504,0,55505,3589.0,41779.0,29498.0,-0.00793,-0.0030499999999999998,0.0023179999999999997,0.21000000000000002,-0.3325,-3.7450000000000006,0.9063125,-0.0194375,-0.08309375000000001,1.131375,0.8735937500000001,-0.47896875,-0.6191875,1.10184375,0.01877249220312845,0.021775444457701947,True
35771,55505,0,55506,3589.0,41780.0,29497.0,-0.0059169999999999995,-0.0026839999999999998,0.004331,0.29750000000000004,-0.7525000000000001,-3.7450000000000006,0.903,-0.01865625,-0.0853125,1.122125,0.86809375,-0.48134375,-0.60771875,1.09215625,0.018899595738081167,0.021229365277917116,True
35772,55506,0,55507,3589.0,41778.0,29495.0,-0.00183,-0.0021349999999999997,0.005246,0.24500000000000002,-1.1900000000000002,-3.7275000000000005,0.903625,-0.01878125,-0.07890625,1.1304375,0.85865625,-0.47715625,-0.61315625,1.09090625,0.018726644358451564,0.021705871224865766,True
35773,55507,0,55508,3590.0,41776.0,29492.0,0.002196,-0.002074,0.001952,0.22750000000000004,-1.7500000000000002,-3.7450000000000006,0.9256562500000001,-0.031843750000000004,-0.0845,1.12771875,0.85728125,-0.479875,-0.6181875,1.10575,0.018302023601019204,0.02167858620785953,True
35774,55508,0,55509,3588.0,41775.0,29485.0,0.005307,-0.000732,-0.0018909999999999999,0.28,-2.1875,-3.8150000000000004,0.88990625,-0.01815625,-0.0840625,1.119625,0.8688125,-0.47734375,-0.6118750000000001,1.0930312500000001,0.01875969487089464,0.02144544046319104,True
35775,55509,0,55510,3584.0,41771.0,29480.0,0.002623,0.002745,-0.004209,0.4025,-2.5025000000000004,-3.9025000000000003,0.89,-0.017656250000000002,-0.08146875,1.1195625,0.860625,-0.47750000000000004,-0.6128750000000001,1.0988125,0.018786385456031052,0.021590580133365164,True
35776,55510,0,55511,3581.0,41769.0,29473.0,0.003965,0.002989,-0.00122,0.43750000000000006,-2.4850000000000003,-3.8500000000000005,0.8905000000000001,-0.0078125,-0.07946875,1.119125,0.8745,-0.48546875,-0.6175,1.10421875,0.01950774375107685,0.021855641312074747,True
35777,55511,0,55512,3576.0,41768.0,29469.0,0.004148,0.0013419999999999999,0.000244,0.36750000000000005,-2.205,-3.8150000000000004,0.8894375,-0.0156875,-0.0806875,1.119375,0.87215625,-0.4753125,-0.61534375,1.0908125,0.01877912692636713,0.021720446215584534,True
35778,55512,0,55513,3570.0,41764.0,29466.0,0.002623,-0.000366,0.001037,0.31500000000000006,-1.7325000000000002,-4.0075,0.8905625,-0.01584375,-0.0809375,1.1193125,0.8591562500000001,-0.47671875,-0.61175,1.09621875,0.018829116954248618,0.021567442380163945,True
35779,55513,0,55514,3564.0,41762.0,29460.0,-0.0011589999999999999,-0.001281,0.000183,0.1925,-1.54,-3.9025000000000003,0.889375,-0.01615625,-0.07715625,1.1264687500000001,0.85159375,-0.47375,-0.61146875,1.09178125,0.018697328770621587,0.021709898967325954,True
35780,55514,0,55515,3559.0,41758.0,29459.0,-0.006405,0.00042699999999999997,0.001586,0.35000000000000003,-1.4000000000000001,-3.9725000000000006,0.8980312500000001,-0.01815625,-0.08503125,1.1185625000000001,0.8581562500000001,-0.47731250000000003,-0.608,1.0912187500000001,0.018758442128808055,0.021251981063068918,True
35781,55515,0,55516,3551.0,41757.0,29453.0,-0.002074,-0.000244,0.003355,0.29750000000000004,-1.54,-3.9550000000000005,0.89034375,-0.01621875,-0.08059375,1.119625,0.858875,-0.473625,-0.615,1.09425,0.018689762959103934,0.021710593134267722,True
35782,55516,0,55517,3547.0,41755.0,29449.0,0.001586,-0.0017079999999999999,0.002013,0.14,-1.6450000000000002,-3.9200000000000004,0.88965625,-0.015375,-0.08346875000000001,1.129625,0.864125,-0.47765625,-0.61221875,1.093875,0.01888584614795381,0.021483231778930946,True
35783,55517,0,55518,3542.0,41752.0,29447.0,0.00183,-0.0015249999999999999,-0.001037,0.17500000000000002,-1.8200000000000003,-4.0075,0.8906875,-0.0095,-0.08065625,1.119125,0.8604375,-0.47728125,-0.61371875,1.09371875,0.019110833642931646,0.021657129725673817,True
35784,55518,0,55519,3536.0,41752.0,29446.0,0.000732,-0.0011589999999999999,-0.002196,0.21000000000000002,-1.9600000000000002,-4.0075,0.88928125,-0.01553125,-0.0806875,1.12,0.86434375,-0.47759375,-0.61328125,1.0950312500000001,0.01887695762578787,0.021638470084113633,True
35785,55519,0,55520,3532.0,41752.0,29442.0,0.000549,0.000915,-0.002257,0.3325,-1.9075000000000002,-3.8850000000000002,0.8919375,-0.019125,-0.082625,1.13059375,0.86440625,-0.47953125,-0.6080625000000001,1.0995,0.018807804990138444,0.021352249897772325,True
35786,55520,0,55521,3528.0,41751.0,29442.0,0.0017079999999999999,-0.00042699999999999997,-0.003477,0.28,-1.8025000000000002,-3.8850000000000002,0.9062187500000001,-0.02059375,-0.08790625,1.13815625,0.86703125,-0.48109375,-0.6166875,1.10146875,0.018810434072211335,0.021480601319734838,True
35787,55521,0,55522,3526.0,41749.0,29439.0,6.1e-05,-0.001281,-0.0008539999999999999,0.2625,-1.7325000000000002,-3.9375000000000004,0.90740625,-0.02,-0.08490625,1.1304687500000001,0.8675,-0.47590625000000003,-0.61365625,1.091375,0.01862673624189094,0.02148197710366578,True
35788,55522,0,55523,3522.0,41750.0,29442.0,-0.001586,-0.0008539999999999999,0.001647,0.3325,-1.6800000000000002,-3.8675,0.89490625,-0.0186875,-0.08290625,1.12946875,0.85640625,-0.477625,-0.613125,1.08253125,0.018749265911214834,0.021542114217516065,True
35789,55523,0,55524,3521.0,41747.0,29438.0,-0.001098,-0.0006709999999999999,0.003294,0.24500000000000002,-1.7675,-3.8150000000000004,0.89575,-0.01953125,-0.08575,1.13121875,0.86121875,-0.4784375,-0.61503125,1.094125,0.01874736694284511,0.021502359457699245,True
35790,55524,0,55525,3518.0,41749.0,29438.0,0.001464,0.0017079999999999999,0.001586,0.29750000000000004,-1.7325000000000002,-3.99,0.90390625,-0.01878125,-0.08475,1.1355625,0.86259375,-0.47800000000000004,-0.61315625,1.09384375,0.018760468584034642,0.02146844738776645,True
35791,55525,0,55526,3516.0,41748.0,29439.0,-0.000366,0.00183,-0.002745,0.385,-1.8900000000000001,-4.0075,0.90859375,-0.01828125,-0.08637500000000001,1.13640625,0.86871875,-0.4814375,-0.61809375,1.0961875,0.01891867052333018,0.021598697096520725,True
35792,55526,0,55527,3514.0,41751.0,29437.0,-0.002013,0.000488,-0.005063,0.4025,-2.1525000000000003,-3.8500000000000005,0.9086875,-0.02140625,-0.08815625,1.13203125,0.8704375,-0.48125,-0.6175625,1.0986875,0.018783507786571355,0.021505226197760238,True
35793,55527,0,55528,3514.0,41754.0,29440.0,-0.000732,0.00061,-0.0013419999999999999,0.4025,-2.4850000000000003,-3.9200000000000004,0.90353125,-0.0193125,-0.08650000000000001,1.130125,0.8621562500000001,-0.4781875,-0.61415625,1.09434375,0.01874628176616426,0.02143710491802862,True
35794,55528,0,55529,3513.0,41750.0,29441.0,0.008905999999999999,-0.001098,0.003843,0.385,-2.5725000000000002,-3.9550000000000005,0.8916875,-0.01834375,-0.0856875,1.130125,0.8610625000000001,-0.47765625,-0.61403125,1.095,0.01876456206872339,0.0214651450074843,True
35795,55529,0,55530,3512.0,41752.0,29437.0,0.0071979999999999995,-0.0021349999999999997,-0.0017079999999999999,0.29750000000000004,-2.1175,-3.9200000000000004,0.9075,-0.02234375,-0.0875625,1.13875,0.86165625,-0.48075,-0.6159375,1.09971875,0.018725171818673857,0.021464752256541115,True
35796,55530,0,55531,3510.0,41752.0,29438.0,-0.00183,0.001647,-0.006527,0.36750000000000005,-1.6975000000000002,-3.9725000000000006,0.90953125,-0.02028125,-0.085,1.1280937500000001,0.868,-0.48134375,-0.61475,1.09346875,0.01883321866268064,0.0215216486050031,True
35797,55531,0,55532,3512.0,41751.0,29443.0,-0.008905999999999999,0.0023179999999999997,-0.003172,0.56,-1.4875,-3.9375000000000004,0.90328125,-0.0191875,-0.08612500000000001,1.1320000000000001,0.86128125,-0.47740625000000003,-0.614,1.09396875,0.01872006965607314,0.021446128219712358,True
35798,55532,0,55533,3510.0,41752.0,29441.0,-0.006405,0.0015249999999999999,0.003904,0.43750000000000006,-1.2075,-3.8325000000000005,0.8991250000000001,-0.01903125,-0.088875,1.1363125,0.8615,-0.47831250000000003,-0.6153125,1.09990625,0.018762782360916424,0.021386586093513946,True
35799,55533,0,55534,3511.0,41750.0,29443.0,0.0015249999999999999,-0.00366,0.004941,0.12250000000000001,-1.05,-3.9200000000000004,0.91125,-0.0141875,-0.08409375,1.13071875,0.8615625,-0.47846875,-0.6139687500000001,1.0928437500000001,0.018966923737825714,0.02152741012153922,True
35800,55534,0,55535,3510.0,41751.0,29440.0,-0.0013419999999999999,-0.0028669999999999998,0.001403,0.22750000000000004,-1.1900000000000002,-4.0075,0.90334375,-0.01859375,-0.08715625,1.1390625,0.86053125,-0.47731250000000003,-0.6161875,1.100625,0.018740568434545257,0.021491193548960414,True
35801,55535,0,55536,3509.0,41751.0,29442.0,-0.00732,0.00183,-0.003172,0.4025,-1.54,-3.99,0.9078125,-0.01840625,-0.084625,1.12325,0.8660625000000001,-0.479375,-0.61371875,1.0941875,0.018830903566778155,0.021495888344787394,True
35802,55536,0,55537,3511.0,41751.0,29443.0,-0.0073809999999999995,0.005124,-0.002074,0.56,-2.1350000000000002,-3.9200000000000004,0.90409375,-0.01925,-0.08171875,1.1271875,0.862625,-0.477625,-0.6137812500000001,1.0944375,0.018726285740548767,0.02161644708693428,True
35803,55537,0,55538,3507.0,41751.0,29442.0,0.002379,0.002989,0.002623,0.4025,-2.555,-3.9375000000000004,0.9025,-0.0190625,-0.08634375,1.12971875,0.86184375,-0.47796875,-0.61446875,1.0924375,0.018747725952546614,0.02145587643446499,True
35804,55538,0,55539,3506.0,41748.0,29441.0,0.011956,-0.004209,-0.0028669999999999998,0.21000000000000002,-2.9050000000000002,-3.8850000000000002,0.9028437500000001,-0.01928125,-0.0866875,1.13584375,0.86078125,-0.47778125,-0.6149687500000001,1.09890625,0.018731272876294704,0.02146178836810427,True
35805,55539,0,55540,3509.0,41749.0,29440.0,0.0060999999999999995,-0.001403,-0.004148,0.3325,-2.5200000000000005,-3.9725000000000006,0.9070625,-0.01834375,-0.08515625,1.13115625,0.8663125,-0.47800000000000004,-0.6140625000000001,1.09371875,0.018778341776288912,0.021487970545292962,True
35806,55540,0,55541,3507.0,41750.0,29442.0,0.000549,0.003355,-0.002013,0.385,-2.0825,-4.025,0.903375,-0.01728125,-0.085,1.13196875,0.86234375,-0.47746875,-0.61390625,1.09378125,0.018800452967588813,0.02148810695173587,True
35807,55541,0,55542,3506.0,41749.0,29440.0,-0.002806,0.002745,-0.002806,0.3325,-1.4175000000000002,-4.025,0.90971875,-0.02028125,-0.07971875,1.1365,0.86921875,-0.480625,-0.6166875,1.1025625000000001,0.018804411652071792,0.021813200902842837,True
35808,55542,0,55543,3506.0,41749.0,29441.0,-0.003538,-0.000366,-0.001586,0.29750000000000004,-0.7875000000000001,-3.8850000000000002,0.90446875,-0.01978125,-0.08571875,1.130875,0.864625,-0.47846875,-0.61434375,1.08259375,0.018738406584357936,0.02147629875364847,True
35809,55543,0,55544,3505.0,41746.0,29443.0,-0.007137,-0.002928,0.00549,0.14,-0.052500000000000005,-3.7800000000000002,0.9036875,-0.014781250000000001,-0.08559375,1.12953125,0.8580625000000001,-0.47803125,-0.61503125,1.0931875,0.018925133123195926,0.021508707205074133,True
35810,55544,0,55545,3505.0,41751.0,29442.0,-0.00976,-0.003477,0.004392,0.29750000000000004,-0.15750000000000003,-3.7100000000000004,0.90465625,-0.02034375,-0.0859375,1.12465625,0.8575,-0.47603125,-0.61109375,1.09553125,0.01861770379950794,0.021338192253239456,True
35811,55545,0,55546,3504.0,41752.0,29444.0,-0.008052,-0.000976,0.001647,0.31500000000000006,-0.5425000000000001,-3.7625,0.90896875,-0.0230625,-0.08309375000000001,1.13778125,0.86809375,-0.48184375,-0.6140625000000001,1.109,0.018739652727340034,0.021571764108423798,True
35812,55546,0,55547,3505.0,41752.0,29444.0,-0.003843,0.000305,0.000122,0.3325,-1.3825,-3.8150000000000004,0.908625,-0.01921875,-0.08546875,1.13075,0.8694375,-0.486875,-0.6148750000000001,1.0886875,0.01909824140483422,0.0215075741802467,True
35813,55547,0,55548,3504.0,41753.0,29446.0,0.002074,0.000366,-0.003355,0.3325,-2.5025000000000004,-3.7800000000000002,0.9036875,-0.018000000000000002,-0.08496875,1.13553125,0.855,-0.4756875,-0.6113125,1.08821875,0.018699679018209396,0.021386252764861686,True
35814,55548,0,55549,3503.0,41751.0,29445.0,0.015677,0.001037,-0.0018909999999999999,0.525,-3.8675,-3.9025000000000003,0.90928125,-0.02009375,-0.0855625,1.13075,0.85603125,-0.4748125,-0.6098125,1.0888125,0.01857904937984714,0.02130247843212946,True
35815,55549,0,55550,3504.0,41751.0,29445.0,0.016714,0.0006709999999999999,-0.002928,0.36750000000000005,-3.8150000000000004,-3.9550000000000005,0.905375,-0.02015625,-0.08484375,1.1313125,0.854375,-0.46359375,-0.61075,1.08896875,0.01812642510873939,0.021368964781650297,True
35816,55550,0,55551,3504.0,41752.0,29445.0,0.012688,0.002379,-0.004575,0.4025,-3.1500000000000004,-4.0600000000000005,0.90046875,-0.01425,-0.0850625,1.13053125,0.85509375,-0.47625,-0.6128125,1.08775,0.018875440478014403,0.021442084280291006,True
35817,55551,0,55552,3505.0,41749.0,29447.0,0.003355,0.0032329999999999998,-0.0035989999999999998,0.4025,-2.1175,-4.2175,0.9028437500000001,-0.0185625,-0.0850625,1.13165625,0.84490625,-0.4754375,-0.60759375,1.084125,0.018666673476214674,0.021234552850174553,True
35818,55552,0,55553,3505.0,41751.0,29449.0,-0.005856,0.005307,0.001281,0.42000000000000004,-1.0850000000000002,-4.2,0.9034375,-0.0186875,-0.08475,1.13059375,0.85478125,-0.4726875,-0.61075,1.08834375,0.018551293150782886,0.02137277409262213,True
35819,55553,0,55554,3506.0,41753.0,29450.0,-0.011346,-0.0028669999999999998,0.0070149999999999995,0.15750000000000003,0.43750000000000006,-3.9725000000000006,0.90525,-0.02065625,-0.08290625,1.13753125,0.85459375,-0.47971875,-0.61365625,1.1048437500000001,0.018752768554581536,0.021563232809022434,True
35820,55554,0,55555,3507.0,41754.0,29451.0,-0.010369999999999999,-0.005246,0.0051849999999999995,0.07,0.5775,-3.8150000000000004,0.9095,-0.01984375,-0.0859375,1.13078125,0.87440625,-0.48190625000000004,-0.61415625,1.08971875,0.01887363244028434,0.021459957620932057,True
35821,55555,0,55556,3506.0,41755.0,29453.0,-0.012139,-0.004575,0.002013,0.035,0.17500000000000002,-3.7625,0.9031875,-0.0186875,-0.088375,1.13803125,0.85440625,-0.47515625,-0.61365625,1.09575,0.01865028951551637,0.02134104923968783,True
35822,55556,0,55557,3508.0,41755.0,29453.0,-0.009943,-0.001952,-0.000793,0.1925,-0.525,-3.7450000000000006,0.907375,-0.0185625,-0.08625000000000001,1.13084375,0.8610625000000001,-0.47890625000000003,-0.6138750000000001,1.092,0.018805731975872084,0.02143608025960967,True
35823,55557,0,55558,3508.0,41757.0,29455.0,-0.0015249999999999999,-0.0011589999999999999,-0.002257,0.3325,-1.4700000000000002,-3.5875000000000004,0.9040312500000001,-0.01871875,-0.08440625,1.13525,0.85890625,-0.4774375,-0.61240625,1.09540625,0.01874047273126527,0.021452595680278113,True
35824,55558,0,55559,3508.0,41758.0,29455.0,0.012993,-0.000549,-0.003538,0.385,-3.0625000000000004,-3.8150000000000004,0.9105,-0.02146875,-0.08515625,1.12746875,0.86928125,-0.48121875000000003,-0.6144375,1.090875,0.018779702297296783,0.021502878138084606,True
35825,55559,0,55560,3508.0,41758.0,29456.0,0.012627,-0.000244,-0.003965,0.42000000000000004,-3.1850000000000005,-3.8675,0.8951875,-0.01809375,-0.0885,1.13615625,0.8626875,-0.47684375,-0.61653125,1.1005625,0.018742204047447905,0.021450270334086974,True
35826,55560,0,55561,3510.0,41756.0,29455.0,0.008296,0.001281,-0.0023179999999999997,0.3325,-3.0100000000000002,-3.99,0.90759375,-0.02090625,-0.0886875,1.1316875,0.86734375,-0.47984375,-0.61640625,1.0936875,0.018747566556669707,0.021437684471103495,True
35827,55561,0,55562,3512.0,41759.0,29458.0,0.003721,0.0032329999999999998,-0.00042699999999999997,0.29750000000000004,-2.4850000000000003,-3.9375000000000004,0.89175,-0.0186875,-0.08453125,1.12978125,0.86178125,-0.47781250000000003,-0.61278125,1.09384375,0.018756782290084133,0.021462426153078498,True
35828,55562,0,55563,3514.0,41759.0,29459.0,0.000732,0.0040869999999999995,0.000976,0.3325,-1.995,-3.9025000000000003,0.903875,-0.017875000000000002,-0.08409375,1.13065625,0.86221875,-0.4774375,-0.61375,1.0981875,0.018774943251310516,0.02151871413336042,True
35829,55563,0,55564,3514.0,41760.0,29463.0,-0.0064659999999999995,0.000122,0.00244,0.2625,-0.9275000000000001,-3.8675,0.90271875,-0.017906250000000002,-0.08503125,1.1288125,0.86221875,-0.47746875,-0.6133125,1.1004375,0.01877491928163528,0.021463232549458755,True
35830,55564,0,55565,3517.0,41762.0,29463.0,-0.008113,-0.00122,0.0017079999999999999,0.17500000000000002,-0.7350000000000001,-3.6925000000000003,0.90846875,-0.01884375,-0.08559375,1.13078125,0.87053125,-0.47850000000000004,-0.6139375,1.09428125,0.018777958208223543,0.021465226764307826,True
35831,55565,0,55566,3518.0,41762.0,29465.0,-0.006039,-0.003538,0.002562,0.29750000000000004,-0.7525000000000001,-3.6050000000000004,0.9040312500000001,-0.0206875,-0.08559375,1.131375,0.86171875,-0.480625,-0.61371875,1.09403125,0.018787816896014706,0.02145653021244504,True
35832,55566,0,55567,3519.0,41763.0,29465.0,-0.002013,-0.002013,0.001037,0.22750000000000004,-1.0325000000000002,-3.7450000000000006,0.90378125,-0.019625,-0.08984375,1.12396875,0.8624375,-0.47740625000000003,-0.6148750000000001,1.0868125,0.01870219603026771,0.02132983612551354,True
35833,55567,0,55568,3521.0,41763.0,29466.0,0.000732,-0.00061,-0.001403,0.28,-1.33,-3.7100000000000004,0.9036875,-0.017593750000000002,-0.0898125,1.1425,0.8614375,-0.47665625,-0.61625,1.1011250000000001,0.018755114886250035,0.021385771593967397,True
35834,55568,0,55569,3523.0,41763.0,29467.0,0.0032329999999999998,0.000305,-0.002074,0.4025,-2.0475000000000003,-3.7625,0.9045625,-0.0180625,-0.07903125,1.1368125,0.8529375,-0.476625,-0.61253125,1.10090625,0.018734711178522368,0.02167595013211004,True
35835,55569,0,55570,3524.0,41766.0,29468.0,0.0032329999999999998,0.000366,-0.002257,0.35000000000000003,-2.2575000000000003,-3.7800000000000002,0.91634375,-0.0189375,-0.08421875,1.12915625,0.8679687500000001,-0.47765625,-0.61275,1.09209375,0.018740305252877305,0.02147388040751237,True
35836,55570,0,55571,3525.0,41765.0,29469.0,0.004697,0.0008539999999999999,-0.0006709999999999999,0.4025,-2.1875,-3.8150000000000004,0.9120312500000001,-0.02278125,-0.0856875,1.12915625,0.869125,-0.48078125,-0.61409375,1.094,0.018708553265635672,0.021467629698940265,True
35837,55571,0,55572,3525.0,41766.0,29471.0,0.0025009999999999998,0.000305,-0.00122,0.385,-2.1875,-3.8850000000000002,0.900625,-0.01825,-0.088,1.129625,0.856125,-0.48034375,-0.61653125,1.0945625,0.018876113616664393,0.021470581887933538,True
35838,55572,0,55573,3526.0,41767.0,29473.0,-0.000122,-0.000122,0.000976,0.35000000000000003,-2.0475000000000003,-3.7800000000000002,0.901,-0.0151875,-0.08309375000000001,1.1404375,0.85753125,-0.47684375,-0.6155625,1.10078125,0.018860938718865662,0.021631386648182427,True
35839,55573,0,55574,3528.0,41768.0,29475.0,-0.0011589999999999999,0.000732,0.002623,0.3325,-1.6800000000000002,-3.7800000000000002,0.9161875,-0.021562500000000002,-0.08078125,1.12553125,0.8701875,-0.4764375,-0.61040625,1.09428125,0.018584199600125632,0.021520368035371218,True
35840,55574,0,55575,3530.0,41768.0,29476.0,0.000488,0.000549,-0.000122,0.42000000000000004,-1.5575,-3.8325000000000005,0.9008125,-0.02346875,-0.09053125000000001,1.1328125,0.8613125,-0.47953125,-0.6151875,1.09415625,0.018630360824413255,0.02131433083741491,True
35841,55575,0,55576,3532.0,41770.0,29476.0,0.000122,0.000488,0.00042699999999999997,0.29750000000000004,-1.4700000000000002,-3.7625,0.9005625,-0.0181875,-0.08871875,1.14325,0.86175,-0.47715625,-0.61615625,1.0906875,0.01875090166979671,0.021426476767671638,True
35842,55576,0,55577,3532.0,41770.0,29478.0,-0.0030499999999999998,-0.000793,-0.000488,0.28,-1.3825,-3.7800000000000002,0.90546875,-0.017781250000000002,-0.08309375000000001,1.1335625,0.86165625,-0.47696875,-0.61303125,1.09828125,0.018759982279259967,0.021530769396800733,True
35843,55577,0,55578,3533.0,41772.0,29479.0,-0.0026839999999999998,-0.002196,-0.000793,0.2625,-1.2950000000000002,-3.7625,0.91621875,-0.02378125,-0.08040625,1.1285,0.86509375,-0.47853125,-0.614125,1.0948437500000001,0.018577503501154714,0.02168343380071402,True
35844,55578,0,55579,3534.0,41773.0,29481.0,-0.001464,-0.000305,-0.0017079999999999999,0.21000000000000002,-1.5925000000000002,-3.9550000000000005,0.90771875,-0.021843750000000002,-0.08946875,1.12365625,0.86559375,-0.47915625,-0.6170625,1.0938125,0.01868171007732344,0.02143203519916318,True
35845,55579,0,55580,3536.0,41772.0,29481.0,-0.000488,0.000488,0.000305,0.3325,-1.9250000000000003,-3.8325000000000005,0.90084375,-0.017,-0.0841875,1.1355625,0.8626875,-0.477625,-0.61409375,1.09840625,0.018818206423213038,0.021528570394756055,True
35846,55580,0,55581,3537.0,41772.0,29483.0,0.001464,0.000915,0.001464,0.43750000000000006,-2.1350000000000002,-3.8325000000000005,0.90853125,-0.01871875,-0.08709375,1.12940625,0.8641562500000001,-0.4790625,-0.6146875,1.0965,0.018805611938774208,0.021434103114248357,True
35847,55581,0,55582,3539.0,41774.0,29486.0,0.0028669999999999998,0.000549,0.00061,0.42000000000000004,-2.31,-3.7975000000000003,0.89875,-0.018125,-0.0841875,1.13121875,0.86221875,-0.475875,-0.61346875,1.0948125,0.018702089302221066,0.021503724459804148,True
35848,55582,0,55583,3540.0,41774.0,29483.0,0.002562,0.00061,-0.000732,0.385,-2.31,-3.9025000000000003,0.91021875,-0.0186875,-0.08828125,1.13696875,0.8639687500000001,-0.48096875,-0.61721875,1.1005625,0.018883290719449164,0.021486484942577037,True
35849,55583,0,55584,3542.0,41773.0,29487.0,0.001769,0.002013,-0.002562,0.47250000000000003,-1.9425000000000001,-3.7625,0.90525,-0.01803125,-0.07978125,1.1329375,0.8656875,-0.4776875,-0.61503125,1.10053125,0.018778581514287247,0.021744843407420007,True
35850,55584,0,55585,3544.0,41776.0,29488.0,0.000488,0.000549,-0.00122,0.385,-1.6975000000000002,-3.7100000000000004,0.9031250000000001,-0.01696875,-0.08865625,1.13615625,0.8581875,-0.47728125,-0.62475,1.1211875,0.018805703758459694,0.021770525589092277,True
35851,55585,0,55586,3544.0,41778.0,29489.0,0.0008539999999999999,0.000305,0.0,0.24500000000000002,-1.5225000000000002,-3.7975000000000003,0.9110625,-0.02040625,-0.0878125,1.1306875,0.89134375,-0.4895,-0.611375,1.112875,0.019154892913289367,0.021273191766002512,True
35852,55586,0,55587,3546.0,41778.0,29488.0,0.000488,-0.002745,0.000549,0.14,-1.1725,-3.6575,0.9036875,-0.017875000000000002,-0.08528125,1.13075,0.88215625,-0.4905,-0.6140625000000001,1.094375,0.019298299340560623,0.02148289214752746,True
35853,55587,0,55588,3546.0,41780.0,29488.0,-0.000122,-0.00366,0.002562,0.12250000000000001,-0.8400000000000001,-3.5175000000000005,0.9035,-0.01825,-0.08478125,1.13121875,0.85403125,-0.4748125,-0.60846875,1.08278125,0.018654381928360025,0.021280783673303525,True
35854,55588,0,55589,3549.0,41782.0,29487.0,-0.005429,0.000305,0.00122,0.3325,-0.6300000000000001,-3.6225000000000005,0.90728125,-0.020375,-0.08478125,1.13125,0.84959375,-0.47971875,-0.61665625,1.1161875,0.018764257657167733,0.021606305689872075,True
35855,55589,0,55590,3548.0,41776.0,29481.0,-0.006222,0.0015249999999999999,0.002013,0.3325,-0.77,-3.5875000000000004,0.90259375,-0.0181875,-0.08778125,1.13684375,0.86221875,-0.47446875,-0.60678125,1.10515625,0.018643152366688245,0.02109174681267994,True
35856,55590,0,55591,3547.0,41773.0,29478.0,-0.0030499999999999998,0.0017079999999999999,0.00042699999999999997,0.17500000000000002,-1.0850000000000002,-3.6750000000000003,0.9038125,-0.017593750000000002,-0.0856875,1.13759375,0.8745937500000001,-0.47625,-0.6085,1.07715625,0.018738828456156476,0.021245199829327266,True
35857,55591,0,55592,3543.0,41773.0,29473.0,0.000366,0.000976,-0.000244,0.22750000000000004,-1.4875,-3.7975000000000003,0.90490625,-0.0208125,-0.0855,1.13109375,0.87325,-0.48059375,-0.62434375,1.0891875,0.018781458272432626,0.021882562860177743,True
35858,55592,0,55593,3539.0,41767.0,29467.0,0.002257,0.000732,-0.0015249999999999999,0.24500000000000002,-1.7325000000000002,-3.8150000000000004,0.9040625,-0.01840625,-0.08475,1.1343750000000001,0.84528125,-0.47228125,-0.60928125,1.08353125,0.01854649329024036,0.021314366911873953,True
35859,55593,0,55594,3534.0,41766.0,29461.0,0.0018909999999999999,0.000366,-0.0017079999999999999,0.3325,-1.9425000000000001,-3.9200000000000004,0.91025,-0.0201875,-0.088375,1.13840625,0.8681875,-0.48165625,-0.61509375,1.10271875,0.0188495723200917,0.021398202068598663,True
35860,55594,0,55595,3532.0,41764.0,29459.0,0.000732,0.000915,0.0013419999999999999,0.31500000000000006,-1.995,-3.9200000000000004,0.89959375,-0.021718750000000002,-0.08740625,1.13340625,0.87103125,-0.48562500000000003,-0.62125,1.104,0.018946065293411953,0.02168223587348327,True
35861,55595,0,55596,3530.0,41763.0,29457.0,0.001586,-0.0008539999999999999,0.000366,0.3325,-1.995,-3.9725000000000006,0.90796875,-0.014781250000000001,-0.0875625,1.13815625,0.8693125,-0.48609375,-0.61675,1.10546875,0.019248170198645914,0.021497049773020405,True
35862,55596,0,55597,3522.0,41762.0,29453.0,0.0023179999999999997,-0.000793,0.000915,0.28,-2.0300000000000002,-3.8325000000000005,0.90434375,-0.0188125,-0.08715625,1.1385,0.866625,-0.4809375,-0.6111875,1.1051875,0.0188769323070246,0.021292400051805705,True
35863,55597,0,55598,3518.0,41757.0,29447.0,0.0,-0.000183,0.00061,0.22750000000000004,-1.8725000000000003,-3.9200000000000004,0.9100312500000001,-0.02125,-0.08675000000000001,1.1326875,0.86784375,-0.47831250000000003,-0.6109375,1.09078125,0.018672140900235668,0.021298965145070157,True
35864,55598,0,55599,3511.0,41755.0,29444.0,-0.000732,0.00042699999999999997,-0.000366,0.21000000000000002,-1.8725000000000003,-3.8675,0.90496875,-0.018000000000000002,-0.0851875,1.12934375,0.85878125,-0.4763125,-0.61425,1.09496875,0.01872473641607575,0.021494154808698214,True
35865,55599,0,55600,3505.0,41753.0,29441.0,0.000122,0.000488,0.000122,0.29750000000000004,-1.9425000000000001,-3.7975000000000003,0.9048437500000001,-0.0181875,-0.08509375,1.131375,0.86190625,-0.47703125,-0.61390625,1.08909375,0.018745890598967144,0.02148429812923335,True
35866,55600,0,55601,3502.0,41752.0,29439.0,0.001037,-0.0006709999999999999,-0.000244,0.28,-1.8375000000000001,-3.7625,0.9044375,-0.017687500000000002,-0.0855,1.1282812500000001,0.8616875,-0.476375,-0.6135,1.095,0.018740009498955625,0.021451642391370592,True
35867,55601,0,55602,3498.0,41750.0,29435.0,0.000549,-0.000244,-0.000793,0.22750000000000004,-1.6625,-3.8500000000000005,0.9038125,-0.017781250000000002,-0.08565625,1.13115625,0.86184375,-0.47703125,-0.61328125,1.09440625,0.018762487791488192,0.02143659736549754,True
35868,55602,0,55603,3492.0,41750.0,29432.0,-0.001586,-0.000793,-0.001464,0.2625,-1.6800000000000002,-3.8150000000000004,0.903875,-0.01734375,-0.0856875,1.131125,0.86184375,-0.47609375,-0.6125625,1.09853125,0.01874277834877144,0.021406751125568498,True
35869,55603,0,55604,3491.0,41750.0,29433.0,-0.001037,-0.00042699999999999997,0.000793,0.4025,-1.5575,-3.7800000000000002,0.89715625,-0.0204375,-0.08621875,1.13496875,0.868125,-0.47434375,-0.61190625,1.10215625,0.01854620718890573,0.02135907290805644,True
35870,55604,0,55605,3489.0,41747.0,29430.0,0.0013419999999999999,-0.00042699999999999997,0.001464,0.29750000000000004,-1.4700000000000002,-3.7800000000000002,0.9067500000000001,-0.01934375,-0.088,1.1362812500000001,0.85859375,-0.47800000000000004,-0.61690625,1.08746875,0.01873748876542201,0.021485488250579825,True
35871,55605,0,55606,3487.0,41748.0,29432.0,-0.000549,0.000549,0.001037,0.22750000000000004,-1.5925000000000002,-3.7800000000000002,0.910375,-0.01984375,-0.08821875,1.13171875,0.86309375,-0.47425,-0.6138125,1.0940625,0.018566707866431043,0.021353609888756564,True
35872,55606,0,55607,3484.0,41750.0,29431.0,-0.001037,0.000122,0.002074,0.24500000000000002,-1.5575,-3.9375000000000004,0.9039375000000001,-0.0175625,-0.0863125,1.1310625,0.8621562500000001,-0.4764375,-0.61421875,1.09375,0.018747622075312227,0.021447207216357417,True
35873,55607,0,55608,3482.0,41749.0,29431.0,-0.0017079999999999999,0.000915,-0.001464,0.385,-1.715,-3.8150000000000004,0.90409375,-0.0183125,-0.08503125,1.1319375,0.8625625,-0.47650000000000003,-0.6139375,1.09740625,0.01871948603762793,0.021488079670308746,True
35874,55608,0,55609,3482.0,41748.0,29432.0,-6.1e-05,0.0006709999999999999,-0.000915,0.31500000000000006,-1.8550000000000002,-3.8850000000000002,0.903625,-0.01690625,-0.0844375,1.12878125,0.86290625,-0.47628125,-0.6126875,1.09309375,0.01876816969489595,0.021462507903698046,True
35875,55609,0,55610,3480.0,41744.0,29430.0,0.003294,0.000305,-0.00183,0.28,-1.9425000000000001,-3.8675,0.9024375,-0.01309375,-0.08275,1.12196875,0.862,-0.47628125,-0.61275,1.0949375000000001,0.01892393273590121,0.02153355476328326,True
35876,55610,0,55611,3478.0,41748.0,29430.0,0.004026,-0.000305,-0.0018909999999999999,0.2625,-1.9075000000000002,-3.8325000000000005,0.89690625,-0.01590625,-0.08600000000000001,1.13515625,0.86103125,-0.4761875,-0.61353125,1.09453125,0.018805267364453714,0.021432570753129945,True
35877,55611,0,55612,3479.0,41747.0,29433.0,0.00183,-0.0006709999999999999,0.00061,0.3325,-1.715,-3.7800000000000002,0.91,-0.02646875,-0.08875,1.14278125,0.859,-0.47684375,-0.61346875,1.09371875,0.018400043919061256,0.021318358469892627,True
35878,55612,0,55613,3479.0,41749.0,29432.0,-0.001403,0.00061,0.0017079999999999999,0.29750000000000004,-1.3475000000000001,-3.8325000000000005,0.909625,-0.0180625,-0.0744375,1.12525,0.86265625,-0.4771875,-0.6079687500000001,1.0945625,0.01875726122537567,0.021681238927938738,True
35879,55613,0,55614,3477.0,41749.0,29432.0,-0.002196,-6.1e-05,0.001586,0.29750000000000004,-1.225,-3.8850000000000002,0.8971250000000001,-0.01615625,-0.08190625,1.1220937500000001,0.8598750000000001,-0.47721875,-0.6158125,1.102375,0.01883639251293614,0.021689564380619166,True
35880,55614,0,55615,3478.0,41751.0,29434.0,-0.0030499999999999998,-0.00061,0.000793,0.17500000000000002,-1.225,-3.8675,0.8969375,-0.01571875,-0.08121875,1.125875,0.8703125,-0.4804375,-0.61653125,1.101375,0.01898326980471652,0.021746057336977563,True
35881,55615,0,55616,3477.0,41750.0,29435.0,-0.0037819999999999998,-0.001037,0.000488,0.28,-1.2775,-3.9200000000000004,0.913,-0.02390625,-0.08946875,1.146375,0.87075,-0.47875,-0.6165,1.09375,0.018581167339018535,0.02140967440537851,True
35882,55616,0,55617,3477.0,41748.0,29432.0,-0.0032329999999999998,0.000549,0.001037,0.29750000000000004,-1.5750000000000002,-4.0425,0.9214375,-0.02809375,-0.08153125,1.12515625,0.8544375000000001,-0.47203125,-0.6133125,1.094375,0.018140606942874837,0.02160543201976573,True
35883,55617,0,55618,3478.0,41749.0,29435.0,0.002074,0.000122,-0.0011589999999999999,0.35000000000000003,-2.0825,-4.0425,0.89775,-0.01575,-0.08246875000000001,1.13859375,0.8688750000000001,-0.47809375,-0.61746875,1.102625,0.01888806190228763,0.02173253495040996,True
35884,55618,0,55619,3478.0,41750.0,29434.0,0.002989,0.001037,-0.00061,0.4025,-2.2575000000000003,-4.0425,0.91371875,-0.013875,-0.08678125,1.14475,0.87025,-0.481,-0.6164375,1.094125,0.0190811241370859,0.021516364827363826,True
35885,55619,0,55620,3478.0,41751.0,29434.0,0.003477,0.000915,-0.001647,0.43750000000000006,-2.2225,-4.0425,0.91825,-0.02684375,-0.0855,1.1323750000000001,0.8619375,-0.47390625000000003,-0.61028125,1.09428125,0.01826690416451195,0.02132365919223292,True
35886,55620,0,55621,3478.0,41751.0,29434.0,0.003843,0.000305,-0.000366,0.35000000000000003,-2.1525000000000003,-3.9725000000000006,0.90296875,-0.017656250000000002,-0.083875,1.1311875,0.8615,-0.470625,-0.61359375,1.0948437500000001,0.01851071437693153,0.021521389983939262,True
35887,55621,0,55622,3480.0,41746.0,29435.0,0.003904,-0.0006709999999999999,6.1e-05,0.24500000000000002,-1.9775000000000003,-3.9725000000000006,0.9003125000000001,-0.01928125,-0.0845,1.1293125,0.86246875,-0.47725,-0.61390625,1.0950312500000001,0.018709975589578078,0.021508420671749327,True
35888,55622,0,55623,3478.0,41747.0,29435.0,-0.0017079999999999999,0.000244,0.00042699999999999997,0.36750000000000005,-1.3650000000000002,-3.9550000000000005,0.9041875,-0.0164375,-0.08678125,1.131375,0.85484375,-0.47684375,-0.614625,1.094,0.018809870042987058,0.021444314101880486,True
35889,55623,0,55624,3478.0,41747.0,29433.0,-0.003721,0.00042699999999999997,0.0006709999999999999,0.4025,-1.155,-4.0075,0.90471875,-0.017906250000000002,-0.085875,1.13146875,0.86253125,-0.47750000000000004,-0.6135625,1.0948437500000001,0.018776171994689003,0.02143889166795745,True
35890,55624,0,55625,3478.0,41747.0,29435.0,-0.003721,-0.00042699999999999997,0.000549,0.29750000000000004,-1.1375000000000002,-3.99,0.9048437500000001,-0.0175,-0.084875,1.13765625,0.8615625,-0.47721875,-0.61515625,1.10271875,0.018781494527436864,0.021542875641912693,True
35891,55625,0,55626,3478.0,41750.0,29436.0,-0.002623,0.000488,0.000488,0.28,-1.1375000000000002,-3.9025000000000003,0.90828125,-0.02,-0.0885,1.1376875,0.87,-0.47925,-0.6178750000000001,1.0986875,0.01876078719732018,0.02150368380698984,True
35892,55626,0,55627,3478.0,41749.0,29438.0,-0.001403,-0.000244,0.000305,0.29750000000000004,-1.1725,-3.8500000000000005,0.9126562500000001,-0.02046875,-0.0869375,1.123125,0.86709375,-0.476625,-0.6135625,1.09453125,0.01863640309887495,0.021395724410068637,True
35893,55627,0,55628,3477.0,41749.0,29438.0,0.000793,-0.000366,0.000183,0.35000000000000003,-1.4875,-3.9375000000000004,0.905875,-0.017906250000000002,-0.08540625,1.13146875,0.86175,-0.47659375,-0.61390625,1.08875,0.018739842017437575,0.021471602054224936,True
35894,55628,0,55629,3480.0,41751.0,29439.0,0.001098,0.000244,-0.000732,0.4025,-1.6800000000000002,-3.8325000000000005,0.9044375,-0.0173125,-0.08409375,1.13721875,0.8551562500000001,-0.4750625,-0.61609375,1.09146875,0.018702710156511346,0.021611877392204035,True
35895,55629,0,55630,3479.0,41751.0,29439.0,0.001769,-6.1e-05,-0.001403,0.35000000000000003,-1.7500000000000002,-3.9375000000000004,0.91025,-0.02053125,-0.08796875,1.132875,0.86953125,-0.48053125,-0.61490625,1.09615625,0.018790441894515668,0.02140725195733784,True
35896,55630,0,55631,3479.0,41753.0,29442.0,0.001098,0.001037,0.00061,0.385,-1.8375000000000001,-3.9725000000000006,0.90840625,-0.0193125,-0.08584375,1.13090625,0.862,-0.47653125,-0.61403125,1.09546875,0.018679883408724427,0.021458797002217995,True
35897,55631,0,55632,3480.0,41751.0,29441.0,-0.000122,0.000305,0.000366,0.43750000000000006,-1.7850000000000001,-3.9200000000000004,0.90490625,-0.017687500000000002,-0.0849375,1.13265625,0.86134375,-0.47678125,-0.61365625,1.10128125,0.018756295826274135,0.02148070748326958,True
35898,55632,0,55633,3479.0,41751.0,29441.0,0.0037819999999999998,0.000366,6.1e-05,0.35000000000000003,-1.6625,-3.9375000000000004,0.9105,-0.0195,-0.08796875,1.1363125,0.86959375,-0.47853125,-0.61190625,1.094625,0.018752401658085595,0.021287969110478793,True
35899,55633,0,55634,3480.0,41750.0,29441.0,0.0015249999999999999,-0.000366,-0.0006709999999999999,0.47250000000000003,-1.4700000000000002,-3.9725000000000006,0.9113125,-0.021906250000000002,-0.08675000000000001,1.13415625,0.8715625,-0.47946875,-0.61453125,1.094,0.018691684230279712,0.021441856626865482,True
35900,55634,0,55635,3482.0,41750.0,29442.0,-0.001586,0.0013419999999999999,-0.000915,0.5075000000000001,-1.3825,-4.0075,0.9038125,-0.017968750000000002,-0.08575,1.13134375,0.8623125,-0.4760625,-0.6131875,1.08859375,0.0187159903681403,0.021429061148622055,True
35901,55635,0,55636,3482.0,41754.0,29444.0,-0.0026839999999999998,0.000366,0.0018909999999999999,0.56,-1.2075,-3.8850000000000002,0.8975,-0.01746875,-0.08528125,1.131875,0.85928125,-0.47684375,-0.6133125,1.09528125,0.01876773838538721,0.02145307544443683,True
35902,55636,0,55637,3484.0,41751.0,29444.0,-0.003111,-0.000305,0.001037,0.43750000000000006,-1.1375000000000002,-3.9200000000000004,0.9040312500000001,-0.0173125,-0.0863125,1.13571875,0.8584375,-0.478625,-0.61640625,1.10059375,0.018845523390304805,0.021534164841791235,True
35903,55637,0,55638,3485.0,41754.0,29446.0,-0.0006709999999999999,-0.001464,0.000305,0.22750000000000004,-1.54,-3.7625,0.90709375,-0.01846875,-0.0874375,1.1377187500000001,0.8691875,-0.47790625000000003,-0.6156875,1.1007500000000001,0.01876947706669152,0.02145989219273279,True
35904,55638,0,55639,3485.0,41752.0,29447.0,-0.001281,-0.0008539999999999999,-0.000549,0.35000000000000003,-1.6450000000000002,-3.8850000000000002,0.910625,-0.01925,-0.08600000000000001,1.1355,0.8699687500000001,-0.47981250000000003,-0.615125,1.1001875,0.018813971716490886,0.021495929839885033,True
35905,55639,0,55640,3487.0,41753.0,29448.0,6.1e-05,0.00061,-6.1e-05,0.5425000000000001,-1.8375000000000001,-3.7800000000000002,0.903875,-0.01984375,-0.08625000000000001,1.13278125,0.8667812500000001,-0.47353125,-0.61603125,1.09471875,0.018537884678983544,0.02152179791370715,True
35906,55640,0,55641,3488.0,41754.0,29450.0,0.000732,0.001647,-0.001037,0.385,-1.9250000000000003,-3.7975000000000003,0.90453125,-0.01815625,-0.08525,1.13453125,0.8622500000000001,-0.47671875,-0.61375,1.1021875,0.01873463942138895,0.02147173835762531,True
35907,55641,0,55642,3489.0,41754.0,29450.0,0.0015249999999999999,0.000793,-0.000915,0.3325,-2.1350000000000002,-3.8850000000000002,0.9081875,-0.0174375,-0.085125,1.13165625,0.87053125,-0.4766875,-0.61284375,1.09540625,0.018762751291407385,0.02144078739377688,True
35908,55642,0,55643,3490.0,41755.0,29453.0,0.0026839999999999998,-0.001281,-0.00061,0.35000000000000003,-2.1350000000000002,-3.7975000000000003,0.906,-0.01959375,-0.0851875,1.1316875,0.87125,-0.4804375,-0.6133125,1.0952187500000001,0.018824980149966683,0.021456884358820053,True
35909,55643,0,55644,3492.0,41758.0,29452.0,0.002196,-0.00122,-0.001403,0.36750000000000005,-2.0300000000000002,-3.8850000000000002,0.90453125,-0.01709375,-0.0854375,1.13515625,0.86271875,-0.47996875,-0.6160625,1.1013125,0.018908316621114966,0.02155604699167464,True
35910,55644,0,55645,3493.0,41758.0,29455.0,0.000732,-0.000488,0.0006709999999999999,0.3325,-1.9600000000000002,-3.7975000000000003,0.9049375000000001,-0.0175625,-0.0850625,1.13234375,0.86265625,-0.47550000000000003,-0.61309375,1.0949375000000001,0.018710036567179428,0.021453266109629145,True
35911,55645,0,55646,3494.0,41756.0,29456.0,-0.00061,0.001037,-0.000122,0.43750000000000006,-1.7675,-3.9025000000000003,0.90559375,-0.017843750000000002,-0.08534375,1.13196875,0.86859375,-0.4805625,-0.6179687500000001,1.0928437500000001,0.018901475405232213,0.021635619307543402,True
35912,55646,0,55647,3496.0,41756.0,29456.0,-0.001647,0.00122,0.000183,0.5075000000000001,-1.6275000000000002,-3.8150000000000004,0.9055,-0.01678125,-0.08521875,1.1245,0.860625,-0.475625,-0.6120625000000001,1.097,0.01874696764638288,0.021405916306282743,True
35913,55647,0,55648,3496.0,41759.0,29458.0,0.000488,-0.000305,0.000366,0.385,-1.5750000000000002,-3.7975000000000003,0.904625,-0.022,-0.08875,1.1445,0.87034375,-0.47984375,-0.61503125,1.1031875,0.018702886941425023,0.021380482708101375,True
35914,55648,0,55649,3497.0,41760.0,29460.0,0.001647,-0.000732,-0.0008539999999999999,0.4025,-1.5750000000000002,-3.8325000000000005,0.92071875,-0.02496875,-0.09334375,1.13015625,0.87221875,-0.47346875,-0.6149375,1.09271875,0.018325967789098143,0.021190130992613736,True
35915,55649,0,55650,3500.0,41761.0,29461.0,0.000488,-6.1e-05,0.000549,0.45500000000000007,-1.4525000000000001,-3.9200000000000004,0.90578125,-0.01965625,-0.0866875,1.1245625000000001,0.85959375,-0.475625,-0.6126875,1.0919375,0.018629503843109217,0.021371091637189154,True
35916,55650,0,55651,3500.0,41761.0,29462.0,-0.0008539999999999999,0.001098,-0.000183,0.42000000000000004,-1.33,-3.8325000000000005,0.896,-0.01415625,-0.08846875,1.15446875,0.860375,-0.4789375,-0.6157812500000001,1.0908437500000001,0.01898698626114798,0.021421725138217988,True
35917,55651,0,55652,3501.0,41762.0,29463.0,-0.0017079999999999999,0.001281,-0.00061,0.385,-1.3825,-3.7975000000000003,0.89959375,-0.01653125,-0.08009375,1.11515625,0.852375,-0.47450000000000003,-0.6113125,1.09790625,0.018712077876973994,0.021584332408115175,True
35918,55652,0,55653,3504.0,41761.0,29465.0,-6.1e-05,-0.0008539999999999999,0.000244,0.31500000000000006,-1.3650000000000002,-3.6925000000000003,0.8901875,-0.02921875,-0.09296875,1.12709375,0.87165625,-0.48221875000000003,-0.609,1.08315625,0.01850322491706353,0.020969208419683853,True
35919,55653,0,55654,3505.0,41761.0,29467.0,-0.000122,-0.001586,0.0,0.3325,-1.4175000000000002,-3.7100000000000004,0.89615625,-0.0131875,-0.08084375,1.1206562500000001,0.85978125,-0.4748125,-0.6160625,1.1025625000000001,0.01886122723105642,0.021742662946196208,True
35920,55654,0,55655,3508.0,41763.0,29467.0,-6.1e-05,-0.000976,-0.00061,0.42000000000000004,-1.4875,-3.8325000000000005,0.89353125,-0.02275,-0.0860625,1.15221875,0.8715,-0.48078125,-0.61609375,1.1011250000000001,0.01870982977718491,0.021531899227512485,True
35921,55655,0,55656,3508.0,41766.0,29469.0,-0.001037,0.00061,-0.00042699999999999997,0.385,-1.5575,-3.7975000000000003,0.9150312500000001,-0.0155,-0.07609375,1.143,0.8551562500000001,-0.4751875,-0.61215625,1.1026875,0.018781776441957797,0.021780395612432373,True
35922,55656,0,55657,3509.0,41764.0,29470.0,0.000244,0.001403,0.001281,0.3325,-1.6625,-3.7275000000000005,0.9149375000000001,-0.02096875,-0.080375,1.13865625,0.86984375,-0.47509375000000004,-0.60909375,1.09796875,0.018554576527413713,0.021484689983758545,True
35923,55657,0,55658,3511.0,41766.0,29469.0,0.002379,0.000793,0.00042699999999999997,0.45500000000000007,-1.9075000000000002,-3.8850000000000002,0.9303750000000001,-0.026125,-0.085625,1.1162812500000001,0.87125,-0.4755625,-0.61259375,1.09271875,0.018362703615085456,0.021410532971560547,True
35924,55658,0,55659,3512.0,41767.0,29473.0,0.003965,0.000122,0.000183,0.385,-1.8025000000000002,-3.7275000000000005,0.89165625,-0.022625,-0.09165625000000001,1.14975,0.8668125,-0.4786875,-0.6169687500000001,1.09740625,0.018631002989845758,0.021339447002385298,True
35925,55659,0,55660,3514.0,41766.0,29473.0,0.002928,0.000976,-0.001464,0.36750000000000005,-1.7500000000000002,-3.7975000000000003,0.91509375,-0.01640625,-0.080875,1.13178125,0.8629375,-0.47600000000000003,-0.6121875,1.1021875,0.018777322683445008,0.02158737414136797,True
35926,55660,0,55661,3516.0,41767.0,29477.0,-0.000793,0.001098,-0.00122,0.3325,-1.3825,-3.8850000000000002,0.91096875,-0.0191875,-0.093625,1.1314375,0.8668125,-0.4786875,-0.6138125,1.0954375,0.01877143127056955,0.021133966954530105,True
35927,55661,0,55662,3517.0,41767.0,29476.0,-0.003538,-0.001281,0.000976,0.36750000000000005,-1.2775,-3.7275000000000005,0.89471875,-0.01728125,-0.0851875,1.1340000000000001,0.86340625,-0.475625,-0.6153125,1.10096875,0.018726539158857025,0.021536391219896152,True
35928,55662,0,55663,3520.0,41769.0,29478.0,-0.0015249999999999999,-0.002623,-6.1e-05,0.3325,-1.2600000000000002,-3.7800000000000002,0.91190625,-0.01571875,-0.0855,1.1279375,0.87015625,-0.47615625,-0.6131875,1.0850312500000001,0.018811675137921216,0.021439218305227634,True
35929,55663,0,55664,3519.0,41772.0,29482.0,-0.000366,-0.0013419999999999999,0.00122,0.31500000000000006,-1.3125000000000002,-3.6750000000000003,0.9109375000000001,-0.021750000000000002,-0.08578125,1.1325,0.8695,-0.47753125,-0.6139687500000001,1.0946875,0.01862039293688983,0.0214588514905789,True
35930,55664,0,55665,3522.0,41772.0,29481.0,0.000793,-0.000976,0.002623,0.42000000000000004,-1.4700000000000002,-3.6225000000000005,0.9048437500000001,-0.0209375,-0.08803125,1.13259375,0.86275,-0.47721875,-0.61084375,1.098,0.018641057820345707,0.02124317659771417,True
35931,55665,0,55666,3523.0,41772.0,29484.0,-0.001037,0.000488,0.0008539999999999999,0.47250000000000003,-1.61,-3.7975000000000003,0.905375,-0.01678125,-0.08634375,1.13875,0.862375,-0.4726875,-0.61403125,1.09990625,0.018629186107982622,0.02143848338536582,True
35932,55666,0,55667,3524.0,41772.0,29484.0,0.001403,0.001952,-0.00183,0.385,-1.7500000000000002,-3.7450000000000006,0.9048437500000001,-0.01678125,-0.08737500000000001,1.137,0.86303125,-0.47650000000000003,-0.614625,1.1004375,0.01878204604416481,0.021420192263745638,True
35933,55667,0,55668,3527.0,41774.0,29487.0,0.002806,0.001037,-0.002745,0.43750000000000006,-1.7325000000000002,-3.7100000000000004,0.912375,-0.018000000000000002,-0.08509375,1.13278125,0.86828125,-0.4774375,-0.60828125,1.095375,0.01876983650760011,0.021260627456458382,True
35934,55668,0,55669,3528.0,41776.0,29487.0,0.0023179999999999997,0.0013419999999999999,-0.00244,0.47250000000000003,-1.6275000000000002,-3.7100000000000004,0.905625,-0.0203125,-0.08628125,1.13325,0.8631875,-0.4765625,-0.61659375,1.10071875,0.01864028088094478,0.021542887102323004,True
35935,55669,0,55670,3531.0,41779.0,29490.0,0.00244,0.000915,-0.002379,0.5425000000000001,-1.3650000000000002,-3.6575,0.8942187500000001,-0.017625000000000002,-0.08521875,1.1371875,0.8635,-0.4759375,-0.613375,1.1009375000000001,0.01872502330094608,0.021458099508905218,True
35936,55670,0,55671,3533.0,41777.0,29491.0,0.001586,-0.000915,-0.000976,0.42000000000000004,-1.2075,-3.5000000000000004,0.909625,-0.020875,-0.08734375,1.13353125,0.87146875,-0.47821875,-0.61815625,1.095875,0.01868370221995831,0.021561830000977427,True
35937,55671,0,55672,3535.0,41782.0,29491.0,-0.0025009999999999998,-0.0021349999999999997,0.002806,0.12250000000000001,-0.6125,-3.6050000000000004,0.904375,-0.01696875,-0.0844375,1.13965625,0.86240625,-0.47650000000000003,-0.61328125,1.09959375,0.01877438563520111,0.021486113315346774,True
35938,55672,0,55673,3536.0,41781.0,29491.0,-0.0037819999999999998,-0.0018909999999999999,0.003721,0.21000000000000002,-0.47250000000000003,-3.7100000000000004,0.91209375,-0.02103125,-0.084,1.12440625,0.8706875000000001,-0.4705625,-0.6146875,1.0943125,0.01837028674759724,0.021559790267497814,True
35939,55673,0,55674,3538.0,41778.0,29490.0,-0.004514,-0.000183,0.003355,0.2625,-0.6125,-3.7275000000000005,0.904375,-0.0174375,-0.0885,1.1362812500000001,0.85946875,-0.475375,-0.6149375,1.0951250000000001,0.018710132122592607,0.021386911910704628,True
35940,55674,0,55675,3537.0,41777.0,29487.0,-0.0028669999999999998,6.1e-05,0.000305,0.28,-0.5950000000000001,-3.6400000000000006,0.90515625,-0.0170625,-0.08528125,1.1323125,0.8658125,-0.47565625,-0.61353125,1.0952187500000001,0.018736729479929676,0.021461772170541356,True
35941,55675,0,55676,3536.0,41778.0,29483.0,-0.002257,0.000793,-0.000549,0.31500000000000006,-0.8225000000000001,-3.6575,0.90509375,-0.019875,-0.08803125,1.14003125,0.859125,-0.4750625,-0.61590625,1.1018125,0.01859801175175753,0.021444467436578737,True
35942,55676,0,55677,3536.0,41772.0,29477.0,6.1e-05,0.001464,-0.001464,0.4025,-1.4525000000000001,-3.7800000000000002,0.908625,-0.01746875,-0.08553125,1.13259375,0.8705,-0.4766875,-0.61434375,1.0945625,0.018761474566360337,0.02148391626325605,True
35943,55677,0,55678,3534.0,41773.0,29474.0,0.001281,0.0013419999999999999,-0.002013,0.42000000000000004,-1.6450000000000002,-3.7100000000000004,0.90825,-0.02075,-0.0876875,1.139875,0.86371875,-0.47859375,-0.60790625,1.1024375,0.018703842004812878,0.02114030932639789,True
35944,55678,0,55679,3530.0,41769.0,29467.0,0.002623,-0.000122,-0.000305,0.4025,-1.7850000000000001,-3.6925000000000003,0.9116875,-0.017906250000000002,-0.08559375,1.1313125,0.86865625,-0.47690625000000003,-0.61340625,1.0947500000000001,0.01875236989968861,0.021444106298777726,True
35945,55679,0,55680,3525.0,41768.0,29459.0,0.002257,-0.001403,-0.001281,0.36750000000000005,-1.8375000000000001,-3.7275000000000005,0.9049375000000001,-0.014812500000000001,-0.08421875,1.1323125,0.8635625,-0.47575,-0.61434375,1.09115625,0.018832415758454797,0.02153723883050914,True
35946,55680,0,55681,3521.0,41765.0,29459.0,0.001281,0.00061,0.001098,0.42000000000000004,-1.9075000000000002,-3.6400000000000006,0.90275,-0.016875,-0.085375,1.132125,0.863,-0.4759375,-0.61190625,1.0953125000000001,0.018755665640999453,0.021393355096174235,True
35947,55681,0,55682,3517.0,41761.0,29454.0,0.000488,-0.0006709999999999999,0.000244,0.28,-1.8200000000000003,-3.7275000000000005,0.90525,-0.01665625,-0.08465625,1.132125,0.86303125,-0.47596875,-0.61290625,1.095375,0.018765855794778297,0.021462317153221187,True
35948,55682,0,55683,3512.0,41762.0,29450.0,0.0,-0.001281,0.000305,0.24500000000000002,-1.8375000000000001,-3.7625,0.904875,-0.0170625,-0.085375,1.1313125,0.86346875,-0.47671875,-0.6101875,1.0944375,0.01877932474098474,0.021325010221884738,True
35949,55683,0,55684,3508.0,41758.0,29449.0,0.001281,-0.001037,6.1e-05,0.29750000000000004,-1.715,-3.7450000000000006,0.9045625,-0.017906250000000002,-0.085625,1.1331875,0.86265625,-0.47559375000000004,-0.61409375,1.0947500000000001,0.018699750644455764,0.02147016889459926,True
35950,55684,0,55685,3505.0,41755.0,29447.0,0.000732,-0.00061,-0.000244,0.31500000000000006,-1.715,-3.7975000000000003,0.9110625,-0.0133125,-0.08478125,1.1368125,0.8700625000000001,-0.47709375,-0.61803125,1.1048125,0.01894756194247938,0.02166095227456501,True
35951,55685,0,55686,3502.0,41753.0,29442.0,0.0011589999999999999,0.000366,-6.1e-05,0.4025,-1.5575,-3.7800000000000002,0.9099375000000001,-0.017875000000000002,-0.08540625,1.1381875000000001,0.8769375,-0.4816875,-0.61975,1.11515625,0.018945283081486925,0.021703865798799744,True
35952,55686,0,55687,3499.0,41752.0,29441.0,-0.0008539999999999999,-6.1e-05,-0.0021349999999999997,0.36750000000000005,-1.1725,-3.7975000000000003,0.9136562500000001,-0.0205625,-0.08778125,1.1323750000000001,0.8805625,-0.4840625,-0.62171875,1.1080625,0.01893068194871664,0.021685630699522142,True
35953,55687,0,55688,3494.0,41752.0,29439.0,-0.002257,-0.000366,-0.000549,0.35000000000000003,-1.05,-3.7100000000000004,0.8979375,-0.0170625,-0.08259375000000001,1.12709375,0.8663125,-0.471375,-0.61146875,1.087625,0.018565058154680725,0.02148896538326263,True
35954,55688,0,55689,3492.0,41752.0,29440.0,-0.003172,-0.0006709999999999999,0.000305,0.29750000000000004,-1.155,-3.7800000000000002,0.90553125,-0.017625000000000002,-0.08521875,1.131625,0.85659375,-0.4733125,-0.60634375,1.08165625,0.01861977204761309,0.02117848166694818,True
35955,55689,0,55690,3492.0,41753.0,29438.0,-0.0015249999999999999,-0.000183,0.0017079999999999999,0.36750000000000005,-1.2950000000000002,-3.7275000000000005,0.905375,-0.01725,-0.085125,1.132125,0.85609375,-0.4740625,-0.61125,1.0896875,0.01866516848193879,0.0213774188633247,True
35956,55690,0,55691,3489.0,41753.0,29440.0,-0.000549,0.0,0.002379,0.28,-1.3650000000000002,-3.7450000000000006,0.905,-0.01671875,-0.08459375,1.1336875,0.85653125,-0.47228125,-0.6101875,1.09,0.01861544885603993,0.02135675520554242,True
35957,55691,0,55692,3488.0,41752.0,29439.0,-0.000488,0.000976,-0.000488,0.47250000000000003,-1.6975000000000002,-3.7975000000000003,0.91034375,-0.0174375,-0.08878125,1.13521875,0.856875,-0.47321875,-0.61228125,1.111625,0.01862367409272636,0.021269869082127444,True
35958,55692,0,55693,3487.0,41752.0,29440.0,0.000183,0.001098,-0.0013419999999999999,0.5075000000000001,-1.995,-3.7450000000000006,0.90709375,-0.01715625,-0.08665625,1.1320000000000001,0.87809375,-0.48231250000000003,-0.62175,1.0911875,0.018999685997799436,0.021732563688608653,True
35959,55693,0,55694,3487.0,41751.0,29438.0,0.002806,0.0008539999999999999,-0.002074,0.4025,-2.0300000000000002,-3.7975000000000003,0.90065625,-0.0171875,-0.08546875,1.12690625,0.8786875000000001,-0.48121875000000003,-0.6151875,1.0975,0.018954581254252305,0.021519996546847348,True
35960,55694,0,55695,3485.0,41751.0,29437.0,0.004209,-0.000732,-0.001098,0.4025,-1.9075000000000002,-3.7450000000000006,0.9048125,-0.01725,-0.08534375,1.1255625,0.86071875,-0.47465625,-0.61190625,1.0852187500000001,0.018688975458031203,0.021394624806845265,True
35961,55695,0,55696,3487.0,41749.0,29439.0,0.004514,-0.00061,0.000488,0.4025,-1.7325000000000002,-3.7625,0.90490625,-0.0175625,-0.08609375,1.131625,0.85665625,-0.47353125,-0.61075,1.0895625,0.018631097627155868,0.021318173968692546,True
35962,55696,0,55697,3484.0,41749.0,29441.0,-0.002928,-0.000976,0.0015249999999999999,0.43750000000000006,-1.05,-3.8325000000000005,0.90690625,-0.0194375,-0.0883125,1.14046875,0.8573125,-0.47896875,-0.61465625,1.106375,0.01877249220312845,0.021383347573663558,True
35963,55697,0,55698,3485.0,41751.0,29438.0,-0.003721,0.00042699999999999997,0.002562,0.385,-0.9450000000000001,-3.7975000000000003,0.91040625,-0.0173125,-0.08646875,1.13259375,0.8753125,-0.47990625000000003,-0.61446875,1.0890625,0.0188968758816223,0.021450798120516007,True
35964,55698,0,55699,3484.0,41750.0,29441.0,-0.002989,-0.00042699999999999997,-6.1e-05,0.36750000000000005,-0.9625000000000001,-3.8675,0.90471875,-0.0169375,-0.0855,1.13153125,0.85528125,-0.47559375000000004,-0.61253125,1.091375,0.018739330889572393,0.021413126697401346,True
35965,55699,0,55700,3486.0,41752.0,29439.0,-0.004209,-0.000183,0.00122,0.2625,-0.9100000000000001,-3.8500000000000005,0.90159375,-0.01646875,-0.0851875,1.136875,0.86046875,-0.47490625000000003,-0.61315625,1.1015,0.01873091955153046,0.021450672341138694,True
35966,55700,0,55701,3484.0,41751.0,29442.0,-0.003721,-0.000244,0.0008539999999999999,0.31500000000000006,-1.155,-3.9375000000000004,0.91171875,-0.020625,-0.08765625,1.13884375,0.8696875000000001,-0.4766875,-0.61403125,1.10115625,0.018632525336608557,0.021385160141128855,True
35967,55701,0,55702,3485.0,41752.0,29443.0,0.000244,0.001037,-0.00061,0.43750000000000006,-1.7500000000000002,-3.9725000000000006,0.91090625,-0.0208125,-0.08778125,1.1313125,0.8706875000000001,-0.4784375,-0.6151875,1.101,0.018695024958190247,0.021426050482044875,True
35968,55702,0,55703,3486.0,41750.0,29439.0,0.002013,0.002196,-0.000488,0.5775,-1.9250000000000003,-3.9550000000000005,0.9071875,-0.01803125,-0.08603125,1.1313125,0.8588125,-0.47578125,-0.614625,1.094375,0.01870216093715088,0.021474783792156085,True
35969,55703,0,55704,3485.0,41747.0,29439.0,0.0028669999999999998,0.000122,-0.00122,0.42000000000000004,-2.0125,-3.8850000000000002,0.9050625,-0.0170625,-0.085875,1.1321875000000001,0.863625,-0.4755625,-0.6133125,1.0943125,0.018732970896991642,0.021428952320009752,True
35970,55704,0,55705,3486.0,41750.0,29437.0,0.003355,0.000549,-0.001098,0.35000000000000003,-2.0475000000000003,-3.8675,0.9053125,-0.0164375,-0.08434375,1.1324375,0.86340625,-0.475375,-0.613125,1.09915625,0.018750989514971683,0.021483710418729842,True
35971,55705,0,55706,3487.0,41750.0,29441.0,0.003843,-0.000366,-0.001098,0.31500000000000006,-2.0125,-3.8675,0.8913125000000001,-0.010812500000000001,-0.08059375,1.1358125000000001,0.86534375,-0.47596875,-0.60603125,1.099,0.01900461038952748,0.021354012545196616,True
35972,55706,0,55707,3487.0,41749.0,29441.0,0.0006709999999999999,-6.1e-05,0.000549,0.385,-1.5225000000000002,-3.8325000000000005,0.905,-0.01934375,-0.08703125,1.13784375,0.8711875,-0.47653125,-0.61521875,1.1,0.018678606675527197,0.021457761775933844,True
35973,55707,0,55708,3484.0,41750.0,29439.0,-0.00061,-0.000549,0.000366,0.29750000000000004,-1.2950000000000002,-3.9200000000000004,0.9111875,-0.02028125,-0.08834375,1.13753125,0.8709687500000001,-0.479125,-0.6160625,1.10153125,0.01874428722431868,0.02143798383677325,True
35974,55708,0,55709,3488.0,41749.0,29439.0,-0.0008539999999999999,-0.0011589999999999999,0.0,0.17500000000000002,-1.05,-3.9725000000000006,0.91128125,-0.019625,-0.0901875,1.1391875,0.8689375,-0.476625,-0.6119375,1.0961875,0.0186708747631669,0.021199062446830935,True
35975,55709,0,55710,3485.0,41751.0,29440.0,-0.002623,-0.0006709999999999999,0.000915,0.2625,-1.0325000000000002,-3.9200000000000004,0.91278125,-0.0203125,-0.08653125,1.1274375,0.867625,-0.47440625000000003,-0.61415625,1.0820625,0.018553820891977716,0.02143583532342288,True
35976,55710,0,55711,3487.0,41749.0,29441.0,-0.0034159999999999998,-0.00061,-0.000122,0.36750000000000005,-0.9450000000000001,-3.8325000000000005,0.9006875,-0.01584375,-0.08421875,1.13096875,0.86346875,-0.47475,-0.61303125,1.09446875,0.018750191523917506,0.02148506190191426,True
35977,55711,0,55712,3488.0,41750.0,29439.0,-0.003843,0.001403,0.001281,0.29750000000000004,-1.2600000000000002,-3.8675,0.89290625,-0.0210625,-0.090625,1.14253125,0.86440625,-0.47703125,-0.6173125,1.0991875,0.018628433544202794,0.021395004024098895,True
35978,55712,0,55713,3487.0,41750.0,29442.0,-0.001586,0.0006709999999999999,0.000488,0.31500000000000006,-1.4700000000000002,-3.8325000000000005,0.8991250000000001,-0.0159375,-0.08428125,1.12921875,0.8636875,-0.475125,-0.6136875,1.09459375,0.018761395498490818,0.021508611824213663,True
35979,55713,0,55714,3486.0,41749.0,29441.0,0.0011589999999999999,0.000183,-0.000183,0.4025,-1.6800000000000002,-3.8675,0.9099375000000001,-0.02040625,-0.088875,1.142875,0.8714375,-0.47881250000000003,-0.61471875,1.097375,0.018726653917546042,0.02136298022905502,True
35980,55714,0,55715,3488.0,41748.0,29440.0,0.000915,-0.0015249999999999999,0.000244,0.36750000000000005,-1.8725000000000003,-3.8675,0.9051250000000001,-0.01659375,-0.08634375,1.13065625,0.8664375,-0.476125,-0.61421875,1.09446875,0.01877467327855206,0.021445937624975406,True
35981,55715,0,55716,3489.0,41750.0,29441.0,0.00122,0.000366,-0.000549,0.36750000000000005,-1.995,-3.9200000000000004,0.90175,-0.00940625,-0.08471875,1.12934375,0.86271875,-0.47575,-0.613375,1.09465625,0.01905329765175735,0.021478413667365814,True
35982,55716,0,55717,3489.0,41752.0,29442.0,0.0028669999999999998,0.000488,0.0006709999999999999,0.42000000000000004,-2.0650000000000004,-3.8500000000000005,0.9054375,-0.01821875,-0.08675000000000001,1.139,0.86703125,-0.47653125,-0.610625,1.1008437500000001,0.018724569070627604,0.021286537826650076,True
35983,55717,0,55718,3490.0,41752.0,29445.0,0.000488,0.000915,-0.00042699999999999997,0.3325,-2.0475000000000003,-3.8500000000000005,0.9139375000000001,-0.0196875,-0.0915625,1.13778125,0.86703125,-0.47875,-0.61340625,1.10009375,0.018753510698054435,0.021201606340040806,True
35984,55718,0,55719,3490.0,41753.0,29445.0,-0.001281,0.001769,-0.000732,0.35000000000000003,-2.1,-3.8675,0.912875,-0.02034375,-0.089,1.137375,0.863125,-0.4760625,-0.61440625,1.0934375,0.01861895678686063,0.02134547730559213,True
35985,55719,0,55720,3491.0,41751.0,29445.0,-0.000793,-0.000793,0.0015249999999999999,0.42000000000000004,-2.0650000000000004,-3.7975000000000003,0.91421875,-0.0221875,-0.0910625,1.1415625,0.8637812500000001,-0.4748125,-0.6160625,1.0991875,0.018493502248485054,0.021327537659607418,True
35986,55720,0,55721,3492.0,41751.0,29446.0,0.002989,-0.0017079999999999999,-0.000244,0.3325,-1.9775000000000003,-3.7100000000000004,0.91153125,-0.01584375,-0.0868125,1.1358125000000001,0.86809375,-0.47778125,-0.6155,1.09640625,0.018871706356146965,0.021477829010176516,True
35987,55721,0,55722,3492.0,41752.0,29447.0,0.0017079999999999999,-0.000915,-0.0006709999999999999,0.29750000000000004,-1.6275000000000002,-3.8500000000000005,0.9055625,-0.02065625,-0.08646875,1.13678125,0.86634375,-0.4755625,-0.61521875,1.09778125,0.01858614076795988,0.021480613492415136,True
35988,55722,0,55723,3494.0,41750.0,29444.0,-0.001769,0.00183,-0.001098,0.3325,-1.4700000000000002,-3.8675,0.91096875,-0.018875,-0.08596875,1.13090625,0.8649375,-0.4754375,-0.61459375,1.094875,0.018653905573700166,0.021476080627981113,True
35989,55723,0,55724,3494.0,41752.0,29450.0,-0.0032329999999999998,0.002623,0.000488,0.29750000000000004,-1.3475000000000001,-3.9375000000000004,0.89878125,-0.01653125,-0.08490625,1.13225,0.8623125,-0.47521875,-0.614,1.09634375,0.0187408948081414,0.021495642723653206,True
35990,55724,0,55725,3494.0,41753.0,29450.0,-0.00244,-0.00061,0.0015249999999999999,0.28,-1.33,-3.9025000000000003,0.90409375,-0.017781250000000002,-0.08359375000000001,1.136875,0.86353125,-0.47428125,-0.6139375,1.10353125,0.018652233147806944,0.021546481541199983,True
35991,55725,0,55726,3496.0,41752.0,29448.0,-0.0011589999999999999,-0.000976,0.000793,0.21000000000000002,-1.61,-3.9550000000000005,0.9106875,-0.01996875,-0.08896875,1.13490625,0.8763125,-0.47784375,-0.617,1.106125,0.01870569175440545,0.021449861884063854,True
35992,55726,0,55727,3497.0,41751.0,29451.0,-0.0008539999999999999,0.001098,0.0,0.3325,-1.7850000000000001,-3.8850000000000002,0.90415625,-0.0194375,-0.0846875,1.13246875,0.86809375,-0.47909375,-0.6238750000000001,1.0914062500000001,0.018777502741497528,0.021896939454086734,True
35993,55727,0,55728,3499.0,41753.0,29450.0,0.0,0.0011589999999999999,0.000732,0.22750000000000004,-1.9425000000000001,-3.8500000000000005,0.9000312500000001,-0.0171875,-0.08540625,1.1321875000000001,0.85378125,-0.4795625,-0.62334375,1.09028125,0.018888205212000825,0.021846647046057665,True
35994,55728,0,55729,3498.0,41752.0,29452.0,0.002745,0.0,-0.000183,0.4025,-2.1,-3.9025000000000003,0.90534375,-0.017843750000000002,-0.0890625,1.1321875000000001,0.87740625,-0.4871875,-0.61828125,1.1144375,0.019166911267371967,0.021496982044593386,True
35995,55729,0,55730,3501.0,41756.0,29452.0,0.004575,-0.001769,-0.000976,0.29750000000000004,-2.0825,-3.9025000000000003,0.9104375,-0.0210625,-0.08750000000000001,1.137625,0.8785000000000001,-0.4775625,-0.61521875,1.10059375,0.01864973279099992,0.021438718678866098,True
35996,55730,0,55731,3501.0,41753.0,29454.0,0.00061,-0.000183,0.000244,0.4025,-1.8900000000000001,-3.8500000000000005,0.90915625,-0.02009375,-0.08859375,1.13978125,0.86453125,-0.476625,-0.6175,1.10203125,0.01865172383856026,0.021484970041637047,True
35997,55731,0,55732,3502.0,41757.0,29456.0,-0.000244,0.0008539999999999999,-6.1e-05,0.385,-1.6625,-3.8850000000000002,0.91253125,-0.0203125,-0.08621875,1.13309375,0.86546875,-0.47253125,-0.60671875,1.08403125,0.01847862590838453,0.02115275934545316,True
35998,55732,0,55733,3503.0,41756.0,29455.0,-0.000366,0.000305,0.000122,0.35000000000000003,-1.54,-3.7800000000000002,0.90025,-0.01721875,-0.08496875,1.1318125,0.84759375,-0.4710625,-0.6111562500000001,1.08125,0.018546139956121643,0.021380039793945073,True
35999,55733,0,55734,3505.0,41756.0,29457.0,0.000183,-0.00042699999999999997,-0.000122,0.35000000000000003,-1.4525000000000001,-3.8150000000000004,0.90184375,-0.0161875,-0.0891875,1.1385625,0.8717812500000001,-0.4865,-0.611375,1.11653125,0.019207012027035304,0.021217323290551628,True
36000,55734,0,55735,3506.0,41759.0,29457.0,-0.00244,-0.000549,-0.0006709999999999999,0.35000000000000003,-1.4875,-3.8500000000000005,0.91296875,-0.0165625,-0.08565625,1.1316875,0.8755625,-0.46471875,-0.6088125,1.08653125,0.01831847137012356,0.021258898616095354,True
36001,55735,0,55736,3508.0,41759.0,29458.0,-0.002989,-0.000732,0.001403,0.385,-1.6275000000000002,-3.7975000000000003,0.9050312500000001,-0.019125,-0.08865625,1.14021875,0.86521875,-0.48259375,-0.61459375,1.1154375,0.0189305412135918,0.021366897432544465,True
36002,55736,0,55737,3510.0,41757.0,29460.0,0.000488,-0.000793,0.0011589999999999999,0.42000000000000004,-1.7675,-3.7450000000000006,0.91278125,-0.01690625,-0.0853125,1.13221875,0.86528125,-0.47078125,-0.6085625,1.08334375,0.018547630145645633,0.02126292423622875,True
36003,55737,0,55738,3513.0,41759.0,29461.0,0.0028669999999999998,0.0,-0.000305,0.2625,-1.8025000000000002,-3.7975000000000003,0.90396875,-0.0119375,-0.08603125,1.1355,0.84984375,-0.47221875,-0.61009375,1.09434375,0.01880831708404045,0.02129461615724239,True
36004,55738,0,55739,3513.0,41759.0,29462.0,0.004392,0.0015249999999999999,-0.0008539999999999999,0.385,-1.715,-3.9025000000000003,0.9125,-0.019125,-0.08612500000000001,1.13215625,0.8804062500000001,-0.48034375,-0.61046875,1.08403125,0.018840370654517463,0.021305719745789077,True
36005,55739,0,55740,3515.0,41758.0,29463.0,0.00061,0.00183,-0.0006709999999999999,0.3325,-1.7325000000000002,-3.99,0.90490625,-0.017593750000000002,-0.08803125,1.13759375,0.85446875,-0.47421875,-0.61284375,1.0950625,0.018657388195486322,0.021322708799140694,True
36006,55740,0,55741,3517.0,41762.0,29464.0,-0.001769,-0.00122,0.001403,0.1925,-1.5050000000000001,-3.8675,0.9108437500000001,-0.019125,-0.088,1.13625,0.8481875,-0.47675,-0.6145,1.09990625,0.018696313848856567,0.02138983119705865,True
36007,55741,0,55742,3518.0,41761.0,29466.0,-0.000549,-0.0018909999999999999,0.0008539999999999999,0.24500000000000002,-1.54,-3.8500000000000005,0.89915625,-0.01990625,-0.08803125,1.132875,0.87121875,-0.4723125,-0.61759375,1.10059375,0.018486452802529387,0.021511545985277297,True
36008,55742,0,55743,3519.0,41762.0,29466.0,0.00061,-0.001464,0.00042699999999999997,0.35000000000000003,-1.61,-3.9725000000000006,0.90440625,-0.016625,-0.08637500000000001,1.13478125,0.87084375,-0.4744375,-0.6143125,1.095375,0.018705741449624735,0.02144839511564664,True
36009,55743,0,55744,3520.0,41764.0,29467.0,-0.001647,0.000122,0.000122,0.35000000000000003,-1.6975000000000002,-3.9200000000000004,0.91153125,-0.017750000000000002,-0.08650000000000001,1.131375,0.8639687500000001,-0.476875,-0.61246875,1.09184375,0.018757500702193397,0.021370011896917084,True
36010,55744,0,55745,3523.0,41764.0,29468.0,-0.002013,0.001037,0.000183,0.43750000000000006,-1.8550000000000002,-3.7625,0.90671875,-0.01453125,-0.08787500000000001,1.13584375,0.8715,-0.47365625,-0.6168125,1.1016875,0.018759967669317902,0.021486839532941154,True
36011,55745,0,55746,3523.0,41767.0,29471.0,0.0030499999999999998,0.000244,-0.00042699999999999997,0.3325,-1.995,-3.8325000000000005,0.90965625,-0.017,-0.08621875,1.13334375,0.86984375,-0.4779375,-0.61775,1.102375,0.018830732777220305,0.021591382234363417,True
36012,55746,0,55747,3526.0,41765.0,29472.0,0.0048189999999999995,0.00042699999999999997,-0.002623,0.36750000000000005,-1.9250000000000003,-3.8675,0.90496875,-0.0164375,-0.08584375,1.1336875,0.86009375,-0.47590625000000003,-0.6143125,1.0948437500000001,0.01877228754297913,0.02146997808693621,True
36013,55747,0,55748,3528.0,41767.0,29470.0,0.00183,-0.000183,-0.0023179999999999997,0.43750000000000006,-1.8025000000000002,-3.8150000000000004,0.91096875,-0.01834375,-0.088625,1.13796875,0.8634375,-0.47259375000000003,-0.6141875,1.101875,0.018561579726300976,0.021352014971040587,True
36014,55748,0,55749,3529.0,41767.0,29474.0,-0.001464,0.001464,-0.0011589999999999999,0.35000000000000003,-1.4700000000000002,-3.6925000000000003,0.9098125,-0.0161875,-0.08434375,1.13275,0.86965625,-0.47759375,-0.61625,1.1013125,0.01885014739244947,0.02160793175239933,True
36015,55749,0,55750,3531.0,41768.0,29476.0,0.000366,0.000366,-0.0011589999999999999,0.35000000000000003,-1.2600000000000002,-3.6750000000000003,0.89675,-0.01571875,-0.09,1.1458125000000001,0.8667812500000001,-0.47490625000000003,-0.6145,1.0909375000000001,0.018761563182698608,0.021308578277031833,True
36016,55750,0,55751,3532.0,41768.0,29474.0,-0.0030499999999999998,-0.002562,0.0030499999999999998,0.28,-0.9975,-3.7100000000000004,0.9146875,-0.016625,-0.0853125,1.13125,0.8678125,-0.47653125,-0.617625,1.09553125,0.018789682463686515,0.021623227260956324,True
36017,55751,0,55752,3537.0,41769.0,29476.0,-0.003111,-0.002196,0.002745,0.22750000000000004,-0.8925000000000001,-3.6225000000000005,0.91725,-0.01978125,-0.08225,1.1263750000000001,0.86340625,-0.4753125,-0.6143125,1.0994375,0.018611866549201366,0.021615980539777417,True
36018,55752,0,55753,3536.0,41770.0,29475.0,-0.004148,-0.001403,0.0021349999999999997,0.1925,-1.0675000000000001,-3.6225000000000005,0.9225,-0.02090625,-0.08346875000000001,1.1276875,0.863375,-0.47528125,-0.61821875,1.10153125,0.018564648771911458,0.02172171778268889,True
36019,55753,0,55754,3536.0,41767.0,29470.0,-0.00183,0.001098,-6.1e-05,0.17500000000000002,-1.33,-3.7275000000000005,0.899625,-0.024875,-0.0926875,1.1440000000000001,0.865625,-0.47546875,-0.6151875,1.0958125,0.01841001512994516,0.021226732479693682,True
36020,55754,0,55755,3537.0,41767.0,29467.0,-0.000976,0.00042699999999999997,6.1e-05,0.15750000000000003,-1.5925000000000002,-3.8325000000000005,0.89890625,-0.014656250000000001,-0.0866875,1.1476875,0.87065625,-0.478125,-0.61421875,1.095,0.018933997191369848,0.02143197211977325,True
36021,55755,0,55756,3536.0,41762.0,29465.0,0.002745,0.001403,-0.0025009999999999998,0.35000000000000003,-2.0650000000000004,-3.7450000000000006,0.92209375,-0.02121875,-0.081875,1.12778125,0.864125,-0.47575,-0.61740625,1.1033125,0.018570677098761017,0.021754170385029904,True
36022,55756,0,55757,3534.0,41761.0,29457.0,0.0030499999999999998,0.002196,-0.001037,0.43750000000000006,-1.9600000000000002,-3.7800000000000002,0.89846875,-0.0175,-0.09071875,1.1426875,0.8715937500000001,-0.47721875,-0.6187812500000001,1.10053125,0.018781494527436864,0.021449579271922734,True
36023,55757,0,55758,3532.0,41759.0,29453.0,0.003477,6.1e-05,-0.000366,0.35000000000000003,-2.0125,-3.7275000000000005,0.91240625,-0.01371875,-0.08284375000000001,1.12684375,0.85853125,-0.4781875,-0.616625,1.10234375,0.018974801545253297,0.021683770622495976,True
36024,55758,0,55759,3529.0,41756.0,29448.0,0.0017079999999999999,0.000732,-0.00061,0.2625,-1.8725000000000003,-3.7975000000000003,0.89828125,-0.01521875,-0.08175,1.1303750000000001,0.872375,-0.47315625,-0.61359375,1.095375,0.018711828393609835,0.021607724390104555,True
36025,55759,0,55760,3526.0,41756.0,29445.0,-0.000122,-0.000549,0.0006709999999999999,0.31500000000000006,-1.8200000000000003,-3.8675,0.89971875,-0.02,-0.09378125,1.146625,0.8637812500000001,-0.47621875,-0.6147812500000001,1.0948437500000001,0.018639265920108675,0.021166143818564305,True
36026,55760,0,55761,3524.0,41755.0,29442.0,-0.0013419999999999999,-6.1e-05,0.001647,0.22750000000000004,-1.61,-3.8150000000000004,0.92309375,-0.02021875,-0.07328125,1.1239375,0.862125,-0.47625,-0.616125,1.09978125,0.01863158163525867,0.02205236404998756,True
36027,55761,0,55762,3521.0,41752.0,29438.0,-0.0017079999999999999,-0.000976,0.001403,0.31500000000000006,-1.6625,-3.8500000000000005,0.8982187500000001,-0.014937500000000001,-0.08396875000000001,1.12596875,0.87328125,-0.47853125,-0.617375,1.09784375,0.018938789474960843,0.021667876855269906,True
36028,55762,0,55763,3516.0,41749.0,29436.0,-0.0018909999999999999,0.000122,0.000915,0.3325,-1.7500000000000002,-3.7450000000000006,0.8984375,-0.015125,-0.08528125,1.13746875,0.86340625,-0.4750625,-0.6071875,1.08884375,0.018792086843496314,0.02120950433689344,True
36029,55763,0,55764,3513.0,41748.0,29436.0,-0.000915,-6.1e-05,-0.000549,0.2625,-1.7500000000000002,-3.7800000000000002,0.91153125,-0.0196875,-0.08996875,1.13653125,0.86284375,-0.47553125,-0.61525,1.09546875,0.01862446805929902,0.021339667482556543,True
36030,55764,0,55765,3511.0,41748.0,29433.0,0.000976,0.00061,-0.000793,0.22750000000000004,-1.715,-3.8500000000000005,0.91090625,-0.0195,-0.08925,1.1404375,0.86509375,-0.471875,-0.61528125,1.09709375,0.018485506321031794,0.021370109269013532,True
36031,55765,0,55766,3510.0,41747.0,29431.0,0.001403,-0.0013419999999999999,-0.00244,0.31500000000000006,-1.7500000000000002,-3.7975000000000003,0.91321875,-0.020125,-0.08775000000000001,1.132875,0.86734375,-0.47590625000000003,-0.6189687500000001,1.1021875,0.018621629178694865,0.02157761989929006,True
36032,55766,0,55767,3508.0,41744.0,29429.0,0.00042699999999999997,-0.000549,-0.002928,0.35000000000000003,-1.6275000000000002,-3.7450000000000006,0.9111250000000001,-0.0156875,-0.08528125,1.1321875000000001,0.872,-0.47721875,-0.61721875,1.09975,0.01885554297299402,0.02160835086213791,True
36033,55767,0,55768,3509.0,41745.0,29429.0,-0.001037,6.1e-05,6.1e-05,0.385,-1.6450000000000002,-3.7625,0.90428125,-0.017,-0.08621875,1.13203125,0.8673125,-0.47550000000000003,-0.6145625,1.0955625,0.018733018733018733,0.021464681730581234,True
36034,55768,0,55769,3505.0,41745.0,29429.0,-0.001647,-0.00042699999999999997,0.000183,0.31500000000000006,-1.6800000000000002,-3.7625,0.90546875,-0.0169375,-0.084625,1.1369375,0.863625,-0.47575,-0.615625,1.0885625,0.018745595129873446,0.021571664339215434,True
36035,55769,0,55770,3505.0,41743.0,29428.0,0.001464,-0.0006709999999999999,0.002196,0.2625,-1.6450000000000002,-3.7450000000000006,0.9108125,-0.0154375,-0.08700000000000001,1.137875,0.8639687500000001,-0.47596875,-0.61915625,1.0990625,0.018815649533790158,0.021615535666458918,True
36036,55770,0,55771,3505.0,41742.0,29426.0,-0.000976,0.00042699999999999997,0.00042699999999999997,0.22750000000000004,-1.6975000000000002,-3.7800000000000002,0.91115625,-0.01625,-0.0855625,1.1334375,0.8705,-0.47784375,-0.615125,1.0999375,0.018857614858334898,0.021513703464841234,True
36037,55771,0,55772,3504.0,41743.0,29428.0,-0.0028669999999999998,0.001586,-0.000976,0.31500000000000006,-1.7850000000000001,-3.7975000000000003,0.90528125,-0.01640625,-0.08353125,1.13221875,0.8695625,-0.47825,-0.61575,1.09403125,0.01886751503886103,0.021621065781054813,True
36038,55772,0,55773,3503.0,41744.0,29430.0,-0.001281,0.001037,-0.000305,0.31500000000000006,-1.7325000000000002,-3.7625,0.8915937500000001,-0.016875,-0.08609375,1.13396875,0.864125,-0.47484375,-0.61546875,1.09403125,0.018711815065213643,0.021505785868895955,True
36039,55773,0,55774,3504.0,41743.0,29429.0,0.001769,0.0,-0.002623,0.2625,-1.8200000000000003,-3.6750000000000003,0.9071875,-0.01834375,-0.08915625,1.14115625,0.8638750000000001,-0.47571875,-0.613375,1.09584375,0.01868688738711708,0.021298125511028047,True
36040,55774,0,55775,3503.0,41745.0,29431.0,0.00366,0.000122,6.1e-05,0.35000000000000003,-1.8025000000000002,-3.6925000000000003,0.912,-0.01825,-0.085125,1.13965625,0.867,-0.4765625,-0.61675,1.10165625,0.01872454516437919,0.021596067718118762,True
36041,55775,0,55776,3504.0,41744.0,29431.0,-0.0011589999999999999,-0.000244,0.000488,0.28,-1.5050000000000001,-3.8500000000000005,0.90653125,-0.0195625,-0.0883125,1.13684375,0.86915625,-0.47940625000000003,-0.62,1.09615625,0.018784922530545447,0.02159575548334687,True
36042,55776,0,55777,3505.0,41743.0,29431.0,-0.0023179999999999997,0.001037,0.0017079999999999999,0.21000000000000002,-1.33,-3.7450000000000006,0.90559375,-0.016,-0.08634375,1.131375,0.87175,-0.47815625,-0.60928125,1.0952187500000001,0.018880353784815798,0.02124960476039909,True
36043,55777,0,55778,3504.0,41743.0,29429.0,-0.002623,-0.00042699999999999997,0.000915,0.2625,-1.4525000000000001,-3.6750000000000003,0.9111250000000001,-0.021937500000000002,-0.08859375,1.136625,0.86403125,-0.47709375,-0.6188750000000001,1.1026562500000001,0.018595191677933578,0.021539621530228332,True
36044,55778,0,55779,3504.0,41746.0,29430.0,-0.001586,-0.0017079999999999999,0.00183,0.2625,-1.5750000000000002,-3.7275000000000005,0.90740625,-0.0169375,-0.085875,1.13165625,0.8716875000000001,-0.477375,-0.6158750000000001,1.0854062500000001,0.018810738488093597,0.021530821065674083,True
36045,55779,0,55780,3505.0,41745.0,29433.0,-0.000244,-0.00183,0.001098,0.28,-1.6625,-3.8150000000000004,0.9042187500000001,-0.01746875,-0.0878125,1.132875,0.86371875,-0.47475,-0.61615625,1.09953125,0.018683796565848478,0.02146329201984977,True
36046,55780,0,55781,3506.0,41745.0,29431.0,0.000183,0.0013419999999999999,-0.00061,0.36750000000000005,-1.8900000000000001,-3.9025000000000003,0.9054375,-0.01634375,-0.08662500000000001,1.13084375,0.8684375,-0.4750625,-0.60990625,1.09315625,0.018742291260747546,0.021263033051984907,True
36047,55781,0,55782,3507.0,41743.0,29432.0,0.000549,0.0015249999999999999,-0.0008539999999999999,0.4025,-1.8725000000000003,-3.8850000000000002,0.907375,-0.017375,-0.08890625,1.13496875,0.86375,-0.47521875,-0.61690625,1.10071875,0.018706421163242924,0.021448674120047074,True
36048,55782,0,55783,3510.0,41743.0,29430.0,0.001769,0.001403,-0.000549,0.35000000000000003,-1.8200000000000003,-3.8500000000000005,0.9075,-0.01628125,-0.08637500000000001,1.1320625,0.8689375,-0.4749375,-0.6178125,1.09403125,0.018739833349931945,0.02158751919976643,True
36049,55783,0,55784,3508.0,41747.0,29432.0,0.000976,0.000732,-0.000122,0.2625,-1.7675,-3.8500000000000005,0.905625,-0.016375,-0.08578125,1.1315,0.8636875,-0.4745625,-0.61503125,1.0931250000000001,0.01872096794375793,0.021501089908224268,True
36050,55784,0,55785,3508.0,41742.0,29427.0,0.00042699999999999997,-0.000244,0.000793,0.28,-1.7675,-3.8325000000000005,0.905625,-0.01584375,-0.0866875,1.13203125,0.86346875,-0.47571875,-0.61565625,1.08934375,0.018789029433507444,0.02148911833297152,True
36051,55785,0,55786,3509.0,41744.0,29429.0,-0.001281,-0.000366,0.00042699999999999997,0.22750000000000004,-1.5225000000000002,-3.6925000000000003,0.90565625,-0.01346875,-0.0863125,1.13278125,0.8640625000000001,-0.47515625,-0.6158750000000001,1.09315625,0.018863515937717457,0.021513047982247232,True
36052,55786,0,55787,3510.0,41743.0,29432.0,-0.00061,-0.001464,0.000183,0.29750000000000004,-1.5750000000000002,-3.6925000000000003,0.9076875,-0.0166875,-0.08828125,1.13203125,0.8643125,-0.4759375,-0.61934375,1.09890625,0.018763326226012792,0.021570944595141778,True
36053,55787,0,55788,3510.0,41744.0,29430.0,0.000244,-0.001098,-0.000732,0.35000000000000003,-1.5225000000000002,-3.7625,0.90546875,-0.01665625,-0.08740625,1.13478125,0.855125,-0.47068750000000004,-0.61640625,1.09690625,0.018554086394180793,0.021489733092132406,True
36054,55788,0,55789,3510.0,41744.0,29432.0,-0.001037,-0.00061,-0.0006709999999999999,0.36750000000000005,-1.4700000000000002,-3.8325000000000005,0.911375,-0.0163125,-0.0855,1.131375,0.8765937500000001,-0.4714375,-0.61909375,1.0935625,0.01859821271226915,0.02167398018052553,True
36055,55789,0,55790,3512.0,41746.0,29431.0,-0.001464,0.000305,-0.00042699999999999997,0.2625,-1.61,-3.7975000000000003,0.89296875,-0.01628125,-0.0861875,1.131875,0.8610625000000001,-0.474125,-0.61421875,1.09053125,0.018707257154239425,0.021452285581885472,True
36056,55790,0,55791,3512.0,41746.0,29431.0,-0.0013419999999999999,0.001769,0.000732,0.36750000000000005,-1.7500000000000002,-3.8500000000000005,0.900625,-0.01678125,-0.08787500000000001,1.133625,0.8615,-0.47453125,-0.61525,1.089,0.01870311612198906,0.02142472654147327,True
36057,55791,0,55792,3512.0,41745.0,29433.0,6.1e-05,0.00122,-0.000366,0.28,-1.7675,-3.7975000000000003,0.92596875,-0.01628125,-0.08515625,1.12034375,0.8717812500000001,-0.48025,-0.6189375,1.1009375000000001,0.01895277826002594,0.02168173382787133,True
36058,55792,0,55793,3514.0,41745.0,29434.0,0.001037,-0.000793,-0.000244,0.3325,-1.8725000000000003,-3.7100000000000004,0.89834375,-0.01509375,-0.08496875,1.1203125,0.8668750000000001,-0.47365625,-0.6137812500000001,1.08371875,0.018736983772091674,0.021484407236291664,True
36059,55793,0,55794,3515.0,41747.0,29433.0,-0.000305,-0.00042699999999999997,0.00061,0.385,-1.9600000000000002,-3.7625,0.89253125,-0.0130625,-0.08384375000000001,1.1211875,0.86865625,-0.47900000000000004,-0.61403125,1.09115625,0.01903417214755505,0.0215400514696267,True
36060,55794,0,55795,3514.0,41745.0,29436.0,0.003111,0.000976,-6.1e-05,0.28,-2.1700000000000004,-3.7450000000000006,0.89215625,-0.01259375,-0.0820625,1.113875,0.87171875,-0.47300000000000003,-0.61865625,1.0971250000000001,0.018812824337024477,0.021796224154192006,True
36061,55795,0,55796,3516.0,41748.0,29437.0,0.001464,-0.000488,0.00042699999999999997,0.45500000000000007,-2.0825,-3.8325000000000005,0.89209375,-0.012812500000000001,-0.079125,1.12365625,0.86446875,-0.4719375,-0.60653125,1.0895,0.018761285247643346,0.02143358788126628,True
36062,55796,0,55797,3516.0,41750.0,29439.0,0.000244,0.001281,-0.000366,0.43750000000000006,-1.8900000000000001,-3.7275000000000005,0.90034375,-0.013875,-0.0825,1.12175,0.8612500000000001,-0.4743125,-0.61425,1.093625,0.018813092298302556,0.021603339528931412,True
36063,55797,0,55798,3519.0,41749.0,29439.0,-0.000488,0.000793,0.000183,0.47250000000000003,-1.8025000000000002,-3.7275000000000005,0.88675,-0.01171875,-0.082375,1.1262812500000001,0.8730625,-0.47771875,-0.61734375,1.09534375,0.01903772180567276,0.02173137587193988,True
36064,55798,0,55799,3519.0,41750.0,29441.0,-0.000549,-0.000366,0.000305,0.3325,-1.6975000000000002,-3.6925000000000003,0.9041250000000001,-0.0171875,-0.08121875,1.12309375,0.87315625,-0.47734375,-0.6188125,1.09771875,0.01879927228623408,0.021836705161956935,True
36065,55799,0,55800,3521.0,41749.0,29438.0,-0.000366,-0.0011589999999999999,-0.000122,0.42000000000000004,-1.5050000000000001,-3.7975000000000003,0.91034375,-0.024,-0.0904375,1.1515625,0.8707812500000001,-0.47650000000000003,-0.6211875,1.09934375,0.018487120299062364,0.021556636941252327,True
36066,55800,0,55801,3521.0,41748.0,29442.0,-0.001647,-0.000549,-0.000122,0.31500000000000006,-1.5750000000000002,-3.6400000000000006,0.9207500000000001,-0.0206875,-0.09703125,1.14809375,0.8685625,-0.475875,-0.61559375,1.09309375,0.018597394373030585,0.021066422580198783,True
36067,55801,0,55802,3524.0,41749.0,29443.0,-0.0008539999999999999,-0.000976,-0.000305,0.22750000000000004,-1.6450000000000002,-3.6750000000000003,0.92578125,-0.0243125,-0.08940625,1.129,0.86428125,-0.4750625,-0.61625,1.09253125,0.01841670475815945,0.02140227492002234,True
36068,55802,0,55803,3526.0,41752.0,29445.0,0.000244,-0.001464,-0.000549,0.2625,-1.6800000000000002,-3.7450000000000006,0.89759375,-0.0139375,-0.08253125,1.122,0.8638750000000001,-0.4750625,-0.61665625,1.0920625,0.01884060561643101,0.02169770721805485,True
36069,55803,0,55804,3527.0,41751.0,29443.0,0.001464,-6.1e-05,0.00122,0.22750000000000004,-1.54,-3.7450000000000006,0.89284375,-0.015375,-0.08303125,1.132875,0.863625,-0.4781875,-0.61815625,1.10071875,0.018907139264293975,0.021737005589116773,True
36070,55804,0,55805,3529.0,41752.0,29444.0,0.000488,0.0006709999999999999,0.000488,0.15750000000000003,-1.4875,-3.7975000000000003,0.9084375,-0.0116875,-0.08803125,1.1378125000000001,0.87053125,-0.46975,-0.61875,1.09765625,0.018719541474677918,0.02155750190403656,True
36071,55805,0,55806,3530.0,41753.0,29446.0,-0.0008539999999999999,0.001952,0.000366,0.24500000000000002,-1.3650000000000002,-3.6750000000000003,0.91296875,-0.01890625,-0.0895,1.13759375,0.863625,-0.47709375,-0.61915625,1.0983125,0.01871903195206743,0.021513988725750905,True
36072,55806,0,55807,3531.0,41756.0,29449.0,-0.0018909999999999999,0.001403,0.000122,0.2625,-1.4700000000000002,-3.7800000000000002,0.91034375,-0.01815625,-0.08896875,1.1389375,0.87203125,-0.4764375,-0.6185625,1.09803125,0.018723364051651717,0.02151196886495708,True
36073,55807,0,55808,3535.0,41755.0,29448.0,-0.00061,0.00042699999999999997,0.0,0.21000000000000002,-1.4525000000000001,-3.7100000000000004,0.908875,-0.02009375,-0.09065625000000001,1.137125,0.87315625,-0.4729375,-0.6198125,1.09778125,0.018503857577375007,0.02149310641581856,True
36074,55808,0,55809,3535.0,41756.0,29449.0,0.000305,-0.000488,0.0,0.07,-1.5050000000000001,-3.7625,0.91178125,-0.01828125,-0.0855625,1.13478125,0.87153125,-0.47765625,-0.6193125,1.09634375,0.01876711541775982,0.021680134244203612,True
36075,55809,0,55810,3537.0,41759.0,29452.0,0.0,-0.000793,-0.000976,0.29750000000000004,-1.5925000000000002,-3.6575,0.90659375,-0.016625,-0.08737500000000001,1.13184375,0.86684375,-0.4750625,-0.61684375,1.09203125,0.018730799972420907,0.021508393008344135,True
36076,55810,0,55811,3540.0,41760.0,29452.0,0.0,-0.000183,-0.000366,0.12250000000000001,-1.61,-3.6750000000000003,0.90525,-0.0155625,-0.08612500000000001,1.12565625,0.864375,-0.475125,-0.615125,1.09975,0.01877671717713393,0.021490851661326117,True
36077,55811,0,55812,3541.0,41760.0,29454.0,-6.1e-05,-0.000244,-0.0006709999999999999,0.12250000000000001,-1.4700000000000002,-3.6400000000000006,0.91321875,-0.01909375,-0.0890625,1.12984375,0.8629687500000001,-0.4761875,-0.62015625,1.10034375,0.018675038749396734,0.021571502008643828,True
36078,55812,0,55813,3544.0,41764.0,29455.0,0.001037,-0.00122,-0.000183,0.21000000000000002,-1.5050000000000001,-3.6925000000000003,0.9146875,-0.01965625,-0.08634375,1.13128125,0.87121875,-0.47521875,-0.6160625,1.08346875,0.018613214641850753,0.021519231599286037,True
36079,55813,0,55814,3546.0,41765.0,29457.0,0.001647,-0.000183,0.0,0.21000000000000002,-1.435,-3.8150000000000004,0.9058125,-0.01609375,-0.0870625,1.13175,0.85590625,-0.47378125,-0.61615625,1.0908125,0.018701135526411554,0.021493759814755806,True
36080,55814,0,55815,3548.0,41767.0,29460.0,-0.0026839999999999998,0.000122,0.000793,0.31500000000000006,-1.4175000000000002,-3.8500000000000005,0.91278125,-0.01825,-0.08996875,1.1376875,0.8713125,-0.47775,-0.6199375,1.094,0.018772150218055172,0.021525998999794373,True
36081,55815,0,55816,3551.0,41766.0,29460.0,-0.0021349999999999997,0.000366,0.002074,0.36750000000000005,-1.5225000000000002,-3.7450000000000006,0.91415625,-0.017812500000000002,-0.0880625,1.13603125,0.872375,-0.4761875,-0.6189687500000001,1.09784375,0.01872738554564513,0.02156492643502787,True
36082,55816,0,55817,3553.0,41768.0,29463.0,-0.0006709999999999999,0.0008539999999999999,0.002074,0.29750000000000004,-1.6625,-3.7625,0.9128437500000001,-0.019875,-0.0863125,1.1375625,0.8695625,-0.47800000000000004,-0.6169687500000001,1.1005,0.018715785603398972,0.02155652287611569,True
36083,55817,0,55818,3557.0,41769.0,29465.0,0.000976,-6.1e-05,-6.1e-05,0.28,-1.8375000000000001,-3.7100000000000004,0.9080625,-0.015375,-0.08621875,1.1313125,0.86846875,-0.46918750000000004,-0.61609375,1.09440625,0.018546283974488327,0.02152555175412427,True
