frame_seq,absolute_seq_u64,segment_id,sample_seq,PPG_G,PPG_R,PPG_IR,ACC_X,ACC_Y,ACC_Z,GYRO_X,GYRO_Y,GYRO_Z,Uh1,Uh2,Uh3,Uh4,Uc1,Uc2,Uc3,Uc4,UD1,UD2,parser_valid
40184,140466,0,140467,3260.0,38454.0,27742.0,0.001281,0.000915,-0.0021349999999999997,0.5425000000000001,-1.4875,-3.9725000000000006,1.00878125,0.04059375,-0.5896250000000001,1.19053125,0.96265625,-0.39175,-1.3035,1.15321875,0.01772499923129747,0.028212500247001403,True
40185,140467,0,140468,3260.0,38454.0,27742.0,-0.0006709999999999999,-0.0006709999999999999,0.000183,0.29750000000000004,-1.1725,-3.8850000000000002,1.00878125,0.035750000000000004,-0.5895312500000001,1.1908125,0.9594375,-0.39237500000000003,-1.3035625,1.1566875,0.01755159142969883,0.028218605581723916,True
40186,140468,0,140469,3260.0,38452.0,27744.0,-0.001098,-0.003721,0.001769,0.15750000000000003,-0.9625000000000001,-3.8325000000000005,1.00884375,0.0365625,-0.58975,1.19184375,0.9618125000000001,-0.39340625,-1.3066875,1.1496250000000001,0.017626433372748013,0.028329962188848305,True
40187,140469,0,140470,3259.0,38456.0,27744.0,-0.00183,-0.00366,0.0028669999999999998,0.14,-0.7875000000000001,-3.9375000000000004,1.0095,0.03584375,-0.5895625,1.191,0.9637187500000001,-0.3934375,-1.3059375,1.167375,0.017598226982154522,0.028308573827782513,True
40188,140470,0,140471,3261.0,38451.0,27743.0,-0.001098,-0.000915,0.001281,0.08750000000000001,-0.6300000000000001,-4.2,1.00946875,0.035750000000000004,-0.5898125,1.1969375,0.9740625,-0.39459375,-1.30521875,1.15684375,0.017640947597251953,0.02827109526567519,True
40189,140471,0,140472,3260.0,38451.0,27743.0,0.000915,-6.1e-05,-0.000122,0.17500000000000002,-0.5950000000000001,-4.0425,1.01734375,0.032125,-0.5876250000000001,1.2075,0.95703125,-0.39059375,-1.30096875,1.15221875,0.017331220155310897,0.028194325563126905,True
40190,140472,0,140473,3261.0,38451.0,27744.0,0.00183,-0.0006709999999999999,-0.000732,0.21000000000000002,-0.56,-4.0600000000000005,1.02734375,0.029343750000000002,-0.601625,1.20109375,0.9565625,-0.39115625,-1.30003125,1.1515,0.017239855121669354,0.027604956021546417,True
40191,140473,0,140474,3260.0,38451.0,27742.0,0.0018909999999999999,-0.000793,-0.0013419999999999999,0.29750000000000004,-0.15750000000000003,-4.1475,0.992625,0.0376875,-0.5943125,1.21278125,0.9565,-0.3903125,-1.3079375,1.16421875,0.017547950646388807,0.028197675136506083,True
40192,140474,0,140475,3261.0,38452.0,27742.0,0.002989,0.002562,-0.0025009999999999998,0.35000000000000003,0.08750000000000001,-4.077500000000001,0.99325,0.0395625,-0.5939375,1.21078125,0.956375,-0.39090625,-1.3068125,1.152625,0.017648739476418592,0.028169292359517817,True
40193,140475,0,140476,3261.0,38451.0,27746.0,0.00042699999999999997,0.003355,-0.002257,0.45500000000000007,0.5075000000000001,-4.2175,1.02865625,0.031406250000000004,-0.5816250000000001,1.1796875,0.96609375,-0.39065625,-1.301,1.15159375,0.017304269949686164,0.02843267064542903,True
40194,140476,0,140477,3261.0,38452.0,27747.0,-0.002196,0.002013,0.000915,0.49000000000000005,0.9975,-4.1825,1.00025,0.026125,-0.59690625,1.19203125,0.96096875,-0.39090625,-1.30553125,1.152625,0.017097816937408795,0.028002771133287314,True
40195,140477,0,140478,3261.0,38455.0,27745.0,-0.0035989999999999998,0.00042699999999999997,0.0018909999999999999,0.385,1.0325000000000002,-4.1475,0.9957812500000001,0.03625,-0.58840625,1.20528125,0.94634375,-0.3853125,-1.3061875,1.164375,0.01728755782809837,0.028363863580794225,True
40196,140478,0,140479,3261.0,38455.0,27746.0,-0.004026,0.001037,0.00122,0.385,0.9100000000000001,-4.4275,1.0303437500000001,0.03334375,-0.5851875,1.18703125,0.962875,-0.3906875,-1.30059375,1.16209375,0.017384965060947957,0.028276263279394382,True
40197,140479,0,140480,3261.0,38456.0,27745.0,-0.001098,0.0032329999999999998,-0.002379,0.47250000000000003,0.07,-4.6025,1.03146875,0.03071875,-0.58321875,1.18215625,0.95653125,-0.3898125,-1.3005,1.15784375,0.017242086219400005,0.02835047726329519,True
40198,140480,0,140481,3262.0,38456.0,27745.0,-0.00122,0.002989,-0.001037,0.5950000000000001,0.07,-4.6375,1.0263125,0.036125,-0.5875625,1.1939375,0.96459375,-0.3901875,-1.30134375,1.15509375,0.01747885291984738,0.028211199256956462,True
40199,140481,0,140482,3263.0,38452.0,27747.0,-0.001403,0.00122,-0.000183,0.49000000000000005,0.1925,-4.6725,1.036125,0.0345625,-0.57975,1.1795,0.9671875,-0.38621875,-1.30140625,1.15428125,0.01725487884422426,0.028522377091194293,True
40200,140482,0,140483,3263.0,38456.0,27748.0,-0.0021349999999999997,0.000183,0.00122,0.42000000000000004,0.3325,-4.7075000000000005,1.00084375,0.03496875,-0.59590625,1.20428125,0.95909375,-0.39496875000000004,-1.3039687500000001,1.1460000000000001,0.017624023396217714,0.027982270567734564,True
40201,140483,0,140484,3264.0,38457.0,27747.0,-0.003843,-0.000915,0.003111,0.3325,0.29750000000000004,-4.760000000000001,1.00503125,0.03884375,-0.58728125,1.2010625,0.9591875,-0.391625,-1.3051875,1.1561875,0.017648219419575367,0.028369924150927553,True
40202,140484,0,140485,3266.0,38455.0,27748.0,-0.002196,-0.000976,0.003355,0.29750000000000004,-0.7000000000000001,-4.6025,1.0167187500000001,0.03521875,-0.5884375000000001,1.18828125,0.96465625,-0.3913125,-1.2981875,1.14225,0.017487015100150924,0.028055369579342394,True
40203,140485,0,140486,3263.0,38458.0,27751.0,6.1e-05,-0.001952,0.002074,0.14,-1.1375000000000002,-4.655,1.0050625,0.035437500000000004,-0.5911875,1.19884375,0.9676875,-0.39315625,-1.3041562500000001,1.154375,0.017570245752843074,0.028175954296045743,True
40204,140486,0,140487,3264.0,38460.0,27750.0,-0.0006709999999999999,-0.001769,-0.000976,0.17500000000000002,-1.61,-4.62,1.01665625,0.034125,-0.5884375000000001,1.19121875,0.95975,-0.38809375,-1.3019687500000001,1.1604375,0.017312494954633346,0.02820062174015609,True
40205,140487,0,140488,3265.0,38458.0,27751.0,-0.002257,-0.0030499999999999998,-0.002745,0.07,-1.7500000000000002,-4.532500000000001,1.01275,0.033375,-0.58809375,1.191875,0.9653125,-0.391125,-1.302,1.15909375,0.017403871285149825,0.028215407872895427,True
40206,140488,0,140489,3266.0,38459.0,27750.0,-0.0040869999999999995,-0.0023179999999999997,-0.000244,0.10500000000000001,-1.9775000000000003,-4.357500000000001,1.0081875,0.034625,-0.59171875,1.18609375,0.9660625,-0.38934375,-1.2986875,1.15446875,0.017383360304641243,0.02794487856336421,True
40207,140489,0,140490,3266.0,38461.0,27750.0,-0.0008539999999999999,-0.0021349999999999997,-6.1e-05,0.12250000000000001,-2.8175000000000003,-4.095000000000001,1.00871875,0.0361875,-0.5878125,1.198,0.957875,-0.39515625,-1.303625,1.1541875,0.017681532578829044,0.028288930933808895,True
40208,140490,0,140491,3267.0,38462.0,27752.0,-0.000183,-0.000732,-0.000244,0.15750000000000003,-3.3075,-4.0600000000000005,1.01278125,0.03621875,-0.58978125,1.1991875,0.9539062500000001,-0.39234375,-1.305,1.1549375,0.017569549871565747,0.028263930053349137,True
40209,140491,0,140492,3265.0,38462.0,27752.0,0.00122,0.000793,-0.003172,0.22750000000000004,-3.6400000000000006,-3.99,1.008625,0.03625,-0.59071875,1.198125,0.95959375,-0.39490625,-1.3022500000000001,1.15475,0.01767402774913308,0.028121263919216676,True
40210,140492,0,140493,3268.0,38465.0,27753.0,0.0018909999999999999,0.002196,-0.000976,0.28,-3.7800000000000002,-3.7975000000000003,1.00853125,0.03596875,-0.58909375,1.1915,0.9589062500000001,-0.39234375,-1.3056875000000001,1.15253125,0.017559300753950714,0.028317497795703046,True
40211,140493,0,140494,3268.0,38465.0,27751.0,0.0013419999999999999,-0.000244,0.0028669999999999998,0.2625,-3.99,-3.5875000000000004,1.008625,0.035875000000000004,-0.589375,1.19234375,0.9539375,-0.38978125,-1.30409375,1.1559062500000001,0.017452237297126232,0.028245182659426406,True
40212,140494,0,140495,3268.0,38463.0,27752.0,0.0034159999999999998,-0.0008539999999999999,0.003294,0.15750000000000003,-4.62,-3.4825000000000004,1.006125,0.035812500000000004,-0.5869375,1.19778125,0.95928125,-0.39065625,-1.30303125,1.161125,0.017484923145518073,0.028300710018686004,True
40213,140495,0,140496,3268.0,38462.0,27751.0,0.005978,-0.001037,0.00042699999999999997,0.22750000000000004,-5.075,-3.3950000000000005,1.0159375,0.03621875,-0.58815625,1.19171875,0.95865625,-0.387625,-1.3025625,1.16284375,0.01737945986950349,0.02823454146195667,True
40214,140496,0,140497,3269.0,38465.0,27753.0,0.008296,-0.000183,-0.000183,0.5425000000000001,-5.2675,-3.3075,1.00803125,0.0323125,-0.58765625,1.1974375,0.9655,-0.39115625,-1.301625,1.154625,0.01736156931879767,0.028218296255675276,True
40215,140497,0,140498,3270.0,38462.0,27752.0,0.008723,0.00244,-0.0018909999999999999,0.5950000000000001,-5.3025,-3.4825000000000004,1.0095,0.03484375,-0.5896250000000001,1.1966875000000001,0.9569375,-0.39034375,-1.2993125,1.1594375000000001,0.017432616135227695,0.02805165160120458,True
40216,140498,0,140499,3271.0,38461.0,27749.0,0.007137,0.0015249999999999999,-0.0046359999999999995,0.6475000000000001,-5.075,-3.3950000000000005,1.0170625,0.03675,-0.58834375,1.19175,0.9595312500000001,-0.3911875,-1.302375,1.15515625,0.01754475873714636,0.028219929947287555,True
40217,140499,0,140500,3271.0,38460.0,27746.0,0.002806,-0.000549,-0.0028669999999999998,0.42000000000000004,-4.322500000000001,-3.5000000000000004,1.0086875,0.03571875,-0.5926875,1.19753125,0.96703125,-0.39175,-1.30121875,1.15065625,0.01752513657281663,0.028003838747886405,True
40218,140500,0,140501,3268.0,38458.0,27744.0,0.00122,-0.001037,-0.003111,0.43750000000000006,-3.9200000000000004,-3.5525,1.0088125000000001,0.03584375,-0.59275,1.1985937500000001,0.9590000000000001,-0.39290625,-1.3045,1.1545,0.017576831378999788,0.028127408168507576,True
40219,140501,0,140502,3269.0,38459.0,27741.0,-0.001464,0.0006709999999999999,-0.001037,0.49000000000000005,-3.5175000000000005,-3.6225000000000005,1.010125,0.035687500000000004,-0.5895625,1.19784375,0.95915625,-0.3920625,-1.30421875,1.15659375,0.01753644243901064,0.028242573187524312,True
40220,140502,0,140503,3269.0,38457.0,27739.0,-0.003477,0.0023179999999999997,0.00061,0.6125,-3.2900000000000005,-3.6050000000000004,1.01625,0.035687500000000004,-0.5890625,1.1909687500000001,0.95928125,-0.3908125,-1.30284375,1.1589375,0.017486092355471963,0.02820952684419118,True
40221,140503,0,140504,3267.0,38456.0,27737.0,-0.0025009999999999998,0.003843,0.0025009999999999998,0.56,-3.1850000000000005,-3.7450000000000006,1.01134375,0.031781250000000004,-0.59221875,1.19721875,0.9635625,-0.39171875,-1.30159375,1.15465625,0.01736245011434465,0.028036771399034897,True
40222,140504,0,140505,3269.0,38455.0,27737.0,-0.002196,-0.000915,0.0060999999999999995,0.1925,-2.765,-3.5175000000000005,1.00828125,0.03584375,-0.58925,1.1924062500000001,0.9589062500000001,-0.3938125,-1.3045,1.1611875,0.01761332919977146,0.028265723487917165,True
40223,140505,0,140506,3267.0,38456.0,27736.0,-0.002196,-0.003477,0.0044529999999999995,0.0,-2.6775,-3.535,1.01646875,0.03371875,-0.5885625,1.1923125,0.9580000000000001,-0.39165625,-1.30265625,1.1608125,0.01743936515176168,0.028222086366920474,True
40224,140506,0,140507,3266.0,38457.0,27735.0,-0.002928,-0.002013,0.0015249999999999999,-0.12250000000000001,-2.66,-3.5000000000000004,1.0170625,0.0349375,-0.58921875,1.19103125,0.96196875,-0.39134375,-1.30175,1.16771875,0.017476743158113213,0.0281613425948798,True
40225,140507,0,140508,3265.0,38456.0,27734.0,-0.001464,-0.0006709999999999999,-0.001037,0.0175,-2.7300000000000004,-3.4650000000000003,1.01740625,0.03640625,-0.58915625,1.1975625,0.96003125,-0.386875,-1.31040625,1.15434375,0.017356928675773344,0.028496184252277654,True
40226,140508,0,140509,3263.0,38457.0,27734.0,-0.000793,0.000549,-0.003111,0.08750000000000001,-2.7825,-3.5000000000000004,1.0076875,0.03640625,-0.58534375,1.19378125,0.9577187500000001,-0.39387500000000003,-1.30821875,1.15746875,0.01763890525797972,0.028562855692876445,True
40227,140509,0,140510,3262.0,38455.0,27734.0,0.001403,-0.0011589999999999999,-0.004941,0.035,-2.7825,-3.7275000000000005,1.0149375,0.0331875,-0.589125,1.1925000000000001,0.95203125,-0.38953125,-1.30290625,1.16653125,0.01733197516864946,0.02820945716462906,True
40228,140510,0,140511,3263.0,38456.0,27735.0,0.001952,-0.002623,-0.00366,0.15750000000000003,-2.7825,-3.8850000000000002,1.00446875,0.0335,-0.586,1.19128125,0.96165625,-0.38925,-1.2983437500000001,1.15396875,0.017333456338345786,0.028157722775824016,True
40229,140511,0,140512,3262.0,38457.0,27737.0,0.0042699999999999995,-0.002013,-0.00122,0.35000000000000003,-2.9050000000000002,-4.0425,1.008125,0.0335,-0.588,1.19084375,0.969125,-0.388625,-1.3015,1.1676250000000001,0.017308273836675908,0.02819990909629864,True
40230,140512,0,140513,3264.0,38456.0,27735.0,0.0070149999999999995,0.001037,-0.001098,0.5425000000000001,-2.7825,-4.2175,1.01528125,0.03740625,-0.5886875,1.1983125000000001,0.9530000000000001,-0.39109375,-1.30584375,1.1395,0.01756788786890707,0.02833955101773676,True
40231,140513,0,140514,3261.0,38457.0,27737.0,0.008905999999999999,0.003965,-0.001952,0.6125,-2.6075000000000004,-4.375,1.008875,0.035375000000000004,-0.592,1.19090625,0.94534375,-0.39840625,-1.29375,1.1526875,0.017779081369300506,0.027744007907091674,True
40232,140514,0,140515,3261.0,38456.0,27738.0,0.004331,0.0011589999999999999,0.000366,0.56,-0.9800000000000001,-4.41,1.008625,0.03403125,-0.5879375,1.1975625,0.97375,-0.38959375,-1.30703125,1.157375,0.017369087994751863,0.028414780971197484,True
40233,140515,0,140516,3263.0,38456.0,27737.0,0.0018909999999999999,0.000793,0.0008539999999999999,0.36750000000000005,-0.28,-4.515000000000001,1.00825,0.039593750000000004,-0.5899375,1.19134375,0.9579062500000001,-0.3978125,-1.29734375,1.1500000000000001,0.017928092938659972,0.02796365725156421,True
40234,140516,0,140517,3261.0,38456.0,27739.0,-0.0023179999999999997,-0.00122,0.001037,0.24500000000000002,0.28,-4.742500000000001,1.0086875,0.0331875,-0.58821875,1.191375,0.97696875,-0.38884375,-1.2999687500000001,1.17109375,0.017304274623515106,0.028132445815768056,True
40235,140517,0,140518,3261.0,38458.0,27739.0,-0.005063,-0.001037,0.000732,0.385,0.5775,-4.777500000000001,1.01334375,0.033125,-0.58809375,1.1885625,0.9570000000000001,-0.3891875,-1.3041562500000001,1.1653125,0.01731556248029993,0.028298216819618326,True
40236,140518,0,140519,3263.0,38458.0,27740.0,-0.006344,0.001403,0.000915,0.5425000000000001,0.7525000000000001,-4.9350000000000005,1.01575,0.03709375,-0.58934375,1.19353125,0.95253125,-0.39090625,-1.3011875,1.1490625,0.017547523475065628,0.02813479604465205,True
40237,140519,0,140520,3262.0,38460.0,27741.0,-0.00732,0.0028669999999999998,-0.000305,0.47250000000000003,0.6475000000000001,-4.760000000000001,0.9968750000000001,0.03765625,-0.58915625,1.1974375,0.94696875,-0.394625,-1.30253125,1.15425,0.017720348232448745,0.028193819541276127,True
40238,140520,0,140521,3264.0,38462.0,27743.0,-0.006344,0.000122,0.001037,0.36750000000000005,0.5950000000000001,-4.6375,1.0071875000000001,0.0396875,-0.591875,1.19790625,0.95721875,-0.39071875,-1.304125,1.1550625,0.017646312698349653,0.02814758463294028,True
40239,140521,0,140522,3261.0,38460.0,27740.0,-0.004148,-0.002806,0.002745,0.2625,0.6825000000000001,-4.340000000000001,1.0086875,0.03696875,-0.5905625,1.19484375,0.95965625,-0.39359375,-1.30078125,1.15440625,0.01765063829514665,0.02807102053419793,True
40240,140522,0,140523,3264.0,38460.0,27741.0,-0.003843,-0.005063,0.003355,0.14,0.8575,-4.2525,1.008375,0.03521875,-0.589,1.19825,0.9595312500000001,-0.39075,-1.303625,1.1596250000000001,0.017464356364605433,0.028242000899080667,True
40241,140523,0,140524,3263.0,38462.0,27738.0,-0.0050019999999999995,-0.005612,0.005063,0.12250000000000001,0.8925000000000001,-4.2175,1.0130625,0.0364375,-0.590125,1.193,0.95846875,-0.39115625,-1.30228125,1.15440625,0.01753068799270227,0.028145930517628724,True
40242,140524,0,140525,3264.0,38460.0,27740.0,0.001403,-0.0055509999999999995,0.0017079999999999999,-0.052500000000000005,1.1725,-4.1825,1.0090625,0.03621875,-0.584375,1.1970625,0.95903125,-0.392,-1.30209375,1.15915625,0.017555704739258774,0.02836598255826161,True
40243,140525,0,140526,3265.0,38464.0,27741.0,0.0018909999999999999,-0.0035989999999999998,-0.002989,0.052500000000000005,1.2425000000000002,-4.305000000000001,1.01534375,0.03640625,-0.5889375,1.19709375,0.95934375,-0.39040625,-1.3037812500000001,1.16025,0.017499196020976486,0.028250471458687625,True
40244,140526,0,140527,3266.0,38459.0,27740.0,-0.0018909999999999999,0.0013419999999999999,-0.004331,0.45500000000000007,1.2600000000000002,-4.515000000000001,1.0144375,0.03584375,-0.58840625,1.1974375,0.9586875,-0.391,-1.30340625,1.1590625,0.0175000512484113,0.028257065192556833,True
40245,140527,0,140528,3265.0,38464.0,27742.0,-0.0032329999999999998,0.004331,-0.001769,0.805,1.2075,-4.62,1.0150000000000001,0.04184375,-0.5880625,1.19125,0.95996875,-0.39065625,-1.3009375,1.16015625,0.017732200214990116,0.028175833405382707,True
40246,140528,0,140529,3266.0,38464.0,27741.0,-0.00244,0.0064659999999999995,-0.0035989999999999998,0.8750000000000001,0.77,-4.795000000000001,1.008375,0.0395625,-0.58803125,1.19178125,0.96703125,-0.38696875000000003,-1.300875,1.1544375,0.01749012984649845,0.02817466787215857,True
40247,140529,0,140530,3266.0,38462.0,27742.0,-0.000244,0.005063,0.001464,0.665,-0.0175,-4.777500000000001,1.01025,0.0320625,-0.58825,1.1924062500000001,0.96559375,-0.39053125,-1.30121875,1.155125,0.017326139626417526,0.02817922555608117,True
40248,140530,0,140531,3270.0,38464.0,27743.0,-0.002562,0.002196,0.0037819999999999998,0.43750000000000006,-0.08750000000000001,-4.357500000000001,1.01053125,0.03215625,-0.58696875,1.197,0.9661875,-0.3908125,-1.301625,1.1615312500000001,0.017341314480606173,0.028245468423470824,True
40249,140531,0,140532,3267.0,38467.0,27743.0,-0.002257,0.000305,0.006161,0.45500000000000007,-0.17500000000000002,-3.99,1.0116875,0.0370625,-0.5898125,1.2016875,0.959375,-0.39159375,-1.30515625,1.15403125,0.01757393364260997,0.028268695238742106,True
40250,140532,0,140533,3270.0,38465.0,27746.0,-0.0025009999999999998,-0.000244,0.0064659999999999995,0.4025,-0.35000000000000003,-3.7100000000000004,1.0052812500000001,0.03440625,-0.5885625,1.1883125,0.9590000000000001,-0.39437500000000003,-1.2979687500000001,1.154375,0.017577054136455637,0.02804202412496063,True
40251,140533,0,140534,3270.0,38465.0,27746.0,-0.0008539999999999999,-0.000976,0.003721,0.3325,-0.6825000000000001,-3.4475000000000002,1.0060625,0.031,-0.58840625,1.18128125,0.96584375,-0.3925625,-1.3010625,1.1617187500000001,0.01736441179560368,0.028167048320599183,True
40252,140534,0,140535,3269.0,38465.0,27748.0,0.0059169999999999995,-0.000976,-0.00244,0.4025,-1.7500000000000002,-3.22,1.0184375,0.0365625,-0.58878125,1.20359375,0.966,-0.39096875000000003,-1.305125,1.15921875,0.01752826033201326,0.028308247835171732,True
40253,140535,0,140536,3269.0,38468.0,27747.0,0.007076,-0.000488,-0.008601,0.49000000000000005,-2.205,-3.1500000000000004,1.00534375,0.03696875,-0.591,1.2023125000000001,0.9589062500000001,-0.39184375,-1.30384375,1.15396875,0.017580159351422542,0.028171362305380976,True
40254,140536,0,140537,3270.0,38465.0,27747.0,0.006893,-6.1e-05,-0.009821,0.36750000000000005,-2.31,-3.115,1.00596875,0.036375,-0.5860625,1.1974375,0.95884375,-0.39396875000000003,-1.304,1.15490625,0.017641399577508272,0.028372490515333547,True
40255,140537,0,140538,3270.0,38465.0,27746.0,0.005856,0.0,-0.006893,0.385,-2.0300000000000002,-3.115,1.00525,0.035125,-0.59196875,1.19428125,0.9590625,-0.39278125,-1.30065625,1.1544375,0.017542331299347017,0.028010637075866363,True
40256,140538,0,140539,3270.0,38466.0,27746.0,0.003172,-0.0040869999999999995,-0.001464,0.45500000000000007,-1.5750000000000002,-2.9575000000000005,0.9966875000000001,0.03471875,-0.5913437500000001,1.18959375,0.959125,-0.39146875000000003,-1.3008125,1.1540625,0.01747281003732094,0.028041342545817447,True
40257,140539,0,140540,3271.0,38465.0,27750.0,0.0023179999999999997,-0.005856,0.000915,0.12250000000000001,-0.805,-3.3075,1.0051875000000001,0.031843750000000004,-0.58884375,1.18871875,0.96275,-0.39265625,-1.301625,1.1545,0.017402778756413623,0.028171362511301153,True
40258,140540,0,140541,3270.0,38464.0,27750.0,0.001403,-0.002806,0.001403,0.21000000000000002,-0.42000000000000004,-3.6400000000000006,1.00646875,0.03240625,-0.58746875,1.18990625,0.963375,-0.39053125,-1.3018750000000001,1.158375,0.01734023321037749,0.028235308648074508,True
40259,140541,0,140542,3271.0,38468.0,27753.0,-0.000549,0.00183,0.00122,0.5950000000000001,0.14,-3.9025000000000003,1.015375,0.03490625,-0.58684375,1.1890625000000001,0.96346875,-0.39046875000000003,-1.30115625,1.1585,0.017440214223025132,0.028232405386611533,True
40260,140542,0,140543,3270.0,38469.0,27751.0,-0.001769,0.003721,0.000244,0.9450000000000001,0.6475000000000001,-4.0600000000000005,1.013375,0.03421875,-0.5878125,1.19065625,0.96396875,-0.39140625,-1.30096875,1.15609375,0.01744979340828289,0.028186914779695937,True
40261,140543,0,140544,3271.0,38467.0,27752.0,-0.007076,0.00671,0.000976,0.9625000000000001,1.2075,-4.322500000000001,1.0114375,0.03328125,-0.58696875,1.19159375,0.9636250000000001,-0.3908125,-1.302125,1.1575625,0.017387438405342175,0.02826467144558016,True
40262,140544,0,140545,3271.0,38470.0,27754.0,-0.008662,0.003477,0.005856,0.8225000000000001,1.2075,-4.2525,1.00821875,0.03234375,-0.59196875,1.19359375,0.9666250000000001,-0.39034375,-1.30134375,1.15328125,0.017330116554835354,0.028037048427516816,True
40263,140545,0,140546,3272.0,38468.0,27754.0,-0.009943,0.000305,0.008784,0.5075000000000001,0.9625000000000001,-4.235,1.002,0.0370625,-0.5889375,1.19425,0.95103125,-0.3889375,-1.3064375,1.1550625,0.017466935572736614,0.028352469603831035,True
40264,140546,0,140547,3273.0,38470.0,27752.0,-0.008173999999999999,-0.0026839999999999998,0.008784,0.29750000000000004,0.47250000000000003,-4.1475,1.0149062500000001,0.036375,-0.58815625,1.1845,0.95978125,-0.3935,-1.31109375,1.17215625,0.0176225223932605,0.028562080609416566,True
40265,140547,0,140548,3273.0,38471.0,27755.0,-0.0051849999999999995,-0.005063,0.00793,0.2625,-0.10500000000000001,-3.8500000000000005,1.01603125,0.035312500000000004,-0.5863125,1.191375,0.9525,-0.3899375,-1.30878125,1.1753437500000001,0.01743546903307973,0.028546169128550986,True
40266,140548,0,140549,3273.0,38470.0,27754.0,0.0,-0.006588,0.0034159999999999998,0.0175,-0.5075000000000001,-3.3950000000000005,1.00846875,0.03409375,-0.5896875,1.19421875,0.968125,-0.3841875,-1.29871875,1.1543125,0.017153790750665775,0.02802636991250792,True
40267,140549,0,140550,3274.0,38471.0,27756.0,-0.001098,-0.005246,-0.0008539999999999999,0.12250000000000001,-0.5950000000000001,-3.1850000000000005,1.0090000000000001,0.0365625,-0.5891875,1.19596875,0.98175,-0.39946875,-1.2943125,1.14325,0.017870522283400123,0.02787682013496117,True
40268,140550,0,140551,3273.0,38470.0,27757.0,-0.002928,-0.0015249999999999999,-0.005124,0.43750000000000006,-0.8925000000000001,-3.08,1.0129375,0.03628125,-0.58528125,1.1924062500000001,0.95525,-0.40303125,-1.3064375,1.15684375,0.018002374192755254,0.02849694865189934,True
40269,140551,0,140552,3275.0,38471.0,27757.0,-0.001952,0.0023179999999999997,-0.011651,0.77,-1.6450000000000002,-3.115,1.01371875,0.03653125,-0.58959375,1.19890625,0.93659375,-0.39346875000000003,-1.30096875,1.14275,0.017627669291600853,0.028116512337101718,True
40270,140552,0,140553,3275.0,38471.0,27759.0,0.0032329999999999998,0.007869,-0.015738,0.8225000000000001,-2.6250000000000004,-3.2725000000000004,1.00803125,0.03634375,-0.59246875,1.1965625,0.96115625,-0.3984375,-1.29334375,1.14396875,0.017820044828690363,0.027709859436833063,True
40271,140553,0,140554,3278.0,38473.0,27762.0,0.008357,0.004209,-0.004209,0.9100000000000001,-3.6225000000000005,-3.1500000000000004,1.00840625,0.035125,-0.59196875,1.191875,0.979,-0.3944375,-1.29565625,1.153125,0.01760903484657107,0.0278185113303791,True
40272,140554,0,140555,3277.0,38472.0,27760.0,0.006222,-0.0006709999999999999,0.0018909999999999999,0.5425000000000001,-3.6225000000000005,-3.08,1.0081875,0.03278125,-0.59175,1.19115625,0.9761875,-0.391125,-1.296875,1.14075,0.017379528414536025,0.02787399629400865,True
40273,140555,0,140556,3277.0,38472.0,27762.0,0.001464,-0.004026,0.005307,0.36750000000000005,-3.535,-3.0975,1.009375,0.03403125,-0.5890625,1.19178125,0.98078125,-0.38428125,-1.292125,1.1584375,0.017155006362961796,0.027797684061738583,True
40274,140556,0,140557,3279.0,38474.0,27761.0,0.001952,-0.0046359999999999995,0.0073809999999999995,0.35000000000000003,-3.6050000000000004,-3.1500000000000004,1.0010000000000001,0.03315625,-0.5885625,1.18665625,0.9716250000000001,-0.3916875,-1.29690625,1.16015625,0.017417562847998936,0.02800120073971496,True
40275,140557,0,140558,3278.0,38474.0,27762.0,0.003843,-0.003965,0.0073809999999999995,0.45500000000000007,-3.6750000000000003,-3.0975,1.00353125,0.03646875,-0.5889375,1.19890625,0.9742500000000001,-0.38746875000000003,-1.30546875,1.15446875,0.01738341540673425,0.028315272760952116,True
40276,140558,0,140559,3278.0,38474.0,27764.0,0.0034159999999999998,-0.0042699999999999995,0.0011589999999999999,0.385,-3.2025,-3.0450000000000004,1.00884375,0.03571875,-0.5913125,1.1929375,0.94921875,-0.39565625,-1.29859375,1.15125,0.017682451153573704,0.02795733458504981,True
40277,140559,0,140560,3279.0,38470.0,27763.0,0.000915,-0.003172,-0.000732,0.47250000000000003,-2.7125000000000004,-3.0450000000000004,1.0085,0.03234375,-0.58984375,1.1909375,0.9508125000000001,-0.3915,-1.3013125,1.1540625,0.017376698850009226,0.028119835680461242,True
40278,140560,0,140561,3280.0,38474.0,27761.0,-0.000305,0.0,-0.006588,0.665,-2.4850000000000003,-3.1675000000000004,1.0110625,0.03415625,-0.58878125,1.1905937500000001,0.9670625,-0.3899375,-1.3017812500000001,1.1591875,0.017388062187531233,0.028179834176694576,True
40279,140561,0,140562,3278.0,38469.0,27755.0,-0.00122,0.004209,-0.005429,0.8225000000000001,-2.205,-3.3425000000000002,1.01496875,0.03446875,-0.5886250000000001,1.191,0.96675,-0.38478125,-1.30121875,1.1608125,0.017193100717276272,0.028164404135670344,True
40280,140562,0,140563,3278.0,38470.0,27754.0,-0.0015249999999999999,0.0075639999999999995,-0.002989,0.9625000000000001,-1.8725000000000003,-3.325,1.01265625,0.0370625,-0.58934375,1.19465625,0.9629062500000001,-0.391125,-1.3021562500000001,1.1604375,0.017555053323698683,0.028172006091378085,True
40281,140563,0,140564,3279.0,38468.0,27750.0,-0.0026839999999999998,0.003294,0.002562,0.7350000000000001,-1.3125000000000002,-3.0450000000000004,1.014375,0.03815625,-0.58859375,1.19528125,0.9599062500000001,-0.38556250000000003,-1.3033125,1.1594375000000001,0.017375803818345387,0.02824605474085656,True
40282,140564,0,140565,3278.0,38468.0,27752.0,-0.0032329999999999998,0.000793,0.0028669999999999998,0.6300000000000001,-1.3475000000000001,-3.0100000000000002,0.99975,0.0361875,-0.5910625,1.1911875,0.9586250000000001,-0.39046875000000003,-1.30315625,1.15440625,0.017492744988757136,0.02814248716501523,True
40283,140565,0,140566,3277.0,38469.0,27749.0,-0.0008539999999999999,6.1e-05,0.000793,0.56,-1.6275000000000002,-3.0625000000000004,1.00921875,0.03428125,-0.588,1.1871875,0.96575,-0.39006250000000003,-1.30125,1.162375,0.017398223149284676,0.02819030680302357,True
40284,140566,0,140567,3277.0,38469.0,27746.0,0.0026839999999999998,0.000122,0.0008539999999999999,0.5075000000000001,-1.8025000000000002,-3.0975,1.0089062500000001,0.0345,-0.58859375,1.192125,0.95984375,-0.39425,-1.3013125,1.16034375,0.017575863164475233,0.028169240232102585,True
40285,140567,0,140568,3276.0,38466.0,27745.0,0.00366,-0.0018909999999999999,-0.000122,0.525,-1.8025000000000002,-3.0275000000000003,1.00253125,0.035625000000000004,-0.5926875,1.1915,0.95865625,-0.39209375,-1.3035625,1.1536875,0.017535138819315173,0.028093870181323283,True
40286,140568,0,140569,3276.0,38466.0,27748.0,-0.000915,0.000122,-0.00122,0.43750000000000006,-1.3650000000000002,-3.3075,1.009625,0.031875,-0.5885625,1.19125,0.95375,-0.39309375,-1.30109375,1.154,0.017421683135211172,0.02816207303290989,True
40287,140569,0,140570,3276.0,38468.0,27747.0,-0.001464,0.002623,-0.001403,0.6475000000000001,-1.4525000000000001,-3.3775000000000004,1.02775,0.0333125,-0.5839375,1.1865625,0.9649375,-0.39075,-1.3019375,1.15484375,0.017386201736313972,0.028377273479550724,True
40288,140570,0,140571,3275.0,38467.0,27746.0,-0.001952,0.0037819999999999998,-0.000732,0.7175,-1.3825,-3.3075,1.0274375,0.040625,-0.5859375,1.18540625,0.958125,-0.38565625000000003,-1.3014375,1.15478125,0.017480819282851986,0.028279025648246272,True
40289,140571,0,140572,3273.0,38467.0,27746.0,-0.002989,0.001281,0.0015249999999999999,0.5425000000000001,-1.33,-3.1850000000000005,1.0106875,0.0290625,-0.58678125,1.1854375,0.9651875,-0.39478125000000003,-1.3039375,1.1509375,0.0173743615757981,0.028341685953026084,True
40290,140572,0,140573,3274.0,38470.0,27748.0,-0.002196,-0.001769,0.0037819999999999998,0.35000000000000003,-1.715,-3.0100000000000002,0.99965625,0.0379375,-0.58778125,1.20540625,0.957125,-0.39059375,-1.30478125,1.1611562500000001,0.017569529237065007,0.028334566219575596,True
40291,140573,0,140574,3275.0,38469.0,27746.0,-0.0017079999999999999,-0.004575,0.0030499999999999998,0.21000000000000002,-1.9075000000000002,-2.9225000000000003,1.0219375,0.04175,-0.5856875,1.1913125,0.96709375,-0.3871875,-1.3010625,1.15659375,0.017588641576647576,0.028274504282181825,True
40292,140574,0,140575,3272.0,38469.0,27747.0,0.002013,-0.003538,0.002074,0.385,-1.9775000000000003,-2.8350000000000004,1.0245312500000001,0.03796875,-0.58584375,1.2056875,0.96596875,-0.38984375,-1.299625,1.16103125,0.01754060027547327,0.028213115807052477,True
40293,140575,0,140576,3273.0,38466.0,27749.0,0.002623,-0.0025009999999999998,-0.001403,0.385,-1.8375000000000001,-2.87,1.0106875,0.038,-0.58846875,1.19528125,0.96175,-0.390625,-1.3041875,1.15671875,0.017573350416399743,0.02828459716400695,True
40294,140576,0,140577,3274.0,38466.0,27749.0,0.001769,-0.000976,-0.004758,0.5425000000000001,-1.715,-2.8350000000000004,1.00221875,0.034,-0.59171875,1.186,0.95928125,-0.39384375,-1.29775,1.15421875,0.017539005102465657,0.027908855530630192,True
40295,140577,0,140578,3273.0,38468.0,27748.0,-0.000793,0.000793,-0.006405,0.6125,-1.5575,-3.1850000000000005,1.01190625,0.02915625,-0.58540625,1.1845625,0.9610625,-0.39109375,-1.30109375,1.15403125,0.017229649654394854,0.0282868206043464,True
40296,140578,0,140579,3273.0,38469.0,27749.0,0.002989,0.005795,-0.0013419999999999999,0.805,-1.5225000000000002,-3.4125000000000005,1.01421875,0.0290625,-0.5844375,1.185,0.9649375,-0.39259375,-1.301,1.14759375,0.017286240828735158,0.028321509031263584,True
40297,140579,0,140580,3274.0,38467.0,27750.0,0.0035989999999999998,0.002928,0.0015249999999999999,0.805,-1.3650000000000002,-3.2725000000000004,1.02246875,0.03378125,-0.586,1.19825,0.96759375,-0.39028125,-1.30096875,1.16103125,0.01738653587686694,0.028258552352861985,True
40298,140580,0,140581,3273.0,38467.0,27750.0,-0.001952,0.000488,0.003477,0.7000000000000001,-1.12,-3.2025,1.00053125,0.034875,-0.5881875,1.18284375,0.95915625,-0.39096875000000003,-1.30175,1.1496875,0.01745907488811817,0.02820210064521229,True
40299,140581,0,140582,3274.0,38466.0,27749.0,-0.0025009999999999998,-0.0037819999999999998,0.003294,0.525,-1.12,-3.3075,1.00675,0.03659375,-0.59028125,1.1968125,0.95828125,-0.3928125,-1.30175,1.15446875,0.01760380234956506,0.028119349452112998,True
40300,140582,0,140583,3275.0,38466.0,27752.0,0.000366,-0.0040869999999999995,0.001403,0.28,-1.1725,-3.4125000000000005,1.00803125,0.035250000000000004,-0.58915625,1.19321875,0.95828125,-0.39103125,-1.30128125,1.159,0.017476967071656718,0.028145807833348357,True
40301,140583,0,140584,3273.0,38466.0,27753.0,0.003965,-0.002562,-0.000305,0.4025,-0.8925000000000001,-3.535,1.01125,0.036625,-0.587875,1.19715625,0.95575,-0.39046875000000003,-1.30346875,1.15515625,0.017510682323397333,0.028280460559384765,True
40302,140584,0,140585,3274.0,38465.0,27752.0,0.003355,-0.000488,-0.000183,0.5075000000000001,-0.42000000000000004,-3.6225000000000005,1.01540625,0.0366875,-0.588125,1.19115625,0.95928125,-0.39046875000000003,-1.3008125,1.1616250000000001,0.017513244799774504,0.028168561780377604,True
40303,140585,0,140586,3276.0,38466.0,27753.0,-0.000183,0.003172,-0.001281,0.8225000000000001,0.08750000000000001,-3.9550000000000005,1.0166875,0.033375,-0.58796875,1.1918125,0.96115625,-0.3904375,-1.3009375,1.1540625,0.017376174576614296,0.02817953880167484,True
40304,140586,0,140587,3274.0,38466.0,27753.0,-0.002379,0.00671,0.0,1.155,0.525,-3.9200000000000004,1.01403125,0.033875,-0.5885312500000001,1.1827812500000001,0.9667187500000001,-0.3903125,-1.301125,1.161875,0.017391638586016476,0.028164508495175614,True
40305,140587,0,140588,3277.0,38464.0,27752.0,-0.0028669999999999998,0.008357,-0.000183,1.2075,0.5075000000000001,-3.9550000000000005,1.0028125,0.03296875,-0.591,1.19515625,0.95775,-0.38675,-1.30053125,1.15359375,0.01721093421632649,0.02804412456754243,True
40306,140588,0,140589,3276.0,38464.0,27753.0,-0.002623,0.003355,0.001464,0.77,0.6125,-4.112500000000001,1.00859375,0.03628125,-0.58915625,1.19734375,0.95153125,-0.39087500000000003,-1.3025625,1.160625,0.017512953102338476,0.02819501977319491,True
40307,140589,0,140590,3275.0,38465.0,27754.0,-0.0021349999999999997,-0.001952,0.0018909999999999999,0.43750000000000006,0.6300000000000001,-3.9725000000000006,1.00971875,0.035562500000000004,-0.5923125,1.1959375,0.95928125,-0.3908125,-1.3026875,1.1539375,0.017480967474945742,0.028075080957309373,True
40308,140590,0,140591,3275.0,38465.0,27754.0,-0.003477,-0.004514,0.000488,0.21000000000000002,0.7000000000000001,-3.99,0.9977812500000001,0.034625,-0.5905625,1.19128125,0.95875,-0.39446875000000003,-1.2998125,1.1536875,0.017589796867373882,0.028033804598354237,True
40309,140591,0,140592,3276.0,38467.0,27753.0,-0.001769,-0.005673,0.0008539999999999999,0.10500000000000001,0.8400000000000001,-3.8500000000000005,1.0089062500000001,0.0330625,-0.58825,1.19040625,0.9654375000000001,-0.39084375,-1.3001875,1.15784375,0.0173797288172944,0.028139613589820235,True
40310,140592,0,140593,3276.0,38465.0,27753.0,-0.0017079999999999999,-0.007808,0.000732,0.035,1.0150000000000001,-3.6925000000000003,1.01478125,0.036625,-0.58859375,1.1930625,0.96709375,-0.3908125,-1.300625,1.1611562500000001,0.017524528959418636,0.028142832439910077,True
40311,140593,0,140594,3276.0,38464.0,27755.0,-0.002013,-0.0057339999999999995,-0.003538,0.08750000000000001,1.1025,-4.0075,1.01621875,0.039406250000000004,-0.58825,1.197375,0.96221875,-0.38453125,-1.296125,1.16196875,0.017385509512306087,0.027983535027598098,True
40312,140594,0,140595,3277.0,38465.0,27755.0,-0.0023179999999999997,-0.002379,-0.001403,0.31500000000000006,1.0675000000000001,-4.095000000000001,1.0086875,0.03590625,-0.5885625,1.19871875,0.9590000000000001,-0.39128125,-1.30328125,1.14940625,0.017513942610128366,0.028246089625233877,True
40313,140595,0,140596,3278.0,38464.0,27755.0,-0.0035989999999999998,0.0032329999999999998,-0.001769,0.56,0.9800000000000001,-4.2,1.00853125,0.0360625,-0.592,1.19334375,0.9585625,-0.3945625,-1.3023437500000001,1.15315625,0.017652499404324222,0.028074227313428235,True
40314,140596,0,140597,3276.0,38466.0,27756.0,-0.002379,0.0062829999999999995,-0.0008539999999999999,0.6825000000000001,0.7875000000000001,-4.2525,1.00896875,0.035312500000000004,-0.5880625,1.191375,0.95940625,-0.3921875,-1.29725,1.15359375,0.01752610338863622,0.0280341736750042,True
40315,140597,0,140598,3277.0,38466.0,27755.0,-0.005124,0.00732,0.001281,0.8400000000000001,0.5425000000000001,-4.025,1.01503125,0.0365625,-0.5881875,1.18528125,0.96475,-0.39106250000000004,-1.30121875,1.15975,0.017532036581022252,0.02818169579281631,True
40316,140598,0,140599,3277.0,38469.0,27757.0,-0.004331,0.004758,0.00061,1.05,-0.5775,-3.7975000000000003,1.0085625,0.03628125,-0.5896875,1.18990625,0.95453125,-0.3913125,-1.3009375,1.15375,0.01753057569165251,0.028111606536319063,True
40317,140599,0,140600,3278.0,38468.0,27758.0,-0.004331,0.0034159999999999998,0.0013419999999999999,0.8225000000000001,-1.435,-3.8150000000000004,1.0129375,0.0368125,-0.58821875,1.1935,0.965875,-0.39103125,-1.30096875,1.159,0.017541027503705894,0.028170858082262166,True
40318,140600,0,140601,3279.0,38469.0,27757.0,-0.001464,0.000549,-0.00183,0.6475000000000001,-2.1875,-3.6400000000000006,1.00853125,0.03675,-0.5886875,1.19084375,0.95453125,-0.3938125,-1.30040625,1.1536875,0.017650480014142933,0.028130724185505912,True
40319,140601,0,140602,3277.0,38469.0,27757.0,0.000549,-0.001098,-0.001281,0.49000000000000005,-2.8350000000000004,-3.4475000000000002,1.004,0.0350625,-0.588125,1.19303125,0.9681875,-0.39065625,-1.3005625,1.161125,0.01745417366537647,0.028158958916427255,True
40320,140602,0,140603,3278.0,38467.0,27757.0,0.001403,-0.006527,0.002013,0.1925,-3.2550000000000003,-3.3600000000000003,1.0116875,0.0361875,-0.58796875,1.195,0.95878125,-0.39106250000000004,-1.30471875,1.15784375,0.01751666209702837,0.02832475662271488,True
40321,140603,0,140604,3280.0,38468.0,27758.0,0.00061,-0.007076,0.002623,0.08750000000000001,-3.8675,-2.8525000000000005,1.00896875,0.03615625,-0.58896875,1.1971875,0.95734375,-0.392,-1.3019375,1.15175,0.01755314242374549,0.028178425071202547,True
40322,140604,0,140605,3280.0,38469.0,27757.0,-0.0021349999999999997,-0.0035989999999999998,0.001769,0.4025,-4.235,-2.87,1.006875,0.037125,-0.5878125,1.1965937500000001,0.9560625,-0.39171875,-1.3048125,1.161125,0.017581530616820516,0.028334531228002578,True
40323,140605,0,140606,3281.0,38470.0,27757.0,-0.002745,0.00042699999999999997,0.000732,0.56,-5.0925,-3.0625000000000004,1.02209375,0.03584375,-0.5895625,1.206,0.9565,-0.3856875,-1.3065625,1.15103125,0.017286010492835194,0.02833257183783851,True
40324,140606,0,140607,3281.0,38469.0,27759.0,0.000366,0.0025009999999999998,0.000244,0.665,-6.072500000000001,-3.2375000000000003,1.00875,0.035125,-0.59590625,1.20015625,0.9508125000000001,-0.39159375,-1.3038125,1.153875,0.017494500538735813,0.027976268398289785,True
40325,140607,0,140608,3280.0,38467.0,27758.0,0.009089,0.003721,-0.001464,0.805,-7.612500000000001,-3.3600000000000003,0.99921875,0.026000000000000002,-0.58125,1.18840625,0.95646875,-0.3949375,-1.29865625,1.15259375,0.017255116968428387,0.02835748440196305,True
40326,140608,0,140609,3282.0,38468.0,27759.0,0.012688,0.001464,-0.0015249999999999999,0.7350000000000001,-7.700000000000001,-3.2025,1.03421875,0.04178125,-0.58815625,1.2133125,0.9601875,-0.38853125,-1.3006875,1.16346875,0.01764405144323728,0.028162525227822366,True
40327,140609,0,140610,3283.0,38465.0,27758.0,0.012931999999999999,-0.0011589999999999999,-0.0011589999999999999,0.5775,-7.3500000000000005,-2.9400000000000004,0.9875625,0.0345,-0.59215625,1.1801875,0.9550625,-0.3918125,-1.30159375,1.1516250000000001,0.017477688466160518,0.02803924159915816,True
40328,140610,0,140611,3281.0,38467.0,27759.0,0.011285,-0.001464,-0.002257,0.385,-6.597500000000001,-2.9400000000000004,1.00278125,0.0263125,-0.58209375,1.19309375,0.9594375,-0.39459375,-1.29778125,1.1565,0.01725407909283179,0.02829052449016651,True
40329,140611,0,140612,3282.0,38465.0,27758.0,0.008845,-0.000183,-0.0025009999999999998,0.42000000000000004,-5.897500000000001,-2.975,1.01815625,0.038125,-0.5945312500000001,1.1805,0.9655,-0.39059375,-1.30409375,1.1520625,0.01757721662679901,0.028041411283500323,True
40330,140612,0,140613,3283.0,38464.0,27760.0,0.007076,-0.002379,-0.003111,0.24500000000000002,-4.2175,-3.0450000000000004,1.00665625,0.03271875,-0.58175,1.2085937500000001,0.96728125,-0.38934375,-1.3002500000000001,1.16165625,0.017305201170080685,0.02839892886433929,True
40331,140613,0,140614,3283.0,38466.0,27760.0,0.005124,-0.00244,-0.002257,0.31500000000000006,-3.1500000000000004,-3.3425000000000002,1.0030937500000001,0.037125,-0.588875,1.18075,0.95615625,-0.38906250000000003,-1.301125,1.152375,0.017474533922736884,0.028150922142790098,True
40332,140614,0,140615,3282.0,38465.0,27763.0,0.001769,0.000915,-0.000366,0.28,-2.1175,-3.6050000000000004,1.02890625,0.029968750000000002,-0.57678125,1.20540625,0.964875,-0.390625,-1.2995625,1.1608125,0.017244074311338883,0.028568922881571566,True
40333,140615,0,140616,3284.0,38465.0,27762.0,-0.001586,0.002745,0.0025009999999999998,0.5075000000000001,-1.3125000000000002,-4.0075,1.02121875,0.039906250000000004,-0.5906875,1.205125,0.96140625,-0.39034375,-1.30375,1.1565,0.017640177785522192,0.028180111643531094,True
40334,140616,0,140617,3286.0,38466.0,27762.0,-0.005978,0.0066489999999999995,0.0015249999999999999,0.77,-0.7525000000000001,-4.532500000000001,0.99565625,0.0328125,-0.5876250000000001,1.1791562500000001,0.952125,-0.3919375,-1.29890625,1.15325,0.01741354084725742,0.02811509884938207,True
40335,140617,0,140618,3283.0,38465.0,27762.0,-0.002745,0.003355,-0.0013419999999999999,0.56,0.14,-4.8825,1.0173125,0.03878125,-0.5848125,1.19653125,0.9664375000000001,-0.3905,-1.30071875,1.16078125,0.017600346446362315,0.02829588586292632,True
40336,140618,0,140619,3286.0,38466.0,27763.0,-0.004209,-0.000915,-0.00183,0.4025,0.5425000000000001,-4.865,1.00859375,0.036875,-0.586,1.19075,0.958875,-0.388875,-1.30184375,1.1625625,0.017456729758957724,0.028292157562628217,True
40337,140619,0,140620,3287.0,38468.0,27760.0,-0.0064659999999999995,-0.0032329999999999998,-0.0015249999999999999,0.31500000000000006,1.0850000000000002,-4.742500000000001,1.01665625,0.0365625,-0.58825,1.1965000000000001,0.9558125000000001,-0.3904375,-1.302625,1.15471875,0.0175068610392905,0.028233236670108335,True
40338,140620,0,140621,3286.0,38466.0,27762.0,-0.008601,-0.001647,0.002745,0.28,1.3125000000000002,-4.69,1.00825,0.03653125,-0.5899375,1.191125,0.9590000000000001,-0.3921875,-1.2943437500000001,1.1530625,0.017576068157068737,0.02784837025076012,True
40339,140621,0,140622,3286.0,38466.0,27758.0,-0.010003999999999999,-0.003172,0.001952,0.36750000000000005,1.1025,-4.7250000000000005,1.00821875,0.03403125,-0.5874375000000001,1.18890625,0.964375,-0.390125,-1.3005625,1.15990625,0.017390491028643765,0.028186132225321077,True
40340,140622,0,140623,3286.0,38464.0,27754.0,-0.006405,-0.0023179999999999997,0.004392,0.31500000000000006,0.49000000000000005,-4.6375,1.0133125,0.03703125,-0.5903125,1.19109375,0.9560000000000001,-0.39134375,-1.3033125,1.15375,0.01756258303727116,0.02817812885170667,True
40341,140623,0,140624,3285.0,38461.0,27752.0,-0.004331,-0.0026839999999999998,0.0037819999999999998,0.28,0.17500000000000002,-4.340000000000001,1.0093125,0.03496875,-0.5875,1.19634375,0.9664375000000001,-0.391125,-1.30059375,1.160875,0.017469212674692126,0.02818486226237279,True
40342,140624,0,140625,3284.0,38464.0,27753.0,-0.005856,-0.00244,0.001769,0.17500000000000002,-0.12250000000000001,-4.112500000000001,1.0083125,0.0344375,-0.5896875,1.19071875,0.9580625,-0.39409375,-1.30028125,1.15490625,0.01756700840751668,0.028086397260900016,True
40343,140625,0,140626,3286.0,38466.0,27748.0,-0.003843,-0.0018909999999999999,0.00042699999999999997,0.15750000000000003,-0.3325,-3.9025000000000003,1.0155625,0.03634375,-0.583875,1.19765625,0.966,-0.39090625,-1.30209375,1.1569375,0.01751677431009764,0.028385743768734553,True
40344,140626,0,140627,3285.0,38467.0,27748.0,-0.003965,0.000122,-0.001281,0.24500000000000002,-0.8400000000000001,-3.7975000000000003,1.00821875,0.03484375,-0.58765625,1.19065625,0.9543125,-0.3896875,-1.29965625,1.16121875,0.017406178328443118,0.028142674863418354,True
40345,140627,0,140628,3284.0,38462.0,27747.0,-0.000122,0.004514,-0.004331,0.36750000000000005,-2.1875,-3.7975000000000003,1.0158125,0.03634375,-0.59015625,1.1878125,0.9601875,-0.39171875,-1.29928125,1.1545625,0.01754950130359305,0.02802945241774408,True
40346,140628,0,140629,3281.0,38462.0,27745.0,0.001952,0.0032329999999999998,-0.002074,0.22750000000000004,-2.9050000000000002,-3.7100000000000004,1.0168125000000001,0.0364375,-0.5903125,1.19034375,0.9581875,-0.39309375,-1.30090625,1.1536250000000001,0.017608723780680752,0.028085703451827933,True
40347,140629,0,140630,3284.0,38464.0,27745.0,0.004575,-0.001098,0.0006709999999999999,0.052500000000000005,-3.6050000000000004,-3.8500000000000005,1.00821875,0.03546875,-0.5875,1.19178125,0.96603125,-0.38971875,-1.30090625,1.15978125,0.01743306285563461,0.02819686547789172,True
40348,140630,0,140631,3284.0,38463.0,27748.0,0.0071979999999999995,-0.0032329999999999998,0.00244,-0.07,-4.2700000000000005,-3.8325000000000005,0.99875,0.03659375,-0.59040625,1.18484375,0.94825,-0.39390625,-1.30009375,1.1536875,0.017647850065013675,0.02805078538493558,True
40349,140631,0,140632,3282.0,38462.0,27749.0,0.009943,-0.003355,0.001403,-0.14,-4.62,-3.9025000000000003,1.0090625,0.03321875,-0.58725,1.19021875,0.9661875,-0.39034375,-1.3003437500000001,1.1596250000000001,0.017365991407972674,0.02818514076513289,True
40350,140632,0,140633,3283.0,38463.0,27751.0,0.011651,-0.005246,0.0018909999999999999,-0.052500000000000005,-4.095000000000001,-3.3775000000000004,1.00284375,0.03625,-0.5885,1.1984062500000001,0.95840625,-0.39125,-1.30209375,1.1531875,0.017526777020447908,0.02820295257185979,True
40351,140633,0,140634,3282.0,38462.0,27749.0,0.011101999999999999,-0.005856,0.001647,-0.07,-3.4125000000000005,-3.325,1.00903125,0.03671875,-0.58975,1.1908750000000001,0.95884375,-0.39121875,-1.29915625,1.15375,0.017544736258822656,0.028040707879338864,True
40352,140634,0,140635,3284.0,38458.0,27752.0,0.00976,-0.005063,-0.000488,-0.0175,-2.5375,-3.2550000000000003,1.00853125,0.035250000000000004,-0.5869375,1.191125,0.96378125,-0.39090625,-1.29971875,1.1598125000000001,0.017471931777852657,0.028173485130145965,True
40353,140635,0,140636,3282.0,38459.0,27750.0,0.0055509999999999995,-0.0030499999999999998,-0.0042699999999999995,0.21000000000000002,-1.5050000000000001,-3.535,1.01659375,0.036625,-0.58765625,1.19784375,0.96109375,-0.39056250000000003,-1.30240625,1.1568125,0.017514458717383004,0.028248301483184034,True
40354,140636,0,140637,3281.0,38459.0,27753.0,0.00244,0.002989,-0.007625,0.5775,-0.6475000000000001,-3.99,1.008,0.0361875,-0.5885312500000001,1.18975,0.9588125000000001,-0.393,-1.2999375,1.14228125,0.017594699298979215,0.02811889357434183,True
40355,140637,0,140638,3281.0,38461.0,27753.0,-0.002074,0.012627,-0.007259,1.1375000000000002,0.9800000000000001,-4.41,1.00834375,0.035312500000000004,-0.58721875,1.1906875000000001,0.96540625,-0.39009375,-1.30040625,1.15403125,0.017441763625857323,0.028188776613023752,True
40356,140638,0,140639,3279.0,38459.0,27756.0,-0.003355,0.010187,-0.004941,0.9975,1.6625,-4.445,1.0088125000000001,0.039968750000000004,-0.5879375,1.1903125,0.96578125,-0.391125,-1.3001562500000001,1.15409375,0.017674205269334647,0.028150764879169475,True
40357,140639,0,140640,3282.0,38460.0,27755.0,-0.006893,0.0068319999999999995,0.00042699999999999997,0.77,2.31,-4.48,1.0081875,0.03284375,-0.5883125,1.19084375,0.969,-0.38990625,-1.2980625000000001,1.15403125,0.01733298995357967,0.028055508203444438,True
40358,140640,0,140641,3283.0,38460.0,27754.0,-0.00976,0.0006709999999999999,0.005124,0.56,2.7825,-4.322500000000001,1.00103125,0.03384375,-0.590875,1.193375,0.9683437500000001,-0.385,-1.2996875,1.151875,0.0171762866516301,0.028016650403290554,True
40359,140641,0,140642,3283.0,38463.0,27757.0,-0.013297999999999999,0.001037,0.00976,0.5950000000000001,2.6950000000000003,-4.585000000000001,1.00803125,0.0365625,-0.58446875,1.197375,0.95821875,-0.39437500000000003,-1.3035,1.148125,0.017665445415182803,0.02841627640444998,True
40360,140642,0,140643,3283.0,38464.0,27757.0,-0.00793,-0.000793,0.006039,0.49000000000000005,1.7325000000000002,-4.795000000000001,1.0099375,0.037375,-0.5888125,1.19753125,0.95475,-0.3949375,-1.2955,1.14815625,0.01772140223765689,0.02793728133462474,True
40361,140643,0,140644,3283.0,38463.0,27756.0,-0.0070149999999999995,-0.000488,0.0034159999999999998,0.47250000000000003,1.3650000000000002,-4.777500000000001,1.0124375,0.0369375,-0.590375,1.19821875,0.95196875,-0.3990625,-1.29565625,1.147375,0.017869539044789117,0.027881516218817213,True
40362,140644,0,140645,3284.0,38462.0,27757.0,-0.007503,-0.000122,0.000122,0.42000000000000004,0.77,-4.69,1.008375,0.03628125,-0.59015625,1.1908750000000001,0.9644375000000001,-0.397625,-1.2938125,1.152875,0.01778477413272808,0.02781930363404093,True
40363,140645,0,140646,3284.0,38466.0,27757.0,-0.008479,-0.00061,-0.0008539999999999999,0.385,0.2625,-4.515000000000001,1.0085625,0.0335,-0.5866250000000001,1.183,0.9732500000000001,-0.38834375,-1.30128125,1.17034375,0.01729694128983236,0.02824585217398822,True
40364,140646,0,140647,3285.0,38462.0,27758.0,-0.005063,-0.0023179999999999997,-0.002623,0.14,-0.45500000000000007,-4.2175,1.0129062500000001,0.036375,-0.58546875,1.1883125,0.9519375,-0.39125,-1.30565625,1.14759375,0.017531901809050378,0.028459546469971512,True
40365,140647,0,140648,3284.0,38463.0,27757.0,0.0040869999999999995,-0.0051849999999999995,-0.000305,-0.08750000000000001,-1.8550000000000002,-3.6225000000000005,1.00803125,0.03659375,-0.58959375,1.19225,0.95746875,-0.39803125,-1.29640625,1.1625625,0.017813937343817445,0.02794122188799051,True
40366,140648,0,140649,3284.0,38464.0,27756.0,0.006039,-0.005795,0.000915,-0.052500000000000005,-2.2575000000000003,-3.4125000000000005,1.0100625,0.03478125,-0.587125,1.1866875000000001,0.96690625,-0.38725,-1.308125,1.15071875,0.017305405488523714,0.028488874620304742,True
40367,140649,0,140650,3285.0,38463.0,27757.0,0.0048189999999999995,-0.004941,0.003294,0.08750000000000001,-2.4850000000000003,-3.325,1.00784375,0.03625,-0.59003125,1.18903125,0.9550937500000001,-0.39275,-1.2970625,1.1557187500000001,0.017587192915927887,0.02794914429293915,True
40368,140650,0,140651,3285.0,38463.0,27759.0,0.004148,-0.001464,0.000549,0.17500000000000002,-2.6775,-3.325,1.0088125000000001,0.038125,-0.58728125,1.19828125,0.9684375000000001,-0.3886875,-1.3034375,1.15490625,0.017500429246141272,0.028302725667214187,True
40369,140651,0,140652,3285.0,38463.0,27758.0,0.002745,0.000305,-0.0008539999999999999,0.29750000000000004,-2.9225000000000003,-3.3075,1.001125,0.03271875,-0.5870625,1.19465625,0.95425,-0.3886875,-1.2975,1.15765625,0.01727875885079917,0.02808330862733472,True
40370,140652,0,140653,3284.0,38465.0,27759.0,-0.00122,0.002989,-0.0044529999999999995,0.6125,-3.6925000000000003,-3.5175000000000005,1.00884375,0.03634375,-0.588,1.19115625,0.9567187500000001,-0.39137500000000003,-1.30246875,1.1534375000000001,0.017535655533974612,0.02823711619049031,True
40371,140653,0,140654,3285.0,38466.0,27760.0,6.1e-05,0.00244,-0.003111,0.5425000000000001,-4.2175,-3.6225000000000005,1.00871875,0.0396875,-0.589,1.191,0.9590000000000001,-0.39184375,-1.30134375,1.14121875,0.017691620790248788,0.02815438409274211,True
40372,140654,0,140655,3286.0,38466.0,27761.0,0.00042699999999999997,0.001464,-0.001586,0.5775,-4.9,-3.5700000000000003,1.0081875,0.03546875,-0.5870625,1.19084375,0.9656875,-0.39278125,-1.2995625,1.1593125,0.0175564235833091,0.028162542336453444,True
40373,140655,0,140656,3285.0,38469.0,27760.0,0.0017079999999999999,-0.000732,0.000244,0.7000000000000001,-5.32,-3.5000000000000004,1.01534375,0.03684375,-0.58703125,1.1964062500000001,0.9585312500000001,-0.389875,-1.303375,1.1537187500000001,0.017495733372967268,0.02831020565438405,True
40374,140656,0,140657,3287.0,38469.0,27762.0,0.0025009999999999998,-0.00061,0.002989,0.7875000000000001,-5.635000000000001,-3.5700000000000003,1.0085,0.03596875,-0.589875,1.19034375,0.95925,-0.38840625,-1.28975,1.1538125000000001,0.017400686032938296,0.027674255380144123,True
40375,140657,0,140658,3287.0,38468.0,27761.0,0.006344,0.000183,0.003172,0.7875000000000001,-6.125000000000001,-3.3950000000000005,1.01475,0.03646875,-0.58865625,1.1910625000000001,0.95765625,-0.39090625,-1.30271875,1.15284375,0.01752189917092564,0.028220781610671774,True
40376,140658,0,140659,3288.0,38468.0,27762.0,0.003538,0.001037,-0.000549,0.7525000000000001,-6.090000000000001,-3.2375000000000003,1.00834375,0.033375,-0.588375,1.1967812500000001,0.9655,-0.38978125,-1.3029375,1.15284375,0.017349735352792474,0.0282402981867224,True
40377,140659,0,140660,3287.0,38467.0,27761.0,0.000915,0.003904,-0.004148,0.7875000000000001,-6.2125,-3.1850000000000005,1.008625,0.03565625,-0.587125,1.19184375,0.95909375,-0.38584375,-1.30040625,1.1606875,0.017284618253161733,0.028192482087120635,True
40378,140660,0,140661,3289.0,38468.0,27763.0,-0.0017079999999999999,0.002257,-0.0034159999999999998,0.6475000000000001,-6.282500000000001,-2.9400000000000004,1.00834375,0.0360625,-0.580875,1.1904375,0.9578125000000001,-0.39415625,-1.299375,1.1586875,0.01763613980294973,0.02839991106499666,True
40379,140661,0,140662,3289.0,38466.0,27761.0,0.0048189999999999995,6.1e-05,-0.000976,0.6475000000000001,-6.265000000000001,-2.8000000000000003,1.01984375,0.03709375,-0.5910625,1.19521875,0.95815625,-0.3906875,-1.29953125,1.15303125,0.017538712264670686,0.028003236225967624,True
40380,140662,0,140663,3288.0,38466.0,27764.0,0.0060999999999999995,-0.0053679999999999995,-0.0011589999999999999,0.15750000000000003,-5.9675,-2.6950000000000003,1.00771875,0.0313125,-0.58621875,1.1893125,0.95296875,-0.39434375,-1.29928125,1.16103125,0.017448973186663403,0.028185089250312198,True
40381,140663,0,140664,3290.0,38465.0,27763.0,0.00183,-0.004514,0.001037,0.2625,-5.32,-2.7475,1.02096875,0.031781250000000004,-0.58490625,1.18875,0.96334375,-0.39053125,-1.29953125,1.14865625,0.017314608512268466,0.02824657077391503,True
40382,140664,0,140665,3291.0,38464.0,27763.0,0.0017079999999999999,-0.002074,0.001098,0.49000000000000005,-4.777500000000001,-3.0625000000000004,1.01740625,0.032875,-0.58596875,1.19375,0.9549062500000001,-0.39056250000000003,-1.299375,1.157875,0.017360710725716145,0.028198572099113115,True
40383,140665,0,140666,3290.0,38465.0,27763.0,0.004209,-0.0006709999999999999,0.0042699999999999995,0.6125,-4.48,-3.0975,1.01075,0.0370625,-0.5913125,1.1885625,0.9586250000000001,-0.39115625,-1.29334375,1.153375,0.017556312034202968,0.027755573044785747,True
40384,140666,0,140667,3288.0,38466.0,27765.0,0.0077469999999999995,0.000244,0.003111,0.7000000000000001,-4.095000000000001,-3.1325000000000003,0.99790625,0.03175,-0.5859375,1.180125,0.96384375,-0.3925625,-1.2984375000000001,1.1575,0.017395158872709662,0.02816379470075969,True
40385,140667,0,140668,3291.0,38461.0,27765.0,0.007442,0.001586,-0.002013,0.6125,-2.66,-3.5175000000000005,1.01621875,0.03321875,-0.58559375,1.18815625,0.9538125000000001,-0.38715625000000004,-1.29921875,1.15903125,0.017237557167002614,0.02820739276781027,True
40386,140668,0,140669,3290.0,38464.0,27768.0,0.004392,0.004392,-0.004026,0.6300000000000001,-1.6275000000000002,-3.9025000000000003,1.01825,0.039875,-0.5866250000000001,1.20165625,0.96275,-0.39059375,-1.299,1.156875,0.01764896559764971,0.028158227597928766,True
40387,140669,0,140670,3292.0,38465.0,27765.0,0.001647,0.0030499999999999998,-0.004392,0.6125,-0.6475000000000001,-4.0425,1.0159375,0.03734375,-0.5924375000000001,1.1885937500000001,0.959125,-0.39106250000000004,-1.300625,1.1533125,0.017564066756009505,0.02799090931548133,True
40388,140670,0,140671,3292.0,38465.0,27766.0,-0.003294,-0.001647,-0.005307,0.7000000000000001,0.15750000000000003,-4.235,1.0211875,0.04640625,-0.5925625,1.1895,0.9626250000000001,-0.39071875,-1.30115625,1.15259375,0.017921776085421837,0.02800637816700571,True
40389,140671,0,140672,3290.0,38465.0,27767.0,-0.003294,0.0046359999999999995,-0.004209,0.8750000000000001,0.35000000000000003,-5.5475,1.00934375,0.03346875,-0.58446875,1.1880625,0.9620625,-0.3918125,-1.29975,1.1534375000000001,0.017435409935198543,0.028272265536220715,True
40390,140672,0,140673,3291.0,38465.0,27769.0,-0.000183,0.003294,-0.0018909999999999999,1.155,0.6825000000000001,-5.442500000000001,1.0204375,0.0374375,-0.5876250000000001,1.194125,0.9624375000000001,-0.38915625,-1.3016875,1.15328125,0.017491123744799494,0.028221931837550365,True
40391,140673,0,140674,3292.0,38462.0,27767.0,-0.0008539999999999999,0.000305,0.002989,0.9275000000000001,1.4000000000000001,-5.32,1.0061875,0.0346875,-0.5866875,1.19575,0.95846875,-0.39284375,-1.3005,1.15640625,0.017526912990618405,0.028213375229738543,True
40392,140674,0,140675,3289.0,38463.0,27770.0,-0.003843,-0.003294,0.0042699999999999995,0.525,2.1350000000000002,-5.040000000000001,1.0130000000000001,0.03678125,-0.59096875,1.19034375,0.95996875,-0.386375,-1.3021562500000001,1.15309375,0.017352158736179527,0.02810778231598345,True
40393,140675,0,140676,3292.0,38465.0,27770.0,-0.008784,-0.003477,0.0075639999999999995,0.31500000000000006,3.0975,-4.83,1.0078125,0.03328125,-0.58675,1.19265625,0.9635312500000001,-0.3903125,-1.29975,1.15565625,0.01736729490448308,0.0281820966610342,True
40394,140676,0,140677,3290.0,38466.0,27771.0,-0.0071979999999999995,0.000305,0.0044529999999999995,0.385,3.7450000000000006,-4.6025,1.0145625,0.0366875,-0.58815625,1.19215625,0.9584375,-0.39134375,-1.30390625,1.15365625,0.017548489922782542,0.02828614653122974,True
40395,140677,0,140678,3292.0,38465.0,27770.0,-0.0059169999999999995,0.00183,0.00061,0.45500000000000007,3.6400000000000006,-4.357500000000001,1.0088125000000001,0.035875000000000004,-0.58984375,1.1836875,0.9589062500000001,-0.40078125000000003,-1.29790625,1.14525,0.0178951749751865,0.02798897636044485,True
40396,140678,0,140679,3290.0,38467.0,27771.0,-0.006222,0.002196,-0.0011589999999999999,0.5950000000000001,3.4825000000000004,-4.2,1.00803125,0.03303125,-0.59003125,1.19015625,0.9895,-0.38584375,-1.2959687500000001,1.17121875,0.017176973833435638,0.027907114646479003,True
40397,140679,0,140680,3291.0,38465.0,27769.0,-0.0025009999999999998,0.002745,-0.001586,0.5425000000000001,3.3075,-4.305000000000001,1.01071875,0.035,-0.5860625,1.19340625,0.96584375,-0.3868125,-1.3031875,1.1575312500000001,0.017296745935943863,0.028341290993476608,True
40398,140680,0,140681,3293.0,38462.0,27767.0,-0.003355,-0.00042699999999999997,-0.0021349999999999997,0.4025,3.1675000000000004,-4.130000000000001,1.01440625,0.0369375,-0.5903437500000001,1.19046875,0.94834375,-0.40075,-1.29328125,1.14946875,0.017937460938700658,0.027791471302285063,True
40399,140681,0,140682,3292.0,38459.0,27762.0,-0.005124,-0.004514,-0.004514,0.10500000000000001,2.2925000000000004,-4.235,1.0090625,0.03359375,-0.58765625,1.19021875,0.9811875,-0.38478125,-1.2995,1.17246875,0.0171572176805974,0.028136672661515053,True
40400,140682,0,140683,3291.0,38458.0,27762.0,-0.0026839999999999998,-0.004392,-0.002562,0.10500000000000001,1.7500000000000002,-4.41,1.0155,0.03771875,-0.590375,1.18375,0.9460000000000001,-0.39503125,-1.30146875,1.1411875,0.017739268114280445,0.0281048407515868,True
40401,140683,0,140684,3290.0,38457.0,27756.0,0.000183,-0.0035989999999999998,0.000793,0.12250000000000001,1.1725,-4.4625,1.0085,0.0346875,-0.58775,1.19021875,0.9695625,-0.38675,-1.29728125,1.169375,0.017281413062421192,0.028047727460831385,True
40402,140684,0,140685,3290.0,38457.0,27760.0,0.0015249999999999999,-0.0013419999999999999,0.00183,0.24500000000000002,0.7350000000000001,-4.567500000000001,1.016,0.043562500000000004,-0.5894375000000001,1.19090625,0.94603125,-0.39959375,-1.29628125,1.14965625,0.018162443790688113,0.027942595317246483,True
40403,140685,0,140686,3290.0,38456.0,27755.0,-0.001464,0.0,0.004514,0.45500000000000007,0.36750000000000005,-4.48,1.009125,0.0348125,-0.58684375,1.19665625,0.97975,-0.3878125,-1.3119375,1.1581875,0.01732935251982932,0.028646315597136728,True
40404,140686,0,140687,3289.0,38456.0,27754.0,-0.004941,0.007259,0.000305,0.9450000000000001,-0.8750000000000001,-4.4275,1.00925,0.03659375,-0.58828125,1.1903125,0.946625,-0.3990625,-1.293,1.14534375,0.017855450388718826,0.02786220495789349,True
40405,140687,0,140688,3287.0,38456.0,27754.0,-0.0028669999999999998,0.0071979999999999995,-0.000793,0.8925000000000001,-1.8900000000000001,-4.305000000000001,1.00834375,0.0344375,-0.59121875,1.193375,0.98240625,-0.39387500000000003,-1.2935625,1.1419062500000001,0.01755819852319486,0.027767687924546015,True
40406,140688,0,140689,3286.0,38456.0,27754.0,-0.00122,0.0077469999999999995,-0.0018909999999999999,0.7350000000000001,-2.7825,-4.357500000000001,1.0089062500000001,0.0365625,-0.5906875,1.19084375,0.96596875,-0.391125,-1.29528125,1.14559375,0.01753455406423443,0.027854750577244517,True
40407,140689,0,140690,3285.0,38455.0,27752.0,-0.00042699999999999997,0.0040869999999999995,-0.00122,0.6475000000000001,-3.5525,-4.0600000000000005,1.00896875,0.03284375,-0.58921875,1.18965625,0.96715625,-0.39003125,-1.2973125,1.1471875,0.017338026165915635,0.027990868595231217,True
40408,140690,0,140691,3287.0,38456.0,27751.0,-0.000244,0.0013419999999999999,0.001464,0.49000000000000005,-4.2875000000000005,-3.8500000000000005,1.0093125,0.03359375,-0.58603125,1.1905937500000001,0.9635312500000001,-0.39146875000000003,-1.299375,1.15278125,0.017426687353544464,0.02819610168235381,True
40409,140691,0,140692,3284.0,38454.0,27749.0,0.006039,-0.0035989999999999998,0.001769,0.17500000000000002,-6.0025,-3.4475000000000002,1.0083125,0.033125,-0.58903125,1.18965625,0.96359375,-0.389,-1.29984375,1.1516250000000001,0.01730800770839313,0.02809552924610453,True
40410,140692,0,140693,3284.0,38455.0,27752.0,0.006527,-0.004758,0.0026839999999999998,0.17500000000000002,-6.580000000000001,-3.2375000000000003,1.00846875,0.03678125,-0.58825,1.1948750000000001,0.94765625,-0.3916875,-1.3034375,1.1576250000000001,0.017566179051777372,0.028264440355188894,True
40411,140693,0,140694,3284.0,38455.0,27752.0,0.0064659999999999995,-0.003294,0.001952,0.28,-6.965000000000001,-3.325,1.0143125,0.039531250000000004,-0.586875,1.18675,0.9579062500000001,-0.39059375,-1.29946875,1.152875,0.017634872049804035,0.028166352307298942,True
40412,140694,0,140695,3284.0,38453.0,27749.0,0.006771,-0.0008539999999999999,-0.00042699999999999997,0.49000000000000005,-7.3500000000000005,-3.2375000000000003,1.0094375,0.036875,-0.58728125,1.1805,0.965375,-0.38990625,-1.30065625,1.160625,0.017498273491723653,0.028195908949990186,True
40413,140695,0,140696,3282.0,38452.0,27749.0,0.008052,0.0015249999999999999,-0.0008539999999999999,0.5775,-7.420000000000001,-3.0275000000000003,1.013625,0.0363125,-0.58965625,1.19065625,0.9653125,-0.39175,-1.299625,1.1525625,0.017549478819682888,0.028062421873842006,True
40414,140696,0,140697,3283.0,38451.0,27749.0,0.006893,-0.001464,0.001037,0.28,-6.982500000000001,-2.7825,1.0092812500000001,0.0360625,-0.58803125,1.1905937500000001,0.9591875,-0.39109375,-1.30115625,1.15603125,0.017512796038513034,0.028185470772704314,True
40415,140697,0,140698,3283.0,38451.0,27753.0,0.008784,-0.005795,-0.00042699999999999997,0.14,-6.562500000000001,-2.6425,1.0034375,0.0366875,-0.58815625,1.1953125,0.96284375,-0.39509375,-1.30353125,1.159875,0.017699511812697993,0.028271745667909496,True
40416,140698,0,140699,3283.0,38449.0,27752.0,0.006588,-0.006527,-0.002257,-0.052500000000000005,-5.95,-2.45,1.01565625,0.03325,-0.59171875,1.2055,0.9669375,-0.3909375,-1.2983437500000001,1.147875,0.017391192937950828,0.02793167042802951,True
40417,140699,0,140700,3282.0,38450.0,27753.0,0.003294,-0.005063,-0.0013419999999999999,0.035,-5.285,-2.6075000000000004,1.01403125,0.03234375,-0.5866875,1.18775,0.96009375,-0.3905,-1.2998750000000001,1.15228125,0.017336411717676966,0.02818936852454805,True
40418,140700,0,140701,3284.0,38450.0,27754.0,0.001037,-0.005124,0.0006709999999999999,0.1925,-4.655,-2.765,0.99590625,0.03775,-0.5851875,1.18353125,0.9588125000000001,-0.39025,-1.2993125,1.1485,0.017547995613001095,0.02822705162442656,True
40419,140701,0,140702,3282.0,38452.0,27754.0,0.0015249999999999999,0.00061,-0.002745,0.7350000000000001,-4.795000000000001,-4.077500000000001,1.0018125,0.038125,-0.58659375,1.18590625,0.9595312500000001,-0.3906875,-1.300125,1.15509375,0.01758099274569444,0.028202676864244738,True
40420,140702,0,140703,3282.0,38452.0,27754.0,0.007076,0.0059169999999999995,-0.00549,0.9625000000000001,-4.7250000000000005,-4.4975000000000005,0.99840625,0.029812500000000002,-0.5938125,1.1999375,0.96540625,-0.3944375,-1.3023125,1.153375,0.01739125979026981,0.028001393153293797,True
40421,140703,0,140704,3282.0,38449.0,27754.0,0.0071979999999999995,0.0077469999999999995,-0.0068319999999999995,1.1900000000000002,-4.130000000000001,-4.550000000000001,1.0084375,0.0415,-0.58465625,1.18425,0.95834375,-0.39078125,-1.299625,1.15303125,0.017723140787054534,0.02826005326165902,True
40422,140704,0,140705,3282.0,38451.0,27753.0,0.002623,0.010553,-0.005795,1.2075,-2.975,-4.48,0.98853125,0.037875,-0.59015625,1.20790625,0.9598125000000001,-0.39106250000000004,-1.30253125,1.1590625,0.017585847275000833,0.028154297803702932,True
40423,140705,0,140706,3281.0,38449.0,27751.0,-0.002562,0.009028,-0.004941,1.05,-1.8900000000000001,-4.340000000000001,1.0214375,0.0329375,-0.57953125,1.18465625,0.96365625,-0.390375,-1.29465625,1.1525,0.017355719213009234,0.028271781712787658,True
40424,140706,0,140707,3282.0,38451.0,27754.0,-0.0051849999999999995,-0.003721,0.0077469999999999995,0.4025,-0.4025,-4.165,1.00221875,0.03746875,-0.58509375,1.20609375,0.94965625,-0.39303125,-1.3039687500000001,1.14765625,0.017648483109289667,0.028409575079008115,True
40425,140707,0,140708,3282.0,38449.0,27754.0,-0.0017079999999999999,-0.0075639999999999995,0.007869,0.31500000000000006,-0.36750000000000005,-4.445,1.018375,0.039,-0.5845312500000001,1.18953125,0.9595312500000001,-0.39071875,-1.3005,1.1434375,0.01761812574711436,0.028298600818165646,True
40426,140708,0,140709,3282.0,38449.0,27754.0,0.002379,-0.0073809999999999995,0.0060999999999999995,0.17500000000000002,-0.0175,-4.7075000000000005,1.02371875,0.03040625,-0.58984375,1.1938125,0.9675312500000001,-0.3911875,-1.2979375,1.1520625,0.017284675049134036,0.02799017706482989,True
40427,140709,0,140710,3282.0,38446.0,27752.0,0.0008539999999999999,-0.0053679999999999995,0.003721,0.12250000000000001,0.47250000000000003,-4.83,1.00196875,0.038125,-0.58296875,1.20153125,0.9590625,-0.3913125,-1.300625,1.1608125,0.017606166129846435,0.028365158963464338,True
40428,140710,0,140711,3283.0,38448.0,27752.0,-0.001647,-0.003355,0.0,0.14,1.3125000000000002,-4.777500000000001,1.01403125,0.0389375,-0.5858125,1.1861875,0.961,-0.38956250000000003,-1.30075,1.159125,0.01756899083368142,0.028257561534737116,True
40429,140711,0,140712,3280.0,38447.0,27753.0,-0.006405,-0.000915,-0.0040869999999999995,0.15750000000000003,2.7125000000000004,-4.585000000000001,1.01196875,0.03515625,-0.58534375,1.1951875,0.9649375,-0.39387500000000003,-1.2995,1.15265625,0.017587662886687744,0.028228077629992687,True
40430,140712,0,140713,3281.0,38447.0,27750.0,-0.009637999999999999,0.0013419999999999999,-0.0032329999999999998,0.31500000000000006,3.0450000000000004,-4.48,0.9995937500000001,0.0405625,-0.589,1.1979375,0.9587187500000001,-0.3916875,-1.30221875,1.1585,0.01772120112640833,0.028187992406792386,True
40431,140713,0,140714,3281.0,38448.0,27753.0,-0.010858,0.0051849999999999995,-0.0018909999999999999,0.5425000000000001,2.975,-4.550000000000001,1.0075,0.0371875,-0.5874375000000001,1.19034375,0.9595,-0.39078125,-1.30103125,1.15809375,0.017546332182369107,0.02820413693611797,True
40432,140714,0,140715,3283.0,38449.0,27753.0,-0.011833999999999999,0.0055509999999999995,-6.1e-05,0.7350000000000001,2.4675000000000002,-4.69,1.00934375,0.0339375,-0.5875312500000001,1.19325,0.96646875,-0.39025,-1.3009375,1.1592500000000001,0.017391683152079212,0.02819683065103813,True
40433,140715,0,140716,3282.0,38449.0,27753.0,-0.007808,0.004514,0.0,0.7350000000000001,1.61,-4.83,1.0156875,0.039875,-0.5881875,1.19353125,0.958875,-0.39071875,-1.3038125,1.1606875,0.01765400004868655,0.028281311363653208,True
40434,140716,0,140717,3282.0,38449.0,27753.0,-0.0013419999999999999,0.001952,0.000366,0.42000000000000004,-0.0175,-4.7075000000000005,1.01625,0.03684375,-0.58784375,1.18634375,0.9636875,-0.39015625,-1.3000625000000001,1.1593437500000001,0.017507062916007354,0.028150869192516824,True
40435,140717,0,140718,3282.0,38447.0,27755.0,-0.001769,-0.0006709999999999999,0.002013,0.35000000000000003,-0.385,-4.41,1.0031875000000001,0.0350625,-0.584875,1.18946875,0.96503125,-0.39059375,-1.29609375,1.1564375,0.017451655927810287,0.02811575403811112,True
40436,140718,0,140719,3281.0,38451.0,27756.0,-0.003721,-0.001952,0.002989,0.10500000000000001,-0.7525000000000001,-4.165,1.0149062500000001,0.03271875,-0.5884375000000001,1.19034375,0.96828125,-0.39056250000000003,-1.300375,1.14465625,0.017354304559396693,0.028139405048344147,True
40437,140719,0,140720,3281.0,38449.0,27756.0,-0.0035989999999999998,-0.0032329999999999998,0.003538,-0.035,-1.225,-4.0425,1.0090937500000001,0.0338125,-0.5901875,1.190625,0.9659375,-0.3929375,-1.29934375,1.1516875,0.017494817916046398,0.02803061838313494,True
40438,140720,0,140721,3283.0,38449.0,27757.0,-0.003355,-0.0030499999999999998,0.001403,0.15750000000000003,-2.24,-3.9375000000000004,1.00865625,0.03609375,-0.5891875,1.1978125,0.9611875,-0.3923125,-1.3030625,1.152125,0.01756316667392647,0.028212988052335564,True
40439,140721,0,140722,3283.0,38448.0,27757.0,0.0070149999999999995,-0.000915,0.002257,0.21000000000000002,-4.112500000000001,-3.7450000000000006,1.00734375,0.03696875,-0.588,1.18075,0.9586250000000001,-0.391125,-1.3021562500000001,1.1591875,0.017551209712549136,0.028225114213339036,True
40440,140722,0,140723,3282.0,38447.0,27758.0,0.010797,-0.001769,0.0008539999999999999,0.14,-4.550000000000001,-3.5700000000000003,1.01525,0.034875,-0.58971875,1.19028125,0.9648125000000001,-0.39106250000000004,-1.2999375,1.152625,0.017462851403049786,0.028071956699497778,True
40441,140723,0,140724,3282.0,38447.0,27756.0,0.008113,0.000366,-0.001952,0.1925,-4.532500000000001,-3.3950000000000005,1.00178125,0.03825,-0.58965625,1.1984375,0.95925,-0.38556250000000003,-1.3038750000000001,1.155875,0.017379648306246782,0.028225667017403464,True
40442,140724,0,140725,3281.0,38446.0,27758.0,0.0050019999999999995,0.000366,-0.004331,0.5950000000000001,-4.585000000000001,-3.2900000000000005,1.0159375,0.034375,-0.59065625,1.1899375,0.95828125,-0.39046875000000003,-1.3010625,1.15225,0.01741843317381918,0.028078119248944586,True
40443,140725,0,140726,3281.0,38446.0,27758.0,0.006893,0.002257,-0.004331,0.5775,-4.585000000000001,-3.3775000000000004,1.00390625,0.038125,-0.5894375000000001,1.1945625,0.96315625,-0.39303125,-1.3034375,1.15140625,0.017675386284761146,0.028217509972706275,True
40444,140726,0,140727,3282.0,38445.0,27757.0,0.006405,0.000305,-0.003294,0.3325,-4.7075000000000005,-3.5175000000000005,1.00871875,0.0369375,-0.5895312500000001,1.190125,0.9586875,-0.39156250000000004,-1.30109375,1.15546875,0.01756755025431438,0.028123784174350165,True
40445,140727,0,140728,3283.0,38446.0,27759.0,0.003355,-0.001037,-0.002257,0.35000000000000003,-4.4975000000000005,-3.6050000000000004,1.01140625,0.03559375,-0.588375,1.19565625,0.9599062500000001,-0.3904375,-1.3029375,1.1503125,0.017467142604555574,0.0282402981867224,True
40446,140728,0,140729,3282.0,38444.0,27758.0,0.0,-0.0013419999999999999,-0.001403,0.24500000000000002,-4.2,-3.5875000000000004,1.01378125,0.03859375,-0.588375,1.1941875,0.9545625,-0.39,-1.30390625,1.15846875,0.01757251947519475,0.028277501620920683,True
40447,140729,0,140730,3283.0,38443.0,27758.0,-0.002928,-0.00122,0.000244,0.2625,-4.077500000000001,-3.6225000000000005,1.01203125,0.03690625,-0.583125,1.1947812500000001,0.958875,-0.39121875,-1.30165625,1.1572500000000001,0.017552423451575167,0.02839858556690335,True
40448,140730,0,140731,3283.0,38447.0,27758.0,-0.0023179999999999997,-0.0006709999999999999,0.005673,0.2625,-3.99,-3.6050000000000004,1.01321875,0.0368125,-0.5881875,1.1938125,0.95921875,-0.3913125,-1.29778125,1.1583125,0.0175523559874033,0.0280496436816964,True
40449,140731,0,140732,3284.0,38446.0,27757.0,-0.001403,-0.000183,0.004758,0.47250000000000003,-4.095000000000001,-3.5000000000000004,1.01046875,0.03721875,-0.59,1.186375,0.9595625,-0.39087500000000003,-1.302,1.1450625,0.0175513896077939,0.028140067978815908,True
40450,140732,0,140733,3284.0,38446.0,27758.0,0.002928,0.0008539999999999999,0.0026839999999999998,0.4025,-4.165,-3.5525,1.00871875,0.036375,-0.5899375,1.190625,0.9589375,-0.39421875,-1.30128125,1.15340625,0.017651467112469014,0.02811492995043482,True
40451,140733,0,140734,3284.0,38443.0,27758.0,0.0060999999999999995,0.0023179999999999997,-0.00061,0.49000000000000005,-4.025,-3.5525,1.00903125,0.03603125,-0.58759375,1.1908125,0.967875,-0.3898125,-1.2949375,1.16478125,0.01745990257202674,0.02796384652067237,True
40452,140734,0,140735,3285.0,38442.0,27756.0,0.0066489999999999995,0.0044529999999999995,-0.0050019999999999995,0.56,-3.5875000000000004,-3.6575,1.015625,0.03734375,-0.588,1.19671875,0.95775,-0.390125,-1.30403125,1.148875,0.01752630419073293,0.028297121629582242,True
40453,140735,0,140736,3284.0,38441.0,27756.0,0.00061,-0.0017079999999999999,-0.0006709999999999999,0.5775,-1.9250000000000003,-3.4125000000000005,1.00878125,0.036375,-0.5926875,1.19028125,0.95653125,-0.38846875000000003,-1.30075,1.15015625,0.017419861589301297,0.027985830459571356,True
40454,140736,0,140737,3284.0,38441.0,27756.0,-0.004575,-0.005673,0.000244,0.17500000000000002,-1.4700000000000002,-3.6225000000000005,1.00834375,0.035250000000000004,-0.59475,1.17634375,0.9575312500000001,-0.39337500000000003,-1.2991875,1.14978125,0.017571369275469265,0.027844273655033388,True
40455,140737,0,140738,3284.0,38438.0,27755.0,-0.008967,-0.0017079999999999999,-0.0015249999999999999,0.24500000000000002,-1.5750000000000002,-4.025,1.0095,0.02821875,-0.58759375,1.18090625,0.9678125000000001,-0.39253125,-1.2995,1.15234375,0.01724913235480635,0.0281391430660685,True
40456,140738,0,140739,3283.0,38441.0,27757.0,-0.0070149999999999995,0.002928,-0.00183,0.5075000000000001,-2.0475000000000003,-4.340000000000001,1.03940625,0.039968750000000004,-0.59078125,1.20034375,0.97209375,-0.3895,-1.30153125,1.1632500000000001,0.01760875581705242,0.028091185192595805,True
40457,140739,0,140740,3284.0,38441.0,27755.0,-0.003904,0.003172,-0.000793,0.5425000000000001,-2.5725000000000002,-4.235,0.995625,0.0330625,-0.5900625,1.17959375,0.95678125,-0.3919375,-1.30328125,1.14984375,0.01742379013557246,0.028186808776035712,True
40458,140740,0,140741,3283.0,38439.0,27752.0,-0.0028669999999999998,-0.000732,0.0015249999999999999,0.17500000000000002,-3.5000000000000004,-4.095000000000001,0.994125,0.02925,-0.5825625,1.19375,0.9555625,-0.39690625,-1.2975625,1.15540625,0.017467634856366265,0.02826359258920696,True
40459,140741,0,140742,3285.0,38437.0,27746.0,-0.002257,-0.0026839999999999998,0.00488,0.12250000000000001,-3.6750000000000003,-3.7975000000000003,1.02315625,0.03815625,-0.5956875,1.17846875,0.96584375,-0.39056250000000003,-1.303625,1.150125,0.01757723914731364,0.02797771070350592,True
40460,140742,0,140743,3284.0,38436.0,27746.0,-0.0023179999999999997,-0.002379,0.0042699999999999995,0.17500000000000002,-3.8675,-3.5875000000000004,1.025125,0.03096875,-0.5838125000000001,1.211,0.96790625,-0.39125,-1.2993125,1.16184375,0.017310254701993544,0.028281400927396744,True
40461,140743,0,140744,3284.0,38433.0,27742.0,-0.0008539999999999999,-0.0008539999999999999,0.003111,0.35000000000000003,-4.235,-3.6050000000000004,1.0010625,0.033875,-0.5952500000000001,1.17865625,0.955375,-0.39215625,-1.3011875,1.14903125,0.017465911813351883,0.027901358384858414,True
40462,140744,0,140745,3283.0,38435.0,27741.0,0.003843,0.002013,0.0011589999999999999,0.4025,-4.445,-3.5175000000000005,1.008625,0.02621875,-0.58421875,1.2024375,0.9685312500000001,-0.39075,-1.2984375000000001,1.16003125,0.01709536402119656,0.028231733679204504,True
40463,140745,0,140746,3281.0,38432.0,27738.0,0.0034159999999999998,0.00061,-0.00183,0.29750000000000004,-4.777500000000001,-3.6400000000000006,1.01753125,0.039968750000000004,-0.59521875,1.192125,0.9586250000000001,-0.390375,-1.3054375,1.15365625,0.01764399891350584,0.02806585541150988,True
40464,140746,0,140747,3282.0,38432.0,27738.0,0.000976,-0.00122,-0.00366,0.07,-4.9175,-3.6050000000000004,0.98778125,0.0310625,-0.59175,1.18475,0.95396875,-0.3934375,-1.300375,1.1516875,0.017402221396635876,0.02800847813520551,True
40465,140747,0,140748,3281.0,38430.0,27737.0,6.1e-05,-0.00042699999999999997,-0.003355,0.0,-5.075,-3.6400000000000006,0.995125,0.03703125,-0.59653125,1.1946875000000001,0.95875,-0.39325,-1.3035625,1.1515,0.017639357199225197,0.027941964693706668,True
40466,140748,0,140749,3280.0,38430.0,27736.0,-0.0011589999999999999,0.000732,-0.0050019999999999995,0.08750000000000001,-5.477500000000001,-3.6050000000000004,0.9971875,0.03590625,-0.592375,1.189125,0.959375,-0.39403125,-1.30284375,1.152375,0.017624700714442183,0.02807861270534068,True
40467,140749,0,140750,3279.0,38429.0,27735.0,0.0,0.000549,-0.00488,0.12250000000000001,-6.0200000000000005,-3.7450000000000006,1.0040625,0.038,-0.5923437500000001,1.19553125,0.95878125,-0.395,-1.30125,1.15178125,0.017749538839926214,0.02801862556197816,True
40468,140750,0,140751,3278.0,38431.0,27734.0,0.00244,0.002379,-0.0059169999999999995,-0.14,-6.44,-4.0425,1.00871875,0.04128125,-0.5886875,1.19625,0.9589375,-0.39340625,-1.3035625,1.15246875,0.017819877041567327,0.02825195068876171,True
40469,140751,0,140752,3279.0,38430.0,27733.0,0.009882,0.00042699999999999997,0.0037819999999999998,-0.07,-6.317500000000001,-4.1825,1.003875,0.0366875,-0.5878125,1.1914375,0.95965625,-0.39137500000000003,-1.29946875,1.15415625,0.017549748630407265,0.028129296193225403,True
40470,140752,0,140753,3277.0,38428.0,27732.0,0.012993,-0.0034159999999999998,0.005673,-0.21000000000000002,-6.107500000000001,-4.025,1.01546875,0.03646875,-0.5880625,1.19465625,0.9586250000000001,-0.3908125,-1.303,1.15240625,0.017518122858760855,0.028255048808441683,True
40471,140753,0,140754,3277.0,38428.0,27734.0,0.013237,-0.005246,0.0040869999999999995,-0.2625,-5.215000000000001,-3.7625,1.0090625,0.03203125,-0.58846875,1.1890625000000001,0.96046875,-0.3928125,-1.2978750000000001,1.158875,0.017416759547510152,0.028042128044351557,True
40472,140754,0,140755,3277.0,38428.0,27732.0,0.0037819999999999998,-0.0050019999999999995,0.016531,-0.10500000000000001,-3.7800000000000002,-3.535,1.01559375,0.03640625,-0.58703125,1.196125,0.96246875,-0.39090625,-1.30428125,1.1455625,0.017519336740511638,0.028345005847577674,True
40473,140755,0,140756,3276.0,38428.0,27731.0,0.002745,-0.000183,0.002562,0.052500000000000005,-2.5025000000000004,-3.9550000000000005,1.0079375,0.04040625,-0.58815625,1.1949687500000001,0.95928125,-0.38925,-1.30184375,1.15646875,0.01761662412743319,0.028206936500427954,True
40474,140756,0,140757,3276.0,38429.0,27732.0,-0.00042699999999999997,-0.0042699999999999995,-0.0053679999999999995,0.1925,-2.0125,-3.7800000000000002,1.00875,0.0341875,-0.5830625,1.1956875,0.9590000000000001,-0.39287500000000003,-1.3000625000000001,1.15965625,0.017507673859682386,0.028339850939103416,True
40475,140757,0,140758,3275.0,38425.0,27732.0,0.002196,0.00244,-0.012078,0.35000000000000003,-1.8025000000000002,-4.112500000000001,1.00884375,0.03275,-0.5883125,1.18915625,0.95740625,-0.39021875,-1.2956875,1.158875,0.017341736633665904,0.02796425280000791,True
40476,140758,0,140759,3277.0,38426.0,27730.0,0.0028669999999999998,0.006161,-0.012383,0.6300000000000001,-1.5225000000000002,-4.2700000000000005,1.0101875,0.03465625,-0.5869375,1.18996875,0.96690625,-0.38965625,-1.300625,1.1574375000000001,0.017397231664550417,0.028208295249623278,True
40477,140759,0,140760,3276.0,38424.0,27733.0,0.001647,0.006344,-0.0071979999999999995,0.8750000000000001,-0.9100000000000001,-4.165,0.9986875000000001,0.0345625,-0.58765625,1.19015625,0.9676250000000001,-0.39,-1.30009375,1.1595,0.017407236572365724,0.0281594806343356,True
40478,140760,0,140761,3276.0,38425.0,27734.0,-0.005063,0.0013419999999999999,-0.00122,0.29750000000000004,0.31500000000000006,-4.2875000000000005,1.0010000000000001,0.0331875,-0.5866875,1.195,0.964125,-0.3909375,-1.295125,1.146125,0.017388630510819847,0.028006878795815402,True
40479,140761,0,140762,3274.0,38423.0,27733.0,-0.008905999999999999,-0.000488,0.0044529999999999995,0.29750000000000004,0.805,-4.357500000000001,1.014375,0.03709375,-0.591125,1.1905000000000001,0.959375,-0.391625,-1.3031875,1.15196875,0.01757647348218907,0.02814121738614947,True
40480,140762,0,140763,3276.0,38426.0,27732.0,-0.011407,-0.000183,0.006039,0.45500000000000007,0.7525000000000001,-4.532500000000001,1.008875,0.0331875,-0.5875,1.1905937500000001,0.9665,-0.389625,-1.30078125,1.1505625,0.017335752394717015,0.02819206422726571,True
40481,140763,0,140764,3277.0,38426.0,27734.0,-0.011895,-0.000122,0.006527,0.56,0.56,-4.6375,1.014125,0.03678125,-0.59175,1.1905000000000001,0.9589375,-0.39090625,-1.301,1.1520625,0.017534711322995635,0.02803248883443342,True
40482,140764,0,140765,3276.0,38426.0,27732.0,-0.013786,0.0013419999999999999,0.004026,0.6825000000000001,0.052500000000000005,-4.7075000000000005,1.008875,0.0344375,-0.5876250000000001,1.19246875,0.964,-0.39025,-1.29990625,1.1586875,0.01741218314695421,0.02815351341469892,True
40483,140765,0,140766,3277.0,38427.0,27733.0,-0.011041,0.0013419999999999999,0.00042699999999999997,0.5425000000000001,-1.7675,-4.742500000000001,1.0109062500000001,0.04478125,-0.591125,1.18834375,0.9581875,-0.39237500000000003,-1.30184375,1.15225,0.017921840329201237,0.028089603153920353,True
40484,140766,0,140767,3277.0,38429.0,27733.0,-0.008113,-0.000183,0.000305,0.525,-2.6075000000000004,-4.4275,1.00834375,0.03609375,-0.58840625,1.19034375,0.95965625,-0.39340625,-1.2999687500000001,1.152625,0.01760721711425603,0.028125034739420383,True
40485,140767,0,140768,3277.0,38428.0,27732.0,-0.005124,-0.0015249999999999999,0.0017079999999999999,0.4025,-3.5700000000000003,-4.235,1.0091875000000001,0.03434375,-0.58825,1.19225,0.96378125,-0.390625,-1.29959375,1.15165625,0.017423446508648303,0.028116805235261933,True
40486,140768,0,140769,3277.0,38426.0,27732.0,-0.0006709999999999999,-0.00244,0.0032329999999999998,0.2625,-4.6375,-3.99,1.0085,0.03675,-0.58884375,1.19121875,0.9615312500000001,-0.39271875,-1.3003125,1.15225,0.017606432247327903,0.0281209471226887,True
40487,140769,0,140770,3276.0,38424.0,27733.0,0.006344,-0.003721,0.004575,0.052500000000000005,-5.5475,-3.7625,1.0089062500000001,0.03771875,-0.58759375,1.19015625,0.96484375,-0.39028125,-1.30053125,1.161875,0.017547973129666147,0.028178756127897508,True
40488,140770,0,140771,3276.0,38425.0,27732.0,0.020862,-0.00488,-0.002623,-0.052500000000000005,-6.195,-3.0450000000000004,1.014625,0.03584375,-0.587875,1.1966875000000001,0.9590625,-0.38990625,-1.30403125,1.1423125,0.017455991656384496,0.028302061553927296,True
40489,140771,0,140772,3277.0,38421.0,27732.0,0.02135,-0.001403,-0.009516,-0.052500000000000005,-5.74,-2.8875,1.000875,0.03621875,-0.59059375,1.19553125,0.95015625,-0.39446875000000003,-1.30096875,1.1493125,0.01765512930057147,0.028076988158803207,True
40490,140772,0,140773,3274.0,38419.0,27730.0,0.018543999999999998,-0.0011589999999999999,-0.008418,0.12250000000000001,-4.550000000000001,-2.8350000000000004,1.00784375,0.04071875,-0.590125,1.1851875,0.9734375000000001,-0.39590625,-1.29746875,1.14778125,0.017897469990482525,0.027961048474464463,True
40491,140773,0,140774,3277.0,38418.0,27731.0,0.011467999999999999,0.002623,-0.010187,0.47250000000000003,-3.6225000000000005,-3.08,1.0018125,0.03596875,-0.59071875,1.19821875,0.9745312500000001,-0.39496875000000004,-1.29659375,1.1464375,0.017665015455287272,0.02790395446027195,True
40492,140774,0,140775,3276.0,38415.0,27731.0,0.009455,0.0046359999999999995,-0.00732,0.5775,-2.8875,-3.4650000000000003,1.0084375,0.03559375,-0.58840625,1.18965625,0.96759375,-0.3916875,-1.29778125,1.16640625,0.01751749443329823,0.02804099667831542,True
40493,140775,0,140776,3276.0,38417.0,27731.0,0.0046359999999999995,0.0025009999999999998,-0.000793,0.3325,-1.225,-4.165,1.0088125000000001,0.03678125,-0.58728125,1.1894375,0.95315625,-0.39309375,-1.29934375,1.1409375,0.01762281588410654,0.0281454929043367,True
40494,140776,0,140777,3275.0,38418.0,27730.0,-0.0018909999999999999,-0.000488,0.005795,0.43750000000000006,-0.0175,-4.2875000000000005,0.99703125,0.03409375,-0.58703125,1.1909687500000001,0.96378125,-0.38528125,-1.300375,1.16646875,0.01719787422997223,0.028194987228450173,True
40495,140777,0,140778,3277.0,38416.0,27732.0,-0.009333,-0.00183,0.00732,0.385,1.05,-4.4625,1.01496875,0.03659375,-0.58578125,1.1969375,0.9527187500000001,-0.38884375,-1.305125,1.14784375,0.017443938891116968,0.028426800895075606,True
40496,140778,0,140779,3276.0,38416.0,27730.0,-0.013297999999999999,0.001769,0.005124,0.385,1.6275000000000002,-4.777500000000001,1.008375,0.03640625,-0.5874375000000001,1.1900625,0.96028125,-0.3975625,-1.2964375000000001,1.146625,0.017787381423861503,0.028027661997860373,True
40497,140779,0,140780,3277.0,38417.0,27732.0,-0.012199999999999999,0.0025009999999999998,0.0040869999999999995,0.5950000000000001,1.8200000000000003,-4.795000000000001,1.00934375,0.03553125,-0.58715625,1.19246875,0.97809375,-0.389125,-1.30490625,1.15975,0.017411705011967423,0.02836406477498805,True
40498,140780,0,140781,3277.0,38416.0,27734.0,-0.009637999999999999,-0.000915,0.000732,0.28,2.0125,-4.515000000000001,1.009125,0.03584375,-0.58940625,1.19034375,0.9514375,-0.39690625,-1.296375,1.1497187500000001,0.017737904780447317,0.027947433179655187,True
40499,140781,0,140782,3275.0,38415.0,27733.0,-0.011407,-0.002745,0.00061,0.15750000000000003,1.995,-4.4275,1.008375,0.03309375,-0.58709375,1.18959375,0.9720625,-0.388125,-1.300125,1.16046875,0.017271469208887523,0.028182914116036975,True
40500,140782,0,140783,3276.0,38416.0,27733.0,-0.009637999999999999,-0.001769,-0.000305,0.22750000000000004,1.7500000000000002,-4.305000000000001,1.01521875,0.037375,-0.58915625,1.19003125,0.9549375,-0.392125,-1.3001562500000001,1.14846875,0.017608141972050406,0.028102593239913293,True
40501,140783,0,140784,3277.0,38417.0,27733.0,-0.006588,-0.002074,0.0,0.2625,1.225,-4.2700000000000005,1.00840625,0.03325,-0.5883125,1.195625,0.96303125,-0.38940625,-1.2999687500000001,1.1555312500000001,0.017329501410064053,0.028128740277594218,True
40502,140784,0,140785,3276.0,38417.0,27734.0,-0.006222,0.000793,-0.0008539999999999999,0.525,0.385,-4.2875000000000005,1.0078125,0.03615625,-0.58975,1.1908125,0.95884375,-0.39121875,-1.29728125,1.1523125,0.017521674680565112,0.027968667581620057,True
40503,140785,0,140786,3278.0,38418.0,27734.0,-0.001281,0.000488,-0.000549,0.43750000000000006,-1.2950000000000002,-4.445,1.0079375,0.0336875,-0.58209375,1.192,0.966125,-0.3893125,-1.29484375,1.15578125,0.017343662311104506,0.028177679492485504,True
40504,140786,0,140787,3278.0,38416.0,27734.0,0.000549,0.001098,0.000549,0.45500000000000007,-1.995,-4.305000000000001,1.01353125,0.03684375,-0.589,1.1905000000000001,0.95934375,-0.39284375,-1.3002500000000001,1.15253125,0.01761530981806908,0.02811237043112223,True
40505,140787,0,140788,3278.0,38417.0,27732.0,0.002196,0.000305,0.001769,0.42000000000000004,-2.555,-4.1825,1.0088125000000001,0.03365625,-0.58628125,1.19009375,0.9685625,-0.39065625,-1.29925,1.15346875,0.017396518390110968,0.02818141842149471,True
40506,140788,0,140789,3279.0,38417.0,27732.0,0.004575,-0.000549,0.0030499999999999998,0.2625,-3.0100000000000002,-3.8150000000000004,1.015375,0.035937500000000004,-0.58696875,1.1812500000000001,0.9668125000000001,-0.39053125,-1.29971875,1.15875,0.017485012754693486,0.028172249938549217,True
40507,140789,0,140790,3280.0,38413.0,27733.0,0.0044529999999999995,-0.001952,0.002257,0.2625,-3.3600000000000003,-3.4475000000000002,1.0147187500000001,0.03746875,-0.58709375,1.19565625,0.96034375,-0.39084375,-1.3021875,1.15165625,0.01756038062438902,0.028262131485667006,True
40508,140790,0,140791,3280.0,38417.0,27736.0,0.004514,-0.0008539999999999999,-0.0025009999999999998,0.385,-3.8500000000000005,-3.43,1.008125,0.03703125,-0.58421875,1.18846875,0.95903125,-0.39328125,-1.29603125,1.15115625,0.017640615692077095,0.028139295566374668,True
40509,140791,0,140792,3278.0,38413.0,27734.0,0.005856,0.0021349999999999997,-0.0032329999999999998,0.45500000000000007,-4.0600000000000005,-3.3950000000000005,1.00884375,0.03453125,-0.58665625,1.1898125,0.96578125,-0.3923125,-1.3,1.1586875,0.017499109606766476,0.028195405138339923,True
40510,140792,0,140793,3281.0,38417.0,27734.0,0.008173999999999999,0.001464,-0.002257,0.5425000000000001,-4.1825,-3.325,1.02046875,0.03653125,-0.58765625,1.20253125,0.958125,-0.39034375,-1.29775,1.15503125,0.01750180335199253,0.028069442934648338,True
40511,140793,0,140794,3282.0,38413.0,27737.0,0.008723,-0.00042699999999999997,-0.002074,0.43750000000000006,-3.9025000000000003,-3.325,1.007625,0.041,-0.59196875,1.18884375,0.95878125,-0.39437500000000003,-1.29915625,1.1523125,0.01784735210473726,0.027953007326084245,True
40512,140794,0,140795,3282.0,38417.0,27736.0,-0.0011589999999999999,-0.000549,-0.000732,0.31500000000000006,-3.6750000000000003,-3.3075,1.004875,0.03215625,-0.58596875,1.187,0.96621875,-0.38934375,-1.29971875,1.15875,0.01728213781889888,0.028211776069645044,True
40513,140795,0,140796,3283.0,38415.0,27738.0,-0.000244,0.000122,0.001647,0.35000000000000003,-3.5000000000000004,-3.6400000000000006,1.015625,0.034875,-0.58603125,1.190625,0.9680625,-0.389625,-1.299625,1.1519375,0.01740494165039438,0.02820570463000934,True
40514,140796,0,140797,3283.0,38416.0,27739.0,0.0030499999999999998,-0.000793,0.0015249999999999999,0.2625,-3.4650000000000003,-3.43,1.01853125,0.03753125,-0.58646875,1.19959375,0.9549062500000001,-0.39028125,-1.3016875,1.1569375,0.017540285641437614,0.02826763037050395,True
40515,140797,0,140798,3283.0,38414.0,27737.0,0.003965,-0.000244,0.0013419999999999999,0.31500000000000006,-3.325,-3.3775000000000004,1.0056875,0.0385,-0.589875,1.181375,0.95928125,-0.39140625,-1.29803125,1.152875,0.017625316293520387,0.027992543886196673,True
40516,140798,0,140799,3283.0,38413.0,27738.0,0.00183,-0.000793,0.0006709999999999999,0.43750000000000006,-2.9050000000000002,-3.325,1.0025625,0.03559375,-0.58575,1.187375,0.966875,-0.3899375,-1.298875,1.1589375,0.017447000427942876,0.02818801231280047,True
40517,140799,0,140800,3284.0,38411.0,27737.0,6.1e-05,0.002013,-0.00183,0.5075000000000001,-2.2225,-3.3775000000000004,1.02115625,0.03821875,-0.58609375,1.1829375,0.9636875,-0.390125,-1.29340625,1.150875,0.017562179365624406,0.027964303937908722,True
40518,140800,0,140801,3283.0,38413.0,27735.0,0.0011589999999999999,0.001098,-0.002379,0.6300000000000001,-2.0650000000000004,-3.5000000000000004,1.01453125,0.03721875,-0.58925,1.1894375,0.95928125,-0.39128125,-1.3003437500000001,1.1519062500000001,0.01756775282151281,0.028106090455786794,True
40519,140801,0,140802,3283.0,38412.0,27729.0,0.0017079999999999999,-0.000366,-0.001952,0.6300000000000001,-1.7500000000000002,-3.5175000000000005,1.0055625,0.04103125,-0.59221875,1.1888750000000001,0.95928125,-0.39171875,-1.29328125,1.152375,0.017741677182957844,0.02771734094405011,True
40520,140802,0,140803,3281.0,38408.0,27728.0,-0.0028669999999999998,-0.000122,-0.000122,0.49000000000000005,-1.225,-3.535,1.00640625,0.031125,-0.58959375,1.1875,0.9583125,-0.39237500000000003,-1.29903125,1.1519062500000001,0.01736198299673566,0.02804208165085373,True
40521,140803,0,140804,3280.0,38408.0,27725.0,-0.0062829999999999995,-0.002562,-0.0006709999999999999,0.4025,-0.8925000000000001,-3.6575,1.0116875,0.03259375,-0.58546875,1.1869375,0.9626250000000001,-0.38956250000000003,-1.298375,1.15503125,0.017308889817109267,0.028179922623488667,True
40522,140804,0,140805,3279.0,38407.0,27722.0,-0.002074,0.001647,0.001769,0.56,-0.805,-3.7275000000000005,1.01296875,0.03309375,-0.58546875,1.1885937500000001,0.9639062500000001,-0.39053125,-1.2993125,1.1554375000000001,0.017368420378297417,0.028215934721546293,True
40523,140805,0,140806,3280.0,38405.0,27721.0,0.000366,0.0008539999999999999,0.0032329999999999998,0.5075000000000001,-0.7525000000000001,-3.5700000000000003,1.00853125,0.03484375,-0.5896250000000001,1.19021875,0.9626250000000001,-0.390375,-1.29884375,1.1523125,0.017433875042921647,0.02803364284187889,True
40524,140806,0,140807,3278.0,38406.0,27720.0,-0.000488,0.000366,0.0017079999999999999,0.5075000000000001,-0.56,-3.43,1.01009375,0.0335,-0.58646875,1.1915625,0.96440625,-0.39053125,-1.29953125,1.16084375,0.017385076432068283,0.02818481073636493,True
40525,140807,0,140808,3278.0,38403.0,27719.0,-6.1e-05,0.00122,0.002379,0.36750000000000005,-0.35000000000000003,-3.5000000000000004,1.01540625,0.035625000000000004,-0.588375,1.1966875000000001,0.958875,-0.38478125,-1.29909375,1.15346875,0.017240517587173355,0.028092656481025133,True
40526,140808,0,140809,3276.0,38401.0,27717.0,-0.000244,0.000244,0.001769,0.24500000000000002,-0.035,-3.3425000000000002,1.00809375,0.03653125,-0.58846875,1.19540625,0.95840625,-0.3990625,-1.2970625,1.14725,0.017852888814887866,0.028010910357674928,True
40527,140809,0,140810,3275.0,38398.0,27716.0,0.005307,-0.001037,-0.002623,0.1925,0.15750000000000003,-3.4825000000000004,1.00803125,0.037,-0.58890625,1.197125,0.96959375,-0.39553125,-1.2963125,1.1397187500000001,0.017729937731936048,0.02796479724070455,True
40528,140810,0,140811,3275.0,38398.0,27715.0,0.004941,-0.000244,-0.0026839999999999998,0.12250000000000001,0.5425000000000001,-3.5700000000000003,1.0076875,0.0368125,-0.588125,1.19325,0.9693437500000001,-0.3938125,-1.29303125,1.14415625,0.017653042139272,0.027869583642727683,True
40529,140811,0,140812,3272.0,38399.0,27716.0,0.0023179999999999997,-0.000305,-0.0040869999999999995,0.2625,0.9450000000000001,-3.6575,1.00859375,0.036000000000000004,-0.58809375,1.1895625,0.98140625,-0.3929375,-1.2949375,1.15525,0.017584495512276862,0.027944079719509095,True
40530,140812,0,140813,3273.0,38397.0,27715.0,6.1e-05,0.000305,-0.002074,0.31500000000000006,1.4700000000000002,-3.7800000000000002,1.00828125,0.03325,-0.58690625,1.18971875,0.98028125,-0.38571875,-1.29759375,1.170875,0.017180906345030326,0.028093086916616335,True
40531,140813,0,140814,3272.0,38396.0,27714.0,-0.0053679999999999995,0.000549,-6.1e-05,0.385,1.9250000000000003,-3.8850000000000002,1.016375,0.04384375,-0.58690625,1.1899375,0.946375,-0.38740625,-1.310625,1.16128125,0.017683307342288603,0.028593476059955054,True
40532,140814,0,140815,3272.0,38397.0,27716.0,-0.0073809999999999995,-0.00122,0.002074,0.385,1.8550000000000002,-4.0075,1.016125,0.03740625,-0.58725,1.191375,0.9441875000000001,-0.38890625,-1.30134375,1.1635625,0.017479771156199347,0.028223550379611752,True
40533,140815,0,140816,3273.0,38397.0,27716.0,-0.004758,-0.000793,0.001037,0.31500000000000006,1.61,-4.112500000000001,1.016375,0.03709375,-0.58746875,1.19690625,0.94665625,-0.39509375,-1.30228125,1.141125,0.01771616475136522,0.02825091117031197,True
40534,140816,0,140817,3272.0,38395.0,27715.0,-0.0057339999999999995,-0.0015249999999999999,0.0013419999999999999,0.22750000000000004,1.3825,-4.025,1.011125,0.03684375,-0.58965625,1.1965937500000001,0.95046875,-0.40175,-1.29528125,1.1420000000000001,0.017973864579384675,0.02789551905061344,True
40535,140817,0,140818,3271.0,38395.0,27716.0,-0.008539999999999999,-0.0018909999999999999,0.001403,0.07,1.1025,-4.112500000000001,1.0092812500000001,0.0369375,-0.5905625,1.19021875,0.966125,-0.39809375,-1.29340625,1.1457187500000001,0.017830542601304664,0.0277876274572548,True
40536,140818,0,140819,3271.0,38395.0,27717.0,-0.00976,-0.001769,0.002257,0.29750000000000004,0.36750000000000005,-4.1825,1.0089375,0.0336875,-0.5888125,1.19065625,0.9792500000000001,-0.39109375,-1.2946250000000001,1.14975,0.017415424431304973,0.027903655420865113,True
40537,140819,0,140820,3271.0,38396.0,27717.0,-0.000732,0.00122,0.0,0.36750000000000005,-1.1375000000000002,-4.077500000000001,1.004625,0.03271875,-0.586,1.18940625,0.9715625,-0.38828125,-1.29378125,1.1508125,0.017262389082871515,0.02798242156854267,True
40538,140820,0,140821,3272.0,38397.0,27719.0,0.0028669999999999998,0.002196,-0.003355,0.5075000000000001,-1.8550000000000002,-3.8150000000000004,1.016,0.03721875,-0.58678125,1.1945000000000001,0.95909375,-0.39028125,-1.3023437500000001,1.15696875,0.017527473161056722,0.028280482909809498,True
40539,140821,0,140822,3271.0,38395.0,27718.0,0.002928,0.001586,-0.000244,0.5425000000000001,-2.31,-3.4650000000000003,1.0110937500000001,0.03725,-0.5875,1.19725,0.9586875,-0.39087500000000003,-1.30259375,1.154875,0.017552670824642413,0.028261677718316922,True
40540,140822,0,140823,3272.0,38394.0,27721.0,0.003965,0.000183,0.00183,0.45500000000000007,-2.4675000000000002,-3.3950000000000005,1.00853125,0.036125,-0.589,1.19334375,0.9589062500000001,-0.39215625,-1.3010625,1.14221875,0.017558154580942387,0.028143580926690333,True
40541,140823,0,140824,3271.0,38395.0,27716.0,0.0032329999999999998,-0.000793,0.000793,0.28,-2.6425,-3.2375000000000003,1.00915625,0.037875,-0.58796875,1.1898125,0.95846875,-0.39303125,-1.2990625,1.15265625,0.017665137456010106,0.028107513865385327,True
40542,140824,0,140825,3272.0,38393.0,27718.0,0.0064659999999999995,-0.001647,-0.000793,0.2625,-3.1850000000000005,-3.4475000000000002,1.0110625,0.03678125,-0.5871875,1.1955,0.967125,-0.3896875,-1.29925,1.15928125,0.017485617640652425,0.02814559720149807,True
40543,140825,0,140826,3273.0,38391.0,27715.0,0.006405,0.000305,-0.0025009999999999998,0.36750000000000005,-3.2725000000000004,-3.5700000000000003,1.01234375,0.0368125,-0.5865625,1.194625,0.9590625,-0.39075,-1.30128125,1.15765625,0.017529698758750753,0.028248322404621308,True
40544,140826,0,140827,3273.0,38390.0,27719.0,0.00671,0.003111,-0.003904,0.47250000000000003,-3.0275000000000003,-3.7975000000000003,1.008125,0.0414375,-0.58684375,1.19465625,0.95875,-0.3825625,-1.295875,1.15265625,0.017389476598286175,0.02802952062342181,True
40545,140827,0,140828,3273.0,38391.0,27717.0,0.005612,0.002623,-0.00549,0.5075000000000001,-2.7825,-3.7450000000000006,1.008375,0.03671875,-0.58921875,1.195375,0.9586250000000001,-0.390625,-1.3019375,1.1523125,0.0175208199871877,0.028168544404949224,True
40546,140828,0,140829,3272.0,38390.0,27717.0,0.0028669999999999998,0.003538,-0.003111,0.5950000000000001,-2.4325,-3.7275000000000005,1.00865625,0.035812500000000004,-0.58828125,1.19903125,0.95834375,-0.39003125,-1.301625,1.1580625,0.01745974597716024,0.028193594284952054,True
40547,140829,0,140830,3273.0,38390.0,27716.0,-0.0034159999999999998,-0.0013419999999999999,0.0035989999999999998,0.385,-1.5225000000000002,-3.7275000000000005,1.0080625,0.03634375,-0.5934375000000001,1.1865625,0.95909375,-0.3909375,-1.30221875,1.1525625,0.01751803308093426,0.028012612530274636,True
40548,140830,0,140831,3273.0,38388.0,27716.0,-0.0025009999999999998,-0.002196,0.0057339999999999995,0.14,-1.33,-3.8850000000000002,1.006125,0.03559375,-0.58665625,1.1928750000000001,0.9558125000000001,-0.39253125,-1.2990625,1.1561875,0.017551479000359995,0.02815939325814939,True
40549,140831,0,140832,3272.0,38387.0,27714.0,-0.0015249999999999999,-0.0030499999999999998,0.001647,0.08750000000000001,-1.5050000000000001,-3.9200000000000004,1.02571875,0.039343750000000004,-0.58678125,1.20025,0.966875,-0.38525,-1.29975,1.1588125,0.01741190883833465,0.02818086147096315,True
40550,140832,0,140833,3271.0,38389.0,27715.0,0.000488,-0.0015249999999999999,0.001403,0.21000000000000002,-1.4875,-4.025,0.99484375,0.03878125,-0.5943125,1.18675,0.95865625,-0.38878125,-1.2975,1.15253125,0.01753111381898183,0.02779671904338374,True
40551,140833,0,140834,3273.0,38388.0,27715.0,-0.0017079999999999999,0.000122,-0.000183,0.36750000000000005,-1.2600000000000002,-4.1475,1.00121875,0.0283125,-0.5838125000000001,1.1847812500000001,0.9460937500000001,-0.39387500000000003,-1.2978750000000001,1.153125,0.01730711090386419,0.02822618500565759,True
40552,140834,0,140835,3272.0,38388.0,27714.0,-0.002745,0.002074,-0.00061,0.29750000000000004,-0.8925000000000001,-4.077500000000001,1.01178125,0.03534375,-0.58315625,1.18490625,0.9561875,-0.39187500000000003,-1.2981562500000001,1.1511875,0.01751479744792067,0.028262929240149667,True
40553,140835,0,140836,3273.0,38388.0,27713.0,-0.000915,0.00244,-0.001281,0.4025,-1.0675000000000001,-4.077500000000001,1.02534375,0.033875,-0.579875,1.1848750000000001,0.96675,-0.38896875000000003,-1.2978750000000001,1.1575,0.017337500176181086,0.028381830489715047,True
40554,140836,0,140837,3273.0,38389.0,27716.0,0.000366,0.000122,-0.001464,0.385,-1.0150000000000001,-3.7800000000000002,1.0265312500000001,0.032625,-0.58325,1.1853125,0.9649375,-0.38556250000000003,-1.2984375000000001,1.15078125,0.01714897903216299,0.028270026557964307,True
40555,140837,0,140838,3272.0,38387.0,27714.0,-0.000549,-0.001281,-0.0013419999999999999,0.21000000000000002,-0.8925000000000001,-3.7275000000000005,1.020375,0.0316875,-0.57903125,1.1818125,0.959875,-0.39087500000000003,-1.29703125,1.1528125,0.01732461422560691,0.0283827771292333,True
40556,140838,0,140839,3273.0,38387.0,27713.0,-0.003965,-0.000488,0.000488,0.22750000000000004,-0.7350000000000001,-3.5875000000000004,1.02325,0.036625,-0.58359375,1.17890625,0.9665,-0.39203125,-1.29878125,1.1514375000000001,0.017573618433274187,0.028269642435838682,True
40557,140839,0,140840,3273.0,38384.0,27713.0,-0.003111,6.1e-05,0.001281,0.4025,-1.0325000000000002,-3.4650000000000003,1.00325,0.03240625,-0.588375,1.18428125,0.9605312500000001,-0.3933125,-1.30165625,1.149375,0.017452273035898674,0.02819108926910664,True
40558,140840,0,140841,3274.0,38384.0,27714.0,-0.001586,0.000366,-0.00042699999999999997,0.43750000000000006,-1.54,-3.43,1.02046875,0.038625,-0.5845,1.19734375,0.9666875,-0.38971875,-1.2996875,1.16025,0.017562471891972926,0.028268629800269274,True
40559,140841,0,140842,3272.0,38387.0,27714.0,0.001464,0.000488,0.0011589999999999999,0.35000000000000003,-2.0125,-3.5175000000000005,1.00615625,0.0376875,-0.58496875,1.18909375,0.95878125,-0.39053125,-1.301,1.14925,0.017556761909398755,0.028300511837476776,True
40560,140842,0,140843,3272.0,38383.0,27714.0,0.00061,-0.002562,0.00122,0.2625,-2.24,-3.4650000000000003,1.00659375,0.03365625,-0.58815625,1.19028125,0.961125,-0.3886875,-1.298375,1.15140625,0.017317198803748664,0.02807369050383671,True
40561,140843,0,140844,3272.0,38385.0,27716.0,-0.0006709999999999999,-0.002562,-0.001586,0.29750000000000004,-2.5025000000000004,-3.6225000000000005,1.0115,0.03440625,-0.5859375,1.1980625,0.96565625,-0.39006250000000003,-1.2986875,1.16128125,0.01740334818740215,0.02817339832352963,True
40562,140844,0,140845,3275.0,38385.0,27715.0,0.000122,0.003294,-0.0015249999999999999,0.43750000000000006,-3.0625000000000004,-3.5700000000000003,1.0090625,0.036625,-0.58809375,1.1855,0.9558125000000001,-0.38753125,-1.2998750000000001,1.1509375,0.017392340604381596,0.02813378524597454,True
40563,140845,0,140846,3274.0,38382.0,27713.0,0.00183,0.0011589999999999999,0.002013,0.4025,-3.2725000000000004,-3.6925000000000003,1.01009375,0.035812500000000004,-0.58634375,1.18984375,0.9644375000000001,-0.38978125,-1.2902500000000001,1.15984375,0.01744967474851789,0.0278331076205257,True
40564,140846,0,140847,3277.0,38386.0,27716.0,0.0044529999999999995,-0.001769,0.004209,0.31500000000000006,-3.3775000000000004,-3.5175000000000005,1.01553125,0.037125,-0.5876250000000001,1.1955625,0.958375,-0.39090625,-1.3017812500000001,1.1523125,0.017548804690272632,0.02822553254032263,True
40565,140847,0,140848,3275.0,38384.0,27714.0,0.00549,-0.002806,0.0044529999999999995,0.14,-3.2550000000000003,-3.4825000000000004,1.0084375,0.036375,-0.5901875,1.18996875,0.9585,-0.39203125,-1.2986875,1.15175,0.01756336918435196,0.028005405418759375,True
40566,140848,0,140849,3275.0,38384.0,27718.0,0.0059169999999999995,-0.0035989999999999998,0.002623,0.17500000000000002,-3.0450000000000004,-3.2725000000000004,0.9945625,0.03415625,-0.5881875,1.18990625,0.95278125,-0.3938125,-1.2989375,1.1523125,0.017544151821286647,0.028094065215189375,True
40567,140849,0,140850,3275.0,38382.0,27719.0,0.004758,0.000122,-0.002989,0.47250000000000003,-2.1700000000000004,-3.2375000000000003,1.01284375,0.035250000000000004,-0.5807187500000001,1.185,0.9674375000000001,-0.3889375,-1.29875,1.1584375,0.01739261909216012,0.028382084095063986,True
40568,140850,0,140851,3276.0,38382.0,27720.0,0.0048189999999999995,0.002379,-0.0051849999999999995,0.49000000000000005,-1.6275000000000002,-3.3075,1.0084375,0.0364375,-0.58875,1.19,0.959125,-0.391625,-1.29515625,1.15203125,0.01754956875566921,0.027926542260437705,True
40569,140851,0,140852,3275.0,38381.0,27720.0,0.002257,0.001952,-0.0050019999999999995,0.43750000000000006,-1.0150000000000001,-3.325,1.0133125,0.03615625,-0.58590625,1.19040625,0.9653125,-0.38978125,-1.29875,1.15921875,0.01746376876586378,0.028177034438460404,True
40570,140852,0,140853,3277.0,38382.0,27721.0,-0.000915,0.002013,-0.003904,0.35000000000000003,-0.5425000000000001,-3.3950000000000005,1.01675,0.0336875,-0.586,1.18596875,0.9645625,-0.38915625,-1.299125,1.16084375,0.01733736688820467,0.028187733765495847,True
40571,140853,0,140854,3277.0,38380.0,27720.0,-0.004148,0.002623,-0.00061,0.35000000000000003,-0.10500000000000001,-3.4650000000000003,1.0101875,0.0371875,-0.58409375,1.1894375,0.9595625,-0.392125,-1.28771875,1.151875,0.01760045506490312,0.02782477165916756,True
40572,140854,0,140855,3277.0,38380.0,27720.0,-0.0046359999999999995,-0.000122,0.003721,0.2625,0.0175,-3.6225000000000005,1.015625,0.0379375,-0.58878125,1.18871875,0.96096875,-0.39009375,-1.30040625,1.14528125,0.017549389288427808,0.02812701871140903,True
40573,140855,0,140856,3277.0,38382.0,27721.0,-0.004026,-0.001647,0.005795,0.28,-0.035,-3.7450000000000006,1.01609375,0.03659375,-0.5865625,1.196625,0.95540625,-0.3905,-1.29865625,1.1575625,0.017510659888071177,0.028147493011610056,True
40574,140856,0,140857,3277.0,38381.0,27721.0,-0.007076,-0.002745,0.003904,0.29750000000000004,-0.3325,-3.7975000000000003,1.00725,0.036375,-0.58921875,1.19475,0.9594375,-0.39221875,-1.29503125,1.15415625,0.017570921054485867,0.027903207275144205,True
40575,140857,0,140858,3278.0,38382.0,27722.0,-0.008845,-0.0018909999999999999,0.000976,0.36750000000000005,-0.7175,-4.025,1.01278125,0.03725,-0.58628125,1.1920625,0.9590000000000001,-0.3886875,-1.29909375,1.1574375000000001,0.01746455195672174,0.028175416362493218,True
40576,140858,0,140859,3278.0,38382.0,27720.0,0.000122,0.000244,-0.004209,0.49000000000000005,-1.3650000000000002,-4.077500000000001,1.0125,0.037,-0.5860625,1.19434375,0.96215625,-0.38959375,-1.3005,1.1580625,0.01749080998940378,0.028238078298847846,True
40577,140859,0,140860,3280.0,38379.0,27716.0,0.002196,-0.000366,-0.003904,0.43750000000000006,-2.2225,-3.9200000000000004,1.01396875,0.03715625,-0.5856875,1.19028125,0.9608125000000001,-0.39021875,-1.298625,1.15871875,0.017522393069967855,0.02818087939561932,True
40578,140860,0,140861,3278.0,38379.0,27713.0,0.0017079999999999999,-0.000183,-0.003111,0.43750000000000006,-2.1700000000000004,-3.6400000000000006,1.01321875,0.03653125,-0.57925,1.193,0.9653125,-0.38965625,-1.3009375,1.15546875,0.017474108516802075,0.02852414065684325,True
40579,140861,0,140862,3279.0,38375.0,27709.0,0.00042699999999999997,-0.000183,0.00042699999999999997,0.4025,-2.0300000000000002,-3.5000000000000004,1.00821875,0.03603125,-0.58884375,1.1905625,0.9541875,-0.39378125,-1.29915625,1.152375,0.017619757084605326,0.028076529232076663,True
40580,140862,0,140863,3277.0,38374.0,27707.0,0.0008539999999999999,0.001647,0.002074,0.385,-2.1175,-3.3425000000000002,1.0090937500000001,0.03596875,-0.585125,1.1904375,0.96328125,-0.393125,-1.2979375,1.1516250000000001,0.017590765840785057,0.028176704128548027,True
40581,140863,0,140864,3276.0,38373.0,27706.0,0.0046359999999999995,0.003538,0.000183,0.385,-2.7300000000000004,-3.4825000000000004,1.01178125,0.03721875,-0.5861875,1.1935,0.97121875,-0.3901875,-1.2999375,1.1570625,0.01752369677354879,0.028211532143113,True
40582,140864,0,140865,3276.0,38372.0,27705.0,0.007076,0.003721,0.0018909999999999999,0.45500000000000007,-2.8000000000000003,-3.5525,1.00859375,0.0365,-0.58828125,1.1903125,0.9514375,-0.395625,-1.2975,1.14909375,0.017713217021494632,0.028035131930032618,True
40583,140865,0,140866,3275.0,38374.0,27701.0,0.008052,0.0018909999999999999,0.0023179999999999997,0.43750000000000006,-2.6075000000000004,-3.5700000000000003,1.014125,0.039343750000000004,-0.5865625,1.20190625,0.9685,-0.388375,-1.30390625,1.153375,0.017537812584889317,0.028349130877767144,True
40584,140866,0,140867,3275.0,38371.0,27700.0,0.006222,6.1e-05,-0.000366,0.28,-2.24,-3.6750000000000003,1.00925,0.036375,-0.592125,1.17940625,0.9560625,-0.3948125,-1.3008125,1.150375,0.01767537668100544,0.02801046409082712,True
40585,140867,0,140868,3274.0,38369.0,27698.0,0.003294,-0.002379,-0.0018909999999999999,0.1925,-1.8375000000000001,-3.7450000000000006,1.01140625,0.03465625,-0.58634375,1.2021875,0.9644375000000001,-0.3940625,-1.2891875,1.16415625,0.01757471720833707,0.02779226299777325,True
40586,140868,0,140869,3272.0,38367.0,27698.0,0.003721,-0.002074,-0.003172,0.22750000000000004,-0.9100000000000001,-3.99,1.01696875,0.0395625,-0.59365625,1.20875,0.95453125,-0.38840625,-1.3030625,1.16009375,0.017548040885205445,0.02803637899562553,True
40587,140869,0,140870,3271.0,38367.0,27695.0,0.000366,-0.0008539999999999999,-0.001769,0.1925,-0.29750000000000004,-4.0600000000000005,0.992,0.03475,-0.5942500000000001,1.1790625000000001,0.9561875,-0.391125,-1.30046875,1.15034375,0.017460244248676517,0.027913267417229177,True
40588,140870,0,140871,3270.0,38366.0,27697.0,-0.005612,0.000793,0.000122,0.42000000000000004,0.15750000000000003,-4.235,1.0005625,0.0306875,-0.58084375,1.1767812500000001,0.95140625,-0.39503125,-1.29640625,1.14934375,0.017451043437380305,0.028287120823733608,True
40589,140871,0,140872,3271.0,38366.0,27698.0,-0.006771,0.0015249999999999999,0.000915,0.47250000000000003,0.525,-4.235,1.00875,0.03484375,-0.5816250000000001,1.2073125,0.96246875,-0.394,-1.296875,1.1566875,0.01757988644748709,0.028274243360098823,True
40590,140872,0,140873,3270.0,38366.0,27698.0,-0.0051849999999999995,0.0015249999999999999,0.0017079999999999999,0.385,0.6475000000000001,-4.41,1.0078125,0.0399375,-0.5935312500000001,1.2070625,0.9565625,-0.38934375,-1.301,1.15690625,0.01760118084358051,0.027962086478795303,True
40591,140873,0,140874,3271.0,38367.0,27698.0,-0.005795,-0.00122,0.002806,0.24500000000000002,0.77,-4.2525,0.98953125,0.0329375,-0.587375,1.179125,0.9490625,-0.39215625,-1.29990625,1.149125,0.01742747732685584,0.028163394874239904,True
40592,140874,0,140875,3271.0,38366.0,27697.0,-0.007869,-0.0030499999999999998,0.0023179999999999997,0.12250000000000001,0.805,-4.130000000000001,1.0099375,0.028625,-0.5840625,1.17953125,0.967,-0.39140625,-1.29646875,1.14984375,0.017220460587425133,0.028162280555462906,True
40593,140875,0,140876,3269.0,38365.0,27696.0,-0.006954,-0.003843,0.000305,0.052500000000000005,0.5075000000000001,-4.130000000000001,1.01934375,0.025687500000000002,-0.5797187500000001,1.1828750000000001,0.9664375000000001,-0.39290625,-1.2966875,1.15090625,0.017160470577383537,0.02834239660825157,True
40594,140876,0,140877,3269.0,38364.0,27698.0,-0.002989,-0.003111,0.000549,0.14,0.08750000000000001,-4.0600000000000005,1.0311875,0.03390625,-0.5805,1.1845937500000001,0.96709375,-0.38806250000000003,-1.29725,1.1499062500000001,0.01730226622143518,0.02833311921256263,True
40595,140877,0,140878,3269.0,38364.0,27699.0,-0.0021349999999999997,-0.002013,-0.000488,0.15750000000000003,-0.24500000000000002,-4.0075,1.03059375,0.03546875,-0.5809375,1.18675,0.95809375,-0.39056250000000003,-1.29771875,1.15965625,0.017467053086619055,0.02833382950784841,True
40596,140878,0,140879,3269.0,38362.0,27700.0,0.0,0.001281,0.0013419999999999999,0.24500000000000002,-0.9450000000000001,-3.8325000000000005,1.0200625,0.035437500000000004,-0.58540625,1.1895,0.96525,-0.39015625,-1.3001562500000001,1.1480000000000001,0.01744940645880446,0.02825081366839385,True
40597,140879,0,140880,3269.0,38366.0,27702.0,0.000549,0.001769,0.00061,0.385,-1.5575,-3.7275000000000005,1.00440625,0.037875,-0.58803125,1.18978125,0.95878125,-0.394125,-1.297375,1.15253125,0.017709182026410048,0.02804021168204211,True
40598,140880,0,140881,3271.0,38364.0,27700.0,0.001464,0.00183,-0.00183,0.42000000000000004,-1.9775000000000003,-3.7275000000000005,1.0144375,0.03396875,-0.5858125,1.18046875,0.9675,-0.39025,-1.29940625,1.15896875,0.017392964401758897,0.028205948509167092,True
40599,140881,0,140882,3269.0,38364.0,27700.0,0.00488,0.002806,-0.002196,0.45500000000000007,-2.5900000000000003,-3.6575,1.010625,0.03703125,-0.58709375,1.19134375,0.95878125,-0.39084375,-1.30021875,1.15209375,0.017542443565528563,0.02818651518576297,True
40600,140882,0,140883,3269.0,38364.0,27701.0,0.004697,0.0017079999999999999,0.0,0.49000000000000005,-2.9575000000000005,-3.6575,1.00646875,0.03253125,-0.587875,1.18990625,0.96346875,-0.3925,-1.29690625,1.153375,0.017424669468074205,0.028028377976061794,True
40601,140883,0,140884,3270.0,38367.0,27702.0,0.0008539999999999999,-0.00061,-0.000488,0.4025,-3.1675000000000004,-3.8325000000000005,1.009625,0.0371875,-0.58578125,1.18984375,0.957125,-0.38978125,-1.29775,1.1597187500000001,0.017506050817901454,0.028143560198041324,True
40602,140884,0,140885,3271.0,38368.0,27702.0,0.001403,-0.00183,-0.000549,0.385,-3.3075,-3.7800000000000002,1.01396875,0.0368125,-0.58578125,1.195125,0.9550937500000001,-0.38984375,-1.30128125,1.15259375,0.017493193247701717,0.028279200287534844,True
40603,140885,0,140886,3271.0,38366.0,27703.0,0.000305,-0.001403,-0.0018909999999999999,0.3325,-3.3425000000000002,-3.7275000000000005,1.00884375,0.03625,-0.5844375,1.19021875,0.95934375,-0.39209375,-1.2970625,1.14828125,0.01756076187596647,0.02817026680469323,True
40604,140886,0,140887,3272.0,38365.0,27700.0,0.000244,-0.0011589999999999999,0.000549,0.28,-3.3425000000000002,-3.6400000000000006,1.01596875,0.04321875,-0.58578125,1.19453125,0.96265625,-0.39025,-1.29903125,1.153,0.01777221430694642,0.02819277912074203,True
40605,140887,0,140888,3272.0,38367.0,27701.0,-6.1e-05,-0.00122,0.00122,0.1925,-3.2025,-3.5175000000000005,1.00846875,0.0414375,-0.58565625,1.19021875,0.9590625,-0.39271875,-1.29715625,1.15221875,0.017798600248281057,0.028125691005288393,True
40606,140888,0,140889,3270.0,38365.0,27699.0,-0.002074,-0.00061,0.0011589999999999999,0.24500000000000002,-3.2900000000000005,-3.3600000000000003,1.0144375,0.03409375,-0.58540625,1.1926875000000001,0.9666250000000001,-0.390125,-1.29828125,1.15859375,0.01739305354113601,0.028178791790450193,True
40607,140889,0,140890,3271.0,38365.0,27700.0,0.0013419999999999999,0.000793,0.004026,0.24500000000000002,-3.3425000000000002,-3.325,1.0158125,0.0370625,-0.58625,1.1938125,0.95940625,-0.38703125,-1.301,1.1520625,0.017390134356759804,0.028249871546579184,True
40608,140890,0,140891,3272.0,38364.0,27701.0,0.005124,-0.00122,0.002379,0.28,-3.5525,-3.22,1.0094375,0.03628125,-0.5864375000000001,1.1929687500000001,0.95878125,-0.39328125,-1.3003437500000001,1.1520000000000001,0.01760986952093622,0.028217254953304738,True
40609,140891,0,140892,3272.0,38365.0,27701.0,0.005063,-0.00122,0.002257,0.2625,-3.535,-3.22,1.00865625,0.03434375,-0.587375,1.19025,0.96384375,-0.39156250000000004,-1.2974375,1.15265625,0.017461212253212562,0.02806855437433139,True
40610,140892,0,140893,3272.0,38364.0,27701.0,0.003538,0.0015249999999999999,-0.00122,0.47250000000000003,-3.3075,-3.3775000000000004,1.00325,0.03334375,-0.585875,1.1905625,0.9645625,-0.39021875,-1.2982500000000001,1.15809375,0.017366080408770423,0.02815906238573815,True
40611,140893,0,140894,3272.0,38362.0,27699.0,0.0070149999999999995,0.004941,-0.00671,0.7525000000000001,-2.66,-3.3775000000000004,1.01503125,0.0376875,-0.58575,1.19778125,0.95909375,-0.39053125,-1.29525,1.1491875,0.017556761909398755,0.028048744329468973,True
40612,140894,0,140895,3272.0,38362.0,27700.0,0.004575,0.005429,-0.00488,0.6825000000000001,-2.1350000000000002,-3.5000000000000004,1.00875,0.033875,-0.58434375,1.192375,0.9591875,-0.388875,-1.297125,1.158,0.01733372285519525,0.028176373797417692,True
40613,140895,0,140896,3272.0,38361.0,27700.0,0.003904,0.002989,-0.000183,0.47250000000000003,-1.4525000000000001,-3.7100000000000004,1.01365625,0.03696875,-0.58796875,1.19365625,0.95865625,-0.39209375,-1.296625,1.1519062500000001,0.017590228391115462,0.028013865486008507,True
40614,140896,0,140897,3271.0,38360.0,27699.0,0.0013419999999999999,-0.002013,0.00244,0.2625,-0.5950000000000001,-3.8325000000000005,1.00834375,0.03409375,-0.58478125,1.189875,0.95809375,-0.39259375,-1.29728125,1.1578125000000001,0.01749250220674052,0.0281650819690357,True
40615,140897,0,140898,3271.0,38356.0,27699.0,-0.002257,-0.002806,0.000244,0.14,-0.07,-3.9025000000000003,1.01621875,0.0399375,-0.58971875,1.18990625,0.9540000000000001,-0.39009375,-1.2998125,1.15240625,0.017631389793243416,0.02806715464788524,True
40616,140898,0,140899,3271.0,38359.0,27700.0,-0.007442,-0.000183,0.001098,0.28,0.9975,-4.112500000000001,1.00825,0.035687500000000004,-0.58128125,1.19015625,0.96346875,-0.38959375,-1.29828125,1.15990625,0.017436996054926088,0.028341846345786837,True
40617,140899,0,140900,3273.0,38359.0,27699.0,-0.009577,-0.00061,0.000793,0.29750000000000004,1.33,-4.1475,1.01596875,0.03684375,-0.5896250000000001,1.19065625,0.95821875,-0.38725,-1.30009375,1.1529375,0.017389978369844898,0.028081664717151494,True
40618,140900,0,140901,3272.0,38360.0,27699.0,-0.009394,-0.0011589999999999999,0.0018909999999999999,0.08750000000000001,1.3825,-4.2525,1.008625,0.04034375,-0.58534375,1.19196875,0.96559375,-0.389,-1.30084375,1.1461875,0.017603991553569235,0.02827968928901828,True
40619,140901,0,140902,3272.0,38361.0,27701.0,-0.010309,-0.004209,0.004148,-0.0175,1.1900000000000002,-4.532500000000001,1.00659375,0.0370625,-0.58421875,1.1829375,0.976875,-0.38784375,-1.30284375,1.14840625,0.01742287076937665,0.028400957896283892,True
40620,140902,0,140903,3271.0,38359.0,27701.0,-0.008723,-0.00671,0.003965,-0.12250000000000001,0.6475000000000001,-4.445,1.0081875,0.0350625,-0.58478125,1.1941875,0.96840625,-0.38675,-1.30365625,1.15565625,0.01729679026520549,0.028409925937086657,True
40621,140903,0,140904,3273.0,38359.0,27701.0,-0.001281,-0.001281,0.0006709999999999999,-0.07,-0.35000000000000003,-4.742500000000001,1.013375,0.03671875,-0.58690625,1.1964375,0.9452812500000001,-0.3930625,-1.3002500000000001,1.14665625,0.017618995154872415,0.028195126530370263,True
40622,140904,0,140905,3274.0,38361.0,27702.0,0.0030499999999999998,0.000122,-0.001098,-0.0175,-0.7175,-4.550000000000001,1.00803125,0.0349375,-0.58528125,1.1954375,0.976,-0.38803125,-1.3018750000000001,1.1419062500000001,0.017343292111781265,0.028321764691351933,True
40623,140905,0,140906,3274.0,38361.0,27702.0,0.00366,6.1e-05,-0.004697,0.0175,-1.0150000000000001,-4.1825,1.0085,0.03328125,-0.58515625,1.197125,0.96878125,-0.38775,-1.2920625000000001,1.14890625,0.017264046498754498,0.027949727310692833,True
40624,140906,0,140907,3274.0,38361.0,27701.0,0.003843,0.00183,-0.0060999999999999995,0.052500000000000005,-1.1725,-3.8850000000000002,1.00915625,0.037,-0.586875,1.18953125,0.9533125,-0.398125,-1.2956875,1.15671875,0.017834362271690957,0.028021080668394566,True
40625,140907,0,140908,3275.0,38364.0,27702.0,0.0048189999999999995,0.005612,-0.0059169999999999995,0.24500000000000002,-1.33,-3.7275000000000005,1.01528125,0.03696875,-0.58615625,1.19009375,0.9626875,-0.388625,-1.302625,1.1466875,0.017450502027072046,0.02831598500155616,True
40626,140908,0,140909,3274.0,38364.0,27705.0,0.0066489999999999995,0.005063,0.000732,0.45500000000000007,-1.6275000000000002,-3.8150000000000004,1.00840625,0.03396875,-0.5854375,1.1953125,0.9708125,-0.38759375,-1.30128125,1.15003125,0.017285940725496954,0.0282927865560168,True
40627,140909,0,140910,3277.0,38363.0,27706.0,0.005429,0.000305,0.001586,0.4025,-1.5925000000000002,-3.6925000000000003,1.0090937500000001,0.0375,-0.5894375000000001,1.1907812500000001,0.95321875,-0.3976875,-1.2946875,1.1495,0.01783724379615896,0.02788134860333815,True
40628,140910,0,140911,3276.0,38364.0,27705.0,0.003355,-0.000915,0.003172,0.29750000000000004,-1.435,-3.7100000000000004,1.00778125,0.0345625,-0.58521875,1.19009375,0.9741875,-0.3873125,-1.29725,1.1601875,0.017298954118048063,0.02814658707962328,True
40629,140911,0,140912,3275.0,38362.0,27705.0,-0.00042699999999999997,-0.002013,0.0026839999999999998,0.3325,-1.33,-3.8500000000000005,1.01715625,0.03671875,-0.58590625,1.19703125,0.95909375,-0.38884375,-1.3039375,1.14865625,0.017449064185340892,0.028376265551556947,True
