frame_seq,absolute_seq_u64,segment_id,sample_seq,PPG_G,PPG_R,PPG_IR,ACC_X,ACC_Y,ACC_Z,GYRO_X,GYRO_Y,GYRO_Z,Uh1,Uh2,Uh3,Uh4,Uc1,Uc2,Uc3,Uc4,UD1,UD2,parser_valid
16859,117141,0,117142,3175.0,39054.0,27955.0,-0.006344,0.0021349999999999997,0.000976,0.5425000000000001,-0.5775,-3.9025000000000003,1.06434375,0.09346875,-0.44715625000000003,1.2571875000000001,1.01896875,-0.34553125,-1.18534375,1.2260625,0.018032056704451665,0.02931020149367625,True
16860,117142,0,117143,3174.0,39053.0,27952.0,-0.0053679999999999995,-0.000122,0.0030499999999999998,0.31500000000000006,-0.8575,-3.8150000000000004,1.06946875,0.09115625000000001,-0.445875,1.25428125,1.01934375,-0.34603125,-1.1855625,1.225875,0.017957238923695214,0.02936950485024903,True
16861,117143,0,117144,3172.0,39051.0,27950.0,-0.0040869999999999995,-0.001647,0.0059169999999999995,0.29750000000000004,-1.225,-3.8325000000000005,1.0530625,0.09121875,-0.44990625,1.254125,1.01134375,-0.34475,-1.18725,1.21859375,0.017908121874326086,0.029274484113986244,True
16862,117144,0,117145,3171.0,39050.0,27950.0,0.000732,-0.000244,0.0050019999999999995,0.2625,-1.5225000000000002,-3.6925000000000003,1.05484375,0.09059375,-0.445375,1.26078125,1.0105,-0.34509375000000003,-1.18171875,1.22271875,0.017896316377914955,0.029241203005652656,True
16863,117145,0,117146,3169.0,39051.0,27950.0,0.002928,0.000488,0.0035989999999999998,0.3325,-1.4000000000000001,-3.6400000000000006,1.06153125,0.096875,-0.44490625,1.26065625,1.01115625,-0.34318750000000003,-1.185,1.23240625,0.01807743953005333,0.02938629144331944,True
16864,117146,0,117147,3169.0,39053.0,27950.0,0.003904,0.001464,-0.000732,0.36750000000000005,-1.2075,-3.6925000000000003,1.060375,0.095875,-0.4450625,1.2693125,1.01746875,-0.34334375,-1.181625,1.23125,0.018042663099640945,0.029249998759015745,True
16865,117147,0,117148,3167.0,39052.0,27947.0,0.004331,0.001464,-0.0046359999999999995,0.24500000000000002,-0.9450000000000001,-3.6050000000000004,1.05221875,0.091625,-0.45140625,1.25425,1.0111875000000001,-0.344625,-1.1880625,1.2258437500000001,0.01791976668361086,0.0292462451210767,True
16866,117148,0,117149,3165.0,39050.0,27947.0,0.0034159999999999998,0.002989,-0.008479,0.28,-0.7875000000000001,-3.8150000000000004,1.05453125,0.0904375,-0.4443125,1.26765625,1.01146875,-0.3455625,-1.1845,1.23,0.01790880781661956,0.02939059739125256,True
16867,117149,0,117150,3164.0,39048.0,27946.0,0.002562,0.00061,-0.006222,0.22750000000000004,-0.49000000000000005,-3.8150000000000004,1.05246875,0.0968125,-0.45096875000000003,1.2476875,1.01184375,-0.34321875,-1.18546875,1.22525,0.01807613259852911,0.02916364222921204,True
16868,117150,0,117151,3163.0,39048.0,27949.0,-0.00244,-0.0030499999999999998,-0.000122,-0.10500000000000001,-0.0175,-3.7975000000000003,1.0635937500000001,0.09406250000000001,-0.44478125,1.2663125,1.01678125,-0.34334375,-1.1851562500000001,1.22840625,0.0179682074283653,0.02939727642150325,True
16869,117151,0,117152,3162.0,39047.0,27948.0,-0.0035989999999999998,-0.006161,0.001403,-0.08750000000000001,0.10500000000000001,-3.9550000000000005,1.0658125,0.09496875,-0.44515625000000003,1.260625,1.01578125,-0.34334375,-1.18578125,1.22825,0.01800543526400312,0.029406473146430585,True
16870,117152,0,117153,3161.0,39048.0,27946.0,-0.002806,-0.0062829999999999995,0.00183,-0.0175,-0.035,-3.9200000000000004,1.06459375,0.10334375,-0.44428125,1.2628125000000001,1.01503125,-0.3428125,-1.18596875,1.229625,0.018328048576967022,0.029448440413871315,True
16871,117153,0,117154,3159.0,39051.0,27949.0,-0.003355,-0.004026,0.002379,0.12250000000000001,-0.10500000000000001,-3.9200000000000004,1.0535,0.096,-0.44878125,1.25428125,1.0064375,-0.34325,-1.18434375,1.2216875,0.018044016308422253,0.02920713389643119,True
16872,117154,0,117155,3160.0,39051.0,27950.0,-0.003965,0.001281,0.0015249999999999999,0.45500000000000007,-0.14,-3.9550000000000005,1.05465625,0.0933125,-0.45,1.256875,1.0051875000000001,-0.343,-1.1869375,1.2256875,0.017923530378342854,0.02925871793662886,True
16873,117155,0,117156,3161.0,39050.0,27951.0,-0.0015249999999999999,0.008845,0.003355,0.9450000000000001,-0.47250000000000003,-3.9200000000000004,1.05584375,0.09259375,-0.44996875000000003,1.25603125,1.012125,-0.34265625,-1.18790625,1.226,0.017880135821249993,0.029297294212376222,True
16874,117156,0,117157,3160.0,39052.0,27950.0,-0.000366,0.008418,0.001037,0.8575,-0.8750000000000001,-3.8675,1.04521875,0.10028125,-0.44984375,1.2583125,1.01259375,-0.34325,-1.19065625,1.2469375,0.01821988641615232,0.02940822552012713,True
16875,117157,0,117158,3160.0,39057.0,27951.0,0.002013,0.0051849999999999995,-0.001586,0.7350000000000001,-1.2600000000000002,-3.8325000000000005,1.0559687500000001,0.0925625,-0.44921875,1.2571875000000001,1.0069375,-0.335,-1.18940625,1.23425,0.017569858228888433,0.029384872857017023,True
16876,117158,0,117159,3160.0,39054.0,27953.0,0.0059169999999999995,0.0028669999999999998,-0.00061,0.525,-1.3125000000000002,-3.9200000000000004,1.058375,0.09259375,-0.4471875,1.25390625,1.00434375,-0.3479375,-1.1910625000000001,1.22096875,0.01809316497547277,0.02952932215542715,True
16877,117159,0,117160,3160.0,39052.0,27949.0,0.005673,-0.000122,-0.001586,0.29750000000000004,-1.3650000000000002,-3.9200000000000004,1.05459375,0.09290625,-0.44765625000000003,1.25703125,0.99784375,-0.34368750000000003,-1.19053125,1.2403125,0.01793457749570602,0.02949024745160942,True
16878,117160,0,117161,3160.0,39053.0,27952.0,-0.002562,-0.006405,-0.001037,-0.052500000000000005,-0.45500000000000007,-3.7275000000000005,1.05446875,0.09215625,-0.445625,1.25684375,1.00178125,-0.339375,-1.1908125,1.21346875,0.01772975887836068,0.02958171754086932,True
16879,117161,0,117162,3160.0,39055.0,27951.0,-0.0050019999999999995,-0.007259,0.000732,-0.12250000000000001,-0.31500000000000006,-3.7100000000000004,1.06325,0.094875,-0.43921875,1.26365625,1.01621875,-0.3461875,-1.181,1.23603125,0.01811628617416998,0.029457974266311904,True
16880,117162,0,117163,3159.0,39054.0,27951.0,-0.0066489999999999995,-0.006222,-0.002257,0.0,-0.43750000000000006,-3.8325000000000005,1.05478125,0.09531250000000001,-0.44606250000000003,1.26209375,1.036875,-0.34165625,-1.17959375,1.22371875,0.017951479780674334,0.029131973187613482,True
16881,117163,0,117164,3160.0,39053.0,27949.0,-0.006527,-0.002989,0.000488,0.15750000000000003,-0.8400000000000001,-3.8325000000000005,1.0548125,0.09540625,-0.4429375,1.24975,1.01784375,-0.34175,-1.187625,1.230875,0.01795911345733154,0.029565610096227806,True
16882,117164,0,117165,3159.0,39053.0,27950.0,-0.004514,0.001647,0.0011589999999999999,0.42000000000000004,-1.1725,-3.7275000000000005,1.0591875,0.09434375,-0.445625,1.2610000000000001,0.996375,-0.35246875,-1.1829687500000001,1.23034375,0.018347729118839338,0.02927946094520727,True
16883,117165,0,117166,3159.0,39051.0,27949.0,-0.001586,0.005307,0.000976,0.7875000000000001,-2.0650000000000004,-3.4475000000000002,1.05528125,0.0984375,-0.44753125,1.2570937500000001,1.0140625,-0.3350625,-1.19565625,1.2145625,0.017813802615053897,0.029692618147225285,True
16884,117166,0,117167,3161.0,39053.0,27948.0,0.003294,0.004758,0.0017079999999999999,0.7350000000000001,-2.415,-3.5525,1.062625,0.09521875,-0.44684375,1.25684375,1.0206250000000001,-0.34640625,-1.1820625,1.2391875,0.01813922742704583,0.029196129189179798,True
16885,117167,0,117168,3160.0,39053.0,27948.0,0.0066489999999999995,0.001098,-0.000488,0.56,-2.7825,-3.535,1.05484375,0.09415625,-0.44003125,1.25715625,0.99840625,-0.34896875,-1.182625,1.221125,0.018198922695648042,0.02948833769315153,True
16886,117168,0,117169,3160.0,39050.0,27948.0,0.009882,-0.0013419999999999999,-0.00244,0.2625,-2.9050000000000002,-3.5175000000000005,1.0616875000000001,0.09525,-0.44703125,1.255875,1.012875,-0.34153125,-1.1839375,1.22234375,0.017943869081777673,0.02926096246863701,True
16887,117169,0,117170,3158.0,39051.0,27949.0,0.009577,-0.002989,-0.0026839999999999998,0.22750000000000004,-2.7475,-3.6225000000000005,1.04921875,0.09253125,-0.44640625,1.2585625,1.011625,-0.3464375,-1.1853125,1.229375,0.01803010193996555,0.029338776320524115,True
16888,117170,0,117171,3159.0,39051.0,27949.0,0.0055509999999999995,-0.0023179999999999997,-0.0028669999999999998,0.31500000000000006,-1.7325000000000002,-3.8675,1.06140625,0.09446875,-0.44553125,1.26278125,1.0183125,-0.341125,-1.18534375,1.2324375,0.017895382814064675,0.029374723146274307,True
16889,117171,0,117172,3157.0,39052.0,27949.0,0.0025009999999999998,0.000976,-0.003111,0.525,-0.9975,-4.095000000000001,1.05725,0.09503125,-0.44556250000000003,1.2627187500000001,1.01275,-0.343875,-1.18525,1.23228125,0.018029432454775583,0.029369869268718787,True
16890,117172,0,117173,3157.0,39052.0,27950.0,0.001403,0.0021349999999999997,-0.0013419999999999999,0.49000000000000005,-0.35000000000000003,-4.2525,1.05934375,0.09506250000000001,-0.4425,1.2612812500000001,1.0150625,-0.343,-1.18465625,1.2325625,0.017995419627819087,0.02946858764451073,True
16891,117173,0,117174,3158.0,39055.0,27949.0,-0.00061,0.001647,-0.0008539999999999999,0.47250000000000003,0.385,-4.375,1.05278125,0.09496875,-0.44553125,1.2614375,1.01296875,-0.34403125,-1.18475,1.23390625,0.018033167781116778,0.029351839903115972,True
16892,117174,0,117175,3157.0,39054.0,27948.0,-0.004392,0.001098,-0.000366,0.42000000000000004,0.9975,-4.445,1.05540625,0.09565625,-0.4469375,1.25734375,1.0115625,-0.34328125,-1.18653125,1.22615625,0.018031155927264324,0.029364652982931106,True
16893,117175,0,117176,3160.0,39056.0,27948.0,-0.007869,-0.000732,0.004392,0.31500000000000006,1.7500000000000002,-4.655,1.05515625,0.093,-0.44878125,1.25203125,1.0104375,-0.34678125,-1.189,1.225875,0.01806321934239254,0.029386587399261584,True
16894,117176,0,117177,3160.0,39054.0,27949.0,-0.008235,-0.0021349999999999997,0.002379,0.31500000000000006,1.715,-4.62,1.054875,0.09581250000000001,-0.44834375,1.2564375,1.0061875,-0.3428125,-1.1866875000000001,1.225375,0.018018665673902718,0.029314841421683578,True
16895,117177,0,117178,3158.0,39056.0,27951.0,-0.006588,-0.002928,0.002989,0.28,1.6450000000000002,-4.7250000000000005,1.05490625,0.09971875000000001,-0.45006250000000003,1.26034375,1.0110625,-0.34634375,-1.18703125,1.22125,0.018321539553552063,0.029259849749064808,True
16896,117178,0,117179,3160.0,39057.0,27951.0,-0.004697,-0.003721,0.0055509999999999995,0.12250000000000001,1.5050000000000001,-4.69,1.04515625,0.097125,-0.449875,1.26009375,1.01196875,-0.34590625,-1.1869687500000001,1.22490625,0.018197361209340894,0.02926488523951498,True
16897,117179,0,117180,3158.0,39059.0,27951.0,-0.0025009999999999998,-0.002257,0.004758,0.2625,1.3125000000000002,-4.585000000000001,1.051375,0.09159375,-0.452625,1.25125,1.01215625,-0.346375,-1.1850625000000001,1.2242187500000001,0.017989074348850703,0.029082218874779447,True
16898,117180,0,117181,3160.0,39062.0,27950.0,-0.002196,0.002196,0.0034159999999999998,0.7175,0.7525000000000001,-4.3925,1.04828125,0.093625,-0.4496875,1.25846875,1.01778125,-0.34446875,-1.1853125,1.22503125,0.01799561758767071,0.02920849205265966,True
16899,117181,0,117182,3161.0,39063.0,27952.0,0.0013419999999999999,0.0048189999999999995,-0.001281,0.6125,0.36750000000000005,-4.4275,1.0498125,0.09784375000000001,-0.4451875,1.27046875,1.01178125,-0.343125,-1.1883125,1.2313125,0.018114714113327685,0.02950277038209686,True
16900,117182,0,117183,3162.0,39060.0,27954.0,-0.001647,0.005795,-0.004941,0.43750000000000006,0.22750000000000004,-4.235,1.0690625,0.0968125,-0.44303125,1.2538125,1.011125,-0.3435625,-1.1788750000000001,1.2316562500000001,0.018089998125787873,0.029224647646092214,True
16901,117183,0,117184,3160.0,39062.0,27953.0,-0.0048189999999999995,0.003111,-0.002928,0.56,-0.10500000000000001,-3.9200000000000004,1.07003125,0.08637500000000001,-0.44571875,1.24690625,1.02034375,-0.343875,-1.18425,1.2256875,0.017673850198458546,0.029325123837318966,True
16902,117184,0,117185,3161.0,39062.0,27951.0,-0.005063,0.002806,-0.002806,0.525,-0.7350000000000001,-3.7975000000000003,1.048125,0.0969375,-0.4496875,1.2678125,1.0165,-0.34528125,-1.1785,1.2184375,0.01816445435396233,0.028945826796671768,True
16903,117185,0,117186,3161.0,39061.0,27954.0,0.002562,0.001647,-0.003355,0.4025,-2.87,-3.7625,1.05046875,0.09578125,-0.4429375,1.2508125,1.0109062500000001,-0.34278125,-1.1843125,1.23259375,0.018016121309063646,0.029437968576668517,True
16904,117186,0,117187,3163.0,39065.0,27952.0,0.005429,0.001281,-0.000122,0.56,-3.6400000000000006,-3.6400000000000006,1.05603125,0.08921875,-0.447625,1.2514687500000001,1.01928125,-0.34540625,-1.18471875,1.2257500000000001,0.017852443928718587,0.02926749976113988,True
16905,117187,0,117188,3164.0,39064.0,27955.0,0.0048189999999999995,0.000122,0.003477,0.6475000000000001,-3.9025000000000003,-3.325,1.048125,0.0928125,-0.4521875,1.253625,1.0166250000000001,-0.34646875,-1.1854375,1.2259375000000001,0.018042914334342634,0.029114046559643843,True
16906,117188,0,117189,3163.0,39066.0,27956.0,0.004392,-0.000793,0.005246,0.49000000000000005,-4.305000000000001,-3.1850000000000005,1.0481875,0.0970625,-0.445,1.25765625,1.01221875,-0.34309375000000003,-1.1856875,1.23178125,0.018081360344758973,0.029409064175833992,True
16907,117189,0,117190,3162.0,39063.0,27957.0,0.006954,-0.0046359999999999995,0.0018909999999999999,0.15750000000000003,-4.6025,-3.3950000000000005,1.05921875,0.09328125,-0.44546875,1.25525,1.01825,-0.34303125,-1.18428125,1.2277500000000001,0.01792350736928048,0.02933625512937757,True
16908,117190,0,117191,3163.0,39063.0,27956.0,0.012078,-0.0057339999999999995,-0.005612,0.07,-4.6025,-3.3600000000000003,1.06115625,0.09334375,-0.44659375,1.2558125,1.0203125,-0.347375,-1.18540625,1.22628125,0.018101284019324464,0.029334944716248125,True
16909,117191,0,117192,3164.0,39061.0,27956.0,0.013603,-0.002928,-0.0055509999999999995,0.385,-3.7275000000000005,-3.3075,1.05446875,0.09381250000000001,-0.44965625000000004,1.2595,1.00946875,-0.346375,-1.1885000000000001,1.2258125,0.018080207012337566,0.02933258232923755,True
16910,117192,0,117193,3162.0,39058.0,27954.0,0.010065,-0.002562,-0.00366,0.4025,-2.4675000000000002,-3.4475000000000002,1.05465625,0.09568750000000001,-0.4468125,1.2570000000000001,1.01140625,-0.34315625,-1.1870625000000001,1.22434375,0.01802739733061525,0.02939008866158966,True
16911,117193,0,117194,3163.0,39055.0,27949.0,0.0050019999999999995,-0.00122,-0.003294,0.31500000000000006,-0.8225000000000001,-3.6050000000000004,1.0546875,0.09221875,-0.4406875,1.2569375,1.0118125,-0.3466875,-1.18584375,1.2254375,0.018027349716465534,0.029586312747612437,True
16912,117194,0,117195,3162.0,39055.0,27948.0,-0.000915,-0.000305,-0.002745,0.4025,0.7000000000000001,-3.6750000000000003,1.06175,0.09431250000000001,-0.44534375,1.2650000000000001,1.0186875,-0.34,-1.1858125,1.232625,0.017843570254724734,0.02940023276993744,True
16913,117195,0,117196,3162.0,39054.0,27943.0,-0.012383,0.0044529999999999995,0.000732,0.8400000000000001,2.2925000000000004,-4.0075,1.05609375,0.09581250000000001,-0.44615625000000003,1.25665625,1.00640625,-0.34253125,-1.18803125,1.2255,0.01800732000703501,0.02945347306570457,True
16914,117196,0,117197,3159.0,39055.0,27943.0,-0.015493999999999999,0.006405,0.002562,0.9450000000000001,2.4325,-4.2175,1.06009375,0.09190625000000001,-0.44559375,1.2624375,1.01771875,-0.34650000000000003,-1.18390625,1.2266875,0.018006951717906068,0.029316838010386096,True
16915,117197,0,117198,3158.0,39054.0,27941.0,-0.01464,0.0034159999999999998,0.006344,0.9625000000000001,1.995,-4.235,1.055,0.10090625,-0.449125,1.25725,1.0158125,-0.342875,-1.18840625,1.22228125,0.018230437037531518,0.029350060605759846,True
16916,117198,0,117199,3157.0,39058.0,27941.0,-0.014274,0.004148,0.008662,0.8750000000000001,1.435,-4.0425,1.060625,0.09478125,-0.44809375,1.2561875,1.0189375,-0.33971875,-1.1871875,1.22540625,0.017851479898468425,0.029344036526507775,True
16917,117199,0,117200,3157.0,39056.0,27939.0,-0.011529,0.000732,0.004697,0.6300000000000001,0.45500000000000007,-3.7625,1.06265625,0.09525,-0.446,1.26153125,1.01059375,-0.3430625,-1.186,1.232125,0.018005643291594885,0.029381402366394027,True
16918,117200,0,117201,3154.0,39056.0,27936.0,-0.008784,0.00061,0.0030499999999999998,0.49000000000000005,-1.6275000000000002,-3.5700000000000003,1.05590625,0.0925,-0.44565625000000003,1.263625,1.01165625,-0.34128125,-1.1845625,1.22628125,0.017820805961066655,0.02933965003362675,True
16919,117201,0,117202,3153.0,39056.0,27937.0,-0.003294,-6.1e-05,0.002623,0.3325,-2.6075000000000004,-3.325,1.05553125,0.09431250000000001,-0.43928125,1.26559375,1.00540625,-0.34550000000000003,-1.18453125,1.2329375,0.01806545357458257,0.02959157717100651,True
16920,117202,0,117203,3152.0,39057.0,27935.0,0.001403,-0.002562,0.001647,0.07,-3.6225000000000005,-3.1850000000000005,1.04246875,0.09425,-0.4450625,1.259625,1.0112812500000001,-0.34665625,-1.1773125,1.23246875,0.018109519659398814,0.029083723689730584,True
16921,117203,0,117204,3151.0,39059.0,27936.0,0.004941,-0.005612,-0.000915,-0.21000000000000002,-4.48,-3.1325000000000003,1.056,0.09456250000000001,-0.4446875,1.26234375,1.0116875,-0.34646875,-1.18396875,1.23071875,0.018114793341436834,0.029355232185157475,True
16922,117204,0,117205,3151.0,39056.0,27935.0,0.006344,-0.002928,-0.006588,-0.21000000000000002,-6.0025,-3.325,1.05946875,0.09925,-0.44821875,1.25609375,1.0051875000000001,-0.34296875,-1.18415625,1.224625,0.018166179915915143,0.02922224166235468,True
16923,117205,0,117206,3149.0,39058.0,27935.0,0.010735999999999999,0.00244,-0.009089,0.28,-6.772500000000001,-3.325,1.05403125,0.09396875,-0.445875,1.26171875,1.01190625,-0.34646875,-1.18490625,1.2305,0.01809040582117273,0.02934421286559286,True
16924,117206,0,117207,3150.0,39055.0,27936.0,0.013847,0.0068319999999999995,-0.007625,0.7350000000000001,-7.490000000000001,-3.3075,1.0542500000000001,0.09365625,-0.445125,1.260375,1.01140625,-0.3470625,-1.18446875,1.232875,0.01810151635335885,0.0293571310691237,True
16925,117207,0,117208,3148.0,39058.0,27936.0,0.016165,0.005429,-0.005673,0.7875000000000001,-7.7525,-3.4475000000000002,1.05525,0.0976875,-0.4479375,1.2565,1.0111875000000001,-0.34409375000000003,-1.1885937500000001,1.2256875,0.01814736890749938,0.029404430328707817,True
16926,117208,0,117209,3147.0,39058.0,27935.0,0.016958,0.001281,-0.003843,0.385,-7.5600000000000005,-3.5175000000000005,1.05896875,0.09528125,-0.445375,1.2595,1.0051875000000001,-0.34550000000000003,-1.1843125,1.2336875,0.018105245322544206,0.029341182134711836,True
16927,117209,0,117210,3148.0,39057.0,27937.0,0.010065,-0.011041,-0.001952,-0.29750000000000004,-5.74,-3.4825000000000004,1.0556875000000001,0.09553125,-0.44703125,1.2601875,1.0110625,-0.3393125,-1.1849687500000001,1.2330625,0.01786590110135609,0.0293007113618118,True
16928,117210,0,117211,3147.0,39056.0,27936.0,0.0062829999999999995,-0.008235,0.0051849999999999995,-0.21000000000000002,-4.48,-3.3950000000000005,1.05540625,0.09528125,-0.4426875,1.2570000000000001,1.0118125,-0.34234375,-1.18903125,1.2251875,0.017977931972963778,0.029629712337587415,True
16929,117211,0,117212,3147.0,39056.0,27938.0,0.0011589999999999999,-0.004331,0.002928,0.29750000000000004,-3.4825000000000004,-3.5525,1.055625,0.09415625,-0.44590625,1.2574687500000001,1.00659375,-0.3476875,-1.18690625,1.22396875,0.018147257311397644,0.029420048363422963,True
16930,117212,0,117213,3147.0,39055.0,27939.0,-0.000549,0.000976,0.0025009999999999998,0.49000000000000005,-2.5200000000000005,-3.8325000000000005,1.06275,0.09528125,-0.44571875,1.25753125,1.02275,-0.34853125,-1.18553125,1.2233125,0.01822748548744598,0.029374504458785238,True
16931,117213,0,117214,3146.0,39058.0,27939.0,-0.000183,0.002196,0.002623,0.6825000000000001,-1.6450000000000002,-4.0425,1.0604375,0.09165625000000001,-0.446125,1.25725,1.0198125,-0.34865625,-1.18465625,1.2259375000000001,0.018083646813158324,0.029324650798042955,True
16932,117214,0,117215,3148.0,39057.0,27940.0,-0.005612,0.005124,-0.001037,0.7875000000000001,0.12250000000000001,-4.095000000000001,1.06825,0.09453125,-0.43721875,1.26559375,1.02265625,-0.342375,-1.18415625,1.236875,0.01794838219360272,0.029659024212891787,True
16933,117215,0,117216,3145.0,39059.0,27938.0,-0.011773,0.0042699999999999995,0.00366,0.9100000000000001,1.0850000000000002,-4.0425,1.08465625,0.09446875,-0.4445625,1.26534375,1.004125,-0.34246875,-1.18075,1.235125,0.017949596833722957,0.02923612283192518,True
16934,117216,0,117217,3148.0,39060.0,27938.0,-0.014091,0.0066489999999999995,0.001769,0.8750000000000001,1.4525000000000001,-4.1825,1.08040625,0.093,-0.4365625,1.2476562500000001,1.01353125,-0.34268750000000003,-1.18359375,1.2283125,0.01789808541065977,0.02966340933767644,True
16935,117217,0,117218,3146.0,39060.0,27938.0,-0.011895,0.003965,0.003965,0.8225000000000001,1.3650000000000002,-4.077500000000001,1.074375,0.091375,-0.442375,1.246,1.0214375,-0.34259375000000003,-1.183625,1.23025,0.01782754764988838,0.029433808675280067,True
16936,117218,0,117219,3147.0,39060.0,27938.0,-0.007686,0.00061,0.0025009999999999998,0.7350000000000001,0.9100000000000001,-3.8325000000000005,1.0736875000000001,0.0889375,-0.442875,1.25975,1.01228125,-0.3425625,-1.1845625,1.2334687500000001,0.017726153522251407,0.029450084749338013,True
16937,117219,0,117220,3146.0,39061.0,27935.0,-0.000976,-0.004148,0.000793,0.43750000000000006,0.15750000000000003,-3.8150000000000004,1.07975,0.09371875,-0.43753125,1.26621875,1.02021875,-0.33968750000000003,-1.1830625000000001,1.23253125,0.01780656592242608,0.029604471259204485,True
16938,117220,0,117221,3146.0,39059.0,27935.0,0.004026,-0.005124,0.000976,0.2625,0.15750000000000003,-3.9375000000000004,1.0815000000000001,0.09584375,-0.4398125,1.26221875,1.01553125,-0.34259375000000003,-1.18684375,1.2319375000000001,0.01801112504701764,0.029659581701260207,True
16939,117221,0,117222,3145.0,39058.0,27935.0,0.007076,-0.003477,-0.00183,0.35000000000000003,0.24500000000000002,-3.9375000000000004,1.0798125,0.0996875,-0.440875,1.264625,1.0153125,-0.34271875,-1.1824375,1.22990625,0.01817406899136934,0.029447606094525205,True
16940,117222,0,117223,3146.0,39061.0,27936.0,0.0055509999999999995,-0.000976,-0.003904,0.6300000000000001,0.45500000000000007,-3.8150000000000004,1.076625,0.09928125,-0.4395625,1.26546875,1.01259375,-0.34334375,-1.1840625,1.22959375,0.018182588412900345,0.029562347218603034,True
16941,117223,0,117224,3145.0,39057.0,27934.0,0.00244,0.003477,-0.0044529999999999995,0.8575,0.6300000000000001,-3.6750000000000003,1.06690625,0.0971875,-0.44571875,1.2750937500000001,1.01003125,-0.343625,-1.1875625,1.2315,0.01810792353234163,0.02945278051419228,True
16942,117224,0,117225,3144.0,39058.0,27936.0,-0.0044529999999999995,0.0062829999999999995,-0.00122,1.2775,0.8750000000000001,-3.5525,1.05009375,0.0986875,-0.447,1.2664375,1.01096875,-0.34268750000000003,-1.18746875,1.2276562500000001,0.01813172847081901,0.029398299501612286,True
16943,117225,0,117226,3144.0,39060.0,27936.0,-0.00671,0.0062829999999999995,-6.1e-05,1.1025,0.5775,-3.535,1.043,0.094875,-0.4454375,1.254125,1.0115625,-0.34471875,-1.18640625,1.2253125,0.018057047793990227,0.02941939166092821,True
16944,117226,0,117227,3144.0,39060.0,27934.0,-0.007625,0.00183,-0.00042699999999999997,0.8925000000000001,0.0,-3.3775000000000004,1.0470625,0.09559375,-0.4474375,1.25775,1.01225,-0.34671875,-1.18665625,1.2260625,0.018167232494111757,0.02934961841153488,True
16945,117227,0,117228,3143.0,39060.0,27937.0,-0.007808,-0.0017079999999999999,0.0011589999999999999,0.805,-0.7350000000000001,-3.3075,1.06475,0.1006875,-0.445625,1.2629062500000001,1.01134375,-0.34671875,-1.18440625,1.23309375,0.0183764495985727,0.02933486867493651,True
16946,117228,0,117229,3146.0,39062.0,27935.0,-0.0059169999999999995,-0.003721,0.00366,0.6825000000000001,-1.5050000000000001,-3.3600000000000003,1.05584375,0.09596875,-0.44646875,1.25371875,1.0169062500000001,-0.34234375,-1.18725,1.23153125,0.01800617493950228,0.029410961895403428,True
16947,117229,0,117230,3145.0,39060.0,27934.0,-0.002806,-0.001952,0.002745,0.56,-2.9050000000000002,-3.4125000000000005,1.0563125,0.09259375,-0.44509375,1.2559375,1.00215625,-0.34215625,-1.186625,1.2184375,0.017859962590618898,0.029441469430699824,True
16948,117230,0,117231,3145.0,39062.0,27933.0,-0.0011589999999999999,-0.000488,0.003294,0.5950000000000001,-3.5700000000000003,-3.22,1.050375,0.092625,-0.4440625,1.25615625,1.011375,-0.34503125,-1.1885000000000001,1.2245625,0.01797723098014097,0.029554657879587908,True
16949,117231,0,117232,3144.0,39063.0,27934.0,-0.002257,0.001098,0.003477,0.6475000000000001,-4.025,-3.1850000000000005,1.055625,0.0935625,-0.446375,1.2570937500000001,1.01228125,-0.3448125,-1.1871875,1.22471875,0.018006916257827,0.02941227558654574,True
16950,117232,0,117233,3145.0,39063.0,27933.0,0.001037,-0.000305,0.00122,0.47250000000000003,-4.9175,-3.0450000000000004,1.055125,0.0929375,-0.44521875,1.2565625,1.01209375,-0.34571875,-1.1864375,1.2178125,0.018017798303859894,0.02942928113592881,True
16951,117233,0,117234,3145.0,39062.0,27932.0,0.0062829999999999995,-0.001952,-0.00042699999999999997,0.2625,-5.7575,-2.9925,1.0619687500000001,0.09534375,-0.44159375,1.26346875,1.0171875,-0.34471875,-1.1835,1.23196875,0.01807630248346985,0.02946001350090337,True
16952,117234,0,117235,3145.0,39062.0,27932.0,0.015921,-0.005978,-0.006039,0.14,-6.6850000000000005,-3.0100000000000002,1.0555625,0.09475,-0.444625,1.2515625000000001,1.01125,-0.3428125,-1.18525,1.2255,0.01797501829338742,0.029407093437627176,True
16953,117235,0,117236,3145.0,39060.0,27935.0,0.015189,-0.0044529999999999995,-0.010065,0.24500000000000002,-6.300000000000001,-3.115,1.062625,0.09556250000000001,-0.43943750000000004,1.25725,1.0195625,-0.34415625,-1.1823125,1.23115625,0.01806259972555015,0.02949987218211195,True
16954,117236,0,117237,3145.0,39059.0,27933.0,0.012199999999999999,-0.000244,-0.008052,0.47250000000000003,-5.407500000000001,-3.2375000000000003,1.055125,0.09603125,-0.44546875,1.26,1.0120625,-0.3449375,-1.1848750000000001,1.224375,0.018113365458424364,0.0293591391658684,True
16955,117237,0,117238,3146.0,39060.0,27934.0,0.009394,0.001647,-0.00366,0.8575,-4.2700000000000005,-3.3075,1.05975,0.09575,-0.44803125,1.2594687500000001,1.02028125,-0.34409375000000003,-1.18290625,1.23046875,0.018067780814391584,0.02918150084444682,True
16956,117238,0,117239,3146.0,39061.0,27936.0,0.004148,0.003965,-0.001647,0.9975,-3.2550000000000003,-3.4125000000000005,1.0555,0.09203125,-0.44859375,1.25628125,1.0115,-0.3438125,-1.18646875,1.2254375,0.017903676755643763,0.029296484843672258,True
16957,117239,0,117240,3145.0,39059.0,27936.0,-0.002257,0.004514,-0.000244,1.0850000000000002,-1.6625,-3.5875000000000004,1.05509375,0.0923125,-0.445125,1.25665625,1.00284375,-0.34371875,-1.1869375,1.217625,0.017911447896595503,0.02945227064624272,True
16958,117240,0,117241,3146.0,39059.0,27935.0,0.000305,0.002623,0.00732,1.4175000000000002,-0.7525000000000001,-3.6925000000000003,1.0595625,0.0971875,-0.447375,1.256625,1.01103125,-0.3429375,-1.1864375,1.226,0.018080192663683253,0.029343669584076745,True
16959,117241,0,117242,3145.0,39062.0,27935.0,-0.007076,0.007259,0.0040869999999999995,1.2950000000000002,-0.22750000000000004,-3.6750000000000003,1.06153125,0.092875,-0.4454375,1.26265625,1.0073750000000001,-0.34496875,-1.1836875,1.225,0.01798497892916786,0.02931461089643842,True
16960,117242,0,117243,3145.0,39060.0,27934.0,-0.003904,0.0037819999999999998,0.002806,0.8925000000000001,-0.07,-3.4125000000000005,1.062125,0.09475,-0.44471875,1.26396875,1.01821875,-0.3430625,-1.1845625,1.229125,0.01798510355876546,0.02937687521869796,True
16961,117243,0,117244,3147.0,39061.0,27935.0,-0.002196,-0.0013419999999999999,0.001769,0.6300000000000001,0.22750000000000004,-3.325,1.05284375,0.09428125,-0.44634375,1.2629375,1.01196875,-0.34315625,-1.18021875,1.2298125,0.017969629554507746,0.029144901689942625,True
16962,117244,0,117245,3147.0,39058.0,27934.0,-0.00042699999999999997,-0.0048189999999999995,-0.001281,0.31500000000000006,1.2425000000000002,-3.4650000000000003,1.05521875,0.09490625,-0.44696875,1.25571875,1.01171875,-0.342625,-1.185125,1.2236875,0.0179738729902794,0.029309215260992352,True
16963,117245,0,117246,3147.0,39057.0,27934.0,-0.0051849999999999995,-0.0026839999999999998,-0.000488,0.31500000000000006,1.8200000000000003,-3.4650000000000003,1.0550625,0.092875,-0.4445,1.25753125,1.01246875,-0.34584375,-1.1848750000000001,1.22509375,0.018020272967536808,0.029397604713146286,True
16964,117246,0,117247,3147.0,39056.0,27931.0,-0.007259,-0.002989,0.0018909999999999999,0.5075000000000001,2.31,-3.4475000000000002,1.06165625,0.09975,-0.44453125,1.2639375,1.01125,-0.3443125,-1.18384375,1.23275,0.018240913560405535,0.029356618764758657,True
16965,117247,0,117248,3146.0,39054.0,27927.0,-0.0040869999999999995,-0.000732,0.000183,0.56,2.4675000000000002,-3.4650000000000003,1.0553125,0.09581250000000001,-0.4475,1.252875,1.01534375,-0.34325,-1.187,1.238875,0.018036313967937725,0.029360384325247152,True
16966,117248,0,117249,3146.0,39050.0,27923.0,-0.001769,-0.000244,0.000305,0.6300000000000001,2.415,-3.43,1.05525,0.093125,-0.44496875,1.26221875,1.00925,-0.33734375,-1.189875,1.2209375,0.017687581455967234,0.029571653293237857,True
16967,117249,0,117250,3143.0,39051.0,27921.0,-0.0030499999999999998,0.001952,-0.002989,0.7175,2.4850000000000003,-3.5000000000000004,1.0614375,0.09556250000000001,-0.44521875,1.2618125,1.02421875,-0.35015625,-1.18209375,1.21925,0.018304554000551844,0.029261863898826918,True
16968,117250,0,117251,3143.0,39049.0,27919.0,-0.005063,0.000976,-0.002806,0.7175,2.5200000000000005,-3.4125000000000005,1.06046875,0.09406250000000001,-0.4443125,1.2586875,1.02859375,-0.3415,-1.1814375,1.2195625,0.017893823305876796,0.02927255443617942,True
16969,117251,0,117252,3140.0,39049.0,27915.0,-0.008357,0.0011589999999999999,-0.001281,0.8400000000000001,2.3275,-3.3075,1.0623125,0.092125,-0.44534375,1.25596875,1.018875,-0.3509375,-1.1896875,1.21934375,0.018194884693864457,0.02954954284367363,True
16970,117252,0,117253,3138.0,39047.0,27912.0,-0.008601,0.002074,-0.000366,0.8750000000000001,2.0650000000000004,-3.3950000000000005,1.062,0.0928125,-0.44584375,1.24503125,1.00446875,-0.34353125,-1.187625,1.23465625,0.01792442294089934,0.029450226053468715,True
16971,117253,0,117254,3137.0,39048.0,27910.0,-0.009211,0.002806,-0.001403,0.805,1.2950000000000002,-3.3950000000000005,1.056125,0.09334375,-0.44571875,1.2566875,1.001875,-0.33975,-1.18940625,1.2237500000000001,0.017793681118335236,0.029523820157531504,True
16972,117254,0,117255,3136.0,39046.0,27909.0,-0.0017079999999999999,0.0006709999999999999,0.005673,0.5775,-0.15750000000000003,-3.4650000000000003,1.06371875,0.09496875,-0.444375,1.25775,0.99584375,-0.34521875,-1.18540625,1.21834375,0.01808106571233828,0.029423041369443865,True
16973,117255,0,117256,3134.0,39046.0,27907.0,0.001586,-0.00042699999999999997,0.005063,0.45500000000000007,-0.77,-3.4125000000000005,1.06203125,0.094875,-0.44396875,1.2651875000000001,1.01675,-0.350875,-1.18109375,1.21965625,0.018305297037580784,0.029272954039178702,True
16974,117256,0,117257,3133.0,39043.0,27905.0,0.006222,-0.001098,0.0044529999999999995,0.5075000000000001,-0.9450000000000001,-3.3075,1.055125,0.09565625,-0.44134375000000003,1.25659375,1.014375,-0.3409375,-1.18109375,1.2259375000000001,0.017936603715448512,0.029377198915356884,True
16975,117257,0,117258,3132.0,39043.0,27904.0,0.007076,-0.001586,0.00366,0.22750000000000004,-1.0850000000000002,-3.0975,1.06384375,0.09509375,-0.444625,1.2635625,1.0051875000000001,-0.34725,-1.18090625,1.23496875,0.01816811960282989,0.02923966447792164,True
16976,117258,0,117259,3130.0,39041.0,27903.0,0.00671,-0.0030499999999999998,-0.002257,0.052500000000000005,-1.225,-3.1675000000000004,1.05521875,0.09496875,-0.44875,1.25703125,1.00940625,-0.34109375000000003,-1.18390625,1.2253125,0.017914663345807953,0.029191509954894307,True
16977,117259,0,117260,3129.0,39042.0,27902.0,0.0060999999999999995,-0.0025009999999999998,-0.005795,0.0,-1.155,-3.3425000000000002,1.05490625,0.09390625,-0.44734375,1.2573750000000001,1.00596875,-0.344375,-1.1815,1.2215,0.01800338887319966,0.02915458769334631,True
16978,117260,0,117261,3128.0,39040.0,27900.0,0.0071979999999999995,0.0018909999999999999,-0.006771,0.43750000000000006,-1.2075,-3.535,1.05465625,0.095625,-0.4486875,1.256625,1.00965625,-0.34318750000000003,-1.18671875,1.2203125000000001,0.018026090461653804,0.029302397717050777,True
16979,117261,0,117262,3127.0,39039.0,27903.0,0.0057339999999999995,0.0030499999999999998,-0.004514,0.7175,-0.9800000000000001,-3.4125000000000005,1.06153125,0.09475,-0.443875,1.2619375,1.0112812500000001,-0.34625,-1.1811562500000001,1.230875,0.01811367253683832,0.02927908642002887,True
16980,117262,0,117263,3127.0,39042.0,27904.0,0.002257,0.0034159999999999998,-0.002806,0.7525000000000001,-0.5775,-3.3775000000000004,1.05625,0.09825,-0.44728125,1.26015625,1.01753125,-0.3433125,-1.18353125,1.23134375,0.018138965270235924,0.02923537579742713,True
16981,117263,0,117264,3125.0,39040.0,27902.0,-0.00183,-0.000976,0.0032329999999999998,0.5775,0.0,-3.5175000000000005,1.0560625000000001,0.09406250000000001,-0.44565625000000003,1.2563125,1.0115,-0.34390625,-1.1875625,1.2249375,0.017990898646350152,0.029455261897613157,True
16982,117264,0,117265,3126.0,39039.0,27900.0,-0.004575,-0.002623,0.004209,0.22750000000000004,1.05,-3.43,1.06065625,0.09453125,-0.44021875,1.251625,1.0169375,-0.343875,-1.18328125,1.231625,0.018008893407479295,0.029506182797366807,True
16983,117265,0,117266,3127.0,39040.0,27901.0,-0.004941,-0.001952,0.00244,0.2625,1.4525000000000001,-3.4475000000000002,1.0557812500000001,0.09571875,-0.4473125,1.2558125,1.0110625,-0.343375,-1.1865,1.2180312500000001,0.018037505070681446,0.029348559744307473,True
16984,117266,0,117267,3126.0,39040.0,27901.0,-0.00488,0.000976,0.0015249999999999999,0.385,2.0125,-3.3950000000000005,1.0595625,0.09278125,-0.4440625,1.263125,1.00284375,-0.34565625,-1.184,1.22690625,0.018008859383283206,0.029381253970775092,True
16985,117267,0,117268,3126.0,39041.0,27904.0,-0.006039,-6.1e-05,0.00183,0.49000000000000005,2.4850000000000003,-3.2900000000000005,1.0548125,0.09459375,-0.44621875,1.25659375,1.0141875,-0.3430625,-1.1848750000000001,1.22534375,0.017978684892256264,0.02932935938733069,True
16986,117268,0,117269,3127.0,39045.0,27905.0,-0.00671,-6.1e-05,-0.001464,0.36750000000000005,1.9775000000000003,-3.43,1.05940625,0.0918125,-0.441,1.25303125,1.0163125,-0.3464375,-1.1765,1.22503125,0.018000580167016222,0.02921375091851528,True
16987,117269,0,117270,3127.0,39043.0,27903.0,-0.004758,-0.000305,-0.003477,0.525,1.225,-3.5000000000000004,1.061,0.09546875,-0.4484375,1.2609375,1.019875,-0.34334375,-1.18596875,1.23221875,0.018025974759527438,0.029283417974541873,True
16988,117270,0,117271,3129.0,39043.0,27905.0,-0.004148,0.002257,-0.004331,0.665,0.7000000000000001,-3.5000000000000004,1.05403125,0.09221875,-0.43643750000000003,1.2539375,1.0110625,-0.34328125,-1.18375,1.22475,0.01788994653298844,0.029674393209907186,True
16989,117271,0,117272,3128.0,39040.0,27902.0,-0.0057339999999999995,0.003294,-0.0050019999999999995,0.7525000000000001,0.24500000000000002,-3.5700000000000003,1.06565625,0.09456250000000001,-0.438375,1.246125,1.0171875,-0.34609375000000003,-1.18384375,1.22440625,0.018099669479831854,0.02960107112322757,True
16990,117272,0,117273,3129.0,39041.0,27901.0,-0.0070149999999999995,0.0044529999999999995,-6.1e-05,0.8750000000000001,-0.29750000000000004,-3.5175000000000005,1.06584375,0.0935625,-0.4435625,1.2524375,1.01915625,-0.34268750000000003,-1.182625,1.22496875,0.017921192966060137,0.029348112041536572,True
16991,117273,0,117274,3128.0,39044.0,27901.0,-0.0035989999999999998,-0.000976,0.00732,0.5075000000000001,-1.715,-3.1850000000000005,1.0617812500000001,0.09253125,-0.445125,1.25334375,1.018375,-0.345625,-1.183625,1.2245625,0.017997330115780558,0.02932461073415761,True
16992,117274,0,117275,3128.0,39043.0,27900.0,0.001769,-0.003172,0.00671,0.3325,-2.8350000000000004,-3.115,1.0528125,0.09440625,-0.44756250000000003,1.25359375,1.0075,-0.33768750000000003,-1.1853125,1.22428125,0.01775410050770025,0.02929286662613378,True
16993,117275,0,117276,3126.0,39041.0,27899.0,0.009211,-0.0034159999999999998,0.001586,0.08750000000000001,-3.6400000000000006,-3.2025,1.05284375,0.09071875,-0.44084375000000003,1.25403125,1.01134375,-0.33884375,-1.1833125,1.2246875,0.017649256653780032,0.029482569062350316,True
16994,117276,0,117277,3126.0,39041.0,27902.0,0.012505,-0.002806,0.000488,0.21000000000000002,-4.130000000000001,-3.1500000000000004,1.06371875,0.092625,-0.44371875,1.263625,1.017125,-0.34171875,-1.18503125,1.2283125,0.01784359413815017,0.029434646820221833,True
16995,117277,0,117278,3127.0,39043.0,27901.0,0.013908,-0.005124,-0.000122,0.28,-3.9725000000000006,-3.1325000000000003,1.0635937500000001,0.09543750000000001,-0.44859375,1.253625,1.01615625,-0.3435625,-1.18528125,1.224875,0.018033515020654842,0.029250715633759306,True
16996,117278,0,117279,3126.0,39042.0,27901.0,0.009455,-0.0070149999999999995,-0.005856,-0.12250000000000001,-2.975,-3.3600000000000003,1.05328125,0.08896875,-0.44359375,1.26734375,1.011375,-0.34365625,-1.18265625,1.22934375,0.017771570365482794,0.02934807562248323,True
16997,117279,0,117280,3127.0,39039.0,27898.0,0.009211,-0.0046359999999999995,-0.010797,-0.08750000000000001,-2.1875,-3.4475000000000002,1.05359375,0.09653125,-0.44709375,1.25284375,1.01246875,-0.342125,-1.18521875,1.2266875,0.018020458361790517,0.02930786535256915,True
16998,117280,0,117281,3126.0,39036.0,27900.0,0.010248,-0.0006709999999999999,-0.010369999999999999,0.10500000000000001,-0.8225000000000001,-3.5875000000000004,1.05190625,0.09596875,-0.44565625000000003,1.254375,1.0113125,-0.34403125,-1.1863125,1.22525,0.01807424561205326,0.029407093634687492,True
16999,117281,0,117282,3126.0,39035.0,27898.0,0.009333,0.003965,-0.006222,0.36750000000000005,0.525,-3.7275000000000005,1.05528125,0.09390625,-0.444875,1.2556875,1.01175,-0.34503125,-1.18484375,1.2260312500000001,0.018029859789151018,0.029381510457058127,True
17000,117282,0,117283,3124.0,39034.0,27898.0,0.0051849999999999995,0.003111,-0.000305,0.525,2.1,-3.6575,1.06221875,0.09531250000000001,-0.44621875,1.2628125000000001,1.016,-0.34109375000000003,-1.184625,1.22959375,0.017928785554264588,0.029319723839445696,True
17001,117283,0,117284,3126.0,39037.0,27900.0,-0.006222,0.005246,0.006222,0.6125,4.812500000000001,-3.8850000000000002,1.047375,0.09415625,-0.444125,1.25665625,1.0119375,-0.34278125,-1.1866875000000001,1.225875,0.017949366406108586,0.029482340621409628,True
17002,117284,0,117285,3125.0,39036.0,27899.0,-0.008113,0.0048189999999999995,0.006893,0.6825000000000001,5.845000000000001,-3.8500000000000005,1.05790625,0.09365625,-0.44415625000000003,1.2630937500000001,1.010875,-0.34790625000000003,-1.1811875,1.2260312500000001,0.01813554296891545,0.029269122038029383,True
17003,117285,0,117286,3127.0,39040.0,27899.0,-0.008662,0.004331,0.006954,0.7350000000000001,6.4225,-3.99,1.054625,0.09396875,-0.4466875,1.2575,1.0150937500000001,-0.3394375,-1.1915,1.21253125,0.01780674882071535,0.029566024254212727,True
17004,117286,0,117287,3126.0,39039.0,27897.0,-0.010309,0.0030499999999999998,0.002623,0.6825000000000001,6.86,-4.2175,1.0578750000000001,0.09425,-0.44390625,1.2630937500000001,1.00671875,-0.35196875,-1.1851562500000001,1.2263125,0.01832372382623068,0.029432019108477845,True
17005,117287,0,117288,3127.0,39041.0,27899.0,-0.013603,0.0013419999999999999,-0.001098,0.6125,7.140000000000001,-4.2875000000000005,1.05521875,0.09378125,-0.4448125,1.2614375,1.031625,-0.334625,-1.19359375,1.2131875,0.01760480179990446,0.029721097253145947,True
17006,117288,0,117289,3127.0,39041.0,27900.0,-0.01647,-0.0037819999999999998,0.000732,0.5075000000000001,6.807500000000001,-4.305000000000001,1.04453125,0.094375,-0.44703125,1.25615625,1.02428125,-0.34318750000000003,-1.18628125,1.24403125,0.017974741393254275,0.029351296154528566,True
17007,117289,0,117290,3127.0,39041.0,27899.0,-0.016653,-0.002562,-0.000305,0.45500000000000007,5.7225,-4.7075000000000005,1.06109375,0.09153125000000001,-0.4448125,1.2616875,0.998625,-0.34453125,-1.18690625,1.21534375,0.017912133756939765,0.029463473704715124,True
17008,117290,0,117291,3131.0,39041.0,27897.0,-0.008601,0.001952,-0.00042699999999999997,0.7000000000000001,4.112500000000001,-5.11,1.05553125,0.09568750000000001,-0.4446875,1.25609375,1.0310625,-0.34218750000000003,-1.1789375,1.246875,0.01798831760703511,0.029161278151629708,True
17009,117291,0,117292,3127.0,39042.0,27900.0,-0.003721,0.0059169999999999995,-0.002745,0.8400000000000001,3.2375000000000003,-4.987500000000001,1.051,0.0925,-0.44496875,1.25653125,0.99665625,-0.34750000000000003,-1.18965625,1.213875,0.01807167060273129,0.0295632259769325,True
17010,117292,0,117293,3128.0,39043.0,27899.0,-0.005978,0.0035989999999999998,-0.003721,0.8750000000000001,2.9925,-4.2525,1.0611875,0.094875,-0.44640625,1.2627187500000001,1.02165625,-0.34503125,-1.17953125,1.24509375,0.01806965230328057,0.029115911361534973,True
17011,117293,0,117294,3129.0,39041.0,27898.0,-0.015982,-0.000366,0.0040869999999999995,0.35000000000000003,1.5750000000000002,-3.5700000000000003,1.0544375,0.09543750000000001,-0.44940625,1.25575,1.016125,-0.34065625,-1.1849375,1.22725,0.01791626920494389,0.02920520449971337,True
17012,117294,0,117295,3130.0,39042.0,27897.0,-0.010431,-0.003355,0.000488,0.10500000000000001,0.052500000000000005,-3.43,1.0578750000000001,0.09184375,-0.44446875,1.256375,0.99915625,-0.35240625000000003,-1.1870625000000001,1.21340625,0.0182425504666505,0.029483142387088615,True
17013,117295,0,117296,3130.0,39043.0,27899.0,-0.001464,-0.003721,0.000488,0.08750000000000001,-2.0125,-3.43,1.06125,0.09509375,-0.4450625,1.2620625,1.02396875,-0.347125,-1.17946875,1.2260312500000001,0.018163078802938746,0.029166868343876398,True
17014,117296,0,117297,3133.0,39043.0,27898.0,0.008418,-0.000915,-0.000305,0.28,-3.9550000000000005,-3.3950000000000005,1.06103125,0.09509375,-0.4448125,1.25640625,1.02434375,-0.34878125,-1.1824375,1.21703125,0.018229865201158685,0.029291247124111793,True
17015,117297,0,117298,3130.0,39041.0,27900.0,0.015799,0.000549,-0.0011589999999999999,0.36750000000000005,-5.442500000000001,-3.2900000000000005,1.06065625,0.09253125,-0.4491875,1.25578125,1.0110937500000001,-0.34315625,-1.184125,1.221875,0.017897740766462854,0.029182570369230616,True
17016,117298,0,117299,3133.0,39042.0,27902.0,0.015372,0.000549,-0.001098,0.45500000000000007,-6.4575000000000005,-2.765,1.044,0.09553125,-0.44553125,1.2623125,1.01165625,-0.34290625,-1.185875,1.2245625,0.018010893830723275,0.029395196712442992,True
17017,117299,0,117300,3132.0,39044.0,27902.0,0.012444,-0.001281,-0.00042699999999999997,0.29750000000000004,-6.545000000000001,-2.4850000000000003,1.054875,0.09615625,-0.4471875,1.25071875,1.01221875,-0.34309375000000003,-1.18709375,1.225125,0.018044132126796744,0.02937640433406494,True
17018,117300,0,117301,3134.0,39041.0,27902.0,0.010369999999999999,-0.002257,0.000488,0.08750000000000001,-6.4225,-2.345,1.05475,0.09571875,-0.44615625000000003,1.260875,1.01159375,-0.34290625,-1.186125,1.2313125,0.018018596279973764,0.029380015782499293,True
17019,117301,0,117302,3134.0,39042.0,27900.0,0.008845,-0.003111,-0.000366,0.10500000000000001,-6.335000000000001,-2.205,1.0559375,0.09596875,-0.44025000000000003,1.2513750000000001,1.0110000000000001,-0.34315625,-1.184,1.23071875,0.018038950885836753,0.02953263977128335,True
17020,117302,0,117303,3135.0,39038.0,27900.0,0.010614,-0.003477,6.1e-05,0.0175,-6.0025,-2.2575000000000003,1.0555,0.09565625,-0.446875,1.25790625,1.00421875,-0.34221875,-1.18709375,1.2255,0.017988294514032332,0.029388811482071054,True
17021,117303,0,117304,3135.0,39036.0,27896.0,0.007076,-0.005246,-0.00061,-0.0175,-4.760000000000001,-2.6075000000000004,1.05478125,0.09971875000000001,-0.4468125,1.25628125,1.0121875,-0.3409375,-1.1860625,1.2249375,0.01810350361402473,0.02935155108107907,True
17022,117304,0,117305,3135.0,39033.0,27892.0,0.002745,-0.004331,-0.002928,0.07,-3.9025000000000003,-2.9575000000000005,1.05546875,0.0945,-0.44571875,1.2558125,1.01125,-0.34440625,-1.18553125,1.2254375,0.01802903901178531,0.029374504458785238,True
17023,117305,0,117306,3131.0,39030.0,27890.0,-0.003843,-0.000976,-0.000732,0.22750000000000004,-3.43,-3.4475000000000002,1.0600625000000001,0.09531250000000001,-0.44565625000000003,1.2550625,1.0170625,-0.344125,-1.18546875,1.22915625,0.01805106981663954,0.029374577354253136,True
17024,117306,0,117307,3132.0,39030.0,27886.0,-0.002806,0.002928,-0.0025009999999999998,0.42000000000000004,-3.2375000000000003,-4.0600000000000005,1.06803125,0.09946875000000001,-0.44503125,1.26809375,1.01940625,-0.3439375,-1.18475,1.2329375,0.018214237117557503,0.029371693187345515,True
17025,117307,0,117308,3130.0,39031.0,27885.0,6.1e-05,0.0040869999999999995,-0.003172,0.47250000000000003,-2.7475,-4.357500000000001,1.06784375,0.09546875,-0.44175000000000003,1.27615625,1.0119375,-0.343,-1.18446875,1.23046875,0.018012108203590355,0.029491142234239102,True
17026,117308,0,117309,3130.0,39030.0,27884.0,-0.007442,0.003721,-0.0025009999999999998,0.3325,-1.6275000000000002,-4.760000000000001,1.05121875,0.09734375,-0.44959375,1.25628125,1.011375,-0.34368750000000003,-1.1890625000000001,1.22434375,0.018116862944449152,0.029356739656348867,True
17027,117309,0,117310,3126.0,39031.0,27880.0,-0.01342,0.002745,0.00042699999999999997,0.31500000000000006,-1.2775,-4.7250000000000005,1.04871875,0.09481250000000001,-0.45275,1.2514687500000001,1.01203125,-0.34559375000000003,-1.185875,1.22446875,0.018089772404914137,0.02910857772461747,True
17028,117310,0,117311,3126.0,39031.0,27878.0,-0.00976,0.002257,0.004209,0.31500000000000006,-1.3650000000000002,-4.777500000000001,1.04475,0.08903125,-0.447875,1.25025,1.01703125,-0.3469375,-1.18553125,1.22028125,0.01790651288278043,0.029288889826376004,True
17029,117311,0,117312,3126.0,39029.0,27876.0,-0.005246,0.000732,0.0037819999999999998,0.035,-1.9250000000000003,-5.040000000000001,1.0599687500000001,0.090375,-0.44484375,1.24534375,1.01853125,-0.345375,-1.18503125,1.22746875,0.017898676853406445,0.029389977429549543,True
17030,117312,0,117313,3125.0,39027.0,27874.0,0.002257,-0.00183,0.004392,-0.08750000000000001,-2.415,-4.9,1.06846875,0.093375,-0.44203125,1.2633125,1.018125,-0.3441875,-1.18434375,1.23134375,0.017974003034605283,0.029475157556964338,True
17031,117313,0,117314,3122.0,39030.0,27875.0,0.000976,-0.0051849999999999995,-0.0006709999999999999,-0.29750000000000004,-2.3975000000000004,-4.865,1.0595937500000001,0.0968125,-0.445,1.2709375,1.01125,-0.34259375000000003,-1.1807812500000001,1.2255,0.01805092154569601,0.029219953213326138,True
17032,117314,0,117315,3123.0,39030.0,27877.0,-0.00122,-0.0006709999999999999,-0.0011589999999999999,-0.2625,-2.4850000000000003,-5.005000000000001,1.05528125,0.09696875,-0.44209375,1.2709062500000001,1.0112812500000001,-0.34384375,-1.1819375,1.2304375,0.018107760817352436,0.02937993750480876,True
17033,117315,0,117316,3123.0,39029.0,27875.0,6.1e-05,0.00244,-0.001769,-0.10500000000000001,-2.6775,-4.970000000000001,1.0619375,0.095375,-0.44246875,1.26521875,1.01084375,-0.3428125,-1.18765625,1.23228125,0.018000693223102302,0.029585424408037176,True
17034,117316,0,117317,3124.0,39028.0,27873.0,0.004575,0.003355,-0.001769,0.0,-2.9575000000000005,-4.9,1.057125,0.09628125,-0.43909375,1.26296875,0.999125,-0.34315625,-1.1878125,1.22853125,0.0180517881694162,0.029725437649656947,True
17035,117317,0,117318,3122.0,39028.0,27875.0,0.00549,0.0028669999999999998,-0.00244,0.07,-3.0450000000000004,-5.022500000000001,1.0406875,0.09259375,-0.45084375,1.25121875,1.01175,-0.34400000000000003,-1.1856875,1.22478125,0.017934347272428524,0.029177037553570852,True
17036,117318,0,117319,3122.0,39031.0,27872.0,0.003172,6.1e-05,-0.00122,-0.12250000000000001,-2.6950000000000003,-4.8825,1.05509375,0.090625,-0.4436875,1.2561875,1.018875,-0.34653125,-1.184625,1.2276875,0.01795558658895197,0.02942023158970999,True
17037,117319,0,117320,3123.0,39030.0,27874.0,0.003111,-0.0013419999999999999,-0.002257,-0.31500000000000006,-2.415,-4.9,1.062875,0.09571875,-0.445,1.26234375,1.01915625,-0.33609375,-1.18625,1.2286875,0.01774370630044109,0.029430740979701223,True
17038,117320,0,117321,3122.0,39035.0,27876.0,0.00061,-0.001952,-0.001586,-0.31500000000000006,-2.0650000000000004,-5.0925,1.0542500000000001,0.09484375,-0.44646875,1.2633125,1.0110625,-0.34315625,-1.1861875,1.231875,0.01799273666495075,0.029370016799882874,True
17039,117321,0,117322,3121.0,39034.0,27877.0,-0.000915,-0.001037,-0.00061,-0.24500000000000002,-1.6625,-5.005000000000001,1.0560625000000001,0.09759375,-0.44515625000000003,1.2571875000000001,1.0114375,-0.342125,-1.1868125,1.23015625,0.0180641069750484,0.029446213172071696,True
17040,117322,0,117323,3124.0,39036.0,27880.0,-0.003355,-6.1e-05,0.0025009999999999998,-0.31500000000000006,-1.3825,-4.8475,1.05521875,0.09515625,-0.4443125,1.2564375,1.0115,-0.34025,-1.18475,1.23009375,0.017888322839740758,0.029400232283425483,True
17041,117323,0,117324,3124.0,39038.0,27880.0,-0.0053679999999999995,-6.1e-05,0.002196,-0.2625,-1.6275000000000002,-4.6375,1.05365625,0.09531250000000001,-0.4461875,1.2574687500000001,1.011625,-0.342625,-1.17875,1.2217500000000001,0.01799056182313945,0.029094474507272997,True
17042,117324,0,117325,3125.0,39041.0,27882.0,-0.0053679999999999995,-0.000305,0.00366,-0.31500000000000006,-2.0125,-4.7075000000000005,1.05559375,0.092875,-0.4471875,1.25603125,1.0114375,-0.3468125,-1.1846875000000001,1.22534375,0.018059345550880634,0.029283666910697226,True
17043,117325,0,117326,3124.0,39044.0,27885.0,-0.009089,-0.0023179999999999997,0.001281,-0.2625,-2.5375,-4.7075000000000005,1.0544375,0.09571875,-0.4456875,1.25803125,1.01140625,-0.34603125,-1.18471875,1.2173125,0.018144641131190534,0.02934443133298838,True
17044,117326,0,117327,3127.0,39046.0,27888.0,-0.011224,0.001769,-0.002379,-0.12250000000000001,-3.2725000000000004,-4.8475,1.05496875,0.09415625,-0.447375,1.2564375,1.011625,-0.34609375000000003,-1.1803125,1.22553125,0.01808298302474088,0.02910756171115827,True
17045,117327,0,117328,3127.0,39049.0,27888.0,-0.006405,0.004697,-0.000793,-0.08750000000000001,-4.165,-4.760000000000001,1.04684375,0.0925625,-0.44575000000000004,1.2570000000000001,1.0115625,-0.346125,-1.18353125,1.2259375000000001,0.018018781222884545,0.02929617942281227,True
17046,117328,0,117329,3128.0,39052.0,27886.0,-0.001464,0.000793,-0.000793,-0.17500000000000002,-6.2475000000000005,-4.4975000000000005,1.05484375,0.091625,-0.443875,1.2572812500000001,1.01040625,-0.345625,-1.1825625,1.225875,0.017960105768490234,0.029333293623315736,True
17047,117329,0,117330,3128.0,39054.0,27889.0,0.0075639999999999995,0.000244,-0.001769,-0.8225000000000001,-7.175000000000001,-4.655,1.0535625,0.09390625,-0.4408125,1.26521875,1.0180625,-0.344125,-1.1807812500000001,1.23490625,0.017993304339342656,0.0293862506748078,True
17048,117330,0,117331,3130.0,39053.0,27890.0,0.011895,-0.004575,-0.000549,-1.3650000000000002,-7.9975000000000005,-4.6375,1.05471875,0.0955,-0.44490625,1.2575625,1.004,-0.34340625,-1.18221875,1.22696875,0.01802977962461601,0.029279092018053413,True
17049,117331,0,117332,3129.0,39056.0,27891.0,0.017263,-0.012749,0.0050019999999999995,-1.54,-8.3475,-4.41,1.060125,0.091625,-0.4409375,1.25878125,1.01609375,-0.3468125,-1.1805625,1.2283125,0.018008004127850415,0.02937285455795517,True
17050,117332,0,117333,3129.0,39056.0,27892.0,0.018666,-0.012199999999999999,0.007808,-1.155,-7.525,-4.2875000000000005,1.0584375,0.09481250000000001,-0.44246875,1.25846875,1.01859375,-0.34328125,-1.18121875,1.22903125,0.017996495439578427,0.029337340949790208,True
17051,117333,0,117334,3131.0,39058.0,27894.0,0.015982,-0.0060999999999999995,0.0035989999999999998,-0.665,-6.6325,-4.165,1.05428125,0.09184375,-0.4406875,1.2571875000000001,1.01065625,-0.3455625,-1.1795625,1.2258125,0.01796656988311525,0.0293442350318835,True
17052,117334,0,117335,3132.0,39061.0,27896.0,0.012017,0.0015249999999999999,-0.0023179999999999997,-0.1925,-5.670000000000001,-4.130000000000001,1.06190625,0.09515625,-0.44065625,1.258875,1.0186250000000001,-0.342875,-1.1789687500000001,1.22859375,0.01799422829061892,0.029322586930809077,True
17053,117335,0,117336,3136.0,39063.0,27895.0,0.011041,0.009089,-0.005429,0.29750000000000004,-4.6375,-4.305000000000001,1.054625,0.09253125,-0.4416875,1.2575,1.01134375,-0.34665625,-1.17903125,1.2263125,0.01803892474967687,0.029284039670906717,True
17054,117336,0,117337,3133.0,39065.0,27899.0,0.0073809999999999995,0.009516,-0.0050019999999999995,0.5775,-3.43,-4.165,1.0589375,0.09203125,-0.43990625,1.262375,1.013875,-0.3463125,-1.17940625,1.23196875,0.018004523272261458,0.02936923899863604,True
17055,117337,0,117338,3134.0,39066.0,27899.0,0.0018909999999999999,0.003721,-0.0070149999999999995,0.15750000000000003,-0.8575,-4.48,1.059375,0.09515625,-0.43940625,1.2620625,1.01284375,-0.343125,-1.1790625000000001,1.233125,0.018004313332819842,0.029375845506559275,True
17056,117338,0,117339,3135.0,39069.0,27901.0,-0.0028669999999999998,0.003172,-0.006893,0.1925,0.5775,-4.62,1.0549375,0.0931875,-0.44234375000000004,1.258,1.01059375,-0.3435625,-1.1825625,1.2266875,0.017941088121346246,0.02939409958776038,True
17057,117339,0,117340,3135.0,39068.0,27902.0,-0.008967,0.0040869999999999995,-0.003904,0.4025,1.9600000000000002,-4.62,1.0575,0.09428125,-0.43996875,1.261875,1.013875,-0.34675,-1.17759375,1.2339375000000001,0.01811458408206434,0.029296882272556328,True
17058,117340,0,117341,3134.0,39069.0,27903.0,-0.016531,0.0062829999999999995,-0.000976,0.6125,2.87,-4.655,1.05459375,0.09528125,-0.43925000000000003,1.25834375,1.01125,-0.3443125,-1.18021875,1.224875,0.018057349124153743,0.02942662084696941,True
17059,117341,0,117342,3136.0,39073.0,27902.0,-0.018239,0.004941,0.003477,0.6825000000000001,3.3425000000000002,-4.6375,1.0585,0.095375,-0.43925000000000003,1.26140625,0.99840625,-0.3423125,-1.1773125,1.239625,0.017980522598253557,0.02931458629669072,True
17060,117342,0,117343,3140.0,39073.0,27904.0,-0.014335,-0.000488,0.00549,0.1925,2.9575000000000005,-4.532500000000001,1.0545625,0.095625,-0.44065625,1.25853125,1.00028125,-0.33975,-1.18103125,1.22746875,0.017887406403106033,0.029402092100576697,True
17061,117343,0,117344,3141.0,39078.0,27906.0,-0.010553,-0.0028669999999999998,0.006527,-0.08750000000000001,2.5725000000000002,-4.4275,1.05115625,0.09115625000000001,-0.4331875,1.2590937500000001,1.0071875000000001,-0.34653125,-1.17965625,1.2253125,0.01797740694580465,0.029645708527097147,True
17062,117344,0,117345,3140.0,39079.0,27904.0,-0.009943,-0.005612,0.001281,-0.15750000000000003,1.9600000000000002,-4.2525,1.06175,0.08737500000000001,-0.4419375,1.2584375,1.01859375,-0.3475625,-1.17840625,1.2241875,0.017863697854764722,0.029250014583429008,True
17063,117345,0,117346,3142.0,39082.0,27905.0,-0.01159,-0.0051849999999999995,0.00122,-0.22750000000000004,1.12,-4.2700000000000005,1.05128125,0.09396875,-0.44225000000000003,1.24415625,1.00578125,-0.341125,-1.17228125,1.2245625,0.0178748414463177,0.0290013941426147,True
17064,117346,0,117347,3143.0,39083.0,27906.0,-0.008905999999999999,-0.002806,-0.000366,-0.035,0.08750000000000001,-4.445,1.046875,0.08940625,-0.4405625,1.24721875,1.01921875,-0.3488125,-1.177375,1.22971875,0.017997540947838835,0.029264865777309988,True
17065,117347,0,117348,3144.0,39084.0,27909.0,0.002745,-0.001464,0.00042699999999999997,0.12250000000000001,-1.995,-4.130000000000001,1.0750625,0.091625,-0.43078125,1.2690000000000001,1.022375,-0.3415625,-1.1768750000000001,1.2390625,0.017796207618142837,0.029634088821587277,True
17066,117348,0,117349,3146.0,39087.0,27911.0,0.0028669999999999998,-0.0015249999999999999,0.001281,0.22750000000000004,-3.0450000000000004,-4.0075,1.0674062500000001,0.10162500000000001,-0.436375,1.26928125,1.01175,-0.3425,-1.18021875,1.22928125,0.018244839272876658,0.02954079777404635,True
17067,117349,0,117350,3147.0,39087.0,27913.0,0.001403,0.002196,0.0017079999999999999,0.3325,-4.165,-4.095000000000001,1.04221875,0.09481250000000001,-0.44590625,1.25934375,1.008375,-0.3463125,-1.1785,1.22325,0.01811876028454001,0.029096004527672425,True
17068,117350,0,117351,3147.0,39090.0,27912.0,0.0006709999999999999,0.002745,-0.00183,0.45500000000000007,-5.215000000000001,-4.305000000000001,1.033625,0.09196875,-0.44221875,1.2431875000000001,1.00815625,-0.3489375,-1.17825,1.22528125,0.01810782297995549,0.029232819993446728,True
17069,117351,0,117352,3150.0,39091.0,27915.0,0.0023179999999999997,0.0051849999999999995,-0.003111,0.5425000000000001,-6.405,-4.4625,1.05515625,0.08290625,-0.434625,1.2663125,1.0215625,-0.34503125,-1.176,1.23228125,0.0175780222093574,0.029447688274547187,True
17070,117352,0,117353,3150.0,39093.0,27915.0,0.006039,0.002257,-0.002806,0.22750000000000004,-8.295,-4.375,1.0611875,0.098125,-0.42928125,1.27953125,1.0113125,-0.3399375,-1.1794375,1.23603125,0.01799768384779131,0.029792414941755545,True
17071,117353,0,117354,3154.0,39092.0,27918.0,0.005246,-0.0015249999999999999,-0.004392,-0.17500000000000002,-8.925,-4.357500000000001,1.05209375,0.09375,-0.44865625000000003,1.241,1.0080625,-0.34490625,-1.17834375,1.22696875,0.01801839963955499,0.028980758513951103,True
17072,117354,0,117355,3153.0,39092.0,27919.0,0.00793,-0.002928,-0.000488,-0.47250000000000003,-9.3275,-4.7250000000000005,1.06278125,0.08928125,-0.44046875,1.245875,1.01703125,-0.3451875,-1.1789375,1.22646875,0.017846186232905372,0.02932882890709745,True
17073,117355,0,117356,3154.0,39093.0,27918.0,0.010248,-0.002074,-0.0046359999999999995,-0.49000000000000005,-9.835,-5.005000000000001,1.0654375,0.09546875,-0.43721875,1.27303125,1.00853125,-0.34318750000000003,-1.17740625,1.23453125,0.01801967182810386,0.029398878210498747,True
17074,117356,0,117357,3155.0,39093.0,27921.0,0.011833999999999999,-0.001647,-0.0035989999999999998,-0.43750000000000006,-10.010000000000002,-4.7250000000000005,1.04134375,0.0909375,-0.43953125,1.2446875,1.0115625,-0.34625,-1.17859375,1.2275,0.017957077578682548,0.02935281085743719,True
17075,117357,0,117358,3157.0,39094.0,27919.0,0.007991,0.003294,0.0042699999999999995,0.12250000000000001,-9.117500000000001,-4.0600000000000005,1.05728125,0.095,-0.438,1.2650000000000001,1.0190625,-0.3451875,-1.1779375,1.2309375,0.01808108892157844,0.029388328571393115,True
17076,117358,0,117359,3156.0,39093.0,27917.0,0.0060999999999999995,-0.000915,0.007137,0.0175,-8.4875,-3.7625,1.05875,0.09531250000000001,-0.4373125,1.26246875,1.0171875,-0.34334375,-1.1772500000000001,1.23596875,0.01801955616717609,0.029389131060779082,True
17077,117359,0,117360,3159.0,39091.0,27915.0,0.013847,-0.002928,0.0073809999999999995,-0.6125,-8.190000000000001,-3.9725000000000006,1.0551875,0.0926875,-0.43915625,1.25903125,1.01078125,-0.343875,-1.179875,1.2240312500000001,0.017933155670574217,0.029417094008608067,True
17078,117360,0,117361,3159.0,39088.0,27914.0,0.022509,-0.011101999999999999,0.0051849999999999995,-1.225,-7.525,-4.0425,1.06109375,0.09421875,-0.43746875,1.260875,1.015625,-0.34584375,-1.17684375,1.23390625,0.01807546719345063,0.029367263321082488,True
17079,117361,0,117362,3158.0,39089.0,27914.0,0.021228,-0.017385,0.002562,-1.4175000000000002,-6.1775,-3.6575,1.0509375,0.09581250000000001,-0.43928125,1.26384375,1.01284375,-0.343,-1.176625,1.23528125,0.018026229306166045,0.029286838486095732,True
17080,117362,0,117363,3157.0,39088.0,27912.0,0.010187,-0.009516,-0.000915,-0.49000000000000005,-1.61,-4.1475,1.05509375,0.09628125,-0.43703125,1.2600625,1.01446875,-0.33959375,-1.17603125,1.2275625000000001,0.017908063892808402,0.02935331596396871,True
17081,117363,0,117364,3155.0,39089.0,27910.0,0.0032329999999999998,0.000976,-0.005307,0.21000000000000002,0.8750000000000001,-4.7250000000000005,1.06221875,0.09406250000000001,-0.43646875,1.258,1.0185,-0.3471875,-1.1763125,1.2241875,0.018123243187739856,0.02938650169678344,True
17082,117364,0,117365,3155.0,39090.0,27908.0,0.0044529999999999995,0.0071979999999999995,-0.009821,0.36750000000000005,2.87,-4.6025,1.06215625,0.0916875,-0.43578125,1.25990625,1.0167187500000001,-0.34421875,-1.1759375,1.22690625,0.017905945328395477,0.029399352059878606,True
17083,117365,0,117366,3154.0,39091.0,27908.0,-0.000549,0.012322,-0.008845,1.1375000000000002,5.1275,-4.550000000000001,1.0581875,0.0965625,-0.439,1.25765625,1.0163125,-0.34390625,-1.1773437500000001,1.22671875,0.018093593751002883,0.029325720669004254,True
17084,117366,0,117367,3155.0,39094.0,27905.0,-0.007991,0.012565999999999999,-0.003965,1.2775,7.5425,-4.777500000000001,1.060375,0.09446875,-0.43546875,1.25871875,1.0136875,-0.3441875,-1.175,1.23334375,0.018018931623821906,0.02937562065541211,True
17085,117367,0,117368,3155.0,39092.0,27903.0,-0.018605,0.0075639999999999995,-0.004392,0.9100000000000001,11.392500000000002,-5.197500000000001,1.05465625,0.0925,-0.43493750000000003,1.2649375,1.0110937500000001,-0.34615625,-1.17609375,1.23246875,0.018017474524340982,0.02943888981983156,True
17086,117368,0,117369,3155.0,39092.0,27904.0,-0.019703,0.0053679999999999995,0.0018909999999999999,0.665,12.425,-5.460000000000001,1.0538125,0.0930625,-0.4395,1.25803125,1.0098125,-0.34353125,-1.17834375,1.2288125,0.017934692609561317,0.029344414284597255,True
17087,117369,0,117370,3152.0,39094.0,27901.0,-0.023667999999999998,-0.000122,0.002257,0.5075000000000001,13.195000000000002,-5.3725000000000005,1.05471875,0.091625,-0.44003125,1.25765625,1.0105,-0.34540625,-1.17765625,1.228625,0.017951281876842785,0.029296809547155533,True
17088,117370,0,117371,3153.0,39096.0,27902.0,-0.027267,-0.004758,0.007991,0.22750000000000004,13.475000000000001,-5.565,1.0544375,0.0975,-0.4378125,1.258125,1.00290625,-0.34296875,-1.17703125,1.22934375,0.01809429057415193,0.029360838561933313,True
17089,117371,0,117372,3153.0,39097.0,27901.0,-0.025315,-0.00549,0.006771,0.14,12.88,-5.7225,1.0545625,0.09503125,-0.43790625,1.25853125,1.0110625,-0.34328125,-1.17675,1.22521875,0.018005481491941436,0.029346271857964196,True
17090,117372,0,117373,3152.0,39097.0,27901.0,-0.009637999999999999,-0.0018909999999999999,-0.001098,0.07,10.71,-5.670000000000001,1.05478125,0.09253125,-0.43696875,1.2585,1.01125,-0.34475,-1.17746875,1.2274375,0.017962034935663746,0.029411217122451996,True
17091,117373,0,117374,3153.0,39097.0,27902.0,-0.0021349999999999997,0.0017079999999999999,-0.0044529999999999995,0.24500000000000002,10.185,-5.425000000000001,1.0597812500000001,0.09178125000000001,-0.43615625,1.258,1.00271875,-0.34590625,-1.17565625,1.22690625,0.01797786845581072,0.029373613647111982,True
17092,117374,0,117375,3152.0,39099.0,27903.0,-0.001647,0.002196,-0.000244,0.36750000000000005,10.342500000000001,-4.7250000000000005,1.062625,0.10071875,-0.43575,1.2650625,1.01225,-0.34371875,-1.172125,1.2238437500000001,0.018256762845651923,0.029253589039463294,True
17093,117375,0,117376,3153.0,39099.0,27901.0,-0.008601,0.001769,0.0032329999999999998,0.6475000000000001,10.6925,-3.8150000000000004,1.0555625,0.09134375,-0.43578125,1.2576875,1.0069062500000001,-0.3445625,-1.1734375000000001,1.22725,0.017905692492933483,0.02930296071007387,True
17094,117376,0,117377,3153.0,39099.0,27901.0,-0.017446,0.004209,0.00732,0.7000000000000001,10.045000000000002,-3.5525,1.06209375,0.09493750000000001,-0.4375,1.25934375,1.016375,-0.3388125,-1.1748750000000001,1.2295625000000001,0.017821329614992516,0.029290115641090575,True
17095,117377,0,117378,3153.0,39101.0,27904.0,-0.009637999999999999,0.009028,0.004026,0.8750000000000001,5.5475,-3.7975000000000003,1.05471875,0.0925,-0.4396875,1.2526875,1.0109062500000001,-0.34284375,-1.17653125,1.2271875,0.017883849334570864,0.029267087776438622,True
17096,117378,0,117379,3153.0,39102.0,27903.0,0.000122,0.007076,0.002623,0.7875000000000001,2.5725000000000002,-4.112500000000001,1.0541875,0.09146875,-0.43915625,1.2581875,1.011125,-0.347375,-1.179875,1.2274375,0.018024273663998686,0.029417094008608067,True
17097,117379,0,117380,3155.0,39102.0,27902.0,0.008357,0.0023179999999999997,0.001647,0.31500000000000006,0.28,-4.357500000000001,1.05525,0.09075,-0.4365,1.2526875,1.0111875000000001,-0.345875,-1.17425,1.22503125,0.017934249641879785,0.029305738999175743,True
17098,117380,0,117381,3155.0,39105.0,27906.0,0.010309,-0.0040869999999999995,0.000488,-0.22750000000000004,-1.155,-4.375,1.06103125,0.09753125,-0.43625,1.26521875,1.008125,-0.34571875,-1.176,1.2221250000000001,0.01820648651007685,0.029383142675564026,True
17099,117381,0,117382,3156.0,39103.0,27905.0,0.0055509999999999995,-0.010675,0.001098,-0.7525000000000001,-2.1,-4.112500000000001,1.0555,0.09553125,-0.43909375,1.25921875,1.0253125,-0.34228125,-1.17246875,1.2317500000000001,0.01798568077919977,0.02913401173653259,True
17100,117382,0,117383,3157.0,39104.0,27908.0,0.0023179999999999997,-0.011467999999999999,-0.000488,-0.7350000000000001,-3.7800000000000002,-3.8675,1.055,0.093625,-0.4383125,1.2576875,1.0050625,-0.3400625,-1.1771562500000001,1.241875,0.017817846605775973,0.029345798336537717,True
17101,117383,0,117384,3157.0,39105.0,27909.0,0.004026,-0.0071979999999999995,-0.001952,-0.43750000000000006,-4.655,-3.7100000000000004,1.055,0.094625,-0.4378125,1.25675,1.0041875,-0.341125,-1.17078125,1.24215625,0.017901801991485604,0.02911982519414252,True
17102,117384,0,117385,3159.0,39105.0,27913.0,0.004575,-0.0046359999999999995,-0.003477,-0.052500000000000005,-5.3725000000000005,-3.535,1.0575,0.09184375,-0.4358125,1.26415625,0.99703125,-0.34128125,-1.175625,1.229875,0.017793845588962166,0.0293860629080708,True
17103,117385,0,117386,3158.0,39104.0,27912.0,0.0071979999999999995,-0.001647,-0.005307,-0.035,-6.055000000000001,-3.4650000000000003,1.055125,0.092125,-0.43565625,1.2666250000000001,1.00540625,-0.342875,-1.17571875,1.2261250000000001,0.017869705201213906,0.029395883682566154,True
17104,117386,0,117387,3160.0,39106.0,27913.0,0.0068319999999999995,0.001098,-0.0066489999999999995,0.0175,-6.44,-3.7100000000000004,1.0550625,0.09165625000000001,-0.4365,1.263625,1.0091875000000001,-0.34590625,-1.1691875,1.231,0.01797273412239481,0.029110494726935467,True
17105,117387,0,117388,3161.0,39106.0,27915.0,0.008357,0.005307,-0.000793,0.5425000000000001,-6.9125000000000005,-3.43,1.05471875,0.09125,-0.43093750000000003,1.26440625,1.01075,-0.34625,-1.1752500000000001,1.22159375,0.017969913230990398,0.029565247614224296,True
17106,117388,0,117389,3162.0,39108.0,27917.0,0.0073809999999999995,0.006893,0.00122,0.7350000000000001,-7.035000000000001,-3.5525,1.05484375,0.0925,-0.43684375000000003,1.25878125,1.02628125,-0.34028125,-1.17471875,1.2231875,0.01778045395428617,0.0293101586288824,True
17107,117389,0,117390,3162.0,39108.0,27917.0,0.012017,0.0073809999999999995,0.0015249999999999999,0.7350000000000001,-6.9125000000000005,-3.7450000000000006,1.0605625,0.09153125000000001,-0.43221875,1.26534375,1.00896875,-0.34846875,-1.1734375000000001,1.22428125,0.018070951587047954,0.029444478927440888,True
17108,117390,0,117391,3164.0,39107.0,27918.0,0.015616,0.0048189999999999995,-0.000366,0.5075000000000001,-6.790000000000001,-3.7800000000000002,1.05809375,0.09465625,-0.43371875,1.2636875,1.01896875,-0.34265625,-1.1719375,1.23215625,0.01796486363315425,0.02932705319167427,True
17109,117391,0,117392,3163.0,39110.0,27917.0,0.009821,-0.000915,-0.000793,0.2625,-6.16,-3.7450000000000006,1.055,0.091875,-0.43646875,1.2616875,1.00871875,-0.34509375000000003,-1.17453125,1.22815625,0.01794894505181357,0.029317824934674802,True
17110,117392,0,117393,3162.0,39107.0,27921.0,0.003538,-0.0030499999999999998,0.0,0.052500000000000005,-3.5875000000000004,-3.6925000000000003,1.06003125,0.09509375,-0.43853125,1.25915625,1.0189375,-0.342125,-1.174,1.2288125,0.01796140435561809,0.029215410741240958,True
17111,117393,0,117394,3164.0,39108.0,27920.0,-0.002623,-0.00488,-6.1e-05,0.052500000000000005,-2.415,-3.8325000000000005,1.05428125,0.09303125,-0.43934375000000003,1.25471875,1.0110937500000001,-0.34115625,-1.1789375,1.227125,0.017837587316748768,0.02937350910855551,True
17112,117394,0,117395,3164.0,39110.0,27919.0,-0.004392,-0.0050019999999999995,0.000305,-0.21000000000000002,-1.3650000000000002,-3.8850000000000002,1.0549375,0.09396875,-0.43093750000000003,1.258375,1.0110937500000001,-0.345875,-1.17078125,1.2259375000000001,0.01806645889704108,0.029392959346464468,True
17113,117395,0,117396,3167.0,39113.0,27922.0,-0.005673,-0.003538,-0.000976,0.052500000000000005,-0.7000000000000001,-3.7275000000000005,1.06009375,0.09478125,-0.4381875,1.264125,1.0185,-0.34371875,-1.175,1.234125,0.018012860093530286,0.029267626613704075,True
17114,117396,0,117397,3167.0,39114.0,27925.0,-0.010248,0.00122,-0.0011589999999999999,0.6475000000000001,0.385,-3.7450000000000006,1.05440625,0.094625,-0.43859375,1.25828125,1.0111875000000001,-0.34253125,-1.1771875,1.234875,0.017958537076952507,0.029335832288654166,True
17115,117397,0,117398,3168.0,39115.0,27926.0,-0.012078,0.003904,0.000488,0.7525000000000001,0.525,-3.8675,1.05528125,0.09228125,-0.43865625,1.2535625000000001,1.01071875,-0.34221875,-1.17759375,1.22734375,0.017849646511783154,0.029349011956315327,True
17116,117398,0,117399,3171.0,39115.0,27925.0,-0.010553,0.005978,-0.000244,0.8575,0.45500000000000007,-3.9375000000000004,1.0599687500000001,0.0936875,-0.43615625,1.25759375,1.01228125,-0.34059375000000003,-1.1752500000000001,1.2301875,0.017841851125755717,0.0293579507651364,True
17117,117399,0,117400,3171.0,39116.0,27927.0,-0.008967,0.0057339999999999995,0.000915,0.9450000000000001,0.0175,-3.9200000000000004,1.05375,0.1013125,-0.438,1.2585625,1.01065625,-0.34225,-1.17203125,1.22753125,0.01822191868048352,0.02916058869901491,True
17118,117400,0,117401,3172.0,39117.0,27928.0,-0.003965,0.003477,0.004148,0.77,-0.31500000000000006,-3.8675,1.063625,0.09446875,-0.435625,1.265875,1.01971875,-0.33825,-1.17459375,1.232875,0.017779369921830865,0.029353750743246858,True
17119,117401,0,117402,3174.0,39118.0,27929.0,0.00122,-0.004209,0.0040869999999999995,0.17500000000000002,-1.0675000000000001,-3.7100000000000004,1.0545,0.09071875,-0.43940625,1.257625,1.01196875,-0.345875,-1.17828125,1.228,0.01793296605687822,0.02934572827523721,True
17120,117402,0,117403,3174.0,39118.0,27930.0,0.002745,-0.006161,0.0018909999999999999,-0.035,-1.4875,-3.7275000000000005,1.0518750000000001,0.0895625,-0.436625,1.2510937500000001,1.0105625,-0.34515625,-1.1764375,1.2276562500000001,0.017856478123856774,0.029385114554034898,True
17121,117403,0,117404,3175.0,39119.0,27932.0,0.004392,-0.00549,-0.0026839999999999998,-0.07,-1.7850000000000001,-3.7450000000000006,1.06515625,0.0945,-0.43471875,1.25940625,1.0194375,-0.34428125,-1.17471875,1.230875,0.018023996908924964,0.029394568707942367,True
17122,117404,0,117405,3177.0,39119.0,27931.0,0.0053679999999999995,-0.002928,-0.004392,0.22750000000000004,-1.8200000000000003,-3.5525,1.06,0.09540625,-0.43925000000000003,1.26215625,1.01825,-0.34315625,-1.17728125,1.23325,0.01801584377539375,0.029313381483554744,True
17123,117405,0,117406,3178.0,39119.0,27933.0,0.004148,0.0021349999999999997,-0.0040869999999999995,0.525,-1.8025000000000002,-3.535,1.052125,0.09075,-0.4346875,1.2510625,1.01084375,-0.346625,-1.1745625,1.2274375,0.017964502266741286,0.0293897858205083,True
17124,117406,0,117407,3177.0,39120.0,27934.0,0.00061,0.003172,-0.000488,0.8225000000000001,-1.6450000000000002,-3.3425000000000002,1.066125,0.09609375,-0.440875,1.24784375,1.0195,-0.34296875,-1.17484375,1.2237500000000001,0.018036522353092204,0.029154848279842847,True
17125,117407,0,117408,3178.0,39117.0,27935.0,0.001037,0.000976,0.002745,0.5775,-1.6975000000000002,-3.3075,1.06571875,0.0963125,-0.441375,1.2461875,1.01609375,-0.34303125,-1.17778125,1.22690625,0.018048029659412282,0.02924825832300056,True
17126,117408,0,117409,3180.0,39119.0,27937.0,0.000549,-0.001098,0.0028669999999999998,0.42000000000000004,-1.6625,-3.325,1.0553125,0.0918125,-0.43543750000000003,1.2558125,1.0112812500000001,-0.34290625,-1.1753437500000001,1.2274375,0.017858128587255273,0.029390115080355165,True
17127,117409,0,117410,3180.0,39118.0,27938.0,-0.0006709999999999999,-0.001403,0.001037,0.43750000000000006,-1.5050000000000001,-3.2900000000000005,1.0670625,0.09603125,-0.43925000000000003,1.2493750000000001,1.01459375,-0.3430625,-1.177125,1.2281250000000001,0.018037736624140863,0.029307357373012207,True
17128,117410,0,117411,3180.0,39121.0,27938.0,-0.0018909999999999999,0.000976,-0.0006709999999999999,0.525,-1.4875,-3.3075,1.05159375,0.090375,-0.435375,1.2630937500000001,1.00459375,-0.343875,-1.1744375,1.2290625,0.01783816257682887,0.029357656948640856,True
17129,117411,0,117412,3180.0,39122.0,27939.0,0.000366,0.0018909999999999999,-0.00244,0.5075000000000001,-1.6975000000000002,-3.325,1.0520625000000001,0.09468750000000001,-0.43640625,1.2564375,1.0106875,-0.34328125,-1.1769687500000001,1.22890625,0.01799136055251385,0.02941428363968558,True
17130,117412,0,117413,3182.0,39122.0,27941.0,0.0044529999999999995,-0.000488,-0.00042699999999999997,0.43750000000000006,-1.8025000000000002,-3.3075,1.0629375,0.09465625,-0.435125,1.26275,1.014375,-0.34328125,-1.1758125,1.2315625000000001,0.017990076830747704,0.02942059963308036,True
17131,117413,0,117414,3183.0,39120.0,27942.0,0.004148,-0.003355,0.000976,0.1925,-1.6800000000000002,-3.3600000000000003,1.0541562500000001,0.09431250000000001,-0.4375625,1.25103125,1.0131875000000001,-0.34321875,-1.17840625,1.2294375,0.01797343459356623,0.029423774588592157,True
17132,117414,0,117415,3183.0,39121.0,27943.0,0.001647,-0.004209,0.003111,0.12250000000000001,-1.2775,-3.1675000000000004,1.0461875,0.09334375,-0.437375,1.25815625,1.010875,-0.34221875,-1.17875,1.228,0.017893294956935674,0.029444472025021096,True
17133,117415,0,117416,3185.0,39123.0,27944.0,-0.001952,-0.0030499999999999998,0.001037,0.15750000000000003,-0.7000000000000001,-3.0625000000000004,1.061,0.09378125,-0.4360625,1.26346875,1.00115625,-0.3433125,-1.17653125,1.2283125,0.017955393293332615,0.02941107107437606,True
17134,117416,0,117417,3186.0,39123.0,27945.0,-0.002379,0.002379,6.1e-05,0.77,-0.47250000000000003,-2.8875,1.0629375,0.09396875,-0.4365,1.263625,1.03334375,-0.34368750000000003,-1.178375,1.2213125,0.017978223307376914,0.029464768874083416,True
17135,117417,0,117418,3185.0,39125.0,27946.0,-0.00042699999999999997,0.004209,-0.002379,0.8575,-0.31500000000000006,-2.7825,1.05109375,0.09506250000000001,-0.4328125,1.25821875,1.01965625,-0.33990625,-1.1645,1.2511875000000001,0.017870600877930663,0.029076178743865366,True
17136,117418,0,117419,3187.0,39123.0,27944.0,-0.00183,0.003843,-0.0035989999999999998,0.805,-0.49000000000000005,-2.8875,1.05321875,0.092375,-0.43728125,1.25809375,1.0051875000000001,-0.339375,-1.1873125,1.21659375,0.017738746372903985,0.029778137306233046,True
17137,117419,0,117420,3188.0,39119.0,27939.0,-0.0008539999999999999,0.001586,-0.002745,0.6300000000000001,-0.45500000000000007,-2.9575000000000005,1.062625,0.09518750000000001,-0.4365625,1.2596875,1.0086875,-0.35559375,-1.1728125,1.21875,0.01850832521789784,0.029247824413740027,True
17138,117420,0,117421,3188.0,39117.0,27937.0,-0.002196,-0.002379,-0.001952,0.4025,-0.43750000000000006,-3.2375000000000003,1.055375,0.094875,-0.4366875,1.26215625,1.0265625,-0.3450625,-1.17171875,1.21646875,0.018070912736412155,0.02920067784405862,True
17139,117421,0,117422,3188.0,39117.0,27934.0,-0.0042699999999999995,-0.002928,0.003111,0.2625,-0.5775,-3.535,1.0618750000000001,0.09431250000000001,-0.43693750000000003,1.2581875,1.0283125,-0.34865625,-1.1748750000000001,1.20728125,0.018192739075693347,0.029312459346868658,True
17140,117422,0,117423,3187.0,39117.0,27933.0,-0.00366,-0.0021349999999999997,0.004575,0.36750000000000005,-0.805,-3.6575,1.061125,0.09459375,-0.43565625,1.2604375,1.00615625,-0.3501875,-1.175625,1.2161250000000001,0.018266029779031474,0.02939226930811052,True
17141,117423,0,117424,3188.0,39116.0,27932.0,-0.000915,0.000549,0.003538,0.6300000000000001,-0.9450000000000001,-3.6400000000000006,1.0604375,0.09490625,-0.43609375,1.2631875000000001,1.0269062500000001,-0.35065625,-1.17109375,1.2421875,0.018297761482300914,0.029200161395449894,True
17142,117424,0,117425,3187.0,39116.0,27929.0,0.00042699999999999997,0.002257,0.0006709999999999999,0.5950000000000001,-1.2775,-3.7100000000000004,1.0549375,0.0914375,-0.43925000000000003,1.25865625,1.0076875,-0.33768750000000003,-1.18034375,1.22671875,0.01763211891022925,0.02943143895722234,True
17143,117425,0,117426,3187.0,39116.0,27930.0,0.0013419999999999999,0.0053679999999999995,-0.0021349999999999997,0.7350000000000001,-1.5750000000000002,-3.7275000000000005,1.05503125,0.0918125,-0.43165625,1.26315625,0.99803125,-0.34503125,-1.17921875,1.21525,0.017943856613451666,0.029689662233861006,True
17144,117426,0,117427,3185.0,39118.0,27928.0,0.006527,0.003172,-0.001647,0.6475000000000001,-1.6975000000000002,-3.7100000000000004,1.05546875,0.09518750000000001,-0.43890625,1.252625,1.0325625,-0.33984375,-1.17603125,1.2275625000000001,0.01787321457229979,0.029278840365277985,True
17145,117427,0,117428,3185.0,39117.0,27927.0,0.008173999999999999,0.0,-0.000976,0.22750000000000004,-1.4875,-3.7975000000000003,1.052125,0.09340625,-0.43728125,1.2645,1.01028125,-0.34984375,-1.1728125,1.22225,0.01820340222922375,0.02921927178379452,True
17146,117428,0,117429,3183.0,39117.0,27929.0,0.006893,-0.003538,0.000366,0.0175,-1.1900000000000002,-3.9375000000000004,1.0541875,0.09540625,-0.4396875,1.2585625,1.0148125000000001,-0.34009375000000003,-1.17628125,1.2248125,0.017892289342558508,0.02925744841685068,True
17147,117429,0,117430,3185.0,39117.0,27929.0,0.003538,-0.005429,-0.000793,-0.10500000000000001,-0.49000000000000005,-3.8150000000000004,1.05990625,0.092625,-0.4368125,1.25990625,1.01325,-0.3470625,-1.17675,1.2316875,0.018059160114284836,0.029389714716951156,True
17148,117430,0,117431,3184.0,39117.0,27929.0,-0.001403,-0.003843,0.000244,-0.0175,0.24500000000000002,-3.8150000000000004,1.0615,0.099625,-0.43653125,1.2650000000000001,1.0033125,-0.34315625,-1.1788125,1.2310625,0.018189147103716267,0.029480391499797698,True
17149,117431,0,117432,3184.0,39117.0,27928.0,-0.0070149999999999995,0.000122,0.002562,0.4025,0.7000000000000001,-3.8500000000000005,1.054875,0.09509375,-0.43893750000000004,1.25865625,1.00271875,-0.342375,-1.17584375,1.22721875,0.017971490045650844,0.029270369538260267,True
17150,117432,0,117433,3184.0,39119.0,27930.0,-0.0060999999999999995,0.001403,0.001037,0.36750000000000005,0.7000000000000001,-3.9025000000000003,1.04903125,0.09503125,-0.43853125,1.25675,1.01034375,-0.34318750000000003,-1.1795625,1.22815625,0.018001699654164028,0.029429869959019344,True
17151,117433,0,117434,3186.0,39119.0,27928.0,-0.0071979999999999995,0.0018909999999999999,-0.000122,0.29750000000000004,0.5950000000000001,-3.8325000000000005,1.05459375,0.09296875,-0.43893750000000004,1.25809375,1.0110625,-0.3455625,-1.1776875,1.22671875,0.0180127795363118,0.02934145560429249,True
17152,117434,0,117435,3184.0,39124.0,27931.0,-0.0059169999999999995,0.002196,0.001037,0.36750000000000005,0.2625,-3.8850000000000002,1.05475,0.09340625,-0.43496875,1.258125,1.010375,-0.3464375,-1.177625,1.22378125,0.01806604148964299,0.029496676116194435,True
17153,117435,0,117436,3184.0,39121.0,27930.0,-0.00671,0.001952,0.000244,0.525,-0.035,-3.9375000000000004,1.05090625,0.09296875,-0.4375,1.25825,1.0106875,-0.34459375000000003,-1.17984375,1.22759375,0.017973703093731027,0.029481666263318256,True
17154,117436,0,117437,3185.0,39124.0,27931.0,-0.00122,0.000305,0.001281,0.43750000000000006,-0.8225000000000001,-3.7800000000000002,1.0544375,0.092625,-0.438625,1.25871875,1.00059375,-0.344375,-1.175875,1.2279375000000001,0.01795075864547765,0.029283987150396953,True
17155,117437,0,117438,3184.0,39124.0,27932.0,0.002013,-0.000732,0.0008539999999999999,0.24500000000000002,-1.3650000000000002,-3.7100000000000004,1.05453125,0.090625,-0.4408125,1.23590625,1.0120625,-0.3451875,-1.17825,1.22759375,0.017901381946637297,0.02928867177027792,True
17156,117438,0,117439,3186.0,39124.0,27933.0,0.005856,-0.00061,-0.001098,0.2625,-1.61,-3.8500000000000005,1.05509375,0.08928125,-0.44171875,1.25628125,1.01453125,-0.3439375,-1.17628125,1.22615625,0.017795755103298307,0.029176767319438808,True
17157,117439,0,117440,3186.0,39124.0,27934.0,0.006588,-0.001403,-0.003111,0.21000000000000002,-1.8200000000000003,-3.8325000000000005,1.0504375,0.089625,-0.43984375000000003,1.2438125,1.013625,-0.34600000000000003,-1.1733437500000001,1.2270625,0.01789308305265752,0.029137964637693393,True
17158,117440,0,117441,3187.0,39125.0,27934.0,0.0066489999999999995,-0.0008539999999999999,-0.001769,0.24500000000000002,-1.6975000000000002,-3.7800000000000002,1.0511875,0.08753125,-0.43575,1.259875,1.01884375,-0.34475,-1.1746875,1.23490625,0.017756651844853612,0.029352400104271405,True
17159,117441,0,117442,3188.0,39124.0,27934.0,0.0050019999999999995,-0.001769,0.0006709999999999999,0.035,-0.7875000000000001,-3.8325000000000005,1.0625,0.09825,-0.4391875,1.255875,1.0111875000000001,-0.34328125,-1.1788125,1.22715625,0.01813770483385431,0.02937489605595975,True
17160,117442,0,117443,3187.0,39125.0,27936.0,0.004575,-0.003843,-0.000183,0.0175,-0.45500000000000007,-3.6750000000000003,1.048625,0.09290625,-0.443125,1.26303125,1.01075,-0.34290625,-1.17940625,1.22771875,0.01790305954121645,0.029241406357626086,True
17161,117443,0,117444,3189.0,39125.0,27939.0,0.001952,-0.003477,-0.0013419999999999999,0.12250000000000001,-0.15750000000000003,-3.7275000000000005,1.0483437500000001,0.09696875,-0.4335,1.27259375,1.01190625,-0.3455625,-1.1779375,1.21671875,0.0181770805254551,0.029567056475535383,True
17162,117444,0,117445,3190.0,39128.0,27940.0,0.001952,6.1e-05,-0.002928,0.385,0.24500000000000002,-3.7975000000000003,1.0405312500000001,0.0983125,-0.4383125,1.26596875,1.0110625,-0.3425625,-1.1768125,1.22746875,0.01811128142322732,0.02933254557144595,True
17163,117445,0,117446,3189.0,39127.0,27939.0,-0.00183,0.002928,-0.0015249999999999999,0.665,0.6300000000000001,-3.8325000000000005,1.0474375,0.096875,-0.4395625,1.2609375,1.01071875,-0.34603125,-1.1801875,1.22796875,0.018192133471446194,0.02941300576097775,True
17164,117446,0,117447,3193.0,39128.0,27940.0,-0.007137,0.006222,0.000732,0.9975,1.0850000000000002,-3.9375000000000004,1.0478750000000001,0.0969375,-0.4440625,1.2565625,1.01078125,-0.345875,-1.178625,1.2259375000000001,0.018188399472189847,0.02917405140272751,True
17165,117447,0,117448,3192.0,39129.0,27941.0,-0.009394,0.00366,0.0011589999999999999,0.8750000000000001,1.0325000000000002,-4.0075,1.04728125,0.09203125,-0.44396875,1.25196875,1.011125,-0.34521875,-1.1769687500000001,1.22796875,0.017960405469759848,0.029113909910223012,True
17166,117448,0,117449,3193.0,39129.0,27939.0,-0.008357,0.002074,0.003294,0.7175,0.8750000000000001,-3.9725000000000006,1.0483437500000001,0.09603125,-0.43743750000000003,1.26696875,1.01028125,-0.34528125,-1.1788125,1.23425,0.018127229481072437,0.02944439893660593,True
17167,117449,0,117450,3193.0,39129.0,27941.0,-0.004514,-0.000305,0.00122,0.5425000000000001,0.385,-3.7975000000000003,1.05653125,0.09531250000000001,-0.43646875,1.2649375,1.0109062500000001,-0.34225,-1.1771875,1.23234375,0.017975433659583647,0.029420234090880886,True
17168,117450,0,117451,3195.0,39131.0,27941.0,-0.0046359999999999995,0.000366,0.0006709999999999999,0.42000000000000004,-0.0175,-3.7450000000000006,1.05203125,0.094875,-0.4386875,1.257625,1.011125,-0.34596875,-1.17871875,1.227375,0.018107463889683994,0.029391140087300906,True
17169,117451,0,117452,3197.0,39132.0,27942.0,-0.00244,-0.0032329999999999998,0.003904,0.3325,-0.6475000000000001,-3.6050000000000004,1.055625,0.09296875,-0.4383125,1.25825,1.01103125,-0.34396875,-1.1745,1.2261250000000001,0.017948490835127284,0.029243381199229382,True
17170,117452,0,117453,3196.0,39132.0,27944.0,-0.001037,-0.0057339999999999995,0.002379,0.21000000000000002,-0.9100000000000001,-3.5000000000000004,1.05496875,0.09375,-0.4395,1.25765625,1.0111875000000001,-0.34603125,-1.1764375,1.2270625,0.018063775795079538,0.029270920478721426,True
17171,117453,0,117454,3197.0,39133.0,27945.0,-0.00042699999999999997,-0.005063,0.000305,0.0175,-1.33,-3.4825000000000004,1.05515625,0.09590625,-0.44,1.26253125,1.01065625,-0.34265625,-1.177375,1.23509375,0.01801621382218713,0.02928720726445867,True
17172,117454,0,117455,3198.0,39135.0,27945.0,0.000244,-0.0040869999999999995,-0.002989,0.17500000000000002,-1.9425000000000001,-3.5525,1.0575625,0.09534375,-0.439375,1.26409375,1.01075,-0.34321875,-1.17940625,1.23459375,0.018015797520613417,0.029390337589870686,True
17173,117455,0,117456,3198.0,39132.0,27947.0,0.002562,0.0030499999999999998,-0.002745,0.36750000000000005,-2.5025000000000004,-3.2725000000000004,1.0555625,0.09393750000000001,-0.43646875,1.2626875,1.01003125,-0.34275,-1.1765,1.2355625000000001,0.017939119450349695,0.029393730264333808,True
17174,117456,0,117457,3199.0,39134.0,27949.0,0.0060999999999999995,0.0050019999999999995,-0.00183,0.77,-3.4650000000000003,-3.3425000000000002,1.0585625,0.09678125,-0.43621875,1.2583125,1.0100625,-0.3438125,-1.173,1.229625,0.018098798205909615,0.029268710523179597,True
17175,117457,0,117458,3200.0,39135.0,27949.0,0.009394,0.004758,-0.00122,0.77,-3.6925000000000003,-3.43,1.0618750000000001,0.09146875,-0.43659375,1.258375,1.0189375,-0.34590625,-1.1765,1.2273125,0.017965032622270942,0.02938876531686295,True
17176,117458,0,117459,3201.0,39134.0,27951.0,0.011773,0.002257,-0.000488,0.47250000000000003,-3.6050000000000004,-3.4125000000000005,1.0545,0.09434375,-0.436375,1.26021875,1.0116875,-0.3430625,-1.1768750000000001,1.2331875,0.017968415025841553,0.02941191073157412,True
17177,117459,0,117460,3202.0,39133.0,27954.0,0.011833999999999999,-0.001952,-0.000305,0.385,-3.1500000000000004,-3.3775000000000004,1.0628125,0.0945,-0.43678125,1.26553125,1.01965625,-0.34321875,-1.1753437500000001,1.233625,0.017981136943938446,0.029336739443726566,True
17178,117460,0,117461,3203.0,39133.0,27953.0,0.005063,-0.0025009999999999998,-0.000122,0.24500000000000002,-1.6275000000000002,-3.5000000000000004,1.0591875,0.09531250000000001,-0.43821875,1.26571875,1.013125,-0.34175,-1.17840625,1.23396875,0.017955262049770455,0.029397710587817687,True
17179,117461,0,117462,3204.0,39138.0,27956.0,-0.00122,-0.0011589999999999999,-0.000305,0.3325,-0.665,-3.5000000000000004,1.0606875,0.09903125,-0.4360625,1.26453125,1.012,-0.33703125,-1.1720625,1.23509375,0.017917653781210477,0.029238764205356635,True
17180,117462,0,117463,3205.0,39138.0,27958.0,-0.0046359999999999995,0.002013,-0.000122,0.5425000000000001,-0.052500000000000005,-3.5000000000000004,1.05890625,0.09515625,-0.4365,1.2635,1.0110625,-0.3435625,-1.1761875,1.2334375,0.01802196165824127,0.029380441339658753,True
17181,117463,0,117464,3207.0,39140.0,27957.0,-0.003721,0.003294,-6.1e-05,0.7000000000000001,0.4025,-3.6225000000000005,1.05446875,0.101375,-0.43884375000000003,1.259875,1.00971875,-0.34268750000000003,-1.17990625,1.22725,0.018242131235509638,0.02943070925849853,True
17182,117464,0,117465,3206.0,39141.0,27959.0,-0.004331,0.001464,-0.00122,0.5775,0.8400000000000001,-3.6400000000000006,1.0550625,0.09109375,-0.43934375000000003,1.25834375,1.010875,-0.3465625,-1.1713125,1.227375,0.017976100322170736,0.029079482843812773,True
17183,117465,0,117466,3207.0,39142.0,27959.0,-0.007503,-0.002928,-0.00042699999999999997,0.24500000000000002,1.3650000000000002,-3.5175000000000005,1.06171875,0.0945,-0.43390625,1.2625,1.0159375,-0.34425,-1.17640625,1.23328125,0.01802273637511938,0.029491897796175743,True
17184,117466,0,117467,3208.0,39143.0,27963.0,-0.008296,-0.00244,0.001098,0.36750000000000005,1.3475000000000001,-3.5875000000000004,1.0608125,0.09565625,-0.43634375000000003,1.26265625,1.0069062500000001,-0.34275,-1.1756875,1.222,0.018009725688346634,0.029367370801691117,True
17185,117467,0,117468,3208.0,39144.0,27963.0,-0.009455,-0.000488,0.001647,0.5425000000000001,1.1725,-3.5875000000000004,1.05946875,0.09543750000000001,-0.43934375000000003,1.2625,1.01403125,-0.33703125,-1.1774375,1.2316562500000001,0.0177699878657139,0.029315681947378477,True
17186,117468,0,117469,3211.0,39144.0,27962.0,-0.009211,0.002745,0.002257,0.805,0.8925000000000001,-3.6575,1.0548125,0.09565625,-0.4376875,1.25796875,1.00865625,-0.3428125,-1.1773125,1.22659375,0.018012246941474,0.029376646137271402,True
17187,117469,0,117470,3212.0,39147.0,27965.0,-0.0070149999999999995,0.0035989999999999998,0.0046359999999999995,0.9275000000000001,0.1925,-3.5175000000000005,1.05471875,0.09384375,-0.4390625,1.25859375,1.0110937500000001,-0.33784375,-1.1788125,1.22915625,0.01773729441417751,0.029379860547434477,True
17188,117470,0,117471,3213.0,39148.0,27966.0,0.001647,0.0,0.0026839999999999998,0.5950000000000001,-1.1025,-3.5175000000000005,1.05475,0.09246875,-0.43871875,1.25825,1.0108125000000001,-0.343,-1.1795625,1.2271875,0.017888869490202523,0.029422423443616227,True
17189,117471,0,117472,3214.0,39147.0,27967.0,0.003294,-0.004331,0.00183,0.24500000000000002,-1.4175000000000002,-3.4825000000000004,1.05471875,0.092875,-0.43659375,1.2591875000000001,1.0056875,-0.34671875,-1.179375,1.22759375,0.018055564469031376,0.029499590438603025,True
17190,117472,0,117473,3215.0,39147.0,27968.0,0.001403,-0.005612,-0.00042699999999999997,-0.035,-1.6275000000000002,-3.3950000000000005,1.054625,0.095,-0.438125,1.25821875,1.00915625,-0.3430625,-1.1800625,1.22559375,0.017995373425180174,0.029465276347109944,True
17191,117473,0,117474,3216.0,39146.0,27968.0,-0.000366,-0.002806,-0.0051849999999999995,0.035,-1.8025000000000002,-3.43,1.0549375,0.1014375,-0.43825000000000003,1.258,1.00478125,-0.34371875,-1.17940625,1.224625,0.018286287915645592,0.02943501695954407,True
17192,117474,0,117475,3216.0,39147.0,27967.0,0.002745,0.000732,-0.0060999999999999995,0.3325,-2.2225,-3.5175000000000005,1.0545625,0.08971875,-0.438,1.25840625,1.00921875,-0.34625,-1.1675625,1.22553125,0.01790701853468193,0.028988206545627934,True
17193,117475,0,117476,3217.0,39148.0,27971.0,0.005795,0.00549,-0.0026839999999999998,0.8225000000000001,-2.8350000000000004,-3.535,1.08096875,0.09434375,-0.43621875,1.2704375,1.0229062500000001,-0.34259375000000003,-1.1748750000000001,1.23015625,0.01794950466196726,0.029341009637585097,True
17194,117476,0,117477,3218.0,39148.0,27970.0,0.0066489999999999995,0.005246,0.0021349999999999997,0.77,-2.8175000000000003,-3.6575,1.07615625,0.1044375,-0.43878125,1.2610000000000001,1.0109375,-0.34190625,-1.1758125,1.21834375,0.018336433696518734,0.029275370953767626,True
17195,117477,0,117478,3219.0,39150.0,27971.0,0.005673,0.0023179999999999997,0.002989,0.45500000000000007,-2.6775,-3.7450000000000006,1.04071875,0.090875,-0.44559375,1.2474687500000001,1.0089062500000001,-0.3490625,-1.17671875,1.2243125,0.018067944094356816,0.029039725440790413,True
17196,117478,0,117479,3221.0,39149.0,27973.0,0.006039,-0.0013419999999999999,0.0025009999999999998,0.3325,-2.5725000000000002,-3.8150000000000004,1.04175,0.0871875,-0.4393125,1.24678125,1.018,-0.34771875,-1.172,1.22453125,0.01786229972777224,0.02910724217384395,True
17197,117479,0,117480,3221.0,39149.0,27973.0,0.005246,-0.002257,0.000183,0.29750000000000004,-2.1700000000000004,-3.9725000000000006,1.06540625,0.08196875,-0.4346875,1.2478125,1.0231875,-0.34403125,-1.1741875,1.231625,0.017499155978942478,0.029375327406296628,True
17198,117480,0,117481,3221.0,39148.0,27974.0,0.001464,-0.0046359999999999995,-0.00122,0.08750000000000001,-0.8750000000000001,-4.0600000000000005,1.07525,0.0913125,-0.43162500000000004,1.256125,1.02325,-0.3428125,-1.17446875,1.2355,0.017833806179955582,0.02950782228522697,True
17199,117481,0,117482,3221.0,39148.0,27970.0,-0.002806,-0.0034159999999999998,0.000244,0.1925,-0.08750000000000001,-4.0425,1.07065625,0.09640625,-0.43065625,1.2780625,1.01721875,-0.34268750000000003,-1.17503125,1.23465625,0.018038014496139756,0.02956798713010535,True
17200,117482,0,117483,3223.0,39146.0,27967.0,-0.006893,-0.002196,0.00042699999999999997,0.45500000000000007,0.43750000000000006,-3.99,1.0475625,0.0995,-0.4388125,1.2609062500000001,1.00784375,-0.34396875,-1.179875,1.22728125,0.0182167811072301,0.029430745784083518,True
17201,117483,0,117484,3223.0,39145.0,27963.0,-0.008357,-0.001403,0.000915,0.525,0.7525000000000001,-3.9725000000000006,1.0414375,0.08621875,-0.4371875,1.246375,1.0110000000000001,-0.34650000000000003,-1.1765,1.22728125,0.017773345244696367,0.029365181816376384,True
17202,117484,0,117485,3221.0,39142.0,27962.0,-0.0057339999999999995,0.002562,0.00183,0.56,0.6300000000000001,-4.077500000000001,1.0709375,0.08890625,-0.43375,1.2535625000000001,1.019375,-0.34318750000000003,-1.1753125,1.23159375,0.017750089219006348,0.029455940219212766,True
17203,117485,0,117486,3222.0,39142.0,27961.0,-0.0053679999999999995,0.0032329999999999998,0.00183,0.7175,0.36750000000000005,-3.8500000000000005,1.0743125,0.09203125,-0.43025,1.2667187500000001,1.0181875,-0.343375,-1.17571875,1.23290625,0.017886026485645478,0.029610624324280705,True
17204,117486,0,117487,3222.0,39143.0,27960.0,-0.0057339999999999995,0.0046359999999999995,-0.0018909999999999999,0.8225000000000001,0.035,-3.8150000000000004,1.04590625,0.09303125,-0.43396875,1.2571875000000001,1.0103125,-0.34328125,-1.177,1.2284375,0.017923323298908195,0.029512302895499862,True
17205,117487,0,117488,3222.0,39145.0,27957.0,-0.0042699999999999995,0.002989,-0.0021349999999999997,0.7175,-0.4025,-3.8675,1.04959375,0.09431250000000001,-0.4368125,1.25725,1.00853125,-0.3455625,-1.1786875,1.2260312500000001,0.01806797439985213,0.029464403178283225,True
17206,117488,0,117489,3222.0,39145.0,27956.0,-0.002379,0.0023179999999999997,-0.001769,0.5425000000000001,-0.8750000000000001,-3.99,1.0578750000000001,0.0921875,-0.43678125,1.258625,1.010625,-0.34571875,-1.1768750000000001,1.22821875,0.017986992066110187,0.029395774892634615,True
17207,117489,0,117490,3221.0,39144.0,27956.0,-0.0011589999999999999,0.000549,0.000244,0.31500000000000006,-1.4175000000000002,-4.095000000000001,1.06053125,0.09493750000000001,-0.4356875,1.26609375,1.01571875,-0.33940625,-1.17528125,1.23590625,0.017845289467568668,0.02937777507450885,True
17208,117490,0,117491,3222.0,39142.0,27953.0,0.00042699999999999997,-0.0048189999999999995,0.002623,-0.10500000000000001,-2.3275,-4.1475,1.0541562500000001,0.09481250000000001,-0.440125,1.25796875,1.0119375,-0.34328125,-1.178375,1.2275625000000001,0.017996495439578427,0.02932079611968604,True
17209,117491,0,117492,3220.0,39143.0,27953.0,0.002196,-0.004026,0.002257,0.052500000000000005,-2.6775,-4.1475,1.06203125,0.09875,-0.434625,1.26153125,1.0144375,-0.3470625,-1.1756875,1.234625,0.018310730503936563,0.029435641032643102,True
17210,117492,0,117493,3223.0,39148.0,27955.0,0.001769,-0.001403,0.0015249999999999999,0.21000000000000002,-2.9400000000000004,-4.130000000000001,1.054375,0.093375,-0.4361875,1.25759375,1.0108125000000001,-0.34625,-1.17771875,1.21940625,0.01805719566668378,0.0294518839201824,True
17211,117493,0,117494,3221.0,39147.0,27954.0,0.0015249999999999999,0.001098,-0.000732,0.47250000000000003,-3.0275000000000003,-4.2700000000000005,1.06121875,0.09521875,-0.43590625,1.25765625,1.0185625,-0.34359375000000003,-1.1752500000000001,1.23515625,0.01802578963921463,0.02936788115311666,True
17212,117494,0,117495,3223.0,39148.0,27957.0,0.0030499999999999998,0.003294,0.000488,0.6125,-3.3600000000000003,-4.165,1.05871875,0.09109375,-0.4361875,1.25825,1.00340625,-0.34665625,-1.176,1.22321875,0.01797988173427306,0.029385625198601845,True
17213,117495,0,117496,3220.0,39145.0,27955.0,0.004514,-0.000732,-0.000915,0.35000000000000003,-3.7100000000000004,-4.0425,1.0595937500000001,0.09690625,-0.43925000000000003,1.25834375,1.01796875,-0.342625,-1.1763125,1.234125,0.01805603339820582,0.029276030792833543,True
17214,117496,0,117497,3221.0,39145.0,27957.0,0.005063,-0.002257,-0.001586,0.10500000000000001,-4.0425,-4.112500000000001,1.0545,0.0975,-0.43665625,1.258,1.00746875,-0.3446875,-1.17634375,1.2198125,0.018163613724760278,0.02938025899809221,True
17215,117497,0,117498,3223.0,39146.0,27958.0,0.004941,-6.1e-05,-0.0028669999999999998,0.08750000000000001,-4.095000000000001,-4.1825,1.062375,0.09496875,-0.43853125,1.2594687500000001,1.00934375,-0.34365625,-1.17565625,1.231875,0.018018041147783624,0.029279276483607057,True
17216,117498,0,117499,3221.0,39148.0,27956.0,0.005246,-0.0011589999999999999,-0.00244,0.29750000000000004,-3.8675,-4.165,1.05409375,0.09171875,-0.43640625,1.26628125,1.011375,-0.34600000000000003,-1.175125,1.22496875,0.017979082806210467,0.029343200877850653,True
17217,117499,0,117500,3221.0,39146.0,27959.0,0.004331,0.000183,-0.001952,0.29750000000000004,-3.7450000000000006,-4.2,1.0543125,0.09528125,-0.43809375,1.2604375,1.01728125,-0.34265625,-1.17821875,1.23234375,0.017990538727670688,0.029395447205732145,True
17218,117500,0,117501,3222.0,39148.0,27959.0,0.006527,-0.0013419999999999999,-0.000183,0.14,-3.08,-4.077500000000001,1.05515625,0.09203125,-0.4368125,1.26221875,1.01021875,-0.3454375,-1.1770625000000001,1.227375,0.017969229347387986,0.029401762020489882,True
17219,117501,0,117502,3222.0,39146.0,27961.0,0.005246,-0.002013,0.000244,0.15750000000000003,-2.3975000000000004,-4.0075,1.0618125,0.09446875,-0.436,1.2629375,1.00615625,-0.34325,-1.17596875,1.228625,0.017981113861131933,0.029391867989191085,True
17220,117502,0,117503,3224.0,39146.0,27962.0,0.002623,-0.000915,0.0006709999999999999,0.052500000000000005,-1.715,-4.0425,1.06259375,0.09334375,-0.43634375000000003,1.2635,1.0174375,-0.34515625,-1.171625,1.22746875,0.01801179649442587,0.029210718418060014,True
17221,117503,0,117504,3225.0,39149.0,27961.0,-0.002562,0.000976,0.000549,0.36750000000000005,-1.2425000000000002,-4.0075,1.0619687500000001,0.09418750000000001,-0.43643750000000003,1.26375,1.0170000000000001,-0.34328125,-1.17603125,1.23271875,0.017970821004255535,0.0293768999035541,True
17222,117504,0,117505,3224.0,39149.0,27965.0,-0.005063,0.000305,0.0,0.6475000000000001,-0.9975,-3.9550000000000005,1.05525,0.09265625,-0.43675,1.2630000000000001,1.0112812500000001,-0.3424375,-1.17646875,1.22721875,0.017873877667345352,0.029381354364876922,True
17223,117505,0,117506,3224.0,39151.0,27964.0,-0.0062829999999999995,0.003904,-0.000488,0.665,-0.8400000000000001,-3.8150000000000004,1.05490625,0.09496875,-0.43984375000000003,1.25696875,1.0169375,-0.3429375,-1.1783125,1.2275625000000001,0.017989047131226458,0.02932955693515997,True
17224,117506,0,117507,3224.0,39148.0,27963.0,-0.006405,0.0042699999999999995,-0.0013419999999999999,0.5425000000000001,-0.805,-3.9025000000000003,1.061625,0.09609375,-0.4373125,1.2580625,1.01534375,-0.34275,-1.17575,1.234625,0.01802769818529131,0.029331300954291335,True
17225,117507,0,117508,3225.0,39150.0,27963.0,-0.0055509999999999995,0.002013,0.000976,0.5075000000000001,-0.9800000000000001,-3.7800000000000002,1.05384375,0.09296875,-0.43621875,1.26303125,1.0111875000000001,-0.346625,-1.1768125,1.2278437500000001,0.018055633994444816,0.029415707409347392,True
17226,117508,0,117509,3226.0,39151.0,27965.0,-0.0053679999999999995,-0.001403,0.001769,0.2625,-0.9275000000000001,-3.6050000000000004,1.05575,0.09515625,-0.437625,1.25790625,1.0210625,-0.34315625,-1.1750625000000001,1.2439375,0.018005573948530196,0.029292380108291695,True
17227,117509,0,117510,3227.0,39150.0,27965.0,-0.0040869999999999995,-0.0034159999999999998,0.0032329999999999998,0.10500000000000001,-1.1900000000000002,-3.6225000000000005,1.05459375,0.0916875,-0.439375,1.25759375,1.00903125,-0.34140625,-1.17575,1.23796875,0.017792470391886257,0.029249376880529875,True
17228,117510,0,117511,3226.0,39149.0,27965.0,-0.0006709999999999999,-0.0035989999999999998,0.0008539999999999999,0.08750000000000001,-2.1,-3.7450000000000006,1.05559375,0.09215625,-0.43678125,1.25765625,1.00446875,-0.3458125,-1.1833125,1.221,0.017989489979026167,0.02964388620440619,True
17229,117511,0,117512,3229.0,39148.0,27963.0,0.0025009999999999998,-0.001098,-0.001586,0.15750000000000003,-2.3975000000000004,-3.6400000000000006,1.06090625,0.09443750000000001,-0.4388125,1.25059375,1.01475,-0.34634375,-1.164875,1.2412812500000001,0.018104617864848804,0.0288522196116611,True
17230,117512,0,117513,3228.0,39149.0,27964.0,0.0044529999999999995,0.001281,-0.00183,0.385,-2.4675000000000002,-3.5525,1.05525,0.092375,-0.43643750000000003,1.25875,1.004125,-0.34578125,-1.17796875,1.22178125,0.017997214609820743,0.02945159148312947,True
17231,117513,0,117514,3229.0,39147.0,27967.0,0.003965,0.00061,-0.002196,0.5425000000000001,-2.5725000000000002,-3.43,1.06084375,0.09406250000000001,-0.43809375,1.25175,1.0185,-0.345875,-1.17284375,1.24284375,0.018070309652045778,0.02918820008168525,True
17232,117514,0,117515,3228.0,39147.0,27966.0,0.004331,0.001281,-0.0006709999999999999,0.525,-2.5200000000000005,-3.5700000000000003,1.04471875,0.0914375,-0.434,1.2610937500000001,1.003875,-0.34009375000000003,-1.18196875,1.22246875,0.017729235328027445,0.029702552545658293,True
17233,117515,0,117516,3231.0,39149.0,27964.0,0.0046359999999999995,-0.001281,0.0011589999999999999,0.35000000000000003,-2.2750000000000004,-3.7800000000000002,1.0588125,0.09534375,-0.43953125,1.2575625,1.0279375,-0.34190625,-1.17459375,1.2270625,0.017962849561134926,0.029198584386292237,True
17234,117516,0,117517,3230.0,39148.0,27966.0,0.003721,-0.000183,-0.000549,0.31500000000000006,-2.1525000000000003,-3.8325000000000005,1.06153125,0.09468750000000001,-0.436625,1.2639375,1.003875,-0.34909375,-1.17384375,1.222,0.01822578099030893,0.029285108675547414,True
17235,117517,0,117518,3231.0,39147.0,27965.0,0.003538,0.000244,-0.000305,0.29750000000000004,-1.9425000000000001,-3.8325000000000005,1.056,0.09478125,-0.43765625,1.2646875,1.0273125,-0.34315625,-1.172625,1.23753125,0.01799016920823486,0.029197143722595475,True
17236,117518,0,117519,3232.0,39150.0,27967.0,0.002806,0.000366,0.000183,0.4025,-1.6625,-3.8325000000000005,1.05465625,0.0936875,-0.440375,1.25759375,1.0170937500000001,-0.34184375,-1.180125,1.2266875,0.017892286815784038,0.029378329138556702,True
17237,117519,0,117520,3234.0,39151.0,27968.0,-0.003904,0.0,-0.00122,0.28,-1.2425000000000002,-3.6925000000000003,1.058,0.09234375,-0.43684375000000003,1.25825,1.00384375,-0.34496875,-1.17834375,1.2236562500000001,0.017963157171848907,0.029449911692463887,True
17238,117520,0,117521,3233.0,39151.0,27968.0,-0.003904,0.000183,-0.001464,0.31500000000000006,-0.805,-3.7275000000000005,1.0549375,0.093625,-0.43803125,1.25821875,1.0056875,-0.34546875,-1.17571875,1.22825,0.01803595381584099,0.029301546753258034,True
17239,117521,0,117522,3234.0,39151.0,27969.0,-0.003843,-6.1e-05,-0.002013,0.43750000000000006,-0.77,-3.7625,1.0638125,0.100375,-0.43743750000000003,1.2571875000000001,1.01853125,-0.3433125,-1.17659375,1.2343125,0.018226258238273858,0.02935886630811605,True
17240,117522,0,117523,3236.0,39152.0,27968.0,-0.004209,0.00061,0.000976,0.31500000000000006,-0.7350000000000001,-3.7800000000000002,1.0551875,0.09418750000000001,-0.43815625,1.26334375,1.0168125000000001,-0.34318750000000003,-1.1764375,1.23378125,0.017967039032994347,0.029324293796530985,True
17241,117523,0,117524,3234.0,39152.0,27972.0,-0.0030499999999999998,0.00122,0.000183,0.5425000000000001,-0.9275000000000001,-3.8325000000000005,1.05484375,0.09434375,-0.4386875,1.2640625,1.01378125,-0.34378125,-1.17809375,1.23415625,0.017997409502683564,0.02936704650247797,True
17242,117524,0,117525,3237.0,39154.0,27972.0,-0.001769,0.000732,0.002196,0.49000000000000005,-0.9800000000000001,-3.9725000000000006,1.05515625,0.095375,-0.44003125,1.26371875,1.011375,-0.34184375,-1.178125,1.23490625,0.01796161188488444,0.029314881469529604,True
17243,117525,0,117526,3238.0,39153.0,27971.0,-0.001098,0.0,0.00244,0.45500000000000007,-1.0850000000000002,-4.025,1.0542500000000001,0.09531250000000001,-0.43140625,1.26228125,1.01121875,-0.34234375,-1.175625,1.235,0.017979215744170073,0.02956108338919093,True
17244,117526,0,117527,3238.0,39154.0,27970.0,-0.000793,-0.0013419999999999999,0.001586,0.43750000000000006,-1.1025,-3.99,1.0546875,0.09475,-0.4371875,1.2645,1.0147187500000001,-0.34321875,-1.1763125,1.2340625,0.017991406744434734,0.029357953036212112,True
17245,117527,0,117528,3241.0,39153.0,27972.0,0.0008539999999999999,-0.00061,0.000305,0.47250000000000003,-1.3125000000000002,-4.077500000000001,1.05565625,0.09490625,-0.4366875,1.2649375,1.01303125,-0.34315625,-1.176375,1.23696875,0.01799530412166664,0.02938022253005049,True
17246,117528,0,117529,3240.0,39154.0,27974.0,0.000915,-0.0006709999999999999,-0.000244,0.43750000000000006,-1.5050000000000001,-4.0075,1.05525,0.09490625,-0.43890625,1.2649062500000001,1.01146875,-0.3419375,-1.17671875,1.2328125,0.017946137196350947,0.029305347822579143,True
17247,117529,0,117530,3244.0,39157.0,27976.0,0.001281,0.00042699999999999997,-0.001098,0.42000000000000004,-1.4000000000000001,-4.1475,1.05553125,0.09475,-0.4365,1.27128125,1.0115,-0.3433125,-1.167875,1.22759375,0.01799518861699697,0.029059863019821896,True
17248,117530,0,117531,3244.0,39159.0,27977.0,0.00042699999999999997,0.001464,-0.00122,0.49000000000000005,-1.4700000000000002,-4.165,1.06421875,0.0995,-0.432625,1.26428125,1.01284375,-0.34365625,-1.17675,1.23134375,0.0182041779365004,0.029556038805644096,True
17249,117531,0,117532,3246.0,39158.0,27978.0,0.000305,0.00061,-0.000488,0.5775,-1.5925000000000002,-3.9200000000000004,1.06465625,0.09128125000000001,-0.4366875,1.25590625,1.019125,-0.34546875,-1.17778125,1.22721875,0.017939683334296037,0.02943443437852571,True
17250,117532,0,117533,3246.0,39160.0,27981.0,0.001952,-6.1e-05,0.000366,0.5950000000000001,-1.715,-3.9025000000000003,1.05828125,0.0971875,-0.43728125,1.25625,1.00371875,-0.34384375,-1.177,1.223125,0.018116746662079606,0.02938073440044485,True
17251,117533,0,117534,3245.0,39160.0,27980.0,0.003172,-0.000244,0.000244,0.43750000000000006,-1.7675,-3.9200000000000004,1.0625625,0.09025,-0.441125,1.2516562500000001,1.01659375,-0.3455625,-1.177875,1.226625,0.017901106207753467,0.029261802276800565,True
17252,117534,0,117535,3249.0,39161.0,27982.0,0.000793,-0.000244,0.0015249999999999999,0.56,-1.4525000000000001,-3.9725000000000006,1.04134375,0.09015625000000001,-0.43734375000000003,1.25609375,1.0112812500000001,-0.34615625,-1.1773125,1.22,0.017921206761334244,0.029390299302199153,True
17253,117535,0,117536,3249.0,39160.0,27984.0,-0.001037,-0.000915,-0.000122,0.42000000000000004,-1.2950000000000002,-3.9725000000000006,1.05603125,0.09075,-0.43859375,1.2559375,1.01321875,-0.3465625,-1.1764375,1.22159375,0.017961981285859144,0.029306916437244153,True
17254,117536,0,117537,3249.0,39163.0,27984.0,-0.001586,-0.000915,-0.000305,0.29750000000000004,-1.1725,-3.8675,1.06153125,0.09328125,-0.43565625,1.2654375,1.01684375,-0.343125,-1.17578125,1.23153125,0.017927289532465533,0.029398293250581842,True
17255,117537,0,117538,3250.0,39163.0,27986.0,-0.000366,0.000244,0.000244,0.385,-1.0325000000000002,-3.8500000000000005,1.0674062500000001,0.09568750000000001,-0.4355,1.266375,1.01634375,-0.34278125,-1.1759375,1.2315,0.01801227006466239,0.02941052344128198,True
17256,117538,0,117539,3251.0,39160.0,27985.0,-0.002196,0.001403,-0.0018909999999999999,0.43750000000000006,-1.1025,-3.8325000000000005,1.05746875,0.0930625,-0.43621875,1.2554687500000001,1.0127187500000001,-0.3423125,-1.1751875,1.22746875,0.017885523407030455,0.029353058442960954,True
17257,117539,0,117540,3251.0,39161.0,27986.0,-0.003538,0.001586,0.000366,0.6300000000000001,-1.3475000000000001,-3.7275000000000005,1.0636875000000001,0.09481250000000001,-0.43640625,1.26734375,1.0146875,-0.33934375,-1.176375,1.227,0.017837631715111463,0.029391393717324275,True
17258,117540,0,117541,3252.0,39162.0,27986.0,-0.002928,0.001586,0.0006709999999999999,0.5075000000000001,-1.54,-3.6750000000000003,1.05115625,0.096125,-0.43696875,1.2563125,1.0103125,-0.34218750000000003,-1.1769687500000001,1.2275625000000001,0.018006290519288787,0.029391941792039602,True
17259,117541,0,117542,3252.0,39163.0,27987.0,-0.0006709999999999999,0.001098,0.002257,0.45500000000000007,-1.9075000000000002,-3.6400000000000006,1.0528125,0.0965625,-0.436125,1.2570625,1.011375,-0.34559375000000003,-1.17590625,1.22740625,0.01816165399539701,0.029384493358605508,True
17260,117542,0,117543,3253.0,39160.0,27987.0,0.0008539999999999999,-0.0015249999999999999,0.001952,0.385,-2.1350000000000002,-3.5700000000000003,1.0619687500000001,0.09371875,-0.436375,1.265375,1.01559375,-0.34371875,-1.1732500000000001,1.22771875,0.01796921433788747,0.0292721440417904,True
17261,117543,0,117544,3256.0,39161.0,27985.0,0.001952,-0.0021349999999999997,0.000732,0.24500000000000002,-2.1875,-3.5000000000000004,1.05478125,0.095125,-0.43096875,1.2646875,1.0144375,-0.34278125,-1.175875,1.2356562500000001,0.017989162598254872,0.029588097732452197,True
17262,117544,0,117545,3255.0,39159.0,27982.0,0.001403,-0.001281,-0.0013419999999999999,0.3325,-2.1700000000000004,-3.5875000000000004,1.05478125,0.095125,-0.43615625,1.2580625,1.01071875,-0.34275,-1.17996875,1.2345,0.017987901942056673,0.0295398500047781,True
17263,117545,0,117546,3256.0,39155.0,27979.0,0.001769,-0.002196,-0.0006709999999999999,0.22750000000000004,-2.1350000000000002,-3.5700000000000003,1.05346875,0.0976875,-0.43703125,1.25815625,1.0055,-0.3480625,-1.18340625,1.2221250000000001,0.018307411524017568,0.029637571367058416,True
17264,117546,0,117547,3255.0,39155.0,27975.0,0.0013419999999999999,-0.0017079999999999999,-0.001098,0.22750000000000004,-1.9425000000000001,-3.7275000000000005,1.06228125,0.09409375,-0.43671875,1.2654375,1.00340625,-0.353625,-1.17484375,1.21578125,0.01838407013329638,0.0293199436441388,True
17265,117547,0,117548,3256.0,39156.0,27975.0,0.000488,-0.001403,-0.00122,0.29750000000000004,-1.8550000000000002,-3.7800000000000002,1.0556875000000001,0.09490625,-0.43740625,1.2509375,1.0321875,-0.342,-1.1693125,1.2377500000000001,0.017948658696902476,0.02907931037051568,True
17266,117548,0,117549,3254.0,39155.0,27974.0,0.0021349999999999997,-0.0008539999999999999,-0.001403,0.385,-1.6625,-3.7625,1.05465625,0.09253125,-0.43784375000000003,1.25771875,1.01771875,-0.3389375,-1.18428125,1.22,0.017727509674569812,0.02963902334913766,True
17267,117549,0,117550,3255.0,39156.0,27972.0,0.0030499999999999998,0.0021349999999999997,-0.002196,0.31500000000000006,-1.2425000000000002,-3.7450000000000006,1.06053125,0.09071875,-0.43725,1.252375,0.9897812500000001,-0.34625,-1.178625,1.20759375,0.017948092622067053,0.029444618202939993,True
17268,117550,0,117551,3255.0,39153.0,27971.0,0.001647,0.001586,-0.001403,0.3325,-1.1025,-3.9025000000000003,1.0598125,0.09490625,-0.437375,1.2630937500000001,1.0149375,-0.3491875,-1.171375,1.224625,0.018238544920646735,0.02916010746333881,True
17269,117551,0,117552,3253.0,39154.0,27969.0,0.000366,0.002379,0.000366,0.29750000000000004,-0.7000000000000001,-3.8850000000000002,1.05834375,0.09490625,-0.428875,1.25284375,1.03315625,-0.34675,-1.17265625,1.21696875,0.018140254859478164,0.029547189720989415,True
17270,117552,0,117553,3254.0,39154.0,27969.0,-0.000976,0.001037,0.001098,0.22750000000000004,-0.7000000000000001,-3.9550000000000005,1.060875,0.09471875,-0.435875,1.264,1.0249062500000001,-0.34703125,-1.17025,1.24059375,0.018143895880529583,0.02917630933343928,True
17271,117553,0,117554,3252.0,39153.0,27970.0,-0.001281,-0.000122,0.0011589999999999999,0.29750000000000004,-0.47250000000000003,-4.0075,1.0542500000000001,0.09475,-0.440125,1.2586875,1.022125,-0.3388125,-1.17996875,1.23065625,0.017813625870202174,0.029382234638396842,True
17272,117554,0,117555,3253.0,39153.0,27970.0,-0.0046359999999999995,0.0013419999999999999,0.002013,0.47250000000000003,-0.35000000000000003,-3.9375000000000004,1.055375,0.09393750000000001,-0.43715625,1.25553125,0.99690625,-0.3519375,-1.17728125,1.214375,0.01830963142049786,0.029396541773151142,True
17273,117555,0,117556,3254.0,39153.0,27970.0,-0.005124,0.001403,0.003477,0.4025,-0.36750000000000005,-3.9025000000000003,1.05975,0.1010625,-0.4373125,1.26525,1.02965625,-0.34171875,-1.17546875,1.23909375,0.018190221263648446,0.029320457042135515,True
17274,117556,0,117557,3252.0,39155.0,27969.0,-0.00488,0.000915,0.003477,0.4025,-0.47250000000000003,-3.7100000000000004,1.05359375,0.09228125,-0.4393125,1.25775,1.00184375,-0.34303125,-1.173125,1.22471875,0.017882427850886482,0.029150631874270676,True
17275,117557,0,117558,3253.0,39157.0,27971.0,-0.002196,-0.001037,0.0032329999999999998,0.28,-0.6125,-3.6925000000000003,1.0579375,0.09153125000000001,-0.43646875,1.26140625,1.01365625,-0.346625,-1.17371875,1.23084375,0.01799659090325661,0.029286495464640083,True
17276,117558,0,117559,3252.0,39156.0,27968.0,-0.002074,-0.003111,0.001769,0.15750000000000003,-0.6825000000000001,-3.6400000000000006,1.05659375,0.09493750000000001,-0.439,1.258375,1.01665625,-0.34290625,-1.17946875,1.22696875,0.017986502741430065,0.02940763990503175,True
17277,117559,0,117560,3253.0,39154.0,27971.0,-0.0034159999999999998,-0.000732,-0.003477,0.24500000000000002,-1.0675000000000001,-3.7450000000000006,1.06015625,0.09128125000000001,-0.436,1.258125,1.01478125,-0.3435625,-1.17559375,1.22725,0.01786278199832091,0.029377410413607426,True
17278,117560,0,117561,3254.0,39159.0,27969.0,-0.0013419999999999999,0.001464,-0.00183,0.47250000000000003,-1.4875,-3.7450000000000006,1.05934375,0.0955,-0.4361875,1.26121875,1.0169062500000001,-0.343125,-1.171875,1.234375,0.0180184343628848,0.02922656734947238,True
17279,117561,0,117562,3253.0,39156.0,27973.0,0.002013,0.00061,-0.002196,0.6125,-1.9250000000000003,-3.6050000000000004,1.0558125,0.09640625,-0.43803125,1.25725,1.00984375,-0.342875,-1.1785625,1.2280312500000001,0.01804557801820861,0.02941118064226264,True
17280,117562,0,117563,3253.0,39159.0,27973.0,0.004331,0.000122,-0.001464,0.4025,-2.31,-3.6750000000000003,1.0535625,0.0916875,-0.4365,1.26184375,1.00015625,-0.34515625,-1.17521875,1.2330625,0.01794376448087081,0.02934309160670153,True
17281,117563,0,117564,3254.0,39160.0,27972.0,0.005246,-0.0006709999999999999,-0.0017079999999999999,0.24500000000000002,-2.6075000000000004,-3.8325000000000005,1.05128125,0.0933125,-0.4385,1.25834375,1.0063125,-0.34584375,-1.1765625,1.2281250000000001,0.01803824318062503,0.029315459566809407,True
17282,117564,0,117565,3255.0,39160.0,27973.0,0.0030499999999999998,-0.001098,0.000244,0.28,-2.4850000000000003,-3.7275000000000005,1.0581875,0.09493750000000001,-0.43840625,1.249,1.017625,-0.34284375,-1.17828125,1.21675,0.017983981431914667,0.02938544504502268,True
17283,117565,0,117566,3255.0,39160.0,27974.0,0.0025009999999999998,0.00042699999999999997,0.0,0.35000000000000003,-2.345,-3.7100000000000004,1.05503125,0.09203125,-0.4371875,1.2575625,1.01025,-0.34646875,-1.17575,1.23290625,0.018010825491889867,0.029336266049670812,True
17284,117566,0,117567,3254.0,39160.0,27976.0,0.002623,0.001769,-0.001769,0.31500000000000006,-2.45,-3.8850000000000002,1.05203125,0.09531250000000001,-0.4433125,1.25825,1.01240625,-0.3433125,-1.18034375,1.2270625,0.018018295579124658,0.029270102795955676,True
17285,117567,0,117568,3256.0,39160.0,27977.0,0.003721,0.004392,-0.004697,0.3325,-2.45,-3.9725000000000006,1.061,0.091875,-0.43653125,1.27521875,1.01575,-0.34453125,-1.17590625,1.234875,0.017926253971310292,0.029368356898771018,True
17286,117568,0,117569,3256.0,39159.0,27977.0,0.004514,0.0040869999999999995,-0.0040869999999999995,0.17500000000000002,-2.0650000000000004,-3.9200000000000004,1.049625,0.100625,-0.441,1.2516875,1.0094375,-0.34484375,-1.1794375,1.22225,0.01829827928141868,0.029327005418607936,True
17287,117569,0,117570,3257.0,39156.0,27976.0,-0.001464,6.1e-05,0.0053679999999999995,0.36750000000000005,-0.5425000000000001,-3.3600000000000003,1.05003125,0.0876875,-0.43846875,1.25271875,1.01440625,-0.34625,-1.1769375,1.2278125,0.017823586794680903,0.02933115872412997,True
17288,117570,0,117571,3257.0,39156.0,27974.0,-0.007076,-0.002074,0.009699,0.12250000000000001,-0.052500000000000005,-3.3775000000000004,1.072875,0.09571875,-0.4406875,1.260625,1.018,-0.343,-1.17778125,1.226875,0.018022378096372676,0.029275564144477583,True
17289,117571,0,117572,3258.0,39158.0,27975.0,-0.008113,-0.006039,0.009333,-0.17500000000000002,-0.17500000000000002,-3.5525,1.04765625,0.08646875,-0.43453125000000004,1.2730000000000001,1.011625,-0.34646875,-1.176625,1.2330625,0.017782352933626153,0.02947550555326617,True
17290,117572,0,117573,3258.0,39158.0,27975.0,-0.0053679999999999995,-0.0066489999999999995,0.00488,-0.29750000000000004,-0.5775,-3.7800000000000002,1.04865625,0.09096875,-0.438875,1.252,1.0096875,-0.3455625,-1.1758125,1.23128125,0.017930629041740153,0.029271647141477557,True
17291,117573,0,117574,3260.0,39157.0,27976.0,-0.0017079999999999999,-0.006222,0.0021349999999999997,-0.21000000000000002,-0.7875000000000001,-3.8675,1.072375,0.09518750000000001,-0.43428125,1.27325,1.010875,-0.338625,-1.178375,1.22884375,0.017824034841738185,0.029552890128930084,True
17292,117574,0,117575,3260.0,39158.0,27975.0,-0.001647,-0.000488,-0.0013419999999999999,0.29750000000000004,-1.0675000000000001,-3.7100000000000004,1.0484375,0.089375,-0.44125000000000003,1.2457500000000001,1.00990625,-0.34446875,-1.17740625,1.2266875,0.017821039943621688,0.029238764417998775,True
17293,117575,0,117576,3260.0,39157.0,27977.0,-0.0018909999999999999,0.002806,-0.003294,0.45500000000000007,-1.0675000000000001,-3.6925000000000003,1.0595625,0.08553125,-0.43271875,1.24421875,1.01609375,-0.3378125,-1.1768125,1.2276875,0.017394486460112223,0.029554724213003532,True
17294,117576,0,117577,3263.0,39158.0,27976.0,-0.002257,0.0040869999999999995,-0.004026,0.6300000000000001,-1.1725,-3.6575,1.05478125,0.08825,-0.43325,1.25378125,1.01765625,-0.34284375,-1.17684375,1.2241250000000001,0.01770926003663808,0.029534828010361704,True
17295,117577,0,117578,3262.0,39158.0,27976.0,0.00061,0.0044529999999999995,-0.003172,0.5775,-1.3650000000000002,-3.7450000000000006,1.06890625,0.09628125,-0.435125,1.26565625,1.0154375,-0.34240625,-1.177375,1.234,0.018021533922925142,0.029480833486413893,True
17296,117578,0,117579,3263.0,39160.0,27980.0,0.0021349999999999997,0.003538,-0.001769,0.525,-1.6975000000000002,-3.7450000000000006,1.050125,0.09375,-0.43725,1.2552812500000001,1.01059375,-0.344375,-1.1773437500000001,1.2270625,0.017996970552745756,0.029395227604182835,True
17297,117579,0,117580,3264.0,39161.0,27980.0,0.004331,0.0006709999999999999,-0.004758,0.28,-2.1,-3.8850000000000002,1.05921875,0.09240625,-0.44096875,1.25959375,1.01703125,-0.34253125,-1.178125,1.228875,0.017867390023377294,0.029277646766786646,True
17298,117580,0,117581,3264.0,39160.0,27980.0,0.005124,0.000488,-0.001586,0.3325,-1.8725000000000003,-3.8500000000000005,1.05365625,0.0930625,-0.43759375,1.264,1.010625,-0.33940625,-1.177,1.2304375,0.017768253898962718,0.02936832227826985,True
17299,117581,0,117582,3264.0,39160.0,27981.0,0.0017079999999999999,0.000244,-6.1e-05,0.47250000000000003,-1.7325000000000002,-3.8675,1.054375,0.09540625,-0.43903125,1.2579375,1.0105625,-0.34271875,-1.1801875,1.22346875,0.01799819504548973,0.02943410369759955,True
17300,117582,0,117583,3265.0,39161.0,27981.0,-0.0021349999999999997,0.00042699999999999997,0.0006709999999999999,0.7000000000000001,-1.61,-3.8150000000000004,1.0604375,0.0935,-0.43693750000000003,1.26465625,1.0175625,-0.34275,-1.170125,1.233125,0.01792114695340502,0.029129275281707983,True
17301,117583,0,117584,3267.0,39163.0,27982.0,-0.0017079999999999999,-0.001769,0.000793,0.5425000000000001,-1.54,-3.9375000000000004,1.0540625000000001,0.09771875000000001,-0.43665625,1.2629375,1.010125,-0.3461875,-1.1768125,1.230375,0.018233090910024414,0.029398330308890375,True
17302,117584,0,117585,3266.0,39166.0,27986.0,0.000305,-0.001769,-0.000915,0.35000000000000003,-1.6625,-3.8500000000000005,1.0538750000000001,0.09556250000000001,-0.43890625,1.25696875,1.0125625,-0.34315625,-1.17321875,1.2265625,0.018022262417183472,0.029170385690149375,True
17303,117585,0,117586,3266.0,39164.0,27986.0,6.1e-05,-0.000732,-0.000976,0.3325,-1.54,-3.8500000000000005,1.05284375,0.091375,-0.438125,1.25403125,1.00990625,-0.33959375,-1.1773125,1.22659375,0.017706489041132825,0.029359269381908814,True
17304,117586,0,117587,3268.0,39165.0,27990.0,-0.00183,0.0008539999999999999,-0.000488,0.47250000000000003,-1.3125000000000002,-3.6750000000000003,1.061,0.095,-0.4396875,1.2630000000000001,1.01865625,-0.34221875,-1.179125,1.23334375,0.017961335180261658,0.02936708483714188,True
