frame_seq,absolute_seq_u64,segment_id,sample_seq,PPG_G,PPG_R,PPG_IR,ACC_X,ACC_Y,ACC_Z,GYRO_X,GYRO_Y,GYRO_Z,Uh1,Uh2,Uh3,Uh4,Uc1,Uc2,Uc3,Uc4,UD1,UD2,parser_valid
61295,161577,0,161577,3487.0,38968.0,28063.0,-0.0013419999999999999,0.002806,0.000305,0.31500000000000006,-0.47250000000000003,-3.8850000000000002,0.98828125,0.02690625,-0.526,1.18440625,0.93796875,-0.42603125000000003,-1.205125,1.16959375,0.018543229367235008,0.026943925094598815,True
61296,161578,0,161578,3485.0,38967.0,28063.0,-0.0018909999999999999,0.003172,-0.000244,0.5075000000000001,-1.0325000000000002,-3.7800000000000002,0.9840625000000001,0.02403125,-0.532625,1.18825,0.9555,-0.43240625,-1.2129375,1.1764375,0.018681643360444696,0.026982675065132734,True
61297,161579,0,161579,3485.0,38970.0,28063.0,-0.002013,0.001403,-0.000305,0.35000000000000003,-1.3825,-3.7450000000000006,0.99140625,0.02096875,-0.536,1.19484375,0.9353125,-0.42265625,-1.19884375,1.156125,0.018164486100892486,0.026304530341793954,True
61298,161580,0,161580,3487.0,38970.0,28065.0,-0.002196,-0.0011589999999999999,-0.000793,0.08750000000000001,-1.9075000000000002,-3.6750000000000003,0.98203125,0.02384375,-0.5329375000000001,1.18675,0.9309375,-0.423875,-1.2080312500000001,1.1766875,0.01833119232717986,0.026780899440530487,True
61299,161581,0,161581,3486.0,38972.0,28066.0,-0.000732,-0.005673,-0.0011589999999999999,-0.052500000000000005,-2.2575000000000003,-3.6575,0.986,0.02378125,-0.53171875,1.18328125,0.95515625,-0.433625,-1.2103125000000001,1.1631562500000001,0.018720359750139408,0.02691730814522827,True
61300,161582,0,161582,3488.0,38972.0,28068.0,0.0,-0.0021349999999999997,-0.000915,0.07,-2.8175000000000003,-3.6050000000000004,0.99209375,0.0203125,-0.53453125,1.18778125,0.9300625,-0.42412500000000003,-1.20378125,1.16190625,0.01819666006458778,0.02655355533209923,True
61301,161583,0,161583,3488.0,38970.0,28069.0,0.003355,0.000183,-0.000122,0.24500000000000002,-3.1500000000000004,-3.7450000000000006,0.9863437500000001,0.0231875,-0.53253125,1.1885937500000001,0.9453125,-0.43153125000000003,-1.2135625,1.1712500000000001,0.018611962768399958,0.027010512695300398,True
61302,161584,0,161584,3487.0,38971.0,28070.0,0.006039,0.000976,0.00042699999999999997,0.385,-3.5000000000000004,-3.7975000000000003,0.99003125,0.0209375,-0.535375,1.18959375,0.94153125,-0.42578125,-1.20375,1.156375,0.018288821365744442,0.026518871199722266,True
61303,161585,0,161585,3487.0,38975.0,28073.0,0.008601,0.00244,-0.000488,0.47250000000000003,-3.6575,-3.7100000000000004,0.9862500000000001,0.02334375,-0.53190625,1.1883125,0.93159375,-0.42953125000000003,-1.21278125,1.17903125,0.018538014314130567,0.02700515239666389,True
61304,161586,0,161586,3489.0,38972.0,28071.0,0.008723,0.003111,-0.001281,0.385,-3.7625,-3.7625,0.9855,0.0231875,-0.527375,1.18340625,0.9555,-0.43346875,-1.21509375,1.1725,0.018689783864601704,0.02727409054348648,True
61305,161587,0,161587,3489.0,38974.0,28072.0,0.006771,-0.00061,-0.002013,0.3325,-3.2375000000000003,-3.5525,0.9861875,0.02334375,-0.5269375000000001,1.18834375,0.9470937500000001,-0.43246875,-1.21215625,1.1749375,0.0186560148572788,0.0271781097659983,True
61306,161588,0,161588,3489.0,38972.0,28074.0,0.005246,-0.0006709999999999999,-0.003477,0.35000000000000003,-2.8350000000000004,-3.5875000000000004,0.9858750000000001,0.0214375,-0.5315,1.1934375,0.9322812500000001,-0.4269375,-1.205125,1.1557187500000001,0.018355759906455733,0.026725715504287324,True
61307,161589,0,161589,3488.0,38973.0,28075.0,0.003172,0.00061,-0.0026839999999999998,0.35000000000000003,-2.415,-3.6925000000000003,0.99190625,0.020625,-0.537,1.1881875,0.93159375,-0.4243125,-1.2016875,1.1593437500000001,0.01821699177817185,0.026374721930823086,True
61308,161590,0,161590,3489.0,38974.0,28075.0,0.000183,0.0006709999999999999,0.0018909999999999999,0.525,-1.8550000000000002,-3.6575,0.9859687500000001,0.027125,-0.53346875,1.17540625,0.9366875,-0.42490625,-1.20646875,1.16209375,0.018506979939789944,0.02669949554119912,True
61309,161591,0,161591,3491.0,38972.0,28076.0,-0.0025009999999999998,0.000366,0.003172,0.5775,-1.2950000000000002,-3.7100000000000004,0.98653125,0.0239375,-0.53153125,1.188,0.9443125,-0.4290625,-1.2084375,1.169625,0.01854348688165991,0.026852368378643066,True
61310,161592,0,161592,3491.0,38977.0,28076.0,-0.009394,0.0051849999999999995,0.003477,0.805,-0.7175,-3.9725000000000006,0.9865,0.02146875,-0.535875,1.1898125,0.94425,-0.42909375,-1.20609375,1.16421875,0.01844368459227023,0.026589552377587262,True
61311,161593,0,161593,3491.0,38978.0,28076.0,-0.006588,0.002196,0.003111,0.7000000000000001,-0.9450000000000001,-4.0600000000000005,0.98953125,0.02028125,-0.53496875,1.19340625,0.9333750000000001,-0.42571875000000003,-1.2050625,1.16221875,0.018259442211910348,0.02658568095199129,True
61312,161594,0,161594,3493.0,38979.0,28075.0,-0.0055509999999999995,-0.00244,0.002196,0.47250000000000003,-1.1025,-4.025,0.9919375,0.020375,-0.5341875,1.1759375,0.93684375,-0.4265625,-1.20584375,1.15528125,0.01829719183777906,0.026646846527404983,True
61313,161595,0,161595,3493.0,38978.0,28075.0,-0.001586,-0.002989,-0.001281,0.29750000000000004,-1.2075,-4.0600000000000005,0.98659375,0.0241875,-0.53190625,1.18765625,0.9370937500000001,-0.4278125,-1.2065937500000001,1.16378125,0.018503498829459245,0.02676630990651008,True
61314,161596,0,161596,3492.0,38976.0,28075.0,0.0013419999999999999,-0.0011589999999999999,-0.000793,0.28,-1.3125000000000002,-3.9725000000000006,0.98303125,0.02409375,-0.5298125,1.18321875,0.93878125,-0.4270625,-1.2054375,1.1615312500000001,0.018469525347143155,0.0268047321138544,True
61315,161597,0,161597,3494.0,38978.0,28077.0,0.001647,0.000366,-0.001952,0.24500000000000002,-1.3475000000000001,-3.9200000000000004,0.99209375,0.0213125,-0.53440625,1.19284375,0.9276875,-0.4261875,-1.2059375,1.163,0.018320501306231272,0.02664178826913302,True
61316,161598,0,161598,3494.0,38979.0,28075.0,0.001769,-0.0034159999999999998,-0.000244,0.12250000000000001,-1.12,-3.6575,0.9881562500000001,0.02365625,-0.5315625,1.1887812500000001,0.93690625,-0.42496875,-1.20634375,1.1624375,0.018367474881620882,0.02677029468028262,True
61317,161599,0,161599,3494.0,38977.0,28078.0,0.002379,-0.003172,0.00042699999999999997,0.15750000000000003,-1.2075,-3.7275000000000005,0.9858750000000001,0.02371875,-0.532875,1.18865625,0.93771875,-0.42625,-1.206875,1.1624375,0.018421523975231564,0.026738736951724476,True
61318,161600,0,161600,3495.0,38979.0,28078.0,0.000488,0.000305,0.001281,0.3325,-1.2425000000000002,-3.8675,0.9783125,0.0238125,-0.5329375000000001,1.18834375,0.93878125,-0.4289375,-1.209125,1.1691562500000001,0.018533348001729507,0.026823124563030248,True
61319,161601,0,161601,3497.0,38982.0,28078.0,-0.00042699999999999997,0.0026839999999999998,0.0015249999999999999,0.6475000000000001,-1.3475000000000001,-4.0075,0.9868125,0.0235625,-0.53425,1.199625,0.9471875000000001,-0.4290625,-1.20928125,1.16496875,0.01852813631304926,0.026777092266365193,True
61320,161602,0,161602,3497.0,38981.0,28079.0,-0.008235,0.0035989999999999998,-0.00122,0.6825000000000001,-1.6975000000000002,-3.7450000000000006,0.998125,0.019375,-0.533375,1.19825,0.9275,-0.4264375,-1.20596875,1.162125,0.01825122881713717,0.026683907953349344,True
61321,161603,0,161603,3498.0,38980.0,28079.0,-0.00793,0.00122,0.00061,0.5425000000000001,-2.45,-4.0075,0.99909375,0.02071875,-0.5358437500000001,1.19946875,0.93796875,-0.42659375,-1.2058125,1.16240625,0.018312520549452378,0.026579930720344758,True
61322,161604,0,161604,3498.0,38982.0,28080.0,-0.0006709999999999999,0.000122,0.000732,0.35000000000000003,-3.2725000000000004,-4.130000000000001,0.98784375,0.0246875,-0.531125,1.18584375,0.929625,-0.42721875000000004,-1.20721875,1.1675625,0.018500110660367344,0.026821433840256575,True
61323,161605,0,161605,3500.0,38982.0,28078.0,0.009089,-0.002623,-0.000183,0.08750000000000001,-3.7625,-4.077500000000001,0.98328125,0.01840625,-0.536375,1.2005000000000001,0.9451875000000001,-0.42721875000000004,-1.20559375,1.161875,0.018242969228742016,0.026550406097852784,True
61324,161606,0,161606,3500.0,38979.0,28080.0,0.013297999999999999,-0.005307,-0.000122,0.035,-3.7100000000000004,-3.9375000000000004,0.9933125,0.02846875,-0.531375,1.18525,0.93659375,-0.426375,-1.20665625,1.1656875,0.018621009052714535,0.026789798825459045,True
61325,161607,0,161607,3500.0,38979.0,28081.0,0.012383,-0.005856,0.000305,-0.22750000000000004,-2.4325,-3.99,0.9844375,0.01821875,-0.5365625,1.1969375,0.94259375,-0.4273125,-1.2055625,1.1619375,0.01823906129665308,0.026541760375313982,True
61326,161608,0,161608,3499.0,38979.0,28082.0,0.011529,-0.003111,-0.0034159999999999998,-0.15750000000000003,-1.7325000000000002,-4.077500000000001,0.9839687500000001,0.023875,-0.52771875,1.19115625,0.93721875,-0.42625,-1.206375,1.1613437500000001,0.018427920781945654,0.026923992442388082,True
61327,161609,0,161609,3501.0,38981.0,28083.0,0.0075639999999999995,0.001464,-0.006344,0.14,-1.0325000000000002,-4.2,0.98846875,0.021531250000000002,-0.5350625,1.19846875,0.92996875,-0.4245625,-1.20634375,1.161875,0.018264144956537092,0.026631440745943175,True
61328,161610,0,161610,3502.0,38982.0,28084.0,0.002074,0.003172,-0.002806,0.45500000000000007,-0.22750000000000004,-4.357500000000001,0.98809375,0.0206875,-0.53525,1.19403125,0.9373750000000001,-0.4266875,-1.2061875,1.16221875,0.018315008942575615,0.026617968306393024,True
61329,161611,0,161611,3502.0,38981.0,28084.0,-0.0050019999999999995,0.000732,0.000244,0.45500000000000007,0.5425000000000001,-4.48,0.99646875,0.02215625,-0.53546875,1.1914375,0.9374375,-0.4263125,-1.2063125000000001,1.16228125,0.018360067652454702,0.026614116999461944,True
61330,161612,0,161612,3503.0,38983.0,28084.0,-0.010614,0.000122,0.005124,0.47250000000000003,1.9075000000000002,-4.567500000000001,0.98440625,0.0246875,-0.53134375,1.1868125,0.93721875,-0.4261875,-1.206625,1.15840625,0.01845867268479782,0.026789832038204245,True
61331,161613,0,161613,3502.0,38984.0,28087.0,-0.012565999999999999,0.0018909999999999999,0.00549,0.6475000000000001,2.31,-4.4275,0.983875,0.02421875,-0.5323125,1.1800625,0.9373750000000001,-0.42609375,-1.2059375,1.16634375,0.01843571487970728,0.026724854015051022,True
61332,161614,0,161614,3502.0,38987.0,28089.0,-0.013359,0.003843,0.0037819999999999998,0.77,2.2925000000000004,-4.2875000000000005,0.986375,0.02240625,-0.537125,1.1949687500000001,0.94071875,-0.42575,-1.205625,1.1625625,0.018347696590688106,0.026521857720250935,True
61333,161615,0,161615,3503.0,38989.0,28090.0,-0.009516,0.003721,0.0017079999999999999,0.6825000000000001,2.0475000000000003,-4.1475,0.99246875,0.02496875,-0.53296875,1.188375,0.9380625,-0.4266875,-1.20775,1.1695,0.018490278307281737,0.0267688012615168,True
61334,161616,0,161616,3505.0,38990.0,28091.0,-0.005673,0.003904,-0.000732,0.6825000000000001,1.3475000000000001,-4.0600000000000005,0.9868750000000001,0.02278125,-0.533375,1.18434375,0.94925,-0.4293125,-1.20896875,1.1650625000000001,0.01850620028705269,0.02679973769256229,True
61335,161617,0,161617,3507.0,38991.0,28089.0,-0.001403,0.002562,-0.0026839999999999998,0.6825000000000001,-0.052500000000000005,-4.2,0.9878125,0.02078125,-0.53621875,1.1929375,0.9400000000000001,-0.4215,-1.2041875,1.15715625,0.0181103228712405,0.026502292525795564,True
61336,161618,0,161618,3505.0,38991.0,28091.0,-0.00061,-0.0015249999999999999,-0.0013419999999999999,0.385,-0.56,-4.2525,0.9945625,0.02215625,-0.53525,1.19309375,0.9333125,-0.43059375,-1.211625,1.1616875,0.01853209155016955,0.026827901811168457,True
61337,161619,0,161619,3506.0,38991.0,28087.0,-0.00042699999999999997,-0.007869,0.000305,0.035,-0.77,-4.0075,0.9798125,0.02303125,-0.53234375,1.18425,0.95565625,-0.43134375,-1.21346875,1.17453125,0.018598035566504606,0.027014331377946562,True
61338,161620,0,161620,3506.0,38989.0,28085.0,0.000732,-0.010919,0.0046359999999999995,-0.3325,-0.665,-3.9725000000000006,0.9871875,0.02125,-0.53440625,1.18871875,0.9360625,-0.42228125,-1.20203125,1.15559375,0.018160926305768425,0.026490920250723842,True
61339,161621,0,161621,3505.0,38987.0,28082.0,-0.0011589999999999999,-0.010735999999999999,0.005795,-0.385,-0.21000000000000002,-3.8500000000000005,0.985625,0.02275,-0.5270625,1.19515625,0.9569062500000001,-0.4313125,-1.20496875,1.1515312500000001,0.018585268392764406,0.026895738563452887,True
61340,161622,0,161622,3506.0,38986.0,28081.0,-0.002562,0.002989,0.00244,0.42000000000000004,0.17500000000000002,-3.2725000000000004,0.9931562500000001,0.021125,-0.532625,1.1887812500000001,0.91059375,-0.426,-1.20365625,1.1673125,0.018305289445672644,0.026624361296786057,True
61341,161623,0,161623,3505.0,38985.0,28078.0,0.005246,0.0070149999999999995,-0.002196,0.6475000000000001,-0.21000000000000002,-3.2725000000000004,0.9910625000000001,0.02025,-0.5347500000000001,1.1950625,0.9435625,-0.4285625,-1.2045000000000001,1.15328125,0.018372448235543945,0.026572635838838305,True
61342,161624,0,161624,3504.0,38984.0,28077.0,0.006771,0.00915,-0.006893,0.77,-0.9625000000000001,-3.3600000000000003,0.9914375,0.01990625,-0.5365,1.19271875,0.91971875,-0.42425,-1.2,1.15015625,0.01818505174160926,0.02632936507936508,True
61343,161625,0,161625,3503.0,38983.0,28075.0,0.011529,0.011467999999999999,-0.009516,0.8750000000000001,-1.715,-3.5525,0.9852500000000001,0.020125,-0.536625,1.19509375,0.9226562500000001,-0.42284375,-1.20115625,1.1505625,0.018137476312519916,0.02636907780768987,True
61344,161626,0,161626,3503.0,38984.0,28075.0,0.014274,0.012199999999999999,-0.011407,1.0325000000000002,-2.31,-3.8850000000000002,0.99328125,0.02103125,-0.534,1.18815625,0.92390625,-0.42140625,-1.2023125000000001,1.1704375,0.018116790469426797,0.026517903862988766,True
61345,161627,0,161627,3503.0,38984.0,28074.0,0.011529,0.0025009999999999998,-0.00183,0.665,-1.6450000000000002,-4.357500000000001,0.9858750000000001,0.024375,-0.53315625,1.1885000000000001,0.9545625,-0.435875,-1.21128125,1.1793437500000001,0.018835012046836873,0.026897680973671265,True
61346,161628,0,161628,3503.0,38985.0,28074.0,0.002623,-0.008967,0.00183,0.035,-0.665,-4.165,0.98109375,0.02284375,-0.53490625,1.18603125,0.9538125000000001,-0.42921875,-1.20496875,1.1595312500000001,0.01850499210090376,0.026584540002653242,True
61347,161629,0,161629,3504.0,38989.0,28074.0,-0.0053679999999999995,-0.013359,0.005307,-0.3325,0.3325,-4.130000000000001,0.9858750000000001,0.01965625,-0.5348437500000001,1.19425,0.92915625,-0.42671875000000004,-1.20390625,1.16571875,0.018274046734173006,0.026545984315427294,True
61348,161630,0,161630,3501.0,38991.0,28074.0,-0.012931999999999999,-0.012199999999999999,0.005673,-0.15750000000000003,1.0150000000000001,-4.095000000000001,0.99271875,0.019875,-0.5334375,1.193625,0.92415625,-0.4256875,-1.20528125,1.163375,0.018241554101598983,0.02665488011565037,True
61349,161631,0,161631,3502.0,38990.0,28076.0,-0.008784,-0.007625,0.0051849999999999995,0.12250000000000001,1.4525000000000001,-4.1475,0.99225,0.0253125,-0.53540625,1.19421875,0.9363750000000001,-0.42640625,-1.20628125,1.1623125,0.0184930499139635,0.026615389765199893,True
61350,161632,0,161632,3503.0,38992.0,28074.0,-0.009333,-6.1e-05,0.005612,0.6300000000000001,2.0125,-4.322500000000001,0.988125,0.0238125,-0.53390625,1.18796875,0.926,-0.426,-1.20609375,1.16271875,0.018415315647261118,0.026667658490320417,True
61351,161633,0,161633,3504.0,38994.0,28077.0,-0.009516,0.001586,0.0059169999999999995,0.6475000000000001,1.995,-4.0075,0.9861562500000001,0.02396875,-0.53278125,1.18759375,0.937875,-0.42625,-1.2064062500000001,1.1633125,0.018431758865974104,0.026724357027293415,True
61352,161634,0,161634,3504.0,38993.0,28078.0,-0.0050019999999999995,0.002989,0.003294,0.6825000000000001,1.7675,-3.9725000000000006,0.98171875,0.022875,-0.53309375,1.1873125,0.936875,-0.42690625,-1.2021875,1.163,0.01841335310319947,0.026549034682009247,True
61353,161635,0,161635,3506.0,38998.0,28079.0,-0.0037819999999999998,0.004575,-0.0025009999999999998,0.7525000000000001,1.6275000000000002,-3.8675,0.985625,0.02359375,-0.5310312500000001,1.18884375,0.93278125,-0.42090625,-1.20946875,1.16978125,0.018201617722520023,0.02691201098793484,True
61354,161636,0,161636,3505.0,38998.0,28082.0,-0.010309,0.009089,-0.008905999999999999,0.9800000000000001,1.1900000000000002,-3.9025000000000003,0.9860625000000001,0.02278125,-0.5335625,1.18440625,0.9449375,-0.42846875,-1.2063125000000001,1.17021875,0.018472299865295486,0.02668974289674462,True
61355,161637,0,161637,3506.0,39001.0,28082.0,-0.0053679999999999995,0.007137,-0.005612,0.9450000000000001,-0.8575,-3.9550000000000005,0.9863125,0.0238125,-0.5334375,1.1885937500000001,0.9456875,-0.42375,-1.20684375,1.1626875,0.018324888684170124,0.026715214989976678,True
61356,161638,0,161638,3508.0,39001.0,28084.0,-0.002623,-0.000915,0.0011589999999999999,0.525,-1.8550000000000002,-3.99,0.98646875,0.029437500000000002,-0.5326875,1.18890625,0.93715625,-0.42621875000000004,-1.20584375,1.16259375,0.018654391605331874,0.026706356536864595,True
61357,161639,0,161639,3505.0,39003.0,28084.0,0.0037819999999999998,-0.007869,0.005429,0.07,-2.6075000000000004,-4.0600000000000005,0.987,0.023625,-0.53259375,1.18359375,0.93790625,-0.4219375,-1.19921875,1.1613437500000001,0.018244355100818684,0.026454193148349094,True
61358,161640,0,161640,3508.0,39002.0,28085.0,0.0077469999999999995,-0.008784,0.008601,-0.10500000000000001,-3.0100000000000002,-4.0425,0.98678125,0.0239375,-0.527,1.18553125,0.93653125,-0.425875,-1.20690625,1.1617187500000001,0.01841540988807975,0.026973014588015935,True
61359,161641,0,161641,3507.0,39004.0,28085.0,0.00366,-0.003538,0.003294,0.10500000000000001,-3.115,-3.7975000000000003,0.9819375,0.0234375,-0.53221875,1.185875,0.9382812500000001,-0.42728125,-1.20234375,1.1680625,0.018451449647103074,0.026589788896122016,True
61360,161642,0,161642,3508.0,39004.0,28087.0,0.002745,0.002196,-0.003843,0.24500000000000002,-3.43,-3.9025000000000003,0.97903125,0.0251875,-0.53021875,1.1825,0.9370937500000001,-0.42659375,-1.19903125,1.16096875,0.018495466646879493,0.02654119888041331,True
61361,161643,0,161643,3506.0,39004.0,28086.0,0.008357,0.006588,-0.008296,0.5075000000000001,-3.8325000000000005,-3.8500000000000005,0.9795,0.02603125,-0.5301875,1.1914375,0.93675,-0.42709375,-1.2060625,1.1621875,0.01855009869931825,0.026813985722680803,True
61362,161644,0,161644,3507.0,39003.0,28090.0,0.014518,0.0068319999999999995,-0.011101999999999999,0.6125,-4.112500000000001,-3.8150000000000004,0.986375,0.01853125,-0.5263125,1.2043125000000001,0.9374375,-0.42559375,-1.20521875,1.1666875,0.01818277191316997,0.026935146119293252,True
61363,161645,0,161645,3506.0,39003.0,28091.0,0.009333,0.0055509999999999995,-0.007991,0.56,-4.165,-3.8675,0.99471875,0.021125,-0.5329375000000001,1.182125,0.9450000000000001,-0.42728125,-1.209625,1.163875,0.01835678090454704,0.026842426255844737,True
61364,161646,0,161646,3509.0,39004.0,28088.0,0.006222,-0.00671,-0.000183,-0.052500000000000005,-3.4825000000000004,-3.9375000000000004,0.9793125,0.025375,-0.53615625,1.1976875,0.9268125,-0.42562500000000003,-1.20575,1.162,0.018464215347611373,0.02656511907005346,True
61365,161647,0,161647,3508.0,39004.0,28087.0,0.0040869999999999995,-0.009699,0.005246,-0.12250000000000001,-2.87,-4.165,1.003875,0.0166875,-0.54209375,1.193,0.93803125,-0.42746875,-1.20853125,1.1690625000000001,0.018182655540189774,0.02643698251955873,True
61366,161648,0,161648,3508.0,39005.0,28088.0,0.0060999999999999995,-0.008967,0.008418,-0.035,-1.9775000000000003,-4.0075,0.99634375,0.01834375,-0.5328125,1.18128125,0.94484375,-0.42828125,-1.20665625,1.16375,0.01828311191562034,0.026732770238019964,True
61367,161649,0,161649,3509.0,39007.0,28090.0,-0.000549,-0.002379,0.00671,0.4025,-1.1375000000000002,-3.8850000000000002,0.9783125,0.0250625,-0.53846875,1.20071875,0.93696875,-0.42534375,-1.20559375,1.1675625,0.018440119189724814,0.026467339219096952,True
61368,161650,0,161650,3508.0,39005.0,28088.0,-0.000122,0.00183,0.005429,0.7175,-0.21000000000000002,-3.7625,1.0015625,0.0150625,-0.536,1.18396875,0.9295625000000001,-0.4273125,-1.2085625,1.16834375,0.018109851421436556,0.026679922744503974,True
61369,161651,0,161651,3509.0,39007.0,28089.0,-0.006893,0.0068319999999999995,-0.003477,0.7350000000000001,0.8925000000000001,-3.6400000000000006,0.980125,0.025687500000000002,-0.532875,1.1923125,0.938625,-0.42684375,-1.20496875,1.1612500000000001,0.018525981278281197,0.026665129271386222,True
61370,161652,0,161652,3510.0,39009.0,28090.0,-0.0057339999999999995,0.0044529999999999995,-0.004514,0.6475000000000001,1.3650000000000002,-3.4650000000000003,0.99253125,0.01753125,-0.534,1.1947812500000001,0.93715625,-0.42896875,-1.20825,1.16809375,0.018277480501505003,0.026747195858498708,True
61371,161653,0,161653,3510.0,39007.0,28091.0,-0.004209,0.0013419999999999999,-0.004575,0.6300000000000001,1.4700000000000002,-3.3425000000000002,0.9846875,0.022625,-0.53365625,1.1851562500000001,0.94521875,-0.42765625,-1.209375,1.170375,0.018433256362857163,0.026804264286599728,True
61372,161654,0,161654,3510.0,39008.0,28091.0,-0.004514,0.000122,-0.003477,0.77,1.7500000000000002,-3.3075,0.9869687500000001,0.023125,-0.532125,1.18840625,0.94471875,-0.42890625,-1.2085000000000001,1.16203125,0.018503949598644025,0.026831227562131826,True
61373,161655,0,161655,3512.0,39012.0,28091.0,-0.008967,-0.000366,-0.00244,0.7350000000000001,1.9250000000000003,-3.4825000000000004,0.9859687500000001,0.01996875,-0.53446875,1.19584375,0.93784375,-0.4263125,-1.2061250000000001,1.15915625,0.01827051258760404,0.026646549201830908,True
61374,161656,0,161656,3511.0,39011.0,28091.0,-0.004331,0.000366,0.0030499999999999998,0.7350000000000001,1.8025000000000002,-3.7450000000000006,0.9905,0.0231875,-0.53303125,1.180125,0.9368125,-0.4289375,-1.20928125,1.1637187500000001,0.018507763589800007,0.026825437555860508,True
61375,161657,0,161657,3511.0,39010.0,28094.0,-0.0040869999999999995,0.000305,0.003172,0.5425000000000001,1.5575,-3.7450000000000006,0.9865625,0.023875,-0.5273125,1.1813125,0.93953125,-0.4263125,-1.205875,1.16196875,0.018430432346265936,0.02692080715309427,True
61376,161658,0,161658,3513.0,39012.0,28094.0,-0.0035989999999999998,0.0006709999999999999,0.0032329999999999998,0.6825000000000001,1.2425000000000002,-3.6750000000000003,0.99259375,0.02040625,-0.5358437500000001,1.194625,0.9311875000000001,-0.42578125,-1.20534375,1.1645,0.018267071805533344,0.026561827787014405,True
61377,161659,0,161659,3513.0,39012.0,28097.0,-0.001037,0.00183,-0.001281,0.7875000000000001,0.8400000000000001,-3.6225000000000005,0.9875625,0.0226875,-0.5330625,1.18759375,0.942625,-0.42871875,-1.20815625,1.17090625,0.018478506982688152,0.026780766641749137,True
61378,161660,0,161660,3514.0,39013.0,28097.0,0.002379,0.0046359999999999995,-0.002074,0.8400000000000001,0.385,-3.8500000000000005,0.9858750000000001,0.02840625,-0.53259375,1.188125,0.9449062500000001,-0.42965625,-1.20790625,1.16225,0.018750263831485554,0.02678971007360042,True
61379,161661,0,161661,3514.0,39014.0,28099.0,0.002745,-0.00042699999999999997,-0.0006709999999999999,0.5075000000000001,-0.07,-3.8675,0.9921562500000001,0.02115625,-0.53634375,1.191,0.9366875,-0.42675,-1.20525,1.16865625,0.018336710778142817,0.026538369982444132,True
61380,161662,0,161662,3514.0,39012.0,28098.0,-0.003538,-0.0059169999999999995,0.00042699999999999997,0.12250000000000001,0.22750000000000004,-3.6925000000000003,0.9845625,0.02425,-0.53009375,1.1815625,0.94353125,-0.4296875,-1.20978125,1.16375,0.01858138791173649,0.026961261315982265,True
61381,161663,0,161663,3515.0,39013.0,28098.0,-0.008784,-0.007076,0.003965,-0.052500000000000005,0.36750000000000005,-3.6400000000000006,0.9863125,0.02271875,-0.53596875,1.1866875000000001,0.93634375,-0.42615625,-1.20565625,1.15021875,0.01837681686000023,0.02656893727970285,True
61382,161664,0,161664,3514.0,39014.0,28100.0,-0.009211,-0.007991,-0.001098,-0.08750000000000001,0.0175,-3.7100000000000004,0.9945,0.021968750000000002,-0.5327500000000001,1.1874375,0.93815625,-0.42965625,-1.20890625,1.1679375,0.018486752141672072,0.026822117679143657,True
61383,161665,0,161665,3516.0,39017.0,28101.0,-0.012627,-0.004392,-0.001586,0.35000000000000003,-0.4025,-3.7100000000000004,0.9868750000000001,0.0236875,-0.532375,1.19375,0.93996875,-0.4251875,-1.20578125,1.162875,0.018377545719966328,0.026716341117179215,True
61384,161666,0,161666,3516.0,39018.0,28101.0,-0.008296,0.002806,0.000366,0.7525000000000001,-2.4325,-3.6225000000000005,0.99371875,0.02025,-0.53334375,1.18815625,0.9370625,-0.42859375,-1.20940625,1.1664375,0.018373703971396222,0.026817866842857516,True
61385,161667,0,161667,3517.0,39021.0,28106.0,-0.003904,0.000915,0.0048189999999999995,0.525,-3.7100000000000004,-3.6750000000000003,0.9825,0.0214375,-0.5348125,1.1935,0.9384375,-0.42628125,-1.2064062500000001,1.1611875,0.018329386508640157,0.026643772354498177,True
61386,161668,0,161668,3517.0,39020.0,28104.0,0.003904,-0.0030499999999999998,0.005063,0.43750000000000006,-4.760000000000001,-3.3775000000000004,0.9933125,0.02021875,-0.53515625,1.19321875,0.93821875,-0.42221875000000003,-1.206,1.16290625,0.018116187743998487,0.026614446957073712,True
61387,161669,0,161669,3517.0,39020.0,28104.0,0.011285,-0.0030499999999999998,0.003355,0.47250000000000003,-5.8100000000000005,-3.115,0.99028125,0.023625,-0.53259375,1.18740625,0.938125,-0.4225625,-1.20565625,1.1623125,0.018269479298087577,0.02670283579702473,True
61388,161670,0,161670,3518.0,39020.0,28106.0,0.012749,0.001586,-0.000732,0.6125,-6.4225,-3.0975,0.9859375,0.02415625,-0.53196875,1.19184375,0.9380625,-0.42240625,-1.20628125,1.16159375,0.018284950935168395,0.026751764503143437,True
61389,161671,0,161671,3520.0,39020.0,28108.0,0.015067,0.005978,-0.0050019999999999995,0.805,-6.6325,-3.0450000000000004,0.98934375,0.02328125,-0.534625,1.191125,0.93715625,-0.42678125,-1.20509375,1.152875,0.018424961332144406,0.026600525935357812,True
61390,161672,0,161672,3519.0,39020.0,28105.0,0.01525,0.003355,-0.008173999999999999,0.6475000000000001,-6.545000000000001,-3.1850000000000005,0.98565625,0.02359375,-0.52725,1.1883125,0.943125,-0.42884375,-1.20775,1.1633125,0.01852062687166682,0.02699566601541193,True
61391,161673,0,161673,3518.0,39019.0,28104.0,0.009516,0.001769,-0.009211,0.47250000000000003,-6.405,-3.22,0.99071875,0.021718750000000002,-0.5338437500000001,1.19015625,0.9369375,-0.42675,-1.2065625,1.1672500000000001,0.018359738810934736,0.02668823842997235,True
61392,161674,0,161674,3517.0,39016.0,28103.0,0.008357,0.002196,-0.0057339999999999995,0.385,-5.9675,-3.3950000000000005,0.9870625000000001,0.02353125,-0.5325,1.18771875,0.9445625,-0.4295625,-1.20884375,1.1665625,0.018546944915611978,0.026829622044842894,True
61393,161675,0,161675,3518.0,39015.0,28099.0,0.0075639999999999995,0.000366,-0.00183,0.525,-5.53,-3.2550000000000003,0.98665625,0.0239375,-0.53134375,1.19140625,0.9380625,-0.423375,-1.20653125,1.155875,0.018314933951593504,0.026786212402787474,True
61394,161676,0,161676,3517.0,39013.0,28095.0,0.000183,-0.006344,0.005795,0.31500000000000006,-4.41,-3.3950000000000005,0.99065625,0.019875,-0.53246875,1.18846875,0.93596875,-0.4256875,-1.208,1.1729687500000001,0.018241554101598983,0.026798288241827988,True
61395,161677,0,161677,3517.0,39012.0,28093.0,0.002074,-0.0048189999999999995,0.005856,0.14,-3.9200000000000004,-3.5875000000000004,0.9871875,0.02415625,-0.5315,1.188,0.94471875,-0.4275,-1.2045937500000001,1.15875,0.018489663289325556,0.0267052013087892,True
61396,161678,0,161678,3517.0,39010.0,28089.0,-0.000183,-0.0015249999999999999,0.005612,0.3325,-3.3600000000000003,-3.6050000000000004,0.983375,0.02478125,-0.53340625,1.20084375,0.9345,-0.4255,-1.20490625,1.15765625,0.01843488362571902,0.026641638470684653,True
61397,161679,0,161679,3516.0,39009.0,28087.0,0.000183,0.001952,0.0046359999999999995,0.525,-2.5375,-3.5525,0.99684375,0.01984375,-0.52521875,1.17340625,0.934125,-0.42140625,-1.20646875,1.17171875,0.01806816509593914,0.027026792477625412,True
61398,161680,0,161680,3517.0,39011.0,28087.0,0.000183,0.0048189999999999995,0.00244,0.665,-1.6800000000000002,-3.3425000000000002,0.99228125,0.025468750000000002,-0.53159375,1.178,0.94175,-0.43121875,-1.19340625,1.1630625,0.01869278420668228,0.02626927432649168,True
61399,161681,0,161681,3515.0,39008.0,28086.0,0.000366,6.1e-05,-0.003904,0.2625,-0.385,-3.4475000000000002,0.97528125,0.0269375,-0.5220625,1.176125,0.93578125,-0.4261875,-1.204875,1.15878125,0.01855078693717552,0.027090493406533453,True
61400,161682,0,161682,3512.0,39007.0,28082.0,-0.00042699999999999997,-0.0017079999999999999,-0.0046359999999999995,0.14,0.14,-3.4125000000000005,0.97503125,0.025375,-0.53071875,1.1781875,0.93603125,-0.42834375,-1.20778125,1.16971875,0.01857345527160432,0.026859265926071935,True
61401,161683,0,161683,3513.0,39008.0,28083.0,-0.000488,-0.002806,-0.0066489999999999995,0.15750000000000003,0.6825000000000001,-3.5525,0.9813437500000001,0.02321875,-0.5314375,1.1795,0.94840625,-0.43046875,-1.2113125,1.17421875,0.018570560583288032,0.02696706091759404,True
61402,161684,0,161684,3514.0,39007.0,28084.0,-0.000244,-0.001769,-0.005856,0.10500000000000001,1.2775,-3.6050000000000004,0.9907812500000001,0.019375,-0.54471875,1.209625,0.95078125,-0.42971875,-1.200125,1.16146875,0.018383091291216767,0.026008055515597643,True
61403,161685,0,161685,3512.0,39006.0,28082.0,-0.00488,-0.002745,-0.00366,0.31500000000000006,1.8025000000000002,-3.6225000000000005,1.0070625,0.01359375,-0.53990625,1.1954375,0.9305,-0.42515625,-1.20390625,1.15903125,0.01796303759571651,0.02634512259384396,True
61404,161686,0,161686,3511.0,39005.0,28081.0,-0.005856,-0.00042699999999999997,0.004514,0.525,2.415,-3.7625,0.976,0.0270625,-0.52375,1.17665625,0.93440625,-0.4214375,-1.20303125,1.1601875,0.018365012297085297,0.02695236312100355,True
61405,161687,0,161687,3511.0,39009.0,28083.0,-0.002196,0.001464,0.006161,0.5075000000000001,2.45,-3.6400000000000006,0.9771875,0.021937500000000002,-0.53653125,1.2040625,0.9405,-0.43075,-1.20540625,1.16815625,0.018529414774413396,0.02653696565592947,True
61406,161688,0,161688,3511.0,39009.0,28085.0,-0.002806,-0.00122,0.005978,0.29750000000000004,2.9225000000000003,-3.6050000000000004,0.9977812500000001,0.01540625,-0.5390625,1.2068125,0.9428125,-0.42946875,-1.2048125,1.1700625,0.018210588390302183,0.026413606528515144,True
61407,161689,0,161689,3510.0,39009.0,28085.0,-0.0059169999999999995,-0.0023179999999999997,0.0050019999999999995,0.21000000000000002,3.43,-3.535,0.996625,0.02103125,-0.5260312500000001,1.176375,0.9373125,-0.42440625,-1.20346875,1.15678125,0.018237393181256965,0.02687874064953857,True
61408,161690,0,161690,3511.0,39008.0,28085.0,-0.0071979999999999995,-0.001037,0.0040869999999999995,0.42000000000000004,3.7975000000000003,-3.3075,0.97296875,0.02459375,-0.532875,1.2026875000000001,0.94021875,-0.425375,-1.20815625,1.16796875,0.01842218389686955,0.026788204710528958,True
61409,161691,0,161691,3511.0,39008.0,28087.0,-0.006527,0.004209,-0.0035989999999999998,0.77,3.5000000000000004,-3.2725000000000004,0.9905,0.024125,-0.52909375,1.1883125,0.9371875000000001,-0.42662500000000003,-1.205,1.16165625,0.018453224708693896,0.026816355881769494,True
61410,161692,0,161692,3511.0,39012.0,28088.0,-0.0059169999999999995,0.004514,-0.0055509999999999995,0.77,3.08,-3.43,0.99003125,0.02234375,-0.530125,1.18834375,0.928875,-0.4265,-1.20525,1.16165625,0.018375278897918245,0.026785094375179775,True
61411,161693,0,161693,3513.0,39010.0,28091.0,-0.0046359999999999995,0.004941,-0.0051849999999999995,0.805,2.4325,-3.4475000000000002,0.98609375,0.02365625,-0.53353125,1.19365625,0.94121875,-0.42971875,-1.20671875,1.164625,0.018558338908424805,0.026706669228814244,True
61412,161694,0,161694,3512.0,39016.0,28092.0,-0.005124,0.004514,-0.0032329999999999998,0.8925000000000001,1.6975000000000002,-3.5875000000000004,0.99346875,0.0213125,-0.53346875,1.187875,0.9375,-0.42659375,-1.20571875,1.16221875,0.01833682807288675,0.026670534836464442,True
61413,161695,0,161695,3512.0,39017.0,28093.0,-0.00549,0.003904,0.000915,0.77,1.155,-3.7275000000000005,0.9865,0.02446875,-0.53215625,1.1923125,0.940875,-0.42990625,-1.20771875,1.16575,0.01859912990865448,0.026799826937929476,True
61414,161696,0,161696,3512.0,39020.0,28095.0,-0.005429,-0.0040869999999999995,0.006039,0.4025,-0.14,-3.4650000000000003,0.9941562500000001,0.02103125,-0.531875,1.1884375,0.9373125,-0.424875,-1.20615625,1.15453125,0.018256234678785458,0.026750657391485466,True
61415,161697,0,161697,3512.0,39019.0,28095.0,-0.002257,-0.006405,0.006588,0.12250000000000001,-0.5775,-3.2025,0.985625,0.02303125,-0.53190625,1.18846875,0.94365625,-0.42903125000000003,-1.207375,1.16928125,0.01850513413216089,0.02679647325435513,True
61416,161698,0,161698,3512.0,39020.0,28097.0,-0.000244,-0.0070149999999999995,0.0032329999999999998,0.08750000000000001,-1.2950000000000002,-3.115,0.9863437500000001,0.019875,-0.53571875,1.19628125,0.9439062500000001,-0.42703125000000003,-1.2045000000000001,1.162,0.018295561397785497,0.02653420024202028,True
61417,161699,0,161699,3514.0,39021.0,28097.0,0.0044529999999999995,-0.007503,0.0006709999999999999,0.24500000000000002,-2.0300000000000002,-2.9925,0.9938125,0.0214375,-0.5347500000000001,1.1948125,0.9370625,-0.42712500000000003,-1.20584375,1.15428125,0.018363294902695265,0.026624530273857628,True
61418,161700,0,161700,3513.0,39021.0,28097.0,0.011956,0.002745,-0.0044529999999999995,0.3325,-2.5725000000000002,-3.0975,0.99353125,0.02125,-0.53471875,1.1875,0.9261875,-0.4261875,-1.20590625,1.1632500000000001,0.018317942576998557,0.02662818362263805,True
61419,161701,0,161701,3512.0,39018.0,28098.0,0.011101999999999999,0.0073809999999999995,-0.0040869999999999995,0.8225000000000001,-2.8350000000000004,-3.0625000000000004,0.9859687500000001,0.023875,-0.53325,1.1875625,0.93734375,-0.427,-1.201375,1.16459375,0.018458058705530765,0.026511450268090535,True
61420,161702,0,161702,3511.0,39019.0,28098.0,0.008845,0.007442,-0.003355,0.8225000000000001,-2.66,-3.1500000000000004,0.98678125,0.0238125,-0.5347500000000001,1.19528125,0.9460937500000001,-0.42803125000000003,-1.20665625,1.15559375,0.018496936792644723,0.026655905620167286,True
61421,161703,0,161703,3511.0,39020.0,28098.0,0.003721,0.0034159999999999998,-0.003294,0.7175,-2.5200000000000005,-3.22,0.9929375,0.02315625,-0.52996875,1.18853125,0.93740625,-0.4265625,-1.2061250000000001,1.169375,0.01841105354058722,0.026825077238171284,True
61422,161704,0,161704,3513.0,39021.0,28099.0,-0.000976,0.00042699999999999997,-0.0017079999999999999,0.6475000000000001,-2.6950000000000003,-3.4650000000000003,0.98603125,0.02359375,-0.53221875,1.1934375,0.943625,-0.42971875,-1.2065937500000001,1.1615625,0.018555780549049505,0.026753912356761816,True
61423,161705,0,161705,3513.0,39021.0,28097.0,0.0013419999999999999,-0.00244,0.00122,0.6125,-2.8875,-3.7450000000000006,0.99284375,0.02134375,-0.5325,1.19040625,0.9375625,-0.42615625,-1.205375,1.1612500000000001,0.01832052474486239,0.026695694866670307,True
61424,161706,0,161706,3514.0,39021.0,28098.0,0.002013,-0.0026839999999999998,0.004697,0.56,-2.5375,-3.7100000000000004,0.98559375,0.02390625,-0.532125,1.1880625,0.93653125,-0.42771875000000004,-1.208,1.1674375000000001,0.018488218430138918,0.026811924785782294,True
61425,161707,0,161707,3513.0,39022.0,28097.0,0.000366,-0.003111,0.004758,0.45500000000000007,-1.995,-3.5700000000000003,0.99059375,0.0208125,-0.5344375,1.19315625,0.942625,-0.426,-1.20515625,1.162625,0.018292495701301894,0.02661037858077154,True
61426,161708,0,161708,3512.0,39020.0,28096.0,0.001769,-0.0030499999999999998,0.004514,0.5075000000000001,-1.6275000000000002,-3.5000000000000004,0.9861562500000001,0.02328125,-0.5316875,1.1885625,0.93478125,-0.4276875,-1.20715625,1.16634375,0.01846137707468216,0.02679670579659298,True
61427,161709,0,161709,3512.0,39017.0,28096.0,0.0026839999999999998,-0.000244,0.000122,0.6825000000000001,-1.33,-3.535,0.9843125,0.019875,-0.53553125,1.19615625,0.93390625,-0.42612500000000003,-1.2038125,1.161875,0.01825913852483765,0.026515085763314575,True
61428,161710,0,161710,3512.0,39019.0,28097.0,-0.000183,0.0066489999999999995,-0.006344,0.8925000000000001,-0.77,-3.6225000000000005,0.991625,0.022375,-0.53190625,1.18775,0.9315,-0.4196875,-1.20553125,1.1621875,0.018102709135815107,0.026725284752726643,True
61429,161711,0,161711,3512.0,39021.0,28098.0,-0.0032329999999999998,0.004148,-0.005856,0.77,-0.385,-3.5525,0.9865625,0.0240625,-0.53153125,1.18821875,0.9385625,-0.4289375,-1.20578125,1.16709375,0.018543581766501307,0.026749815580502986,True
61430,161712,0,161712,3512.0,39021.0,28098.0,-0.005307,0.00061,-0.003965,0.5075000000000001,-0.17500000000000002,-3.5700000000000003,0.98684375,0.0235625,-0.533125,1.1900625,0.944625,-0.42928125,-1.20665625,1.15759375,0.01853692482254262,0.02672037271901147,True
61431,161713,0,161713,3512.0,39020.0,28098.0,-0.009211,-0.0025009999999999998,-0.0017079999999999999,0.35000000000000003,0.1925,-3.5175000000000005,0.98675,0.0189375,-0.53453125,1.19453125,0.9389375,-0.42562500000000003,-1.20175,1.162125,0.018200660167344746,0.026475095975477897,True
61432,161714,0,161714,3512.0,39021.0,28100.0,-0.00976,-0.006405,0.0032329999999999998,0.21000000000000002,0.29750000000000004,-3.4125000000000005,0.994125,0.02115625,-0.52959375,1.1880625,0.93771875,-0.42634375,-1.20109375,1.16128125,0.018320384113975307,0.02664566890077936,True
61433,161715,0,161715,3512.0,39022.0,28100.0,-0.002562,-0.009455,0.008235,0.0175,0.1925,-3.4475000000000002,0.98628125,0.02403125,-0.53178125,1.187875,0.9422812500000001,-0.4295625,-1.21140625,1.1769375,0.018567411921519266,0.026957044492510213,True
61434,161716,0,161716,3514.0,39023.0,28100.0,-0.005063,-0.004575,0.007991,0.2625,0.17500000000000002,-3.5525,0.9861875,0.0238125,-0.53190625,1.188,0.94546875,-0.42596875,-1.20971875,1.1655312500000001,0.018414059831301472,0.02688695208073275,True
61435,161717,0,161717,3513.0,39022.0,28101.0,-0.006588,0.0011589999999999999,0.003538,0.5775,-0.29750000000000004,-3.6925000000000003,0.9885625,0.024,-0.5358125,1.196375,0.9329375,-0.42453125,-1.2019375,1.1500000000000001,0.01836396553158006,0.026431499562285642,True
61436,161718,0,161718,3512.0,39024.0,28102.0,-0.0068319999999999995,0.008296,-0.0011589999999999999,1.0150000000000001,-1.1725,-3.8325000000000005,0.994125,0.021593750000000002,-0.53453125,1.1963125000000001,0.93090625,-0.42459375,-1.2024062500000001,1.1559062500000001,0.018267959932803387,0.026500445765967294,True
61437,161719,0,161719,3514.0,39020.0,28103.0,-0.0013419999999999999,0.01159,-0.0064659999999999995,1.155,-2.2575000000000003,-4.095000000000001,0.99121875,0.02328125,-0.53146875,1.189,0.93725,-0.42834375,-1.2115,1.17996875,0.018487745408445874,0.026973057929912933,True
61438,161720,0,161720,3514.0,39023.0,28102.0,0.0026839999999999998,0.007442,-0.004514,1.0150000000000001,-3.8850000000000002,-4.2175,0.98675,0.02346875,-0.53096875,1.18821875,0.95503125,-0.432625,-1.2070625,1.173875,0.0186674067972639,0.026821600097194982,True
61439,161721,0,161721,3514.0,39023.0,28104.0,0.003904,0.002196,0.00042699999999999997,0.665,-4.1475,-4.0075,0.98721875,0.0245,-0.53221875,1.18815625,0.9547187500000001,-0.42762500000000003,-1.20484375,1.1783125,0.01850875801474765,0.026686338811364386,True
61440,161722,0,161722,3514.0,39023.0,28104.0,0.004392,-0.00183,0.004941,0.43750000000000006,-4.532500000000001,-3.8675,0.9860625000000001,0.023125,-0.5320625,1.18940625,0.9555,-0.4355625,-1.2121250000000001,1.169375,0.018771309234235964,0.026973628759971644,True
61441,161723,0,161723,3514.0,39023.0,28104.0,0.0048189999999999995,-0.0028669999999999998,0.005795,0.24500000000000002,-4.7250000000000005,-3.7975000000000003,0.99165625,0.02109375,-0.52965625,1.1925000000000001,0.92509375,-0.42753125000000003,-1.2053125,1.1594375000000001,0.018365548094427267,0.02680610486380599,True
61442,161724,0,161724,3514.0,39023.0,28104.0,0.006039,-0.003294,0.003477,0.24500000000000002,-4.777500000000001,-3.7800000000000002,0.99203125,0.021781250000000002,-0.53490625,1.18925,0.9364375,-0.41971875000000003,-1.20271875,1.15528125,0.018079651306385336,0.026497637283675993,True
61443,161725,0,161725,3513.0,39025.0,28107.0,0.007503,-0.004026,-0.0015249999999999999,0.07,-4.952500000000001,-3.6575,0.9944375,0.0208125,-0.5304375,1.1871562500000001,0.9306875,-0.4243125,-1.20203125,1.15678125,0.018224668555153804,0.026648397636599236,True
61444,161726,0,161726,3515.0,39022.0,28106.0,0.005856,-0.0064659999999999995,-0.004331,-0.07,-4.742500000000001,-3.4650000000000003,0.9863125,0.02440625,-0.5323125,1.18725,0.9360937500000001,-0.42825,-1.204375,1.1679375,0.01853003182790417,0.026664517568874453,True
61445,161727,0,161727,3513.0,39022.0,28108.0,0.003294,-0.007503,-0.003965,-0.12250000000000001,-4.4625,-3.5700000000000003,0.98671875,0.02259375,-0.52675,1.18134375,0.94171875,-0.42925,-1.20528125,1.166375,0.018496013999611125,0.026920201495470322,True
61446,161728,0,161728,3513.0,39020.0,28106.0,0.0018909999999999999,-0.0050019999999999995,-0.0032329999999999998,0.07,-4.1825,-3.7100000000000004,0.9868750000000001,0.02384375,-0.5254375,1.19359375,0.9420937500000001,-0.4306875,-1.20646875,1.16146875,0.018604930786331738,0.027018114149765623,True
61447,161729,0,161729,3514.0,39018.0,28104.0,0.004514,-0.003477,-0.002257,0.28,-3.9725000000000006,-3.8850000000000002,0.981125,0.02375,-0.5323125,1.1878125,0.92625,-0.42740625,-1.20940625,1.1691875,0.01846926543828205,0.02685877419266866,True
61448,161730,0,161730,3512.0,39018.0,28101.0,0.006954,-0.000915,0.0023179999999999997,0.5950000000000001,-3.1500000000000004,-3.7975000000000003,0.9929687500000001,0.02425,-0.53178125,1.18675,0.9371875000000001,-0.42678125,-1.2076875,1.16871875,0.018464620671215123,0.026813496874713322,True
61449,161731,0,161731,3512.0,39016.0,28100.0,0.003965,0.002745,0.001769,0.7350000000000001,-2.1350000000000002,-3.99,0.9916875,0.021,-0.5348437500000001,1.19228125,0.938125,-0.42665625,-1.2056875,1.16240625,0.018326546434287338,0.02661477692286711,True
61450,161732,0,161732,3511.0,39016.0,28099.0,0.0023179999999999997,0.005856,0.004575,0.9450000000000001,-1.2950000000000002,-4.112500000000001,0.98678125,0.02409375,-0.5318437500000001,1.18803125,0.9379375,-0.4271875,-1.20625,1.16346875,0.01847454808295061,0.026755516984874782,True
61451,161733,0,161733,3513.0,39017.0,28096.0,0.00244,0.00793,0.0026839999999999998,1.155,-0.6125,-4.2175,0.976,0.02328125,-0.5318125,1.18771875,0.93278125,-0.42628125,-1.20546875,1.166125,0.01840486873129736,0.026726590831602767,True
61452,161734,0,161734,3511.0,39015.0,28093.0,0.001464,0.0077469999999999995,-0.001464,1.225,-0.07,-4.357500000000001,0.9874375,0.0228125,-0.5314375,1.19246875,0.945625,-0.42746875,-1.20796875,1.16759375,0.0184333978525712,0.026837991458554155,True
61453,161735,0,161735,3510.0,39014.0,28092.0,-0.000366,0.0059169999999999995,-0.003294,0.9975,0.9800000000000001,-4.585000000000001,0.99453125,0.0224375,-0.53371875,1.1831875,0.93790625,-0.42590625,-1.205,1.1617187500000001,0.01835525549845259,0.02663286054354295,True
61454,161736,0,161736,3510.0,39014.0,28091.0,-0.0021349999999999997,0.003965,-0.0030499999999999998,0.9800000000000001,1.4000000000000001,-4.6725,0.98571875,0.02403125,-0.5280625,1.1796875,0.94196875,-0.42746875,-1.20878125,1.17059375,0.018483290455545053,0.027003239198642334,True
61455,161737,0,161737,3509.0,39016.0,28088.0,-0.0053679999999999995,0.001281,-0.002806,0.7175,1.9250000000000003,-4.742500000000001,0.98646875,0.021906250000000002,-0.535625,1.1984375,0.9442812500000001,-0.4285625,-1.20465625,1.162,0.018440247967926888,0.026543954552048294,True
61456,161738,0,161738,3511.0,39015.0,28089.0,-0.005612,-0.0015249999999999999,-0.004575,0.2625,2.555,-4.6725,0.986,0.0235625,-0.5308125,1.18671875,0.9373750000000001,-0.42675,-1.20671875,1.16975,0.018435219585086024,0.02681452737675347,True
61457,161739,0,161739,3508.0,39014.0,28090.0,-0.0051849999999999995,-0.0050019999999999995,-0.002074,0.10500000000000001,3.1850000000000005,-4.4625,0.98684375,0.017718750000000002,-0.53325,1.1854375,0.9448125,-0.42878125,-1.2050625,1.1611875,0.018277620787979343,0.026653871618052917,True
61458,161740,0,161740,3508.0,39017.0,28090.0,-0.013481,-0.002745,0.004392,0.07,4.1825,-4.340000000000001,0.98440625,0.024375,-0.5306875,1.18540625,0.93834375,-0.42221875000000003,-1.2065625,1.16278125,0.01828637088921333,0.02681345383766628,True
61459,161741,0,161741,3506.0,39018.0,28090.0,-0.014152,-0.0008539999999999999,0.0040869999999999995,0.17500000000000002,4.077500000000001,-4.4625,0.9839375,0.025531250000000002,-0.53028125,1.1843125,0.93996875,-0.42890625,-1.1995625,1.16903125,0.01860244971057597,0.02655924085983636,True
61460,161742,0,161742,3507.0,39018.0,28090.0,-0.016347999999999998,-0.0015249999999999999,0.003843,0.10500000000000001,3.5875000000000004,-4.6025,0.9841875,0.0223125,-0.5321875,1.19246875,0.9469375,-0.42909375,-1.2075625,1.1688125,0.018478223327461747,0.02679255481365959,True
61461,161743,0,161743,3506.0,39020.0,28091.0,-0.017385,-0.001098,0.0032329999999999998,0.07,2.6425,-4.7075000000000005,0.9888125,0.0224375,-0.5305,1.1846875000000001,0.9405,-0.4284375,-1.20753125,1.16696875,0.018456972534571646,0.026858292598566154,True
61462,161744,0,161744,3507.0,39022.0,28094.0,-0.017019,-0.0017079999999999999,0.000183,0.24500000000000002,1.3650000000000002,-4.760000000000001,0.983,0.02375,-0.53125,1.18565625,0.9456875,-0.42878125,-1.20178125,1.1666875,0.018524511942240262,0.026606502268564848,True
61463,161745,0,161745,3507.0,39022.0,28093.0,-0.007686,0.001037,0.0021349999999999997,0.35000000000000003,-1.8200000000000003,-4.952500000000001,0.97015625,0.0245625,-0.5308437500000001,1.1854375,0.9438125,-0.4284375,-1.2064062500000001,1.1618125,0.01854396131557739,0.026801222407498097,True
61464,161746,0,161746,3507.0,39024.0,28094.0,-0.00244,0.0008539999999999999,0.004331,0.49000000000000005,-3.3775000000000004,-4.795000000000001,0.9839375,0.025375,-0.5298125,1.1858125,0.93790625,-0.4259375,-1.20625,1.1614375000000001,0.01847677289766258,0.026836102157203074,True
61465,161747,0,161747,3507.0,39024.0,28097.0,0.0034159999999999998,0.0,0.003721,0.385,-4.952500000000001,-4.6725,0.98384375,0.0249375,-0.52975,1.18534375,0.9364687500000001,-0.42703125000000003,-1.2059375,1.1610625,0.018502811306633917,0.026826516569756632,True
61466,161748,0,161748,3508.0,39023.0,28095.0,0.010369999999999999,0.000976,0.003294,0.1925,-6.335000000000001,-4.532500000000001,0.984,0.025593750000000002,-0.53040625,1.18621875,0.93840625,-0.426375,-1.2060625,1.16128125,0.018503308411501912,0.026805307254951068,True
61467,161749,0,161749,3506.0,39021.0,28097.0,0.016958,-0.000549,0.001586,0.035,-7.262500000000001,-4.305000000000001,0.98403125,0.0253125,-0.5335625,1.1928750000000001,0.94034375,-0.4273125,-1.2061250000000001,1.16175,0.018529463689466452,0.026682502764705008,True
61468,161750,0,161750,3506.0,39021.0,28098.0,0.015189,-6.1e-05,-0.0062829999999999995,-0.21000000000000002,-8.155000000000001,-4.165,0.981875,0.02409375,-0.5315,1.1867812500000001,0.93765625,-0.4241875,-1.2061250000000001,1.16028125,0.0183539882339996,0.02676432811469435,True
61469,161751,0,161751,3504.0,39023.0,28095.0,0.01464,0.000305,-0.00732,-0.2625,-8.260000000000002,-4.235,0.9864375,0.02378125,-0.5283125,1.1938125,0.94159375,-0.42853125000000003,-1.2065625,1.1628125,0.018515746827799974,0.026907675332564683,True
61470,161752,0,161752,3504.0,39019.0,28097.0,0.016347999999999998,0.0013419999999999999,-0.008539999999999999,-0.22750000000000004,-8.207500000000001,-4.2,0.99446875,0.0201875,-0.53325,1.1904375,0.9383750000000001,-0.4268125,-1.2058125,1.16284375,0.018299563236095582,0.026682833572613456,True
61471,161753,0,161753,3504.0,39016.0,28096.0,0.019275999999999998,0.000488,-0.005673,-0.28,-7.910000000000001,-4.130000000000001,0.9868750000000001,0.022875,-0.532375,1.1883125,0.943625,-0.42834375,-1.2028125,1.1741875,0.01847111513648976,0.026601693759377053,True
61472,161754,0,161754,3504.0,39016.0,28098.0,0.018056,-0.002257,6.1e-05,-0.3325,-6.965000000000001,-3.9550000000000005,0.9858125,0.02371875,-0.53296875,1.17828125,0.9507187500000001,-0.4260625,-1.20309375,1.15471875,0.01841398915605002,0.026588997630499236,True
61473,161755,0,161755,3503.0,39014.0,28095.0,0.0040869999999999995,-0.004514,0.002257,-0.29750000000000004,-4.795000000000001,-4.1825,0.98678125,0.0239375,-0.5323125,1.18015625,0.939625,-0.432625,-1.205375,1.178,0.01868659221021073,0.02670313375619288,True
61474,161756,0,161756,3504.0,39016.0,28097.0,0.0035989999999999998,-0.002074,-0.000732,-0.14,-4.095000000000001,-4.3925,0.9870625000000001,0.025687500000000002,-0.53234375,1.188375,0.9465625,-0.42615625,-1.1998125,1.15196875,0.01849835665404785,0.026487052235011667,True
61475,161757,0,161757,3504.0,39014.0,28097.0,0.004148,-0.000122,-0.000244,0.14,-3.1325000000000003,-4.445,0.98640625,0.021875000000000002,-0.53303125,1.1945937500000001,0.91890625,-0.42228125,-1.1998125,1.1511875,0.018186517690684606,0.02645977028598923,True
61476,161758,0,161758,3503.0,39011.0,28096.0,0.0028669999999999998,0.00122,-0.000488,0.1925,-1.8200000000000003,-4.41,0.9815625,0.02078125,-0.53359375,1.19409375,0.92484375,-0.42284375,-1.20203125,1.1515625,0.018164346647797723,0.026523159715548725,True
61477,161759,0,161759,3504.0,39011.0,28096.0,0.0011589999999999999,0.001647,0.002013,0.2625,-0.5425000000000001,-4.2525,0.98903125,0.02446875,-0.5308437500000001,1.18840625,0.94021875,-0.43053125000000003,-1.2151875,1.18484375,0.018624236834800717,0.027140141234325545,True
61478,161760,0,161760,3502.0,39013.0,28096.0,-0.005307,-0.001952,0.000305,0.31500000000000006,2.31,-3.9550000000000005,0.9860625000000001,0.0233125,-0.53640625,1.1949687500000001,0.96125,-0.43025,-1.1995625,1.1508125,0.018565610257774687,0.02631618108449304,True
61479,161761,0,161761,3502.0,39014.0,28097.0,-0.007442,-0.0032329999999999998,0.000549,0.22750000000000004,3.3950000000000005,-3.8675,0.99234375,0.02365625,-0.5300625,1.18825,0.914125,-0.4306875,-1.212375,1.17075,0.018597256012545697,0.027062603185935476,True
61480,161762,0,161762,3503.0,39015.0,28098.0,-0.010248,-0.000244,-0.0006709999999999999,0.4025,4.3925,-4.0075,0.99009375,0.02121875,-0.533,1.1901875,0.9360937500000001,-0.42228125,-1.20125,1.1523125,0.018159646736522615,0.026516541838202463,True
61481,161763,0,161763,3504.0,39015.0,28099.0,-0.015493999999999999,0.0032329999999999998,-0.004758,0.7875000000000001,5.0575,-4.077500000000001,0.99471875,0.02275,-0.53296875,1.188375,0.91821875,-0.42753125000000003,-1.20884375,1.1646875,0.01843335068909184,0.026811027380024124,True
61482,161764,0,161764,3504.0,39016.0,28101.0,-0.018666,0.007625,0.000488,0.9100000000000001,5.1450000000000005,-4.2700000000000005,0.98765625,0.024,-0.5315625,1.18853125,0.93903125,-0.43,-1.21225,1.1821875,0.01858370855505526,0.026998284564051206,True
61483,161765,0,161765,3504.0,39018.0,28098.0,-0.015067,0.004758,0.004575,0.7175,4.1825,-4.340000000000001,0.9819687500000001,0.02365625,-0.5314375,1.18825,0.9557187500000001,-0.42993750000000003,-1.21340625,1.1755,0.018567126911397135,0.02704786268217925,True
61484,161766,0,161766,3505.0,39020.0,28101.0,-0.013603,0.000732,0.006344,0.5425000000000001,3.43,-4.322500000000001,0.9874375,0.02421875,-0.5313125,1.18790625,0.9439062500000001,-0.43203125000000003,-1.211,1.17084375,0.018674255747769642,0.026959957954860978,True
61485,161767,0,161767,3504.0,39022.0,28103.0,-0.010492,0.000793,0.0035989999999999998,0.4025,2.5025000000000004,-4.357500000000001,0.98653125,0.0234375,-0.531625,1.18875,0.94440625,-0.42546875,-1.2066875000000001,1.1596875,0.0183786135117673,0.026781087360249145,True
61486,161768,0,161768,3502.0,39022.0,28101.0,-0.010431,-0.000549,0.002074,0.31500000000000006,1.435,-4.305000000000001,0.9858750000000001,0.02353125,-0.532125,1.1823125,0.92940625,-0.4270625,-1.1950625,1.1626875,0.018446497608953186,0.026312199066781436,True
61487,161769,0,161769,3506.0,39022.0,28101.0,-0.00122,-0.003111,0.001647,0.28,-1.0675000000000001,-4.2175,0.9865625,0.02446875,-0.5315,1.18840625,0.9386875,-0.42665625,-1.20634375,1.162,0.01846855318152684,0.026772774214824397,True
61488,161770,0,161770,3505.0,39021.0,28105.0,0.0026839999999999998,-0.005307,0.002196,-0.12250000000000001,-2.3625000000000003,-4.112500000000001,0.986,0.02365625,-0.53265625,1.188375,0.9426875,-0.42590625,-1.20990625,1.16028125,0.018405151293004737,0.026864439450265704,True
61489,161771,0,161771,3505.0,39023.0,28102.0,0.005246,-0.0044529999999999995,-0.0008539999999999999,-0.14,-3.5000000000000004,-4.2175,0.9864375,0.02375,-0.53228125,1.18775,0.94625,-0.42812500000000003,-1.20159375,1.1673437500000001,0.018498145068440577,0.026558340184338537,True
61490,161772,0,161772,3507.0,39022.0,28105.0,0.0075639999999999995,-0.000549,-0.000244,-0.0175,-4.4625,-4.375,0.98921875,0.0223125,-0.5345625,1.191875,0.9449062500000001,-0.42309375,-1.2033125,1.1573125,0.018237093734285812,0.026534210532841666,True
61491,161773,0,161773,3506.0,39022.0,28104.0,0.008784,0.001647,-0.0018909999999999999,0.24500000000000002,-5.232500000000001,-4.2875000000000005,0.987125,0.0225,-0.53246875,1.18846875,0.945375,-0.4295,-1.2079375,1.17034375,0.018502220675822263,0.026795875307132924,True
61492,161774,0,161774,3506.0,39022.0,28105.0,0.014335,0.002562,-0.000976,0.12250000000000001,-5.827500000000001,-4.1825,0.98675,0.02375,-0.5321875,1.182,0.94621875,-0.4266875,-1.209875,1.16590625,0.018440384108569775,0.026881827061816053,True
61493,161775,0,161775,3507.0,39020.0,28104.0,0.013237,-0.000549,-0.003172,-0.21000000000000002,-6.0200000000000005,-4.165,0.98709375,0.02396875,-0.5316875,1.1888750000000001,0.93640625,-0.42678125,-1.2075625,1.1679375,0.01845310666954943,0.02681239013093789,True
61494,161776,0,161776,3508.0,39020.0,28108.0,0.011224,-0.002562,-0.004148,-0.1925,-5.95,-4.235,0.98175,0.0234375,-0.53415625,1.18621875,0.94525,-0.42940625,-1.20878125,1.16821875,0.018536829973098506,0.026761507956676797,True
61495,161777,0,161777,3508.0,39023.0,28109.0,0.006405,-0.001952,-0.003721,-0.21000000000000002,-5.74,-4.340000000000001,1.0064375,0.016875,-0.536125,1.18084375,0.94634375,-0.42762500000000003,-1.20615625,1.1615312500000001,0.018196611418424838,0.026582047788424705,True
61496,161778,0,161778,3508.0,39021.0,28110.0,0.004758,0.00042699999999999997,-0.001281,-0.10500000000000001,-5.442500000000001,-4.48,0.9822500000000001,0.02471875,-0.53125,1.17446875,0.9373750000000001,-0.426,-1.20696875,1.162375,0.0184524175059363,0.026806823013973066,True
61497,161779,0,161779,3509.0,39022.0,28111.0,0.005124,-0.005063,0.003172,-0.21000000000000002,-4.41,-4.165,0.99325,0.0166875,-0.53571875,1.197375,0.9459375,-0.428375,-1.2016875,1.1655625,0.01821907924698225,0.026425561780337132,True
61498,161780,0,161780,3509.0,39022.0,28111.0,0.003843,-0.0037819999999999998,-6.1e-05,-0.15750000000000003,-3.7625,-4.1825,0.9805,0.02509375,-0.533125,1.19484375,0.9270625,-0.41875,-1.20759375,1.1676250000000001,0.018176350140772974,0.026756570130776567,True
61499,161781,0,161781,3510.0,39021.0,28112.0,0.004209,0.0,-0.000305,0.14,-3.08,-4.2525,1.00371875,0.017375,-0.533125,1.17275,0.94459375,-0.42871875,-1.20553125,1.16234375,0.018261037533947616,0.02667693227057057,True
61500,161782,0,161782,3507.0,39020.0,28109.0,0.0053679999999999995,0.002806,-0.000366,0.29750000000000004,-2.2225,-4.357500000000001,0.98009375,0.02409375,-0.5344375,1.20396875,0.93765625,-0.426375,-1.2081250000000001,1.1694375000000001,0.01844189938130402,0.02672501425631617,True
61501,161783,0,161783,3508.0,39019.0,28108.0,0.0030499999999999998,0.002928,-0.0023179999999999997,0.28,-1.2600000000000002,-4.515000000000001,1.00265625,0.01728125,-0.5286875,1.18228125,0.943875,-0.42884375,-1.2071875,1.1577187500000001,0.018262223319513438,0.02691692597597412,True
61502,161784,0,161784,3507.0,39016.0,28104.0,-0.0051849999999999995,0.00122,-0.0021349999999999997,0.2625,0.4025,-4.6025,0.97928125,0.02484375,-0.53078125,1.19028125,0.93796875,-0.42712500000000003,-1.20775,1.16784375,0.018502740293833187,0.02685558012912696,True
61503,161785,0,161785,3506.0,39016.0,28100.0,-0.00976,0.0025009999999999998,-0.0026839999999999998,0.31500000000000006,0.9275000000000001,-4.865,1.0049062500000001,0.0153125,-0.53625,1.183125,0.9446875,-0.42815625,-1.20234375,1.162625,0.01815400005884603,0.02642983353482749,True
61504,161786,0,161786,3506.0,39014.0,28095.0,-0.01159,0.0011589999999999999,-0.000549,0.17500000000000002,1.1725,-4.865,0.9799375,0.024625,-0.52853125,1.20503125,0.93734375,-0.426375,-1.20775,1.16546875,0.01846364841283244,0.02694483839295455,True
61505,161787,0,161787,3506.0,39014.0,28095.0,-0.009882,-0.000793,0.002379,0.21000000000000002,1.155,-4.795000000000001,1.00165625,0.025,-0.529875,1.18234375,0.9428125,-0.42328125,-1.2065000000000001,1.15915625,0.01835466927688105,0.026843274552198846,True
61506,161788,0,161788,3506.0,39013.0,28094.0,-0.010065,-0.002806,0.004026,0.08750000000000001,0.9275000000000001,-4.6725,0.9874375,0.02103125,-0.53053125,1.1885625,0.9449062500000001,-0.4269375,-1.20665625,1.16296875,0.018339128677100844,0.026823272126781986,True
61507,161789,0,161789,3503.0,39012.0,28092.0,-0.011346,-0.000488,0.0044529999999999995,0.28,0.14,-4.3925,0.98171875,0.024875,-0.5300625,1.18134375,0.936875,-0.42615625,-1.2070625,1.16778125,0.0184650931314664,0.026857552322885697,True
61508,161790,0,161790,3503.0,39013.0,28090.0,-0.00915,0.002379,0.00244,0.36750000000000005,-0.5425000000000001,-4.2875000000000005,0.989,0.02034375,-0.5328125,1.1925625,0.94321875,-0.42928125,-1.206375,1.16221875,0.018405166955126853,0.026721910627767773,True
61509,161791,0,161791,3503.0,39014.0,28090.0,-0.0068319999999999995,0.002623,0.0011589999999999999,0.24500000000000002,-1.4000000000000001,-4.2875000000000005,0.98834375,0.0235,-0.531875,1.18821875,0.9373125,-0.42612500000000003,-1.20828125,1.1692500000000001,0.018407545200067554,0.026832700067562124,True
61510,161792,0,161792,3502.0,39016.0,28090.0,-0.004514,0.000305,-0.001037,0.08750000000000001,-2.4675000000000002,-4.025,0.9861875,0.03015625,-0.537,1.193375,0.94471875,-0.42865625,-1.20725,1.1595625,0.018781733031263233,0.026589572444435626,True
61511,161793,0,161793,3501.0,39016.0,28089.0,-0.003111,0.000183,0.000366,-0.052500000000000005,-3.5700000000000003,-4.112500000000001,0.993625,0.023,-0.531875,1.18,0.9372812500000001,-0.426375,-1.20725,1.161375,0.018397121963451394,0.02679288696704321,True
61512,161794,0,161794,3503.0,39014.0,28089.0,0.0040869999999999995,6.1e-05,-0.002989,0.10500000000000001,-5.7225,-4.130000000000001,0.98684375,0.02328125,-0.52746875,1.1875625,0.93771875,-0.4251875,-1.20365625,1.161375,0.0183609132990279,0.026828944709162982,True
61513,161795,0,161795,3501.0,39015.0,28090.0,0.007991,0.0023179999999999997,-0.001769,0.10500000000000001,-6.562500000000001,-4.0600000000000005,0.98671875,0.0236875,-0.5324375,1.19246875,0.9375625,-0.42928125,-1.2103125000000001,1.169625,0.018542041632927702,0.026888797986934915,True
61514,161796,0,161796,3500.0,39013.0,28091.0,0.010797,0.00183,-0.00042699999999999997,0.10500000000000001,-6.947500000000001,-3.7800000000000002,0.990375,0.024125,-0.53271875,1.1880625,0.94340625,-0.42596875,-1.205625,1.1653125,0.018426853592040236,0.026696669890153485,True
61515,161797,0,161797,3501.0,39012.0,28092.0,0.011224,-0.001037,0.0006709999999999999,0.052500000000000005,-7.192500000000001,-3.7800000000000002,0.9940625000000001,0.02246875,-0.531625,1.1880625,0.9450937500000001,-0.4256875,-1.20709375,1.1617187500000001,0.01834774353843674,0.02679677223797369,True
61516,161798,0,161798,3501.0,39014.0,28095.0,0.008296,-0.00366,-0.001647,-0.29750000000000004,-7.402500000000001,-3.8150000000000004,0.98690625,0.02396875,-0.532875,1.194125,0.94521875,-0.42809375,-1.209875,1.16815625,0.018505844321151748,0.026854556002360187,True
61517,161799,0,161799,3499.0,39012.0,28095.0,0.0073809999999999995,-0.000732,-0.000305,-0.035,-7.437500000000001,-3.6225000000000005,0.995375,0.0201875,-0.53346875,1.19209375,0.94034375,-0.42625,-1.20721875,1.16225,0.01827695614349317,0.026728454522576,True
61518,161800,0,161800,3500.0,39013.0,28093.0,0.00671,-0.000183,0.001098,-0.0175,-7.3325000000000005,-3.5525,0.9911562500000001,0.021781250000000002,-0.5318437500000001,1.18753125,0.93775,-0.42640625,-1.207375,1.15546875,0.018348483006991663,0.026798952687457543,True
61519,161801,0,161801,3499.0,39010.0,28096.0,0.009089,-0.0021349999999999997,6.1e-05,-0.10500000000000001,-7.1225000000000005,-3.3775000000000004,0.9863437500000001,0.0233125,-0.53265625,1.192375,0.93871875,-0.4285,-1.21025,1.16946875,0.018495302617843913,0.02687770847175256,True
61520,161802,0,161802,3498.0,39013.0,28099.0,0.013481,-0.0026839999999999998,-0.000732,-0.052500000000000005,-6.597500000000001,-3.3425000000000002,0.9903125,0.021531250000000002,-0.535,1.1945000000000001,0.94565625,-0.42812500000000003,-1.20990625,1.1611562500000001,0.018407317385186132,0.02677147004463771,True
61521,161803,0,161803,3499.0,39012.0,28098.0,0.014579,-0.0015249999999999999,-0.0021349999999999997,-0.07,-6.072500000000001,-3.3950000000000005,0.98565625,0.0230625,-0.53240625,1.1876875,0.93721875,-0.4258125,-1.20634375,1.162,0.018377075481112448,0.02673682096396865,True
61522,161804,0,161804,3500.0,39010.0,28100.0,0.008357,0.001403,-0.00366,0.24500000000000002,-3.6225000000000005,-3.6750000000000003,0.98584375,0.0246875,-0.53196875,1.1879375,0.93859375,-0.42662500000000003,-1.203625,1.16890625,0.018476252859328704,0.02664919232848449,True
61523,161805,0,161805,3499.0,39011.0,28098.0,0.000488,0.0013419999999999999,-0.002928,0.4025,-2.2925000000000004,-3.7800000000000002,0.9865,0.0311875,-0.53471875,1.1921875,0.93271875,-0.429375,-1.2075,1.16790625,0.01885281551410955,0.02668972528017455,True
61524,161806,0,161806,3499.0,39010.0,28102.0,-0.0042699999999999995,0.000549,0.001098,0.385,-1.1900000000000002,-4.0075,0.99428125,0.0223125,-0.5351875,1.1924062500000001,0.9419062500000001,-0.41978125,-1.20615625,1.153,0.018103919337934284,0.026619241083217518,True
61525,161807,0,161807,3500.0,39011.0,28100.0,-0.00671,0.0011589999999999999,0.003172,0.385,-0.36750000000000005,-4.095000000000001,0.99228125,0.027625,-0.5328125,1.18840625,0.93796875,-0.42659375,-1.20728125,1.16246875,0.01859525542729428,0.02675690183763868,True
61526,161808,0,161808,3499.0,39015.0,28101.0,-0.009211,0.000488,0.003843,0.5775,0.1925,-4.130000000000001,0.9858125,0.02321875,-0.5346875,1.19115625,0.93834375,-0.429,-1.20903125,1.1613125,0.018511553890867415,0.026750085844730747,True
61527,161809,0,161809,3499.0,39010.0,28099.0,-0.014884,0.0037819999999999998,0.000122,0.5775,0.56,-4.1475,0.990375,0.0238125,-0.53234375,1.18809375,0.93721875,-0.425875,-1.2073125,1.15790625,0.018410292364142534,0.02677670418058252,True
61528,161810,0,161810,3501.0,39013.0,28101.0,-0.012261,0.003111,0.000305,0.665,0.36750000000000005,-3.9725000000000006,0.987,0.02284375,-0.52928125,1.191375,0.9433125,-0.42809375,-1.20978125,1.16184375,0.018459790789037724,0.0269934908697393,True
61529,161811,0,161811,3500.0,39014.0,28101.0,-0.007808,0.000488,0.002013,0.47250000000000003,0.21000000000000002,-3.6575,0.9889687500000001,0.02378125,-0.5326875,1.18775,0.9381875000000001,-0.42662500000000003,-1.20790625,1.16209375,0.018439151949972622,0.026785991002326898,True
61530,161812,0,161812,3500.0,39014.0,28101.0,-0.0059169999999999995,-0.003843,0.000793,0.21000000000000002,0.035,-3.5175000000000005,0.98665625,0.02403125,-0.53403125,1.19265625,0.946375,-0.42865625,-1.21121875,1.1616250000000001,0.018531002907701894,0.026860561828253544,True
61531,161813,0,161813,3502.0,39013.0,28101.0,-0.008539999999999999,-0.005612,0.003111,0.07,-0.1925,-3.5175000000000005,0.99084375,0.02471875,-0.53240625,1.18746875,0.9363750000000001,-0.4258125,-1.20203125,1.160375,0.0184448828467835,0.02657027893336971,True
61532,161814,0,161814,3499.0,39012.0,28101.0,-0.003172,0.002928,-0.001769,0.49000000000000005,-1.6275000000000002,-3.6400000000000006,0.9870625000000001,0.02396875,-0.53325,1.1889375,0.93665625,-0.42734375,-1.20928125,1.17246875,0.018475709214187484,0.0268167601962075,True
61533,161815,0,161815,3501.0,39013.0,28100.0,0.00183,0.005246,-0.00183,0.7350000000000001,-2.3275,-3.6225000000000005,0.9873437500000001,0.02340625,-0.5351875,1.2030625,0.95003125,-0.43015625,-1.2074375,1.16159375,0.018565681502753388,0.026668716326282666,True
61534,161816,0,161816,3501.0,39012.0,28102.0,0.0048189999999999995,0.0035989999999999998,-0.003904,0.5950000000000001,-3.0100000000000002,-3.6575,0.98853125,0.029718750000000002,-0.53396875,1.1861875,0.9339375,-0.42546875,-1.2080312500000001,1.16625,0.018635773366683088,0.026739989859382616,True
61535,161817,0,161817,3501.0,39011.0,28101.0,0.006893,0.000183,-0.0023179999999999997,0.36750000000000005,-3.5175000000000005,-3.7450000000000006,1.01025,0.0165625,-0.5404375,1.20434375,0.95053125,-0.42628125,-1.20690625,1.15984375,0.018129806394495684,0.0264399265578258,True
61536,161818,0,161818,3499.0,39010.0,28102.0,0.006954,-0.0030499999999999998,-0.000122,0.052500000000000005,-3.9025000000000003,-3.7100000000000004,0.9898125,0.02003125,-0.532125,1.17809375,0.936875,-0.4251875,-1.2060625,1.1595625,0.018227853931520484,0.026737119294217414,True
61537,161819,0,161819,3499.0,39012.0,28102.0,0.011712,-0.00042699999999999997,-0.00042699999999999997,0.28,-4.095000000000001,-3.8150000000000004,0.97396875,0.03,-0.528375,1.17684375,0.92709375,-0.4236875,-1.2065000000000001,1.154625,0.01857571670944447,0.026902783012318257,True
61538,161820,0,161820,3499.0,39009.0,28102.0,0.0042699999999999995,0.0013419999999999999,0.000366,0.4025,-3.9025000000000003,-3.5875000000000004,0.97346875,0.02746875,-0.52796875,1.17015625,0.93159375,-0.4256875,-1.20721875,1.16109375,0.018552446067280605,0.026946645988066415,True
61539,161821,0,161821,3500.0,39011.0,28101.0,-0.000488,0.002074,0.00122,0.56,-3.5525,-3.5700000000000003,0.96815625,0.031875,-0.5271875,1.17646875,0.93521875,-0.42578125,-1.2064375,1.15834375,0.018736606428914122,0.02694748117420401,True
61540,161822,0,161822,3502.0,39012.0,28104.0,-0.002989,0.00122,0.002379,0.49000000000000005,-3.5525,-3.7275000000000005,0.97378125,0.027,-0.52725,1.1768750000000001,0.934125,-0.42609375,-1.20771875,1.15853125,0.018549578767583334,0.026994459782283944,True
61541,161823,0,161823,3501.0,39011.0,28102.0,-0.003477,0.002013,0.00366,0.29750000000000004,-3.7625,-3.6750000000000003,0.9909375,0.021843750000000002,-0.53871875,1.21153125,0.9346875,-0.42521875000000003,-1.2054375,1.16221875,0.01830331611666733,0.026451385737700443,True
61542,161824,0,161824,3501.0,39011.0,28101.0,-0.001281,-0.003294,0.002806,0.12250000000000001,-3.8325000000000005,-3.43,1.012125,0.01828125,-0.544375,1.2143125000000001,0.9384687500000001,-0.42665625,-1.20734375,1.164875,0.01821524384861313,0.026300619239185006,True
61543,161825,0,161825,3501.0,39008.0,28102.0,-0.003111,-0.0034159999999999998,0.0008539999999999999,0.0,-3.7800000000000002,-3.3075,1.0130000000000001,0.012968750000000001,-0.53496875,1.207,0.9439375,-0.42659375,-1.2069375,1.1713125,0.017995243401466895,0.026658087679235134,True
61544,161826,0,161826,3501.0,39008.0,28104.0,-0.004209,-0.003172,-0.00244,0.07,-3.7975000000000003,-3.2725000000000004,0.98940625,0.01871875,-0.53578125,1.20828125,0.94375,-0.42871875,-1.210875,1.15928125,0.018316044512158458,0.02677787859405911,True
61545,161827,0,161827,3503.0,39006.0,28104.0,-0.005246,-0.000793,-0.00042699999999999997,0.17500000000000002,-3.9550000000000005,-3.3775000000000004,1.00675,0.01515625,-0.53590625,1.190125,0.94346875,-0.42562500000000003,-1.20528125,1.1623125,0.018045853483790078,0.026556934372632724,True
61546,161828,0,161828,3503.0,39005.0,28105.0,0.0051849999999999995,0.000549,-0.003843,0.17500000000000002,-4.567500000000001,-3.4475000000000002,0.97871875,0.025687500000000002,-0.52759375,1.18440625,0.93796875,-0.4254375,-1.2080625,1.1691875,0.01846947470234668,0.026994091672059288,True
61547,161829,0,161829,3502.0,39006.0,28105.0,0.005673,0.001586,-0.0035989999999999998,0.28,-5.442500000000001,-3.7275000000000005,0.98203125,0.0243125,-0.527375,1.1900625,0.9448125,-0.42653125000000003,-1.20671875,1.16621875,0.01845713357274173,0.026950899747711116,True
61548,161830,0,161830,3502.0,39006.0,28107.0,0.0068319999999999995,0.001098,0.000732,0.1925,-5.3725000000000005,-3.6050000000000004,0.991,0.01990625,-0.53603125,1.190125,0.94090625,-0.4263125,-1.20696875,1.161875,0.018267953871465452,0.02661714332470063,True
61549,161831,0,161831,3503.0,39008.0,28108.0,0.010919,-0.001281,0.0023179999999999997,0.17500000000000002,-5.215000000000001,-3.4825000000000004,0.9940625000000001,0.02103125,-0.5358125,1.1933125,0.9375625,-0.42634375,-1.20671875,1.16184375,0.018315266688245145,0.026616167564451444,True
61550,161832,0,161832,3502.0,39005.0,28110.0,0.011163,-0.002257,0.003904,0.08750000000000001,-4.777500000000001,-3.3950000000000005,0.976375,0.023625,-0.5347500000000001,1.1951875,0.938125,-0.42984375,-1.2033125,1.1564375,0.018562081470537447,0.026526771034561428,True
61551,161833,0,161833,3504.0,39005.0,28110.0,0.012261,-0.001952,-0.000793,0.035,-3.1500000000000004,-3.5525,0.98821875,0.02421875,-0.532625,1.18640625,0.93775,-0.427,-1.2108125,1.16771875,0.01847213124820895,0.026900660183006797,True
61552,161834,0,161834,3501.0,39006.0,28111.0,0.009394,-0.002013,-0.002562,0.21000000000000002,-2.205,-3.6050000000000004,0.993375,0.02228125,-0.53603125,1.1946875000000001,0.94440625,-0.427,-1.208,1.16159375,0.018392813280386458,0.02665696405902888,True
61553,161835,0,161835,3502.0,39006.0,28110.0,0.007442,-0.000732,-0.00488,0.31500000000000006,-1.0850000000000002,-3.8500000000000005,0.97609375,0.024375,-0.53278125,1.18759375,0.938125,-0.42265625,-1.2026875000000001,1.1691875,0.01830395700713349,0.02658074659696511,True
61554,161836,0,161836,3502.0,39007.0,28108.0,0.006039,-0.000488,-0.004941,0.43750000000000006,-0.21000000000000002,-3.99,0.9825625,0.0209375,-0.5316875,1.18921875,0.9441875000000001,-0.4265625,-1.20115625,1.16596875,0.018320220047335765,0.0265650013578246,True
61555,161837,0,161837,3501.0,39005.0,28105.0,0.003538,0.002196,-0.005673,0.805,0.9450000000000001,-4.165,0.98821875,0.01971875,-0.5325625,1.187625,0.9475625,-0.42640625,-1.2080625,1.157125,0.01826404569849484,0.026796982116336788,True
61556,161838,0,161838,3500.0,39000.0,28101.0,0.0023179999999999997,0.004575,-0.005063,1.0325000000000002,3.5000000000000004,-4.322500000000001,0.98675,0.02275,-0.53346875,1.19115625,0.94478125,-0.42721875000000004,-1.20790625,1.1525,0.018420793402851073,0.026754998741714216,True
61557,161839,0,161839,3498.0,39000.0,28098.0,-0.0015249999999999999,0.000549,0.001098,0.77,5.1450000000000005,-4.165,0.98628125,0.02409375,-0.5328125,1.19275,0.9379375,-0.4288125,-1.2095625,1.16809375,0.01853983897088735,0.026844972022025376,True
61558,161840,0,161840,3500.0,39000.0,28095.0,-0.014701,-0.001952,0.0062829999999999995,0.7000000000000001,6.44,-4.2,0.99434375,0.0246875,-0.5325,1.18840625,0.93821875,-0.42615625,-1.2099375,1.16821875,0.0184574169339476,0.02687184369259147,True
61559,161841,0,161841,3498.0,38999.0,28093.0,-0.019764,-0.00061,0.004758,0.6300000000000001,7.245000000000001,-4.6725,0.99371875,0.02115625,-0.5328437500000001,1.18865625,0.94078125,-0.42578125,-1.20834375,1.16853125,0.018297777067007834,0.026796683141866468,True
61560,161842,0,161842,3499.0,39000.0,28089.0,-0.022448,0.002562,0.002074,0.8400000000000001,7.262500000000001,-4.812500000000001,0.9863437500000001,0.0230625,-0.5338125,1.19503125,0.94346875,-0.429,-1.2065000000000001,1.162,0.018505157804249047,0.02668706484438538,True
61561,161843,0,161843,3496.0,39002.0,28088.0,-0.030744,0.0070149999999999995,0.003294,1.1725,6.195,-4.812500000000001,0.98684375,0.02409375,-0.53046875,1.188375,0.93834375,-0.42825,-1.21153125,1.16815625,0.018517239261920115,0.027013928398339545,True
61562,161844,0,161844,3496.0,39002.0,28087.0,-0.033184,0.0037819999999999998,0.004514,0.8400000000000001,4.812500000000001,-4.655,0.989,0.020625,-0.53503125,1.194,0.9421875000000001,-0.42640625,-1.20778125,1.16159375,0.018301146940107083,0.026688187799154283,True
61563,161845,0,161845,3495.0,39004.0,28086.0,-0.029219,-0.0018909999999999999,0.005673,0.47250000000000003,2.9575000000000005,-4.375,0.99253125,0.0234375,-0.53234375,1.18784375,0.93878125,-0.4268125,-1.2090625,1.16621875,0.018432613751794263,0.026844264835314675,True
61564,161846,0,161846,3494.0,39006.0,28084.0,-0.017995,-0.004941,0.004941,0.17500000000000002,0.5425000000000001,-4.1825,0.98678125,0.024,-0.5339375000000001,1.1945000000000001,0.94275,-0.42846875,-1.21075,1.16475,0.0185221904258735,0.026846186646569417,True
61565,161847,0,161847,3494.0,39006.0,28085.0,-0.003965,-0.005246,0.005063,0.17500000000000002,-1.8375000000000001,-3.7450000000000006,0.9921875,0.022,-0.53253125,1.1888125,0.93803125,-0.42462500000000003,-1.2081875,1.16459375,0.018285848810370684,0.026803047620936646,True
61566,161848,0,161848,3492.0,39003.0,28084.0,0.009028,-0.003843,-0.000793,0.07,-5.355,-3.2725000000000004,0.98609375,0.0224375,-0.53325,1.19475,0.9439375,-0.42896875,-1.2081250000000001,1.16228125,0.018478317878236266,0.02677212208365359,True
61567,161849,0,161849,3492.0,39007.0,28084.0,0.018239,0.00061,-0.0062829999999999995,0.08750000000000001,-6.702500000000001,-3.2025,0.99490625,0.02421875,-0.5330625,1.18821875,0.926125,-0.42690625,-1.20884375,1.1692500000000001,0.01846836416298114,0.02680730844706037,True
61568,161850,0,161850,3490.0,39003.0,28085.0,0.025131999999999998,0.004514,-0.006954,0.22750000000000004,-7.735,-3.1325000000000003,0.9861875,0.0208125,-0.53321875,1.1878125,0.93990625,-0.42559375,-1.20878125,1.168875,0.018276167800424504,0.02679869737851765,True
61569,161851,0,161851,3488.0,39000.0,28085.0,0.026474,0.0040869999999999995,-0.00488,0.28,-8.295,-3.0275000000000003,0.9863125,0.0205,-0.528375,1.1888750000000001,0.9499062500000001,-0.42503125,-1.20825,1.17578125,0.01824076478919551,0.026970337092023445,True
61570,161852,0,161852,3491.0,38998.0,28084.0,0.024522,0.002013,-0.002074,0.15750000000000003,-8.4525,-3.0975,0.9878750000000001,0.021687500000000002,-0.532375,1.18821875,0.9556250000000001,-0.424,-1.2036875,1.17603125,0.01824793236161153,0.026635487366679974,True
61571,161853,0,161853,3489.0,38999.0,28085.0,0.019642,-0.002379,-0.003111,-0.0175,-7.857500000000001,-3.2025,0.9868125,0.02725,-0.53425,1.18803125,0.9490625,-0.4235625,-1.20575,1.16259375,0.0184580975850677,0.02664074665502911,True
61572,161854,0,161854,3486.0,38996.0,28085.0,0.017811999999999998,-0.0008539999999999999,-0.001647,0.17500000000000002,-7.052500000000001,-3.3775000000000004,0.97971875,0.02315625,-0.53334375,1.18790625,0.9554375,-0.43284375,-1.20903125,1.16640625,0.018663402617634307,0.026803390154074246,True
61573,161855,0,161855,3487.0,38994.0,28087.0,0.01586,-0.000793,0.000732,0.15750000000000003,-6.0375000000000005,-3.5175000000000005,0.9935625,0.021,-0.53546875,1.19284375,0.93153125,-0.42075,-1.19978125,1.157875,0.01808912502687264,0.026361835978238896,True
61574,161856,0,161856,3487.0,38994.0,28087.0,0.010919,-0.0006709999999999999,0.000793,0.4025,-4.777500000000001,-3.4125000000000005,0.9855,0.02428125,-0.52915625,1.1883125,0.94740625,-0.42859375,-1.21259375,1.1651875,0.01853872575043334,0.02710698894277785,True
61575,161857,0,161857,3484.0,38994.0,28086.0,0.003355,-0.00122,-0.000488,0.42000000000000004,-3.3950000000000005,-3.3425000000000002,0.99328125,0.022125,-0.53496875,1.18821875,0.9295,-0.42128125,-1.2066875000000001,1.16409375,0.018156551470861097,0.026648434071315404,True
61576,161858,0,161858,3484.0,38991.0,28089.0,-0.009394,0.00122,6.1e-05,0.7875000000000001,-0.9100000000000001,-3.4475000000000002,0.98728125,0.024625,-0.5351875,1.1944062500000001,0.95584375,-0.428375,-1.20353125,1.15625,0.018544008760304362,0.02651786146038563,True
61577,161859,0,161859,3486.0,38994.0,28090.0,-0.012688,0.002257,0.0,0.8925000000000001,-0.24500000000000002,-3.7100000000000004,0.99371875,0.0239375,-0.53246875,1.18153125,0.93153125,-0.43040625,-1.21575,1.1709375,0.018597470109609823,0.027097399442808565,True
61578,161860,0,161860,3486.0,38995.0,28089.0,-0.011651,0.003294,-0.002074,0.8575,0.1925,-3.9025000000000003,0.98684375,0.02021875,-0.5346875,1.18778125,0.93125,-0.424875,-1.20609375,1.16390625,0.018222969411307122,0.026636664001140595,True
61579,161861,0,161861,3484.0,38994.0,28089.0,-0.010735999999999999,0.001403,-0.003111,0.5950000000000001,0.5950000000000001,-3.8150000000000004,0.987,0.0245625,-0.5328437500000001,1.18178125,0.95059375,-0.42984375,-1.21434375,1.1724375,0.018600456664811867,0.027028266400944898,True
61580,161862,0,161862,3484.0,38995.0,28090.0,-0.014395999999999999,-0.000915,-0.000549,0.6125,1.0325000000000002,-3.6225000000000005,0.99253125,0.021718750000000002,-0.534375,1.1943125,0.9221875,-0.42440625,-1.20490625,1.1573437500000001,0.018265541255480876,0.026603203493367488,True
61581,161863,0,161863,3486.0,39000.0,28090.0,-0.014518,-0.003111,0.004697,0.49000000000000005,0.7525000000000001,-3.6750000000000003,0.9873437500000001,0.024125,-0.53296875,1.1891875,0.93625,-0.42953125000000003,-1.2084062500000001,1.1646875,0.0185699940517688,0.02679413737232992,True
61582,161864,0,161864,3485.0,38998.0,28092.0,-0.007137,-0.0025009999999999998,0.003172,0.35000000000000003,-0.07,-3.7625,0.9927812500000001,0.021625000000000002,-0.5356875,1.1944375,0.93921875,-0.42553125,-1.20509375,1.1616875,0.018306920141194474,0.026558371757692833,True
61583,161865,0,161865,3484.0,38996.0,28091.0,0.000366,-0.001769,0.001769,0.45500000000000007,-0.7350000000000001,-3.6750000000000003,0.98690625,0.0243125,-0.5324375,1.18196875,0.93790625,-0.42653125000000003,-1.21084375,1.16809375,0.01845713357274173,0.02690930366025532,True
61584,161866,0,161866,3484.0,38998.0,28093.0,0.00549,-0.001281,0.001647,0.42000000000000004,-1.0325000000000002,-3.7275000000000005,0.98728125,0.02046875,-0.5355,1.19303125,0.945625,-0.42196875,-1.20721875,1.16178125,0.01811637319370495,0.026647872447252835,True
61585,161867,0,161867,3485.0,38997.0,28091.0,0.004392,0.000915,-0.0008539999999999999,0.5775,-1.0850000000000002,-3.6050000000000004,0.9855,0.0245,-0.5339375000000001,1.194625,0.9373125,-0.42978125,-1.20890625,1.1611562500000001,0.018595387545682587,0.02677501131172639,True
61586,161868,0,161868,3483.0,38995.0,28092.0,0.0048189999999999995,0.003843,-0.00042699999999999997,0.5950000000000001,-1.4700000000000002,-3.6050000000000004,0.9786875,0.032125,-0.53271875,1.19528125,0.93753125,-0.42809375,-1.21109375,1.1618125,0.01883973242897842,0.026907797286660762,True
61587,161869,0,161869,3484.0,38997.0,28093.0,0.0064659999999999995,0.0034159999999999998,-0.001403,0.6475000000000001,-1.6450000000000002,-3.5875000000000004,0.9871875,0.02375,-0.53515625,1.19234375,0.9256875,-0.42846875,-1.20978125,1.16196875,0.018511956464729293,0.0267604464041115,True
61588,161870,0,161870,3484.0,38998.0,28091.0,0.007503,0.002074,-0.001098,0.56,-1.9075000000000002,-3.6925000000000003,0.98640625,0.021750000000000002,-0.53459375,1.18240625,0.9400000000000001,-0.42859375,-1.2042187500000001,1.15740625,0.0184351074240612,0.026567972871605082,True
61589,161871,0,161871,3483.0,38994.0,28091.0,0.008235,0.000122,6.1e-05,0.5075000000000001,-1.8375000000000001,-3.8500000000000005,0.98721875,0.0235,-0.5358125,1.195125,0.9394375,-0.4296875,-1.20815625,1.161875,0.018550687559961625,0.026671674966311745,True
61590,161872,0,161872,3486.0,38991.0,28091.0,0.009333,-0.0017079999999999999,0.0042699999999999995,0.3325,-1.3475000000000001,-3.8850000000000002,0.9870625000000001,0.023125,-0.53309375,1.19340625,0.93803125,-0.42478125,-1.21115625,1.1621875,0.01833818880158855,0.026895335274438274,True
61591,161873,0,161873,3484.0,38991.0,28092.0,-0.0013419999999999999,0.003355,-0.00122,0.28,-0.35000000000000003,-4.0075,0.99353125,0.0238125,-0.53225,1.1799375,0.937875,-0.4265,-1.2090625,1.16834375,0.018435408265613167,0.026847983736007632,True
61592,161874,0,161874,3485.0,38993.0,28090.0,0.000366,0.002562,0.000976,0.42000000000000004,0.0,-3.8850000000000002,0.9868125,0.02234375,-0.53746875,1.18940625,0.9470000000000001,-0.4276875,-1.20721875,1.1576875,0.018422998493001025,0.02656976982040115,True
61593,161875,0,161875,3485.0,38992.0,28091.0,-0.0015249999999999999,-0.002745,0.0017079999999999999,0.31500000000000006,0.49000000000000005,-3.7800000000000002,0.9852500000000001,0.02434375,-0.53403125,1.18884375,0.937,-0.42946875,-1.21184375,1.1689375,0.01857643752486431,0.026884685892914918,True
61594,161876,0,161876,3485.0,38992.0,28091.0,-0.007259,-0.003538,0.002196,0.10500000000000001,0.77,-3.9200000000000004,0.9949375,0.0213125,-0.53853125,1.1985937500000001,0.9440937500000001,-0.42621875000000004,-1.20896875,1.160125,0.01832175723063972,0.026595197393784697,True
61595,161877,0,161877,3485.0,38993.0,28092.0,-0.00671,-0.003294,0.002196,0.14,1.05,-4.077500000000001,0.98703125,0.02315625,-0.5320625,1.1855625,0.9376875,-0.4264375,-1.2088125,1.15665625,0.018406030351335517,0.02684577070022636,True
61596,161878,0,161878,3485.0,38992.0,28092.0,-0.002379,0.000549,-0.001098,0.45500000000000007,0.9100000000000001,-4.130000000000001,0.984,0.020625,-0.53609375,1.18403125,0.94503125,-0.428875,-1.20896875,1.16240625,0.01840035613592521,0.02669188917138865,True
61597,161879,0,161879,3485.0,38992.0,28090.0,-0.003721,0.002074,-0.00122,0.43750000000000006,1.0325000000000002,-4.165,0.9834375000000001,0.02440625,-0.5321875,1.1855,0.93734375,-0.426875,-1.21209375,1.16990625,0.018474784433129495,0.026967464770751137,True
61598,161880,0,161880,3485.0,38991.0,28091.0,-0.005063,0.000488,-0.0017079999999999999,0.29750000000000004,1.05,-4.130000000000001,0.98540625,0.0205,-0.5335,1.18640625,0.9454375,-0.42965625,-1.20825,1.1598125000000001,0.01842663054253987,0.02676703063481202,True
61599,161881,0,161881,3485.0,38991.0,28093.0,-0.00793,-0.001281,-0.0021349999999999997,0.17500000000000002,0.805,-4.165,0.98409375,0.0185,-0.532,1.18615625,0.943625,-0.42725,-1.20809375,1.1638125,0.01824806312622174,0.026820502839489793,True
61600,161882,0,161882,3485.0,38992.0,28092.0,-0.008235,-0.001281,-0.000366,0.1925,0.29750000000000004,-4.305000000000001,0.98121875,0.0203125,-0.53540625,1.18084375,0.9442812500000001,-0.42828125,-1.2085937500000001,1.1615625,0.018363704978220683,0.026704682802863616,True
61601,161883,0,161883,3483.0,38992.0,28092.0,0.0023179999999999997,0.0008539999999999999,0.0032329999999999998,0.31500000000000006,-0.8225000000000001,-4.2525,0.98428125,0.026125,-0.536125,1.18915625,0.93715625,-0.42746875,-1.2080625,1.16240625,0.018569003388859112,0.026655658283931977,True
61602,161884,0,161884,3485.0,38992.0,28093.0,-0.00122,0.0006709999999999999,0.0035989999999999998,0.4025,-0.9800000000000001,-4.112500000000001,0.9831562500000001,0.0226875,-0.5366875,1.1785,0.9375625,-0.42490625,-1.21028125,1.16209375,0.018325300634470194,0.02671900972941347,True
61603,161885,0,161885,3486.0,38991.0,28094.0,-0.002623,0.0011589999999999999,0.0037819999999999998,0.36750000000000005,-1.225,-4.095000000000001,0.98409375,0.02340625,-0.5356875,1.18134375,0.9378125,-0.42771875000000004,-1.2081875,1.16265625,0.018467749879427446,0.02667784028502644,True
61604,161886,0,161886,3485.0,38993.0,28097.0,0.000366,0.00061,0.002013,0.525,-1.6275000000000002,-3.9725000000000006,0.98390625,0.021937500000000002,-0.5348437500000001,1.19084375,0.94140625,-0.4276875,-1.20875,1.16228125,0.01840636777427253,0.026733029206128824,True
61605,161887,0,161887,3486.0,38992.0,28098.0,0.0028669999999999998,0.00061,0.001037,0.525,-2.0650000000000004,-3.7800000000000002,0.9850625000000001,0.02325,-0.536125,1.1926875000000001,0.938125,-0.42784375,-1.20475,1.16234375,0.018466376100019062,0.02652773782719527,True
61606,161888,0,161888,3487.0,38996.0,28096.0,0.0068319999999999995,0.000366,-0.00488,0.385,-2.6425,-3.6925000000000003,0.98690625,0.02340625,-0.5337500000000001,1.19315625,0.9382812500000001,-0.42859375,-1.211875,1.1658125,0.018502907069712107,0.02689704752224894,True
61607,161889,0,161889,3486.0,38993.0,28097.0,0.003904,0.002623,-0.006527,0.385,-2.6250000000000004,-3.8325000000000005,0.992375,0.0243125,-0.53346875,1.18865625,0.93896875,-0.42609375,-1.21334375,1.17346875,0.018439552988287373,0.026964888383755124,True
61608,161890,0,161890,3486.0,38992.0,28092.0,0.0,0.003294,-0.006039,0.47250000000000003,-2.5900000000000003,-3.9025000000000003,0.9936875000000001,0.0201875,-0.53028125,1.18921875,0.93875,-0.42615625,-1.2069375,1.17440625,0.01827318819349647,0.026844048389456275,True
61609,161891,0,161891,3485.0,38990.0,28091.0,0.000244,0.0026839999999999998,-0.003172,0.4025,-2.4675000000000002,-3.9200000000000004,0.98675,0.0271875,-0.53646875,1.19525,0.9705,-0.4275625,-1.20475,1.15378125,0.01861626594958052,0.026514099524891137,True
61610,161892,0,161892,3487.0,38991.0,28088.0,0.0030499999999999998,-0.0051849999999999995,0.0046359999999999995,0.31500000000000006,-2.6075000000000004,-3.8850000000000002,0.98940625,0.02434375,-0.5327500000000001,1.1939375,0.9399375,-0.4360625,-1.2119375000000001,1.15109375,0.01884126176220085,0.026939123579851808,True
61611,161893,0,161893,3483.0,38988.0,28083.0,0.00122,-0.004209,0.004758,0.15750000000000003,-2.4325,-3.8675,0.99190625,0.0249375,-0.532375,1.187375,0.92509375,-0.42696875,-1.21121875,1.1740625,0.018500300001407257,0.026926256787962698,True
61612,161894,0,161894,3483.0,38988.0,28082.0,0.0006709999999999999,-0.0015249999999999999,0.0044529999999999995,0.29750000000000004,-2.345,-3.8850000000000002,0.99340625,0.022125,-0.5330625,1.1859375,0.9243750000000001,-0.42375,-1.21390625,1.18596875,0.01825579610010748,0.02700270807899906,True
61613,161895,0,161895,3483.0,38984.0,28077.0,0.002074,0.002196,0.001586,0.43750000000000006,-2.2575000000000003,-3.9025000000000003,0.9891562500000001,0.02034375,-0.53559375,1.19515625,0.93496875,-0.4221875,-1.20178125,1.15215625,0.01812004964747732,0.02643414341992196,True
61614,161896,0,161896,3479.0,38983.0,28075.0,0.006527,0.0021349999999999997,0.00061,0.35000000000000003,-2.1,-3.9550000000000005,0.99159375,0.024,-0.5334375,1.18784375,0.930625,-0.43053125000000003,-1.2197500000000001,1.18465625,0.018605049777622007,0.027213295135756703,True
61615,161897,0,161897,3479.0,38984.0,28073.0,0.005978,-0.001586,-0.0030499999999999998,0.15750000000000003,-1.2075,-3.9200000000000004,0.9883125,0.02203125,-0.52778125,1.18828125,0.94675,-0.42278125,-1.20428125,1.1743125,0.018213015767809,0.026840678109001818,True
61616,161898,0,161898,3478.0,38983.0,28072.0,0.002196,0.000366,-0.0037819999999999998,0.1925,-0.525,-4.025,0.982375,0.02359375,-0.53421875,1.19403125,0.9597187500000001,-0.4340625,-1.2061250000000001,1.15096875,0.018730256174142146,0.026656467426072042,True
61617,161899,0,161899,3476.0,38983.0,28071.0,6.1e-05,0.001037,-0.005612,0.31500000000000006,0.14,-4.0600000000000005,0.98171875,0.02384375,-0.533,1.187875,0.921375,-0.42859375,-1.2205625,1.17028125,0.018520816410072725,0.027261981171117812,True
61618,161900,0,161900,3475.0,38983.0,28071.0,-0.0011589999999999999,0.0006709999999999999,-0.002928,0.2625,0.6300000000000001,-4.077500000000001,0.98590625,0.02128125,-0.536,1.19390625,0.94946875,-0.42775,-1.2024062500000001,1.14975,0.018382014307498643,0.026442167600563938,True
61619,161901,0,161901,3474.0,38984.0,28072.0,-0.0028669999999999998,-0.001952,0.000244,0.07,1.2075,-4.0425,0.98571875,0.02346875,-0.53328125,1.188625,0.92515625,-0.4268125,-1.21484375,1.17546875,0.01843389308367598,0.02703020914020139,True
61620,161902,0,161902,3473.0,38982.0,28072.0,-0.007259,-0.001769,0.0015249999999999999,0.28,2.0475000000000003,-4.112500000000001,0.9878750000000001,0.0195,-0.53609375,1.18365625,0.94071875,-0.42471875000000003,-1.20334375,1.1555,0.01818726162404634,0.026474661720233054,True
61621,161903,0,161903,3471.0,38982.0,28070.0,-0.008235,0.00183,0.0026839999999999998,0.5075000000000001,2.345,-4.2700000000000005,0.9868125,0.0235625,-0.5355,1.1936875,0.93865625,-0.4325,-1.20890625,1.1640625,0.018666223268187863,0.02671302924933525,True
61622,161904,0,161904,3472.0,38983.0,28070.0,-0.009699,0.000183,0.003111,0.5075000000000001,2.2575000000000003,-4.2175,0.99375,0.021375,-0.53528125,1.195125,0.9390937500000001,-0.42675,-1.20878125,1.1626875,0.01834566612422856,0.026716880650467775,True
61623,161905,0,161905,3470.0,38984.0,28071.0,-0.010553,0.001037,0.0035989999999999998,0.36750000000000005,1.9075000000000002,-4.2525,0.9911875,0.021531250000000002,-0.53728125,1.1924062500000001,0.93759375,-0.42265625,-1.2083125000000001,1.16215625,0.01818751799366623,0.02661944348714338,True
61624,161906,0,161906,3470.0,38984.0,28070.0,-0.010248,-0.000488,0.002074,0.4025,1.435,-4.2875000000000005,0.98965625,0.021625000000000002,-0.5354375,1.18834375,0.93784375,-0.4264375,-1.2084375,1.16165625,0.0183433421267428,0.026697410341279586,True
61625,161907,0,161907,3469.0,38986.0,28070.0,-0.005246,0.001769,-0.000976,0.665,0.07,-4.0600000000000005,0.9908750000000001,0.0238125,-0.533375,1.1789375,0.92915625,-0.42612500000000003,-1.20909375,1.1615625,0.018420338878966682,0.026804563333420107,True
61626,161908,0,161908,3470.0,38987.0,28071.0,-0.003477,0.0026839999999999998,-0.0025009999999999998,0.665,-0.8225000000000001,-4.077500000000001,0.98671875,0.023875,-0.53328125,1.188625,0.93875,-0.42675,-1.20915625,1.16265625,0.01844801293663709,0.02681069502276578,True
61627,161909,0,161909,3471.0,38985.0,28072.0,-0.000183,0.002623,-0.00244,0.5950000000000001,-1.5925000000000002,-4.0075,0.9864375,0.02796875,-0.5331875,1.1879375,0.9390625,-0.4268125,-1.2055,1.1636875,0.018618116874643386,0.026673245918549523,True
61628,161910,0,161910,3471.0,38988.0,28073.0,0.000732,-0.000305,-0.0008539999999999999,0.525,-2.3275,-3.8325000000000005,0.9871562500000001,0.02434375,-0.52746875,1.18834375,0.9382812500000001,-0.42303125,-1.20940625,1.1637187500000001,0.01831775079106939,0.027050914775114943,True
61629,161911,0,161911,3470.0,38986.0,28075.0,0.000488,-0.001586,0.000549,0.43750000000000006,-2.8875,-3.6750000000000003,0.98503125,0.02409375,-0.5270312500000001,1.1875625,0.94171875,-0.4295,-1.21103125,1.1660625,0.018567459424056982,0.027130980609926456,True
61630,161912,0,161912,3472.0,38987.0,28077.0,0.001647,0.0011589999999999999,0.002989,0.36750000000000005,-4.3925,-3.8150000000000004,0.98653125,0.0239375,-0.53396875,1.18809375,0.94234375,-0.42946875,-1.211375,1.16825,0.018559808018747848,0.02686907199627153,True
61631,161913,0,161913,3472.0,38987.0,28077.0,0.004758,0.001464,0.001281,0.47250000000000003,-5.1275,-3.7450000000000006,0.99703125,0.0173125,-0.538,1.18653125,0.9445,-0.42965625,-1.20790625,1.1623125,0.01829615388059339,0.026575243630160672,True
61632,161914,0,161914,3471.0,38987.0,28078.0,0.009516,-0.001281,-0.001037,0.24500000000000002,-5.6000000000000005,-3.7100000000000004,0.99521875,0.02503125,-0.52953125,1.184625,0.93753125,-0.42590625,-1.202,1.16190625,0.018461443984294338,0.026683150146813744,True
61633,161915,0,161915,3472.0,38988.0,28076.0,0.005246,-0.002928,0.00042699999999999997,0.22750000000000004,-5.862500000000001,-3.4825000000000004,0.9763437500000001,0.02634375,-0.5299375000000001,1.18175,0.9380625,-0.4265625,-1.2095625,1.1621875,0.018541546728075228,0.026959016047977825,True
61634,161916,0,161916,3473.0,38987.0,28079.0,0.0059169999999999995,-0.0018909999999999999,0.002013,0.3325,-5.915000000000001,-3.4825000000000004,0.9815,0.02140625,-0.54003125,1.2022187500000001,0.931125,-0.42975,-1.21225,1.16775,0.018467493527359064,0.026662386339973625,True
61635,161917,0,161917,3470.0,38986.0,28078.0,0.014518,0.000183,-0.0040869999999999995,0.15750000000000003,-6.0375000000000005,-3.5525,0.99675,0.0305,-0.531625,1.18203125,0.9399375,-0.426,-1.2085937500000001,1.1620625,0.01868910177679522,0.026854681253292843,True
61636,161918,0,161918,3469.0,38987.0,28079.0,0.013725,-0.00061,-0.0037819999999999998,0.22750000000000004,-5.407500000000001,-3.535,0.98021875,0.025906250000000002,-0.53115625,1.181875,0.93815625,-0.4250625,-1.20909375,1.16140625,0.018463361148001158,0.026892577207381762,True
61637,161919,0,161919,3472.0,38986.0,28078.0,0.010248,-0.000915,-0.0021349999999999997,0.08750000000000001,-4.515000000000001,-3.43,0.98040625,0.025531250000000002,-0.53415625,1.18725,0.93790625,-0.42662500000000003,-1.21090625,1.1681875,0.018510795085280918,0.02684354117575603,True
61638,161920,0,161920,3469.0,38986.0,28079.0,0.006527,-0.002562,0.0,0.08750000000000001,-3.6925000000000003,-3.4125000000000005,0.9803125,0.02375,-0.53615625,1.192375,0.94303125,-0.4243125,-1.2118125,1.16740625,0.018344938061204383,0.02679919383027301,True
61639,161921,0,161921,3469.0,38986.0,28076.0,0.003843,-0.000793,-0.000122,0.28,-2.975,-3.6050000000000004,1.002,0.01575,-0.54178125,1.20340625,0.94603125,-0.426875,-1.2095,1.1703125,0.018120410408617556,0.026486790693984415,True
61640,161922,0,161922,3469.0,38986.0,28076.0,-0.0015249999999999999,0.0018909999999999999,0.001769,0.5775,-1.6275000000000002,-3.8325000000000005,1.0048125,0.02378125,-0.52825,1.1816875,0.9439062500000001,-0.424375,-1.20865625,1.161875,0.01834872949666061,0.026990976561870487,True
61641,161923,0,161923,3468.0,38985.0,28077.0,-0.0051849999999999995,0.0017079999999999999,0.0008539999999999999,0.7000000000000001,-0.9625000000000001,-3.8150000000000004,0.98090625,0.03103125,-0.5355,1.1870625000000001,0.93140625,-0.42728125,-1.21125,1.1625625,0.018762321328739767,0.026803510337646882,True
61642,161924,0,161924,3469.0,38983.0,28077.0,-0.0075639999999999995,0.000732,-0.0017079999999999999,0.7525000000000001,-0.385,-3.8500000000000005,0.987,0.025531250000000002,-0.5315,1.19934375,0.938625,-0.42653125000000003,-1.20959375,1.16946875,0.018507028090613564,0.02689824186476627,True
61643,161925,0,161925,3470.0,38984.0,28078.0,-0.009455,0.000549,-0.001464,0.6825000000000001,0.14,-3.6750000000000003,0.9893125,0.0266875,-0.5313125,1.18546875,0.9374687500000001,-0.4260625,-1.20915625,1.1659375,0.01853552941658116,0.026888791646884253,True
61644,161926,0,161926,3469.0,38984.0,28077.0,-0.011041,-6.1e-05,0.001403,0.525,0.49000000000000005,-3.7275000000000005,0.98790625,0.0225625,-0.53240625,1.1787812500000001,0.944125,-0.42953125000000003,-1.21146875,1.1695,0.018506034576492334,0.026934666390667942,True
61645,161927,0,161927,3470.0,38983.0,28077.0,-0.00915,-0.000549,0.001647,0.5425000000000001,0.31500000000000006,-3.6925000000000003,0.9863125,0.02396875,-0.53359375,1.18328125,0.9465,-0.42912500000000003,-1.209875,1.170125,0.0185472770719377,0.02682604534929269,True
61646,161928,0,161928,3468.0,38986.0,28078.0,-0.006405,0.001647,0.000244,0.5950000000000001,-0.17500000000000002,-3.7975000000000003,0.9915625,0.02340625,-0.53553125,1.19428125,0.9459375,-0.43003125000000003,-1.2085000000000001,1.16703125,0.018560659843609495,0.026696104488565367,True
61647,161929,0,161929,3471.0,38986.0,28080.0,-0.004392,0.002379,-0.000305,0.5425000000000001,-0.5775,-3.8500000000000005,0.99484375,0.0213125,-0.535625,1.19428125,0.9411875000000001,-0.4279375,-1.20775,1.1626875,0.018390828124560252,0.02666342692227589,True
61648,161930,0,161930,3471.0,38986.0,28080.0,-0.0030499999999999998,0.000244,0.000549,0.47250000000000003,-0.9275000000000001,-3.8150000000000004,0.99309375,0.02203125,-0.53671875,1.190125,0.93753125,-0.42609375,-1.20878125,1.16228125,0.018346159012838474,0.026659856870311804,True
61649,161931,0,161931,3472.0,38985.0,28082.0,-0.000793,-0.001037,0.00244,0.3325,-1.2600000000000002,-3.7100000000000004,0.9930625000000001,0.02125,-0.53478125,1.17996875,0.93775,-0.4261875,-1.20303125,1.16271875,0.018317942576998557,0.026514667754498778,True
61650,161932,0,161932,3471.0,38987.0,28084.0,0.008173999999999999,-0.002379,0.00061,0.24500000000000002,-2.1525000000000003,-3.6750000000000003,0.97746875,0.02384375,-0.53390625,1.18790625,0.9378125,-0.4259375,-1.21109375,1.16821875,0.018414083389839183,0.02686069500653854,True
61651,161933,0,161933,3471.0,38985.0,28086.0,0.0071979999999999995,-0.00061,0.000244,0.31500000000000006,-2.2750000000000004,-3.5875000000000004,0.98740625,0.025625000000000002,-0.53290625,1.18740625,0.9344375,-0.42853125000000003,-1.209625,1.1676875,0.018591222098135764,0.02684366586174923,True
61652,161934,0,161934,3471.0,38985.0,28084.0,0.0035989999999999998,0.0008539999999999999,-0.002806,0.56,-2.1,-3.5000000000000004,0.97821875,0.0236875,-0.53303125,1.19575,0.9423750000000001,-0.42971875,-1.2121250000000001,1.16859375,0.018559618088112455,0.026935204787379093,True
61653,161935,0,161935,3471.0,38985.0,28086.0,0.0023179999999999997,0.001647,-0.002745,0.6825000000000001,-2.1700000000000004,-3.7100000000000004,0.9930625000000001,0.021812500000000002,-0.5333125,1.1888125,0.94053125,-0.42590625,-1.2081875,1.1616250000000001,0.01832966791150277,0.02677205570610739,True
61654,161936,0,161936,3470.0,38984.0,28086.0,0.002928,0.001769,-0.0015249999999999999,0.5425000000000001,-2.24,-3.7625,0.98671875,0.02440625,-0.529875,1.18775,0.9376875,-0.4259375,-1.2088125,1.1619375,0.018437112188631453,0.026932545910284354,True
61655,161937,0,161937,3469.0,38987.0,28087.0,0.001952,0.000549,-0.00183,0.31500000000000006,-2.0300000000000002,-3.5700000000000003,0.98559375,0.02390625,-0.5325625,1.187875,0.94403125,-0.42684375,-1.20403125,1.16109375,0.01845305945431448,0.02664132349859708,True
61656,161938,0,161938,3471.0,38984.0,28087.0,0.002196,0.0008539999999999999,0.0008539999999999999,0.42000000000000004,-1.6275000000000002,-3.6575,0.9873125,0.0240625,-0.53315625,1.1885625,0.93790625,-0.42703125000000003,-1.20946875,1.1681875,0.01846699033473419,0.02682771726397448,True
61657,161939,0,161939,3472.0,38982.0,28087.0,0.001952,-0.00042699999999999997,0.003721,0.36750000000000005,-1.2075,-3.5175000000000005,0.9863125,0.02453125,-0.53334375,1.187875,0.9461875000000001,-0.43015625,-1.21090625,1.16825,0.01861173114682801,0.026875769291316135,True
61658,161940,0,161940,3472.0,38981.0,28089.0,-0.0015249999999999999,-0.0013419999999999999,-0.000793,0.35000000000000003,-0.8575,-3.5875000000000004,0.98275,0.02303125,-0.534,1.188375,0.94396875,-0.42528125,-1.2111875,1.1676875,0.01835444576508203,0.026860595122700986,True
61659,161941,0,161941,3472.0,38981.0,28087.0,-0.000976,0.002074,-0.000488,0.4025,-0.6825000000000001,-3.7625,0.9859687500000001,0.02109375,-0.53609375,1.1938125,0.9455625,-0.42865625,-1.2080625,1.1616250000000001,0.018410754787218393,0.02665689796667237,True
61660,161942,0,161942,3472.0,38984.0,28090.0,-0.00042699999999999997,-0.001281,-0.000366,0.3325,-0.35000000000000003,-3.6225000000000005,0.99153125,0.0229375,-0.53265625,1.1795,0.9376875,-0.42634375,-1.2091875,1.16225,0.018393307430630095,0.026836693963262406,True
61661,161943,0,161943,3473.0,38983.0,28091.0,-0.00122,-0.001098,-0.001952,0.31500000000000006,-0.1925,-3.8675,0.98665625,0.0244375,-0.53525,1.19303125,0.9429375,-0.428375,-1.2085625,1.167125,0.018536333259989664,0.026709674540148807,True
61662,161944,0,161944,3474.0,38981.0,28089.0,-0.0015249999999999999,-0.0013419999999999999,-0.00183,0.35000000000000003,0.052500000000000005,-3.7975000000000003,0.9918125,0.02203125,-0.5338437500000001,1.187625,0.94021875,-0.42575,-1.20828125,1.16221875,0.018332343940308894,0.026754600732646138,True
61663,161945,0,161945,3473.0,38980.0,28084.0,-0.0025009999999999998,-0.0015249999999999999,-0.0026839999999999998,0.43750000000000006,0.22750000000000004,-3.7275000000000005,0.9854375,0.02475,-0.5334375,1.17771875,0.93890625,-0.42978125,-1.21165625,1.16671875,0.018605620957003043,0.02690099941371365,True
61664,161946,0,161946,3473.0,38978.0,28082.0,-0.0050019999999999995,-0.000366,0.0008539999999999999,0.47250000000000003,0.35000000000000003,-3.7450000000000006,0.98621875,0.0233125,-0.53409375,1.1924375,0.94515625,-0.4271875,-1.2079375,1.1523125,0.018442565276907137,0.026731411484973735,True
61665,161947,0,161947,3473.0,38978.0,28078.0,-0.006405,0.0,0.003172,0.43750000000000006,0.0,-3.8850000000000002,0.9863437500000001,0.02453125,-0.5336875,1.1870625000000001,0.9355,-0.4268125,-1.20771875,1.1615625,0.018477390367654396,0.02673908165529655,True
61666,161948,0,161948,3470.0,38976.0,28077.0,-0.00793,0.001586,0.0018909999999999999,0.42000000000000004,-0.17500000000000002,-3.9550000000000005,0.9908750000000001,0.021812500000000002,-0.53559375,1.19065625,0.94271875,-0.42553125,-1.20909375,1.1610625,0.01831459653513166,0.026716549459458457,True
61667,161949,0,161949,3471.0,38977.0,28075.0,-0.007503,0.002989,-6.1e-05,0.5425000000000001,-0.7525000000000001,-3.99,0.987625,0.0246875,-0.53371875,1.190125,0.93775,-0.42662500000000003,-1.21253125,1.17375,0.018476252859328704,0.02692361561277192,True
61668,161950,0,161950,3469.0,38978.0,28070.0,-0.0040869999999999995,0.003721,6.1e-05,0.6300000000000001,-1.5925000000000002,-3.7625,0.9912500000000001,0.0243125,-0.53378125,1.18828125,0.93571875,-0.42640625,-1.2083125000000001,1.1715,0.01845211061287413,0.02675828657709635,True
61669,161951,0,161951,3467.0,38977.0,28069.0,-0.001952,0.001647,0.00042699999999999997,0.47250000000000003,-2.2575000000000003,-3.6925000000000003,0.9876875,0.02134375,-0.53590625,1.189,0.9470000000000001,-0.4285625,-1.206375,1.159,0.01841722164372136,0.02659917382011495,True
61670,161952,0,161952,3467.0,38974.0,28068.0,0.00183,-0.001403,0.000366,0.10500000000000001,-3.43,-3.6050000000000004,0.98684375,0.03046875,-0.5337500000000001,1.178,0.93496875,-0.428375,-1.210875,1.17065625,0.01878322852011237,0.026858448982829825,True
61671,161953,0,161953,3464.0,38975.0,28065.0,0.0066489999999999995,-0.003172,0.000915,0.10500000000000001,-3.8325000000000005,-3.5000000000000004,0.98346875,0.0138125,-0.54959375,1.2178125,0.94925,-0.431,-1.2108125,1.16853125,0.018206888788833857,0.026227585882049622,True
61672,161954,0,161954,3464.0,38973.0,28065.0,0.009333,-0.001952,0.000915,0.10500000000000001,-4.0075,-3.535,0.9943125,0.031531250000000004,-0.527,1.17778125,0.9375625,-0.42475,-1.20675,1.158875,0.018681102160718124,0.02696698305017505,True
61673,161955,0,161955,3464.0,38972.0,28064.0,0.008845,-0.000915,0.000549,0.10500000000000001,-4.095000000000001,-3.5525,0.97409375,0.02778125,-0.52528125,1.18928125,0.9344687500000001,-0.42453125,-1.20228125,1.17159375,0.018518779147501552,0.02686264760258558,True
61674,161956,0,161956,3464.0,38970.0,28064.0,0.006893,-0.000244,-0.001403,0.15750000000000003,-3.9200000000000004,-3.535,1.00440625,0.02225,-0.528375,1.172125,0.94865625,-0.42184375,-1.20671875,1.158375,0.01818428430490634,0.026911227785250708,True
61675,161957,0,161957,3461.0,38972.0,28062.0,0.006222,0.00042699999999999997,-0.001586,0.4025,-3.5700000000000003,-3.6225000000000005,0.97578125,0.01959375,-0.542875,1.20753125,0.93653125,-0.42446875,-1.20540625,1.16790625,0.018181050509031033,0.02628528353912169,True
61676,161958,0,161958,3460.0,38970.0,28063.0,0.006222,0.0011589999999999999,-0.001281,0.42000000000000004,-3.2725000000000004,-3.535,0.9950625000000001,0.01921875,-0.5278437500000001,1.17665625,0.9254375,-0.4245625,-1.207125,1.15965625,0.01816946567620198,0.026947985936515963,True
61677,161959,0,161959,3460.0,38971.0,28064.0,0.005307,-0.000549,-0.000549,0.47250000000000003,-2.9225000000000003,-3.6050000000000004,0.974375,0.02521875,-0.5388437500000001,1.2081875,0.93790625,-0.42553125,-1.20965625,1.16975,0.018454051024990502,0.02660934736069636,True
61678,161960,0,161960,3459.0,38969.0,28064.0,0.001403,-0.00061,-0.00061,0.5775,-2.415,-3.5875000000000004,0.9945625,0.0231875,-0.5210312500000001,1.1775,0.9388125,-0.42446875,-1.2076875,1.1596875,0.01832818779323501,0.027239954081468204,True
61679,161961,0,161961,3458.0,38967.0,28065.0,-0.000122,0.003172,-0.001769,0.5950000000000001,-1.2775,-3.6925000000000003,0.9781875,0.02621875,-0.53890625,1.213,0.94196875,-0.42984375,-1.21028125,1.1683125,0.018668252841363343,0.02663100000123957,True
61680,161962,0,161962,3458.0,38969.0,28063.0,-0.002013,0.00061,0.000488,0.42000000000000004,-0.7000000000000001,-3.6925000000000003,1.0075,0.02365625,-0.536125,1.1920625,0.9420000000000001,-0.42634375,-1.2085937500000001,1.161375,0.01842273262857852,0.02667617070071591,True
61681,161963,0,161963,3457.0,38967.0,28065.0,-0.004575,-0.002989,0.002257,0.35000000000000003,-0.22750000000000004,-3.535,0.9751562500000001,0.02778125,-0.5280312500000001,1.177,0.93884375,-0.42625,-1.2084062500000001,1.1621875,0.01858784094979786,0.026990004574366937,True
61682,161964,0,161964,3457.0,38969.0,28068.0,-0.004697,-0.00122,0.001647,0.2625,-0.0175,-3.6925000000000003,0.9735,0.02621875,-0.531625,1.20034375,0.93784375,-0.42821875,-1.2105937500000001,1.1689375,0.018602973251989566,0.02693188255433294,True
61683,161965,0,161965,3457.0,38967.0,28070.0,-0.004758,0.00122,-0.000122,0.56,0.12250000000000001,-3.8150000000000004,0.98465625,0.02471875,-0.53425,1.1924062500000001,0.93815625,-0.42659375,-1.2085625,1.1625,0.018476276496799723,0.026749343601008585,True
61684,161966,0,161966,3458.0,38971.0,28070.0,-0.0042699999999999995,0.0025009999999999998,0.000488,0.56,0.17500000000000002,-3.9200000000000004,0.9928125,0.02428125,-0.5344375,1.19390625,0.93759375,-0.4236875,-1.209,1.1621875,0.018341569019829623,0.026758796461581184,True
61685,161967,0,161967,3457.0,38970.0,28071.0,-0.003538,-0.00042699999999999997,0.0013419999999999999,0.42000000000000004,0.17500000000000002,-3.9025000000000003,0.99284375,0.02728125,-0.5280312500000001,1.1915,0.9374375,-0.42603125000000003,-1.20596875,1.16209375,0.018558581840838348,0.02689591131068906,True
61686,161968,0,161968,3456.0,38972.0,28069.0,0.00042699999999999997,-0.0037819999999999998,0.001403,0.28,0.28,-3.7975000000000003,0.99009375,0.02409375,-0.533,1.18828125,0.9384687500000001,-0.42625,-1.2104375,1.16234375,0.018436876311345378,0.02687131074183064,True
61687,161969,0,161969,3458.0,38970.0,28069.0,-0.0006709999999999999,-0.003904,-0.001952,0.17500000000000002,0.28,-3.7975000000000003,0.98671875,0.02421875,-0.533,1.1871875,0.94465625,-0.42884375,-1.21171875,1.169875,0.018546211381781016,0.026920764773325893,True
61688,161970,0,161970,3457.0,38970.0,28071.0,-0.0028669999999999998,-0.000366,-0.001403,0.385,0.36750000000000005,-3.8325000000000005,0.99109375,0.02134375,-0.5359375000000001,1.1936875,0.9393750000000001,-0.42334375,-1.2073125,1.1611562500000001,0.018207478245070356,0.026634136423706413,True
61689,161971,0,161971,3456.0,38972.0,28072.0,0.000366,0.0053679999999999995,-0.002257,0.56,0.2625,-3.8500000000000005,0.9947812500000001,0.021531250000000002,-0.53240625,1.1885000000000001,0.9288125,-0.4263125,-1.2100625,1.16196875,0.0183344804910688,0.026880387543664362,True
61690,161972,0,161972,3458.0,38970.0,28072.0,0.001037,0.000183,-0.000915,0.28,0.08750000000000001,-3.8850000000000002,0.987,0.02478125,-0.53309375,1.18790625,0.9383125,-0.4268125,-1.211625,1.16409375,0.018487625022708138,0.026913427833390346,True
61691,161973,0,161973,3457.0,38971.0,28071.0,-0.000183,-0.003477,0.00061,0.12250000000000001,-0.0175,-3.8150000000000004,0.98709375,0.0245625,-0.53321875,1.18821875,0.94575,-0.42640625,-1.2121875,1.1686875,0.018462345438146472,0.026930180096431538,True
61692,161974,0,161974,3457.0,38972.0,28074.0,-0.003294,-0.003355,0.00183,0.24500000000000002,-0.0175,-3.8325000000000005,0.9870625000000001,0.0251875,-0.53421875,1.18884375,0.941625,-0.4269375,-1.2120625,1.1692500000000001,0.018509278946654693,0.026885692116620764,True
61693,161975,0,161975,3457.0,38974.0,28072.0,-0.005612,0.0,0.0025009999999999998,0.5425000000000001,-0.17500000000000002,-3.7800000000000002,0.98665625,0.02384375,-0.5329375000000001,1.18559375,0.93434375,-0.429375,-1.21140625,1.1676250000000001,0.018552204057615065,0.026911182314552563,True
61694,161976,0,161976,3457.0,38971.0,28075.0,-0.0017079999999999999,0.001464,0.001952,0.5775,-0.8400000000000001,-3.7275000000000005,0.98659375,0.02328125,-0.5338125,1.19075,0.94571875,-0.4288125,-1.21034375,1.1656875,0.018506579065191972,0.026835463122155963,True
61695,161977,0,161977,3457.0,38972.0,28075.0,-0.002745,0.00042699999999999997,0.0013419999999999999,0.45500000000000007,-1.225,-3.6925000000000003,0.9938750000000001,0.02046875,-0.532375,1.19484375,0.93775,-0.425875,-1.20825,1.16215625,0.018273398598821943,0.026811658881516966,True
61696,161978,0,161978,3457.0,38974.0,28075.0,-0.00042699999999999997,0.000549,-0.0008539999999999999,0.42000000000000004,-1.5575,-3.6750000000000003,0.9933125,0.02128125,-0.5359375000000001,1.193,0.93771875,-0.42615625,-1.2085000000000001,1.1616250000000001,0.01831796601235612,0.026679988892635422,True
61697,161979,0,161979,3459.0,38974.0,28077.0,0.0006709999999999999,0.000122,-0.000183,0.43750000000000006,-1.8200000000000003,-3.5875000000000004,0.9901875,0.0236875,-0.5331875,1.18796875,0.937875,-0.426375,-1.20796875,1.16140625,0.01842526776895876,0.026768568966906547,True
61698,161980,0,161980,3458.0,38972.0,28074.0,0.001586,0.000183,-0.0008539999999999999,0.56,-2.0475000000000003,-3.4650000000000003,0.98659375,0.02475,-0.5335,1.18828125,0.9424375,-0.4283125,-1.21134375,1.1671562500000001,0.018546614711924942,0.026886458600605134,True
61699,161981,0,161981,3459.0,38975.0,28077.0,0.005978,0.0018909999999999999,-0.0030499999999999998,0.43750000000000006,-2.31,-3.8325000000000005,0.9868125,0.0249375,-0.533125,1.1905000000000001,0.94275,-0.42765625,-1.20828125,1.165875,0.018527923652110506,0.02678311318825039,True
61700,161982,0,161982,3458.0,38973.0,28079.0,0.006039,-0.000122,-0.002928,0.3325,-2.3975000000000004,-3.7450000000000006,0.994125,0.02234375,-0.53034375,1.19346875,0.938625,-0.42584375,-1.2080625,1.1619375,0.018348905552136762,0.026884999590904696,True
61701,161983,0,161983,3460.0,38972.0,28076.0,0.002379,-0.001037,-0.000305,0.24500000000000002,-2.2225,-3.8500000000000005,0.9805,0.02390625,-0.5326875,1.18890625,0.93321875,-0.425875,-1.20896875,1.16328125,0.018414130507095446,0.026827009732399303,True
61702,161984,0,161984,3459.0,38973.0,28079.0,0.0,-0.002806,0.001281,0.21000000000000002,-2.205,-3.9550000000000005,0.9868125,0.02428125,-0.5333125,1.1875625,0.9400625,-0.42628125,-1.20921875,1.1619375,0.0184458082418911,0.026811868178183824,True
61703,161985,0,161985,3458.0,38972.0,28078.0,0.002074,-0.001769,0.002928,0.21000000000000002,-2.2575000000000003,-3.8150000000000004,0.987,0.0245625,-0.53321875,1.1800625,0.9374375,-0.42625,-1.21121875,1.1681875,0.01845606673148764,0.02689278954433728,True
61704,161986,0,161986,3459.0,38970.0,28080.0,0.003111,-0.000915,0.002989,0.5075000000000001,-1.8025000000000002,-3.8150000000000004,0.987125,0.02415625,-0.53525,1.19284375,0.94234375,-0.42865625,-1.20565625,1.16203125,0.018536119848999062,0.026597452704688062,True
61705,161987,0,161987,3458.0,38971.0,28078.0,0.000305,-6.1e-05,0.000732,0.4025,-1.5750000000000002,-3.7800000000000002,0.99365625,0.0209375,-0.532875,1.18840625,0.9380000000000001,-0.42665625,-1.2094375,1.1656875,0.018323987754156897,0.026837667441012913,True
61706,161988,0,161988,3458.0,38970.0,28079.0,-0.00183,0.001769,-0.00183,0.49000000000000005,-1.2425000000000002,-3.6925000000000003,0.98746875,0.02384375,-0.533375,1.1887812500000001,0.95278125,-0.43203125000000003,-1.2065000000000001,1.16025,0.01865890704441531,0.026704421478586877,True
61707,161989,0,161989,3458.0,38972.0,28079.0,-0.00366,0.001647,-0.0032329999999999998,0.5950000000000001,-1.2600000000000002,-3.7625,0.9903125,0.02053125,-0.53609375,1.1929375,0.936125,-0.42459375,-1.203,1.1486875,0.018224458697496247,0.02646138356544856,True
61708,161990,0,161990,3459.0,38971.0,28081.0,-0.004392,0.00183,-0.004026,0.49000000000000005,-1.3125000000000002,-3.7450000000000006,0.97784375,0.0245,-0.5325,1.1816875,0.943625,-0.4303125,-1.215375,1.175875,0.018616728705373703,0.027081691230053096,True
61709,161991,0,161991,3460.0,38972.0,28082.0,-0.002196,6.1e-05,0.000305,0.47250000000000003,-1.4875,-3.8675,0.9870625000000001,0.02403125,-0.53659375,1.19590625,0.95153125,-0.4303125,-1.20546875,1.156125,0.018597541476393312,0.026536899854322293,True
61710,161992,0,161992,3461.0,38971.0,28084.0,-0.0025009999999999998,0.000732,6.1e-05,0.45500000000000007,-1.435,-3.9200000000000004,0.9868125,0.02453125,-0.5338125,1.19503125,0.938125,-0.43415625,-1.20959375,1.15653125,0.01877238957248626,0.026806510914123716,True
61711,161993,0,161993,3460.0,38972.0,28083.0,-0.001586,0.001403,0.0026839999999999998,0.385,-1.6275000000000002,-3.8325000000000005,0.994375,0.0244375,-0.5300312500000001,1.188125,0.93171875,-0.42621875000000004,-1.21571875,1.17471875,0.01844969352859824,0.02719285961261762,True
61712,161994,0,161994,3461.0,38973.0,28086.0,0.000732,-0.001037,0.0050019999999999995,0.35000000000000003,-1.6625,-3.5700000000000003,0.98609375,0.0235,-0.53453125,1.187125,0.94671875,-0.42884375,-1.20515625,1.16746875,0.01851678919514969,0.026606659103730012,True
61713,161995,0,161995,3462.0,38974.0,28085.0,0.0017079999999999999,-0.001464,0.003355,0.2625,-1.7675,-3.535,0.98678125,0.030125,-0.5365625,1.193375,0.943875,-0.4254375,-1.20534375,1.15515625,0.01865115005616583,0.026533312008490257,True
61714,161996,0,161996,3461.0,38973.0,28085.0,0.0032329999999999998,-0.001769,-0.0018909999999999999,0.35000000000000003,-2.0125,-3.6925000000000003,0.9875625,0.021656250000000002,-0.5333125,1.19471875,0.93109375,-0.4243125,-1.2065937500000001,1.1571875,0.018259214051572586,0.026710520932642878,True
61715,161997,0,161997,3462.0,38973.0,28088.0,0.00244,0.000366,-0.003111,0.525,-1.9425000000000001,-3.6925000000000003,0.9798125,0.021375,-0.53203125,1.1883125,0.93321875,-0.42740625,-1.20784375,1.16584375,0.01837203857859448,0.026809611591630093,True
61716,161998,0,161998,3462.0,38973.0,28087.0,0.003111,-0.000122,-0.0034159999999999998,0.45500000000000007,-1.9425000000000001,-3.8325000000000005,0.98628125,0.024,-0.53334375,1.18328125,0.95203125,-0.4295625,-1.2100625,1.1671562500000001,0.018566132733650063,0.026843200011900013,True
61717,161999,0,161999,3463.0,38971.0,28082.0,0.001098,-0.000244,-0.002989,0.45500000000000007,-1.8900000000000001,-3.8500000000000005,0.99228125,0.0206875,-0.5369375,1.18959375,0.93309375,-0.4239375,-1.2054375,1.157375,0.018204476653283282,0.02652205501293124,True
61718,162000,0,162000,3460.0,38971.0,28081.0,0.000183,-0.000244,-0.0050019999999999995,0.35000000000000003,-1.6275000000000002,-3.8675,0.9935625,0.021531250000000002,-0.53609375,1.1950625,0.9322812500000001,-0.42490625,-1.2064375,1.15840625,0.01827796166054885,0.026594148816150638,True
61719,162001,0,162001,3462.0,38968.0,28076.0,-0.0037819999999999998,0.00061,0.002257,0.385,-1.4175000000000002,-3.6750000000000003,0.9936875000000001,0.02240625,-0.5366562500000001,1.187875,0.93540625,-0.425875,-1.20759375,1.16190625,0.01835272021984883,0.026616483376165165,True
61720,162002,0,162002,3458.0,38967.0,28074.0,-0.00488,-0.000183,0.0055509999999999995,0.35000000000000003,-1.3650000000000002,-3.6050000000000004,0.9869687500000001,0.02371875,-0.53309375,1.1885937500000001,0.9372812500000001,-0.4281875,-1.212875,1.15759375,0.018499377000442626,0.02696167136829893,True
61721,162003,0,162003,3458.0,38964.0,28072.0,-0.003721,-0.000366,0.005612,0.29750000000000004,-1.7675,-3.7450000000000006,0.9876875,0.0221875,-0.53021875,1.19209375,0.947375,-0.42640625,-1.2088125,1.16203125,0.018365114598059222,0.02691890980584667,True
61722,162004,0,162004,3458.0,38964.0,28068.0,-0.001464,0.000488,0.003843,0.3325,-2.1525000000000003,-3.9550000000000005,0.991375,0.02459375,-0.535125,1.18484375,0.9370625,-0.42562500000000003,-1.2081875,1.1618125,0.018432230495637268,0.02670015446370351,True
61723,162005,0,162005,3455.0,38967.0,28066.0,0.001098,0.001464,0.000488,0.43750000000000006,-2.45,-3.9550000000000005,0.98953125,0.0241875,-0.53321875,1.1879375,0.9380000000000001,-0.42603125000000003,-1.20925,1.1615,0.018431923933610785,0.02681679343891627,True
61724,162006,0,162006,3455.0,38964.0,28063.0,0.002623,-0.000366,-0.000305,0.43750000000000006,-2.45,-3.9550000000000005,0.98653125,0.02453125,-0.53621875,1.1927812500000001,0.9423125,-0.42862500000000003,-1.21075,1.16209375,0.018550215167656797,0.0267556994536061,True
61725,162007,0,162007,3455.0,38966.0,28064.0,0.000488,-0.003172,0.00061,0.31500000000000006,-2.3625000000000003,-3.8850000000000002,0.99053125,0.022875,-0.5341875,1.195,0.9383125,-0.42628125,-1.20890625,1.16140625,0.018388237055118654,0.026765094181743807,True
61726,162008,0,162008,3453.0,38965.0,28063.0,0.0030499999999999998,-0.0025009999999999998,-0.0017079999999999999,0.17500000000000002,-2.3625000000000003,-3.8500000000000005,0.99021875,0.0245,-0.52890625,1.188375,0.93834375,-0.42634375,-1.21125,1.16559375,0.018457275252257106,0.02706505032475581,True
61727,162009,0,162009,3453.0,38963.0,28062.0,0.0050019999999999995,-0.00244,-0.00488,0.21000000000000002,-2.3625000000000003,-3.7975000000000003,0.98675,0.0284375,-0.53378125,1.18965625,0.934125,-0.4296875,-1.20971875,1.16384375,0.018752798209146146,0.026812576003054377,True
61728,162010,0,162010,3453.0,38963.0,28062.0,0.0035989999999999998,0.000976,-0.004758,0.15750000000000003,-2.1525000000000003,-3.8325000000000005,0.99490625,0.0283125,-0.53590625,1.19159375,0.9392812500000001,-0.425875,-1.20815625,1.1489375,0.018594523225882387,0.026667955931921835,True
61729,162011,0,162011,3451.0,38965.0,28062.0,0.000549,0.000488,0.001586,0.22750000000000004,-1.5225000000000002,-3.6750000000000003,0.9855,0.02346875,-0.53321875,1.18784375,0.93721875,-0.42753125000000003,-1.21128125,1.15775,0.01846277445658779,0.026895201924733603,True
61730,162012,0,162012,3453.0,38961.0,28062.0,-0.00122,0.000305,0.0034159999999999998,0.29750000000000004,-1.33,-3.7800000000000002,0.9925625,0.02775,-0.5345625,1.18484375,0.9466875,-0.4265625,-1.20865625,1.16178125,0.018599117251966994,0.02674056654646159,True
61731,162013,0,162013,3451.0,38963.0,28063.0,6.1e-05,-0.000122,0.003477,0.35000000000000003,-1.155,-3.9550000000000005,0.9836875,0.0235,-0.5367500000000001,1.18834375,0.9418125,-0.42775,-1.2100625,1.1615,0.01847284338508459,0.026708085313156205,True
61732,162014,0,162014,3449.0,38961.0,28061.0,0.001952,0.0013419999999999999,0.000122,0.36750000000000005,-0.9625000000000001,-3.9375000000000004,0.99259375,0.0280625,-0.532625,1.1855625,0.93853125,-0.426375,-1.2105625,1.162,0.018604377440369274,0.02689101046436389,True
61733,162015,0,162015,3451.0,38960.0,28062.0,-0.002074,0.0,-0.0015249999999999999,0.385,-0.9100000000000001,-3.8675,0.985625,0.02353125,-0.5375625,1.1984375,0.9465,-0.42993750000000003,-1.210875,1.1624375,0.01856201023846254,0.0267072245608294,True
61734,162016,0,162016,3449.0,38962.0,28065.0,-0.005856,-0.000122,-0.001098,0.36750000000000005,-0.665,-3.6750000000000003,0.99565625,0.02471875,-0.53178125,1.179,0.93803125,-0.42578125,-1.208375,1.16146875,0.018443627059011675,0.02684003828092846,True
61735,162017,0,162017,3450.0,38961.0,28065.0,-0.0034159999999999998,0.000915,-0.000793,0.47250000000000003,-0.9800000000000001,-3.9025000000000003,0.98090625,0.02509375,-0.52840625,1.1854375,0.9385,-0.42662500000000003,-1.20925,1.1665625,0.018492884301453846,0.027007695587929034,True
61736,162018,0,162018,3448.0,38964.0,28068.0,-0.000732,0.000366,0.000732,0.525,-1.3125000000000002,-3.9200000000000004,0.9842500000000001,0.02534375,-0.5325625,1.1855625,0.94540625,-0.42921875,-1.2120625,1.1676250000000001,0.01860732857042348,0.02695138487777428,True
61737,162019,0,162019,3449.0,38963.0,28067.0,-0.001281,6.1e-05,-0.0013419999999999999,0.49000000000000005,-1.4000000000000001,-3.8325000000000005,0.98403125,0.02475,-0.5323125,1.1845,0.94440625,-0.42946875,-1.21134375,1.1673125,0.018593067030980768,0.02693356041365308,True
61738,162020,0,162020,3448.0,38962.0,28068.0,-0.001586,-0.0011589999999999999,0.00183,0.36750000000000005,-1.4000000000000001,-3.7275000000000005,0.983875,0.02465625,-0.53240625,1.18559375,0.94225,-0.42678125,-1.2091875,1.1624375,0.018481252006954454,0.026846610982603075,True
61739,162021,0,162021,3448.0,38964.0,28069.0,-0.000976,-0.002074,0.0026839999999999998,0.28,-1.5925000000000002,-3.7275000000000005,0.9782500000000001,0.024375,-0.53009375,1.18584375,0.9430000000000001,-0.427375,-1.2083125000000001,1.16584375,0.01849359581207559,0.026904567689725364,True
61740,162022,0,162022,3449.0,38964.0,28068.0,0.000305,-0.0017079999999999999,0.0034159999999999998,0.22750000000000004,-1.8375000000000001,-3.6925000000000003,0.9860625000000001,0.02434375,-0.53471875,1.1951875,0.94121875,-0.42734375,-1.20909375,1.1651875,0.01849106086289059,0.026751259156232065,True
61741,162023,0,162023,3448.0,38964.0,28070.0,0.001281,-0.001952,0.002013,0.3325,-2.0125,-3.6925000000000003,0.9915625,0.01975,-0.5345625,1.1929687500000001,0.94025,-0.42796875,-1.20771875,1.1611875,0.018328120302675596,0.026704370065220594,True
