frame_seq,absolute_seq_u64,segment_id,sample_seq,PPG_G,PPG_R,PPG_IR,ACC_X,ACC_Y,ACC_Z,GYRO_X,GYRO_Y,GYRO_Z,Uh1,Uh2,Uh3,Uh4,Uc1,Uc2,Uc3,Uc4,UD1,UD2,parser_valid
60752,95498,0,95499,3507.0,38562.0,25279.0,-0.002074,-0.002196,0.002013,0.24500000000000002,-1.3650000000000002,-4.112500000000001,1.0852187500000001,0.04634375,-0.2093125,1.34259375,1.038,-0.36646875,-0.77253125,1.29734375,0.016941827075373818,0.022735615683197492,True
60753,95499,0,95500,3507.0,38566.0,25278.0,-0.00183,-0.0017079999999999999,0.0,0.3325,-1.5050000000000001,-4.1825,1.0924375,0.043937500000000004,-0.20659375,1.34709375,1.036,-0.367875,-0.775,1.2929375,0.016899811739841904,0.022942734611503535,True
60754,95500,0,95501,3508.0,38565.0,25282.0,-6.1e-05,-0.001464,-0.001952,0.5075000000000001,-1.8725000000000003,-4.077500000000001,1.0851875,0.04634375,-0.20971875,1.348125,1.037625,-0.3675625,-0.7728125,1.2981562500000001,0.01698595212385318,0.022730311707643204,True
60755,95501,0,95502,3507.0,38569.0,25281.0,0.000976,-0.001464,-0.00061,0.6300000000000001,-1.9600000000000002,-4.095000000000001,1.0829375,0.04684375,-0.20721875,1.3423125,1.043,-0.36315625,-0.7715625,1.2919375,0.016828689837754502,0.022781919792100317,True
60756,95502,0,95503,3509.0,38570.0,25283.0,-0.0030499999999999998,-0.000305,0.001037,0.5425000000000001,-2.0125,-4.112500000000001,1.0855625,0.043500000000000004,-0.21165625000000002,1.3430625,1.02859375,-0.36903125000000003,-0.7709375,1.29171875,0.016928504287588374,0.022578122043221016,True
60757,95503,0,95504,3509.0,38571.0,25284.0,-0.000793,0.003843,0.0018909999999999999,0.5775,-2.3625000000000003,-3.9200000000000004,1.08559375,0.04621875,-0.21221875,1.35096875,1.03753125,-0.36146875,-0.77425,1.29734375,0.01673493105788213,0.022686105532962655,True
60758,95504,0,95505,3512.0,38571.0,25283.0,0.003538,0.005856,0.001403,0.7000000000000001,-2.5900000000000003,-3.8150000000000004,1.087375,0.044875,-0.207625,1.34109375,1.03696875,-0.3675,-0.7714375,1.2928125,0.01692315584282343,0.022760588682025417,True
60759,95505,0,95506,3512.0,38571.0,25283.0,0.0068319999999999995,0.007137,0.0,0.77,-2.5200000000000005,-3.6575,1.09328125,0.047031250000000004,-0.209875,1.33975,1.04509375,-0.36640625,-0.7725625,1.291625,0.016967520600211613,0.022714141905989742,True
60760,95506,0,95507,3511.0,38570.0,25281.0,0.009455,0.0057339999999999995,-0.000366,0.7875000000000001,-2.1700000000000004,-3.8150000000000004,1.0826875,0.0464375,-0.2071875,1.3526562500000001,1.03703125,-0.3668125,-0.7743125000000001,1.29778125,0.01695954282079365,0.022891654410187975,True
60761,95507,0,95508,3512.0,38572.0,25282.0,0.010675,0.0051849999999999995,-0.00366,0.7525000000000001,-1.5750000000000002,-3.7625,1.09646875,0.04278125,-0.209375,1.34040625,1.046375,-0.37043750000000003,-0.7721250000000001,1.289875,0.01695573786888315,0.022717066057110567,True
60762,95508,0,95509,3512.0,38574.0,25282.0,0.000244,-0.004941,-0.000549,0.2625,0.5075000000000001,-4.077500000000001,1.08353125,0.04240625,-0.21215625,1.34278125,1.030125,-0.3685625,-0.77565625,1.29209375,0.01686471042352211,0.022744099866174084,True
60763,95509,0,95510,3511.0,38577.0,25283.0,-0.008113,-0.008052,-0.000305,0.12250000000000001,1.6975000000000002,-4.025,1.08265625,0.047125,-0.21115625000000002,1.35184375,1.03734375,-0.36646875,-0.7735625,1.29865625,0.016973889579301474,0.022701872207519607,True
60764,95510,0,95511,3513.0,38577.0,25282.0,-0.012627,-0.007503,0.000305,0.0,2.3800000000000003,-4.165,1.08296875,0.047093750000000004,-0.20678125,1.354125,1.0378125,-0.36753125000000003,-0.76934375,1.28759375,0.017015470124820298,0.022712047023853828,True
60765,95511,0,95512,3511.0,38577.0,25282.0,-0.017079999999999998,-0.0062829999999999995,0.002623,-0.0175,2.4675000000000002,-4.1825,1.09340625,0.04621875,-0.20709375,1.34384375,1.0391875,-0.36521875,-0.7711250000000001,1.293625,0.016886263333876286,0.022769706664513625,True
60766,95512,0,95513,3512.0,38576.0,25280.0,-0.014152,-0.0037819999999999998,0.0028669999999999998,0.10500000000000001,1.7850000000000001,-4.235,1.098625,0.04328125,-0.20775000000000002,1.34034375,1.0420625000000001,-0.35965625,-0.7724375,1.2793125,0.016541181692578278,0.022794991409303182,True
60767,95513,0,95514,3513.0,38577.0,25282.0,0.004941,0.00183,-0.002196,0.6475000000000001,-0.31500000000000006,-4.095000000000001,1.0955,0.04,-0.20825,1.3390312500000001,1.04246875,-0.36590625,-0.77159375,1.29265625,0.016658779108616163,0.022741522232496647,True
60768,95514,0,95515,3512.0,38579.0,25283.0,0.0077469999999999995,0.0040869999999999995,-0.002074,0.8400000000000001,-1.1900000000000002,-4.0075,1.0831250000000001,0.04684375,-0.2060625,1.34175,1.0379375,-0.36562500000000003,-0.77225,1.294875,0.016928305758625112,0.02285571556883206,True
60769,95515,0,95516,3512.0,38578.0,25282.0,0.007503,0.005612,6.1e-05,0.9275000000000001,-1.4525000000000001,-3.99,1.0916875,0.041625,-0.20825,1.3450312500000001,1.04153125,-0.3675625,-0.76903125,1.29121875,0.016792303292543113,0.022640419172631144,True
60770,95516,0,95517,3511.0,38578.0,25280.0,0.0068319999999999995,0.0053679999999999995,0.000305,0.8575,-1.61,-4.077500000000001,1.08346875,0.04621875,-0.2081875,1.34275,1.03809375,-0.3666875,-0.77196875,1.29140625,0.01694552244739873,0.02275883906078317,True
60771,95517,0,95518,3513.0,38580.0,25283.0,0.001281,0.004941,0.000305,0.7175,-1.4000000000000001,-4.1825,1.0851250000000001,0.04553125,-0.21128125,1.34915625,1.03821875,-0.36615625,-0.774,1.29925,0.0168958737593255,0.02271408533139582,True
60772,95518,0,95519,3513.0,38580.0,25282.0,-0.010003999999999999,0.002806,0.001098,0.56,-1.6625,-4.48,1.092125,0.04621875,-0.20871875,1.34109375,1.04603125,-0.36884375,-0.762625,1.2925625,0.017032506928031824,0.02236864023906997,True
60773,95519,0,95520,3512.0,38582.0,25283.0,-0.010858,-0.000183,0.002928,0.24500000000000002,-2.2750000000000004,-4.3925,1.08575,0.043250000000000004,-0.2099375,1.3467500000000001,1.03796875,-0.36653125000000003,-0.77940625,1.31703125,0.016817381423545875,0.022981533304495542,True
60774,95520,0,95521,3513.0,38582.0,25281.0,-0.010675,-0.005063,0.002013,-0.10500000000000001,-3.3425000000000002,-4.2700000000000005,1.084875,0.04590625,-0.2035625,1.34153125,1.06325,-0.36975,-0.7744375,1.282125,0.01705623775377261,0.023042904606814987,True
60775,95521,0,95522,3513.0,38583.0,25284.0,-0.007076,-0.005429,0.001647,-0.24500000000000002,-4.69,-4.165,1.0891250000000001,0.04271875,-0.21096875,1.34228125,1.01615625,-0.36790625,-0.779625,1.30075,0.016851057936091658,0.022948541392373775,True
60776,95522,0,95523,3512.0,38584.0,25284.0,0.0032329999999999998,-0.004026,0.0026839999999999998,-0.15750000000000003,-6.072500000000001,-4.0075,1.08528125,0.0460625,-0.2095,1.34746875,1.0296875,-0.3604375,-0.76546875,1.3098125,0.01668689242547471,0.02244935299276336,True
60777,95523,0,95524,3513.0,38583.0,25284.0,0.018239,-0.0044529999999999995,-0.0011589999999999999,0.17500000000000002,-6.930000000000001,-3.5175000000000005,1.0852187500000001,0.04559375,-0.208125,1.334625,1.04915625,-0.36603125000000003,-0.7670625,1.28025,0.01689339539035517,0.022567775245853235,True
60778,95524,0,95525,3514.0,38582.0,25287.0,0.012627,-0.005246,-0.0030499999999999998,0.28,-6.702500000000001,-3.2375000000000003,1.09246875,0.04246875,-0.20859375,1.34153125,1.02415625,-0.36896875,-0.77790625,1.28725,0.016883664804240025,0.022976618534909503,True
60779,95525,0,95526,3514.0,38582.0,25285.0,0.012017,-0.000488,-0.001098,0.1925,-6.282500000000001,-3.3950000000000005,1.0854062500000001,0.04378125,-0.210125,1.3470625,1.0269062500000001,-0.3483125,-0.7722187500000001,1.3125625,0.016103528735307633,0.022690488715307346,True
60780,95526,0,95527,3515.0,38583.0,25288.0,0.012565999999999999,0.0013419999999999999,-0.000732,0.28,-5.5825000000000005,-3.4125000000000005,1.08584375,0.04621875,-0.20815625000000001,1.34615625,1.0491875,-0.370875,-0.77009375,1.27990625,0.01711443475049624,0.022686127298165756,True
60781,95527,0,95528,3515.0,38583.0,25289.0,0.010735999999999999,0.000549,-0.000183,0.28,-4.550000000000001,-3.3425000000000002,1.09040625,0.04521875,-0.2079375,1.339375,1.05653125,-0.36865625,-0.76734375,1.2976875,0.016983907350246283,0.022586445104756138,True
60782,95528,0,95529,3515.0,38583.0,25288.0,0.001464,0.001037,-0.004026,0.6825000000000001,-1.6800000000000002,-3.4475000000000002,1.08528125,0.0455625,-0.21009375,1.3493125000000001,1.0543125,-0.36515625,-0.76659375,1.3075625,0.01685680755689798,0.022469783516354567,True
60783,95529,0,95530,3516.0,38584.0,25288.0,-0.009821,0.004514,-0.000976,0.9625000000000001,-0.1925,-3.6225000000000005,1.08534375,0.0460625,-0.20990625000000002,1.3390312500000001,1.03159375,-0.3634375,-0.771,1.2948125,0.016807973012839424,0.022651235315489883,True
60784,95530,0,95531,3516.0,38584.0,25289.0,-0.017568,0.0037819999999999998,0.003111,0.9450000000000001,0.7175,-3.8500000000000005,1.08578125,0.046625,-0.21,1.3421875,1.0366875,-0.36425,-0.76546875,1.28021875,0.01686384764562833,0.022429163590937485,True
60785,95531,0,95532,3516.0,38585.0,25292.0,-0.014091,0.000793,0.0050019999999999995,0.7875000000000001,0.9275000000000001,-3.9375000000000004,1.08525,0.04334375,-0.209625,1.34446875,1.034,-0.37043750000000003,-0.77453125,1.2914375,0.01697881911229538,0.022801894586804743,True
60786,95532,0,95533,3518.0,38587.0,25296.0,-0.012199999999999999,-0.00042699999999999997,0.002379,0.6475000000000001,0.6475000000000001,-3.9550000000000005,1.08478125,0.046875,-0.2103125,1.34809375,1.03621875,-0.368625,-0.7701250000000001,1.29790625,0.017050613237308217,0.02260030984906213,True
60787,95533,0,95534,3517.0,38586.0,25292.0,-0.005612,0.003111,0.000366,0.6475000000000001,-0.9450000000000001,-4.2525,1.09059375,0.04425,-0.20650000000000002,1.3411250000000001,1.04165625,-0.36715625,-0.7721250000000001,1.29121875,0.01688363819639397,0.02283312392457248,True
60788,95534,0,95535,3518.0,38589.0,25294.0,0.0011589999999999999,0.003172,-0.000549,0.42000000000000004,-1.9250000000000003,-4.1825,1.09125,0.0444375,-0.20803125,1.343,1.04675,-0.36715625,-0.77125,1.2911875,0.016891332980228255,0.022736791643538378,True
60789,95535,0,95536,3517.0,38589.0,25294.0,0.0044529999999999995,0.003294,0.000366,0.42000000000000004,-2.7475,-4.077500000000001,1.0850312500000001,0.04384375,-0.2098125,1.3453125000000001,1.03621875,-0.3678125,-0.76803125,1.2908125,0.01689344293830232,0.022537873291806346,True
60790,95536,0,95537,3519.0,38590.0,25297.0,0.002928,0.006771,0.0017079999999999999,0.4025,-3.4825000000000004,-4.095000000000001,1.08396875,0.046875,-0.2081875,1.3470625,1.0373125,-0.36665625,-0.7739375000000001,1.29803125,0.016971193985633546,0.022836499042592648,True
60791,95537,0,95538,3519.0,38592.0,25295.0,0.0068319999999999995,0.004026,6.1e-05,-0.08750000000000001,-3.99,-4.1825,1.08915625,0.04615625,-0.2078125,1.3441875,1.04075,-0.36690625,-0.77165625,1.2985,0.016951782707334873,0.02276164921350384,True
60792,95538,0,95539,3519.0,38592.0,25297.0,0.008723,-0.012078,-6.1e-05,-0.5075000000000001,-3.6050000000000004,-3.8325000000000005,1.092375,0.04365625,-0.2085625,1.3420625,1.04684375,-0.36696875,-0.77240625,1.2918125,0.016851706267321413,0.02276096009042319,True
60793,95539,0,95540,3520.0,38595.0,25296.0,0.006344,-0.011833999999999999,-0.000976,-0.21000000000000002,-2.975,-3.7275000000000005,1.0959375,0.04246875,-0.20565625,1.335625,1.0362500000000001,-0.36803125000000003,-0.77190625,1.29065625,0.01684584182400866,0.022858555748005868,True
60794,95540,0,95541,3521.0,38592.0,25296.0,0.003965,-0.0042699999999999995,-0.000549,-0.052500000000000005,-1.9600000000000002,-3.9025000000000003,1.10525,0.0405,-0.209,1.33896875,1.0430625,-0.3673125,-0.772,1.29159375,0.01673604752268023,0.02272727272727273,True
60795,95541,0,95542,3520.0,38593.0,25296.0,-0.001281,-6.1e-05,0.0006709999999999999,0.052500000000000005,-1.155,-3.8850000000000002,1.090375,0.0388125,-0.2103125,1.32996875,1.0441875,-0.36884375,-0.77178125,1.29096875,0.016728584014167682,0.022665659135836264,True
60796,95542,0,95543,3519.0,38594.0,25295.0,0.003538,6.1e-05,-0.0048189999999999995,0.28,-0.42000000000000004,-3.6750000000000003,1.07934375,0.041875,-0.21531250000000002,1.3448125,1.04175,-0.3693125,-0.77165625,1.2918125,0.016873167841727172,0.022458883830183945,True
60797,95543,0,95544,3519.0,38594.0,25292.0,0.0017079999999999999,0.003843,-0.004392,0.6475000000000001,1.0675000000000001,-3.8325000000000005,1.079,0.047343750000000004,-0.20590625,1.336375,1.032875,-0.36721875,-0.77175,1.289625,0.017013123420168745,0.02284230020083361,True
60798,95544,0,95545,3518.0,38594.0,25290.0,-0.003965,0.002806,-0.00061,0.805,1.6275000000000002,-3.9200000000000004,1.08153125,0.04246875,-0.21228125,1.35309375,1.04471875,-0.368625,-0.7735,1.2920625000000001,0.0168697967160642,0.02265399519648011,True
60799,95545,0,95546,3516.0,38591.0,25291.0,-0.010797,0.002989,-0.000793,0.9625000000000001,1.5925000000000002,-4.0075,1.08053125,0.047093750000000004,-0.20434375,1.34653125,1.03821875,-0.36703125000000003,-0.76659375,1.29728125,0.016995299745429595,0.02270195109087215,True
60800,95546,0,95547,3516.0,38590.0,25287.0,-0.013542,0.0071979999999999995,0.0018909999999999999,1.12,1.0325000000000002,-4.077500000000001,1.10203125,0.0369375,-0.2100625,1.33878125,1.0431875,-0.3655625,-0.7656875,1.29128125,0.01651921641456051,0.022435274611294354,True
60801,95547,0,95548,3515.0,38588.0,25285.0,-0.012199999999999999,0.004331,0.005795,0.9975,-1.1900000000000002,-4.3925,1.07821875,0.047468750000000004,-0.204375,1.34953125,1.0368125,-0.36878125,-0.7749375000000001,1.2915625,0.017081280993484233,0.02302982600864281,True
60802,95548,0,95549,3514.0,38584.0,25280.0,-0.005978,0.00183,0.001464,0.29750000000000004,-2.765,-4.095000000000001,1.0780625,0.048125,-0.2066875,1.35953125,1.0378125,-0.3691875,-0.7741875,1.292375,0.017124596378110677,0.02290690663417317,True
60803,95549,0,95550,3514.0,38582.0,25278.0,0.003172,-0.001281,0.001586,0.0,-4.41,-4.165,1.08,0.047593750000000004,-0.2106875,1.355,1.03584375,-0.36621875,-0.76678125,1.2948125,0.01698304132642657,0.02245321038639205,True
60804,95550,0,95551,3514.0,38578.0,25274.0,0.011529,-0.003172,0.0,-0.07,-5.617500000000001,-4.0600000000000005,1.0888125,0.047656250000000004,-0.20415625,1.34734375,1.03440625,-0.36675,-0.769375,1.297125,0.017007038279622848,0.022819257651838207,True
60805,95551,0,95552,3512.0,38578.0,25271.0,0.017385,-0.005246,-0.0034159999999999998,0.29750000000000004,-6.142500000000001,-3.8675,1.090125,0.0478125,-0.2070625,1.34775,1.03721875,-0.3666875,-0.7745,1.2948125,0.01701092936822044,0.022904094936325656,True
60806,95552,0,95553,3513.0,38575.0,25270.0,0.014335,-0.006039,-0.0048189999999999995,0.45500000000000007,-4.8475,-3.535,1.0843125,0.04675,-0.20784375,1.34978125,1.03809375,-0.36634375,-0.771875,1.29759375,0.016953456548030522,0.022769017282704678,True
60807,95553,0,95554,3514.0,38573.0,25270.0,0.005307,-0.003294,-0.002928,0.43750000000000006,-3.5000000000000004,-3.7450000000000006,1.0934375,0.04553125,-0.20809375,1.34296875,1.0413125,-0.3668125,-0.77215625,1.2911875,0.01692235084092349,0.02277002027225628,True
60808,95554,0,95555,3513.0,38571.0,25270.0,0.0,-0.001586,0.0018909999999999999,0.36750000000000005,-2.1875,-3.8150000000000004,1.08628125,0.04528125,-0.21131250000000001,1.34234375,1.041125,-0.36996875,-0.7754375,1.2916875,0.017039414545822917,0.022769527278781655,True
60809,95555,0,95556,3512.0,38571.0,25271.0,-0.004026,-0.001952,0.00183,0.4025,-1.12,-3.8500000000000005,1.08496875,0.043875000000000004,-0.21109375,1.34846875,1.038125,-0.36712500000000003,-0.775375,1.29709375,0.01686698779605719,0.022775891384086016,True
60810,95556,0,95557,3514.0,38572.0,25272.0,-0.006588,0.001952,0.0013419999999999999,0.47250000000000003,-0.43750000000000006,-3.8500000000000005,1.0895625,0.0458125,-0.20784375,1.3494375,1.040375,-0.3673125,-0.77125,1.2979375,0.016954064999987174,0.02274436090225564,True
60811,95557,0,95558,3512.0,38573.0,25272.0,-0.009271999999999999,0.0030499999999999998,0.0017079999999999999,0.7000000000000001,-0.22750000000000004,-3.4650000000000003,1.09246875,0.04953125,-0.2074375,1.34434375,1.04265625,-0.36625,-0.767375,1.2955,0.017063817780741803,0.02260786619494395,True
60812,95558,0,95559,3513.0,38573.0,25273.0,-0.009271999999999999,0.003721,0.001464,0.8750000000000001,-0.665,-3.3950000000000005,1.093625,0.04571875,-0.20796875,1.34315625,1.0371875,-0.3675,-0.7720625,1.29259375,0.016957781881604597,0.022771367947259133,True
60813,95559,0,95560,3514.0,38575.0,25275.0,-0.000549,0.005124,-0.0025009999999999998,0.8575,-1.5050000000000001,-3.5175000000000005,1.0918125,0.04596875,-0.20750000000000002,1.34759375,1.04559375,-0.3669375,-0.76753125,1.3003437500000001,0.01694534858966171,0.02261150876714852,True
60814,95560,0,95561,3514.0,38574.0,25274.0,0.0044529999999999995,0.0048189999999999995,-0.000976,0.9100000000000001,-2.1175,-3.6750000000000003,1.09059375,0.043750000000000004,-0.2075625,1.3360625,1.0448125,-0.3645,-0.77171875,1.29175,0.016755935890332245,0.02277420697746296,True
60815,95561,0,95562,3514.0,38574.0,25275.0,0.001403,0.003904,0.002379,0.7175,-2.45,-3.9200000000000004,1.0863125,0.043312500000000004,-0.20996875,1.34190625,1.04403125,-0.36934375,-0.7734375,1.29128125,0.016933416600518843,0.022744875433617154,True
60816,95562,0,95563,3513.0,38576.0,25276.0,0.0017079999999999999,0.000793,0.000244,0.42000000000000004,-2.415,-4.1825,1.0854062500000001,0.04309375,-0.2101875,1.3429375000000001,1.03865625,-0.36884375,-0.77215625,1.2924375000000001,0.016904269411633453,0.02268549997540081,True
60817,95563,0,95564,3514.0,38577.0,25273.0,-0.003965,0.001281,-0.001464,0.21000000000000002,-2.5025000000000004,-4.357500000000001,1.08609375,0.04378125,-0.21134375,1.34428125,1.03759375,-0.36996875,-0.7730625,1.2910625,0.016977863379492433,0.022674578486208557,True
60818,95564,0,95565,3515.0,38578.0,25275.0,-0.002745,-0.000488,-0.001281,0.0175,-2.66,-4.357500000000001,1.08596875,0.0463125,-0.2111875,1.3450625,1.0379375,-0.3660625,-0.77209375,1.293625,0.01692415424117048,0.022642666205798613,True
60819,95565,0,95566,3515.0,38579.0,25277.0,-0.00244,0.000244,0.0013419999999999999,-0.12250000000000001,-2.8525000000000005,-4.375,1.08571875,0.04671875,-0.20846875,1.3485,1.038375,-0.3663125,-0.773,1.298375,0.016950913274218247,0.02278816655229484,True
60820,95566,0,95567,3514.0,38582.0,25280.0,-0.00183,-0.007442,0.0046359999999999995,0.43750000000000006,-2.8875,-3.9375000000000004,1.090625,0.042375,-0.2040625,1.3426875,1.0400625000000001,-0.36684375,-0.77209375,1.291625,0.01679408109636686,0.022930288240169443,True
60821,95567,0,95568,3515.0,38583.0,25280.0,0.01281,-0.006161,-0.003172,0.052500000000000005,-2.8350000000000004,-3.8150000000000004,1.08628125,0.047218750000000004,-0.204375,1.34271875,1.0379375,-0.36609375,-0.77171875,1.29209375,0.016962608132458652,0.02290288194072121,True
60822,95568,0,95569,3515.0,38585.0,25280.0,0.003965,-0.0051849999999999995,-0.0028669999999999998,0.14,-2.6075000000000004,-3.7275000000000005,1.0854375,0.046968750000000004,-0.21003125,1.3461875,1.03925,-0.367875,-0.7726875,1.288125,0.017024207075914496,0.02271276582324788,True
60823,95569,0,95570,3515.0,38586.0,25281.0,0.0011589999999999999,-0.0008539999999999999,-0.0015249999999999999,0.385,-2.1875,-3.535,1.09059375,0.04490625,-0.20796875,1.34265625,1.044375,-0.367,-0.7710312500000001,1.29153125,0.016904266015512783,0.02273068465811249,True
60824,95570,0,95571,3516.0,38586.0,25282.0,0.0044529999999999995,0.005978,0.001281,0.7175,-1.6450000000000002,-3.6225000000000005,1.08603125,0.04678125,-0.2070625,1.3460625,1.03803125,-0.36678125,-0.77078125,1.29821875,0.016972389408223543,0.022757406975203898,True
60825,95571,0,95572,3516.0,38583.0,25280.0,-0.003111,0.004758,0.00183,0.9275000000000001,-0.9100000000000001,-3.5875000000000004,1.08959375,0.0460625,-0.20778125,1.341625,1.04471875,-0.36775,-0.77165625,1.29228125,0.01698197412563737,0.022762910735934342,True
60826,95572,0,95573,3517.0,38583.0,25280.0,-0.007991,0.006527,-0.0042699999999999995,0.8225000000000001,-0.47250000000000003,-3.9200000000000004,1.0851875,0.0461875,-0.207625,1.3456875,1.0382500000000001,-0.3663125,-0.7704062500000001,1.29865625,0.01692911063173798,0.022719903917603288,True
60827,95573,0,95574,3515.0,38583.0,25279.0,-0.013969,0.013908,-0.0006709999999999999,0.9450000000000001,-1.12,-3.9200000000000004,1.0903125,0.05046875,-0.20809375,1.3425,1.04421875,-0.36965625,-0.7716875,1.2909375,0.017239676903526287,0.022751528332496527,True
60828,95574,0,95575,3516.0,38585.0,25276.0,-0.014579,0.013054,0.004148,0.665,-2.3975000000000004,-4.0425,1.09040625,0.0450625,-0.2076875,1.34334375,1.04640625,-0.37065625,-0.7712187500000001,1.289,0.017058168058153956,0.022749435774127993,True
60829,95575,0,95576,3516.0,38583.0,25274.0,0.0025009999999999998,0.005246,-0.003538,-0.052500000000000005,-3.4475000000000002,-4.2700000000000005,1.085875,0.04315625,-0.21028125,1.344375,1.03503125,-0.37109375,-0.774,1.28928125,0.016997595768552653,0.022754450230079923,True
60830,95576,0,95577,3516.0,38584.0,25276.0,0.014029999999999999,-0.008784,0.007137,-0.29750000000000004,-3.0975,-3.9025000000000003,1.0874062500000001,0.039093750000000003,-0.2038125,1.337875,1.04403125,-0.37125,-0.770375,1.289375,0.016837205723957534,0.022872584690381153,True
60831,95577,0,95578,3518.0,38583.0,25274.0,0.009028,-0.014335,-0.00061,-0.14,-3.9550000000000005,-3.2375000000000003,1.07925,0.031281250000000003,-0.203875,1.335,1.04640625,-0.3696875,-0.77075,1.288875,0.016453586037982637,0.022884854112208957,True
60832,95578,0,95579,3517.0,38580.0,25272.0,0.011529,-0.004331,-0.001403,0.28,-4.0425,-3.4125000000000005,1.0833125000000001,0.03925,-0.21106250000000001,1.3311875,1.0501875,-0.371,-0.77075,1.2895625,0.016833531656476962,0.022594693337908624,True
60833,95579,0,95580,3516.0,38584.0,25274.0,0.011467999999999999,-0.002806,0.002928,0.42000000000000004,-3.2900000000000005,-3.2025,1.1093125,0.0498125,-0.20303125,1.3420625,1.0504375,-0.36603125000000003,-0.775875,1.2893125,0.017066536020304907,0.023121030034257115,True
60834,95580,0,95581,3519.0,38582.0,25274.0,0.0025009999999999998,-0.005673,0.005246,0.525,-2.3275,-3.0450000000000004,1.07278125,0.03440625,-0.2029375,1.35934375,1.0386250000000001,-0.3715625,-0.7698125,1.29165625,0.01665747733654746,0.02288572026938032,True
60835,95581,0,95582,3518.0,38582.0,25275.0,-0.000915,-0.00366,-0.0025009999999999998,0.7875000000000001,-1.61,-3.08,1.08375,0.04909375,-0.21859375,1.3312187500000001,1.0364375000000001,-0.36634375,-0.77328125,1.29003125,0.01704964455325802,0.022390554339667863,True
60836,95582,0,95583,3519.0,38583.0,25272.0,-0.005246,0.010003999999999999,-0.003477,1.225,-0.31500000000000006,-3.2025,1.111,0.05040625,-0.21884375,1.330625,1.04978125,-0.3654375,-0.7750312500000001,1.28953125,0.017066951906773684,0.022449517596471246,True
60837,95583,0,95584,3520.0,38583.0,25272.0,-0.00732,0.011712,0.000915,1.1725,-0.14,-3.2725000000000004,1.1055625,0.0471875,-0.20834375,1.36740625,1.047625,-0.36625,-0.772875,1.29846875,0.01696762940542759,0.022788281537770644,True
60838,95584,0,95585,3520.0,38581.0,25274.0,-0.0071979999999999995,0.006771,0.003904,0.665,-0.22750000000000004,-3.43,1.0713125000000001,0.0401875,-0.2048125,1.36071875,1.0362500000000001,-0.36884375,-0.77034375,1.2983437500000001,0.016785008521382965,0.02283098110013108,True
60839,95585,0,95586,3519.0,38580.0,25272.0,-0.006527,-0.001037,0.005063,0.12250000000000001,-0.17500000000000002,-3.22,1.0663125,0.03615625,-0.2064375,1.34853125,1.03671875,-0.36821875,-0.7711250000000001,1.2951875,0.016594360225857707,0.022796199203709965,True
60840,95586,0,95587,3520.0,38581.0,25273.0,-0.0026839999999999998,-0.0042699999999999995,6.1e-05,0.08750000000000001,-0.31500000000000006,-3.0975,1.09078125,0.049625,-0.214125,1.3398125,1.0386875,-0.36628125,-0.77378125,1.28759375,0.01706892593632851,0.022590667300737548,True
60841,95587,0,95588,3520.0,38578.0,25269.0,0.004758,-6.1e-05,-0.004758,0.5075000000000001,-0.7350000000000001,-3.43,1.07196875,0.04953125,-0.212875,1.33509375,1.03759375,-0.36878125,-0.77496875,1.29209375,0.017165917971379875,0.02268797009077963,True
60842,95588,0,95589,3521.0,38579.0,25267.0,0.000549,-0.000915,-0.000183,0.5075000000000001,-0.7175,-3.4475000000000002,1.08675,0.0456875,-0.20490625,1.34803125,1.0463437500000001,-0.37028125,-0.7713125000000001,1.2915,0.01706868893849963,0.022865411350327117,True
60843,95589,0,95590,3521.0,38576.0,25265.0,-0.002379,-0.002562,0.004392,0.6300000000000001,-0.49000000000000005,-3.3425000000000002,1.0901875,0.046875,-0.21156250000000001,1.3435000000000001,1.04503125,-0.36746875,-0.7740625,1.294375,0.01700397173998633,0.022705198228994538,True
60844,95590,0,95591,3524.0,38576.0,25270.0,-0.003721,-0.002257,0.002196,0.7350000000000001,-0.42000000000000004,-3.1850000000000005,1.08578125,0.043812500000000004,-0.2079375,1.3425,1.038375,-0.36846875,-0.7756875,1.29190625,0.016918635890898974,0.02291561031353822,True
60845,95591,0,95592,3523.0,38576.0,25268.0,-0.003538,0.00122,0.001403,0.8575,-0.42000000000000004,-3.1675000000000004,1.0929375000000001,0.04621875,-0.20796875,1.34890625,1.045375,-0.3635625,-0.7654062500000001,1.293875,0.016819430655923163,0.022508716165316286,True
60846,95592,0,95593,3523.0,38577.0,25267.0,0.006344,0.0030499999999999998,-0.003965,0.6125,-0.385,-3.4125000000000005,1.08534375,0.0475,-0.20859375,1.34234375,1.04315625,-0.36678125,-0.77375,1.2918125,0.01700188653353631,0.022812704980069633,True
60847,95593,0,95594,3523.0,38579.0,25268.0,0.006771,0.002928,-0.005246,0.5950000000000001,-0.31500000000000006,-3.6050000000000004,1.09190625,0.04678125,-0.2073125,1.34228125,1.0458125,-0.367,-0.76734375,1.29121875,0.01698121434727295,0.022611679946502136,True
60848,95594,0,95595,3523.0,38581.0,25268.0,0.0044529999999999995,0.0046359999999999995,0.000122,0.385,-0.035,-3.8325000000000005,1.094,0.04684375,-0.20725000000000002,1.3490312500000001,1.04109375,-0.36721875,-0.77240625,1.3000625000000001,0.016992604049241362,0.022813942428382382,True
60849,95595,0,95596,3526.0,38577.0,25267.0,-0.00061,-0.000183,0.0023179999999999997,0.035,0.6475000000000001,-3.8500000000000005,1.08484375,0.045625,-0.20896875,1.347625,1.04028125,-0.3664375,-0.7714375,1.29909375,0.016911068760051606,0.022706342738486613,True
60850,95596,0,95597,3525.0,38582.0,25270.0,-0.005307,-0.006588,0.002562,-0.24500000000000002,1.1900000000000002,-3.8500000000000005,1.08640625,0.047156250000000004,-0.20800000000000002,1.3475,1.03940625,-0.36703125000000003,-0.77453125,1.29809375,0.016997864686532138,0.022867486140630812,True
60851,95597,0,95598,3524.0,38583.0,25270.0,0.000793,-0.003172,-0.00122,0.052500000000000005,2.0125,-3.7275000000000005,1.0851875,0.047125,-0.2071875,1.3498125,1.03778125,-0.35896875,-0.77115625,1.292375,0.016671220944031142,0.02276715484365006,True
60852,95598,0,95599,3524.0,38583.0,25268.0,-0.003965,-0.000976,0.0021349999999999997,0.47250000000000003,2.4325,-3.6750000000000003,1.08209375,0.04528125,-0.2083125,1.3419375,1.04565625,-0.36875,-0.77178125,1.2911875,0.016990253911259297,0.022746396163981948,True
60853,95599,0,95600,3524.0,38581.0,25268.0,-0.006161,-0.001037,0.00244,0.6475000000000001,2.9400000000000004,-3.5000000000000004,1.086375,0.046375,-0.2096875,1.3498125,1.02753125,-0.36665625,-0.77471875,1.299625,0.01695067414102007,0.022806767483485556,True
60854,95600,0,95601,3522.0,38578.0,25266.0,0.002745,-0.00061,0.000122,0.7000000000000001,3.3075,-3.4650000000000003,1.08575,0.04675,-0.20421875,1.3464375,1.0398125,-0.36603125000000003,-0.76765625,1.296375,0.01694084874819325,0.022748922801284436,True
60855,95601,0,95602,3521.0,38579.0,25263.0,0.005063,0.0006709999999999999,-0.0032329999999999998,0.77,3.7100000000000004,-3.6225000000000005,1.093375,0.0455,-0.20696875,1.34625,1.0446875,-0.3663125,-0.7711875,1.2918125,0.01690089544735175,0.022777218492250322,True
60856,95602,0,95603,3520.0,38575.0,25262.0,-0.009089,0.005246,-0.001952,0.8225000000000001,4.550000000000001,-3.7975000000000003,1.08334375,0.04590625,-0.208125,1.34228125,1.0439375,-0.36993750000000003,-0.77234375,1.291125,0.01706380043034579,0.022776155364790624,True
60857,95603,0,95604,3519.0,38577.0,25258.0,-0.014335,0.00732,0.000976,0.805,4.3925,-3.99,1.08565625,0.047218750000000004,-0.2108125,1.3454062500000001,1.0375625,-0.36640625,-0.76490625,1.29665625,0.016975215620891982,0.022374150921730222,True
60858,95604,0,95605,3519.0,38574.0,25258.0,-0.00732,0.003172,0.0,0.43750000000000006,3.8150000000000004,-3.9550000000000005,1.08509375,0.04609375,-0.2098125,1.34971875,1.037875,-0.36621875,-0.77284375,1.29765625,0.016921480687273234,0.02272776011030224,True
60859,95605,0,95606,3519.0,38572.0,25255.0,-0.004514,-0.0006709999999999999,0.002196,0.12250000000000001,2.9925,-3.99,1.085375,0.04634375,-0.20971875,1.3448437500000001,1.0379375,-0.3669375,-0.7703125000000001,1.296,0.016960738295487485,0.022631678546647323,True
60860,95606,0,95607,3519.0,38569.0,25251.0,-0.004148,-0.004331,0.0021349999999999997,0.10500000000000001,2.1700000000000004,-4.0425,1.0855000000000001,0.0426875,-0.21,1.335875,1.03809375,-0.36584375,-0.77240625,1.29165625,0.016766554616028842,0.022702931815515498,True
60861,95607,0,95608,3518.0,38567.0,25247.0,0.007869,-0.0018909999999999999,-0.002623,0.15750000000000003,0.4025,-3.8850000000000002,1.0851250000000001,0.04434375,-0.2050625,1.34190625,1.0379375,-0.36725,-0.77059375,1.291375,0.01689126799290031,0.02283075067588963,True
60862,95608,0,95609,3519.0,38566.0,25243.0,0.012749,-0.001098,-0.0023179999999999997,0.385,0.0175,-3.8325000000000005,1.08640625,0.047375,-0.2103125,1.3485625,1.03840625,-0.36625,-0.7725625,1.304,0.016975324475452726,0.022696481238063282,True
60863,95609,0,95610,3519.0,38562.0,25242.0,0.003111,0.000305,0.0006709999999999999,0.5425000000000001,0.0,-3.7450000000000006,1.08515625,0.05046875,-0.21025,1.336625,1.033375,-0.3675625,-0.7719375,1.29959375,0.017155234545925553,0.022674346728026425,True
60864,95610,0,95611,3518.0,38562.0,25237.0,0.0023179999999999997,-0.000732,-0.0018909999999999999,0.42000000000000004,0.24500000000000002,-3.7625,1.08553125,0.0445625,-0.20875,1.341875,1.0325312500000001,-0.36540625,-0.7769375000000001,1.292375,0.016825853252498097,0.022932111767243232,True
60865,95611,0,95612,3518.0,38563.0,25241.0,-0.010675,0.0021349999999999997,-0.000183,0.525,0.08750000000000001,-3.8150000000000004,1.0915625,0.045625,-0.208375,1.3430625,1.03134375,-0.37040625,-0.7768125,1.28803125,0.017071165976151915,0.022942317539836898,True
60866,95612,0,95613,3519.0,38562.0,25238.0,-0.011773,-6.1e-05,6.1e-05,0.12250000000000001,-0.29750000000000004,-3.8675,1.090125,0.0429375,-0.20734375,1.33640625,1.030875,-0.36971875,-0.77359375,1.28621875,0.016933156029960338,0.022856998694426395,True
60867,95613,0,95614,3517.0,38560.0,25237.0,-0.004758,-0.0018909999999999999,-0.000549,-0.0175,-0.9275000000000001,-3.8325000000000005,1.09290625,0.0471875,-0.209375,1.3469375000000001,1.04971875,-0.36640625,-0.7684375,1.3064375,0.01697393311744525,0.022571569159338372,True
60868,95614,0,95615,3520.0,38563.0,25236.0,-0.000183,-0.0028669999999999998,-0.000793,0.0,-1.54,-3.7975000000000003,1.0861875,0.04853125,-0.21009375,1.34290625,1.03778125,-0.36446875,-0.7688125,1.306625,0.016950913407459377,0.022557349085669733,True
60869,95615,0,95616,3520.0,38563.0,25236.0,0.000366,-0.002013,0.0018909999999999999,0.0,-2.1875,-3.7975000000000003,1.0830312500000001,0.043250000000000004,-0.2071875,1.34771875,1.033,-0.37,-0.77353125,1.2858125,0.0169573245794009,0.022860840640148948,True
60870,95616,0,95617,3518.0,38562.0,25235.0,0.005856,0.000244,0.000244,0.28,-3.325,-3.8675,1.08725,0.047,-0.20834375,1.34403125,1.045,-0.3660625,-0.767375,1.3050625,0.016952369715049362,0.02257127572058,True
60871,95617,0,95618,3519.0,38565.0,25236.0,0.008845,0.0034159999999999998,-0.000366,0.5425000000000001,-3.7975000000000003,-3.7450000000000006,1.08571875,0.04625,-0.20653125,1.3470312500000001,1.0484375,-0.36621875,-0.7682187500000001,1.2903125,0.016927893253851706,0.02267775109988481,True
60872,95618,0,95619,3520.0,38568.0,25235.0,0.011285,0.0021349999999999997,-0.001586,0.56,-4.025,-3.7275000000000005,1.0851250000000001,0.0476875,-0.20946875,1.3486875,1.0538750000000001,-0.36446875,-0.769,1.3039687500000001,0.016916283060758302,0.022589981428398406,True
60873,95619,0,95620,3521.0,38566.0,25234.0,0.011285,0.0006709999999999999,-0.003355,0.47250000000000003,-3.9025000000000003,-3.7450000000000006,1.0855625,0.04659375,-0.2099375,1.34184375,1.04646875,-0.36515625,-0.77225,1.30003125,0.01689913234190731,0.022699290536790158,True
60874,95620,0,95621,3521.0,38564.0,25237.0,0.009699,0.000915,-0.0035989999999999998,0.35000000000000003,-3.4650000000000003,-3.7450000000000006,1.0855000000000001,0.04446875,-0.20934375,1.34821875,1.0305625,-0.36621875,-0.7730625,1.294375,0.01685478999485712,0.02275531133867684,True
60875,95621,0,95622,3522.0,38568.0,25233.0,6.1e-05,-0.00244,-0.000244,-0.0175,-1.8025000000000002,-3.9200000000000004,1.08625,0.0466875,-0.20225,1.3385625,1.0406875,-0.3636875,-0.767875,1.2923125,0.016843714647054146,0.022837041934360536,True
60876,95622,0,95623,3521.0,38566.0,25235.0,-0.007137,-0.002989,0.002013,-0.10500000000000001,-0.9100000000000001,-4.0075,1.09125,0.0469375,-0.20671875,1.3471250000000001,1.04359375,-0.3681875,-0.7720625,1.29403125,0.017035530443123847,0.022821828016944493,True
60877,95623,0,95624,3521.0,38567.0,25233.0,-0.011529,-0.001403,0.003965,0.035,-0.15750000000000003,-3.9725000000000006,1.0879375,0.0464375,-0.20975,1.34296875,1.04278125,-0.36596875,-0.77453125,1.29465625,0.016925501884672654,0.02279684908266428,True
60878,95624,0,95625,3522.0,38565.0,25234.0,-0.011956,-0.0015249999999999999,0.0051849999999999995,0.10500000000000001,0.36750000000000005,-4.2,1.0851875,0.043937500000000004,-0.2073125,1.34034375,1.0386875,-0.368125,-0.76484375,1.29134375,0.016909897663443536,0.02251301302880217,True
60879,95625,0,95626,3522.0,38564.0,25232.0,-0.007137,-0.003904,0.001037,0.035,0.49000000000000005,-4.2700000000000005,1.0924375,0.04625,-0.20715625000000001,1.3430312500000001,1.04378125,-0.36775,-0.77246875,1.291125,0.016989668721978844,0.02282019227494232,True
60880,95626,0,95627,3522.0,38562.0,25233.0,-0.0044529999999999995,0.0025009999999999998,-0.003294,0.5775,-0.052500000000000005,-4.077500000000001,1.0910625,0.043312500000000004,-0.20765625000000001,1.3431250000000001,1.04440625,-0.3683125,-0.7724375,1.2921875,0.01689181390791833,0.022798775857240532,True
60881,95627,0,95628,3523.0,38563.0,25233.0,-0.0023179999999999997,0.005307,-0.001586,0.8575,-0.7350000000000001,-3.8675,1.086,0.04640625,-0.208625,1.3448437500000001,1.03809375,-0.36575,-0.77528125,1.29278125,0.016915393533956477,0.022871839245013622,True
60882,95628,0,95629,3522.0,38562.0,25232.0,0.00042699999999999997,0.005124,0.000793,0.8750000000000001,-1.5750000000000002,-3.8150000000000004,1.08603125,0.05009375,-0.20734375,1.341875,1.0376875,-0.366375,-0.77175,1.29184375,0.017091945355023057,0.02278427038864836,True
60883,95629,0,95630,3524.0,38562.0,25235.0,0.004209,0.001037,0.000549,0.77,-2.345,-3.7100000000000004,1.0890625,0.04875,-0.21090625000000002,1.34609375,1.03278125,-0.36703125000000003,-0.7750312500000001,1.29521875,0.017063270684646907,0.022769900643414928,True
60884,95630,0,95631,3524.0,38562.0,25232.0,0.007259,-0.0008539999999999999,0.000549,0.6125,-2.8875,-3.5875000000000004,1.08609375,0.0464375,-0.20734375,1.3428437500000001,1.03078125,-0.36740625,-0.77178125,1.29228125,0.016983496140464273,0.022785503161990014,True
60885,95631,0,95632,3525.0,38563.0,25235.0,0.008296,-0.000549,-0.000915,0.665,-3.1675000000000004,-3.7800000000000002,1.07675,0.0458125,-0.2103125,1.352,1.037625,-0.36890625,-0.77390625,1.2963437500000001,0.017018357153390912,0.022749490706577613,True
60886,95632,0,95633,3526.0,38561.0,25233.0,0.00549,-0.000915,-0.000122,0.47250000000000003,-2.8000000000000003,-3.8150000000000004,1.08328125,0.048,-0.2065625,1.35215625,1.0385,-0.3666875,-0.77109375,1.29553125,0.01701862430008182,0.02278992020689438,True
60887,95633,0,95634,3527.0,38562.0,25235.0,0.001647,-0.00366,0.001952,0.43750000000000006,-2.24,-3.9375000000000004,1.08959375,0.0470625,-0.20559375,1.35453125,1.04209375,-0.3665,-0.77115625,1.2965312500000001,0.016972585311801038,0.022831493786245848,True
60888,95634,0,95635,3527.0,38562.0,25236.0,-0.0025009999999999998,-0.0023179999999999997,0.001586,0.5950000000000001,-1.225,-3.9550000000000005,1.0871250000000001,0.04840625,-0.20553125,1.3479375,1.0335625,-0.36112500000000003,-0.77146875,1.2983437500000001,0.01681085130510188,0.02284634414340086,True
60889,95635,0,95636,3525.0,38564.0,25238.0,-0.00976,0.00122,0.000793,0.6475000000000001,-0.385,-3.8325000000000005,1.0905,0.040875,-0.2065625,1.33421875,1.0442500000000001,-0.3680625,-0.7715,1.29171875,0.01678169940675423,0.022805946349635668,True
60890,95636,0,95637,3527.0,38566.0,25240.0,-0.015493999999999999,0.003294,-0.003111,0.7525000000000001,-0.8750000000000001,-3.6750000000000003,1.0840625,0.04275,-0.208875,1.34015625,1.03771875,-0.3685,-0.77278125,1.2925,0.01687629521718612,0.02276313847481295,True
60891,95637,0,95638,3527.0,38564.0,25241.0,-0.010248,0.003111,-0.0008539999999999999,0.77,-2.205,-3.4475000000000002,1.0834062500000001,0.05278125,-0.20903125,1.35353125,1.037875,-0.3604375,-0.7721250000000001,1.2975,0.016962698227402526,0.02273094254126362,True
60892,95638,0,95639,3528.0,38568.0,25243.0,-0.0034159999999999998,0.0026839999999999998,0.000793,0.7175,-3.6225000000000005,-3.2900000000000005,1.07215625,0.04684375,-0.20609375,1.3410312500000001,1.0380625,-0.36534375,-0.772,1.29184375,0.016916958128284153,0.022844592685289846,True
60893,95639,0,95640,3529.0,38568.0,25244.0,0.003538,0.0023179999999999997,0.001647,0.5075000000000001,-5.197500000000001,-3.2375000000000003,1.0846875,0.04340625,-0.20659375,1.349625,1.0405625,-0.36715625,-0.7740625,1.29575,0.016849011669139685,0.022905760813350655,True
60894,95640,0,95641,3528.0,38569.0,25243.0,0.010248,-0.000305,-0.000793,0.47250000000000003,-6.352500000000001,-3.1850000000000005,1.0786875,0.0468125,-0.2065625,1.34028125,1.0385625,-0.36503125000000003,-0.77134375,1.29209375,0.016903066767049602,0.022799782510789308,True
60895,95641,0,95642,3528.0,38568.0,25244.0,0.017506999999999998,-0.0013419999999999999,-0.001098,0.29750000000000004,-7.3500000000000005,-3.5525,1.08625,0.04634375,-0.20903125,1.3488437500000001,1.0424375000000001,-0.36828125,-0.77265625,1.2950625,0.017014946427540926,0.022751900091456684,True
60896,95642,0,95643,3528.0,38571.0,25246.0,0.012139,-0.002013,-0.0018909999999999999,0.385,-7.052500000000001,-3.7275000000000005,1.0908125,0.04415625,-0.2061875,1.34240625,1.04259375,-0.367375,-0.77209375,1.29209375,0.016888616438988608,0.022844506229918498,True
60897,95643,0,95644,3528.0,38570.0,25250.0,0.0046359999999999995,-0.001037,0.000793,0.525,-6.352500000000001,-3.8150000000000004,1.0863125,0.047406250000000004,-0.20928125,1.34934375,1.03875,-0.36559375,-0.774,1.29934375,0.016950130755586452,0.022794815128764027,True
60898,95644,0,95645,3528.0,38573.0,25249.0,-0.000732,-0.000732,-0.002013,0.45500000000000007,-5.477500000000001,-3.9375000000000004,1.0880625,0.04625,-0.2068125,1.342875,1.04403125,-0.36625,-0.7721250000000001,1.29275,0.016929154055301904,0.022820508938978797,True
60899,95645,0,95646,3530.0,38575.0,25252.0,-0.002013,-0.001952,-0.00042699999999999997,0.45500000000000007,-4.8825,-3.99,1.08534375,0.04425,-0.20928125,1.3489375000000001,1.03803125,-0.365875,-0.7710625,1.28884375,0.016831942214264827,0.022678932322745544,True
60900,95646,0,95647,3529.0,38577.0,25257.0,-0.005673,0.002806,0.0044529999999999995,0.385,-4.112500000000001,-4.0425,1.0924375,0.04825,-0.20771875,1.347875,1.0645625,-0.36584375,-0.7715,1.284,0.01699484549965564,0.02275926972528914,True
60901,95647,0,95648,3530.0,38578.0,25263.0,-0.002196,0.001769,0.0015249999999999999,0.24500000000000002,-4.130000000000001,-4.077500000000001,1.0916875,0.04665625,-0.20659375,1.341625,1.0559687500000001,-0.37503125,-0.7702187500000001,1.28025,0.017299977820541258,0.022754138979898995,True
60902,95648,0,95649,3530.0,38582.0,25262.0,0.0037819999999999998,-0.002074,0.001098,0.035,-3.99,-3.9550000000000005,1.0933125000000001,0.0429375,-0.2076875,1.336375,1.0385312500000001,-0.37471875,-0.7817500000000001,1.2934375,0.01713481309399724,0.023164728076104393,True
60903,95649,0,95650,3530.0,38581.0,25267.0,0.006039,-0.0018909999999999999,-6.1e-05,-0.035,-3.9375000000000004,-3.8500000000000005,1.085875,0.0456875,-0.20784375,1.342625,1.0256875,-0.361,-0.78025,1.30328125,0.016694203850416648,0.02309929278356756,True
60904,95650,0,95651,3530.0,38584.0,25269.0,0.003111,-0.000183,-0.002928,-0.0175,-3.7100000000000004,-4.025,1.08575,0.047093750000000004,-0.20959375,1.3461875,1.02759375,-0.36190625,-0.77465625,1.3118125,0.016788505620326816,0.02280808638868602,True
60905,95651,0,95652,3532.0,38584.0,25272.0,-0.0018909999999999999,0.00061,0.000549,0.035,-3.4475000000000002,-4.112500000000001,1.08546875,0.0466875,-0.20753125,1.34975,1.0475,-0.3596875,-0.76709375,1.3035625,0.016682274762350707,0.02259298186732143,True
60906,95652,0,95653,3531.0,38588.0,25274.0,-0.002928,-0.000793,0.001586,0.22750000000000004,-3.2900000000000005,-4.0075,1.08571875,0.04684375,-0.2095625,1.348875,1.0511875,-0.36296875,-0.7660625,1.3079375,0.016821123246730758,0.022470265509505195,True
60907,95653,0,95654,3531.0,38587.0,25275.0,-0.0026839999999999998,-0.000915,0.003721,0.15750000000000003,-2.8525000000000005,-3.99,1.08896875,0.047218750000000004,-0.20540625,1.3430625,1.0625625,-0.3705625,-0.7694375,1.2809062500000001,0.017142864470198423,0.022771257926224607,True
60908,95654,0,95655,3531.0,38588.0,25277.0,0.001037,-0.0017079999999999999,0.00042699999999999997,0.1925,-2.6950000000000003,-4.112500000000001,1.081875,0.0471875,-0.20846875,1.35053125,1.021875,-0.369375,-0.77190625,1.30725,0.0170936882870406,0.02274501987508531,True
60909,95655,0,95656,3531.0,38590.0,25278.0,0.005063,0.000732,-0.0037819999999999998,0.45500000000000007,-2.6250000000000004,-3.99,1.0912187500000001,0.04509375,-0.20734375,1.34334375,1.05759375,-0.37796875,-0.77053125,1.2801875,0.017354296592081733,0.02273618980214645,True
60910,95656,0,95657,3530.0,38592.0,25281.0,-0.002196,0.003355,-0.001952,0.5950000000000001,-2.0825,-4.2,1.090875,0.04440625,-0.20475000000000002,1.3430312500000001,1.0321875,-0.37053125000000003,-0.771875,1.2844375000000001,0.017026198392782268,0.02289390690046676,True
60911,95657,0,95658,3530.0,38593.0,25283.0,-0.0028669999999999998,0.00061,0.00061,0.49000000000000005,-2.2225,-4.1825,1.08865625,0.04525,-0.20703125,1.3433125000000001,1.03928125,-0.36775,-0.76984375,1.28965625,0.016948630874824306,0.022721681480126415,True
60912,95658,0,95659,3530.0,38594.0,25285.0,-0.002379,0.000976,0.0042699999999999995,0.17500000000000002,-2.3975000000000004,-4.165,1.0888125,0.0456875,-0.20434375,1.3474375,1.0455625,-0.36684375,-0.7724375,1.3006875,0.01693002402085826,0.02293249301769356,True
60913,95659,0,95660,3528.0,38596.0,25287.0,-0.004392,0.00042699999999999997,0.003355,0.0175,-2.6950000000000003,-3.9725000000000006,1.0914375,0.0460625,-0.208375,1.34246875,1.04540625,-0.36659375,-0.7721875,1.29171875,0.01693532769634656,0.022759899584968022,True
60914,95660,0,95661,3528.0,38594.0,25284.0,-0.002928,-0.004331,0.000732,0.0175,-3.1500000000000004,-3.7450000000000006,1.0861875,0.051437500000000004,-0.209125,1.34265625,1.03803125,-0.36853125000000003,-0.7751875,1.2915625,0.01723406083409315,0.02284796028284347,True
60915,95661,0,95662,3527.0,38592.0,25284.0,0.005856,-0.0025009999999999998,0.000549,0.10500000000000001,-3.43,-3.8500000000000005,1.08628125,0.0466875,-0.205875,1.3396875,1.03775,-0.3660625,-0.77490625,1.29340625,0.01693954449964987,0.022968048567287715,True
60916,95662,0,95663,3528.0,38589.0,25280.0,0.011467999999999999,-0.0017079999999999999,-0.001464,0.17500000000000002,-2.975,-3.8325000000000005,1.08725,0.047125,-0.207125,1.3394062500000001,1.0355,-0.36596875,-0.77240625,1.29753125,0.016953717467112817,0.02281898836533088,True
60917,95663,0,95664,3528.0,38588.0,25278.0,0.009516,0.001586,-0.004758,0.36750000000000005,-2.3800000000000003,-3.7625,1.0900625,0.0460625,-0.2076875,1.34259375,1.0326875,-0.366,-0.77190625,1.29134375,0.016911372404169744,0.022776557617563243,True
60918,95664,0,95665,3527.0,38585.0,25278.0,0.004941,0.007625,-0.004575,0.36750000000000005,-1.6625,-3.8500000000000005,1.0860625,0.0469375,-0.20621875,1.34359375,1.038375,-0.36759375,-0.7724375,1.2941562500000001,0.017011579159308662,0.02285680405894656,True
60919,95665,0,95666,3525.0,38583.0,25278.0,0.004148,0.004514,-0.002196,0.28,-0.7525000000000001,-4.0600000000000005,1.08609375,0.0470625,-0.20634375,1.354125,1.0390625,-0.36421875,-0.773625,1.29940625,0.01688054331723647,0.02289859679396939,True
60920,95666,0,95667,3527.0,38585.0,25281.0,-0.007991,-0.0017079999999999999,0.0053679999999999995,0.6300000000000001,0.45500000000000007,-4.095000000000001,1.09190625,0.046875,-0.20428125,1.34353125,1.041,-0.36571875,-0.76928125,1.2959375,0.016933370783490637,0.022810512517394913,True
60921,95667,0,95668,3527.0,38586.0,25281.0,-0.008113,0.002623,0.00366,0.42000000000000004,0.665,-4.340000000000001,1.07659375,0.0480625,-0.2063125,1.35496875,1.04515625,-0.36665625,-0.7740625,1.29803125,0.017019928616590553,0.022917113412465155,True
60922,95668,0,95669,3528.0,38589.0,25285.0,-0.010431,0.0006709999999999999,0.001464,0.3325,0.6475000000000001,-4.2525,1.10290625,0.0413125,-0.20553125,1.33821875,1.04,-0.36190625,-0.7710625,1.2985,0.01655119865671431,0.022830318642973028,True
60923,95669,0,95670,3526.0,38590.0,25286.0,-0.009211,-0.001464,0.000976,0.31500000000000006,0.45500000000000007,-4.130000000000001,1.0967500000000001,0.04209375,-0.20825,1.33821875,1.04484375,-0.3615,-0.77115625,1.2915,0.016566867803706666,0.02272426221525287,True
60924,95670,0,95671,3527.0,38590.0,25288.0,0.00366,-0.0017079999999999999,-0.003355,0.2625,-0.052500000000000005,-4.0600000000000005,1.0739375,0.0398125,-0.20978125,1.33821875,1.04296875,-0.36296875,-0.7682187500000001,1.2915625,0.01653251925629958,0.022546534558525733,True
60925,95671,0,95672,3528.0,38597.0,25290.0,0.0026839999999999998,-0.0011589999999999999,-0.0008539999999999999,0.28,-0.7000000000000001,-3.8500000000000005,1.07978125,0.0474375,-0.21134375,1.35128125,1.03884375,-0.36878125,-0.7681250000000001,1.28684375,0.01707999861503127,0.022479749678265916,True
60926,95672,0,95673,3528.0,38597.0,25294.0,-6.1e-05,-0.002013,0.002989,0.2625,-0.5075000000000001,-3.9025000000000003,1.091,0.055906250000000005,-0.20428125,1.34753125,1.038,-0.3623125,-0.77390625,1.29965625,0.017166627757525067,0.022992942423038357,True
60927,95673,0,95674,3526.0,38598.0,25294.0,0.001281,-0.003294,0.001281,0.22750000000000004,-0.31500000000000006,-3.8500000000000005,1.10115625,0.0396875,-0.20703125,1.33746875,1.0295625,-0.36553125000000003,-0.76959375,1.29125,0.016630819408052104,0.022711817790713663,True
60928,95674,0,95675,3529.0,38603.0,25297.0,-0.002257,-0.002379,0.00042699999999999997,0.31500000000000006,-0.4025,-3.8675,1.080125,0.04496875,-0.21221875,1.343875,1.04609375,-0.368375,-0.7722187500000001,1.29259375,0.016962302574545902,0.022605968631695537,True
60929,95675,0,95676,3529.0,38604.0,25298.0,-0.0070149999999999995,0.0032329999999999998,-0.002806,0.4025,-0.9275000000000001,-3.7100000000000004,1.067,0.048875,-0.2054375,1.35609375,1.02515625,-0.36640625,-0.77290625,1.29803125,0.017043188303568563,0.02290682991625175,True
60930,95676,0,95677,3528.0,38606.0,25302.0,-0.007625,0.007991,6.1e-05,0.7350000000000001,-2.1,-3.7100000000000004,1.0875625,0.047656250000000004,-0.2053125,1.3276875000000001,1.03771875,-0.36646875,-0.766,1.29440625,0.016995692081972283,0.022639404829201328,True
60931,95677,0,95678,3528.0,38608.0,25306.0,-0.005063,0.00732,0.0023179999999999997,0.7875000000000001,-3.5700000000000003,-3.6575,1.0789375,0.0455,-0.20653125,1.350125,1.0442500000000001,-0.36946875,-0.7740312500000001,1.2925312500000001,0.01702822307113281,0.022907051108204287,True
60932,95678,0,95679,3530.0,38609.0,25306.0,-0.00183,0.007137,-0.0006709999999999999,0.6125,-5.1450000000000005,-3.43,1.08790625,0.04659375,-0.20203125,1.342375,1.03809375,-0.3656875,-0.77159375,1.2915625,0.01692056708845174,0.02299256582956032,True
60933,95679,0,95680,3529.0,38610.0,25310.0,0.007503,0.002745,-0.0023179999999999997,0.4025,-6.772500000000001,-3.2375000000000003,1.085,0.043812500000000004,-0.20953125,1.35,1.04390625,-0.3676875,-0.7730625,1.295625,0.016887117417276463,0.022747742633757936,True
60934,95680,0,95681,3528.0,38610.0,25308.0,0.024522,-0.009882,-0.0034159999999999998,-0.29750000000000004,-7.280000000000001,-3.2725000000000004,1.08534375,0.047,-0.199875,1.3435625,1.0363125,-0.3658125,-0.77059375,1.29646875,0.01694228337347667,0.02304017238181866,True
60935,95681,0,95682,3530.0,38613.0,25310.0,0.018361,-0.009577,-0.0017079999999999999,-0.1925,-6.142500000000001,-3.325,1.0931250000000001,0.0465625,-0.20715625000000001,1.34315625,1.0463437500000001,-0.3660625,-0.76346875,1.29165625,0.016934414413490074,0.022465047429997057,True
60936,95682,0,95683,3530.0,38616.0,25313.0,0.008601,-0.0037819999999999998,-0.000305,-0.052500000000000005,-4.585000000000001,-3.6225000000000005,1.08278125,0.047125,-0.2103125,1.34334375,1.03871875,-0.36575,-0.7736875,1.287,0.016944891907698306,0.022740861650087412,True
60937,95683,0,95684,3530.0,38616.0,25312.0,0.00549,-0.001647,0.002013,0.14,-3.1850000000000005,-3.8500000000000005,1.08628125,0.04565625,-0.20800000000000002,1.34265625,1.0369375,-0.3631875,-0.772,1.29171875,0.016781209355302956,0.02276764088487002,True
60938,95684,0,95685,3530.0,38619.0,25316.0,0.00122,-0.0023179999999999997,0.004758,0.29750000000000004,-1.33,-4.130000000000001,1.08615625,0.047093750000000004,-0.2114375,1.34653125,1.0365312500000001,-0.367375,-0.773875,1.2860625,0.017009166970180414,0.022702847253407064,True
60939,95685,0,95686,3530.0,38619.0,25320.0,-0.007686,0.00366,-0.002074,0.665,2.7825,-4.2525,1.0865625,0.047156250000000004,-0.20871875,1.35053125,1.03740625,-0.36612500000000003,-0.7745625,1.2959375,0.016961303859353922,0.022839707058399113,True
60940,95686,0,95687,3532.0,38624.0,25325.0,-0.008418,0.004575,-0.004697,0.665,4.0600000000000005,-4.585000000000001,1.08625,0.0471875,-0.20840625000000002,1.3499375,1.03821875,-0.3655,-0.773875,1.2905312500000001,0.016937370462334036,0.022825203969907816,True
60941,95687,0,95688,3531.0,38625.0,25324.0,-0.018239,-0.000488,-0.001098,0.5950000000000001,4.532500000000001,-4.6375,1.08615625,0.046906250000000003,-0.2079375,1.35109375,1.037875,-0.36540625,-0.77446875,1.29296875,0.016922044958720933,0.022867543829774354,True
60942,95688,0,95689,3532.0,38624.0,25325.0,-0.020739999999999998,-0.001281,0.001952,0.5075000000000001,4.305000000000001,-4.6725,1.0900625,0.046625,-0.20665625,1.35025,1.03878125,-0.36590625,-0.76453125,1.2996875,0.01693067541864978,0.0225271778564353,True
60943,95689,0,95690,3532.0,38625.0,25329.0,-0.016897,0.005612,0.0026839999999999998,0.5075000000000001,2.975,-4.865,1.0873125000000001,0.0474375,-0.20750000000000002,1.34784375,1.04115625,-0.36562500000000003,-0.77078125,1.28990625,0.016952674105425166,0.022739745037310844,True
60944,95690,0,95691,3531.0,38627.0,25331.0,-0.003355,0.002196,0.003538,0.7175,-1.05,-4.322500000000001,1.09175,0.04678125,-0.2070625,1.34234375,1.04675,-0.3663125,-0.7714375,1.28728125,0.016953478290980633,0.022783296286297473,True
60945,95691,0,95692,3535.0,38628.0,25330.0,0.00366,-0.0025009999999999998,0.0021349999999999997,0.6300000000000001,-2.7125000000000004,-3.9725000000000006,1.091375,0.04609375,-0.20409375,1.3435625,1.04203125,-0.3696875,-0.7719375,1.2921875,0.017061410820306988,0.022922863825245807,True
60946,95692,0,95693,3533.0,38628.0,25330.0,0.009394,-0.003172,-0.001281,0.5075000000000001,-3.8500000000000005,-3.7975000000000003,1.0856875,0.0473125,-0.20725000000000002,1.34271875,1.03921875,-0.36109375,-0.771625,1.2939687500000001,0.016764692677232525,0.022783123836244087,True
60947,95693,0,95694,3532.0,38629.0,25334.0,0.014335,-0.003111,-0.002013,0.45500000000000007,-4.2175,-3.6750000000000003,1.08528125,0.047125,-0.20825,1.3408125,1.040125,-0.3661875,-0.770875,1.292125,0.016962542868062556,0.022713166167929066,True
60948,95694,0,95695,3535.0,38632.0,25337.0,0.012322,-0.002379,0.001403,0.47250000000000003,-3.99,-3.7450000000000006,1.08928125,0.04425,-0.20425000000000001,1.34765625,1.0439687500000001,-0.36878125,-0.77271875,1.299,0.016949196012828915,0.022947370280058582,True
60949,95695,0,95696,3535.0,38633.0,25335.0,0.008662,0.0046359999999999995,0.000122,0.22750000000000004,-2.1875,-3.8150000000000004,1.08353125,0.04615625,-0.20684375,1.34365625,1.0381562500000001,-0.3656875,-0.7721250000000001,1.29265625,0.016902611510551467,0.022819247440419427,True
60950,95696,0,95697,3534.0,38633.0,25338.0,0.000488,0.006039,-0.003965,-0.08750000000000001,-1.1375000000000002,-3.6575,1.0901875,0.0458125,-0.20984375,1.3426875,1.036375,-0.3665625,-0.77409375,1.293,0.01692380695881908,0.02277580789408291,True
60951,95697,0,95698,3535.0,38636.0,25339.0,-0.006954,0.001647,-0.003721,-0.14,-0.8400000000000001,-3.4825000000000004,1.086375,0.047156250000000004,-0.20625000000000002,1.34459375,1.03125,-0.367,-0.7740312500000001,1.29284375,0.016996604013624985,0.022918403721638964,True
60952,95698,0,95699,3536.0,38636.0,25340.0,-0.0050019999999999995,-0.004209,-0.001952,-0.14,-0.665,-3.3775000000000004,1.08515625,0.047375,-0.20550000000000002,1.3446875,1.038,-0.367375,-0.77528125,1.2923437500000001,0.017020709042315802,0.02299797303007408,True
60953,95699,0,95700,3536.0,38634.0,25339.0,0.002562,-0.005063,-0.002806,-0.1925,-0.8575,-3.43,1.0864375,0.046968750000000004,-0.20746875,1.34575,1.037625,-0.36534375,-0.77134375,1.3008125,0.016922088365775672,0.022763197898781732,True
60954,95700,0,95701,3537.0,38634.0,25340.0,0.006588,0.000122,-6.1e-05,0.17500000000000002,-0.805,-3.7100000000000004,1.0898125,0.047281250000000004,-0.20859375,1.3434062500000001,1.05009375,-0.37025,-0.7765625,1.27790625,0.017132825884018425,0.022923629942612097,True
60955,95701,0,95702,3536.0,38633.0,25340.0,0.003904,-0.000183,0.002196,0.47250000000000003,-0.15750000000000003,-3.7800000000000002,1.0863125,0.048,-0.2066875,1.349,1.03759375,-0.36371875000000004,-0.77125,1.30290625,0.016898846773955638,0.02279103799767876,True
60956,95702,0,95703,3537.0,38635.0,25342.0,-0.0021349999999999997,-0.000122,0.004209,0.525,0.47250000000000003,-3.9200000000000004,1.08971875,0.047093750000000004,-0.20740625000000001,1.34346875,1.0345,-0.3645625,-0.77115625,1.2861875,0.016895696362288465,0.022758324008391815,True
60957,95703,0,95704,3539.0,38636.0,25344.0,-0.015616,-0.0017079999999999999,0.008113,0.43750000000000006,0.9100000000000001,-4.165,1.09340625,0.03596875,-0.22021875,1.33671875,1.04828125,-0.37046875,-0.7695,1.2899375,0.01667745927127479,0.022175710046629923,True
60958,95704,0,95705,3540.0,38639.0,25346.0,-0.018056,-0.0025009999999999998,0.0060999999999999995,0.43750000000000006,1.1725,-4.2875000000000005,1.07525,0.0495,-0.19818750000000002,1.36240625,1.03509375,-0.3660625,-0.7751875,1.30275,0.017054971438245303,0.023289430201083237,True
60959,95705,0,95706,3539.0,38640.0,25345.0,-0.0028669999999999998,0.004026,-0.0060999999999999995,0.5950000000000001,0.5425000000000001,-4.2525,1.10059375,0.0465,-0.20396875,1.33203125,1.0356875,-0.36125,-0.77009375,1.292125,0.016737646877725897,0.022855181967165544,True
60960,95706,0,95707,3540.0,38639.0,25349.0,0.000549,0.001647,-0.00366,0.43750000000000006,0.1925,-4.2525,1.072875,0.047906250000000004,-0.2115,1.364625,1.03534375,-0.3705,-0.7775,1.29771875,0.017168554194620544,0.022843305418222177,True
60961,95707,0,95708,3541.0,38639.0,25350.0,0.007137,-0.0042699999999999995,0.000732,0.28,0.28,-4.077500000000001,1.11009375,0.04396875,-0.2041875,1.332,1.0364375000000001,-0.363875,-0.77084375,1.28971875,0.01673969144891771,0.022875936553432907,True
60962,95708,0,95709,3541.0,38645.0,25351.0,0.00061,-0.002013,-0.0034159999999999998,0.28,0.0,-3.9200000000000004,1.0736875000000001,0.05234375,-0.20984375,1.3623125,1.0435,-0.3675,-0.77665625,1.30390625,0.01722966040833077,0.022876876293587842,True
60963,95709,0,95710,3540.0,38645.0,25353.0,0.002196,0.002562,-0.0025009999999999998,0.29750000000000004,-0.9100000000000001,-4.2175,1.108125,0.0426875,-0.20334375000000002,1.32534375,1.04271875,-0.36453125000000003,-0.766875,1.29446875,0.01671358852840643,0.022753425694602165,True
60964,95710,0,95711,3540.0,38644.0,25352.0,0.0011589999999999999,0.000732,0.00122,0.17500000000000002,-1.9600000000000002,-4.7250000000000005,1.07840625,0.046625,-0.199625,1.35246875,1.04703125,-0.3696875,-0.77284375,1.29934375,0.017083210443301744,0.023138996708845755,True
60965,95711,0,95712,3539.0,38646.0,25353.0,-0.000793,0.002379,0.001403,0.0,-1.9075000000000002,-4.9350000000000005,1.10453125,0.035812500000000004,-0.2161875,1.357375,1.04675,-0.36775,-0.772875,1.28746875,0.016561336192303353,0.022471654985543665,True
60966,95712,0,95713,3540.0,38645.0,25354.0,0.0059169999999999995,0.002013,0.002257,-0.14,-1.7500000000000002,-5.232500000000001,1.10821875,0.04090625,-0.20846875,1.32434375,1.03846875,-0.36615625,-0.77284375,1.2926250000000001,0.016706061301728706,0.0227820029745273,True
60967,95713,0,95714,3537.0,38645.0,25351.0,0.0060999999999999995,-0.004392,-0.000488,-0.17500000000000002,-1.3825,-5.285,1.073125,0.051187500000000004,-0.2093125,1.347375,1.02521875,-0.36312500000000003,-0.77396875,1.2998125,0.017005720735743055,0.022792321072900357,True
60968,95714,0,95715,3537.0,38644.0,25353.0,0.0032329999999999998,-0.008296,0.003904,0.08750000000000001,-0.21000000000000002,-5.232500000000001,1.09146875,0.04290625,-0.20715625000000001,1.345375,1.0459687500000001,-0.36875,-0.7765,1.29809375,0.01689279302385227,0.022979183904102675,True
60969,95715,0,95716,3537.0,38646.0,25355.0,-0.0057339999999999995,-0.0013419999999999999,-0.000549,0.385,0.9975,-5.11,1.08590625,0.044625,-0.20700000000000002,1.34709375,1.04678125,-0.36825,-0.77528125,1.29846875,0.016943153488658397,0.02293742881324506,True
60970,95716,0,95717,3538.0,38648.0,25355.0,-0.002013,0.00244,-0.004575,0.6825000000000001,0.8925000000000001,-4.83,1.0864375,0.04675,-0.20684375,1.343,1.03890625,-0.36134375,-0.766375,1.28646875,0.016751692935657543,0.022592375751396804,True
60971,95717,0,95718,3537.0,38645.0,25354.0,0.0008539999999999999,0.00671,-0.006893,0.8925000000000001,0.8225000000000001,-4.567500000000001,1.0863125,0.0465,-0.2076875,1.3428437500000001,1.0395625,-0.365,-0.77246875,1.2921562500000001,0.016888980094397703,0.022798747097016722,True
60972,95718,0,95719,3538.0,38642.0,25353.0,-0.001098,0.004758,0.002806,0.7350000000000001,0.7175,-4.6375,1.08553125,0.04675,-0.207125,1.3431875,1.03821875,-0.36553125000000003,-0.7725,1.29240625,0.01692067559577631,0.022822686446664645,True
60973,95719,0,95720,3536.0,38641.0,25350.0,-0.011346,0.001952,0.0059169999999999995,0.6475000000000001,0.08750000000000001,-4.795000000000001,1.0865,0.047875,-0.2068125,1.347625,1.03859375,-0.36565625,-0.7720312500000001,1.292375,0.016971890506745534,0.022816810793422525,True
60974,95720,0,95721,3536.0,38642.0,25348.0,-0.002989,0.003843,-0.002013,0.45500000000000007,-1.6800000000000002,-4.515000000000001,1.0904375,0.0454375,-0.21,1.346375,1.045375,-0.36803125000000003,-0.7735625,1.2982500000000001,0.01696767152660312,0.02274854494584701,True
60975,95721,0,95722,3536.0,38637.0,25348.0,0.008052,-0.000793,-0.000366,-0.0175,-2.45,-4.41,1.08615625,0.047406250000000004,-0.20746875,1.3432187500000001,1.03828125,-0.36515625,-0.77053125,1.293125,0.016932479142217693,0.02273114348324685,True
60976,95722,0,95723,3536.0,38639.0,25346.0,0.010919,-0.006161,-0.0013419999999999999,-0.17500000000000002,-2.8525000000000005,-4.112500000000001,1.08578125,0.04603125,-0.207875,1.34853125,1.038375,-0.3643125,-0.7751875,1.2983437500000001,0.016841999953825907,0.022898413987785155,True
60977,95723,0,95724,3537.0,38640.0,25346.0,0.0073809999999999995,-0.0057339999999999995,-0.0017079999999999999,0.035,-2.8000000000000003,-3.8325000000000005,1.091875,0.046875,-0.20621875,1.34125,1.0475625,-0.36296875,-0.77353125,1.28515625,0.016822405931132673,0.022899944875642224,True
60978,95724,0,95725,3537.0,38642.0,25343.0,0.007442,-0.0015249999999999999,0.005429,0.49000000000000005,-1.8200000000000003,-3.6575,1.09146875,0.04365625,-0.20828125,1.34346875,1.03909375,-0.3668125,-0.77365625,1.29228125,0.01684540191705419,0.022821621253423185,True
60979,95725,0,95726,3536.0,38639.0,25348.0,0.001403,-0.000122,-0.0018909999999999999,0.5425000000000001,-0.7525000000000001,-3.5175000000000005,1.08659375,0.047125,-0.2075625,1.33909375,1.0318125,-0.3648125,-0.77228125,1.2894375,0.01690706628667879,0.022796396678242948,True
60980,95726,0,95727,3536.0,38643.0,25349.0,0.004575,-6.1e-05,-0.006344,0.665,-0.7000000000000001,-3.4825000000000004,1.08621875,0.05028125,-0.21040625000000002,1.3503125,1.03984375,-0.36853125000000003,-0.7740312500000001,1.3,0.017186612344558108,0.02275063732310421,True
60981,95727,0,95728,3538.0,38640.0,25350.0,0.0018909999999999999,0.0025009999999999998,-0.001098,0.6475000000000001,-0.42000000000000004,-3.5700000000000003,1.094125,0.04365625,-0.20896875,1.3433125000000001,1.0448125,-0.36934375,-0.7751250000000001,1.29159375,0.016947522437899053,0.02285180195861777,True
60982,95728,0,95729,3539.0,38643.0,25351.0,-0.004514,0.0008539999999999999,-0.0021349999999999997,0.6125,-0.22750000000000004,-3.6925000000000003,1.08575,0.047406250000000004,-0.2088125,1.34859375,1.03540625,-0.36340625,-0.77346875,1.2985312500000001,0.016861866349250732,0.022792781087630293,True
60983,95729,0,95730,3536.0,38646.0,25352.0,-0.005856,0.000976,0.000915,0.35000000000000003,0.0,-3.7800000000000002,1.085875,0.047281250000000004,-0.20984375,1.3355000000000001,1.0442500000000001,-0.36712500000000003,-0.768375,1.29353125,0.01700677654832074,0.022550177393551255,True
60984,95730,0,95731,3536.0,38645.0,25352.0,-0.002257,-0.0028669999999999998,-0.000793,0.052500000000000005,0.12250000000000001,-4.0075,1.08653125,0.0469375,-0.20684375,1.3513125000000001,1.02784375,-0.365,-0.77259375,1.29765625,0.01690693617894521,0.02283773777221047,True
60985,95731,0,95732,3538.0,38645.0,25350.0,-0.00183,-0.001952,0.000793,0.07,0.1925,-3.9200000000000004,1.0928125,0.04646875,-0.20828125,1.344,1.04353125,-0.36678125,-0.7735625,1.29246875,0.016959564571131035,0.022817923340658013,True
60986,95732,0,95733,3538.0,38644.0,25351.0,-0.00244,-0.000549,0.000549,0.24500000000000002,0.22750000000000004,-3.8850000000000002,1.0750625,0.0475625,-0.20800000000000002,1.341625,1.03934375,-0.36575,-0.7730312500000001,1.29734375,0.01696284743954116,0.022808321044684433,True
60987,95733,0,95734,3539.0,38643.0,25352.0,-0.00061,0.000244,0.0,0.43750000000000006,0.0,-3.9375000000000004,1.08253125,0.0469375,-0.2081875,1.3436875,1.0440625000000001,-0.3655625,-0.76903125,1.29259375,0.016929631729207976,0.022642942484882207,True
60988,95734,0,95735,3539.0,38643.0,25354.0,-0.004148,0.0028669999999999998,0.0026839999999999998,0.45500000000000007,-0.17500000000000002,-4.1825,1.085875,0.047718750000000004,-0.21096875,1.348625,1.03871875,-0.3638125,-0.77365625,1.2969375,0.01689108590866064,0.022713139082972462,True
60989,95735,0,95736,3540.0,38646.0,25354.0,-0.0032329999999999998,0.00183,0.0018909999999999999,0.42000000000000004,-0.5950000000000001,-4.2175,1.0929375000000001,0.0440625,-0.21040625000000002,1.3430625,1.03775,-0.36884375,-0.77684375,1.29240625,0.01694402304171695,0.022861568072002715,True
60990,95736,0,95737,3540.0,38646.0,25354.0,-0.001098,0.00042699999999999997,0.0008539999999999999,0.17500000000000002,-0.8925000000000001,-4.375,1.08671875,0.047156250000000004,-0.2080625,1.350375,1.0388125,-0.3649375,-0.77409375,1.30721875,0.016913392451755726,0.022847707597780445,True
60991,95737,0,95738,3540.0,38648.0,25356.0,-0.000915,-0.002562,0.000305,0.0175,-1.2775,-4.6025,1.08746875,0.0466875,-0.20778125,1.3431875,1.04790625,-0.36421875,-0.7745625,1.2875,0.01686515189410701,0.02287754829172059,True
60992,95738,0,95739,3538.0,38648.0,25356.0,0.002013,-0.002379,-0.0050019999999999995,-0.08750000000000001,-1.7850000000000001,-4.7075000000000005,1.084375,0.04396875,-0.2109375,1.34971875,1.0345625,-0.3624375,-0.776875,1.3070625,0.016681674401422274,0.022841359130237368,True
60993,95739,0,95740,3540.0,38650.0,25356.0,0.00488,0.001952,0.0013419999999999999,0.0175,-2.1350000000000002,-4.6375,1.0895,0.0469375,-0.2090625,1.3426875,1.05671875,-0.3700625,-0.7761875,1.28784375,0.017111158414140303,0.022889922026946237,True
60994,95740,0,95741,3540.0,38649.0,25357.0,0.000183,0.0021349999999999997,0.001952,0.052500000000000005,-2.1700000000000004,-4.515000000000001,1.0855625,0.04478125,-0.20884375,1.3484375,1.0325,-0.3629375,-0.77159375,1.301625,0.016735204857788597,0.022717553245842324,True
60995,95741,0,95742,3539.0,38651.0,25358.0,0.00042699999999999997,-0.0013419999999999999,6.1e-05,0.08750000000000001,-2.1350000000000002,-4.2525,1.08771875,0.0478125,-0.2080625,1.34828125,1.05515625,-0.36603125000000003,-0.7722187500000001,1.29196875,0.016984454536476883,0.0227737473051339,True
60996,95742,0,95743,3540.0,38649.0,25357.0,0.00042699999999999997,-0.0006709999999999999,-0.001037,0.08750000000000001,-2.3275,-4.2175,1.09553125,0.04675,-0.20846875,1.343875,1.0503125,-0.37359375,-0.775375,1.28675,0.017245866748722683,0.02288184336261308,True
60997,95743,0,95744,3541.0,38652.0,25360.0,0.0,0.001647,-0.001098,0.052500000000000005,-2.345,-4.322500000000001,1.08190625,0.04575,-0.21075,1.3411250000000001,1.03246875,-0.36715625,-0.7746875,1.308625,0.01694519646706825,0.022762648368420388,True
60998,95744,0,95745,3542.0,38652.0,25360.0,-0.006222,-0.0017079999999999999,0.001647,0.21000000000000002,-1.8900000000000001,-4.0075,1.08975,0.047218750000000004,-0.20425000000000001,1.34575,1.05328125,-0.36893750000000003,-0.7771250000000001,1.30109375,0.017077324360161374,0.023121124827840196,True
60999,95745,0,95746,3542.0,38654.0,25361.0,-0.002806,-0.0042699999999999995,0.002379,0.052500000000000005,-2.3625000000000003,-3.7275000000000005,1.0894062500000001,0.047406250000000004,-0.20971875,1.3431250000000001,1.0319375,-0.3710625,-0.7778437500000001,1.3070625,0.0171707224500368,0.022928750610109083,True
61000,95746,0,95747,3541.0,38656.0,25363.0,0.001464,-0.003538,-6.1e-05,0.15750000000000003,-2.9050000000000002,-3.7100000000000004,1.0814062500000001,0.047968750000000004,-0.20853125,1.3435625,1.0531875,-0.36975,-0.7755,1.2884375000000001,0.01714087136716626,0.022884250570119676,True
61001,95747,0,95748,3543.0,38653.0,25362.0,0.004026,0.000122,-0.004392,0.3325,-3.5000000000000004,-3.6225000000000005,1.08684375,0.047343750000000004,-0.20821875,1.34525,1.03609375,-0.364,-0.77175,1.2905625,0.01688326013790839,0.02274894789427473,True
61002,95748,0,95749,3542.0,38654.0,25362.0,0.0034159999999999998,0.002745,-0.000915,0.6300000000000001,-3.7450000000000006,-3.6225000000000005,1.094125,0.0460625,-0.20996875,1.3480625,1.04084375,-0.36746875,-0.7769375000000001,1.29884375,0.01697062810432454,0.022882922879391372,True
61003,95749,0,95750,3542.0,38656.0,25365.0,0.001403,0.00042699999999999997,0.002379,0.5425000000000001,-3.9200000000000004,-3.3600000000000003,1.0874375,0.0471875,-0.2054375,1.3433125000000001,1.04121875,-0.3653125,-0.77390625,1.29165625,0.016929805435493592,0.022946270332317904,True
61004,95750,0,95751,3542.0,38652.0,25363.0,0.004575,-0.000732,-0.001281,0.5775,-3.7800000000000002,-3.2025,1.08628125,0.047406250000000004,-0.20715625000000001,1.34325,1.0383125,-0.36509375,-0.7741875,1.29121875,0.01692995743141764,0.022887985731116306,True
61005,95751,0,95752,3543.0,38654.0,25362.0,0.002379,-0.000183,-0.001952,0.7350000000000001,-3.7275000000000005,-3.115,1.07896875,0.04809375,-0.21034375,1.3506562500000001,1.038875,-0.3665625,-0.77578125,1.29915625,0.017017429110076563,0.02282218648503768,True
61006,95752,0,95753,3543.0,38655.0,25366.0,0.000549,0.001769,-0.000732,0.77,-3.4650000000000003,-3.2375000000000003,1.08809375,0.04409375,-0.21175,1.34828125,1.04640625,-0.36825,-0.77640625,1.2998125,0.016921352579688735,0.022790078766972106,True
61007,95753,0,95754,3545.0,38656.0,25366.0,-0.001281,0.003172,0.001586,0.7875000000000001,-3.3425000000000002,-3.2025,1.09265625,0.04840625,-0.21184375,1.3491250000000001,1.0428125,-0.36712500000000003,-0.7783125,1.29628125,0.017052945310536225,0.02286147412177484,True
61008,95754,0,95755,3544.0,38656.0,25367.0,-0.0011589999999999999,-0.0025009999999999998,0.000244,0.805,-3.2550000000000003,-3.2725000000000004,1.08759375,0.04725,-0.2038125,1.3434375,1.03884375,-0.3654375,-0.7735625,1.29290625,0.01693741390853335,0.02299830716716661,True
61009,95755,0,95756,3545.0,38658.0,25369.0,-0.003355,-0.002806,0.000549,0.8400000000000001,-3.2900000000000005,-3.2725000000000004,1.08653125,0.04553125,-0.21065625000000002,1.3471250000000001,1.03890625,-0.3608125,-0.77740625,1.29628125,0.016680221564859547,0.02287366136235507,True
61010,95756,0,95757,3545.0,38659.0,25374.0,-0.00061,-0.001403,0.000488,0.9100000000000001,-3.5175000000000005,-3.4650000000000003,1.08609375,0.0479375,-0.20865625000000002,1.3376875,1.0325312500000001,-0.36462500000000003,-0.773875,1.2925625,0.016932848340575735,0.022815112694320124,True
61011,95757,0,95758,3547.0,38659.0,25373.0,-0.000976,-0.0008539999999999999,0.0,1.0325000000000002,-3.6750000000000003,-3.5700000000000003,1.09203125,0.04446875,-0.2125,1.35040625,1.044625,-0.36590625,-0.777625,1.2996875,0.016842180864912425,0.022807876057531744,True
61012,95758,0,95759,3547.0,38661.0,25376.0,-0.001098,0.000244,0.000122,0.9975,-3.7275000000000005,-3.535,1.08184375,0.046906250000000003,-0.2075625,1.34234375,1.0402500000000001,-0.3638125,-0.77440625,1.29115625,0.016857737269156868,0.022880215343203232,True
61013,95759,0,95760,3549.0,38661.0,25376.0,0.003294,0.0046359999999999995,-0.000976,0.9800000000000001,-3.7625,-3.7800000000000002,1.100125,0.042375,-0.21165625000000002,1.3528125,1.04559375,-0.36828125,-0.7781250000000001,1.29846875,0.01685208102233308,0.022861647118173796,True
61014,95760,0,95761,3549.0,38660.0,25376.0,0.006954,0.005307,-0.000549,0.8400000000000001,-3.6225000000000005,-3.9025000000000003,1.09725,0.0418125,-0.211875,1.3445,1.04046875,-0.3641875,-0.77584375,1.29075,0.016663802148132376,0.02276284738032383,True
61015,95761,0,95762,3550.0,38662.0,25376.0,0.006039,0.000244,-0.001769,0.6825000000000001,-3.2375000000000003,-3.9025000000000003,1.0816875,0.048125,-0.20109375000000002,1.3411875,1.0383437500000001,-0.3645,-0.77375,1.29478125,0.016935500420694045,0.023115444775215706,True
61016,95762,0,95763,3550.0,38661.0,25377.0,0.0023179999999999997,-0.0017079999999999999,-0.002623,0.5775,-2.7475,-3.9025000000000003,1.09271875,0.04484375,-0.21065625000000002,1.352875,1.047125,-0.366375,-0.7780625,1.29771875,0.016876484499643463,0.022899540672318506,True
61017,95763,0,95764,3552.0,38662.0,25376.0,-0.002928,0.0006709999999999999,-0.0015249999999999999,0.6125,-2.4325,-4.2875000000000005,1.0953125000000001,0.04453125,-0.21065625000000002,1.3408437500000001,1.039375,-0.366,-0.7748125,1.2925312500000001,0.01684852868751539,0.022771363052697172,True
61018,95764,0,95765,3552.0,38662.0,25375.0,-0.003355,0.000793,0.00122,0.43750000000000006,-2.5900000000000003,-4.62,1.08325,0.04996875,-0.2100625,1.3434062500000001,1.03903125,-0.36525,-0.77653125,1.2990625,0.017041431957398344,0.02286311769328081,True
61019,95765,0,95766,3551.0,38662.0,25376.0,-0.002379,-0.0037819999999999998,0.002928,0.14,-2.66,-4.550000000000001,1.09621875,0.043437500000000004,-0.20909375,1.3408437500000001,1.04496875,-0.36740625,-0.77446875,1.29190625,0.016860380862242983,0.022820872798735597,True
61020,95766,0,95767,3549.0,38661.0,25374.0,-0.00042699999999999997,-0.008539999999999999,0.002562,-0.07,-2.8350000000000004,-4.4275,1.08290625,0.04825,-0.20334375000000002,1.35290625,1.0388125,-0.365,-0.77625,1.2963437500000001,0.01696080443258773,0.023123202663841377,True
61021,95767,0,95768,3549.0,38659.0,25371.0,0.004575,-0.008418,0.003965,-0.12250000000000001,-2.765,-4.2700000000000005,1.0985625,0.04196875,-0.2105625,1.3404375,1.043625,-0.3655625,-0.7739375000000001,1.2922500000000001,0.016725706619742518,0.022740632166364353,True
61022,95768,0,95769,3549.0,38660.0,25369.0,0.003355,-0.002562,0.001952,0.10500000000000001,-2.45,-4.340000000000001,1.08346875,0.0458125,-0.20571875,1.35025,1.03953125,-0.36471875,-0.7753125000000001,1.2961562500000001,0.01684941468901626,0.022990376004339005,True
61023,95769,0,95770,3547.0,38658.0,25367.0,0.0008539999999999999,0.004392,-0.00183,0.47250000000000003,-1.435,-4.2700000000000005,1.09259375,0.04671875,-0.21281250000000002,1.35025,1.04265625,-0.36521875,-0.77571875,1.292125,0.016906784389120248,0.02272007749522907,True
61024,95770,0,95771,3547.0,38655.0,25366.0,0.0018909999999999999,0.00366,-0.003355,0.5775,-1.0325000000000002,-4.077500000000001,1.0850312500000001,0.0475,-0.205375,1.3449375000000001,1.0362500000000001,-0.3646875,-0.77509375,1.2940625000000001,0.016917413777623867,0.02299562438588149,True
61025,95771,0,95772,3546.0,38655.0,25362.0,0.0011589999999999999,0.0023179999999999997,-0.004026,0.56,-0.9800000000000001,-4.0075,1.09275,0.04546875,-0.21178125,1.3414062500000001,1.0431875,-0.365375,-0.77571875,1.292375,0.01686178644900807,0.0227617009092824,True
61026,95772,0,95773,3544.0,38653.0,25361.0,6.1e-05,0.000793,-0.001403,0.77,-1.05,-3.6400000000000006,1.086125,0.047156250000000004,-0.208375,1.34378125,1.039375,-0.36471875,-0.774375,1.29296875,0.01690456615675073,0.02284618683619668,True
61027,95773,0,95774,3545.0,38648.0,25358.0,-0.002257,-0.000305,-0.000793,0.9275000000000001,-1.2775,-3.4125000000000005,1.08028125,0.04821875,-0.2114375,1.3489375000000001,1.039,-0.364875,-0.7735625,1.3051875,0.01695447852697787,0.022690519379277806,True
61028,95774,0,95775,3545.0,38647.0,25355.0,-0.0070149999999999995,0.001952,0.00122,1.0675000000000001,-2.3625000000000003,-3.4125000000000005,1.0920625,0.04671875,-0.20878125,1.3363125,1.06078125,-0.36262500000000003,-0.78025,1.2866875,0.016802120050692402,0.023061460235469778,True
61029,95775,0,95776,3544.0,38643.0,25351.0,-0.0057339999999999995,0.002196,0.001769,0.8750000000000001,-3.0275000000000003,-3.43,1.09425,0.04521875,-0.209125,1.3431250000000001,1.030125,-0.36265625,-0.7800312500000001,1.28228125,0.0167418115584174,0.023038964085245053,True
61030,95776,0,95777,3544.0,38641.0,25350.0,-0.0018909999999999999,0.002257,0.001098,0.77,-3.7800000000000002,-3.1850000000000005,1.09209375,0.04478125,-0.2089375,1.34315625,1.0234375,-0.371,-0.77646875,1.283375,0.017060491978170778,0.022906058798229673,True
61031,95777,0,95778,3544.0,38638.0,25347.0,0.0037819999999999998,-0.00061,0.0,0.5775,-4.095000000000001,-3.08,1.09259375,0.04534375,-0.20959375,1.34359375,1.025375,-0.37178125,-0.781625,1.29346875,0.017115080581153665,0.02308287894760735,True
61032,95778,0,95779,3545.0,38637.0,25344.0,0.0073809999999999995,0.000122,0.000549,0.5425000000000001,-3.9025000000000003,-3.0450000000000004,1.08671875,0.046968750000000004,-0.20784375,1.3504375,1.02940625,-0.36153125,-0.75971875,1.2955,0.016768239886398768,0.022289227336235392,True
61033,95779,0,95780,3545.0,38635.0,25344.0,0.008601,0.000915,-0.0015249999999999999,0.28,-2.8525000000000005,-3.43,1.08978125,0.047406250000000004,-0.20065625,1.34328125,1.048375,-0.37175,-0.7746875,1.2803125,0.017198446972416837,0.023170070258202047,True
61034,95780,0,95781,3543.0,38635.0,25343.0,0.003355,-0.0032329999999999998,-0.001098,0.0,-1.8200000000000003,-3.5700000000000003,1.0932187500000001,0.04615625,-0.209125,1.34234375,1.0206250000000001,-0.36775,-0.780875,1.2827187500000001,0.01698582142380811,0.023072228079113428,True
61035,95781,0,95782,3546.0,38635.0,25342.0,0.001952,-0.005307,0.000305,-0.052500000000000005,-0.9275000000000001,-3.6925000000000003,1.0860625,0.05375,-0.20934375,1.35071875,1.0255625,-0.36121875000000003,-0.7752187500000001,1.314,0.01703398973009099,0.022840363417578304,True
61036,95782,0,95783,3546.0,38635.0,25342.0,-0.002196,-0.006222,0.000183,0.10500000000000001,-0.17500000000000002,-3.6400000000000006,1.0881875,0.04725,-0.2045625,1.34425,1.0571875,-0.36825,-0.76915625,1.28084375,0.017050875627096736,0.022794226186045395,True
61037,95783,0,95784,3545.0,38638.0,25344.0,-0.006039,-0.002196,-0.00244,0.42000000000000004,0.17500000000000002,-3.8150000000000004,1.0896875,0.05275,-0.21065625000000002,1.35153125,1.02265625,-0.368625,-0.77790625,1.310125,0.01729170193230024,0.022893379056190433,True
61038,95784,0,95785,3546.0,38636.0,25343.0,-0.005307,0.001586,0.000976,0.7000000000000001,0.49000000000000005,-3.8850000000000002,1.08615625,0.04853125,-0.2086875,1.344875,1.05,-0.3621875,-0.7675000000000001,1.2913125,0.01685886170936005,0.022562329665892805,True
61039,95785,0,95786,3548.0,38635.0,25341.0,-0.005429,0.0017079999999999999,0.002989,0.805,0.15750000000000003,-3.7800000000000002,1.0832187500000001,0.04490625,-0.2125,1.34634375,1.03184375,-0.36696875,-0.7754375,1.294375,0.016903005220951003,0.022721596742741677,True
61040,95786,0,95787,3548.0,38635.0,25343.0,-0.002745,0.003355,0.003111,0.8750000000000001,-0.28,-3.6750000000000003,1.0824375,0.048125,-0.20875,1.34325,1.0344375000000001,-0.36384375,-0.7730312500000001,1.29775,0.01690902118020684,0.02277804618681858,True
61041,95787,0,95788,3548.0,38637.0,25343.0,-0.001403,0.0025009999999999998,0.00061,0.9275000000000001,-0.9625000000000001,-3.7625,1.08078125,0.0471875,-0.20875,1.3486562500000001,1.04603125,-0.3675625,-0.7776875,1.29765625,0.017020578073822526,0.022961686799867823,True
61042,95788,0,95789,3547.0,38637.0,25342.0,0.000488,0.002196,-0.001952,0.9100000000000001,-1.2950000000000002,-3.7275000000000005,1.08896875,0.0479375,-0.2090625,1.3473125000000001,1.0390625,-0.3650625,-0.77365625,1.2985,0.016950500332186712,0.022790085738757276,True
61043,95789,0,95790,3549.0,38633.0,25342.0,0.003904,-0.000793,0.001769,0.7000000000000001,-1.6975000000000002,-3.9550000000000005,1.084875,0.045,-0.20940625000000002,1.34378125,1.04503125,-0.36609375,-0.7748125,1.292125,0.016871549219907273,0.02282181752132332,True
61044,95790,0,95791,3549.0,38638.0,25342.0,0.002806,-0.001769,0.0006709999999999999,0.42000000000000004,-1.61,-4.0075,1.086375,0.04840625,-0.20915625000000002,1.34796875,1.03896875,-0.36465625,-0.7733125000000001,1.2993125,0.016953348151587406,0.022772741836603404,True
61045,95791,0,95792,3548.0,38638.0,25343.0,0.001403,-0.0028669999999999998,0.000244,0.49000000000000005,-1.0850000000000002,-4.1475,1.09053125,0.047406250000000004,-0.20959375,1.34296875,1.0430625,-0.36671875,-0.76896875,1.2923125,0.016995517707939233,0.02258370163271331,True
61046,95792,0,95793,3549.0,38638.0,25342.0,-0.000915,-0.001769,-0.00042699999999999997,0.665,-0.6475000000000001,-4.2525,1.08621875,0.0478125,-0.20790625000000001,1.3443125,1.03953125,-0.3640625,-0.7731875,1.29259375,0.01690502148399923,0.022818268743172433,True
61047,95793,0,95794,3549.0,38639.0,25342.0,-0.000488,-0.000305,-0.0026839999999999998,0.7175,-0.31500000000000006,-4.322500000000001,1.08665625,0.0483125,-0.20925,1.34421875,1.03871875,-0.36484375,-0.7744375,1.293625,0.016957065443934972,0.02281333329969651,True
61048,95794,0,95795,3550.0,38639.0,25342.0,-0.003843,0.000549,-0.000793,0.6475000000000001,-0.14,-4.4625,1.08034375,0.0480625,-0.2079375,1.348125,1.04146875,-0.36559375,-0.77659375,1.299375,0.016977064226066728,0.022951348992433635,True
61049,95795,0,95796,3550.0,38642.0,25341.0,-0.004026,-6.1e-05,0.001952,0.6300000000000001,-0.385,-4.41,1.0968437500000001,0.043500000000000004,-0.21534375,1.3470625,1.04575,-0.368375,-0.7745,1.2924375000000001,0.01690202978245369,0.02256982986538578,True
61050,95796,0,95797,3550.0,38641.0,25341.0,-0.0035989999999999998,0.001098,0.001403,0.805,-1.0150000000000001,-4.48,1.0839375,0.04775,-0.2074375,1.33971875,1.03828125,-0.36453125000000003,-0.77378125,1.29675,0.0169213700756094,0.022860609944232876,True
61051,95797,0,95798,3552.0,38640.0,25341.0,-0.0037819999999999998,0.0023179999999999997,0.002379,0.8925000000000001,-1.8900000000000001,-4.41,1.08325,0.043937500000000004,-0.2094375,1.35715625,1.0448125,-0.3676875,-0.777375,1.2931875,0.016892247161327888,0.022921616999379474,True
61052,95798,0,95799,3552.0,38643.0,25340.0,0.002745,0.000305,0.001647,0.9800000000000001,-2.7825,-4.2700000000000005,1.101875,0.0504375,-0.21315625,1.3544375,1.0303125,-0.36428125,-0.7750625,1.29125,0.0170215876981801,0.022680316144510233,True
61053,95799,0,95800,3552.0,38641.0,25339.0,0.0062829999999999995,0.000488,0.00061,0.665,-3.7625,-4.025,1.0893125000000001,0.04853125,-0.20109375000000002,1.3516875,1.03925,-0.3644375,-0.775625,1.29953125,0.016949652541742445,0.023189374637370395,True
61054,95800,0,95801,3553.0,38641.0,25339.0,0.00793,0.0,-0.000488,0.5775,-3.7275000000000005,-3.7275000000000005,1.1014375,0.04471875,-0.20771875,1.33878125,1.0376875,-0.36425,-0.7696875,1.28784375,0.01678560801173851,0.022687760998195874,True
61055,95801,0,95802,3552.0,38642.0,25342.0,0.0073809999999999995,0.001586,-0.0015249999999999999,0.42000000000000004,-3.5000000000000004,-3.6225000000000005,1.08515625,0.047281250000000004,-0.21415625,1.33784375,1.04475,-0.36684375,-0.77484375,1.2929375,0.0169954305222645,0.022631323355974748,True
61056,95802,0,95803,3553.0,38640.0,25339.0,0.0048189999999999995,0.0017079999999999999,-0.001037,0.42000000000000004,-3.0275000000000003,-3.535,1.0803125,0.04953125,-0.20634375,1.3495,1.0391875,-0.3595625,-0.77675,1.30003125,0.01679396951402555,0.023021834986428808,True
61057,95803,0,95804,3554.0,38641.0,25339.0,-0.000244,-0.000549,-0.000915,0.6125,-2.4850000000000003,-3.3425000000000002,1.103625,0.0395625,-0.21484375,1.34515625,1.044875,-0.36559375,-0.7681875,1.2918125,0.016628211656036496,0.02234090605136125,True
61058,95804,0,95805,3554.0,38641.0,25343.0,-0.0025009999999999998,-0.000793,-0.000122,0.5950000000000001,-1.3475000000000001,-3.3775000000000004,1.06553125,0.04959375,-0.20196875,1.3554375,1.03821875,-0.36496875,-0.775875,1.29290625,0.017014694508894045,0.02316391449343363,True
61059,95805,0,95806,3554.0,38641.0,25343.0,-0.004697,-0.000915,0.0030499999999999998,0.665,-1.155,-3.3600000000000003,1.09753125,0.0498125,-0.20684375,1.35571875,1.03928125,-0.36412500000000003,-0.7762187500000001,1.29884375,0.016989631271387747,0.022980706044985175,True
61060,95806,0,95807,3555.0,38645.0,25345.0,-0.008235,-0.00042699999999999997,0.0018909999999999999,0.7350000000000001,-1.3650000000000002,-3.3600000000000003,1.08509375,0.0494375,-0.206625,1.343,1.03940625,-0.36409375,-0.7728125,1.2953125,0.016972978935446758,0.022855196599094272,True
61061,95807,0,95808,3556.0,38647.0,25347.0,-0.009821,0.000793,-0.000976,0.56,-2.1875,-3.43,1.09425,0.04621875,-0.20350000000000001,1.3450312500000001,1.033125,-0.3641875,-0.77359375,1.29809375,0.016844651601864415,0.023012153818014393,True
61062,95808,0,95809,3554.0,38646.0,25348.0,-0.004331,0.001098,-0.0013419999999999999,0.5075000000000001,-3.3075,-3.5525,1.090125,0.04475,-0.20709375,1.34365625,1.0446875,-0.36409375,-0.7744375,1.2923125,0.016780585159257157,0.0229003685754722,True
61063,95809,0,95810,3557.0,38647.0,25350.0,0.0030499999999999998,0.000976,-0.000549,0.2625,-4.077500000000001,-3.7800000000000002,1.09109375,0.043687500000000004,-0.21078125,1.34409375,1.04440625,-0.36359375,-0.77334375,1.29221875,0.016716796962681253,0.022708379848804222,True
61064,95810,0,95811,3557.0,38646.0,25348.0,0.006954,-0.000488,0.000549,0.15750000000000003,-4.812500000000001,-3.8150000000000004,1.0871250000000001,0.0465,-0.20921875,1.34334375,1.03959375,-0.358,-0.7788125,1.2920625000000001,0.016606453731833483,0.022987128620469605,True
61065,95811,0,95812,3558.0,38648.0,25349.0,0.007991,-0.0030499999999999998,-6.1e-05,0.1925,-5.285,-3.6925000000000003,1.08665625,0.0475625,-0.21240625,1.350375,1.038875,-0.36662500000000003,-0.7728125,1.2935,0.016998148081648567,0.022621825842342284,True
61066,95812,0,95813,3557.0,38647.0,25349.0,0.006161,-0.0018909999999999999,0.002806,0.0175,-5.197500000000001,-3.6575,1.0875000000000001,0.047718750000000004,-0.2088125,1.3435000000000001,1.039375,-0.3613125,-0.774625,1.29359375,0.01679019757248301,0.022838388068436962,True
61067,95813,0,95814,3557.0,38646.0,25352.0,0.005063,-0.002074,0.000183,0.07,-4.235,-3.6925000000000003,1.08771875,0.04828125,-0.2090625,1.34609375,1.0470625,-0.3671875,-0.7769375000000001,1.29903125,0.017050336646361013,0.0229194992318966,True
61068,95814,0,95815,3559.0,38647.0,25352.0,0.006527,0.0013419999999999999,-0.00061,0.17500000000000002,-3.9025000000000003,-3.7450000000000006,1.08715625,0.04775,-0.208625,1.33678125,1.04546875,-0.3639375,-0.775,1.30075,0.016897412415378264,0.022860746720484364,True
61069,95815,0,95816,3559.0,38647.0,25351.0,0.003721,0.003111,-0.001586,0.3325,-3.5700000000000003,-3.7800000000000002,1.0941875,0.04475,-0.21028125,1.34578125,1.04409375,-0.3671875,-0.77578125,1.29175,0.016905418403334403,0.022824709109828777,True
61070,95816,0,95817,3561.0,38649.0,25354.0,-0.000122,0.002196,-0.002928,0.3325,-3.0450000000000004,-3.6925000000000003,1.08609375,0.04803125,-0.20800000000000002,1.34425,1.03903125,-0.36475,-0.77371875,1.2964375000000001,0.01694173960332037,0.02283543926968978,True
61071,95817,0,95818,3559.0,38650.0,25353.0,-0.000244,0.001952,-0.000244,0.4025,-2.3975000000000004,-3.7800000000000002,1.0890312500000001,0.043812500000000004,-0.2049375,1.3511250000000001,1.045375,-0.3661875,-0.77665625,1.2901875,0.016826596282245636,0.02307489534630001,True
61072,95818,0,95819,3563.0,38648.0,25354.0,0.000183,-0.0018909999999999999,0.001403,0.29750000000000004,-1.5225000000000002,-3.9200000000000004,1.0908125,0.0466875,-0.20975,1.3438125,1.0386250000000001,-0.36465625,-0.7749375000000001,1.2923437500000001,0.016882805395623014,0.022812872888175805,True
61073,95819,0,95820,3560.0,38649.0,25354.0,0.001769,-0.002257,0.0008539999999999999,0.31500000000000006,-1.3650000000000002,-4.025,1.08640625,0.04834375,-0.2129375,1.3505625,1.03890625,-0.36546875,-0.7761250000000001,1.29775,0.01698356408595669,0.022731056611960104,True
61074,95820,0,95821,3560.0,38650.0,25356.0,0.001464,-0.0013419999999999999,0.00061,0.15750000000000003,-1.3125000000000002,-3.9725000000000006,1.092625,0.04815625,-0.20921875,1.34384375,1.040125,-0.3644375,-0.774,1.2979687500000001,0.016934261256801024,0.022797337934931782,True
61075,95821,0,95822,3561.0,38651.0,25356.0,-0.00183,-0.001464,-0.001586,0.052500000000000005,-1.0850000000000002,-3.9725000000000006,1.0914375,0.044875,-0.21196875,1.3452187500000001,1.0378125,-0.3673125,-0.77725,1.2926875,0.016915591327521243,0.022814527439485817,True
61076,95822,0,95823,3560.0,38654.0,25358.0,-0.005246,-0.0023179999999999997,0.002257,0.07,-0.9275000000000001,-3.9550000000000005,1.085875,0.048,-0.20065625,1.3440625,1.0398125,-0.364,-0.7745,1.2980625000000001,0.016910195370218352,0.023162677349694242,True
61077,95823,0,95824,3558.0,38652.0,25358.0,-0.006222,0.001586,0.0008539999999999999,0.4025,-1.5925000000000002,-4.112500000000001,1.092125,0.0460625,-0.21321875,1.3364375,1.046,-0.36515625,-0.7715625,1.29184375,0.016877328664781293,0.022539706568772154,True
61078,95824,0,95825,3557.0,38650.0,25355.0,-0.0023179999999999997,0.0035989999999999998,0.000183,0.35000000000000003,-1.9075000000000002,-4.130000000000001,1.0871250000000001,0.04965625,-0.205375,1.3429375000000001,1.03965625,-0.36409375,-0.77465625,1.2978125,0.01698195731166894,0.02297837129425358,True
61079,95825,0,95826,3556.0,38647.0,25353.0,-0.000549,0.0021349999999999997,0.00042699999999999997,0.28,-1.8550000000000002,-4.1475,1.091625,0.04653125,-0.21196875,1.3472187500000001,1.0454375,-0.36546875,-0.7759375000000001,1.293,0.016909176023958087,0.022762761247682353,True
61080,95826,0,95827,3556.0,38644.0,25349.0,-0.002745,0.000549,-0.001586,0.12250000000000001,-1.9775000000000003,-4.077500000000001,1.08675,0.047656250000000004,-0.2045625,1.34353125,1.03928125,-0.3636875,-0.774625,1.29290625,0.016883476690464035,0.023009934560058933,True
61081,95827,0,95828,3556.0,38644.0,25347.0,0.000732,-0.00122,-0.003843,0.1925,-2.2225,-4.0075,1.08734375,0.047531250000000004,-0.2115,1.34596875,1.04678125,-0.36562500000000003,-0.77328125,1.2995625,0.016956521739130436,0.02267690114727939,True
61082,95828,0,95829,3557.0,38641.0,25344.0,0.0073809999999999995,0.000305,-0.004331,0.3325,-2.6950000000000003,-3.9550000000000005,1.0894375,0.047343750000000004,-0.211125,1.34315625,1.04659375,-0.36771875,-0.7765625,1.2894375,0.017033293278633233,0.0228214668600618,True
61083,95829,0,95830,3555.0,38637.0,25341.0,0.0075639999999999995,0.002989,-0.004514,0.45500000000000007,-2.3625000000000003,-4.077500000000001,1.08665625,0.0484375,-0.2085625,1.3470625,1.0308125000000001,-0.3636875,-0.77534375,1.30475,0.01691554285450427,0.022876826885600728,True
61084,95830,0,95831,3556.0,38636.0,25340.0,0.0051849999999999995,0.002196,-0.002989,0.5950000000000001,-1.715,-3.8500000000000005,1.088125,0.0478125,-0.20921875,1.3443125,1.0481875,-0.36396875,-0.77396875,1.2864375000000001,0.016901238637485938,0.02279610528692541,True
61085,95831,0,95832,3553.0,38633.0,25339.0,0.000244,0.00183,0.00061,0.42000000000000004,-0.7875000000000001,-3.8850000000000002,1.09221875,0.04609375,-0.210625,1.3434062500000001,1.04646875,-0.36653125000000003,-0.77490625,1.2902500000000001,0.0169340886384885,0.022776322312016824,True
61086,95832,0,95833,3556.0,38635.0,25342.0,-0.007625,0.003721,0.00671,0.3325,-0.385,-4.2175,1.0878125,0.04828125,-0.21409375,1.3606875,1.035125,-0.3636875,-0.77253125,1.29928125,0.01690912962169622,0.02254260956881425,True
61087,95833,0,95834,3553.0,38635.0,25344.0,-0.0070149999999999995,-0.003538,0.010126,0.42000000000000004,-1.715,-4.2700000000000005,1.09728125,0.04653125,-0.20884375,1.3385,1.03965625,-0.363375,-0.7732187500000001,1.2898125,0.01682469074994741,0.022781658116186456,True
61088,95834,0,95835,3553.0,38635.0,25344.0,-0.001952,-0.00671,-0.003538,0.49000000000000005,-2.87,-4.1475,1.07640625,0.04975,-0.20678125,1.343875,1.038875,-0.36865625,-0.7748125,1.30334375,0.017169853179737803,0.022927771905438234,True
61089,95835,0,95836,3554.0,38635.0,25345.0,0.004209,-0.005978,-0.013908,0.49000000000000005,-3.1675000000000004,-4.235,1.10009375,0.0415625,-0.21984375,1.3409375000000001,1.05009375,-0.36571875,-0.7735,1.2906250000000001,0.016715339045764863,0.0223487294891719,True
61090,95836,0,95837,3554.0,38636.0,25349.0,0.003477,-0.004026,-0.004392,0.49000000000000005,-2.7475,-4.655,1.08259375,0.05028125,-0.20453125,1.3455625,1.036125,-0.36290625,-0.7751250000000001,1.3024375000000001,0.01695969667001448,0.0230309130630017,True
61091,95837,0,95838,3555.0,38635.0,25349.0,-0.0057339999999999995,-0.000976,-0.0008539999999999999,0.7000000000000001,-3.0275000000000003,-5.180000000000001,1.1030625,0.03896875,-0.21340625,1.3621875,1.0513125,-0.3661875,-0.7752187500000001,1.29546875,0.016627806463362396,0.022676389083345634,True
61092,95838,0,95839,3556.0,38640.0,25351.0,-0.002562,0.0062829999999999995,0.001586,1.2600000000000002,-4.515000000000001,-5.285,1.09765625,0.0418125,-0.21671875000000002,1.3626875,1.0479687500000001,-0.3600625,-0.774375,1.2825625,0.01649728936450799,0.02250939731072933,True
61093,95839,0,95840,3556.0,38638.0,25353.0,0.003477,0.0034159999999999998,0.002989,1.5050000000000001,-5.355,-5.460000000000001,1.1093125,0.03459375,-0.21340625,1.36765625,1.037125,-0.36362500000000003,-0.77334375,1.2899375,0.016344807063809266,0.02260241918291712,True
61094,95840,0,95841,3556.0,38642.0,25357.0,0.0013419999999999999,-0.000305,0.00366,1.6450000000000002,-6.4225,-5.2675,1.09959375,0.048125,-0.20740625000000001,1.33225,1.0355625,-0.3629375,-0.7728125,1.2902500000000001,0.01687245226483875,0.022823660010344,True
61095,95841,0,95842,3557.0,38644.0,25362.0,-0.0008539999999999999,-0.000915,0.000244,1.8025000000000002,-7.577500000000001,-4.8475,1.068125,0.05296875,-0.20446875,1.3256875000000001,1.0416875,-0.36540625,-0.76959375,1.300625,0.01717086083881733,0.02281527124359882,True
61096,95842,0,95843,3557.0,38646.0,25366.0,0.0055509999999999995,0.00183,0.008173999999999999,1.6975000000000002,-8.3475,-4.655,1.0765625,0.0441875,-0.212625,1.3549375000000001,1.04603125,-0.36175,-0.77553125,1.30053125,0.016662903937525012,0.022720249439656313,True
61097,95843,0,95844,3556.0,38649.0,25369.0,0.019764,-0.001281,0.016104,0.14,-8.540000000000001,-3.8850000000000002,1.10271875,0.039,-0.21696875000000002,1.3546562500000001,1.0463437500000001,-0.36790625,-0.7750625,1.29334375,0.016698449420536488,0.022526431568033377,True
61098,95844,0,95845,3557.0,38649.0,25371.0,0.011163,-0.0048189999999999995,0.0046359999999999995,0.0175,-8.190000000000001,-2.9575000000000005,1.0950312500000001,0.043500000000000004,-0.2095625,1.3474375,1.038875,-0.36421875,-0.7752187500000001,1.292,0.016734324797506587,0.02283153403035039,True
61099,95845,0,95846,3558.0,38651.0,25373.0,0.0037819999999999998,-0.00042699999999999997,-0.0064659999999999995,0.6825000000000001,-7.385000000000001,-2.1875,1.088375,0.046906250000000003,-0.2095,1.3406875,1.03946875,-0.36465625,-0.775375,1.29246875,0.016891783564563938,0.022840219371048874,True
61100,95846,0,95847,3556.0,38652.0,25373.0,0.010431,0.0066489999999999995,-0.015433,0.8225000000000001,-6.0375000000000005,-2.1700000000000004,1.0855000000000001,0.0484375,-0.20940625000000002,1.3495,1.03025,-0.3640625,-0.77425,1.2998750000000001,0.01693067402039377,0.022799630664904084,True
61101,95847,0,95848,3556.0,38655.0,25374.0,0.012078,0.007259,-0.02013,0.7525000000000001,-4.305000000000001,-2.5200000000000005,1.094125,0.0465625,-0.20996875,1.34459375,1.04640625,-0.36696875,-0.7690625,1.293125,0.016970976334510217,0.022572261263420847,True
61102,95848,0,95849,3557.0,38658.0,25373.0,-0.008723,-0.0018909999999999999,-0.0059169999999999995,0.43750000000000006,-0.9100000000000001,-3.22,1.0865,0.04834375,-0.2089375,1.34428125,1.0395625,-0.36359375,-0.77409375,1.2926250000000001,0.016907912035760326,0.022812388445086918,True
61103,95849,0,95850,3558.0,38660.0,25377.0,-0.019703,-0.002623,0.0032329999999999998,0.49000000000000005,0.052500000000000005,-3.4825000000000004,1.086625,0.0481875,-0.2088125,1.34409375,1.03865625,-0.3631875,-0.77396875,1.2886875,0.016885105858993204,0.022812503547700647,True
61104,95850,0,95851,3556.0,38662.0,25378.0,-0.022509,-0.002989,0.009211,0.5950000000000001,0.43750000000000006,-3.5525,1.0863125,0.054125,-0.20978125,1.34390625,1.02775,-0.36365625,-0.7740625,1.29325,0.017147723876624634,0.022777098023386354,True
61105,95851,0,95852,3559.0,38661.0,25382.0,-0.020801,-0.0017079999999999999,0.011956,0.29750000000000004,0.43750000000000006,-3.6925000000000003,1.07878125,0.04603125,-0.2116875,1.34109375,1.03865625,-0.363875,-0.7768125,1.29259375,0.016824345470496792,0.022808623990676766,True
61106,95852,0,95853,3559.0,38662.0,25383.0,-0.013237,-0.003111,0.012749,-0.14,0.07,-3.8500000000000005,1.09178125,0.046906250000000003,-0.204625,1.35034375,1.044625,-0.36690625,-0.7768125,1.30021875,0.016982562158460307,0.023093668727565343,True
61107,95853,0,95854,3559.0,38664.0,25382.0,0.0032329999999999998,-0.0051849999999999995,-0.0015249999999999999,-0.42000000000000004,-1.4875,-3.535,1.0888125,0.0506875,-0.20925,1.3438125,1.044125,-0.36253125,-0.7706875,1.293,0.016961240429399144,0.022665398366516876,True
61108,95854,0,95855,3560.0,38663.0,25379.0,0.010187,-0.002013,-0.007259,-0.31500000000000006,-2.1525000000000003,-3.3600000000000003,1.0870312500000001,0.047843750000000004,-0.20975,1.34909375,1.0386875,-0.36346875,-0.77465625,1.297375,0.01688234562248038,0.022801779540331666,True
61109,95855,0,95856,3559.0,38662.0,25382.0,0.016714,0.001403,-0.010919,-0.0175,-2.5200000000000005,-3.1500000000000004,1.08028125,0.04540625,-0.212125,1.34440625,1.04734375,-0.36728125,-0.7698125,1.29503125,0.016936132339343355,0.022514805067660484,True
61110,95856,0,95857,3560.0,38660.0,25377.0,0.021289,0.011285,-0.021471999999999998,0.2625,-2.2750000000000004,-2.9050000000000002,1.0873125000000001,0.04725,-0.20678125,1.344375,1.03259375,-0.363,-0.773625,1.2922500000000001,0.01683905922915897,0.022880936883479912,True
61111,95857,0,95858,3557.0,38660.0,25379.0,0.021228,-0.00366,0.006222,1.1725,0.22750000000000004,-1.9425000000000001,1.086625,0.0483125,-0.208625,1.34759375,1.0385625,-0.35740625,-0.76753125,1.2965625,0.016656894656014533,0.022566086395873628,True
61112,95858,0,95859,3559.0,38660.0,25380.0,-0.016409,0.004392,0.009455,0.24500000000000002,0.14,-3.0100000000000002,1.091,0.0453125,-0.211625,1.352125,1.04484375,-0.36740625,-0.7751250000000001,1.298875,0.016937327911131287,0.022744587565148515,True
61113,95859,0,95860,3561.0,38660.0,25381.0,-0.000366,0.013176,-0.002013,0.525,-2.5375,-3.3075,1.0919375,0.04471875,-0.207625,1.3440625,1.0458125,-0.36640625,-0.77434375,1.2919375,0.01687261534515374,0.02287522752242428,True
61114,95860,0,95861,3558.0,38660.0,25381.0,0.012565999999999999,0.0059169999999999995,-0.005612,0.665,-3.5525,-2.5900000000000003,1.0865,0.0481875,-0.21165625000000002,1.3506562500000001,1.0405,-0.36362500000000003,-0.7752187500000001,1.29875,0.016902759749421528,0.02274702418116894,True
61115,95861,0,95862,3561.0,38662.0,25381.0,0.009699,-0.0028669999999999998,-0.0042699999999999995,0.45500000000000007,-2.7300000000000004,-2.4850000000000003,1.08725,0.0480625,-0.20946875,1.34459375,1.03884375,-0.36428125,-0.77359375,1.2923125,0.01692410893508299,0.022771221878133848,True
61116,95862,0,95863,3559.0,38663.0,25385.0,-0.012322,-0.003721,0.00244,0.36750000000000005,-1.1025,-2.8000000000000003,1.09346875,0.0451875,-0.20975,1.343875,1.03709375,-0.36565625,-0.773875,1.29278125,0.016861591815324078,0.022770963363623976,True
61117,95863,0,95864,3560.0,38665.0,25385.0,-0.011285,0.0035989999999999998,0.003843,0.5775,-0.47250000000000003,-3.2375000000000003,1.08659375,0.048,-0.20800000000000002,1.35128125,1.03809375,-0.36384375,-0.7740625,1.29784375,0.016903890626863833,0.022848997817778167,True
61118,95864,0,95865,3561.0,38664.0,25385.0,-0.001464,-0.000122,0.00061,0.56,-0.9625000000000001,-3.2900000000000005,1.09375,0.045625,-0.20971875,1.3448125,1.04359375,-0.36628125,-0.773375,1.2907187500000001,0.016904764652997676,0.022752501425421442,True
61119,95865,0,95866,3561.0,38666.0,25387.0,0.002257,-0.00549,-0.004148,0.385,-1.2600000000000002,-3.22,1.08665625,0.0455625,-0.20990625000000002,1.349875,1.0388125,-0.363875,-0.77478125,1.2991875,0.01680510592013791,0.022800403131712818,True
61120,95866,0,95867,3561.0,38666.0,25386.0,0.00061,-0.0059169999999999995,-0.0048189999999999995,0.4025,-1.2425000000000002,-3.2725000000000004,1.08684375,0.048625,-0.21065625000000002,1.350125,1.03784375,-0.36446875,-0.77309375,1.3053125,0.016954761223759496,0.022703563215635915,True
61121,95867,0,95868,3560.0,38666.0,25390.0,-0.003477,0.003477,-0.000244,0.5950000000000001,-0.77,-3.535,1.08828125,0.04884375,-0.20296875,1.34965625,1.04921875,-0.36125,-0.7726875,1.3035625,0.016833854995125457,0.02299785802408398,True
61122,95868,0,95869,3563.0,38669.0,25388.0,-0.0008539999999999999,0.005612,0.000793,0.56,-1.0325000000000002,-3.5700000000000003,1.0888125,0.04840625,-0.20925,1.3490312500000001,1.055625,-0.36653125000000003,-0.77190625,1.28765625,0.017028993406683603,0.02271348213260738,True
61123,95869,0,95870,3561.0,38667.0,25390.0,0.003172,0.00366,0.000305,0.5075000000000001,-1.5225000000000002,-3.3600000000000003,1.09290625,0.049125,-0.209,1.35071875,1.05603125,-0.3660625,-0.7714375,1.2903125,0.017039581179765916,0.022705081204915944,True
61124,95870,0,95871,3564.0,38670.0,25389.0,0.003355,6.1e-05,-0.0008539999999999999,0.47250000000000003,-1.9425000000000001,-3.2375000000000003,1.0933125000000001,0.0483125,-0.20928125,1.3461875,1.04940625,-0.36971875,-0.772875,1.2874375,0.01715371663860503,0.0227504377267475,True
61125,95871,0,95872,3563.0,38669.0,25391.0,0.0030499999999999998,-0.000732,-0.00042699999999999997,0.5775,-1.9600000000000002,-3.2375000000000003,1.0794375,0.051437500000000004,-0.2085,1.344125,1.04325,-0.3696875,-0.7741875,1.28165625,0.01728068938101894,0.02283374580901997,True
61126,95872,0,95873,3564.0,38671.0,25392.0,0.004026,0.00244,0.000976,0.385,-1.6275000000000002,-3.6750000000000003,1.093625,0.051437500000000004,-0.20975,1.3446875,1.0386250000000001,-0.36303125,-0.775625,1.2922500000000001,0.017012199580050208,0.022839988900380918,True
61127,95873,0,95874,3564.0,38671.0,25392.0,0.0028669999999999998,0.001952,0.0025009999999999998,0.052500000000000005,-1.225,-3.7800000000000002,1.08596875,0.04609375,-0.21281250000000002,1.3426875,1.0327187500000001,-0.361,-0.7778437500000001,1.3013125,0.016710880095234186,0.022803891077083742,True
61128,95874,0,95875,3564.0,38671.0,25392.0,-0.004209,-0.001281,0.000915,-0.07,-1.0150000000000001,-3.7100000000000004,1.08515625,0.04525,-0.209625,1.34409375,1.032125,-0.368625,-0.7710625,1.2928125,0.016983929130182766,0.02266505524339136,True
61129,95875,0,95876,3563.0,38672.0,25393.0,-0.005429,-0.0032329999999999998,0.001037,0.035,-0.6475000000000001,-3.7625,1.08625,0.046375,-0.21331250000000002,1.3441875,1.0319375,-0.3653125,-0.78040625,1.30009375,0.016896458849029742,0.022884764046190727,True
61130,95876,0,95877,3563.0,38671.0,25393.0,-0.0037819999999999998,-0.0032329999999999998,0.0,0.1925,-0.4025,-3.8150000000000004,1.0805625,0.0490625,-0.21059375,1.34584375,1.03353125,-0.36121875000000003,-0.77425,1.3077812500000001,0.01684157324846484,0.022751697831417703,True
61131,95877,0,95878,3562.0,38673.0,25392.0,-0.001586,-0.0011589999999999999,-0.002013,0.1925,-0.7000000000000001,-4.2,1.08678125,0.04875,-0.21128125,1.34940625,1.02915625,-0.3619375,-0.76778125,1.2978750000000001,0.01685775197477623,0.0224687061946657,True
61132,95878,0,95879,3562.0,38675.0,25393.0,-0.002074,-0.0021349999999999997,-0.0017079999999999999,0.21000000000000002,-0.8750000000000001,-4.0425,1.09328125,0.04803125,-0.2095,1.3445625,1.04678125,-0.36512500000000003,-0.77275,1.2894375,0.016956869706188663,0.022736676388370288,True
61133,95879,0,95880,3560.0,38674.0,25392.0,-0.00244,0.000122,-0.000305,0.36750000000000005,-1.155,-4.0600000000000005,1.09490625,0.0478125,-0.21,1.34775,1.0415625,-0.3663125,-0.77209375,1.290875,0.016995801067559976,0.022690603211527088,True
61134,95880,0,95881,3558.0,38672.0,25392.0,-0.000122,0.00122,0.0013419999999999999,0.5075000000000001,-1.5750000000000002,-4.112500000000001,1.09240625,0.04890625,-0.20746875,1.3498125,1.04653125,-0.36412500000000003,-0.77253125,1.3001562500000001,0.016952435189033055,0.02281004287763286,True
61135,95881,0,95882,3559.0,38671.0,25393.0,0.001769,0.002074,0.001952,0.56,-2.0825,-4.1475,1.0871250000000001,0.04878125,-0.21153125,1.34365625,1.03903125,-0.36434375,-0.77459375,1.2935625,0.016956130821294952,0.02272741606509693,True
61136,95882,0,95883,3560.0,38671.0,25390.0,0.0015249999999999999,-0.000183,-0.000488,0.45500000000000007,-2.6250000000000004,-4.165,1.0896875,0.04884375,-0.20696875,1.3481875,1.03896875,-0.36628125,-0.7731875,1.3003125,0.017036863185677955,0.022856112076816922,True
61137,95883,0,95884,3559.0,38669.0,25389.0,0.0017079999999999999,0.000366,-0.0011589999999999999,0.6125,-2.765,-4.165,1.08625,0.04625,-0.20946875,1.33634375,1.0395,-0.36312500000000003,-0.77715625,1.29265625,0.01680305790000257,0.022911729428190534,True
61138,95884,0,95885,3559.0,38665.0,25389.0,0.002013,0.002074,-0.000793,0.7525000000000001,-2.9925,-4.2175,1.09353125,0.04859375,-0.20953125,1.349875,1.04684375,-0.36315625,-0.77190625,1.3004375000000001,0.016900519611452232,0.022702128545315323,True
61139,95885,0,95886,3558.0,38666.0,25387.0,0.001281,0.002379,-0.0021349999999999997,0.7875000000000001,-3.1325000000000003,-4.2525,1.08684375,0.046906250000000003,-0.20915625000000002,1.348875,1.03259375,-0.3659375,-0.77378125,1.29240625,0.016943478985776764,0.022791232162026134,True
61140,95886,0,95887,3558.0,38665.0,25385.0,0.0018909999999999999,0.0013419999999999999,-0.000305,0.8225000000000001,-3.0625000000000004,-4.2875000000000005,1.09396875,0.04871875,-0.21131250000000001,1.34409375,1.04684375,-0.36403125000000003,-0.77278125,1.2988125,0.01694095676387708,0.022664744193791317,True
61141,95887,0,95888,3558.0,38663.0,25387.0,-0.001403,0.000183,-0.00122,1.0150000000000001,-2.9575000000000005,-4.322500000000001,1.08640625,0.04621875,-0.20928125,1.34371875,1.0398125,-0.36596875,-0.77425,1.2988125,0.016916524199350788,0.022804676226323706,True
61142,95888,0,95889,3558.0,38664.0,25386.0,0.000915,0.0025009999999999998,0.000793,0.9275000000000001,-3.0100000000000002,-4.2700000000000005,1.0875000000000001,0.0495625,-0.21165625000000002,1.34384375,1.0410625,-0.36409375,-0.77765625,1.29221875,0.01697810943614515,0.022843161366402444,True
61143,95889,0,95890,3559.0,38664.0,25387.0,-0.003111,0.001037,0.004148,0.7875000000000001,-3.1850000000000005,-4.235,1.08625,0.0448125,-0.20959375,1.34265625,1.0393125,-0.36334375,-0.77375,1.2925,0.016752883109486975,0.022772339674050155,True
61144,95890,0,95891,3558.0,38664.0,25389.0,-0.0057339999999999995,-0.001037,0.0023179999999999997,0.6825000000000001,-3.2900000000000005,-4.2175,1.0958125,0.04628125,-0.2081875,1.3548437500000001,1.04709375,-0.36462500000000003,-0.77390625,1.29925,0.016864870688549485,0.022835266440874663,True
61145,95891,0,95892,3559.0,38665.0,25389.0,-0.0030499999999999998,-0.00244,0.000183,0.7350000000000001,-3.5700000000000003,-4.1475,1.08375,0.0494375,-0.2081875,1.35128125,1.04715625,-0.36325,-0.7733125000000001,1.3010625,0.01693893466594153,0.022811846417389686,True
61146,95892,0,95893,3560.0,38665.0,25391.0,0.002562,0.001281,-0.0034159999999999998,0.805,-4.340000000000001,-4.0075,1.0845,0.055656250000000004,-0.21125,1.3401875,1.03884375,-0.36340625,-0.7760312500000001,1.2925,0.01720048895051364,0.022795468907071226,True
61147,95893,0,95894,3559.0,38667.0,25394.0,-0.0008539999999999999,0.001098,-0.005307,1.1375000000000002,-4.6375,-3.9375000000000004,1.08534375,0.04440625,-0.2081875,1.34171875,1.03959375,-0.3655,-0.77415625,1.29221875,0.016823223410149597,0.022845127167549852,True
61148,95894,0,95895,3562.0,38668.0,25393.0,-6.1e-05,0.0021349999999999997,0.000183,1.2075,-4.760000000000001,-3.9200000000000004,1.09946875,0.0486875,-0.21165625000000002,1.3485625,1.0464375000000001,-0.36309375,-0.77565625,1.29846875,0.016901845645116396,0.02276428096632153,True
61149,95895,0,95896,3561.0,38667.0,25395.0,0.000793,0.0028669999999999998,0.005856,0.8575,-5.022500000000001,-3.8675,1.0838125,0.0496875,-0.213875,1.344375,1.0390625,-0.36284375,-0.776,1.283625,0.016932803667470058,0.022688287051985792,True
61150,95896,0,95897,3560.0,38670.0,25397.0,0.003843,0.0013419999999999999,0.00732,0.21000000000000002,-5.915000000000001,-3.9025000000000003,1.078875,0.04559375,-0.21196875,1.34203125,1.03896875,-0.363875,-0.777,1.28546875,0.016806388556828502,0.022804667635306936,True
61151,95897,0,95898,3562.0,38670.0,25396.0,0.004148,-0.0037819999999999998,-0.0011589999999999999,-0.1925,-7.7875000000000005,-3.5875000000000004,1.08484375,0.042,-0.212625,1.32903125,1.04109375,-0.3604375,-0.77409375,1.29165625,0.01652012612663463,0.02266354344444991,True
61152,95898,0,95899,3560.0,38672.0,25399.0,0.004941,-0.0026839999999999998,-0.0057339999999999995,-0.035,-8.33,-3.6925000000000003,1.0845,0.049625,-0.21153125,1.351375,1.03975,-0.363375,-0.7738125,1.29534375,0.016951674388298008,0.022696597465569745,True
61153,95899,0,95900,3559.0,38673.0,25398.0,0.013054,0.0018909999999999999,-0.008601,0.052500000000000005,-9.135000000000002,-4.305000000000001,1.09828125,0.043312500000000004,-0.21034375,1.34625,1.0436875,-0.36290625,-0.76878125,1.29340625,0.0166736573145907,0.02254602252583582,True
61154,95900,0,95901,3560.0,38675.0,25400.0,0.010492,-0.0025009999999999998,-0.005063,0.3325,-8.680000000000001,-4.2700000000000005,1.0841875,0.04803125,-0.2081875,1.34225,1.0391875,-0.3634375,-0.7731250000000001,1.297625,0.016888780575401153,0.02280445038726443,True
61155,95901,0,95902,3559.0,38675.0,25401.0,-0.0025009999999999998,-0.005124,0.000732,0.56,-7.892500000000001,-4.1825,1.08890625,0.04646875,-0.21078125,1.3436875,1.04353125,-0.3638125,-0.773375,1.29340625,0.01683978030942407,0.022709612638568622,True
61156,95902,0,95903,3560.0,38676.0,25404.0,-0.008052,0.0053679999999999995,0.004514,0.8225000000000001,-8.295,-4.7075000000000005,1.08684375,0.04959375,-0.21090625000000002,1.35171875,1.03996875,-0.36325,-0.7763125,1.30084375,0.0169453480139144,0.022820435849765775,True
61157,95903,0,95904,3559.0,38680.0,25406.0,-0.00549,0.0046359999999999995,0.0013419999999999999,0.7175,-9.520000000000001,-4.6375,1.08915625,0.0481875,-0.20890625000000002,1.347,1.04259375,-0.3630625,-0.7731250000000001,1.2935,0.016880061773843085,0.022775437091606326,True
61158,95904,0,95905,3561.0,38679.0,25408.0,-6.1e-05,0.000976,0.001647,0.5425000000000001,-10.255,-4.550000000000001,1.09371875,0.0448125,-0.21003125,1.3426875,1.05084375,-0.370125,-0.77309375,1.29340625,0.017026482219520824,0.02272879220020713,True
61159,95905,0,95906,3560.0,38681.0,25412.0,0.0032329999999999998,-0.000244,0.003172,0.24500000000000002,-10.675,-4.532500000000001,1.08671875,0.05334375,-0.209875,1.3444375,1.036375,-0.36203125,-0.76984375,1.27025,0.017050097167082487,0.02260687453872211,True
61160,95906,0,95907,3561.0,38682.0,25412.0,0.006527,-0.002074,-0.000183,0.07,-10.832500000000001,-4.2525,1.08678125,0.0489375,-0.21134375,1.34525,1.02828125,-0.35928125,-0.7674062500000001,1.29840625,0.016758242815559266,0.02245138204570776,True
61161,95907,0,95908,3560.0,38684.0,25412.0,0.012017,-0.0044529999999999995,0.00244,0.42000000000000004,-9.992500000000001,-3.7975000000000003,1.08465625,0.047531250000000004,-0.21228125,1.3353125000000001,1.05684375,-0.3688125,-0.78178125,1.303375,0.017085106219271045,0.022980591841032412,True
61162,95908,0,95909,3561.0,38681.0,25412.0,0.013237,-0.001769,0.003111,0.49000000000000005,-9.030000000000001,-3.9725000000000006,1.0871250000000001,0.0490625,-0.20878125,1.33765625,1.0455625,-0.36359375,-0.768875,1.2816875,0.016937413020195347,0.02261280538579164,True
61163,95909,0,95910,3561.0,38681.0,25416.0,0.014884,-0.0021349999999999997,0.0055509999999999995,0.36750000000000005,-7.9625,-3.99,1.09259375,0.0493125,-0.2119375,1.3390312500000001,1.0365,-0.3658125,-0.7765625,1.30440625,0.017037190941200913,0.022788673771835785,True
61164,95910,0,95911,3559.0,38680.0,25417.0,0.009089,-0.001098,0.003355,0.29750000000000004,-6.807500000000001,-4.2,1.0868125,0.04878125,-0.20921875,1.3451250000000001,1.04303125,-0.36428125,-0.77134375,1.278125,0.016953609087072906,0.02269255175145676,True
61165,95911,0,95912,3561.0,38682.0,25417.0,0.002745,0.000488,-0.001098,0.24500000000000002,-5.53,-4.340000000000001,1.0870312500000001,0.0484375,-0.21306250000000002,1.3370625,1.02603125,-0.35834375,-0.77665625,1.3177812500000001,0.016699873118425797,0.022746965704865847,True
61166,95912,0,95913,3560.0,38685.0,25418.0,-0.006405,0.002196,0.0026839999999999998,0.4025,-3.3950000000000005,-4.742500000000001,1.0870625,0.0484375,-0.20921875,1.3438125,1.04509375,-0.36140625,-0.76890625,1.2743125,0.01682348489221553,0.022596375243658567,True
61167,95913,0,95914,3563.0,38684.0,25419.0,-0.010248,0.0013419999999999999,-0.000488,0.42000000000000004,-2.9225000000000003,-4.795000000000001,1.08746875,0.04675,-0.20975,1.3508437500000001,1.02665625,-0.363875,-0.77509375,1.30446875,0.01685384611438041,0.02281903575036926,True
61168,95914,0,95915,3563.0,38683.0,25420.0,-0.008662,0.001952,0.0017079999999999999,0.28,-2.0825,-4.952500000000001,1.09390625,0.047593750000000004,-0.2093125,1.3441875,1.05909375,-0.37553125,-0.7722187500000001,1.28190625,0.017358596030599333,0.022723287553723867,True
61169,95915,0,95916,3563.0,38687.0,25421.0,-0.008723,0.000488,0.0050019999999999995,0.08750000000000001,-1.3125000000000002,-4.9,1.0941875,0.04534375,-0.21228125,1.3416875,1.04546875,-0.37146875,-0.7810625,1.29065625,0.017102477666636324,0.02295225436762447,True
61170,95916,0,95917,3561.0,38687.0,25422.0,-0.011163,-0.002928,0.005612,0.07,-0.8575,-4.62,1.08784375,0.0480625,-0.21225,1.33659375,1.0288125000000001,-0.3634375,-0.7711250000000001,1.293,0.016890063235124354,0.0225615509993995,True
61171,95917,0,95918,3563.0,38687.0,25421.0,-0.00183,-0.00061,-0.002989,0.2625,-0.9100000000000001,-4.322500000000001,1.08628125,0.04878125,-0.21128125,1.3498125,1.035375,-0.3644375,-0.77559375,1.29975,0.016959913398370063,0.022776951611906376,True
61172,95918,0,95919,3563.0,38686.0,25421.0,-0.001037,0.000122,-0.005856,0.2625,-0.9625000000000001,-4.0600000000000005,1.0871250000000001,0.04884375,-0.20921875,1.34853125,1.038875,-0.36271875000000003,-0.77540625,1.3015,0.016893126921641292,0.022852803876828455,True
61173,95919,0,95920,3563.0,38687.0,25423.0,0.003538,-0.001037,-0.007808,0.3325,-1.5225000000000002,-4.0075,1.0931250000000001,0.0486875,-0.208375,1.343625,1.0399375,-0.36362500000000003,-0.7741875,1.29471875,0.016923282147053242,0.02283879138316847,True
61174,95920,0,95921,3564.0,38686.0,25425.0,0.007137,0.00061,-0.006527,0.49000000000000005,-2.1700000000000004,-4.165,1.0920625,0.045875,-0.2116875,1.34465625,1.047,-0.367375,-0.77509375,1.293625,0.01695915132426041,0.022740832211785272,True
61175,95921,0,95922,3566.0,38687.0,25425.0,0.007869,0.0023179999999999997,-0.005063,0.42000000000000004,-2.765,-4.1825,1.085875,0.04840625,-0.21096875,1.3493125000000001,1.039625,-0.36571875,-0.7762187500000001,1.293375,0.016996215225541008,0.022814215748720737,True
61176,95922,0,95923,3566.0,38690.0,25424.0,0.004514,0.002196,0.0037819999999999998,0.21000000000000002,-2.765,-4.0075,1.09146875,0.04671875,-0.2094375,1.34459375,1.042375,-0.363375,-0.77090625,1.29340625,0.016832386728029267,0.02266645977072397,True
61177,95923,0,95924,3565.0,38691.0,25421.0,0.002745,0.0011589999999999999,0.009821,0.12250000000000001,-2.3800000000000003,-3.8150000000000004,1.0871875,0.048125,-0.20840625000000002,1.35053125,1.04040625,-0.3639375,-0.7765,1.3025,0.016912804016181705,0.02292873287187456,True
61178,95924,0,95925,3565.0,38693.0,25424.0,0.001769,-0.000305,0.007442,0.0,-1.8200000000000003,-3.6925000000000003,1.09234375,0.0459375,-0.2095625,1.3515625,1.045625,-0.36665625,-0.77653125,1.298625,0.01693271927698328,0.022883298080719025,True
61179,95925,0,95926,3566.0,38694.0,25426.0,0.002196,-0.0011589999999999999,0.003172,-0.0175,-1.5750000000000002,-3.6400000000000006,1.08,0.048625,-0.20896875,1.34515625,1.04153125,-0.36359375,-0.7733125000000001,1.29359375,0.016919455899234898,0.022780310465142683,True
61180,95926,0,95927,3566.0,38694.0,25424.0,0.000366,-0.002379,-0.00042699999999999997,-0.035,-1.05,-3.5700000000000003,1.087,0.04665625,-0.2161875,1.34971875,1.0421875,-0.3653125,-0.77496875,1.29275,0.016908001898190306,0.022554266592162704,True
61181,95927,0,95928,3567.0,38694.0,25424.0,-0.002196,0.00042699999999999997,-0.0066489999999999995,0.385,-0.08750000000000001,-3.6050000000000004,1.08565625,0.0545,-0.2076875,1.34428125,1.03875,-0.359,-0.7731875,1.30103125,0.01697524528921548,0.02282709885435615,True
61182,95928,0,95929,3569.0,38695.0,25423.0,-0.002989,0.004148,-0.0077469999999999995,0.49000000000000005,-0.08750000000000001,-3.6400000000000006,1.10390625,0.04609375,-0.2058125,1.33884375,1.044875,-0.3639375,-0.7733125000000001,1.2998750000000001,0.016829432845163063,0.022907715712220566,True
61183,95929,0,95930,3569.0,38694.0,25424.0,-0.0042699999999999995,0.0048189999999999995,-0.005246,0.5775,-0.2625,-3.6050000000000004,1.0958125,0.043125000000000004,-0.21053125,1.33909375,1.0453125,-0.35621875000000003,-0.773625,1.29109375,0.016395966635830945,0.02272956622214149,True
61184,95930,0,95931,3568.0,38694.0,25423.0,-0.004758,0.0032329999999999998,-0.0018909999999999999,0.36750000000000005,-0.5075000000000001,-3.5875000000000004,1.079625,0.04621875,-0.21503125,1.3445,1.0359375,-0.36265625,-0.77378125,1.293875,0.016782857985774845,0.022554086288301266,True
61185,95931,0,95932,3567.0,38696.0,25424.0,-0.003721,-0.003965,0.002928,0.21000000000000002,-0.7175,-3.3425000000000002,1.07984375,0.04540625,-0.21571875000000001,1.35890625,1.03925,-0.36212500000000003,-0.77415625,1.29284375,0.01672806661980431,0.022541130941644075,True
61186,95932,0,95933,3566.0,38694.0,25424.0,-0.000366,-0.0060999999999999995,0.0026839999999999998,-0.10500000000000001,-1.7500000000000002,-3.3600000000000003,1.0720625,0.050375,-0.20603125,1.35625,1.03903125,-0.3635,-0.77475,1.29915625,0.016987501795719007,0.022955579773761593,True
61187,95933,0,95934,3565.0,38694.0,25422.0,0.003355,-0.0051849999999999995,0.003172,0.052500000000000005,-1.9425000000000001,-3.3425000000000002,1.1055625,0.04590625,-0.2074375,1.3390625,1.04028125,-0.3633125,-0.77375,1.29296875,0.01679651525218502,0.02285937736515465,True
61188,95934,0,95935,3564.0,38693.0,25419.0,0.004148,-0.0040869999999999995,0.002623,0.0175,-1.8375000000000001,-3.3950000000000005,1.08071875,0.04540625,-0.21665625,1.35071875,1.04559375,-0.3654375,-0.7745625,1.29346875,0.016861743196689986,0.022519317949610613,True
61189,95935,0,95936,3566.0,38693.0,25418.0,0.003355,-0.0018909999999999999,0.0008539999999999999,0.22750000000000004,-1.7675,-3.3950000000000005,1.05375,0.06090625,-0.207125,1.35234375,1.03975,-0.3629375,-0.77609375,1.2955,0.01739707085814262,0.022964425132593794,True
61190,95936,0,95937,3564.0,38690.0,25416.0,0.000244,0.0028669999999999998,-0.0023179999999999997,0.5775,-1.7850000000000001,-3.5700000000000003,1.10196875,0.047531250000000004,-0.20565625,1.3518125,1.04,-0.3630625,-0.773625,1.29065625,0.01685312550505504,0.02292634808188144,True
61191,95937,0,95938,3566.0,38688.0,25415.0,0.000122,0.0035989999999999998,-0.002562,0.7000000000000001,-1.8900000000000001,-3.535,1.0954375,0.05115625,-0.20621875,1.34659375,1.04125,-0.36396875,-0.77371875,1.3010625,0.01703848023528597,0.02290734006173377,True
61192,95938,0,95939,3562.0,38686.0,25412.0,-0.000549,0.0040869999999999995,-0.002196,0.77,-1.7325000000000002,-3.5000000000000004,1.09434375,0.04775,-0.20771875,1.34934375,1.0458125,-0.36275,-0.77325,1.3003437500000001,0.01684949359165119,0.022828302705539243,True
61193,95939,0,95940,3561.0,38684.0,25410.0,-0.000183,0.0032329999999999998,0.000549,0.805,-1.54,-3.6575,1.0875000000000001,0.04921875,-0.21240625,1.3441875,1.0398125,-0.3614375,-0.7761250000000001,1.29315625,0.01685681520230487,0.022752498625188564,True
61194,95940,0,95941,3561.0,38682.0,25411.0,-0.001098,0.0028669999999999998,0.003965,0.5425000000000001,-1.1900000000000002,-3.7975000000000003,1.091,0.04521875,-0.20990625000000002,1.3425625,1.04221875,-0.366875,-0.7733125000000001,1.29259375,0.01691204760561213,0.022742467322446287,True
61195,95941,0,95942,3562.0,38681.0,25410.0,-0.003355,-0.000915,0.003172,0.31500000000000006,-1.1025,-3.7625,1.0881875,0.04575,-0.2124375,1.343625,1.04671875,-0.36503125000000003,-0.77465625,1.2944375000000001,0.01685945918907861,0.022693301748636773,True
61196,95942,0,95943,3561.0,38679.0,25409.0,-0.002074,-0.00061,0.000915,0.28,-1.4175000000000002,-3.8325000000000005,1.08571875,0.0494375,-0.20534375,1.351875,1.03928125,-0.36,-0.7753125000000001,1.2990625,0.016807779146141216,0.023005512039454605,True
61197,95943,0,95944,3562.0,38679.0,25409.0,-0.0006709999999999999,-0.001098,-0.002074,0.035,-1.6800000000000002,-3.8500000000000005,1.08259375,0.04875,-0.209625,1.34421875,1.04009375,-0.363375,-0.77171875,1.29371875,0.01691575982391602,0.022690946707119384,True
61198,95944,0,95945,3560.0,38675.0,25407.0,-0.0008539999999999999,-0.0030499999999999998,-0.0025009999999999998,0.12250000000000001,-1.9250000000000003,-3.7100000000000004,1.087375,0.04971875,-0.208375,1.34853125,1.03953125,-0.362875,-0.77615625,1.3002500000000001,0.01693534732661888,0.02291643805725515,True
61199,95945,0,95946,3560.0,38677.0,25405.0,0.000549,-0.0023179999999999997,-0.001037,0.28,-2.1525000000000003,-3.7625,1.0935,0.0486875,-0.209125,1.34409375,1.0419375,-0.36384375,-0.77375,1.2939375,0.016932108670250356,0.022791260911246787,True
61200,95946,0,95947,3560.0,38673.0,25405.0,0.002257,-0.0015249999999999999,0.000976,0.42000000000000004,-2.4325,-3.9200000000000004,1.08671875,0.049375,-0.2088125,1.34428125,1.033625,-0.3633125,-0.77609375,1.2964375000000001,0.016938891211940085,0.022896315122314225,True
