frame_seq,absolute_seq_u64,segment_id,sample_seq,PPG_G,PPG_R,PPG_IR,ACC_X,ACC_Y,ACC_Z,GYRO_X,GYRO_Y,GYRO_Z,Uh1,Uh2,Uh3,Uh4,Uc1,Uc2,Uc3,Uc4,UD1,UD2,parser_valid
33776,75052,0,75053,2527.0,36548.0,25725.0,-0.005124,-0.005307,-0.000244,0.07,-0.31500000000000006,-3.9200000000000004,0.9134375,-0.052000000000000005,-0.41746875,0.95434375,0.8905937500000001,-0.49384375,-1.00853125,0.891625,0.01803897152728428,0.023634434749141855,True
33777,75053,0,75054,2529.0,36547.0,25728.0,-0.002379,-0.002013,-0.00244,-0.052500000000000005,-0.6300000000000001,-3.6925000000000003,0.914375,-0.051875000000000004,-0.41878125,0.95628125,0.89071875,-0.48934375,-1.00609375,0.880875,0.01786363711767491,0.023486775098569723,True
33778,75054,0,75055,2532.0,36550.0,25731.0,-0.0051849999999999995,0.004392,0.000183,0.43750000000000006,-0.9625000000000001,-3.99,0.9145,-0.05353125,-0.420625,0.96125,0.87234375,-0.48659375,-1.00159375,0.875125,0.017685697913781905,0.023237268624125212,True
33779,75055,0,75056,2531.0,36551.0,25732.0,-0.003294,0.002196,0.0021349999999999997,0.45500000000000007,-1.155,-4.025,0.91109375,-0.047656250000000004,-0.41934375,0.95746875,0.8678750000000001,-0.4874375,-1.0013125,0.8765937500000001,0.01795946390878997,0.023277527929783687,True
33780,75056,0,75057,2533.0,36553.0,25738.0,0.0017079999999999999,-0.001403,0.003294,0.35000000000000003,-1.6450000000000002,-4.0075,0.91440625,-0.054843750000000004,-0.42015625,0.95503125,0.87953125,-0.48962500000000003,-0.99853125,0.87875,0.01775369161430606,0.02313635926110659,True
33781,75057,0,75058,2534.0,36553.0,25739.0,0.0064659999999999995,0.00042699999999999997,0.0017079999999999999,0.36750000000000005,-1.8725000000000003,-4.095000000000001,0.9208437500000001,-0.0496875,-0.41431250000000003,0.961375,0.87165625,-0.4869375,-1.0049375,0.87690625,0.017856459183595335,0.02362033498384069,True
33782,75058,0,75059,2536.0,36553.0,25738.0,0.008662,0.005429,-0.000244,0.36750000000000005,-1.2950000000000002,-4.2,0.92034375,-0.053125,-0.41734375,0.955375,0.8748750000000001,-0.48778125,-1.00534375,0.87609375,0.017749923750237682,0.0235149736743771,True
33783,75059,0,75060,2537.0,36552.0,25737.0,0.005124,0.003477,-0.002928,0.17500000000000002,-0.5950000000000001,-4.235,0.91371875,-0.05278125,-0.41931250000000003,0.96075,0.8749687500000001,-0.49071875000000004,-1.00284375,0.879125,0.017881774090439874,0.023338595234792044,True
33784,75060,0,75061,2538.0,36550.0,25735.0,0.001586,0.000122,-0.0037819999999999998,0.08750000000000001,0.08750000000000001,-4.3925,0.9193125,-0.05246875,-0.41859375,0.95946875,0.8746875000000001,-0.487,-1.0043125,0.87090625,0.01774538530648916,0.0234247092376565,True
33785,75061,0,75062,2535.0,36545.0,25727.0,0.000976,-0.001586,-0.0037819999999999998,-0.07,0.5425000000000001,-4.532500000000001,0.91796875,-0.05309375,-0.41581250000000003,0.95609375,0.87153125,-0.4874375,-1.0049062500000001,0.8765625,0.017737411274658693,0.023559126521420174,True
33786,75062,0,75063,2536.0,36540.0,25721.0,-0.001952,-0.003172,-0.0050019999999999995,-0.21000000000000002,0.9975,-4.550000000000001,0.905,-0.05184375,-0.41653125,0.9450625,0.87121875,-0.4870625,-1.00459375,0.87609375,0.01777341606409507,0.023518178534694244,True
33787,75063,0,75064,2533.0,36537.0,25710.0,-0.004758,-0.003172,0.000366,0.052500000000000005,1.8900000000000001,-4.532500000000001,0.91409375,-0.05203125,-0.417,0.95553125,0.87109375,-0.48740625,-1.00590625,0.8768125,0.01777954739489814,0.023550686150396967,True
33788,75064,0,75065,2528.0,36531.0,25702.0,-0.007503,-0.002379,0.0017079999999999999,0.14,2.0125,-4.375,0.9141875,-0.05140625,-0.41746875,0.9560000000000001,0.87184375,-0.48762500000000003,-1.00634375,0.87690625,0.017813844748112567,0.02354902443504961,True
33789,75065,0,75066,2524.0,36530.0,25694.0,-0.007686,0.001098,0.003904,0.21000000000000002,2.1875,-4.305000000000001,0.91478125,-0.051625000000000004,-0.41778125,0.95034375,0.87215625,-0.48778125,-1.0089062500000001,0.88284375,0.017811178789421764,0.02363657946856433,True
33790,75066,0,75067,2520.0,36525.0,25689.0,-0.005856,0.003294,0.0053679999999999995,0.1925,1.9425000000000001,-4.340000000000001,0.9133125,-0.05278125,-0.41646875,0.9536250000000001,0.8788750000000001,-0.4883125,-1.00634375,0.87984375,0.017785270014011787,0.023589014287624523,True
33791,75067,0,75068,2516.0,36523.0,25683.0,-0.003843,0.0051849999999999995,0.004026,0.21000000000000002,1.5050000000000001,-4.375,0.9126875,-0.051437500000000004,-0.4166875,0.949125,0.872375,-0.488,-1.006625,0.8785000000000001,0.01782760944135903,0.02359124831919542,True
33792,75068,0,75069,2511.0,36519.0,25676.0,-0.002379,0.00244,0.000366,0.14,0.6825000000000001,-4.357500000000001,0.9071250000000001,-0.05071875,-0.41746875,0.94003125,0.87421875,-0.488875,-1.0065625,0.876625,0.01789205302407726,0.023557566138888538,True
33793,75069,0,75070,2508.0,36517.0,25671.0,-0.003721,0.0,-0.000549,0.0,0.21000000000000002,-4.305000000000001,0.90790625,-0.05034375,-0.4145625,0.94753125,0.86984375,-0.48709375,-1.00653125,0.8765625,0.017835926323433133,0.02367256554225209,True
33794,75070,0,75071,2502.0,36512.0,25667.0,-0.003538,-0.002379,-0.00061,0.07,-0.2625,-4.112500000000001,0.90653125,-0.05059375,-0.42181250000000003,0.9706875,0.86246875,-0.48815625,-1.0088125000000001,0.88421875,0.017868331757316357,0.023471726216508684,True
33795,75071,0,75072,2500.0,36508.0,25661.0,-0.003721,-0.0032329999999999998,0.001098,0.08750000000000001,-1.0150000000000001,-4.025,0.9277500000000001,-0.05690625,-0.41609375,0.95028125,0.875375,-0.4871875,-1.00265625,0.8765625,0.017571689276279688,0.023460007374216493,True
33796,75072,0,75073,2499.0,36503.0,25655.0,-0.002074,-0.001647,0.001098,0.14,-1.8550000000000002,-3.9725000000000006,0.9084375,-0.04803125,-0.42378125,0.9695,0.87153125,-0.49062500000000003,-1.008125,0.883,0.018071966313640424,0.023366155999300225,True
33797,75073,0,75074,2495.0,36497.0,25650.0,0.0042699999999999995,-0.001952,-0.000122,0.24500000000000002,-3.3075,-3.5525,0.90925,-0.054843750000000004,-0.4140625,0.9606875,0.87075,-0.48681250000000004,-1.00625,0.87690625,0.01764087302093729,0.023681579605098726,True
33798,75074,0,75075,2495.0,36493.0,25647.0,0.007991,-0.0015249999999999999,-0.000244,0.385,-3.8850000000000002,-3.3950000000000005,0.9290625,-0.051125000000000004,-0.4225,0.97428125,0.87125,-0.487875,-1.00775,0.8818125,0.017835357294171093,0.023402745149003805,True
33799,75075,0,75076,2494.0,36491.0,25645.0,0.008173999999999999,-0.001647,6.1e-05,0.43750000000000006,-4.2700000000000005,-3.3425000000000002,0.92790625,-0.058375,-0.4255,0.9676875,0.8797812500000001,-0.49009375,-1.00884375,0.88021875,0.01762830123914899,0.02332549860486853,True
33800,75076,0,75077,2494.0,36485.0,25645.0,0.008601,-0.001037,0.0008539999999999999,0.5425000000000001,-4.2700000000000005,-3.2375000000000003,0.93090625,-0.058125,-0.4226875,0.96915625,0.880375,-0.4895625,-1.0078125,0.8721875,0.01761719916392953,0.02339768822243049,True
33801,75077,0,75078,2493.0,36486.0,25642.0,0.0060999999999999995,-0.000305,0.001281,0.49000000000000005,-4.165,-3.325,0.9276562500000001,-0.0550625,-0.4154375,0.95328125,0.87071875,-0.48721875000000003,-1.00625,0.8738125,0.01764823740956698,0.023626593351662086,True
33802,75078,0,75079,2494.0,36485.0,25643.0,-0.004026,-0.002196,0.000122,0.31500000000000006,-4.2,-3.3600000000000003,0.9136562500000001,-0.050812500000000003,-0.413875,0.94940625,0.8713125,-0.4865,-1.004375,0.8758750000000001,0.017792967553549918,0.023615867223235935,True
33803,75079,0,75080,2494.0,36486.0,25648.0,-0.0066489999999999995,-0.0008539999999999999,-0.0042699999999999995,0.47250000000000003,-4.6375,-3.43,0.909375,-0.05159375,-0.41509375,0.95359375,0.87028125,-0.48762500000000003,-1.0061875,0.876,0.01780618781935774,0.02363789961984409,True
33804,75080,0,75081,2497.0,36490.0,25651.0,-0.004697,0.0028669999999999998,-0.0075639999999999995,0.5425000000000001,-5.355,-3.5875000000000004,0.90465625,-0.05375,-0.41734375,0.95615625,0.86159375,-0.48809375,-1.00615625,0.86828125,0.017736935934427316,0.023546701624724914,True
33805,75081,0,75082,2497.0,36490.0,25656.0,-0.000244,0.003721,-0.0059169999999999995,0.7175,-5.880000000000001,-3.6050000000000004,0.9138437500000001,-0.05203125,-0.417375,0.9465625,0.85840625,-0.488375,-1.00684375,0.8779375,0.017818403630293966,0.02357229708367334,True
33806,75082,0,75083,2499.0,36491.0,25657.0,0.0055509999999999995,0.003355,-0.004697,0.8400000000000001,-6.072500000000001,-3.5875000000000004,0.91346875,-0.052125,-0.41996875,0.961,0.87175,-0.487375,-1.0055625,0.86665625,0.01777446541329971,0.023418539374989063,True
33807,75083,0,75084,2500.0,36491.0,25657.0,0.008052,-0.0013419999999999999,0.0026839999999999998,0.6825000000000001,-5.355,-3.2900000000000005,0.919,-0.055125,-0.4195,0.96221875,0.87115625,-0.48784375,-1.006375,0.8764375,0.017670757557002138,0.02346901540107273,True
33808,75084,0,75085,2498.0,36490.0,25656.0,0.006161,-0.002745,0.0040869999999999995,0.6300000000000001,-4.515000000000001,-3.2550000000000003,0.9215625000000001,-0.0554375,-0.42103125,0.96215625,0.86453125,-0.48725,-1.0053750000000001,0.8755937500000001,0.01763417696964747,0.023368725723969353,True
33809,75085,0,75086,2501.0,36488.0,25657.0,0.0042699999999999995,-0.005124,-0.0011589999999999999,0.385,-3.8675,-3.4125000000000005,0.9214375,-0.05421875,-0.419375,0.95740625,0.87234375,-0.48575,-1.0056875,0.8765937500000001,0.01762377096882881,0.023447165769787375,True
33810,75086,0,75087,2499.0,36489.0,25660.0,0.0050019999999999995,-0.00366,0.010003999999999999,0.525,-3.1500000000000004,-3.43,0.92009375,-0.05346875,-0.42078125,0.9636875,0.87153125,-0.48321875000000003,-1.00696875,0.87665625,0.017552839125778756,0.023440965830774672,True
33811,75087,0,75088,2502.0,36492.0,25662.0,-0.0060999999999999995,0.00122,0.011712,1.225,-2.6950000000000003,-3.1500000000000004,0.920875,-0.0549375,-0.42028125,0.9635,0.8717812500000001,-0.4874375,-1.0069375,0.8765937500000001,0.017662117565384293,0.023459739922171603,True
33812,75088,0,75089,2502.0,36489.0,25660.0,0.006527,0.0011589999999999999,-0.005978,-0.0175,-2.5200000000000005,-3.9550000000000005,0.92034375,-0.05459375,-0.41778125,0.957875,0.87146875,-0.482375,-1.00696875,0.87609375,0.017473029066828686,0.02356093239009626,True
33813,75089,0,75090,2500.0,36489.0,25662.0,0.017446,-0.001647,-0.010675,-0.035,-2.45,-4.515000000000001,0.9096875,-0.051937500000000004,-0.41781250000000003,0.95746875,0.87071875,-0.48781250000000004,-1.007625,0.87675,0.01779967075458455,0.023585306481523134,True
33814,75090,0,75091,2502.0,36491.0,25662.0,0.008905999999999999,0.002928,-0.0073809999999999995,0.31500000000000006,-1.5050000000000001,-4.340000000000001,0.9086875,-0.056125,-0.41978125,0.9617187500000001,0.8714375,-0.48459375,-1.0070000000000001,0.8778125,0.017499524573488176,0.02348217499100252,True
33815,75091,0,75092,2501.0,36492.0,25663.0,-0.008418,0.0062829999999999995,0.000366,0.6475000000000001,-0.21000000000000002,-3.9375000000000004,0.91603125,-0.05284375,-0.41809375,0.9556875,0.87953125,-0.49046875,-1.009875,0.8830625,0.01786919656243819,0.023661903548098506,True
33816,75092,0,75093,2501.0,36493.0,25665.0,-0.012017,0.006039,0.002074,0.5950000000000001,0.665,-3.9025000000000003,0.9136562500000001,-0.0524375,-0.418,0.9543125,0.87584375,-0.48728125,-1.0074375,0.87625,0.017757943217971573,0.023570487779885484,True
33817,75093,0,75094,2502.0,36493.0,25666.0,-0.00183,-0.000366,-0.0013419999999999999,0.31500000000000006,1.3125000000000002,-4.235,0.917875,-0.05625,-0.42196875,0.95503125,0.871,-0.48771875000000003,-1.007125,0.88196875,0.017619801762873484,0.02339958111938098,True
33818,75094,0,75095,2502.0,36494.0,25666.0,-0.0046359999999999995,-0.001647,0.001952,0.31500000000000006,1.5925000000000002,-4.077500000000001,0.9134375,-0.052625,-0.41978125,0.94559375,0.879,-0.4879375,-1.00771875,0.8759375,0.017776609402078064,0.02351024121302548,True
33819,75095,0,75096,2502.0,36494.0,25668.0,-0.007991,-0.0044529999999999995,0.0040869999999999995,0.24500000000000002,2.0125,-4.077500000000001,0.918,-0.05121875,-0.41721875,0.95921875,0.85846875,-0.48096875,-1.0075,0.87621875,0.017554452374357123,0.023604168749375192,True
33820,75096,0,75097,2503.0,36497.0,25670.0,-0.006527,-0.004148,0.003721,0.17500000000000002,2.2750000000000004,-4.1825,0.9193125,-0.05353125,-0.41890625000000004,0.956375,0.8714375,-0.4871875,-1.00821875,0.87621875,0.017709516456310057,0.023564753087422504,True
33821,75097,0,75098,2504.0,36498.0,25671.0,-0.006527,-0.0040869999999999995,0.0034159999999999998,0.08750000000000001,2.24,-4.322500000000001,0.91396875,-0.05396875,-0.41740625000000003,0.95728125,0.87165625,-0.48809375,-1.00778125,0.8765937500000001,0.0177280030218767,0.02360765211827819,True
33822,75098,0,75099,2506.0,36502.0,25671.0,-0.0015249999999999999,-0.003843,0.0013419999999999999,0.10500000000000001,1.4700000000000002,-4.1475,0.9148437500000001,-0.05165625,-0.41815625,0.95559375,0.87040625,-0.48675,-1.00371875,0.87515625,0.01776853808692456,0.02341901642130733,True
33823,75099,0,75100,2505.0,36501.0,25673.0,0.0035989999999999998,-0.001586,-0.000122,0.21000000000000002,0.8225000000000001,-4.095000000000001,0.91425,-0.0525,-0.4180625,0.9556250000000001,0.8715625,-0.4875625,-1.00853125,0.88025,0.01776667236683929,0.02361069285106458,True
33824,75100,0,75101,2506.0,36499.0,25672.0,0.0073809999999999995,0.001769,-0.004758,0.24500000000000002,0.49000000000000005,-4.165,0.91409375,-0.05234375,-0.41725,0.95478125,0.87434375,-0.48753125,-1.0094375,0.8781875,0.01777179967866299,0.023678561343092982,True
33825,75101,0,75102,2506.0,36497.0,25672.0,0.005246,0.003538,-0.005429,0.31500000000000006,0.3325,-4.2175,0.914375,-0.0529375,-0.41931250000000003,0.95978125,0.8690625000000001,-0.48812500000000003,-1.0074375,0.8765937500000001,0.017771368775682094,0.023518003393990287,True
33826,75102,0,75103,2509.0,36497.0,25673.0,0.001464,0.003355,-0.002623,0.5075000000000001,0.42000000000000004,-4.077500000000001,0.9178437500000001,-0.0539375,-0.41846875,0.95559375,0.871125,-0.48715625,-1.00853125,0.882625,0.017691672547725912,0.023594448394485386,True
33827,75103,0,75104,2509.0,36497.0,25675.0,-0.000915,0.0034159999999999998,0.0021349999999999997,0.5425000000000001,0.805,-4.0075,0.914125,-0.05271875,-0.41853125,0.9561875,0.88253125,-0.49234375,-1.0093125,0.88771875,0.01794948676563467,0.02362245063713767,True
33828,75104,0,75105,2510.0,36497.0,25674.0,-0.001403,0.001281,0.005307,0.5950000000000001,1.0850000000000002,-3.9200000000000004,0.91453125,-0.05259375,-0.418375,0.95596875,0.8764375,-0.49171875000000004,-1.012125,0.88771875,0.017929529751765587,0.023738486833885564,True
33829,75105,0,75106,2509.0,36499.0,25677.0,-0.0042699999999999995,-0.000122,0.0035989999999999998,0.45500000000000007,1.155,-3.9725000000000006,0.91359375,-0.05240625,-0.41825,0.9544375,0.8840625,-0.49071875000000004,-1.00875,0.88615625,0.017897086013451528,0.02361173589243765,True
33830,75106,0,75107,2512.0,36499.0,25680.0,-0.007686,-0.001281,0.002074,0.385,1.1375000000000002,-3.8150000000000004,0.9151875,-0.052375,-0.41884375,0.9559062500000001,0.88471875,-0.48978125,-1.01259375,0.888,0.017860765906187914,0.023738041961361964,True
33831,75107,0,75108,2511.0,36503.0,25684.0,-0.012505,-0.00061,-0.000488,0.42000000000000004,0.8225000000000001,-3.6575,0.915125,-0.052625,-0.42234375,0.9808125,0.884375,-0.4896875,-1.0105625,0.88303125,0.017846797759260916,0.023518813301380167,True
33832,75108,0,75109,2513.0,36505.0,25688.0,-0.0070149999999999995,-0.002074,-0.002623,0.6475000000000001,-0.9800000000000001,-3.2550000000000003,0.94159375,-0.047,-0.4108125,0.94834375,0.87403125,-0.48621875000000003,-1.00609375,0.8744375,0.017937385697822373,0.023805447422190838,True
33833,75109,0,75110,2515.0,36506.0,25691.0,0.000305,-0.003904,0.00244,0.7875000000000001,-2.31,-2.975,0.9193125,-0.06390625,-0.4220625,0.96365625,0.87884375,-0.49303125000000003,-1.0101875,0.8740625,0.01752028957216147,0.023515417467382043,True
33834,75110,0,75111,2515.0,36507.0,25691.0,0.005429,-0.0025009999999999998,0.0042699999999999995,0.8225000000000001,-3.3075,-2.765,0.90071875,-0.0501875,-0.4094375,0.94621875,0.86784375,-0.482875,-1.00678125,0.875125,0.01767306739915145,0.023887270577855755,True
33835,75111,0,75112,2518.0,36508.0,25692.0,0.011101999999999999,-0.000366,0.005063,0.9800000000000001,-4.025,-2.6775,0.9095,-0.06271875,-0.42146875,0.970875,0.882125,-0.491375,-1.01003125,0.8890625,0.01750233500569078,0.023533057360734,True
33836,75112,0,75113,2519.0,36506.0,25691.0,0.003538,0.0018909999999999999,0.0030499999999999998,1.0325000000000002,-4.375,-2.66,0.93671875,-0.06303125,-0.42684375,0.970375,0.88409375,-0.4891875,-1.0061875,0.87571875,0.01740181253461349,0.023168015916060776,True
33837,75113,0,75114,2519.0,36506.0,25690.0,-0.0055509999999999995,0.004697,0.00061,0.8225000000000001,-5.32,-3.115,0.9265,-0.054625,-0.41878125,0.97375,0.8679687500000001,-0.4859375,-1.00575,0.8675,0.017614702316380577,0.02347335112924027,True
33838,75114,0,75115,2520.0,36504.0,25689.0,-0.004209,0.002196,-0.00671,0.665,-6.072500000000001,-3.5175000000000005,0.92040625,-0.05034375,-0.41178125,0.94403125,0.8680625000000001,-0.48612500000000003,-1.00059375,0.875375,0.017797068748117557,0.023551940641409766,True
33839,75115,0,75116,2519.0,36502.0,25680.0,0.0077469999999999995,-0.000732,-0.010369999999999999,0.77,-6.702500000000001,-3.4825000000000004,0.90215625,-0.04490625,-0.4145625,0.9451875000000001,0.87271875,-0.48862500000000003,-1.007125,0.8778750000000001,0.018119381957949866,0.023695746712187032,True
33840,75116,0,75117,2515.0,36493.0,25671.0,0.013725,-0.0025009999999999998,-0.009821,0.7350000000000001,-6.23,-3.2900000000000005,0.9014375,-0.05071875,-0.41584375,0.94746875,0.8735937500000001,-0.48834375,-1.00990625,0.8797812500000001,0.01787074717946166,0.023753087838943816,True
33841,75117,0,75118,2513.0,36487.0,25660.0,-0.0011589999999999999,0.0011589999999999999,-0.002074,0.7875000000000001,-4.1825,-3.3775000000000004,0.9079375000000001,-0.05221875,-0.4215625,0.9587187500000001,0.8768125,-0.49015625,-1.0098125,0.882625,0.01788218480639543,0.023520768098521327,True
33842,75118,0,75119,2508.0,36484.0,25652.0,6.1e-05,-0.001037,0.001647,0.56,-3.6050000000000004,-3.6050000000000004,0.9343125,-0.059875000000000005,-0.42584375,0.96509375,0.86565625,-0.49021875000000004,-1.00671875,0.87575,0.01757206639895775,0.02322875727148329,True
33843,75119,0,75120,2503.0,36479.0,25643.0,0.005124,-0.003111,0.003538,0.42000000000000004,-3.4125000000000005,-3.5875000000000004,0.927625,-0.055468750000000004,-0.4165625,0.95815625,0.8703125,-0.48712500000000003,-1.007125,0.8758750000000001,0.017627886082992594,0.023615769505690883,True
33844,75120,0,75121,2497.0,36475.0,25637.0,0.008357,-0.00244,0.001037,0.525,-3.22,-3.7275000000000005,0.91809375,-0.05184375,-0.41690625000000003,0.9575,0.87065625,-0.4875625,-1.0075625,0.8764375,0.017793471685881353,0.023619105220670743,True
33845,75121,0,75122,2494.0,36469.0,25627.0,0.006222,-0.000305,0.001586,0.5950000000000001,-2.5900000000000003,-3.9725000000000006,0.9137500000000001,-0.05240625,-0.4156875,0.95578125,0.8639687500000001,-0.48240625000000004,-1.00846875,0.8771875,0.01756363306813439,0.023703220534044094,True
33846,75122,0,75123,2489.0,36462.0,25620.0,-0.000305,0.00122,-0.001098,0.385,-0.77,-4.165,0.914125,-0.05203125,-0.418875,0.95596875,0.8788750000000001,-0.488,-1.01084375,0.88246875,0.017803362871610585,0.023668483795153853,True
33847,75123,0,75124,2486.0,36458.0,25614.0,-0.003477,0.001403,0.000915,0.385,0.052500000000000005,-4.130000000000001,0.91421875,-0.0521875,-0.41896875,0.9558125000000001,0.8693125,-0.48740625,-1.01046875,0.8795625,0.017773166563935287,0.023650096522081377,True
33848,75124,0,75125,2483.0,36453.0,25605.0,-0.006344,-6.1e-05,0.000732,0.3325,0.665,-4.095000000000001,0.91378125,-0.05275,-0.41896875,0.95503125,0.87728125,-0.48671875000000003,-1.010625,0.87125,0.017722617490348723,0.023656196116650426,True
33849,75125,0,75126,2480.0,36449.0,25600.0,-0.00549,-0.0032329999999999998,0.002074,0.35000000000000003,1.2950000000000002,-3.99,0.91334375,-0.0528125,-0.41884375,0.9573125,0.87925,-0.48853125000000003,-1.01,0.868,0.017792767787982385,0.023636795281887245,True
33850,75126,0,75127,2478.0,36444.0,25597.0,-0.006039,-0.002013,0.004148,0.2625,1.6450000000000002,-3.9025000000000003,0.9135,-0.05409375,-0.41346875,0.95565625,0.871375,-0.487375,-1.008,0.87340625,0.017694066840565802,0.023773642434420983,True
33851,75127,0,75128,2475.0,36444.0,25594.0,-0.0034159999999999998,0.003538,0.0013419999999999999,0.6300000000000001,1.995,-3.9550000000000005,0.91334375,-0.0523125,-0.41903125,0.95578125,0.87875,-0.49034375,-1.0075625,0.87725,0.01788587593834815,0.023534130925395066,True
33852,75128,0,75129,2475.0,36444.0,25593.0,-0.0017079999999999999,0.002379,0.000183,0.525,1.9775000000000003,-3.8850000000000002,0.91896875,-0.0568125,-0.42134375,0.96209375,0.87615625,-0.48762500000000003,-1.00684375,0.8768125,0.01759306996901496,0.023413590529592524,True
33853,75129,0,75130,2475.0,36442.0,25593.0,-0.003294,0.0006709999999999999,-0.001037,0.525,1.8725000000000003,-3.9200000000000004,0.91959375,-0.05225,-0.41903125,0.95628125,0.8666875,-0.48765625,-1.0106875,0.8837812500000001,0.01778064203265676,0.023656137001431887,True
33854,75130,0,75131,2474.0,36440.0,25590.0,-0.003904,0.0015249999999999999,-0.00061,0.47250000000000003,1.8725000000000003,-3.8675,0.9203125,-0.051687500000000004,-0.4211875,0.9559062500000001,0.87321875,-0.47978125,-1.00746875,0.8759687500000001,0.01748764605484373,0.023444246031498084,True
33855,75131,0,75132,2472.0,36441.0,25591.0,-0.003111,0.000976,-0.000976,0.385,1.715,-3.8325000000000005,0.9139375000000001,-0.04884375,-0.41846875,0.96121875,0.87925,-0.4914375,-1.00453125,0.8807812500000001,0.018071366778695617,0.0234382518168582,True
33856,75132,0,75133,2473.0,36440.0,25592.0,0.002379,-0.001281,0.000549,0.42000000000000004,1.2775,-3.7275000000000005,0.9216562500000001,-0.0560625,-0.42131250000000003,0.95996875,0.86628125,-0.48375,-1.00775,0.87625,0.017468218716495634,0.02345023042856714,True
33857,75133,0,75134,2475.0,36440.0,25594.0,0.002196,0.00042699999999999997,0.000793,0.45500000000000007,1.2950000000000002,-3.7800000000000002,0.9140625,-0.05296875,-0.41959375,0.9625,0.8723125,-0.4893125,-1.00921875,0.8794375,0.017817721506065143,0.023576306237075084,True
33858,75134,0,75135,2476.0,36442.0,25595.0,0.0015249999999999999,0.000366,-0.003172,0.35000000000000003,1.3825,-3.8500000000000005,0.92059375,-0.054125,-0.42031250000000003,0.9625625,0.86609375,-0.48740625,-1.0070937500000001,0.87653125,0.017694044259995892,0.023464591922042123,True
33859,75135,0,75136,2477.0,36439.0,25597.0,0.000732,-0.001464,-0.004331,0.42000000000000004,1.33,-3.8150000000000004,0.92090625,-0.055843750000000004,-0.42059375,0.9605,0.87134375,-0.48812500000000003,-1.00765625,0.8760625,0.017652688803246473,0.02347531068610238,True
33860,75136,0,75137,2478.0,36443.0,25599.0,-0.0025009999999999998,-0.0030499999999999998,-0.002196,0.42000000000000004,1.3825,-3.8675,0.92309375,-0.0559375,-0.42103125,0.96403125,0.8713125,-0.48709375,-1.00715625,0.87665625,0.017607489659731468,0.023438290789261573,True
33861,75137,0,75138,2478.0,36442.0,25599.0,-0.003294,0.000122,0.002928,0.7350000000000001,1.2600000000000002,-3.7100000000000004,0.92109375,-0.05465625,-0.42009375,0.95959375,0.8620625000000001,-0.4864375,-1.0073750000000001,0.87653125,0.01763348588376729,0.02348432212497314,True
33862,75138,0,75139,2481.0,36442.0,25599.0,-0.00042699999999999997,0.003965,0.005246,0.8750000000000001,0.9275000000000001,-3.8150000000000004,0.91971875,-0.0525625,-0.417625,0.9485,0.87184375,-0.487,-1.00815625,0.87603125,0.017741556744394985,0.02361354608059121,True
33863,75139,0,75140,2481.0,36441.0,25600.0,0.000122,0.003111,0.005429,0.7525000000000001,0.7525000000000001,-3.7625,0.914,-0.05321875,-0.4189375,0.9639062500000001,0.876625,-0.48996875,-1.01003125,0.8769375,0.017833832474776025,0.023634266750466374,True
33864,75140,0,75141,2481.0,36443.0,25601.0,0.0013419999999999999,0.001403,0.0051849999999999995,0.6300000000000001,0.6300000000000001,-3.7450000000000006,0.91853125,-0.05278125,-0.418,0.95615625,0.87125,-0.48753125,-1.0105,0.8809375,0.017753933443168144,0.02369005017892485,True
33865,75141,0,75142,2481.0,36439.0,25603.0,0.002013,0.000305,0.002013,0.56,0.5775,-3.7800000000000002,0.913875,-0.05328125,-0.41959375,0.96196875,0.8765625,-0.49034375,-1.0101875,0.87790625,0.017846319531550064,0.023614127243148417,True
33866,75142,0,75143,2482.0,36439.0,25603.0,0.002257,-0.00122,-0.00042699999999999997,0.47250000000000003,1.1375000000000002,-3.9025000000000003,0.9196875,-0.0536875,-0.4166875,0.96128125,0.872375,-0.48765625,-1.00809375,0.87684375,0.017721938987117235,0.023648593767767685,True
33867,75143,0,75144,2483.0,36442.0,25602.0,0.0032329999999999998,-0.000732,-0.0044529999999999995,0.21000000000000002,1.54,-3.9200000000000004,0.91953125,-0.0548125,-0.42134375,0.961375,0.8707812500000001,-0.48790625,-1.00834375,0.877,0.017686026137902253,0.023472166164542587,True
33868,75144,0,75145,2483.0,36444.0,25604.0,-0.001769,-0.002196,-0.00366,0.31500000000000006,1.8900000000000001,-3.9200000000000004,0.91796875,-0.0548125,-0.421,0.9561875,0.8715,-0.4886875,-1.00834375,0.87475,0.017717364395294765,0.023485911577011173,True
33869,75145,0,75146,2482.0,36444.0,25607.0,-0.002196,-0.000366,-0.004514,0.35000000000000003,2.1875,-4.0425,0.9220625,-0.05440625,-0.42140625,0.95215625,0.85884375,-0.48225,-1.00684375,0.8667812500000001,0.017475671149506277,0.023411091213780228,True
33870,75146,0,75147,2482.0,36446.0,25607.0,-0.003843,-0.000305,-0.0051849999999999995,0.5075000000000001,2.2750000000000004,-4.112500000000001,0.91009375,-0.0529375,-0.4189375,0.9558125000000001,0.8654375,-0.48821875000000003,-1.01059375,0.884625,0.017775129111830563,0.023656225674370486,True
33871,75147,0,75148,2483.0,36448.0,25609.0,-0.003294,0.002013,0.0006709999999999999,0.6300000000000001,2.3975000000000004,-4.1825,0.9143125,-0.053,-0.4171875,0.9564375,0.8870625,-0.49584375,-1.0120625,0.89028125,0.0180783219602305,0.02378352444945314,True
33872,75148,0,75149,2486.0,36450.0,25609.0,-0.003355,0.001647,0.00366,0.7000000000000001,2.4675000000000002,-4.0600000000000005,0.91378125,-0.05190625,-0.41684375,0.95740625,0.88675,-0.49565625,-1.00253125,0.88109375,0.018115456694490478,0.023425128205769172,True
33873,75149,0,75150,2486.0,36447.0,25612.0,-0.0046359999999999995,0.0021349999999999997,0.005429,0.7350000000000001,2.4675000000000002,-4.0600000000000005,0.91871875,-0.05390625,-0.422,0.9621875,0.8710625000000001,-0.4905625,-1.00740625,0.8720625,0.01782957210558149,0.02340931499043409,True
33874,75150,0,75151,2486.0,36450.0,25613.0,-0.004392,0.000549,0.006405,0.56,2.3275,-4.095000000000001,0.917375,-0.055875,-0.42212500000000003,0.96215625,0.8636875,-0.4804375,-1.0049062500000001,0.87125,0.01734292943089763,0.023306676064822278,True
33875,75151,0,75152,2487.0,36452.0,25617.0,-0.0048189999999999995,-0.000183,0.007076,0.5075000000000001,2.1175,-4.165,0.9225625000000001,-0.055343750000000004,-0.41481250000000003,0.96125,0.86371875,-0.48653125,-1.0050625,0.87084375,0.017609170347474185,0.023605219942961546,True
33876,75152,0,75153,2486.0,36454.0,25618.0,-0.0011589999999999999,-0.000122,0.0032329999999999998,0.45500000000000007,1.7850000000000001,-4.112500000000001,0.92125,-0.05359375,-0.41875,0.9599062500000001,0.86634375,-0.48815625,-1.00934375,0.874375,0.017745823555009373,0.023614923922184086,True
33877,75153,0,75154,2489.0,36453.0,25619.0,0.0,-0.001037,-0.00183,0.35000000000000003,1.61,-4.095000000000001,0.91490625,-0.05315625,-0.41884375,0.95575,0.87915625,-0.49665625,-1.0147187500000001,0.88609375,0.018104511712695483,0.023820975400732823,True
33878,75154,0,75155,2491.0,36456.0,25623.0,-0.004209,-0.0018909999999999999,-0.003294,0.22750000000000004,1.2950000000000002,-4.0425,0.91446875,-0.05309375,-0.41909375,0.9597187500000001,0.8729375,-0.48596875,-0.99928125,0.86975,0.017678491891402092,0.023208167234808005,True
33879,75155,0,75156,2490.0,36459.0,25625.0,-0.00549,-0.0008539999999999999,-0.005673,0.2625,0.7525000000000001,-4.0600000000000005,0.91446875,-0.055125,-0.42075,0.962375,0.8641562500000001,-0.48165625,-1.0050000000000001,0.8710625000000001,0.017422483415516464,0.023365326934613084,True
33880,75156,0,75157,2492.0,36462.0,25627.0,-0.004026,-0.0011589999999999999,-0.00549,0.35000000000000003,0.07,-4.077500000000001,0.9151875,-0.05334375,-0.41875,0.9565,0.869625,-0.4904375,-1.012,0.88884375,0.017847527223635758,0.023718615064768914,True
33881,75157,0,75158,2492.0,36465.0,25632.0,0.000488,-0.00042699999999999997,-0.000244,0.56,-1.225,-4.0425,0.914375,-0.05284375,-0.4180625,0.95575,0.870375,-0.49134375,-1.01053125,0.8790625,0.01790428505989999,0.023688771105171952,True
33882,75158,0,75159,2493.0,36463.0,25632.0,0.006344,-0.000244,0.0023179999999999997,0.7000000000000001,-1.6800000000000002,-3.8675,0.9188125,-0.055781250000000004,-0.42065625,0.9615625,0.8715937500000001,-0.48840625,-1.00778125,0.8767812500000001,0.0176665233165184,0.023477692568188154,True
33883,75159,0,75160,2495.0,36466.0,25637.0,0.009271999999999999,-0.001586,0.005429,0.6825000000000001,-2.0300000000000002,-3.7100000000000004,0.92059375,-0.054718750000000003,-0.41809375,0.9565625,0.87175,-0.48781250000000004,-1.00634375,0.87603125,0.017686093847704854,0.023524030777190296,True
33884,75160,0,75161,2496.0,36467.0,25638.0,0.007259,-0.003172,0.0071979999999999995,0.665,-2.0650000000000004,-3.6050000000000004,0.91315625,-0.05215625,-0.4180625,0.9550937500000001,0.87153125,-0.48803125,-1.00815625,0.87740625,0.017799511751276455,0.023596051788104134,True
33885,75161,0,75162,2497.0,36466.0,25639.0,0.0042699999999999995,-0.002928,0.005307,0.5075000000000001,-2.1175,-3.6750000000000003,0.90934375,-0.04628125,-0.41571875,0.95321875,0.87203125,-0.4885,-1.008875,0.8779375,0.018058221205872145,0.023717830170289545,True
33886,75162,0,75163,2499.0,36470.0,25642.0,0.003904,0.0021349999999999997,-0.0013419999999999999,0.5775,-2.0650000000000004,-3.7275000000000005,0.9148125,-0.0505,-0.41890625000000004,0.95996875,0.87315625,-0.48381250000000003,-1.00871875,0.87684375,0.01769791775688529,0.023584274984099297,True
33887,75163,0,75164,2500.0,36469.0,25643.0,0.001464,0.004575,-0.0042699999999999995,0.665,-1.9075000000000002,-3.6400000000000006,0.9198125,-0.055625,-0.41890625000000004,0.95709375,0.87090625,-0.48803125,-1.00784375,0.8768750000000001,0.01765786091930114,0.02355011115262586,True
33888,75164,0,75165,2502.0,36471.0,25647.0,-0.001586,0.005612,-0.0055509999999999995,0.665,-1.54,-3.7450000000000006,0.9197500000000001,-0.0540625,-0.41953125,0.96034375,0.8715937500000001,-0.4888125,-1.00790625,0.8777812500000001,0.017753004560756055,0.023527559409336794,True
33889,75165,0,75166,2504.0,36476.0,25652.0,-0.004209,0.004697,-0.0060999999999999995,0.56,-1.1725,-3.7275000000000005,0.9148437500000001,-0.0529375,-0.4211875,0.962,0.87215625,-0.48809375,-1.00796875,0.8770625,0.017770115323901027,0.02346377092301829,True
33890,75166,0,75167,2506.0,36477.0,25654.0,-0.005673,0.0048189999999999995,-0.0053679999999999995,0.49000000000000005,-1.12,-3.8325000000000005,0.92103125,-0.05246875,-0.42159375,0.96528125,0.87184375,-0.48065625,-1.0080625,0.87653125,0.017490850556753354,0.02345118699219502,True
33891,75167,0,75168,2506.0,36479.0,25657.0,-0.0057339999999999995,0.000122,0.000122,0.525,-1.1375000000000002,-3.7975000000000003,0.9227500000000001,-0.05809375,-0.42196875,0.9590625,0.87215625,-0.48840625,-1.0074375,0.87915625,0.017572090874635828,0.023411784993964294,True
33892,75168,0,75169,2508.0,36479.0,25654.0,-0.0035989999999999998,-0.003172,0.0028669999999999998,0.42000000000000004,-1.3825,-3.7625,0.907,-0.05434375,-0.42046875,0.95146875,0.8765625,-0.4914375,-1.01021875,0.8789375,0.017846798498454816,0.023580361527225747,True
33893,75169,0,75170,2507.0,36479.0,25646.0,0.000183,-0.00488,0.004941,0.4025,-1.6625,-3.7100000000000004,0.905625,-0.053,-0.41778125,0.95378125,0.877625,-0.49140625,-1.01015625,0.8839375,0.01790041149637947,0.023685377815262552,True
33894,75170,0,75171,2505.0,36472.0,25638.0,0.0050019999999999995,-0.006039,0.006405,0.31500000000000006,-1.9250000000000003,-3.5525,0.91096875,-0.0523125,-0.41740625000000003,0.95359375,0.87875,-0.492,-1.01025,0.87734375,0.017952290543851054,0.023704031347147676,True
33895,75171,0,75172,2499.0,36468.0,25629.0,0.00549,-0.006161,0.005795,0.36750000000000005,-2.0125,-3.4125000000000005,0.911375,-0.05228125,-0.41640625000000003,0.9536875,0.87171875,-0.48925,-1.00584375,0.8814062500000001,0.017843288381636842,0.023571990047326432,True
33896,75172,0,75173,2497.0,36468.0,25623.0,0.001403,0.000122,0.001586,0.49000000000000005,-1.995,-3.4825000000000004,0.9030312500000001,-0.0524375,-0.41775,0.95340625,0.8739687500000001,-0.49025,-1.00775,0.87896875,0.017877012280397304,0.02359268626725714,True
33897,75173,0,75174,2493.0,36464.0,25616.0,-0.001769,0.003843,-0.002928,0.42000000000000004,-2.0475000000000003,-3.5525,0.9107500000000001,-0.0501875,-0.41659375,0.9538125000000001,0.8725,-0.48871875000000004,-1.00778125,0.8765625,0.017907480357664693,0.023640142005800696,True
33898,75174,0,75175,2489.0,36461.0,25611.0,0.000183,0.004514,-0.00488,0.385,-2.1350000000000002,-3.6050000000000004,0.91059375,-0.0525625,-0.41646875,0.9579375,0.87084375,-0.48853125000000003,-1.0072812500000001,0.8764375,0.017802976648507655,0.02362561903845506,True
33899,75175,0,75176,2483.0,36457.0,25603.0,0.0008539999999999999,0.003965,-0.008173999999999999,0.43750000000000006,-2.2925000000000004,-3.6575,0.91496875,-0.05215625,-0.4160625,0.95359375,0.8719375,-0.48812500000000003,-1.0074375,0.87675,0.017803271994078763,0.023647964730492677,True
33900,75176,0,75177,2482.0,36455.0,25600.0,0.001098,0.000244,-0.004209,0.29750000000000004,-2.3975000000000004,-3.7275000000000005,0.91871875,-0.05671875,-0.42209375,0.96659375,0.8715625,-0.4886875,-1.00665625,0.8766875000000001,0.01763952233046381,0.0233762760664973,True
33901,75177,0,75178,2479.0,36452.0,25593.0,0.00061,0.001037,-0.001037,0.31500000000000006,-1.8725000000000003,-3.43,0.9215,-0.05809375,-0.41715625,0.96709375,0.87225,-0.48790625,-1.0073750000000001,0.87740625,0.017552031423674695,0.02360178747269556,True
33902,75178,0,75179,2474.0,36445.0,25589.0,-0.002745,0.001281,0.002379,0.47250000000000003,-1.61,-3.4650000000000003,0.923875,-0.057625,-0.42275,0.9599062500000001,0.87125,-0.48775,-1.00359375,0.8795000000000001,0.017564904901430308,0.02323041062847216,True
33903,75179,0,75180,2473.0,36444.0,25583.0,-0.00244,0.000915,0.005246,0.49000000000000005,-1.4175000000000002,-3.535,0.9110625,-0.05146875,-0.4190625,0.9471875000000001,0.875625,-0.48775,-1.00778125,0.87653125,0.017816306112239794,0.023541422732174612,True
33904,75180,0,75181,2471.0,36437.0,25578.0,0.000244,-0.0011589999999999999,0.007442,0.24500000000000002,-1.2425000000000002,-3.6400000000000006,0.913125,-0.05278125,-0.42040625,0.9596250000000001,0.87603125,-0.48771875000000003,-1.0075625,0.8767812500000001,0.01776145440252576,0.023479147557863744,True
33905,75181,0,75182,2470.0,36436.0,25579.0,-6.1e-05,-0.004209,0.002562,0.15750000000000003,-1.2075,-3.8325000000000005,0.91359375,-0.05271875,-0.41421875,0.9531875,0.87353125,-0.48953125000000003,-1.00790625,0.8803125,0.01783670318312034,0.02373999222745806,True
33906,75182,0,75183,2470.0,36436.0,25577.0,-0.001586,-0.004575,-0.000976,0.12250000000000001,-1.3125000000000002,-3.8150000000000004,0.919625,-0.0549375,-0.42140625,0.9635,0.872,-0.4856875,-1.0074375,0.87075,0.01759190955941098,0.023434278302205094,True
33907,75183,0,75184,2467.0,36434.0,25575.0,-0.0030499999999999998,-0.0050019999999999995,-0.000244,0.052500000000000005,-1.5575,-3.7975000000000003,0.91615625,-0.0533125,-0.418375,0.95003125,0.8721875,-0.49203125000000003,-1.01084375,0.8778125,0.01791271395670786,0.023688475123915007,True
33908,75184,0,75185,2468.0,36432.0,25575.0,-0.0017079999999999999,-0.001647,-0.0057339999999999995,0.14,-2.1,-3.9725000000000006,0.92159375,-0.055968750000000005,-0.41784375,0.95265625,0.8718750000000001,-0.47996875,-1.0030937500000001,0.9078125,0.017320283548156082,0.023407103370957843,True
33909,75185,0,75186,2470.0,36431.0,25574.0,0.0034159999999999998,0.0021349999999999997,-0.009882,0.29750000000000004,-2.3275,-3.9550000000000005,0.91896875,-0.05634375,-0.4194375,0.95625,0.89084375,-0.48703125,-1.0043125,0.8658125,0.017588391814544687,0.0233909650585274,True
33910,75186,0,75187,2471.0,36428.0,25571.0,0.005246,0.011346,-0.004514,0.6300000000000001,-1.7325000000000002,-3.99,0.91446875,-0.052375,-0.421125,0.9619375,0.880875,-0.49534375,-1.00978125,0.8661562500000001,0.0180837939863571,0.023537041132656852,True
33911,75187,0,75188,2471.0,36427.0,25573.0,0.006588,0.0037819999999999998,0.000183,0.56,-1.2775,-3.7625,0.91471875,-0.0534375,-0.4174375,0.961125,0.853625,-0.491,-1.01459375,0.89003125,0.01786625699236454,0.02387231453638938,True
33912,75188,0,75189,2473.0,36425.0,25574.0,0.0042699999999999995,-0.0023179999999999997,0.0055509999999999995,0.43750000000000006,-0.665,-3.5875000000000004,0.92053125,-0.0565625,-0.42003125,0.9536250000000001,0.86121875,-0.48153125,-1.0024375,0.87765625,0.017358748750652596,0.023293978837063387,True
33913,75189,0,75190,2474.0,36424.0,25575.0,0.000793,-0.004575,0.0060999999999999995,0.28,-0.0175,-3.9375000000000004,0.9150625,-0.04675,-0.42,0.96221875,0.89315625,-0.4965,-1.006875,0.865625,0.018359765680811543,0.023468546149808804,True
33914,75190,0,75191,2475.0,36425.0,25578.0,-0.005246,-0.006161,0.004758,0.29750000000000004,0.10500000000000001,-4.0075,0.91421875,-0.0525,-0.418,0.9529375,0.8581875,-0.4926875,-1.01528125,0.8988125,0.01797220088648908,0.023876655394390177,True
33915,75191,0,75192,2478.0,36429.0,25581.0,-0.014274,-0.006405,0.002379,0.28,-0.7175,-4.0600000000000005,0.91096875,-0.055781250000000004,-0.42065625,0.96128125,0.877125,-0.4885,-1.0032812500000001,0.8663125,0.017670284010862243,0.02330194162016236,True
33916,75192,0,75193,2478.0,36432.0,25581.0,-0.008905999999999999,-0.0040869999999999995,0.003111,0.24500000000000002,-1.6450000000000002,-3.9375000000000004,0.92078125,-0.0554375,-0.42078125,0.95778125,0.85878125,-0.4845625,-1.00203125,0.86675,0.017526349511043947,0.023248111090973855,True
33917,75193,0,75194,2478.0,36434.0,25585.0,-0.0044529999999999995,-0.00244,0.0028669999999999998,0.36750000000000005,-2.6075000000000004,-3.8150000000000004,0.9227500000000001,-0.055125,-0.416875,0.9631875,0.85975,-0.484375,-1.0010625,0.86625,0.017531589023611998,0.02336650692345575,True
33918,75194,0,75195,2480.0,36433.0,25585.0,-0.0015249999999999999,0.0,0.004514,0.5075000000000001,-3.3775000000000004,-3.7625,0.92128125,-0.052625,-0.42131250000000003,0.9511875000000001,0.8585,-0.48562500000000003,-1.00534375,0.8705,0.01768384511320418,0.02335625759993801,True
33919,75195,0,75196,2481.0,36430.0,25585.0,-0.000793,0.005063,0.00183,0.6825000000000001,-4.077500000000001,-3.7275000000000005,0.91440625,-0.05303125,-0.41775,0.95578125,0.8706875000000001,-0.4913125,-1.00975,0.88303125,0.017895376166548852,0.023670768400323866,True
33920,75196,0,75197,2481.0,36430.0,25582.0,0.006344,0.006344,0.000122,0.56,-5.390000000000001,-3.5700000000000003,0.9141875,-0.05246875,-0.41775,0.9550000000000001,0.87934375,-0.491375,-1.0095625,0.88653125,0.017920849686879563,0.023663448730860438,True
33921,75197,0,75198,2481.0,36431.0,25583.0,0.010065,0.00549,-0.002196,0.45500000000000007,-5.880000000000001,-3.6750000000000003,0.91428125,-0.0500625,-0.41765625,0.95034375,0.88025,-0.49128125,-1.00271875,0.86790625,0.018015339642551368,0.023399955254866035,True
33922,75198,0,75199,2482.0,36428.0,25580.0,0.010065,0.002562,-0.0066489999999999995,0.31500000000000006,-6.055000000000001,-3.7100000000000004,0.9138125,-0.0555625,-0.41775,0.961375,0.87090625,-0.48862500000000003,-1.0075,0.8794375,0.017684230943958677,0.02358292512246326,True
33923,75199,0,75200,2483.0,36427.0,25582.0,0.006893,-0.0013419999999999999,-0.007808,0.1925,-5.9675,-3.7100000000000004,0.92059375,-0.0556875,-0.42053125,0.9525625,0.87090625,-0.4905,-1.0099375,0.88328125,0.017754333312917252,0.02356688216433967,True
33924,75200,0,75201,2484.0,36425.0,25580.0,0.0050019999999999995,-0.004148,-0.009577,0.07,-5.7575,-3.6750000000000003,0.915125,-0.05265625,-0.418,0.9559375,0.8725625,-0.48540625,-1.00875,0.8763125,0.017673792935332652,0.023621732393662224,True
33925,75201,0,75202,2485.0,36426.0,25582.0,0.0066489999999999995,-0.001281,-0.0046359999999999995,0.17500000000000002,-5.1625000000000005,-3.8150000000000004,0.91396875,-0.05253125,-0.41734375,0.9597187500000001,0.8709375,-0.4885625,-1.0069062500000001,0.8769375,0.017805506141897874,0.023575987133554358,True
33926,75202,0,75203,2484.0,36424.0,25579.0,0.009516,0.000366,-0.001281,0.36750000000000005,-4.515000000000001,-3.8850000000000002,0.9187500000000001,-0.0530625,-0.418,0.9609062500000001,0.8658125,-0.48581250000000004,-1.007875,0.87615625,0.017673499705186422,0.02358756991547663,True
33927,75203,0,75204,2486.0,36420.0,25578.0,0.008723,0.001037,0.000488,0.3325,-3.535,-3.9200000000000004,0.9201875,-0.0553125,-0.4190625,0.95596875,0.87125,-0.49096875,-1.0088125000000001,0.88521875,0.01778844497525236,0.023581687455172053,True
33928,75204,0,75205,2487.0,36419.0,25578.0,0.005673,0.0015249999999999999,0.002623,0.3325,-2.5025000000000004,-4.165,0.91425,-0.05371875,-0.41846875,0.95609375,0.88075,-0.49125,-1.01175,0.8798125,0.017864798652580005,0.02372010155227043,True
33929,75205,0,75206,2486.0,36421.0,25578.0,0.000793,0.000183,0.002989,0.17500000000000002,-1.2775,-4.4625,0.9067500000000001,-0.05365625,-0.4176875,0.9559375,0.8706875000000001,-0.48875,-1.0070937500000001,0.8767812500000001,0.01776708692767087,0.023569562136743705,True
33930,75206,0,75207,2488.0,36423.0,25581.0,-0.0068319999999999995,-0.002074,0.002196,-0.0175,0.3325,-5.0575,0.9178437500000001,-0.051812500000000004,-0.4194375,0.95703125,0.8715937500000001,-0.48828125,-1.00734375,0.87209375,0.017823576327962994,0.023509344130161765,True
33931,75207,0,75208,2489.0,36428.0,25586.0,-0.009394,-0.00061,-0.00042699999999999997,-0.035,0.805,-5.11,0.914875,-0.05334375,-0.415625,0.9573125,0.87125,-0.48771875000000003,-1.0061875,0.877125,0.017738483704203768,0.023616654877917715,True
33932,75208,0,75209,2489.0,36429.0,25590.0,-0.012749,-0.002562,0.00061,-0.035,1.0850000000000002,-5.0575,0.91546875,-0.0505625,-0.41853125,0.953375,0.8721875,-0.48828125,-1.00878125,0.8805937500000001,0.017874621151698834,0.023601709899397836,True
33933,75209,0,75210,2492.0,36434.0,25595.0,-0.016409,-0.0032329999999999998,0.001464,-0.12250000000000001,1.1025,-5.197500000000001,0.91015625,-0.05909375,-0.42503125,0.97440625,0.87428125,-0.49121875000000004,-1.0045,0.88453125,0.017644079064052295,0.023174578575856346,True
33934,75210,0,75211,2492.0,36440.0,25601.0,-0.015067,-0.0037819999999999998,0.0035989999999999998,-0.035,0.525,-5.022500000000001,0.929875,-0.0604375,-0.42209375,0.97109375,0.879,-0.4883125,-1.00515625,0.8807812500000001,0.01747262086760776,0.023317690726287706,True
33935,75211,0,75212,2496.0,36441.0,25605.0,-0.002013,0.0006709999999999999,0.0055509999999999995,0.36750000000000005,-1.8375000000000001,-4.7075000000000005,0.9295625000000001,-0.06078125,-0.42512500000000003,0.9630625,0.8740625,-0.48675,-1.00975,0.8768750000000001,0.017395887571850083,0.023375883405471864,True
33936,75212,0,75213,2495.0,36443.0,25608.0,0.003355,0.001952,0.006344,0.45500000000000007,-3.0450000000000004,-4.6725,0.91521875,-0.0505625,-0.41509375,0.9513125,0.87215625,-0.48878125,-1.0083125,0.87440625,0.017894673709007058,0.023720862813114637,True
33937,75213,0,75214,2499.0,36444.0,25611.0,0.00549,0.002745,0.005978,0.47250000000000003,-3.7975000000000003,-4.550000000000001,0.9070625,-0.050937500000000004,-0.41553125,0.95015625,0.8721875,-0.4883125,-1.00396875,0.87609375,0.017860561032941733,0.023533764014962627,True
33938,75214,0,75215,2500.0,36446.0,25612.0,0.005612,0.00366,0.0021349999999999997,0.525,-4.340000000000001,-4.4275,0.907375,-0.05265625,-0.4174375,0.9525625,0.87153125,-0.48962500000000003,-1.00946875,0.883875,0.0178430151543766,0.023672284122388643,True
33939,75215,0,75216,2501.0,36447.0,25616.0,0.002074,0.003538,-0.0011589999999999999,0.42000000000000004,-4.987500000000001,-4.41,0.91740625,-0.0559375,-0.42325,0.9732500000000001,0.8798125,-0.48975,-1.00971875,0.8744375,0.017714043630498475,0.02344963395480007,True
33940,75216,0,75217,2503.0,36453.0,25620.0,0.0046359999999999995,0.001586,-0.006039,0.31500000000000006,-6.0025,-4.2525,0.9313125,-0.06059375,-0.42315625,0.97059375,0.87771875,-0.48862500000000003,-1.00746875,0.87703125,0.01747877841242618,0.023365519551034122,True
33941,75217,0,75218,2504.0,36456.0,25625.0,0.005124,0.00042699999999999997,-0.008296,0.29750000000000004,-6.4225,-4.165,0.9256562500000001,-0.0544375,-0.41815625,0.962,0.8713125,-0.48884375,-1.0070000000000001,0.8774375,0.017738944902206743,0.023547156796097094,True
33942,75218,0,75219,2505.0,36457.0,25628.0,0.005978,-0.001403,-0.008418,0.385,-6.6850000000000005,-4.0075,0.929,-0.0608125,-0.42503125,0.96796875,0.87128125,-0.4875625,-1.00746875,0.88115625,0.017427214325639803,0.023290541950592256,True
33943,75219,0,75220,2507.0,36463.0,25632.0,0.005856,-0.000305,-0.006039,0.36750000000000005,-6.755000000000001,-4.1475,0.92671875,-0.05184375,-0.4171875,0.95634375,0.87190625,-0.4885,-1.00678125,0.877375,0.017831073769320294,0.023577354642553203,True
33944,75220,0,75221,2508.0,36464.0,25635.0,0.0062829999999999995,-0.000183,-0.003111,0.2625,-6.4575000000000005,-4.1825,0.9078125,-0.05265625,-0.41828125,0.96240625,0.87153125,-0.48490625,-1.0073750000000001,0.8770625,0.01765373310342979,0.023556800743780592,True
33945,75221,0,75222,2509.0,36465.0,25637.0,0.010065,0.001647,-0.001281,0.31500000000000006,-5.390000000000001,-4.130000000000001,0.91990625,-0.05446875,-0.41878125,0.9633125,0.87321875,-0.48909375,-1.00465625,0.8774375,0.017747696359731564,0.0234306360440368,True
33946,75222,0,75223,2511.0,36462.0,25636.0,0.010065,0.00488,-0.001769,0.385,-4.515000000000001,-4.130000000000001,0.92153125,-0.055968750000000005,-0.41725,0.9567187500000001,0.8661562500000001,-0.48781250000000004,-1.007625,0.8768125,0.017635048046860047,0.023607799621115557,True
33947,75223,0,75224,2511.0,36457.0,25628.0,0.012688,0.002196,0.00061,0.4025,-3.1500000000000004,-4.1475,0.913875,-0.0535625,-0.418,0.95675,0.872,-0.48959375,-1.01053125,0.88415625,0.01780475635697305,0.023691270052490394,True
33948,75224,0,75225,2507.0,36454.0,25619.0,0.009455,-0.000305,0.0008539999999999999,0.31500000000000006,-1.5575,-4.2175,0.91615625,-0.055781250000000004,-0.42090625,0.96203125,0.8781875,-0.49084375,-1.010125,0.8788125,0.017764292012193334,0.023559208520549175,True
33949,75225,0,75226,2508.0,36450.0,25611.0,0.000549,-0.004148,0.001281,0.035,0.14,-4.340000000000001,0.92103125,-0.052000000000000005,-0.41984375,0.9595,0.87228125,-0.48715625,-1.0071875000000001,0.87715625,0.017770795659459233,0.02348699748822214,True
33950,75226,0,75227,2504.0,36450.0,25606.0,-0.011467999999999999,-0.010187,0.00183,-0.35000000000000003,2.8875,-5.005000000000001,0.91525,-0.05265625,-0.418,0.95984375,0.87109375,-0.48825,-1.00803125,0.8778125,0.017787867650812125,0.023593670533341167,True
33951,75227,0,75228,2501.0,36451.0,25603.0,-0.017141,-0.008479,-0.000488,-0.29750000000000004,3.3075,-5.1450000000000005,0.92009375,-0.0566875,-0.41921875000000003,0.956375,0.87121875,-0.4876875,-1.0023125,0.8771875,0.017600681975380485,0.02332159275267038,True
33952,75228,0,75229,2497.0,36451.0,25605.0,-0.019825,-0.006039,0.00061,-0.21000000000000002,3.1675000000000004,-5.3025,0.9191875,-0.05646875,-0.4219375,0.9619062500000001,0.8677812500000001,-0.4886875,-1.0079375,0.87734375,0.017649731125851477,0.02343256016214851,True
33953,75229,0,75230,2492.0,36451.0,25601.0,-0.016287,-0.002989,0.0034159999999999998,-0.035,2.6775,-5.32,0.91534375,-0.05340625,-0.41703125,0.95634375,0.87603125,-0.49046875,-1.006375,0.877125,0.017846228443463338,0.023567740226242313,True
33954,75230,0,75231,2490.0,36452.0,25598.0,-0.01342,0.0025009999999999998,0.008967,0.24500000000000002,1.6275000000000002,-5.1625000000000005,0.9196562500000001,-0.056625,-0.41981250000000003,0.96125,0.86625,-0.48840625,-1.0070625,0.8801875,0.017632068236372058,0.023483365949119372,True
33955,75231,0,75232,2488.0,36451.0,25596.0,-0.00122,0.010675,0.010309,0.56,-0.6125,-4.777500000000001,0.91390625,-0.047093750000000004,-0.41603125,0.9596875,0.8704375,-0.4908125,-1.0076875,0.87784375,0.018117763549086008,0.023658974865228943,True
33956,75232,0,75233,2484.0,36447.0,25589.0,0.002074,0.010126,0.004026,0.56,-1.6625,-4.6375,0.9198125,-0.0561875,-0.41881250000000003,0.958875,0.87290625,-0.4890625,-1.00725,0.87815625,0.017676258533784215,0.023530676103929858,True
33957,75233,0,75234,2482.0,36441.0,25584.0,0.0023179999999999997,0.0075639999999999995,-0.002196,0.28,-2.555,-4.550000000000001,0.91796875,-0.05365625,-0.417375,0.9570625,0.8717812500000001,-0.48759375,-1.0072812500000001,0.8775937500000001,0.017720708062628654,0.023589379593193488,True
33958,75234,0,75235,2481.0,36441.0,25582.0,0.004026,0.002745,-0.005307,0.15750000000000003,-3.325,-4.2525,0.9145,-0.0531875,-0.4176875,0.9566875,0.8675,-0.48781250000000004,-1.00765625,0.88103125,0.017748624953739744,0.02359152509543952,True
33959,75235,0,75236,2480.0,36439.0,25579.0,0.0055509999999999995,-0.00122,-0.007625,-0.0175,-4.077500000000001,-4.112500000000001,0.91440625,-0.05446875,-0.4205625,0.9620625,0.8788750000000001,-0.488875,-1.00946875,0.87709375,0.0177389222657227,0.023547331448213988,True
33960,75236,0,75237,2478.0,36440.0,25577.0,0.013969,-0.002074,-0.004514,0.29750000000000004,-4.865,-3.9025000000000003,0.92303125,-0.051687500000000004,-0.4144375,0.96121875,0.8710625000000001,-0.48821875000000003,-1.0070937500000001,0.8715,0.01782617406584544,0.023699525259707564,True
33961,75237,0,75238,2478.0,36436.0,25577.0,0.013054,-0.001403,-0.000488,0.36750000000000005,-4.6725,-3.7100000000000004,0.91446875,-0.05259375,-0.4170625,0.95353125,0.8710625000000001,-0.48925,-1.00521875,0.87671875,0.01783052768051288,0.02352133992029164,True
33962,75238,0,75239,2479.0,36433.0,25575.0,0.012199999999999999,-0.001403,0.001281,0.28,-4.0600000000000005,-3.9025000000000003,0.91453125,-0.053125,-0.4179375,0.956875,0.8721875,-0.48759375,-1.00771875,0.883625,0.017742402721786416,0.02358396844974114,True
33963,75239,0,75240,2478.0,36433.0,25574.0,0.00793,-0.000976,-0.000244,0.14,-3.1850000000000005,-4.0600000000000005,0.9138437500000001,-0.05278125,-0.4176875,0.9564375,0.8794062500000001,-0.48990625,-1.0093125,0.8756875000000001,0.017849190419011913,0.023656188069943948,True
33964,75240,0,75241,2478.0,36435.0,25578.0,-0.004941,-0.00122,-0.003965,-0.0175,-2.2225,-4.2525,0.91453125,-0.05325,-0.418625,0.956125,0.8769375,-0.49090625,-1.0090000000000001,0.88321875,0.0178701533349751,0.023606501659402618,True
33965,75241,0,75242,2480.0,36441.0,25585.0,-0.005978,-0.003538,-0.0032329999999999998,-0.08750000000000001,-0.665,-4.375,0.91509375,-0.0550625,-0.42009375,0.9599375,0.8775625,-0.48875,-1.010625,0.880625,0.01770966260017355,0.02361121523352576,True
33966,75242,0,75243,2481.0,36442.0,25589.0,-0.006893,-0.003843,-0.0018909999999999999,-0.052500000000000005,0.0,-4.305000000000001,0.918625,-0.05453125,-0.4186875,0.9606250000000001,0.8745937500000001,-0.48825,-1.00721875,0.87840625,0.01771130031749921,0.023534454426284414,True
33967,75243,0,75244,2484.0,36448.0,25595.0,-0.0070149999999999995,-0.0037819999999999998,-0.000183,-0.035,0.31500000000000006,-4.235,0.919,-0.051750000000000004,-0.41846875,0.9570625,0.871375,-0.48825,-1.0078125,0.87796875,0.017824875195246698,0.023566385504529837,True
33968,75244,0,75245,2485.0,36453.0,25600.0,-0.010003999999999999,-0.00244,0.005246,-0.07,0.49000000000000005,-4.340000000000001,0.9145,-0.0530625,-0.4176875,0.95653125,0.8723125,-0.48821875000000003,-1.00871875,0.8810625,0.017770024616429073,0.023633007988464027,True
33969,75245,0,75246,2486.0,36454.0,25607.0,-0.007991,-0.0008539999999999999,0.0075639999999999995,-0.0175,-0.2625,-4.567500000000001,0.9144375,-0.05365625,-0.4186875,0.95675,0.8757812500000001,-0.49221875,-1.013625,0.888625,0.017906197248871134,0.02378453742710223,True
33970,75246,0,75247,2487.0,36458.0,25611.0,-0.007991,-6.1e-05,0.004941,0.10500000000000001,-1.1025,-4.6025,0.9146875,-0.05375,-0.41840625000000004,0.95684375,0.8815937500000001,-0.4931875,-1.01075,0.88696875,0.0179412132455198,0.02368356606659136,True
33971,75247,0,75248,2489.0,36465.0,25615.0,-0.00549,0.0013419999999999999,0.002379,0.12250000000000001,-2.1875,-4.62,0.91478125,-0.0540625,-0.41890625000000004,0.9566875,0.8805937500000001,-0.49340625,-1.012375,0.88846875,0.017937225452258197,0.023727005132459435,True
33972,75248,0,75249,2492.0,36468.0,25619.0,-0.001098,0.003172,0.000122,0.14,-3.22,-4.357500000000001,0.9140312500000001,-0.04921875,-0.419875,0.976625,0.88409375,-0.490375,-1.01103125,0.88728125,0.018013454265196023,0.023635820694118723,True
33973,75249,0,75250,2492.0,36468.0,25620.0,0.004026,0.004392,-0.005856,0.35000000000000003,-4.2,-4.340000000000001,0.94215625,-0.05140625,-0.41553125,0.9449062500000001,0.8731875,-0.48746875,-1.00715625,0.87534375,0.017807577600277694,0.023658227832283007,True
33974,75250,0,75251,2495.0,36472.0,25623.0,0.007442,0.003965,-0.006222,0.43750000000000006,-5.477500000000001,-3.9375000000000004,0.9050625,-0.05196875,-0.42096875,0.97884375,0.86965625,-0.49159375,-1.0129062500000001,0.890125,0.017950036428315327,0.023665282797755663,True
33975,75251,0,75252,2495.0,36471.0,25626.0,0.008173999999999999,0.0026839999999999998,-0.003965,0.5075000000000001,-5.845000000000001,-3.7450000000000006,0.9273750000000001,-0.06409375,-0.4221875,0.957375,0.8826875000000001,-0.49159375,-1.00571875,0.87603125,0.017454968605299524,0.023335911910150556,True
33976,75252,0,75253,2498.0,36471.0,25626.0,0.008905999999999999,0.002196,-0.000976,0.6125,-6.0375000000000005,-3.8850000000000002,0.90190625,-0.04875,-0.41290625000000003,0.9449062500000001,0.86846875,-0.48696875,-1.0065,0.87453125,0.017895998254173456,0.023737578229660286,True
33977,75253,0,75254,2497.0,36474.0,25629.0,0.012688,0.0006709999999999999,0.004575,0.5075000000000001,-5.897500000000001,-3.8150000000000004,0.90171875,-0.0504375,-0.41228125,0.9450937500000001,0.86865625,-0.48778125,-1.0063125,0.87709375,0.017859672362109162,0.02375525179892077,True
33978,75254,0,75255,2497.0,36474.0,25630.0,0.012871,-0.0017079999999999999,0.003294,0.45500000000000007,-5.5475,-3.7275000000000005,0.9002187500000001,-0.04496875,-0.413125,0.94553125,0.869,-0.48884375,-1.0065,0.87509375,0.018125600560459292,0.023728830504068942,True
33979,75255,0,75256,2499.0,36475.0,25634.0,-0.00183,-0.004209,0.0025009999999999998,0.0,-4.2525,-4.0600000000000005,0.90196875,-0.0488125,-0.407875,0.94546875,0.86928125,-0.4883125,-1.00615625,0.87615625,0.017947337122555914,0.023925358380498807,True
33980,75256,0,75257,2500.0,36482.0,25637.0,-0.004758,-0.002379,-0.001037,0.0175,-4.0425,-4.112500000000001,0.9015,-0.05096875,-0.41659375,0.9526875,0.8717812500000001,-0.48903125000000003,-1.0111875000000001,0.8858125,0.017888110620954027,0.023773111532589174,True
33981,75257,0,75258,2502.0,36483.0,25638.0,-0.0032329999999999998,-0.00061,-0.005673,0.12250000000000001,-3.9200000000000004,-4.1475,0.91803125,-0.06134375,-0.4291875,0.9688125,0.87628125,-0.49059375,-1.008125,0.8820625,0.017527137332062438,0.023149976257716236,True
33982,75258,0,75259,2503.0,36484.0,25643.0,-0.001464,0.003355,-0.005307,0.28,-3.8675,-4.130000000000001,0.92840625,-0.058,-0.4248125,0.97259375,0.8711875,-0.4850625,-1.007875,0.86765625,0.017441756581180873,0.02331515572594633,True
33983,75259,0,75260,2504.0,36487.0,25646.0,-0.000976,0.0053679999999999995,-0.003538,0.31500000000000006,-3.43,-4.095000000000001,0.92884375,-0.055625,-0.4211875,0.96209375,0.8717812500000001,-0.48912500000000003,-1.0061875,0.86725,0.017701734953780506,0.02339420993304157,True
33984,75260,0,75261,2506.0,36488.0,25650.0,-0.0025009999999999998,-0.000244,0.0021349999999999997,0.2625,-2.5900000000000003,-4.165,0.91196875,-0.05328125,-0.4120625,0.946375,0.8698125,-0.48934375,-1.0080625,0.877,0.01780621418244415,0.02383231407870962,True
33985,75261,0,75262,2506.0,36492.0,25655.0,0.001098,-0.003172,0.004941,0.0175,-2.1875,-4.2525,0.90340625,-0.051125000000000004,-0.4130625,0.95225,0.86275,-0.4885,-1.00884375,0.883875,0.017860424280784857,0.023822822676478197,True
33986,75262,0,75263,2508.0,36498.0,25657.0,0.0023179999999999997,-0.00488,0.0050019999999999995,-0.08750000000000001,-1.8375000000000001,-4.1825,0.9107500000000001,-0.047656250000000004,-0.4185,0.95675,0.87921875,-0.49046875,-1.0113125,0.88371875,0.018081013659650754,0.02370177494683656,True
33987,75263,0,75264,2509.0,36498.0,25660.0,0.0032329999999999998,-0.005063,0.0023179999999999997,0.0175,-1.4525000000000001,-4.165,0.914375,-0.05365625,-0.4185625,0.94878125,0.8775625,-0.49096875,-1.0108125000000001,0.8849375,0.017856071944887846,0.023679758504446834,True
33988,75264,0,75265,2510.0,36500.0,25665.0,0.0030499999999999998,-0.003477,0.002013,0.0,-1.0325000000000002,-4.1825,0.91340625,-0.052375,-0.41790625000000003,0.95625,0.87771875,-0.49153125000000003,-1.0110625,0.8834062500000001,0.017930942966254918,0.0237157557780682,True
33989,75265,0,75266,2513.0,36501.0,25666.0,0.003538,0.000122,-0.002379,0.0175,0.3325,-4.48,0.9137500000000001,-0.05271875,-0.4179375,0.95584375,0.8789375,-0.49121875000000004,-1.01096875,0.8855625,0.017904376441045835,0.023710846865937565,True
33990,75266,0,75267,2513.0,36503.0,25669.0,0.002562,0.0044529999999999995,-0.003904,0.07,1.0850000000000002,-4.777500000000001,0.90715625,-0.0533125,-0.41834375,0.95665625,0.8784375,-0.49134375,-1.01015625,0.88384375,0.017885145644570853,0.02366288695217568,True
33991,75267,0,75268,2516.0,36506.0,25672.0,-0.000183,0.005978,-0.0026839999999999998,-0.052500000000000005,2.0650000000000004,-5.1450000000000005,0.9136875,-0.0545,-0.42265625,0.962125,0.8787812500000001,-0.48925,-1.0070937500000001,0.87121875,0.01775268740365671,0.023370868516058577,True
33992,75268,0,75269,2516.0,36509.0,25675.0,-0.00488,0.0040869999999999995,-0.00042699999999999997,-0.12250000000000001,3.0975,-5.390000000000001,0.92028125,-0.0551875,-0.41909375,0.95921875,0.869125,-0.4879375,-1.0030000000000001,0.87934375,0.017671966044506607,0.023353447586289648,True
33993,75269,0,75270,2520.0,36511.0,25680.0,-0.010369999999999999,0.00244,0.0011589999999999999,-0.1925,3.7450000000000006,-5.53,0.9204375,-0.055,-0.42165625,0.95259375,0.867125,-0.4883125,-1.006875,0.88103125,0.017694665567502866,0.02340231436355002,True
33994,75270,0,75271,2519.0,36513.0,25683.0,-0.00915,-0.000549,0.0037819999999999998,-0.47250000000000003,3.9725000000000006,-5.5125,0.9140625,-0.05328125,-0.41903125,0.956125,0.87865625,-0.48715625,-1.0105,0.88053125,0.01771847231137752,0.023648817496651407,True
33995,75271,0,75272,2523.0,36520.0,25686.0,-0.004209,0.000366,0.00244,-0.4025,3.4825000000000004,-5.3375,0.91440625,-0.05340625,-0.41846875,0.9557187500000001,0.878125,-0.48884375,-1.01146875,0.878125,0.017781055914491677,0.023709123439622073,True
33996,75272,0,75273,2524.0,36519.0,25692.0,-0.002257,0.000183,0.000305,-0.43750000000000006,3.0100000000000002,-5.250000000000001,0.91359375,-0.051937500000000004,-0.41878125,0.9559062500000001,0.88053125,-0.4896875,-1.0078125,0.88625,0.01787487080020927,0.023553889409559513,True
33997,75273,0,75274,2525.0,36524.0,25695.0,-0.002928,-0.0025009999999999998,-0.000183,-0.49000000000000005,2.6250000000000004,-5.285,0.91446875,-0.05346875,-0.41921875000000003,0.9568125000000001,0.87928125,-0.49178125,-1.00984375,0.8846875000000001,0.017896309603859458,0.02361570131760619,True
33998,75274,0,75275,2527.0,36528.0,25700.0,-0.003111,-0.005673,-0.0011589999999999999,-0.6125,2.1700000000000004,-5.232500000000001,0.9146562500000001,-0.05365625,-0.41825,0.95728125,0.87934375,-0.48990625,-1.01196875,0.8800625,0.01781346141331186,0.0237373857265834,True
33999,75275,0,75276,2529.0,36531.0,25705.0,0.001647,-0.0032329999999999998,-0.001464,-0.29750000000000004,1.0850000000000002,-4.8475,0.9143125,-0.0505,-0.41834375,0.95678125,0.8775625,-0.48928125,-1.0073125,0.8774375,0.0179172775844534,0.023551861080633917,True
34000,75276,0,75277,2531.0,36530.0,25707.0,0.003355,-0.001037,-0.000305,-0.14,0.6825000000000001,-4.83,0.91559375,-0.05675,-0.42153125,0.96028125,0.871375,-0.4880625,-1.008625,0.8777812500000001,0.017613173765788942,0.023475650900439352,True
34001,75277,0,75278,2532.0,36530.0,25707.0,0.002196,-0.000732,0.0011589999999999999,-0.10500000000000001,0.2625,-4.7075000000000005,0.921125,-0.055843750000000004,-0.418125,0.96134375,0.8705625,-0.4885,-1.0080625,0.87715625,0.01766773179247402,0.02358989225974623,True
34002,75278,0,75279,2531.0,36528.0,25702.0,-0.000244,-0.0015249999999999999,0.001586,-0.0175,-0.07,-4.7075000000000005,0.9167500000000001,-0.046,-0.41840625000000004,0.96040625,0.87109375,-0.4895625,-1.0083125,0.878,0.018112308049602763,0.0235884068547208,True
34003,75279,0,75280,2532.0,36520.0,25692.0,0.000366,0.001037,0.00244,0.052500000000000005,-0.7000000000000001,-4.760000000000001,0.91796875,-0.05178125,-0.417875,0.95709375,0.872125,-0.48771875000000003,-1.00878125,0.87075,0.01780229119954263,0.023627950682322835,True
34004,75280,0,75281,2530.0,36513.0,25682.0,0.00671,0.0044529999999999995,-0.002196,0.22750000000000004,-1.5750000000000002,-4.567500000000001,0.914,-0.05428125,-0.4189375,0.9564375,0.87390625,-0.48875,-1.01196875,0.88196875,0.017741565004338728,0.023709898885908375,True
34005,75281,0,75282,2527.0,36509.0,25674.0,0.005673,0.005124,-0.0023179999999999997,0.35000000000000003,-1.3825,-4.532500000000001,0.9133125,-0.053,-0.41881250000000003,0.95675,0.87553125,-0.4906875,-1.01075,0.8827812500000001,0.017871588945798277,0.02366732305108803,True
34006,75282,0,75283,2525.0,36506.0,25666.0,0.001647,0.0051849999999999995,-0.002623,0.5775,-1.0325000000000002,-4.340000000000001,0.9143125,-0.05328125,-0.420875,0.962375,0.8749687500000001,-0.48878125,-1.008875,0.8780625,0.017783653484184724,0.023511653363056113,True
34007,75283,0,75284,2521.0,36504.0,25661.0,0.001098,0.004697,0.0006709999999999999,0.5950000000000001,-0.7875000000000001,-4.0075,0.9227500000000001,-0.051750000000000004,-0.4180625,0.9616875,0.872,-0.48825,-1.008125,0.877625,0.017824875195246698,0.023594831679704095,True
34008,75284,0,75285,2519.0,36503.0,25658.0,0.0006709999999999999,0.003843,6.1e-05,0.47250000000000003,-0.665,-3.8675,0.9196875,-0.0578125,-0.42240625,0.963,0.87228125,-0.4884375,-1.00859375,0.8648125,0.017584829575182166,0.02343944269157477,True
34009,75285,0,75286,2514.0,36500.0,25653.0,0.0015249999999999999,-0.003721,0.000244,0.08750000000000001,-0.2625,-3.8500000000000005,0.9151875,-0.053375,-0.41615625,0.9518125000000001,0.8669687500000001,-0.48440625,-1.0124375,0.89325,0.017604317033417954,0.023839389903523002,True
34010,75286,0,75287,2512.0,36499.0,25649.0,-0.001281,-0.007686,0.0011589999999999999,-0.10500000000000001,0.14,-3.9550000000000005,0.9139375000000001,-0.05334375,-0.418625,0.95640625,0.88903125,-0.49596875,-1.0150000000000001,0.88615625,0.018069299667930055,0.023840695582650413,True
34011,75287,0,75288,2508.0,36501.0,25650.0,-0.005856,-0.008784,0.002074,-0.12250000000000001,0.6300000000000001,-4.0425,0.91671875,-0.05575,-0.42146875,0.95840625,0.8700625000000001,-0.48678125,-1.007125,0.872625,0.0176026095712355,0.023419575421005014,True
34012,75288,0,75289,2507.0,36500.0,25648.0,-0.009089,-0.008539999999999999,0.00183,-0.15750000000000003,0.9975,-4.0600000000000005,0.91446875,-0.0538125,-0.41771875,0.9503125,0.8664375,-0.48731250000000004,-1.01146875,0.88,0.017703045199427257,0.02373910968343272,True
34013,75289,0,75290,2505.0,36498.0,25646.0,-0.009333,-0.0055509999999999995,0.001952,-0.0175,0.9450000000000001,-3.9725000000000006,0.9137500000000001,-0.05396875,-0.4185,0.9560000000000001,0.87271875,-0.49059375,-1.0045625,0.87875,0.017828273354948774,0.0234382225243893,True
34014,75290,0,75291,2504.0,36498.0,25646.0,-0.003904,0.000305,0.001098,0.35000000000000003,-0.0175,-3.9375000000000004,0.919,-0.05734375,-0.41681250000000003,0.9611875,0.8667812500000001,-0.48684375,-1.00440625,0.873625,0.017540031062598667,0.023499608194055794,True
34015,75291,0,75292,2502.0,36499.0,25643.0,-0.003904,0.003843,-0.00042699999999999997,0.45500000000000007,-0.6300000000000001,-3.8675,0.9154375,-0.053625,-0.41828125,0.956125,0.8725,-0.49515625,-1.0147187500000001,0.89046875,0.018025247338440638,0.023843462161652333,True
34016,75292,0,75293,2503.0,36499.0,25643.0,-0.002196,0.007503,0.0006709999999999999,0.7175,-1.4175000000000002,-3.9375000000000004,0.9146562500000001,-0.05378125,-0.4181875,0.95284375,0.87821875,-0.48875,-1.0069062500000001,0.86534375,0.017761982543004443,0.023542246454416976,True
34017,75293,0,75294,2503.0,36497.0,25643.0,0.000976,0.009637999999999999,0.0011589999999999999,0.8575,-2.0125,-3.9375000000000004,0.9136875,-0.04865625,-0.4185,0.9560000000000001,0.87721875,-0.48840625,-1.00959375,0.8861875,0.01795747732664309,0.023634680191476524,True
34018,75294,0,75295,2502.0,36496.0,25643.0,0.0030499999999999998,0.0073809999999999995,0.00183,0.8575,-2.66,-3.8500000000000005,0.91440625,-0.05425,-0.41890625000000004,0.955875,0.8705,-0.48684375,-1.00871875,0.88746875,0.017666374417895325,0.023584274984099297,True
34019,75295,0,75296,2505.0,36500.0,25648.0,0.004697,-0.000549,0.001464,0.525,-3.2550000000000003,-3.9375000000000004,0.9148437500000001,-0.0538125,-0.421,0.9644375000000001,0.89253125,-0.49453125000000003,-1.00965625,0.86246875,0.017992536599368482,0.023537158772424148,True
34020,75296,0,75297,2504.0,36500.0,25649.0,0.001403,-0.001281,0.001586,0.3325,-3.3600000000000003,-3.8500000000000005,0.92228125,-0.0570625,-0.41881250000000003,0.9530625,0.86459375,-0.48731250000000004,-1.004375,0.88365625,0.017570323407274685,0.023418401779688555,True
34021,75297,0,75298,2507.0,36505.0,25656.0,0.0006709999999999999,-0.003294,0.000366,0.22750000000000004,-3.4650000000000003,-3.9200000000000004,0.91425,-0.05375,-0.4191875,0.95596875,0.88096875,-0.49109375,-1.009625,0.882625,0.017857256783397023,0.02360841076185668,True
34022,75298,0,75299,2507.0,36506.0,25661.0,0.000793,-0.0021349999999999997,-0.001403,0.24500000000000002,-3.7100000000000004,-3.9200000000000004,0.91421875,-0.0533125,-0.414125,0.9555625,0.87803125,-0.49065625,-1.006875,0.88515625,0.01785757578464236,0.023703481542575785,True
34023,75299,0,75300,2509.0,36508.0,25665.0,0.005124,-0.0023179999999999997,-0.0037819999999999998,0.28,-3.9550000000000005,-3.8500000000000005,0.9095,-0.0473125,-0.41931250000000003,0.95896875,0.87484375,-0.488,-1.0090625,0.879125,0.017996059294348252,0.023581451723750143,True
34024,75300,0,75301,2509.0,36510.0,25665.0,0.0025009999999999998,0.001403,-0.0018909999999999999,0.4025,-3.5525,-3.6225000000000005,0.9204375,-0.0561875,-0.42203125,0.9595312500000001,0.87184375,-0.48865625,-1.0074375,0.87715625,0.017659962457107055,0.02340928573749309,True
34025,75301,0,75302,2511.0,36509.0,25668.0,0.002196,0.001464,-0.002562,0.4025,-3.3075,-3.5525,0.921375,-0.05721875,-0.42046875,0.9639375,0.871125,-0.4884375,-1.00809375,0.86853125,0.017609075711751722,0.023497392719107193,True
34026,75302,0,75303,2514.0,36514.0,25670.0,0.000488,0.000732,-0.002623,0.28,-3.3075,-3.6400000000000006,0.91340625,-0.05665625,-0.421,0.96175,0.87140625,-0.48696875,-1.0055625,0.8738125,0.017573122438848215,0.02337729855107238,True
34027,75303,0,75304,2515.0,36516.0,25673.0,-6.1e-05,-0.0006709999999999999,-0.0026839999999999998,0.28,-3.2550000000000003,-3.7975000000000003,0.9168437500000001,-0.05446875,-0.41875,0.9557187500000001,0.8718750000000001,-0.48878125,-1.00815625,0.8745937500000001,0.01773516189173359,0.023568560757053016,True
34028,75304,0,75305,2517.0,36517.0,25674.0,-0.000793,-0.001952,0.0008539999999999999,0.36750000000000005,-3.3425000000000002,-3.8500000000000005,0.9156562500000001,-0.0563125,-0.42025,0.9621875,0.871375,-0.48531250000000004,-1.00825,0.87746875,0.017520707567036362,0.023512240960483044,True
34029,75305,0,75306,2519.0,36521.0,25680.0,0.000183,-0.003477,0.001586,0.385,-3.2375000000000003,-3.8325000000000005,0.9216562500000001,-0.05346875,-0.4181875,0.95646875,0.8708750000000001,-0.488375,-1.00815625,0.87921875,0.017759702307727644,0.023591053418822117,True
34030,75306,0,75307,2520.0,36522.0,25682.0,0.001586,-0.0026839999999999998,0.002196,0.49000000000000005,-3.1325000000000003,-3.9375000000000004,0.91453125,-0.05378125,-0.41571875,0.9619375,0.8765625,-0.49159375,-1.00775,0.87784375,0.01787603144446245,0.02367391108756285,True
34031,75307,0,75308,2520.0,36523.0,25684.0,-0.001098,-0.0013419999999999999,0.0025009999999999998,0.47250000000000003,-3.0450000000000004,-3.8500000000000005,0.9088437500000001,-0.0566875,-0.4195625,0.9540625,0.87203125,-0.488375,-1.00825,0.8778750000000001,0.017628262389807407,0.023539731888476804,True
34032,75308,0,75309,2522.0,36522.0,25684.0,-0.002562,-0.0006709999999999999,0.0006709999999999999,0.525,-2.9925,-3.7625,0.92225,-0.0553125,-0.419625,0.95646875,0.86575,-0.48759375,-1.0080625,0.8838125,0.01765307177231328,0.02352991160350787,True
34033,75309,0,75310,2523.0,36526.0,25688.0,0.0034159999999999998,0.002745,0.0011589999999999999,0.5425000000000001,-2.9225000000000003,-3.6575,0.90378125,-0.05128125,-0.42,0.94534375,0.87925,-0.48315625,-1.00828125,0.88265625,0.01763967829923889,0.023523457854585674,True
34034,75310,0,75311,2524.0,36527.0,25690.0,0.0015249999999999999,0.003111,-0.00061,0.56,-2.6775,-3.6400000000000006,0.915625,-0.0536875,-0.41921875000000003,0.956875,0.878125,-0.4905,-1.01025,0.88675,0.017835997631734754,0.02363156105996542,True
34035,75311,0,75312,2526.0,36527.0,25690.0,-0.0015249999999999999,0.004331,0.000915,0.43750000000000006,-2.555,-3.7975000000000003,0.91490625,-0.0541875,-0.4185,0.952875,0.8795625,-0.4910625,-1.0115,0.88303125,0.017838139933700304,0.023709093816844252,True
34036,75312,0,75313,2527.0,36532.0,25696.0,-0.003477,0.001098,-0.0008539999999999999,0.43750000000000006,-2.6250000000000004,-3.7275000000000005,0.91109375,-0.05346875,-0.4175625,0.95378125,0.878375,-0.48984375,-1.00884375,0.88290625,0.017818611031358664,0.023642886328961128,True
34037,75313,0,75314,2529.0,36531.0,25697.0,-0.002257,-0.000732,-0.000732,0.35000000000000003,-2.87,-3.6925000000000003,0.9106562500000001,-0.04996875,-0.41728125,0.9546250000000001,0.8794062500000001,-0.49275,-1.01009375,0.88590625,0.01807805370977126,0.0237029299420359,True
34038,75314,0,75315,2531.0,36532.0,25697.0,0.00183,0.001647,-0.000976,0.2625,-3.1500000000000004,-3.9025000000000003,0.9156562500000001,-0.05465625,-0.42009375,0.95615625,0.8804062500000001,-0.48462500000000003,-1.00575,0.88309375,0.017560765174063315,0.023420863201463665,True
34039,75315,0,75316,2531.0,36531.0,25699.0,0.0015249999999999999,0.000549,-0.000244,0.29750000000000004,-3.1850000000000005,-3.8675,0.9155,-0.0539375,-0.41853125,0.9546250000000001,0.878625,-0.4904375,-1.0105,0.883875,0.017823283067115482,0.02366880910017792,True
34040,75316,0,75317,2534.0,36534.0,25701.0,0.002928,-0.00061,0.0008539999999999999,0.28,-3.2375000000000003,-3.7625,0.9128125,-0.045625,-0.4151875,0.96175,0.8775000000000001,-0.4893125,-1.0093125,0.88365625,0.018117597217153402,0.023756150833814403,True
34041,75317,0,75318,2533.0,36537.0,25702.0,0.0037819999999999998,-0.0013419999999999999,0.000305,0.24500000000000002,-3.2725000000000004,-3.6750000000000003,0.917375,-0.055656250000000004,-0.42428125,0.9601875,0.8775937500000001,-0.49115625,-1.0110000000000001,0.87834375,0.017781928936082797,0.023458428291551724,True
34042,75318,0,75319,2534.0,36538.0,25705.0,0.002074,-0.001037,-0.000915,0.24500000000000002,-3.1325000000000003,-3.7100000000000004,0.92503125,-0.05721875,-0.4165625,0.95425,0.8717812500000001,-0.48815625,-1.0084375,0.87690625,0.017597792810555103,0.023667012383320637,True
34043,75319,0,75320,2534.0,36538.0,25706.0,0.002562,-0.001098,-0.003904,0.3325,-2.6775,-4.077500000000001,0.911875,-0.055875,-0.42096875,0.9653125,0.87675,-0.49012500000000003,-1.0101875,0.87925,0.017731636731131428,0.023559149646519045,True
34044,75320,0,75321,2537.0,36537.0,25709.0,0.0026839999999999998,-0.002379,-0.0026839999999999998,0.28,-2.3975000000000004,-3.9550000000000005,0.92603125,-0.05796875,-0.41728125,0.9536250000000001,0.87,-0.48825,-1.0084375,0.8776875000000001,0.017570926873092196,0.023638272083171933,True
34045,75321,0,75322,2537.0,36539.0,25712.0,0.0013419999999999999,-0.001769,-6.1e-05,0.28,-2.0300000000000002,-3.9375000000000004,0.91628125,-0.054375,-0.4225,0.96028125,0.8719375,-0.4849375,-1.0079375,0.87721875,0.0175847906493533,0.023410067303631096,True
34046,75322,0,75323,2538.0,36543.0,25714.0,0.000122,-0.002196,0.001281,0.31500000000000006,-1.54,-3.9025000000000003,0.91196875,-0.0533125,-0.41734375,0.94871875,0.8709687500000001,-0.4895,-1.008875,0.8778750000000001,0.017811204802058025,0.023652853237100827,True
34047,75323,0,75324,2540.0,36543.0,25716.0,-0.00244,-0.0015249999999999999,0.001952,0.28,-1.1900000000000002,-3.9200000000000004,0.9101250000000001,-0.0538125,-0.4179375,0.9566875,0.874125,-0.4891875,-1.00915625,0.8814062500000001,0.017778254178502248,0.02364009181637225,True
34048,75324,0,75325,2541.0,36543.0,25719.0,-0.003904,-0.000793,0.003965,0.28,-1.0325000000000002,-4.025,0.9178125,-0.05765625,-0.419375,0.9625625,0.8686875000000001,-0.48878125,-1.00828125,0.8786875000000001,0.017605000248838435,0.023548449576077924,True
34049,75325,0,75326,2541.0,36547.0,25721.0,-0.003538,-0.0006709999999999999,0.001281,0.36750000000000005,-1.2775,-4.1475,0.920625,-0.05765625,-0.42234375,0.961875,0.87253125,-0.4883125,-1.00803125,0.8776875000000001,0.01758619545548514,0.02341997633260315,True
34050,75326,0,75327,2543.0,36551.0,25727.0,-0.002745,0.002013,-0.000122,0.45500000000000007,-1.4875,-4.0425,0.92025,-0.055093750000000004,-0.41771875,0.95665625,0.8715937500000001,-0.488,-1.0065,0.8780625,0.01767830161711859,0.02354512826665067,True
34051,75327,0,75328,2544.0,36550.0,25728.0,-0.000549,0.003477,-0.001586,0.5075000000000001,-1.8025000000000002,-4.0075,0.9145,-0.05325,-0.41746875,0.9565625,0.8639687500000001,-0.489375,-1.01184375,0.9,0.017808743587780416,0.023763741927261953,True
34052,75328,0,75329,2545.0,36550.0,25730.0,0.000793,0.003965,-0.001647,0.5950000000000001,-1.995,-3.9725000000000006,0.91409375,-0.0545,-0.418875,0.95859375,0.90146875,-0.49565625,-1.01375,0.88575,0.018009570574374793,0.02378191994403078,True
34053,75329,0,75330,2548.0,36551.0,25734.0,0.0023179999999999997,0.00488,-0.000915,0.6125,-1.9775000000000003,-3.8325000000000005,0.9194687500000001,-0.05328125,-0.41871875000000003,0.96028125,0.8748750000000001,-0.49212500000000003,-1.01275,0.8865937500000001,0.017917749072405925,0.023749137939650777,True
34054,75330,0,75331,2550.0,36553.0,25736.0,0.002257,0.0035989999999999998,-0.000488,0.5425000000000001,-1.8375000000000001,-3.7625,0.9138125,-0.05415625,-0.417875,0.95634375,0.88475,-0.5001875,-1.01990625,0.89375,0.018205217817210583,0.02406209056039129,True
34055,75331,0,75332,2551.0,36554.0,25736.0,0.0040869999999999995,0.003904,-0.000793,0.56,-1.8200000000000003,-3.8325000000000005,0.91371875,-0.0545,-0.41940625000000004,0.95625,0.88746875,-0.49834375000000003,-1.0089375,0.87828125,0.01811729619476827,0.023572822715879075,True
34056,75332,0,75333,2552.0,36550.0,25734.0,0.004026,-0.000732,-0.000183,0.42000000000000004,-1.61,-3.7975000000000003,0.914375,-0.0543125,-0.4185,0.9560625,0.8667812500000001,-0.487875,-1.00265625,0.8799375,0.017705190834239395,0.023363767599692532,True
34057,75333,0,75334,2553.0,36547.0,25724.0,0.0035989999999999998,-0.0034159999999999998,0.0011589999999999999,0.28,-1.155,-3.6575,0.9066875,-0.0536875,-0.41981250000000003,0.95540625,0.88490625,-0.495875,-1.0033750000000001,0.87765625,0.01805150867237851,0.023339349187859643,True
34058,75334,0,75335,2551.0,36542.0,25715.0,-0.0035989999999999998,-0.00732,0.00122,0.10500000000000001,-0.21000000000000002,-3.99,0.91871875,-0.0569375,-0.42175,0.96325,0.86,-0.48328125,-1.002875,0.8675,0.01741366876631375,0.023242327132379774,True
34059,75335,0,75336,2549.0,36537.0,25707.0,-0.005673,-0.0050019999999999995,0.0008539999999999999,0.052500000000000005,-0.035,-4.095000000000001,0.92153125,-0.056,-0.4219375,0.96275,0.86140625,-0.48571875000000003,-1.00278125,0.8640625000000001,0.017549770720943204,0.02323116553283447,True
34060,75336,0,75337,2547.0,36536.0,25700.0,-0.0064659999999999995,-0.002623,0.000732,0.15750000000000003,-0.10500000000000001,-3.99,0.92078125,-0.05609375,-0.41865625,0.9561875,0.85103125,-0.4870625,-1.0046875,0.882375,0.017599855025485396,0.023436855589576956,True
34061,75337,0,75338,2545.0,36534.0,25697.0,-0.006039,-0.001769,-0.000793,0.24500000000000002,-0.5075000000000001,-3.9200000000000004,0.9144375,-0.05378125,-0.419,0.9558125000000001,0.88503125,-0.49803125000000004,-1.0150000000000001,0.8934375,0.018134110266513764,0.02382570457725365,True
34062,75338,0,75339,2543.0,36533.0,25694.0,-0.0064659999999999995,0.0006709999999999999,-0.000732,0.2625,-0.8750000000000001,-3.9025000000000003,0.91390625,-0.0576875,-0.4195625,0.9516875,0.8796875000000001,-0.49028125,-1.0025,0.86834375,0.017663894733752804,0.02331516848315168,True
34063,75339,0,75340,2540.0,36530.0,25687.0,0.001464,0.002989,0.000366,0.5425000000000001,-1.9425000000000001,-3.7800000000000002,0.913625,-0.05396875,-0.4180625,0.95615625,0.86675,-0.48971875000000004,-1.00840625,0.8860625,0.017793181067054926,0.02360581254553156,True
34064,75340,0,75341,2536.0,36528.0,25684.0,0.005307,0.004026,-0.001098,0.56,-2.415,-3.6925000000000003,0.9139375000000001,-0.05371875,-0.41878125,0.95634375,0.8773125,-0.4896875,-1.0070000000000001,0.88596875,0.01780213610320671,0.023522163794137647,True
34065,75341,0,75342,2532.0,36524.0,25678.0,0.002623,0.004392,-0.001464,0.6125,-2.765,-3.8325000000000005,0.9137500000000001,-0.053875,-0.4200625,0.95634375,0.8795625,-0.4903125,-1.01240625,0.8845000000000001,0.017820822008702417,0.023681997808587485,True
34066,75342,0,75343,2530.0,36522.0,25674.0,0.002379,0.004026,0.0013419999999999999,0.56,-2.9225000000000003,-3.7975000000000003,0.91315625,-0.0541875,-0.41928125,0.95515625,0.8760625,-0.49112500000000003,-1.010375,0.88478125,0.017840646356588358,0.023633941914105644,True
34067,75343,0,75344,2527.0,36517.0,25668.0,0.0059169999999999995,0.000549,0.001281,0.525,-2.9400000000000004,-3.5875000000000004,0.9138125,-0.047125,-0.41975,0.96096875,0.87909375,-0.4910625,-1.00975,0.88434375,0.018126510436205043,0.02359079958816061,True
34068,75344,0,75345,2525.0,36513.0,25662.0,0.00366,-0.001403,0.002257,0.4025,-2.345,-3.535,0.92,-0.055531250000000004,-0.41809375,0.95809375,0.873375,-0.48815625,-1.00871875,0.87796875,0.01766670367435278,0.023616763653675786,True
34069,75345,0,75346,2523.0,36506.0,25659.0,0.002806,-0.003904,0.0028669999999999998,0.22750000000000004,-1.9425000000000001,-3.5875000000000004,0.91840625,-0.05575,-0.41796875,0.95534375,0.8708750000000001,-0.4883125,-1.008125,0.87790625,0.01766403871234492,0.02359858046135006,True
34070,75346,0,75347,2520.0,36506.0,25654.0,0.00366,-0.004514,-0.000244,0.1925,-1.5575,-3.6925000000000003,0.91440625,-0.05409375,-0.4111875,0.9560625,0.8695625,-0.4885,-1.00846875,0.882625,0.017739193907344266,0.02388315957969238,True
34071,75347,0,75348,2519.0,36504.0,25655.0,-0.000976,-0.002257,-0.002745,0.29750000000000004,-1.4875,-3.7625,0.91425,-0.05446875,-0.419875,0.955875,0.88090625,-0.49071875000000004,-1.009875,0.885,0.017812870436887444,0.023590681680736112,True
34072,75348,0,75349,2520.0,36504.0,25653.0,-0.002196,-0.000183,-0.0030499999999999998,0.36750000000000005,-1.1375000000000002,-3.8500000000000005,0.9129375000000001,-0.05475,-0.418875,0.95115625,0.872125,-0.49140625,-1.01084375,0.88365625,0.01782895786149478,0.023668483795153853,True
34073,75349,0,75350,2519.0,36504.0,25654.0,-0.0050019999999999995,0.001769,-0.003294,0.47250000000000003,-1.05,-3.8150000000000004,0.91446875,-0.05440625,-0.4199375,0.9558125000000001,0.87771875,-0.49090625,-1.01009375,0.8863125000000001,0.01782294193380451,0.023596722823160148,True
34074,75350,0,75351,2520.0,36504.0,25655.0,-0.008113,0.00061,-0.001952,0.47250000000000003,-1.0850000000000002,-3.8850000000000002,0.91446875,-0.046906250000000003,-0.41775,0.9553125,0.87975,-0.49025,-1.0069062500000001,0.880875,0.018102867467665706,0.023559741621377098,True
34075,75351,0,75352,2520.0,36506.0,25658.0,-0.00488,-0.00061,0.0011589999999999999,0.56,-1.2950000000000002,-3.7450000000000006,0.91528125,-0.05109375,-0.41334375,0.95453125,0.87315625,-0.48781250000000004,-1.00859375,0.8775625,0.0178341266701548,0.02380181812501952,True
34076,75352,0,75353,2521.0,36508.0,25663.0,-0.0044529999999999995,-0.0015249999999999999,0.000549,0.6475000000000001,-1.8550000000000002,-3.6225000000000005,0.91009375,-0.046875,-0.4171875,0.95075,0.87046875,-0.48884375,-1.0086875,0.87565625,0.01804775899229624,0.023651781006100377,True
34077,75353,0,75354,2521.0,36511.0,25666.0,-0.00366,-0.001098,0.00244,0.7175,-2.4675000000000002,-3.6925000000000003,0.896375,-0.052125,-0.41646875,0.951375,0.871625,-0.48828125,-1.00271875,0.87840625,0.017810815122029033,0.02344745008980274,True
34078,75354,0,75355,2522.0,36513.0,25668.0,0.0062829999999999995,-0.000549,0.0028669999999999998,0.6825000000000001,-3.43,-3.3075,0.9068437500000001,-0.05653125,-0.42121875000000003,0.97040625,0.8665625,-0.49065625,-1.01115625,0.88509375,0.01772614811005728,0.023586974312712953,True
34079,75355,0,75356,2525.0,36512.0,25672.0,0.0059169999999999995,0.001586,0.001281,0.8925000000000001,-3.7800000000000002,-3.2725000000000004,0.92334375,-0.055125,-0.41525,0.9497187500000001,0.87871875,-0.488,-1.0074375,0.87740625,0.017677025481868672,0.023680455064618272,True
34080,75356,0,75357,2527.0,36516.0,25673.0,0.0070149999999999995,0.002928,0.001098,0.8750000000000001,-3.8325000000000005,-3.43,0.90740625,-0.054125,-0.42140625,0.95359375,0.8659375,-0.49140625,-1.01165625,0.88653125,0.017854477016810744,0.023598996967663825,True
34081,75357,0,75358,2527.0,36514.0,25676.0,0.009089,0.000549,-0.000122,0.805,-3.7450000000000006,-3.4650000000000003,0.9312812500000001,-0.063,-0.421,0.96846875,0.878625,-0.49046875,-1.01009375,0.87809375,0.017454494414281065,0.023554239975609848,True
34082,75358,0,75359,2528.0,36516.0,25676.0,0.005429,-0.000793,-0.002928,0.7525000000000001,-3.4125000000000005,-3.5175000000000005,0.90996875,-0.05215625,-0.416125,0.94803125,0.8703125,-0.48878125,-1.00871875,0.8785625,0.017829592887559483,0.023695486199188036,True
34083,75359,0,75360,2529.0,36517.0,25679.0,0.001037,0.001037,-0.001952,0.6300000000000001,-2.2575000000000003,-3.7625,0.9128437500000001,-0.05996875,-0.42409375,0.9654375000000001,0.8730625,-0.48540625,-1.0095625,0.8715,0.017375145654362992,0.023409795753124428,True
34084,75360,0,75361,2531.0,36518.0,25680.0,-0.000976,0.0011589999999999999,-0.003172,0.665,-1.7675,-3.6575,0.92171875,-0.050125,-0.415375,0.9508125000000001,0.8719375,-0.48821875000000003,-1.00884375,0.87746875,0.017889980258364035,0.023730355386781924,True
34085,75361,0,75362,2533.0,36523.0,25684.0,-0.0046359999999999995,0.001647,-0.0015249999999999999,0.7350000000000001,-1.2775,-3.7450000000000006,0.907,-0.05346875,-0.4123125,0.9498125000000001,0.86653125,-0.48515625,-1.00959375,0.88284375,0.017630579751762868,0.023882085249785395,True
34086,75362,0,75363,2533.0,36524.0,25684.0,-0.005124,0.003721,0.000305,0.8225000000000001,-0.9975,-3.8850000000000002,0.91390625,-0.055531250000000004,-0.42562500000000003,0.9665312500000001,0.8778125,-0.48996875,-1.01121875,0.8835000000000001,0.01773940605783746,0.023413243307065953,True
34087,75363,0,75364,2534.0,36527.0,25688.0,-0.002379,0.0025009999999999998,0.001647,0.6825000000000001,-0.7875000000000001,-3.7800000000000002,0.9216875,-0.0581875,-0.41550000000000004,0.9597187500000001,0.875,-0.48771875000000003,-1.00809375,0.87740625,0.017540680468653293,0.023696078394619742,True
34088,75364,0,75365,2535.0,36528.0,25691.0,-0.005124,0.001952,0.0037819999999999998,0.4025,-0.6300000000000001,-4.025,0.9170625,-0.0539375,-0.41931250000000003,0.9599062500000001,0.872125,-0.48875,-1.00884375,0.86590625,0.017755602062171406,0.023572911082704495,True
34089,75365,0,75366,2536.0,36529.0,25695.0,-0.002196,0.00042699999999999997,0.005307,0.45500000000000007,-0.5950000000000001,-3.8850000000000002,0.9196562500000001,-0.05678125,-0.42296875,0.9635625,0.87175,-0.48771875000000003,-1.00871875,0.87825,0.01759810721445827,0.023421831636216875,True
34090,75366,0,75367,2537.0,36532.0,25696.0,-0.000244,-0.0018909999999999999,0.00183,0.35000000000000003,-0.7175,-3.8150000000000004,0.9135625,-0.05475,-0.42031250000000003,0.96365625,0.8775000000000001,-0.49046875,-1.00415625,0.88334375,0.017791360159245623,0.02334986808443096,True
34091,75367,0,75368,2537.0,36534.0,25702.0,0.0013419999999999999,-0.004758,0.000915,0.22750000000000004,-0.7175,-3.9550000000000005,0.9194375,-0.05678125,-0.41915625,0.95940625,0.87325,-0.49059375,-1.01134375,0.885,0.017713433346220935,0.02367675667166023,True
34092,75368,0,75369,2540.0,36538.0,25700.0,0.003721,-0.00366,-0.002074,0.07,-0.77,-4.0600000000000005,0.9164375,-0.05309375,-0.42096875,0.9595625,0.87728125,-0.4909375,-1.0110937500000001,0.8830625,0.01787778642610149,0.023594529927344746,True
34093,75369,0,75370,2540.0,36540.0,25705.0,0.00366,-0.002989,-0.003294,0.07,-0.5950000000000001,-4.077500000000001,0.918625,-0.05421875,-0.4215,0.96165625,0.8755625,-0.48803125,-1.00378125,0.8785625,0.017715286932264106,0.023287727731180662,True
34094,75370,0,75371,2542.0,36542.0,25706.0,0.001769,-0.0026839999999999998,-0.0030499999999999998,0.035,-0.1925,-3.9725000000000006,0.9139375000000001,-0.0505625,-0.41928125,0.9556250000000001,0.87103125,-0.4883125,-1.0094375,0.87840625,0.01787587446052071,0.023597342003393716,True
34095,75371,0,75372,2542.0,36541.0,25710.0,-0.0017079999999999999,-0.0011589999999999999,-0.003477,0.07,-0.0175,-4.0425,0.9131875,-0.05375,-0.418,0.9566250000000001,0.865375,-0.4888125,-1.00871875,0.87671875,0.017765765489853782,0.02362051234631923,True
34096,75372,0,75373,2545.0,36542.0,25713.0,-0.005063,0.000122,-0.002623,0.1925,-0.12250000000000001,-4.1825,0.9136562500000001,-0.055093750000000004,-0.41931250000000003,0.95840625,0.87203125,-0.48884375,-1.0108125000000001,0.884125,0.017712146985298154,0.02364977147383757,True
34097,75373,0,75374,2545.0,36544.0,25716.0,-0.0050019999999999995,0.0006709999999999999,0.000488,0.5075000000000001,-0.665,-3.9725000000000006,0.9071250000000001,-0.05746875,-0.42081250000000003,0.9617187500000001,0.8773125,-0.49025,-1.01046875,0.877625,0.017671573381243557,0.023576377391967114,True
34098,75374,0,75375,2548.0,36546.0,25716.0,-0.0046359999999999995,0.002745,0.000488,0.6825000000000001,-1.225,-3.9375000000000004,0.9205,-0.05384375,-0.41834375,0.9571875,0.868375,-0.48753125,-1.008,0.87003125,0.017710544014109222,0.023578704814459374,True
34099,75375,0,75376,2546.0,36547.0,25722.0,-0.001952,0.003355,0.004148,0.6125,-1.8200000000000003,-3.7975000000000003,0.9145625000000001,-0.05359375,-0.41390625000000003,0.9565,0.8714375,-0.488375,-1.008625,0.87721875,0.017754597844895793,0.023780545711729457,True
34100,75376,0,75377,2549.0,36547.0,25723.0,0.0015249999999999999,0.002074,0.0057339999999999995,0.8225000000000001,-2.3975000000000004,-3.4825000000000004,0.9138437500000001,-0.05375,-0.4191875,0.9564375,0.869,-0.4879375,-1.0081875,0.87840625,0.01773066841582718,0.02355228662612994,True
34101,75377,0,75378,2550.0,36549.0,25727.0,0.0037819999999999998,0.001769,0.003477,0.8925000000000001,-2.6250000000000004,-3.325,0.9061250000000001,-0.05378125,-0.41878125,0.9566250000000001,0.874375,-0.49028125,-1.01171875,0.8840625,0.017823396781121083,0.023706387630798062,True
34102,75378,0,75379,2552.0,36551.0,25726.0,-0.002013,0.0046359999999999995,-0.002074,0.9100000000000001,-3.2725000000000004,-3.1500000000000004,0.91053125,-0.0545625,-0.4195625,0.9586875,0.87896875,-0.49109375,-1.01003125,0.8860625,0.01782408145818314,0.023609276777692943,True
34103,75379,0,75380,2553.0,36552.0,25730.0,0.00061,0.002379,-0.003355,0.77,-3.3600000000000003,-3.22,0.91909375,-0.055656250000000004,-0.4191875,0.9560000000000001,0.8798125,-0.49090625,-1.00815625,0.8836875000000001,0.01777190258118766,0.023551066464565937,True
34104,75380,0,75381,2556.0,36553.0,25733.0,0.0008539999999999999,-6.1e-05,-0.003721,0.7175,-3.6925000000000003,-3.1500000000000004,0.915875,-0.0545,-0.41846875,0.95675,0.8785000000000001,-0.49062500000000003,-1.011625,0.8835937500000001,0.017807834630598443,0.02371522242157397,True
34105,75381,0,75382,2554.0,36556.0,25738.0,0.0015249999999999999,-0.00042699999999999997,-0.006588,0.665,-3.6575,-3.0275000000000003,0.91409375,-0.05425,-0.4185,0.95553125,0.87740625,-0.49040625,-1.010125,0.87765625,0.01780926970127333,0.02365541955508019,True
34106,75382,0,75383,2558.0,36556.0,25740.0,-0.002013,-0.000366,-0.00042699999999999997,0.7000000000000001,-3.6225000000000005,-2.9575000000000005,0.9140625,-0.0530625,-0.41450000000000004,0.95646875,0.86209375,-0.48725,-1.00784375,0.87853125,0.017731166219154867,0.0237263058715328,True
34107,75383,0,75384,2560.0,36560.0,25744.0,0.006588,-0.010369999999999999,0.00122,0.47250000000000003,-3.8675,-2.9225000000000003,0.91340625,-0.0543125,-0.41815625,0.9569375,0.8709375,-0.4825,-1.0088125000000001,0.8789375,0.017489533340140917,0.023617924681549756,True
34108,75384,0,75385,2561.0,36563.0,25747.0,0.003477,-0.00549,0.002074,0.5425000000000001,-3.9025000000000003,-3.1675000000000004,0.91390625,-0.054125,-0.4125625,0.9565,0.8730625,-0.48862500000000003,-1.00921875,0.87840625,0.017742931667253676,0.023857452564366895,True
34109,75385,0,75386,2563.0,36563.0,25752.0,0.0032329999999999998,0.002806,0.0025009999999999998,0.665,-3.5700000000000003,-3.3425000000000002,0.9140312500000001,-0.054125,-0.418125,0.94653125,0.87071875,-0.48828125,-1.002875,0.8785937500000001,0.017729143404051684,0.023387310459297178,True
34110,75386,0,75387,2565.0,36565.0,25752.0,0.0021349999999999997,0.003904,0.001586,0.805,-3.4475000000000002,-3.3600000000000003,0.9138125,-0.0544375,-0.41275,0.9566250000000001,0.87184375,-0.48834375,-1.00978125,0.88534375,0.017718889216425674,0.023871910115167445,True
34111,75387,0,75388,2566.0,36563.0,25749.0,0.003294,0.0018909999999999999,-0.000305,0.805,-3.1675000000000004,-3.4125000000000005,0.91459375,-0.0545,-0.4190625,0.957125,0.8803125,-0.4914375,-1.00853125,0.8875000000000001,0.01784041871776616,0.023570706496408102,True
34112,75388,0,75389,2567.0,36559.0,25742.0,0.001281,0.000732,-0.010309,0.5775,-2.2925000000000004,-3.6925000000000003,0.91396875,-0.05346875,-0.41928125,0.9560625,0.87609375,-0.4893125,-1.011875,0.88771875,0.01779730443637403,0.023692496064369427,True
34113,75389,0,75390,2567.0,36553.0,25731.0,0.001281,0.0,0.006954,0.7175,-1.6275000000000002,-3.7100000000000004,0.914375,-0.05225,-0.41903125,0.94734375,0.868625,-0.48925,-1.0106875,0.876625,0.01784456445174924,0.023656137001431887,True
34114,75390,0,75391,2563.0,36548.0,25723.0,-0.010126,0.000976,0.0040869999999999995,1.225,-1.54,-3.4475000000000002,0.9148125,-0.0540625,-0.41853125,0.9486875,0.8685625,-0.49046875,-1.00971875,0.8751875,0.017819432304659336,0.023638310606751624,True
34115,75391,0,75392,2562.0,36542.0,25712.0,-0.006893,0.0,-0.0032329999999999998,0.6300000000000001,-1.4175000000000002,-3.6400000000000006,0.9140625,-0.05384375,-0.41831250000000003,0.9560000000000001,0.8689687500000001,-0.48762500000000003,-1.008,0.87565625,0.017714304674299772,0.02357995441458733,True
34116,75392,0,75393,2558.0,36540.0,25705.0,0.0032329999999999998,-0.002623,-0.0026839999999999998,0.0175,-1.5225000000000002,-3.9725000000000006,0.92584375,-0.06253125,-0.42653125000000003,0.96846875,0.86840625,-0.48728125,-1.00965625,0.88609375,0.01734573943360903,0.023315994197241313,True
34117,75393,0,75394,2555.0,36535.0,25700.0,-0.0006709999999999999,0.0006709999999999999,0.002379,0.385,-1.5225000000000002,-4.130000000000001,0.92525,-0.06796875000000001,-0.43012500000000004,0.9800625000000001,0.8853125000000001,-0.49371875,-1.009375,0.88890625,0.01738200737689127,0.023161314507059848,True
34118,75394,0,75395,2551.0,36534.0,25694.0,-0.008723,0.003111,0.005246,0.5075000000000001,-1.1900000000000002,-3.99,0.94125,-0.05425,-0.4275,0.97184375,0.8834062500000001,-0.48628125,-1.01134375,0.8759375,0.017643808203828416,0.023343158042038424,True
34119,75395,0,75396,2548.0,36532.0,25690.0,-0.004392,0.00366,0.0018909999999999999,0.2625,-1.1375000000000002,-4.1475,0.9165625000000001,-0.0496875,-0.41325,0.94496875,0.86865625,-0.486875,-1.004125,0.8747812500000001,0.017853952372444422,0.02363110086835672,True
34120,75396,0,75397,2543.0,36528.0,25687.0,0.0051849999999999995,0.001952,-6.1e-05,0.052500000000000005,-1.2425000000000002,-4.4275,0.9022187500000001,-0.0523125,-0.41815625,0.9609375,0.868625,-0.48928125,-1.01353125,0.88090625,0.017843265612378884,0.023802117104117396,True
34121,75397,0,75398,2540.0,36527.0,25680.0,0.0044529999999999995,-0.0017079999999999999,-0.00122,-0.052500000000000005,-1.2600000000000002,-4.340000000000001,0.9354687500000001,-0.061625,-0.41884375,0.9653125,0.8844375,-0.4913125,-1.00775,0.87615625,0.017544486437792994,0.023548949825554076,True
34122,75398,0,75399,2537.0,36523.0,25676.0,-0.00366,-0.000793,0.000915,0.0175,-0.6300000000000001,-4.2175,0.902,-0.050812500000000003,-0.41715625,0.96003125,0.8689687500000001,-0.4835,-1.00990625,0.88675,0.01767261625176139,0.023700608633828845,True
34123,75399,0,75400,2536.0,36520.0,25672.0,6.1e-05,0.000366,0.000183,-0.052500000000000005,-0.6125,-4.340000000000001,0.9329375,-0.06281250000000001,-0.4284375,0.96484375,0.879375,-0.49090625,-1.01021875,0.875625,0.017479702287456187,0.023261741763054348,True
34124,75400,0,75401,2534.0,36514.0,25668.0,0.00061,-0.000976,0.000122,-0.21000000000000002,-0.6300000000000001,-4.445,0.928625,-0.062625,-0.419625,0.9647187500000001,0.8683125,-0.487375,-1.00790625,0.8767812500000001,0.01734567302538553,0.02352381059489936,True
34125,75401,0,75402,2532.0,36511.0,25665.0,0.001586,-0.0013419999999999999,-0.000122,-0.21000000000000002,-0.6300000000000001,-4.41,0.916875,-0.0505625,-0.41365625,0.94565625,0.8708750000000001,-0.48878125,-1.00934375,0.87815625,0.017894673709007058,0.023818597799072593,True
34126,75402,0,75403,2531.0,36511.0,25661.0,-0.0013419999999999999,-0.001281,0.000366,-0.17500000000000002,-0.665,-4.357500000000001,0.90240625,-0.047593750000000004,-0.4154375,0.947125,0.87209375,-0.4883125,-1.01059375,0.87690625,0.017997105762187573,0.023796166374498804,True
34127,75403,0,75404,2532.0,36508.0,25661.0,0.000122,-0.0006709999999999999,-0.001464,0.052500000000000005,-0.5775,-4.235,0.90278125,-0.05434375,-0.4165,0.945375,0.8794062500000001,-0.49275,-1.0131875000000001,0.88375,0.017899429422992517,0.023854916531529623,True
34128,75404,0,75405,2530.0,36506.0,25660.0,0.000488,-6.1e-05,-0.001586,0.0,-0.5075000000000001,-4.2700000000000005,0.901875,-0.05259375,-0.415625,0.9496875,0.87646875,-0.48865625,-1.00984375,0.8775937500000001,0.017806714078074416,0.023759394738321782,True
34129,75405,0,75406,2529.0,36505.0,25661.0,-0.000488,0.00061,-0.001403,0.08750000000000001,-0.5775,-4.322500000000001,0.90996875,-0.05290625,-0.4169375,0.9565625,0.87275,-0.4883125,-1.00984375,0.87753125,0.017780165538152128,0.023706915402060436,True
34130,75406,0,75407,2530.0,36507.0,25661.0,-0.00042699999999999997,-6.1e-05,-0.002013,0.035,-0.5425000000000001,-4.2700000000000005,0.9186562500000001,-0.0545625,-0.4185625,0.96140625,0.8706875000000001,-0.489,-1.004875,0.8666875,0.017740107803503612,0.023447927654107453,True
34131,75407,0,75408,2532.0,36508.0,25665.0,-0.0026839999999999998,0.000793,0.000549,0.15750000000000003,-0.5425000000000001,-4.2525,0.92090625,-0.05715625,-0.42059375,0.963,0.87084375,-0.484125,-1.00234375,0.8788750000000001,0.017438595416417783,0.023267818642002315,True
34132,75408,0,75409,2530.0,36509.0,25666.0,-0.000244,0.001586,-0.000183,0.22750000000000004,-0.8925000000000001,-4.4275,0.91309375,-0.05815625,-0.41971875000000003,0.94771875,0.87209375,-0.48821875000000003,-1.00575,0.88365625,0.01756201642881845,0.02343585975225698,True
34133,75409,0,75410,2533.0,36511.0,25669.0,6.1e-05,0.000549,0.00061,0.29750000000000004,-1.05,-4.2,0.9060625,-0.054375,-0.41981250000000003,0.9566875,0.8779375,-0.4915,-1.01178125,0.88615625,0.017848028907988485,0.02366759664508101,True
34134,75410,0,75411,2534.0,36512.0,25669.0,0.0018909999999999999,0.002379,0.0023179999999999997,0.43750000000000006,-1.0675000000000001,-4.165,0.9135625,-0.05446875,-0.419875,0.9590625,0.8794062500000001,-0.4918125,-1.01009375,0.881625,0.01785673273466388,0.023599221814192523,True
34135,75411,0,75412,2536.0,36513.0,25673.0,-0.0008539999999999999,0.002745,0.002257,0.5425000000000001,-0.9800000000000001,-4.077500000000001,0.91590625,-0.055625,-0.41965625,0.95759375,0.87121875,-0.4885,-1.0050937500000001,0.8817812500000001,0.0176766645568328,0.023412729656332523,True
34136,75412,0,75413,2536.0,36516.0,25675.0,-0.00183,-0.000183,0.0015249999999999999,0.31500000000000006,-1.0150000000000001,-4.0600000000000005,0.91615625,-0.0550625,-0.414375,0.95575,0.877125,-0.4881875,-1.01140625,0.87790625,0.017687099137083953,0.02387035914863844,True
34137,75413,0,75414,2539.0,36514.0,25676.0,0.000732,-0.0015249999999999999,-0.0006709999999999999,0.1925,-1.3825,-3.9550000000000005,0.9137500000000001,-0.0538125,-0.41921875000000003,0.95575,0.87746875,-0.48503125,-1.0112812500000001,0.88509375,0.017611525409019033,0.023671818092085954,True
34138,75414,0,75415,2538.0,36518.0,25677.0,0.000366,-0.001952,-0.001464,0.2625,-1.5750000000000002,-3.8850000000000002,0.91415625,-0.0545,-0.41940625000000004,0.9560625,0.880625,-0.49059375,-1.01140625,0.88009375,0.017806581353300183,0.023669200927077024,True
34139,75415,0,75416,2540.0,36519.0,25680.0,0.002989,-0.003355,0.000122,0.3325,-1.6625,-4.0075,0.91378125,-0.05440625,-0.41475,0.9569062500000001,0.87953125,-0.491375,-1.011875,0.88484375,0.017841740204459732,0.023873660011494546,True
34140,75416,0,75417,2541.0,36520.0,25682.0,0.0015249999999999999,-0.003172,-0.000305,0.42000000000000004,-1.6800000000000002,-3.9025000000000003,0.91371875,-0.055,-0.419375,0.96025,0.87840625,-0.4923125,-1.0104375,0.8784375,0.01785509228661034,0.0236326333755657,True
34141,75417,0,75418,2543.0,36521.0,25684.0,-0.00042699999999999997,-0.00183,-0.00122,0.56,-1.6975000000000002,-3.8500000000000005,0.91871875,-0.054968750000000004,-0.41881250000000003,0.95584375,0.87134375,-0.4880625,-1.0046875,0.8804062500000001,0.017685913289383345,0.023430606761232268,True
34142,75418,0,75419,2543.0,36525.0,25686.0,-0.00061,0.001098,-0.0008539999999999999,0.56,-2.1875,-3.7100000000000004,0.9141875,-0.054,-0.41403125,0.95609375,0.87309375,-0.49,-1.00975,0.8789375,0.017803184973458556,0.023819460410439922,True
34143,75419,0,75420,2544.0,36527.0,25689.0,0.000366,0.0030499999999999998,-0.000549,0.5950000000000001,-2.24,-3.6925000000000003,0.9145625000000001,-0.054125,-0.41834375,0.9619375,0.8753125,-0.4893125,-1.00975,0.878125,0.01777050703240444,0.023647027659212904,True
34144,75420,0,75421,2546.0,36528.0,25691.0,-0.000976,0.002928,0.001403,0.6300000000000001,-2.3625000000000003,-3.5700000000000003,0.921625,-0.056875,-0.41365625,0.96203125,0.87153125,-0.48884375,-1.009625,0.878625,0.017639409782260543,0.023829575613388842,True
34145,75421,0,75422,2546.0,36528.0,25693.0,-0.0008539999999999999,0.00122,0.001464,0.5950000000000001,-2.415,-3.6400000000000006,0.91959375,-0.055218750000000004,-0.42181250000000003,0.96303125,0.8715625,-0.487875,-1.0085,0.8779375,0.017668182723082345,0.023459523761920942,True
34146,75422,0,75423,2548.0,36528.0,25695.0,-0.001098,0.0,0.000366,0.5950000000000001,-2.415,-3.5700000000000003,0.9200625,-0.05409375,-0.41459375,0.94940625,0.87125,-0.48890625,-1.0119375,0.87740625,0.017755488773615605,0.023882346179699192,True
34147,75423,0,75424,2549.0,36529.0,25697.0,0.001647,0.001037,-0.001037,0.6475000000000001,-2.7825,-3.6400000000000006,0.91609375,-0.055468750000000004,-0.41621875,0.95521875,0.8725937500000001,-0.49065625,-1.012,0.88371875,0.017769532002638762,0.023819816488085715,True
34148,75424,0,75425,2549.0,36532.0,25698.0,0.002806,0.000122,-0.000793,0.525,-2.8875,-3.7100000000000004,0.91490625,-0.054843750000000004,-0.42328125,0.962,0.87753125,-0.48865625,-1.007625,0.8785000000000001,0.01771483480233833,0.02336662317993012,True
34149,75425,0,75426,2550.0,36531.0,25701.0,0.0040869999999999995,-0.000488,0.000305,0.49000000000000005,-2.87,-3.7100000000000004,0.92040625,-0.05325,-0.42171875000000003,0.961875,0.87146875,-0.48771875000000003,-1.009125,0.878125,0.0177423121539241,0.02348767699789577,True
34150,75426,0,75427,2552.0,36533.0,25706.0,0.002074,0.000366,0.000122,0.5425000000000001,-2.6075000000000004,-3.6400000000000006,0.915,-0.0545,-0.4180625,0.9563125,0.8715937500000001,-0.48365625,-1.00946875,0.8845000000000001,0.0175282746015518,0.02364729358755371,True
34151,75427,0,75428,2554.0,36535.0,25705.0,-0.0013419999999999999,-0.0006709999999999999,-0.000488,0.5425000000000001,-2.3275,-3.6225000000000005,0.9143125,-0.05240625,-0.4195,0.95725,0.87796875,-0.49234375,-1.00546875,0.8765000000000001,0.01796224585489088,0.023433623894773017,True
34152,75428,0,75429,2553.0,36536.0,25708.0,-0.001098,-0.001281,-0.002074,0.43750000000000006,-2.345,-3.6400000000000006,0.9136875,-0.05465625,-0.41903125,0.956375,0.8875000000000001,-0.4943125,-1.01246875,0.89453125,0.01794931986762233,0.023725666823671696,True
34153,75429,0,75430,2553.0,36541.0,25712.0,-6.1e-05,-0.000915,-0.000915,0.47250000000000003,-2.24,-3.7275000000000005,0.91340625,-0.054875,-0.41731250000000003,0.9570625,0.889,-0.49759375,-1.016875,0.88878125,0.018071927982722794,0.023966322732155796,True
34154,75430,0,75431,2555.0,36541.0,25714.0,0.00244,-0.000305,-0.000305,0.49000000000000005,-2.1175,-3.7800000000000002,0.91934375,-0.05615625,-0.42209375,0.9634375000000001,0.87615625,-0.48696875,-1.00615625,0.87303125,0.0175935414627423,0.023356748400706333,True
34155,75431,0,75432,2559.0,36543.0,25718.0,-0.000793,0.002379,0.0008539999999999999,0.6125,-2.0650000000000004,-3.6925000000000003,0.916125,-0.0545625,-0.41931250000000003,0.95646875,0.86434375,-0.4865,-1.00540625,0.8836875000000001,0.01763982194270312,0.023438681385150463,True
34156,75432,0,75433,2559.0,36545.0,25721.0,0.001586,0.003477,0.0028669999999999998,0.5425000000000001,-1.8900000000000001,-3.7975000000000003,0.9145625000000001,-0.055156250000000004,-0.4191875,0.95615625,0.876,-0.48521875000000003,-1.00784375,0.8911875,0.01756416817799514,0.023538864681206268,True
34157,75433,0,75434,2561.0,36548.0,25725.0,0.0,0.0021349999999999997,0.00061,0.525,-1.3125000000000002,-3.8500000000000005,0.9111875,-0.05421875,-0.4165625,0.95540625,0.8796875000000001,-0.49565625,-1.0085625,0.8936875,0.018021052201857218,0.023671892376860928,True
34158,75434,0,75435,2562.0,36548.0,25727.0,0.000976,-6.1e-05,-0.000305,0.42000000000000004,-1.2600000000000002,-4.025,0.913875,-0.05421875,-0.4195,0.95740625,0.888125,-0.497,-1.012,0.88803125,0.018074917336816754,0.023688629457860228,True
34159,75435,0,75436,2561.0,36551.0,25731.0,-0.002257,-0.0017079999999999999,-0.0013419999999999999,0.2625,-1.1025,-4.2,0.91471875,-0.0545,-0.41946875,0.95721875,0.8747812500000001,-0.49128125,-1.01009375,0.89546875,0.01783415271506059,0.02361546525590293,True
34160,75436,0,75437,2566.0,36556.0,25736.0,-0.0035989999999999998,-0.004026,-0.0023179999999999997,0.14,-1.225,-4.2700000000000005,0.913,-0.05371875,-0.414875,0.9563125,0.8905000000000001,-0.49493750000000003,-1.01084375,0.861375,0.01801265057320518,0.02382841442524305,True
34161,75437,0,75438,2565.0,36558.0,25741.0,-0.002074,-0.001464,-0.0018909999999999999,0.42000000000000004,-1.5575,-4.130000000000001,0.9135625,-0.055031250000000004,-0.41875,0.95740625,0.88734375,-0.49665625,-1.013625,0.88809375,0.01802797065415816,0.023782038788860073,True
34162,75438,0,75439,2567.0,36562.0,25744.0,-0.000244,-0.000976,0.0017079999999999999,0.42000000000000004,-1.6975000000000002,-4.077500000000001,0.9143125,-0.0561875,-0.42021875000000003,0.96334375,0.86921875,-0.485375,-1.0055,0.8729375,0.017528320477019445,0.02340610065785527,True
34163,75439,0,75440,2569.0,36565.0,25748.0,0.0008539999999999999,-0.000549,0.003965,0.4025,-1.9075000000000002,-4.095000000000001,0.9196875,-0.05446875,-0.42021875000000003,0.96421875,0.86440625,-0.48653125,-1.00484375,0.87334375,0.017644904277734318,0.023380470033930924,True
34164,75440,0,75441,2571.0,36569.0,25753.0,0.00183,0.0011589999999999999,0.0035989999999999998,0.42000000000000004,-2.1175,-4.1475,0.9224375,-0.05715625,-0.421375,0.95934375,0.8651562500000001,-0.485875,-1.0050625,0.87215625,0.017508818859852875,0.023342773088449585,True
34165,75441,0,75442,2572.0,36568.0,25754.0,0.002989,0.00366,0.001403,0.43750000000000006,-2.31,-4.112500000000001,0.92015625,-0.055281250000000004,-0.41550000000000004,0.95596875,0.8669375,-0.48253125,-1.00653125,0.87640625,0.01745121840700193,0.023635075336568324,True
34166,75442,0,75443,2574.0,36569.0,25753.0,0.003294,0.001098,0.000305,0.43750000000000006,-2.0125,-3.9200000000000004,0.9156562500000001,-0.05459375,-0.41940625000000004,0.95625,0.87271875,-0.49275,-1.0125,0.8800625,0.017889222320890876,0.02371189405297351,True
34167,75443,0,75444,2574.0,36565.0,25749.0,0.0018909999999999999,-0.00183,-0.002257,0.21000000000000002,-1.6975000000000002,-4.0075,0.914125,-0.05421875,-0.42031250000000003,0.9589375,0.8720625,-0.48840625,-1.008125,0.8788125,0.017730329020493117,0.02350486092020093,True
34168,75444,0,75445,2577.0,36563.0,25744.0,0.001281,-0.003538,-0.002623,0.07,-1.2075,-4.095000000000001,0.91925,-0.05390625,-0.41831250000000003,0.9565,0.86321875,-0.48634375,-1.0086875,0.8783125,0.017660354049387223,0.02360679663816823,True
34169,75445,0,75446,2574.0,36557.0,25732.0,6.1e-05,-0.003172,-0.004209,0.052500000000000005,-0.8225000000000001,-4.235,0.91396875,-0.054,-0.41890625000000004,0.95725,0.86975,-0.48912500000000003,-1.0039375,0.8840625,0.017768090938324665,0.02339756488353084,True
34170,75446,0,75447,2571.0,36551.0,25724.0,-0.0008539999999999999,-0.0025009999999999998,-0.003294,0.17500000000000002,-0.7175,-4.375,0.9144375,-0.048375,-0.41809375,0.96146875,0.866125,-0.48875,-1.01003125,0.87865625,0.017982747179827473,0.023668003213710497,True
34171,75447,0,75448,2569.0,36549.0,25717.0,-0.003904,0.00042699999999999997,-6.1e-05,0.36750000000000005,-0.43750000000000006,-4.2,0.91971875,-0.0565,-0.42046875,0.9625625,0.8715,-0.48796875,-1.00778125,0.8783125,0.017619621880642918,0.023485190234539505,True
34172,75448,0,75449,2567.0,36548.0,25711.0,-0.004331,0.003172,0.002196,0.49000000000000005,-0.4025,-4.2525,0.9150312500000001,-0.05053125,-0.4179375,0.9560000000000001,0.8714375,-0.48840625,-1.00853125,0.87915625,0.017880910481873437,0.023615691145396633,True
34173,75449,0,75450,2562.0,36545.0,25705.0,-0.005429,0.003538,0.0034159999999999998,0.5075000000000001,-0.6125,-4.41,0.91715625,-0.0543125,-0.41909375,0.956875,0.865,-0.4879375,-1.0089375,0.8785000000000001,0.01770769792270174,0.02358531824872608,True
34174,75450,0,75451,2561.0,36546.0,25700.0,-0.0044529999999999995,0.002379,0.004514,0.5075000000000001,-1.0675000000000001,-4.41,0.920375,-0.05659375,-0.4200625,0.96240625,0.8718125,-0.48771875000000003,-1.0076875,0.87825,0.017605764113898935,0.023497774434361438,True
34175,75451,0,75452,2558.0,36545.0,25698.0,-0.002379,0.001586,0.002074,0.385,-1.54,-4.4275,0.91578125,-0.05828125,-0.42209375,0.9691875,0.8629687500000001,-0.4855,-1.00778125,0.878,0.017447826264523902,0.023420210459494488,True
34176,75452,0,75453,2556.0,36543.0,25696.0,-0.000122,-0.000366,-6.1e-05,0.3325,-2.4850000000000003,-4.2175,0.9266562500000001,-0.06065625,-0.42359375,0.96884375,0.872375,-0.4885625,-1.0074375,0.87925,0.01747371859822315,0.023346804325713098,True
34177,75453,0,75454,2551.0,36543.0,25691.0,0.002074,0.000366,-0.0015249999999999999,0.35000000000000003,-2.5725000000000002,-4.112500000000001,0.92471875,-0.05371875,-0.41675,0.95884375,0.87128125,-0.4883125,-1.00815625,0.87828125,0.017746986445064356,0.023648534665565366,True
34178,75454,0,75455,2550.0,36539.0,25690.0,0.0040869999999999995,-0.000488,-0.000122,0.385,-2.555,-3.9025000000000003,0.91771875,-0.05271875,-0.416125,0.9581875,0.863625,-0.487375,-1.0044375,0.87828125,0.017750218224697422,0.023528323722539247,True
34179,75455,0,75456,2547.0,36540.0,25688.0,0.005429,0.00061,-0.000183,0.42000000000000004,-2.5725000000000002,-3.7450000000000006,0.91753125,-0.0529375,-0.41681250000000003,0.95528125,0.8625,-0.48781250000000004,-1.0085,0.87903125,0.017758834113908703,0.023659455785033083,True
34180,75456,0,75457,2547.0,36537.0,25687.0,0.0040869999999999995,-0.00042699999999999997,-0.001952,0.3325,-2.3975000000000004,-3.7800000000000002,0.91096875,-0.05425,-0.41765625,0.9545,0.8788125,-0.48403125,-1.012375,0.88434375,0.017553532978765496,0.02377698039470462,True
34181,75457,0,75458,2545.0,36539.0,25685.0,-0.000183,0.001769,-0.000732,0.385,-2.24,-3.8850000000000002,0.91125,-0.0539375,-0.417625,0.95728125,0.8786875000000001,-0.49096875,-1.01103125,0.8790625,0.017844588119855405,0.023725780999134135,True
34182,75458,0,75459,2545.0,36537.0,25685.0,-0.001403,-0.000976,-0.000244,0.3325,-2.205,-3.99,0.9255,-0.0570625,-0.42246875,0.9546875,0.871375,-0.48759375,-1.0085625,0.8835000000000001,0.017581607012734764,0.023435723264781817,True
34183,75459,0,75460,2546.0,36539.0,25686.0,-0.001464,-0.0021349999999999997,0.000976,0.2625,-2.2750000000000004,-3.9725000000000006,0.9076875,-0.0538125,-0.41240625000000003,0.9420937500000001,0.87675,-0.4915625,-1.00721875,0.8780625,0.01787350235412706,0.023785631898789225,True
34184,75460,0,75461,2544.0,36539.0,25691.0,-0.002379,-0.0021349999999999997,0.001037,0.17500000000000002,-2.345,-3.9550000000000005,0.9111875,-0.05384375,-0.41790625000000003,0.9550937500000001,0.8716875000000001,-0.4906875,-1.00603125,0.8844375,0.017837137075061692,0.023519325962611515,True
34185,75461,0,75462,2544.0,36540.0,25691.0,-0.001098,-0.0018909999999999999,0.0,0.24500000000000002,-2.4850000000000003,-3.99,0.91253125,-0.05634375,-0.42231250000000004,0.96715625,0.87534375,-0.48909375,-1.0053125,0.8814375,0.01767113166447819,0.023315045552820025,True
34186,75462,0,75463,2544.0,36541.0,25694.0,-0.000793,-0.001586,-0.001647,0.42000000000000004,-2.8350000000000004,-3.5875000000000004,0.92434375,-0.059187500000000004,-0.42262500000000003,0.9643125,0.87221875,-0.48728125,-1.00746875,0.87325,0.017482289913258543,0.023386763204492653,True
34187,75463,0,75464,2545.0,36546.0,25697.0,0.000732,0.002074,-0.0015249999999999999,0.5775,-2.975,-3.5875000000000004,0.92653125,-0.055343750000000004,-0.41996875,0.95503125,0.8715625,-0.49046875,-1.007875,0.88284375,0.017767116033661053,0.023508844713915122,True
34188,75464,0,75465,2547.0,36547.0,25699.0,0.002013,0.0030499999999999998,-0.001952,0.6825000000000001,-3.1850000000000005,-3.5700000000000003,0.9103125,-0.05434375,-0.41925,0.96359375,0.87528125,-0.48862500000000003,-1.008375,0.88221875,0.017733998948491394,0.023557108368696487,True
34189,75465,0,75466,2547.0,36546.0,25703.0,0.002928,0.005246,-0.001952,0.77,-3.3775000000000004,-3.6050000000000004,0.92040625,-0.058125,-0.421,0.96034375,0.87234375,-0.4885625,-1.00640625,0.87853125,0.0175770831791372,0.02341025112314969,True
34190,75466,0,75467,2549.0,36550.0,25706.0,0.004941,0.003721,-0.00061,0.7000000000000001,-3.3775000000000004,-3.5875000000000004,0.9223125,-0.05665625,-0.42134375,0.96240625,0.86440625,-0.488,-1.00771875,0.87921875,0.017614494854622673,0.02344776050394441,True
34191,75467,0,75468,2549.0,36549.0,25709.0,-0.000122,-0.0008539999999999999,-0.000244,0.805,-2.7475,-3.3075,0.91925,-0.05475,-0.4165625,0.95625,0.871125,-0.49021875000000004,-1.01134375,0.886625,0.017781333619161732,0.023780459616449034,True
34192,75468,0,75469,2552.0,36551.0,25712.0,-0.001281,0.00061,0.0006709999999999999,0.7350000000000001,-2.5375,-3.5000000000000004,0.91415625,-0.05440625,-0.42053125,0.9633125,0.8785000000000001,-0.48290625000000004,-1.00884375,0.8593437500000001,0.01750200714018582,0.02352417832191862,True
34193,75469,0,75470,2552.0,36550.0,25711.0,-0.000244,-0.00244,0.001952,0.7350000000000001,-2.415,-3.43,0.920375,-0.05834375,-0.42103125,0.96334375,0.87234375,-0.48890625,-1.0092812500000001,0.8704375,0.01758194080227654,0.023521267729355484,True
34194,75470,0,75471,2553.0,36555.0,25715.0,-0.000244,-0.002928,6.1e-05,0.7175,-2.2750000000000004,-3.5175000000000005,0.922125,-0.05709375,-0.419875,0.96246875,0.8591875,-0.48712500000000003,-1.00609375,0.86384375,0.017561524678785283,0.023443035760033492,True
34195,75471,0,75472,2556.0,36555.0,25719.0,0.0011589999999999999,-0.0028669999999999998,0.000793,0.5950000000000001,-2.1350000000000002,-3.6050000000000004,0.91603125,-0.0554375,-0.4189375,0.95796875,0.8609375,-0.47996875,-1.0029375,0.867125,0.017341984964747963,0.02335725552247611,True
34196,75472,0,75473,2556.0,36558.0,25722.0,0.003355,-0.0018909999999999999,0.000366,0.6300000000000001,-1.5925000000000002,-3.4650000000000003,0.9105,-0.054968750000000004,-0.41871875000000003,0.9549062500000001,0.85871875,-0.48381250000000003,-0.9986875000000001,0.86771875,0.017515399205087035,0.023199967998319915,True
34197,75473,0,75474,2558.0,36559.0,25727.0,0.001464,0.000122,0.004148,0.6475000000000001,-1.225,-3.6750000000000003,0.9118437500000001,-0.054625,-0.4185625,0.9587187500000001,0.8605,-0.48875,-1.0018125,0.8679687500000001,0.01772752794650605,0.023328308697619423,True
34198,75474,0,75475,2560.0,36560.0,25729.0,-0.000793,-0.000244,0.003965,0.5425000000000001,-0.7000000000000001,-3.8850000000000002,0.91640625,-0.055843750000000004,-0.419625,0.96440625,0.8595,-0.48321875000000003,-0.99475,0.86084375,0.01745583390664269,0.023009832064733594,True
34199,75475,0,75476,2561.0,36562.0,25732.0,0.000976,-0.0006709999999999999,0.003477,0.49000000000000005,-0.35000000000000003,-3.8500000000000005,0.92290625,-0.05765625,-0.42059375,0.9640625,0.85759375,-0.479375,-1.0033750000000001,0.8664375,0.01722751295733653,0.02330810340604019,True
34200,75476,0,75477,2561.0,36564.0,25735.0,-0.0008539999999999999,0.00061,0.00122,0.3325,-0.08750000000000001,-3.8850000000000002,0.91853125,-0.05815625,-0.42265625,0.95640625,0.85775,-0.4845,-1.0035625,0.86784375,0.017412801976760806,0.02323293930614887,True
34201,75477,0,75478,2562.0,36570.0,25737.0,-0.008662,0.001281,-0.0023179999999999997,0.42000000000000004,0.49000000000000005,-3.9725000000000006,0.92040625,-0.05721875,-0.42281250000000004,0.9629375,0.85821875,-0.4835625,-1.00209375,0.86821875,0.017413468730296092,0.023169309570323485,True
34202,75478,0,75479,2562.0,36570.0,25742.0,-0.007808,0.0018909999999999999,-0.0055509999999999995,0.385,0.47250000000000003,-3.9550000000000005,0.9216562500000001,-0.05671875,-0.419625,0.96384375,0.85803125,-0.48462500000000003,-1.0034687500000001,0.8708125,0.017476528637869686,0.02335051011672131,True
34203,75479,0,75480,2564.0,36575.0,25745.0,-0.0050019999999999995,0.001098,-0.003172,0.4025,0.31500000000000006,-4.095000000000001,0.92025,-0.05440625,-0.41884375,0.95715625,0.8686875000000001,-0.48853125000000003,-1.01034375,0.894,0.01772768630213378,0.02365021472365809,True
34204,75480,0,75481,2568.0,36579.0,25749.0,-0.0015249999999999999,0.0006709999999999999,-0.002074,0.14,-0.052500000000000005,-4.1475,0.914,-0.055093750000000004,-0.41878125,0.9565625,0.8874062500000001,-0.4973125,-1.01740625,0.89759375,0.018051725061677685,0.02392833989334926,True
34205,75481,0,75482,2569.0,36581.0,25754.0,6.1e-05,0.0021349999999999997,-0.0013419999999999999,0.4025,-0.5075000000000001,-4.130000000000001,0.91459375,-0.0544375,-0.41678125,0.95453125,0.888875,-0.49521875,-1.00696875,0.881375,0.017994583126554036,0.023600921243203458,True
34206,75482,0,75483,2570.0,36585.0,25757.0,0.001464,0.00042699999999999997,0.0046359999999999995,0.29750000000000004,-0.7525000000000001,-4.130000000000001,0.9145625000000001,-0.055281250000000004,-0.41884375,0.9495,0.876625,-0.48862500000000003,-1.006125,0.8804062500000001,0.01769571586808161,0.0234854960534669,True
34207,75483,0,75484,2570.0,36588.0,25760.0,0.001464,-0.002562,0.00488,0.17500000000000002,-0.8750000000000001,-4.112500000000001,0.91409375,-0.055343750000000004,-0.42190625,0.960875,0.87484375,-0.48912500000000003,-1.005875,0.882625,0.017713219643413148,0.0233532619834339,True
34208,75484,0,75485,2574.0,36590.0,25762.0,0.00183,-0.0026839999999999998,0.002745,0.035,-1.0325000000000002,-4.1825,0.92003125,-0.054,-0.4175,0.9567187500000001,0.873625,-0.48781250000000004,-1.00884375,0.87865625,0.01771544518319062,0.02364538544489887,True
34209,75485,0,75486,2573.0,36592.0,25766.0,0.0013419999999999999,-0.0028669999999999998,0.000122,0.0175,-1.3825,-4.3925,0.915125,-0.05296875,-0.4181875,0.9569062500000001,0.8725,-0.48890625,-1.00790625,0.87346875,0.017801427942499472,0.023581292416273356,True
34210,75486,0,75487,2577.0,36593.0,25768.0,-0.000122,-0.0023179999999999997,-0.002928,0.08750000000000001,-1.6275000000000002,-4.41,0.91159375,-0.057375,-0.418375,0.95659375,0.87090625,-0.48825,-1.00840625,0.8785625,0.017595173195307953,0.02359331674724374,True
34211,75487,0,75488,2578.0,36595.0,25773.0,0.000976,0.000488,-0.004514,0.14,-2.0650000000000004,-4.1825,0.913875,-0.05153125,-0.41875,0.9565,0.87171875,-0.48896875,-1.009375,0.8786875000000001,0.01786263457908982,0.02361614394602024,True
34212,75488,0,75489,2579.0,36595.0,25775.0,0.003111,0.002013,-0.003294,0.31500000000000006,-2.0125,-4.235,0.914,-0.05428125,-0.41896875,0.9565,0.866,-0.48231250000000003,-1.0039375,0.88290625,0.017483285126762435,0.023395065277218834,True
34213,75489,0,75490,2582.0,36597.0,25777.0,0.004209,0.0028669999999999998,-0.001098,0.4025,-1.8375000000000001,-3.9725000000000006,0.91453125,-0.051062500000000004,-0.41846875,0.9571875,0.8729375,-0.48946875,-1.01175,0.87409375,0.017901827698896082,0.02372010155227043,True
34214,75490,0,75491,2581.0,36602.0,25780.0,-0.000305,0.004026,0.00061,0.47250000000000003,-1.6975000000000002,-3.8675,0.9146875,-0.054718750000000003,-0.41915625,0.9556250000000001,0.867375,-0.49159375,-1.012375,0.88675,0.017837753004538548,0.023717010080010398,True
34215,75491,0,75492,2583.0,36604.0,25782.0,-0.0028669999999999998,-0.0008539999999999999,0.0006709999999999999,0.36750000000000005,-1.6450000000000002,-3.9025000000000003,0.91415625,-0.05334375,-0.41890625000000004,0.9561875,0.87153125,-0.4923125,-1.0118125,0.88603125,0.017922715545949364,0.023705049364175425,True
34216,75492,0,75493,2586.0,36605.0,25786.0,-0.002074,-0.0015249999999999999,-0.000732,0.24500000000000002,-2.0650000000000004,-3.9200000000000004,0.9148125,-0.055093750000000004,-0.41903125,0.9574375,0.87925,-0.48996875,-1.00496875,0.87903125,0.017757270515096107,0.023432842722508902,True
34217,75493,0,75494,2588.0,36607.0,25792.0,-0.0015249999999999999,0.000244,-0.000183,0.35000000000000003,-2.3975000000000004,-3.8850000000000002,0.9141875,-0.05634375,-0.42134375,0.9619375,0.8705625,-0.490375,-1.01025,0.8775000000000001,0.017722523644492987,0.023546595895682775,True
34218,75494,0,75495,2589.0,36609.0,25794.0,0.0,-0.000549,-0.000183,0.45500000000000007,-2.4850000000000003,-3.6750000000000003,0.92509375,-0.05371875,-0.42659375,0.97378125,0.879625,-0.48481250000000004,-1.00946875,0.88203125,0.017606577546795593,0.0233061727870569,True
34219,75495,0,75496,2591.0,36613.0,25799.0,0.0006709999999999999,0.00042699999999999997,-0.000183,0.525,-2.2925000000000004,-3.4650000000000003,0.9310625,-0.06318750000000001,-0.42503125,0.9705,0.8784375,-0.4839375,-1.0110937500000001,0.8855000000000001,0.01718473591104372,0.023432102004735403,True
34220,75496,0,75497,2594.0,36617.0,25803.0,-0.003294,0.0026839999999999998,0.004148,0.56,-2.66,-3.6925000000000003,0.93025,-0.061875,-0.42021875000000003,0.9733125,0.880875,-0.4901875,-1.01115625,0.88634375,0.017489147439152926,0.02362695647067496,True
