frame_seq,absolute_seq_u64,segment_id,sample_seq,PPG_G,PPG_R,PPG_IR,ACC_X,ACC_Y,ACC_Z,GYRO_X,GYRO_Y,GYRO_Z,Uh1,Uh2,Uh3,Uh4,Uc1,Uc2,Uc3,Uc4,UD1,UD2,parser_valid
56504,97780,0,97781,2871.0,34729.0,26000.0,-0.0032329999999999998,-0.000244,0.000732,0.5075000000000001,-0.7175,-4.235,0.919875,-0.10103125,-0.28934375,0.977,0.8912187500000001,-0.53071875,-0.857,0.9320625,0.017516302900827153,0.022836876936074346,True
56505,97781,0,97782,2873.0,34732.0,26003.0,-0.00488,-0.0050019999999999995,0.001281,0.4025,-0.7350000000000001,-4.357500000000001,0.92140625,-0.10212500000000001,-0.29090625000000003,0.98340625,0.8932187500000001,-0.5243125,-0.848375,0.901375,0.017215059545502037,0.02243481716611247,True
56506,97782,0,97783,2870.0,34730.0,26004.0,-0.002989,-0.006588,0.0013419999999999999,0.21000000000000002,-0.8575,-4.4275,0.92571875,-0.1049375,-0.29203125,0.98440625,0.871,-0.52346875,-0.84546875,0.888875,0.01706655996615487,0.02227518850897108,True
56507,97783,0,97784,2873.0,34731.0,26004.0,0.001586,6.1e-05,0.000549,0.36750000000000005,-1.0675000000000001,-4.41,0.92790625,-0.10490625,-0.29178125,0.9835625,0.8680625000000001,-0.5230625,-0.84221875,0.8961875,0.01705155096350629,0.02215734051532736,True
56508,97784,0,97785,2874.0,34733.0,26008.0,-0.000244,0.0006709999999999999,0.0026839999999999998,0.28,-1.33,-4.4625,0.9235625000000001,-0.10253125,-0.2905625,0.9683125,0.8675625,-0.52978125,-0.853375,0.91496875,0.01741760334695198,0.022645314771132692,True
56509,97785,0,97786,2875.0,34733.0,26010.0,0.0034159999999999998,0.0008539999999999999,-0.0018909999999999999,0.29750000000000004,-1.715,-4.777500000000001,0.9104375,-0.10153125,-0.290125,0.96946875,0.8873125000000001,-0.53246875,-0.8514375000000001,0.92228125,0.017566006274847494,0.022586721593066805,True
56510,97786,0,97787,2877.0,34734.0,26009.0,0.0071979999999999995,0.0006709999999999999,-0.0030499999999999998,0.15750000000000003,-1.9250000000000003,-4.9175,0.91853125,-0.1010625,-0.28903125,0.9763437500000001,0.8930625,-0.5364375,-0.8514375000000001,0.9049375000000001,0.0177440184623379,0.02263073313163474,True
56511,97787,0,97788,2876.0,34735.0,26010.0,0.004575,-0.0018909999999999999,0.000793,0.10500000000000001,-1.3475000000000001,-4.2,0.9196562500000001,-0.1015,-0.289125,0.982125,0.87996875,-0.5255625,-0.85028125,0.90509375,0.017290632987520673,0.022581484867500244,True
56512,97788,0,97789,2874.0,34734.0,26008.0,0.0017079999999999999,0.0034159999999999998,-0.0011589999999999999,0.21000000000000002,-1.1375000000000002,-4.1825,0.924875,-0.10362500000000001,-0.28984375,0.97671875,0.870375,-0.52753125,-0.85265625,0.915125,0.01728287472878054,0.022645969683824037,True
56513,97789,0,97790,2878.0,34737.0,26015.0,0.001769,0.0023179999999999997,-0.0057339999999999995,0.12250000000000001,-1.2600000000000002,-3.9725000000000006,0.91009375,-0.10200000000000001,-0.28931250000000003,0.97671875,0.8905000000000001,-0.5281875,-0.84784375,0.90728125,0.017375417568053084,0.022478057074871938,True
56514,97790,0,97791,2877.0,34737.0,26014.0,-0.002013,0.008113,-0.009271999999999999,0.28,-1.2075,-4.1475,0.9235625000000001,-0.1034375,-0.28846875,0.973125,0.8805000000000001,-0.5270625,-0.85190625,0.9147500000000001,0.017271738105612933,0.02267180208761652,True
56515,97791,0,97792,2878.0,34740.0,26018.0,-0.004148,0.009882,-0.002928,0.47250000000000003,-1.1375000000000002,-4.1475,0.9193125,-0.10065625,-0.28575,0.9773437500000001,0.8881875,-0.52815625,-0.85196875,0.9083125,0.01742894963823463,0.02278365773335362,True
56516,97792,0,97793,2878.0,34739.0,26015.0,0.000183,0.004026,0.0035989999999999998,0.45500000000000007,-1.2425000000000002,-3.8675,0.9245,-0.10190625,-0.29065625,0.9791562500000001,0.87253125,-0.523625,-0.85096875,0.91428125,0.017196427934287856,0.022546907753847625,True
56517,97793,0,97794,2878.0,34735.0,26013.0,0.0068319999999999995,-0.011101999999999999,0.004392,0.17500000000000002,-0.385,-3.7625,0.92003125,-0.1005,-0.288125,0.9809687500000001,0.88775,-0.52965625,-0.8515312500000001,0.90840625,0.017495404160015493,0.022670886728559235,True
56518,97794,0,97795,2876.0,34733.0,26007.0,0.002013,-0.008235,-0.001037,0.2625,0.5950000000000001,-3.7450000000000006,0.92403125,-0.10371875,-0.289625,0.9771875,0.88284375,-0.52953125,-0.8540625000000001,0.91453125,0.01735917803158183,0.02271007003382244,True
56519,97795,0,97796,2876.0,34729.0,25999.0,-0.0070149999999999995,-0.002257,-6.1e-05,0.3325,1.5225000000000002,-3.8850000000000002,0.91934375,-0.1018125,-0.2883125,0.98040625,0.88228125,-0.52709375,-0.85065625,0.9005,0.017339243464179286,0.022628929568006877,True
56520,97796,0,97797,2875.0,34728.0,25995.0,-0.008905999999999999,-6.1e-05,-0.000122,0.3325,1.7675,-4.1475,0.9269375,-0.10428125,-0.29134375,0.9770625000000001,0.88084375,-0.5271250000000001,-0.85090625,0.9165,0.0172398416039385,0.022516784473403256,True
56521,97797,0,97798,2873.0,34726.0,25995.0,-0.006161,-0.002623,-6.1e-05,0.22750000000000004,1.54,-4.2700000000000005,0.9196562500000001,-0.10153125,-0.29021875,0.97540625,0.8873125000000001,-0.5285625,-0.8508125,0.9075625,0.017409550600447948,0.02255836705540312,True
56522,97798,0,97799,2872.0,34724.0,25990.0,0.002257,0.0034159999999999998,-0.0017079999999999999,0.42000000000000004,1.0325000000000002,-4.8825,0.91934375,-0.10200000000000001,-0.28121875,0.98665625,0.88125,-0.52790625,-0.850625,0.90759375,0.017364150272712334,0.022913156107743762,True
56523,97799,0,97800,2868.0,34725.0,25989.0,-0.005429,0.003721,6.1e-05,0.56,1.1725,-4.7075000000000005,0.9324375,-0.1061875,-0.29790625,0.9916875,0.88028125,-0.52696875,-0.8518125,0.91409375,0.01715586032211991,0.022288364279265345,True
56524,97800,0,97801,2867.0,34722.0,25988.0,-0.010369999999999999,0.0025009999999999998,0.002074,0.385,1.2950000000000002,-4.550000000000001,0.93515625,-0.097125,-0.2909375,0.9706875,0.8895625,-0.52971875,-0.85396875,0.91246875,0.017635495718841047,0.022653575196114308,True
56525,97801,0,97802,2864.0,34726.0,25987.0,-0.010065,0.0023179999999999997,0.0018909999999999999,0.45500000000000007,0.7175,-4.655,0.91259375,-0.09903125,-0.292125,0.99353125,0.8826875000000001,-0.5273125,-0.85,0.90334375,0.017461401447875707,0.022449698189134802,True
56526,97802,0,97803,2864.0,34722.0,25986.0,-0.008113,0.003904,0.001403,0.49000000000000005,-0.17500000000000002,-4.7075000000000005,0.93121875,-0.09971875000000001,-0.2865625,0.9712500000000001,0.88875,-0.528375,-0.85040625,0.90771875,0.017475933485198266,0.02268951840576047,True
56527,97803,0,97804,2860.0,34723.0,25982.0,-0.0037819999999999998,0.006954,-0.002379,0.8750000000000001,-2.0300000000000002,-3.9025000000000003,0.92859375,-0.10853125,-0.29690625,0.98040625,0.88234375,-0.5261875,-0.852125,0.91296875,0.017028991970317445,0.02234089640221913,True
56528,97804,0,97805,2859.0,34721.0,25983.0,-0.004209,0.0073809999999999995,0.00488,0.8750000000000001,-2.87,-3.7800000000000002,0.91559375,-0.1001875,-0.28700000000000003,0.971375,0.882375,-0.53028125,-0.8453125,0.9080625,0.017533176469389237,0.02247154267027231,True
56529,97805,0,97806,2859.0,34722.0,25984.0,0.005246,-0.000915,0.010003999999999999,0.6125,-3.7275000000000005,-3.6925000000000003,0.913375,-0.09821875000000001,-0.28953125,0.99590625,0.881875,-0.52728125,-0.84946875,0.91221875,0.01749327598222897,0.022533177897414807,True
56530,97806,0,97807,2857.0,34719.0,25982.0,0.00488,-0.00976,0.007869,0.385,-5.022500000000001,-3.43,0.9334687500000001,-0.10387500000000001,-0.28884375,0.96203125,0.8895000000000001,-0.5290625,-0.852875,0.9075625,0.017334029786095575,0.02269480895067472,True
56531,97807,0,97808,2856.0,34721.0,25983.0,0.007991,-0.010492,0.003111,0.29750000000000004,-5.6000000000000005,-3.1850000000000005,0.91015625,-0.10096875,-0.2976875,0.9640625,0.88090625,-0.52725,-0.85303125,0.916125,0.017379903984343945,0.02234511132319121,True
56532,97808,0,97809,2856.0,34720.0,25984.0,0.0011589999999999999,-0.000976,-0.007991,0.42000000000000004,-6.527500000000001,-3.2375000000000003,0.9151875,-0.09940625,-0.28515625,0.9844375,0.88728125,-0.5274375,-0.84575,0.9071250000000001,0.01745111979186574,0.022562963484700604,True
56533,97809,0,97810,2856.0,34722.0,25986.0,0.002562,-0.00122,-0.005246,0.31500000000000006,-7.000000000000001,-3.0625000000000004,0.9324687500000001,-0.10609375,-0.2896875,0.97165625,0.88090625,-0.52959375,-0.852,0.904625,0.017264859920478708,0.022626448575567358,True
56534,97810,0,97811,2855.0,34720.0,25985.0,0.006588,-0.0034159999999999998,-0.002013,0.31500000000000006,-7.192500000000001,-3.0275000000000003,0.9130312500000001,-0.099375,-0.2883125,0.9839375,0.88121875,-0.5269375000000001,-0.85040625,0.90796875,0.017432363906011505,0.022619097021804223,True
56535,97811,0,97812,2855.0,34719.0,25986.0,0.013115,-0.002379,0.003111,0.35000000000000003,-6.8950000000000005,-3.1850000000000005,0.92696875,-0.10162500000000001,-0.28759375,0.97540625,0.888875,-0.53065625,-0.85353125,0.9146562500000001,0.01748959528956752,0.022770909063475637,True
56536,97812,0,97813,2855.0,34719.0,25988.0,0.012261,-0.00122,0.002562,0.17500000000000002,-6.090000000000001,-3.2900000000000005,0.91834375,-0.10103125,-0.2890625,0.9765,0.88778125,-0.5304375,-0.8519375,0.90709375,0.0175050383834369,0.022649139528859673,True
56537,97813,0,97814,2855.0,34721.0,25988.0,0.00244,0.0008539999999999999,-0.004026,-0.07,-3.9550000000000005,-3.7800000000000002,0.91871875,-0.0995,-0.28953125,0.9771562500000001,0.88221875,-0.5236875,-0.848625,0.912875,0.017297052084846536,0.02249998742385142,True
56538,97814,0,97815,2853.0,34720.0,25990.0,0.002989,0.0023179999999999997,-0.0055509999999999995,-0.035,-3.2550000000000003,-4.1475,0.9198125,-0.10278125,-0.29234375,0.9768125,0.88121875,-0.5269375000000001,-0.8514375000000001,0.91346875,0.01729348598861966,0.022497441043400408,True
56539,97815,0,97816,2856.0,34723.0,25993.0,0.0066489999999999995,0.001403,-0.009882,-0.035,-2.8525000000000005,-4.532500000000001,0.92009375,-0.10115625,-0.29271875,0.97621875,0.88965625,-0.52740625,-0.85021875,0.91421875,0.017378519181986476,0.022434410159870324,True
56540,97816,0,97817,2854.0,34723.0,25993.0,0.009455,0.00183,-0.009211,0.0,-2.2575000000000003,-4.777500000000001,0.9194375,-0.1013125,-0.291125,0.97221875,0.8854375,-0.52659375,-0.8455,0.90134375,0.01733959694260439,0.0223128936829607,True
56541,97817,0,97818,2854.0,34722.0,25996.0,0.008601,0.0013419999999999999,-0.0021349999999999997,0.07,-1.1900000000000002,-4.742500000000001,0.920375,-0.10159375,-0.2884375,0.9756250000000001,0.88909375,-0.53059375,-0.84475,0.9062187500000001,0.01748836593080834,0.022391551535032552,True
56542,97818,0,97819,2856.0,34722.0,25995.0,-0.002013,-0.001952,0.005856,0.3325,1.4525000000000001,-4.4275,0.9261875,-0.10409375,-0.28921875,0.9765,0.8688125,-0.528625,-0.85265625,0.9146562500000001,0.01730758450585795,0.022671117901129786,True
56543,97819,0,97820,2854.0,34723.0,25997.0,-0.008967,0.000488,0.005246,0.35000000000000003,2.415,-4.48,0.9201875,-0.10496875,-0.2925,0.9768125,0.8815000000000001,-0.5281875,-0.849,0.91603125,0.017254383349768507,0.022395267415187735,True
56544,97820,0,97821,2854.0,34723.0,25997.0,-0.012993,0.0011589999999999999,0.004941,0.385,2.9925,-4.48,0.9197500000000001,-0.10234375,-0.29321875000000003,0.9795625,0.88246875,-0.5273125,-0.85,0.91146875,0.017326347923360946,0.022405684104627767,True
56545,97821,0,97822,2854.0,34724.0,25997.0,-0.010248,0.001403,0.005063,0.385,3.4475000000000002,-4.4625,0.9200625,-0.10175000000000001,-0.292125,0.977,0.8790625,-0.52778125,-0.84415625,0.913125,0.017369335026991076,0.02221976244413613,True
56546,97822,0,97823,2855.0,34724.0,25999.0,-0.010003999999999999,0.001037,0.003111,0.43750000000000006,3.7800000000000002,-4.3925,0.9117500000000001,-0.10425,-0.2890625,0.97640625,0.886375,-0.5278437500000001,-0.85175,0.91409375,0.017269913911613206,0.022641765670425626,True
56547,97823,0,97824,2853.0,34724.0,25998.0,-0.014518,0.0021349999999999997,0.002257,0.35000000000000003,4.095000000000001,-4.2,0.92653125,-0.106,-0.2900625,0.97684375,0.88171875,-0.527375,-0.84940625,0.9138125,0.017179783812984475,0.02250934064068432,True
56548,97824,0,97825,2854.0,34725.0,25999.0,-0.015189,0.000366,0.0018909999999999999,0.1925,3.8325000000000005,-4.025,0.91978125,-0.10528125,-0.291375,0.9776875,0.8814375,-0.5276875,-0.8510625,0.9143125,0.01722160925280869,0.022521672866099792,True
56549,97825,0,97826,2853.0,34728.0,26002.0,-0.013115,-0.00122,-0.000366,0.07,3.0975,-3.9550000000000005,0.91728125,-0.101125,-0.291875,0.98009375,0.8835937500000001,-0.526,-0.8501875,0.91234375,0.017323452662480632,0.022467134302306572,True
56550,97826,0,97827,2855.0,34730.0,26004.0,-0.010492,-0.002379,-0.0008539999999999999,0.035,2.0475000000000003,-3.8500000000000005,0.9168125,-0.10390625,-0.2925,0.9765312500000001,0.8890625,-0.527375,-0.84965625,0.91209375,0.017265147615674326,0.022421084798708232,True
56551,97827,0,97828,2854.0,34732.0,26007.0,-0.00183,-0.000976,-0.002989,0.15750000000000003,0.7175,-3.6225000000000005,0.91934375,-0.10146875,-0.28340625,0.98228125,0.88946875,-0.5276875,-0.85021875,0.90690625,0.017377045838503937,0.022809155352002685,True
56552,97828,0,97829,2856.0,34731.0,26007.0,0.001098,0.0032329999999999998,-0.003294,0.47250000000000003,-2.2575000000000003,-3.5700000000000003,0.9275,-0.1028125,-0.28700000000000003,0.97678125,0.88153125,-0.525375,-0.8510625,0.907375,0.01722960403255812,0.022697721676890072,True
56553,97829,0,97830,2855.0,34730.0,26007.0,0.009699,0.005246,0.000366,0.47250000000000003,-3.6750000000000003,-3.535,0.92471875,-0.10359375,-0.289375,0.97709375,0.8814375,-0.52715625,-0.8513125,0.9115625,0.01726912389201255,0.022611984779475933,True
56554,97830,0,97831,2853.0,34728.0,26006.0,0.020069,-0.000305,0.003172,0.49000000000000005,-4.515000000000001,-3.2025,0.9240625,-0.1043125,-0.29240625,0.97659375,0.8818125,-0.526875,-0.850125,0.9156562500000001,0.017228550314705805,0.022443297568925713,True
56555,97831,0,97832,2853.0,34727.0,26004.0,0.021594,-0.002989,0.00244,0.2625,-4.585000000000001,-2.975,0.9200625,-0.1006875,-0.28559375,0.980625,0.888375,-0.52678125,-0.849875,0.90728125,0.01737259144022414,0.0227076091932052,True
56556,97832,0,97833,2855.0,34729.0,26007.0,0.003111,-0.0008539999999999999,-0.0042699999999999995,0.12250000000000001,-3.7625,-3.2025,0.9200625,-0.101,-0.290125,0.9820625000000001,0.88834375,-0.52296875,-0.84996875,0.90815625,0.01720708264573391,0.022528951872424388,True
56557,97833,0,97834,2853.0,34727.0,26006.0,0.004514,0.000244,-0.006893,0.1925,-3.2375000000000003,-3.3075,0.919875,-0.10096875,-0.288875,0.97696875,0.888375,-0.5235625,-0.8526875,0.908625,0.017232151731625452,0.02268617830566614,True
56558,97834,0,97835,2854.0,34726.0,26009.0,0.007686,-0.00244,-0.010187,0.1925,-2.6775,-3.4125000000000005,0.9195,-0.1030625,-0.28975,0.9770625000000001,0.88175,-0.52653125,-0.8496875,0.9072187500000001,0.017265741563026772,0.022532979539481128,True
56559,97835,0,97836,2854.0,34728.0,26011.0,0.010735999999999999,-0.0011589999999999999,-0.008967,0.42000000000000004,-2.0125,-3.7275000000000005,0.9230625,-0.1034375,-0.28934375,0.977,0.8815937500000001,-0.5293125,-0.853375,0.9198437500000001,0.017361880810968507,0.02269435237668928,True
56560,97836,0,97837,2856.0,34728.0,26013.0,0.0064659999999999995,0.001403,-0.003721,0.7175,-0.8750000000000001,-3.7800000000000002,0.91071875,-0.10090625,-0.29078125,0.96828125,0.89234375,-0.52790625,-0.8459375,0.9098437500000001,0.017408742338127618,0.022343944558340774,True
56561,97837,0,97838,2855.0,34728.0,26012.0,-0.007259,0.00061,0.008539999999999999,0.8575,1.4875,-4.025,0.9208125,-0.10115625,-0.291125,0.9850625000000001,0.89425,-0.53234375,-0.8483437500000001,0.905625,0.0175762864076124,0.02242478434805137,True
56562,97838,0,97839,2857.0,34729.0,26012.0,-0.009943,-0.001281,0.009516,0.7350000000000001,2.3275,-3.8850000000000002,0.9119375000000001,-0.1006875,-0.286875,0.98090625,0.88425,-0.52978125,-0.8511562500000001,0.9045,0.01749276708286993,0.022706438457969137,True
56563,97839,0,97840,2855.0,34727.0,26013.0,-0.009882,-0.0011589999999999999,0.008296,0.805,2.7300000000000004,-3.6750000000000003,0.9360625,-0.10175000000000001,-0.29025,0.976875,0.8694375,-0.5308437500000001,-0.85546875,0.90653125,0.017492009421812085,0.02274021687883074,True
56564,97840,0,97841,2857.0,34728.0,26014.0,-0.009882,0.000549,0.007808,0.8400000000000001,2.9925,-3.7275000000000005,0.93378125,-0.11209375,-0.28528125,0.9753437500000001,0.8720625,-0.52634375,-0.85453125,0.91909375,0.01689000220426251,0.022903268392961546,True
56565,97841,0,97842,2858.0,34727.0,26014.0,-0.009882,-0.000732,0.002379,0.6475000000000001,3.1500000000000004,-3.6750000000000003,0.916125,-0.099,-0.28290625,0.96590625,0.8835625,-0.52846875,-0.8515,0.90084375,0.017508991465274407,0.022879655151600505,True
56566,97842,0,97843,2857.0,34729.0,26016.0,-0.012199999999999999,0.0011589999999999999,0.000122,0.29750000000000004,3.115,-3.4825000000000004,0.9070625,-0.09821875000000001,-0.28209375000000003,0.9875,0.879125,-0.5265625,-0.842875,0.906,0.017464483659297956,0.02257312207222393,True
56567,97843,0,97844,2858.0,34729.0,26018.0,-0.009516,0.002928,0.00122,0.49000000000000005,2.7300000000000004,-3.2375000000000003,0.9455625,-0.1059375,-0.2873125,0.9660625,0.8830625,-0.5327500000000001,-0.855375,0.9075625,0.01739766230854674,0.022854714523518553,True
56568,97844,0,97845,2858.0,34734.0,26019.0,-0.0075639999999999995,0.003172,-0.000915,0.47250000000000003,1.9600000000000002,-3.2025,0.9244687500000001,-0.114,-0.2915625,0.9660625,0.87803125,-0.52828125,-0.84990625,0.91828125,0.01688994209490321,0.02246864613422837,True
56569,97845,0,97846,2858.0,34733.0,26022.0,-0.0048189999999999995,0.0025009999999999998,-0.001769,0.35000000000000003,1.1025,-3.2375000000000003,0.91921875,-0.11121875,-0.2973125,0.96996875,0.8710625000000001,-0.52578125,-0.85275,0.9204687500000001,0.016903131271302517,0.02234913641347537,True
56570,97846,0,97847,2859.0,34734.0,26024.0,-0.005673,-0.001037,-0.002806,0.31500000000000006,-0.1925,-3.3075,0.90659375,-0.09553125,-0.2875625,0.999375,0.87446875,-0.5268125,-0.84928125,0.9054375,0.01758407253286582,0.02260503007506505,True
56571,97847,0,97848,2861.0,34735.0,26023.0,0.01159,-0.004209,-0.002989,0.3325,-2.6250000000000004,-3.0625000000000004,0.9194687500000001,-0.10146875,-0.28509375,0.96565625,0.8899375,-0.53246875,-0.8511562500000001,0.90571875,0.017568553918977277,0.022778115203392204,True
56572,97848,0,97849,2859.0,34735.0,26027.0,0.015189,-0.003538,-0.001464,0.49000000000000005,-3.2900000000000005,-3.0450000000000004,0.9156562500000001,-0.1121875,-0.29140625000000003,0.9803437500000001,0.87928125,-0.52715625,-0.848625,0.91596875,0.01691874695012798,0.02242453053237352,True
56573,97849,0,97850,2861.0,34736.0,26025.0,0.011285,-0.001037,-0.002928,0.47250000000000003,-3.4125000000000005,-3.22,0.907,-0.10425,-0.2966875,0.98990625,0.88053125,-0.52678125,-0.84978125,0.9127500000000001,0.017227342050844932,0.02225748969118189,True
56574,97850,0,97851,2861.0,34735.0,26027.0,0.0017079999999999999,0.0021349999999999997,-0.005978,0.56,-3.4125000000000005,-3.3775000000000004,0.92471875,-0.0996875,-0.28359375000000003,0.9695,0.88875,-0.53153125,-0.8503125,0.9075,0.017603619831110216,0.022805296714075524,True
56575,97851,0,97852,2861.0,34732.0,26029.0,0.005612,0.0037819999999999998,0.000488,0.805,-3.4475000000000002,-3.43,0.92409375,-0.10428125,-0.29125,0.9694375000000001,0.881375,-0.52340625,-0.85321875,0.91515625,0.017090815024931538,0.022611507815260348,True
56576,97852,0,97853,2862.0,34731.0,26026.0,0.009699,-0.000976,0.0028669999999999998,0.6475000000000001,-2.6075000000000004,-3.3075,0.91125,-0.10203125,-0.28700000000000003,0.985625,0.88371875,-0.5280625,-0.85096875,0.90728125,0.017369135862239423,0.022694034815041165,True
56577,97853,0,97854,2863.0,34728.0,26024.0,0.004697,-0.000244,0.0050019999999999995,0.5425000000000001,-1.5225000000000002,-3.3775000000000004,0.916125,-0.1015625,-0.2889375,0.98590625,0.88978125,-0.52971875,-0.8512500000000001,0.907875,0.017454592707060696,0.022627131432020522,True
56578,97854,0,97855,2862.0,34730.0,26021.0,-0.000976,0.000183,0.001952,0.5950000000000001,-0.7000000000000001,-3.4475000000000002,0.926,-0.10265625,-0.28946875,0.976375,0.882,-0.5270625,-0.8523125,0.9110312500000001,0.017303590676625055,0.022647540344585642,True
56579,97855,0,97856,2859.0,34726.0,26018.0,-0.00488,0.001098,-0.0025009999999999998,0.7000000000000001,0.10500000000000001,-3.4125000000000005,0.92678125,-0.10309375,-0.29203125,0.98059375,0.8824375,-0.52190625,-0.8502500000000001,0.90634375,0.017079116759122267,0.02246330519813684,True
56580,97856,0,97857,2860.0,34723.0,26015.0,-0.003538,0.002074,-0.0021349999999999997,0.6300000000000001,0.7175,-3.3425000000000002,0.92021875,-0.10134375,-0.28878125,0.98375,0.8889375,-0.5303125,-0.85196875,0.9053125,0.017487292507993933,0.02266168550529825,True
56581,97857,0,97858,2857.0,34723.0,26008.0,-0.008357,-0.004026,0.001769,0.49000000000000005,1.4525000000000001,-3.325,0.92021875,-0.0976875,-0.289625,0.98175,0.881375,-0.52975,-0.85528125,0.907875,0.017613815876639592,0.022757990316444314,True
56582,97858,0,97859,2856.0,34720.0,26003.0,-0.012444,-0.003355,0.003355,0.385,1.5050000000000001,-3.325,0.9281875,-0.10125,-0.28884375,0.9832500000000001,0.8814062500000001,-0.52728125,-0.8543125,0.904875,0.017369689108938643,0.022751333395361468,True
56583,97859,0,97860,2854.0,34722.0,26002.0,-0.013237,-0.000549,0.0013419999999999999,0.42000000000000004,0.8925000000000001,-3.3775000000000004,0.9224687500000001,-0.10146875,-0.28946875,0.9842500000000001,0.88209375,-0.52915625,-0.85278125,0.9071875,0.017435883062630823,0.022665974255899432,True
56584,97860,0,97861,2850.0,34719.0,25997.0,-0.005856,0.002989,0.000366,0.6125,-0.1925,-3.5000000000000004,0.9198437500000001,-0.10128125,-0.289375,0.97846875,0.8820625,-0.5271875,-0.8513437500000001,0.91378125,0.01736465911552232,0.02261321382269319,True
56585,97861,0,97862,2848.0,34720.0,25999.0,0.0018909999999999999,0.004209,-0.00061,0.6300000000000001,-1.1900000000000002,-3.4825000000000004,0.92009375,-0.10400000000000001,-0.29075,0.980875,0.88253125,-0.52790625,-0.8510625,0.901875,0.017282610495952953,0.022546822696212686,True
56586,97862,0,97863,2847.0,34720.0,25996.0,0.005429,-0.002379,0.0018909999999999999,0.22750000000000004,-1.9600000000000002,-3.6050000000000004,0.91425,-0.101,-0.28959375,0.9838125,0.8870625,-0.528125,-0.85103125,0.90734375,0.017413683271754365,0.022592120799815905,True
56587,97863,0,97864,2844.0,34720.0,25996.0,0.001769,-0.001281,0.001403,0.21000000000000002,-1.9775000000000003,-3.535,0.9206875,-0.0994375,-0.290125,0.9768125,0.882,-0.5280625,-0.85146875,0.9121875,0.017474882086589594,0.022587950661869836,True
56588,97864,0,97865,2844.0,34718.0,25997.0,-0.000122,-0.000122,0.003294,0.14,-1.8375000000000001,-3.6225000000000005,0.9085625,-0.10475,-0.29390625,0.9784375000000001,0.88725,-0.5276875,-0.85090625,0.907625,0.017243268449176057,0.022413669521609496,True
56589,97865,0,97866,2841.0,34719.0,25997.0,0.002562,-0.001769,-0.001403,0.10500000000000001,-1.9250000000000003,-3.5700000000000003,0.9197500000000001,-0.1018125,-0.292125,0.9842500000000001,0.8878125,-0.5311875,-0.8509375,0.907625,0.017503229307590594,0.022486576210656032,True
56590,97866,0,97867,2841.0,34718.0,25997.0,0.005856,-0.003843,-0.003477,0.0,-1.9425000000000001,-3.3600000000000003,0.9194375,-0.098625,-0.291625,0.976375,0.88909375,-0.5296875,-0.8495312500000001,0.91271875,0.017573093827632332,0.022451379238793492,True
56591,97867,0,97868,2841.0,34719.0,25997.0,0.006893,0.0015249999999999999,-0.007625,0.29750000000000004,-1.435,-3.2725000000000004,0.919875,-0.1018125,-0.2911875,0.9821562500000001,0.8891875,-0.52828125,-0.851,0.90846875,0.01738681751294743,0.02252675948653978,True
56592,97868,0,97869,2839.0,34718.0,25997.0,0.005307,0.002623,-0.0059169999999999995,0.5075000000000001,-1.12,-3.2900000000000005,0.9274687500000001,-0.10265625,-0.2905,0.9765625,0.8815625,-0.5275625,-0.852375,0.9055625,0.017323623168833024,0.022608503211463696,True
56593,97869,0,97870,2836.0,34718.0,25999.0,0.004331,0.0015249999999999999,-0.0055509999999999995,0.4025,-0.8400000000000001,-3.3425000000000002,0.92528125,-0.1043125,-0.293875,0.97746875,0.8803125,-0.527375,-0.85028125,0.91015625,0.017248584489779277,0.022390340149570743,True
56594,97870,0,97871,2835.0,34720.0,26002.0,0.00061,-0.000915,-0.003111,0.56,-0.42000000000000004,-3.3600000000000003,0.90659375,-0.1044375,-0.2921875,0.9764375000000001,0.88709375,-0.52825,-0.8508125,0.9113125,0.017278546166155352,0.02247914429357189,True
56595,97871,0,97872,2836.0,34721.0,26002.0,-0.0053679999999999995,0.000305,0.001403,0.7525000000000001,0.052500000000000005,-3.1675000000000004,0.9196875,-0.10428125,-0.29096875,0.9769375,0.8863125000000001,-0.5285625,-0.8499375,0.9086875,0.01729743640704587,0.022493768847507162,True
56596,97872,0,97873,2837.0,34723.0,26004.0,-0.012749,0.0,0.01281,0.805,0.5425000000000001,-2.8525000000000005,0.91925,-0.1046875,-0.29159375,0.97740625,0.88646875,-0.5276875,-0.8503437500000001,0.9130312500000001,0.01724581658992516,0.02248459842733564,True
56597,97873,0,97874,2836.0,34724.0,26005.0,-0.013908,-0.0015249999999999999,0.010614,0.7350000000000001,0.15750000000000003,-2.7475,0.9261875,-0.10265625,-0.29009375,0.97790625,0.881625,-0.5270312500000001,-0.8505,0.9115625,0.017302338618743352,0.022551105611557112,True
56598,97874,0,97875,2836.0,34724.0,26008.0,-0.010309,0.0,0.007686,0.7175,-0.5425000000000001,-2.9050000000000002,0.92759375,-0.1015625,-0.28884375,0.9844375,0.88196875,-0.52671875,-0.8531875,0.9077500000000001,0.01733441208885718,0.02270709742965565,True
56599,97875,0,97876,2836.0,34723.0,26008.0,0.000122,0.003843,0.0015249999999999999,0.7350000000000001,-1.33,-2.9925,0.91915625,-0.1009375,-0.28746875,0.97784375,0.88603125,-0.53096875,-0.8499375,0.9003125000000001,0.01753013728819821,0.022634614272168695,True
56600,97876,0,97877,2836.0,34724.0,26008.0,0.004514,0.006039,-0.0064659999999999995,0.7000000000000001,-2.0475000000000003,-3.115,0.9193125,-0.10296875,-0.2904375,0.97765625,0.89384375,-0.5271875,-0.84975,0.92140625,0.017295857912775367,0.022507771707964867,True
56601,97877,0,97878,2834.0,34724.0,26008.0,0.003111,-0.002196,-0.005246,0.35000000000000003,-2.2750000000000004,-3.3600000000000003,0.9208125,-0.10465625,-0.28925,0.9718125,0.89734375,-0.5253125,-0.8480625,0.9225,0.017151922121277762,0.022489177979168398,True
56602,97878,0,97879,2834.0,34722.0,26008.0,0.002928,-0.00488,-0.0025009999999999998,0.31500000000000006,-2.4675000000000002,-3.3775000000000004,0.92053125,-0.10225000000000001,-0.28353125,0.98121875,0.889,-0.5265,-0.8521562500000001,0.92125,0.017297616863392658,0.02288030842394209,True
56603,97879,0,97880,2835.0,34723.0,26009.0,0.004392,-0.003172,-0.001464,0.43750000000000006,-2.7125000000000004,-3.4650000000000003,0.92853125,-0.10362500000000001,-0.2850625,0.977375,0.86890625,-0.52528125,-0.84909375,0.9254687500000001,0.017192718228256812,0.02269826238632948,True
56604,97880,0,97881,2836.0,34722.0,26007.0,0.007442,-0.0028669999999999998,0.0015249999999999999,0.42000000000000004,-2.66,-3.6400000000000006,0.9195625000000001,-0.10284375,-0.2914375,0.9771562500000001,0.89928125,-0.5286875,-0.8466875,0.90278125,0.01736104917965953,0.02234704324268577,True
56605,97881,0,97882,2835.0,34720.0,26008.0,0.00793,-0.0030499999999999998,0.001586,0.42000000000000004,-2.5025000000000004,-3.6050000000000004,0.9201875,-0.10440625,-0.290875,0.9774375000000001,0.8976875,-0.534375,-0.84365625,0.9018125,0.017525156031078844,0.022250398429176463,True
56606,97882,0,97883,2834.0,34721.0,26008.0,0.002196,0.0026839999999999998,0.001952,0.42000000000000004,-0.9975,-3.7275000000000005,0.92021875,-0.1043125,-0.2911875,0.9791875,0.8974062500000001,-0.53196875,-0.8492500000000001,0.8945000000000001,0.017432610254731386,0.022457921265229337,True
56607,97883,0,97884,2833.0,34721.0,26006.0,-0.001098,0.006161,-6.1e-05,0.36750000000000005,-0.43750000000000006,-3.7975000000000003,0.9195625000000001,-0.10121875,-0.29081250000000003,0.97703125,0.88803125,-0.53421875,-0.8478125,0.9025,0.017648819569606223,0.022416460201476487,True
56608,97884,0,97885,2834.0,34723.0,26008.0,-0.001403,0.006527,-0.001281,0.4025,-0.035,-3.8325000000000005,0.9195,-0.10090625,-0.2900625,0.97771875,0.9001250000000001,-0.53015625,-0.8473125,0.9185,0.01749886937634162,0.02242697273598503,True
56609,97885,0,97886,2834.0,34722.0,26007.0,-0.00183,0.004209,-0.001952,0.385,0.385,-3.8325000000000005,0.92328125,-0.10453125,-0.28990625000000003,0.972125,0.9021875,-0.52615625,-0.84278125,0.9193125,0.017190830707522708,0.02225495585362448,True
56610,97886,0,97887,2833.0,34722.0,26010.0,-0.003904,0.002257,-0.0028669999999999998,0.21000000000000002,0.77,-3.8500000000000005,0.9256875,-0.10490625,-0.28903125,0.97771875,0.88809375,-0.5253125,-0.8443437500000001,0.9196562500000001,0.017141728571246545,0.022351667067076388,True
56611,97887,0,97888,2835.0,34725.0,26010.0,-0.003721,-0.005063,-0.002257,0.10500000000000001,1.3475000000000001,-3.8675,0.91990625,-0.09728125,-0.29165625,0.9774375000000001,0.8999375000000001,-0.52134375,-0.84665625,0.9051250000000001,0.017293607737137163,0.022337009632835404,True
56612,97888,0,97889,2835.0,34721.0,26007.0,-0.005124,-0.005856,0.001647,0.17500000000000002,1.1725,-3.7975000000000003,0.920125,-0.10403125,-0.29121875,0.97684375,0.89575,-0.52909375,-0.84746875,0.9110625,0.01732891171325887,0.022386586158801382,True
56613,97889,0,97890,2831.0,34724.0,26011.0,-0.006954,-0.006588,0.0032329999999999998,0.385,0.9975,-3.9725000000000006,0.920125,-0.10384375,-0.2885625,0.97796875,0.8905000000000001,-0.5258125,-0.8466875,0.91653125,0.017205087497101267,0.022462752831740648,True
56614,97890,0,97891,2833.0,34723.0,26009.0,-0.006344,-0.0057339999999999995,0.004026,0.36750000000000005,0.7525000000000001,-4.0425,0.92771875,-0.1,-0.28300000000000003,0.9812500000000001,0.87903125,-0.52575,-0.8493125,0.9078437500000001,0.01735930603549331,0.022789865916813593,True
56615,97891,0,97892,2831.0,34722.0,26012.0,-0.004148,0.0015249999999999999,0.003965,0.4025,0.36750000000000005,-3.8850000000000002,0.9216562500000001,-0.10115625,-0.28753125,0.98309375,0.87815625,-0.52925,-0.84965625,0.9086875,0.01745237828307021,0.0226210372628394,True
56616,97892,0,97893,2833.0,34722.0,26011.0,-0.004209,0.003843,0.002257,0.5425000000000001,-0.7175,-3.7625,0.91309375,-0.1010625,-0.28859375,0.97690625,0.8825625,-0.52328125,-0.8521562500000001,0.90796875,0.017217057770358524,0.022676603765518336,True
56617,97893,0,97894,2832.0,34723.0,26012.0,-0.001464,0.006222,-0.00042699999999999997,0.525,-1.3475000000000001,-3.9025000000000003,0.9254687500000001,-0.1041875,-0.29253125,0.97596875,0.8816875000000001,-0.5264375,-0.84784375,0.913,0.017216116282684758,0.022348518671766036,True
56618,97894,0,97895,2832.0,34726.0,26012.0,0.003294,0.006222,-0.002928,0.5425000000000001,-1.8900000000000001,-3.7975000000000003,0.919,-0.1005,-0.29171875,0.9790625000000001,0.8884375,-0.52778125,-0.84809375,0.90734375,0.01742029764718323,0.022391053639678093,True
56619,97895,0,97896,2832.0,34724.0,26014.0,0.008539999999999999,0.002623,-0.0028669999999999998,0.56,-2.3275,-3.8500000000000005,0.9205,-0.10159375,-0.2915,0.9769375,0.88775,-0.52990625,-0.8503437500000001,0.90771875,0.017460829064522006,0.02248837101096439,True
56620,97896,0,97897,2833.0,34725.0,26016.0,0.002928,-0.003172,-0.002562,0.42000000000000004,-2.5200000000000005,-4.0600000000000005,0.92040625,-0.10446875,-0.2920625,0.97721875,0.8909375,-0.52815625,-0.8495,0.9137500000000001,0.01727351602303985,0.022432543914364476,True
56621,97897,0,97898,2833.0,34726.0,26017.0,0.002989,-0.004514,-0.000732,0.21000000000000002,-2.555,-4.0075,0.92009375,-0.10009375,-0.2889375,0.9765,0.8855000000000001,-0.5278125,-0.849125,0.91459375,0.01743811234695308,0.02254355032621873,True
56622,97898,0,97899,2834.0,34728.0,26018.0,0.0050019999999999995,-0.0040869999999999995,-0.0015249999999999999,0.2625,-2.4850000000000003,-3.8150000000000004,0.92503125,-0.10434375,-0.288875,0.9745312500000001,0.8825625,-0.52671875,-0.845125,0.91096875,0.0172210153467838,0.022388697984010948,True
56623,97899,0,97900,2836.0,34725.0,26016.0,0.002989,-0.0018909999999999999,-0.00183,0.35000000000000003,-2.45,-3.7800000000000002,0.9268125,-0.09390625,-0.288875,0.97109375,0.878125,-0.525625,-0.8519375,0.916,0.01760276241685992,0.022656684212247036,True
56624,97900,0,97901,2834.0,34724.0,26019.0,0.000122,-0.001464,-0.000183,0.29750000000000004,-2.1175,-3.6750000000000003,0.92909375,-0.1016875,-0.2888125,0.98478125,0.88209375,-0.52959375,-0.851125,0.907625,0.017444489882756414,0.022627245245436575,True
56625,97901,0,97902,2836.0,34728.0,26021.0,-0.006588,0.000488,0.003355,0.43750000000000006,-1.8725000000000003,-3.7450000000000006,0.9294687500000001,-0.101,-0.28750000000000003,0.9890625000000001,0.88121875,-0.52821875,-0.8496875,0.90853125,0.01741743884276146,0.022623523937675274,True
56626,97902,0,97903,2836.0,34728.0,26022.0,-0.007869,0.003904,0.0011589999999999999,0.56,-2.0825,-3.7975000000000003,0.9155,-0.1005,-0.2930625,0.98809375,0.88596875,-0.5289375000000001,-0.84965625,0.90871875,0.017466614687244402,0.022398448670693384,True
56627,97903,0,97904,2838.0,34732.0,26023.0,-0.005978,0.006222,0.001037,0.6300000000000001,-2.6075000000000004,-3.9200000000000004,0.91834375,-0.10134375,-0.28709375,0.9858750000000001,0.88896875,-0.5239375000000001,-0.84971875,0.908375,0.01723188823165122,0.022641101320311722,True
56628,97904,0,97905,2837.0,34728.0,26024.0,-0.0051849999999999995,0.006039,0.0013419999999999999,0.6300000000000001,-3.08,-3.8150000000000004,0.92290625,-0.1008125,-0.2878125,0.9815,0.8823125,-0.53,-0.85075,0.90859375,0.017496432939258053,0.022652736838928402,True
56629,97905,0,97906,2839.0,34730.0,26025.0,-0.003721,0.0028669999999999998,0.002379,0.49000000000000005,-3.6225000000000005,-3.8850000000000002,0.92403125,-0.10096875,-0.28253125,0.98765625,0.88390625,-0.53125,-0.8501562500000001,0.908625,0.017540127388535033,0.022841908690211958,True
56630,97906,0,97907,2838.0,34728.0,26024.0,0.005612,-0.001281,0.004697,0.22750000000000004,-5.1275,-3.9025000000000003,0.91340625,-0.10090625,-0.29290625,0.98203125,0.887125,-0.53028125,-0.849375,0.90771875,0.01750387594924131,0.02239367187303504,True
56631,97907,0,97908,2840.0,34730.0,26027.0,0.009943,-0.000305,0.001098,0.08750000000000001,-5.5475,-3.99,0.916625,-0.10553125000000001,-0.29371875000000003,0.97696875,0.88928125,-0.52740625,-0.84896875,0.902625,0.01720014728422415,0.0223449916809928,True
56632,97908,0,97909,2838.0,34727.0,26025.0,0.014029999999999999,-0.001464,-0.0011589999999999999,-0.08750000000000001,-5.460000000000001,-4.1475,0.91725,-0.099875,-0.286125,0.9739375,0.88803125,-0.5276875,-0.84890625,0.89678125,0.01744202342760605,0.0226481296334723,True
56633,97909,0,97910,2840.0,34728.0,26029.0,0.013542,-0.002196,-0.004026,-0.22750000000000004,-5.1625000000000005,-4.2525,0.9329375,-0.09721875,-0.28784375,0.965875,0.87290625,-0.52734375,-0.84965625,0.9119375000000001,0.017536550406115622,0.022608461636164486,True
56634,97910,0,97911,2840.0,34728.0,26028.0,0.011833999999999999,-0.0013419999999999999,-0.0073809999999999995,-0.2625,-4.532500000000001,-4.515000000000001,0.91659375,-0.10515625,-0.29246875,0.9775625,0.8824375,-0.522625,-0.84884375,0.91315625,0.01702381983984178,0.0223903778219057,True
56635,97911,0,97912,2840.0,34726.0,26027.0,0.0068319999999999995,-0.002074,-0.011041,-0.08750000000000001,-2.9925,-4.62,0.9170625,-0.09753125,-0.29015625,0.98359375,0.886875,-0.52734375,-0.8485625,0.90809375,0.017523809523809525,0.02247237642016515,True
56636,97912,0,97913,2839.0,34722.0,26024.0,0.004941,-0.0055509999999999995,-0.0068319999999999995,0.0,-1.8725000000000003,-4.3925,0.9125625,-0.10090625,-0.29175,0.98453125,0.8845000000000001,-0.52965625,-0.8505,0.8991875,0.017478842574485735,0.022484457053178006,True
56637,97913,0,97914,2837.0,34720.0,26017.0,0.0006709999999999999,-0.0062829999999999995,-0.000122,0.08750000000000001,-0.665,-4.077500000000001,0.9235625000000001,-0.101125,-0.28715625,0.9801562500000001,0.88446875,-0.52896875,-0.8506875,0.90871875,0.017442386362043857,0.022676686510182065,True
56638,97914,0,97915,2834.0,34717.0,26014.0,-0.003843,-0.005673,0.005063,0.14,0.28,-4.0075,0.9299375,-0.10128125,-0.284125,0.9832500000000001,0.88184375,-0.52940625,-0.85,0.908375,0.017453541094171406,0.022771629778672028,True
56639,97915,0,97916,2834.0,34716.0,26010.0,-0.008967,-0.002928,0.005978,0.31500000000000006,0.8575,-4.2175,0.919125,-0.09734375,-0.29131250000000003,0.98153125,0.8864062500000001,-0.5278437500000001,-0.8502500000000001,0.9083125,0.017551481670703323,0.022492228448405958,True
56640,97916,0,97917,2831.0,34713.0,26004.0,-0.014091,0.001586,0.005978,0.5425000000000001,1.1025,-4.0075,0.91978125,-0.10187500000000001,-0.28903125,0.9850625000000001,0.88796875,-0.5290625,-0.8500625,0.898625,0.017415565719236113,0.022576653479241756,True
56641,97917,0,97918,2829.0,34716.0,26002.0,-0.016165,0.0059169999999999995,0.004392,0.6475000000000001,0.8750000000000001,-3.9550000000000005,0.92571875,-0.10237500000000001,-0.28878125,0.9776875,0.882875,-0.52928125,-0.85378125,0.9120625,0.01740394452038826,0.022732959396268928,True
56642,97918,0,97919,2828.0,34715.0,26002.0,-0.018361,0.008235,0.001403,0.665,0.4025,-3.9200000000000004,0.92621875,-0.10571875,-0.29231250000000003,0.9717187500000001,0.8651562500000001,-0.527625,-0.8499375,0.89653125,0.01720126795806769,0.022439694264824613,True
56643,97919,0,97920,2825.0,34714.0,25998.0,-0.015616,0.006588,0.0028669999999999998,0.7350000000000001,-0.9625000000000001,-3.9025000000000003,0.9201875,-0.10400000000000001,-0.2906875,0.97671875,0.911,-0.52790625,-0.84565625,0.90709375,0.017282610495952953,0.02233665089848452,True
56644,97920,0,97921,2825.0,34713.0,25996.0,-0.006588,0.004697,0.002562,0.5775,-2.5725000000000002,-3.8850000000000002,0.9215625000000001,-0.10496875,-0.28421875,0.9779375,0.9024375,-0.5303125,-0.8437187500000001,0.9225625000000001,0.01733951615985324,0.022520783045010123,True
56645,97921,0,97922,2822.0,34712.0,25995.0,0.009455,-0.00042699999999999997,-0.003538,0.3325,-5.652500000000001,-4.112500000000001,0.92640625,-0.09865625,-0.2879375,0.97621875,0.8984062500000001,-0.52378125,-0.8516875,0.9314687500000001,0.017335214160744482,0.02268457624859479,True
56646,97922,0,97923,2822.0,34714.0,25995.0,0.011833999999999999,-0.001281,-0.002074,0.385,-6.405,-4.112500000000001,0.9274375,-0.10053125,-0.289,0.9770625000000001,0.88121875,-0.5241875,-0.84321875,0.92821875,0.01727503714445178,0.022308653141010562,True
56647,97923,0,97924,2819.0,34712.0,25995.0,0.012749,-0.001647,-0.000366,0.31500000000000006,-6.510000000000001,-4.0600000000000005,0.9235,-0.10534375,-0.28778125,0.97846875,0.895375,-0.52496875,-0.84209375,0.9291875,0.01711011354499687,0.022313437248017792,True
56648,97924,0,97925,2819.0,34712.0,25994.0,0.014884,-0.0018909999999999999,-0.000305,0.24500000000000002,-6.352500000000001,-4.0600000000000005,0.92909375,-0.10262500000000001,-0.289,0.9795312500000001,0.8869375,-0.5241875,-0.8494375000000001,0.9274687500000001,0.017189662246710518,0.022553327414352946,True
56649,97925,0,97926,2816.0,34710.0,25995.0,0.012444,-0.001037,0.001586,0.2625,-6.090000000000001,-4.1475,0.9273750000000001,-0.10225000000000001,-0.28834375,0.98353125,0.87084375,-0.53059375,-0.8540625000000001,0.9129375000000001,0.01746161362278481,0.022761620962367824,True
56650,97926,0,97927,2816.0,34711.0,25992.0,0.008113,-0.002623,-0.003904,0.035,-4.742500000000001,-4.655,0.9263750000000001,-0.10146875,-0.28771875,0.985,0.86859375,-0.532875,-0.8563437500000001,0.890125,0.0175848224066686,0.022876453822779145,True
56651,97927,0,97928,2815.0,34711.0,25995.0,0.001098,-0.005429,-0.0059169999999999995,-0.1925,-3.9025000000000003,-4.6725,0.9205625000000001,-0.101125,-0.282625,0.9778125,0.862375,-0.538875,-0.84703125,0.899375,0.01783904111333547,0.02271523886782249,True
56652,97928,0,97929,2816.0,34713.0,25997.0,-0.0040869999999999995,-0.005246,-0.00366,-0.24500000000000002,-3.1850000000000005,-4.62,0.91971875,-0.1045,-0.29203125,0.9780625000000001,0.9035625,-0.528875,-0.83965625,0.9088437500000001,0.01730103806228374,0.022046400098632606,True
56653,97929,0,97930,2816.0,34714.0,25997.0,-0.004026,-0.001769,-0.005246,-0.035,-2.975,-4.550000000000001,0.91978125,-0.10259375,-0.29225,0.97840625,0.89934375,-0.52909375,-0.84471875,0.91603125,0.017387515590542354,0.022236868751029832,True
56654,97930,0,97931,2816.0,34715.0,25998.0,-0.0015249999999999999,0.001403,-0.003843,0.14,-2.7300000000000004,-4.4625,0.9210625,-0.1055625,-0.2901875,0.97203125,0.9045,-0.5279375000000001,-0.8445312500000001,0.9072187500000001,0.017220159664871948,0.022312505896041012,True
56655,97931,0,97932,2816.0,34716.0,26000.0,0.0026839999999999998,0.0040869999999999995,-0.000244,0.5425000000000001,-1.8200000000000003,-4.3925,0.91978125,-0.10146875,-0.288375,0.983875,0.88084375,-0.53290625,-0.849875,0.901375,0.017586073806481858,0.022595687101041758,True
56656,97932,0,97933,2816.0,34716.0,26002.0,0.000976,0.006771,0.0026839999999999998,0.7175,-1.3825,-4.515000000000001,0.9185,-0.10159375,-0.2825625,0.98384375,0.88121875,-0.529375,-0.84690625,0.8976875,0.017439549519708514,0.022712837740111003,True
56657,97933,0,97934,2816.0,34719.0,26001.0,0.000732,0.008418,0.0053679999999999995,0.7525000000000001,-0.8925000000000001,-4.6025,0.92071875,-0.10190625,-0.28784375,0.978125,0.88990625,-0.53053125,-0.84996875,0.9088437500000001,0.017473123416354874,0.022620752792697176,True
56658,97934,0,97935,2816.0,34717.0,26004.0,-0.001464,0.0055509999999999995,0.005673,0.7350000000000001,-0.35000000000000003,-4.532500000000001,0.92621875,-0.0973125,-0.28484375,0.9785312500000001,0.8743125,-0.52925,-0.851375,0.90696875,0.01760907895675571,0.022796776838303712,True
56659,97935,0,97936,2817.0,34716.0,26002.0,-0.007686,0.0013419999999999999,0.005063,0.6825000000000001,0.052500000000000005,-4.445,0.92034375,-0.1020625,-0.291125,0.9831562500000001,0.88925,-0.5268125,-0.84990625,0.9036875,0.017317782324955597,0.022486251834451087,True
56660,97936,0,97937,2818.0,34716.0,26002.0,-0.014823,-0.00244,0.004575,0.22750000000000004,-0.12250000000000001,-4.532500000000001,0.9196562500000001,-0.10140625,-0.28981250000000003,0.98259375,0.8895937500000001,-0.52509375,-0.850375,0.908,0.017275673003288722,0.022557506677464624,True
56661,97937,0,97938,2818.0,34719.0,26003.0,-0.008357,-0.000732,0.0042699999999999995,0.24500000000000002,-0.6300000000000001,-4.532500000000001,0.920375,-0.10175000000000001,-0.290625,0.9834375000000001,0.888125,-0.52821875,-0.8426250000000001,0.9104375,0.017386861816046057,0.022219874107506754,True
56662,97938,0,97939,2818.0,34717.0,26002.0,-0.0021349999999999997,-0.003477,0.007076,0.12250000000000001,-1.3650000000000002,-4.2875000000000005,0.9200625,-0.10196875,-0.29153125,0.9773437500000001,0.890875,-0.52834375,-0.8503437500000001,0.9147500000000001,0.017382951101213264,0.02248711348308814,True
56663,97939,0,97940,2819.0,34719.0,26004.0,0.0035989999999999998,-0.0053679999999999995,0.002623,-0.07,-1.6275000000000002,-4.2700000000000005,0.921125,-0.104125,-0.29031250000000003,0.9785625,0.88309375,-0.5260625,-0.850125,0.91496875,0.017203637966754753,0.022527552678306452,True
56664,97940,0,97941,2818.0,34719.0,26002.0,0.0068319999999999995,-0.004758,-0.004514,-0.2625,-1.5925000000000002,-4.515000000000001,0.91978125,-0.1050625,-0.291875,0.97803125,0.88446875,-0.52875,-0.849875,0.914625,0.017273097895326914,0.02245484132213945,True
56665,97941,0,97942,2820.0,34719.0,26005.0,-0.001403,-0.003904,-0.012749,-0.5950000000000001,-1.7325000000000002,-4.812500000000001,0.9196875,-0.10546875,-0.28490625,0.9785625,0.88565625,-0.527875,-0.85196875,0.9135,0.017221477604562156,0.022817608765905117,True
56666,97942,0,97943,2820.0,34717.0,26004.0,-0.001769,-0.004148,-0.011285,-0.385,-2.1525000000000003,-4.777500000000001,0.93075,-0.10250000000000001,-0.28453125,0.9925,0.8824062500000001,-0.53009375,-0.84684375,0.90796875,0.0174313948555537,0.022631144046213112,True
56667,97943,0,97944,2821.0,34723.0,26004.0,0.0,-0.002562,-0.006771,-0.22750000000000004,-2.87,-4.7250000000000005,0.91825,-0.10221875,-0.2910625,0.97546875,0.8895937500000001,-0.527875,-0.8521562500000001,0.90271875,0.017353979910611904,0.022577266308632677,True
56668,97944,0,97945,2820.0,34723.0,26007.0,0.002013,-0.0021349999999999997,-0.001403,-0.035,-3.6225000000000005,-4.812500000000001,0.93,-0.1020625,-0.28865625,0.96990625,0.88228125,-0.53165625,-0.84678125,0.9055625,0.01751181190629964,0.02246266807697677,True
56669,97945,0,97946,2821.0,34723.0,26006.0,0.00183,0.000244,0.000976,0.15750000000000003,-4.112500000000001,-4.7075000000000005,0.9140312500000001,-0.10878125,-0.292625,0.9725625,0.8817812500000001,-0.52765625,-0.8524375000000001,0.915875,0.017077661058626424,0.022525456507032762,True
56670,97946,0,97947,2822.0,34722.0,26008.0,0.0025009999999999998,0.0077469999999999995,0.009333,0.5775,-5.442500000000001,-4.777500000000001,0.91421875,-0.10465625,-0.29571875000000003,0.9653125,0.88215625,-0.52775,-0.8528125,0.9166875,0.017249594846653282,0.02241572256661092,True
56671,97947,0,97948,2821.0,34725.0,26008.0,0.004575,0.006771,0.009577,0.6825000000000001,-5.7925,-4.7075000000000005,0.9070312500000001,-0.10640625000000001,-0.296125,0.97846875,0.881875,-0.52778125,-0.852375,0.909875,0.0171794992667753,0.022382166694330016,True
56672,97948,0,97949,2820.0,34721.0,26008.0,0.009211,0.006039,0.0068319999999999995,0.49000000000000005,-5.880000000000001,-4.69,0.913875,-0.10675,-0.2916875,0.9723125,0.88303125,-0.52734375,-0.851125,0.90534375,0.01714795349577958,0.022511556317872935,True
56673,97949,0,97950,2820.0,34722.0,26009.0,0.01098,0.0055509999999999995,0.0035989999999999998,0.385,-5.3725000000000005,-4.69,0.9375,-0.10400000000000001,-0.28628125,0.9854375,0.8809375,-0.5295,-0.85221875,0.90846875,0.017346460384435068,0.022772111644961276,True
56674,97950,0,97951,2820.0,34721.0,26006.0,0.011467999999999999,0.005429,0.002074,0.1925,-4.4975000000000005,-4.777500000000001,0.9389375,-0.10059375,-0.28553125,0.98309375,0.88628125,-0.52534375,-0.85096875,0.89878125,0.017318819435507404,0.022753137138768486,True
56675,97951,0,97952,2823.0,34721.0,26004.0,0.00915,0.000488,-0.008905999999999999,-0.21000000000000002,-1.8200000000000003,-5.232500000000001,0.93865625,-0.10171875,-0.28575,0.9888750000000001,0.8848125,-0.529625,-0.84984375,0.9091250000000001,0.017444467659004165,0.022700092430158643,True
56676,97952,0,97953,2823.0,34721.0,26007.0,6.1e-05,-0.0044529999999999995,-0.010431,-0.45500000000000007,-0.15750000000000003,-5.250000000000001,0.935125,-0.10128125,-0.285875,0.98671875,0.8873125000000001,-0.531,-0.84759375,0.9088437500000001,0.01751737597325833,0.022606565273548873,True
56677,97953,0,97954,2824.0,34721.0,26006.0,-0.009455,-0.009211,-0.00915,-0.525,1.1725,-5.3025,0.9310625,-0.10350000000000001,-0.286125,0.96775,0.88571875,-0.52909375,-0.8528125,0.9088125,0.017350569667907115,0.02280174527530838,True
56678,97954,0,97955,2823.0,34727.0,26011.0,-0.017324,-0.009943,-0.005307,-0.525,1.6975000000000002,-5.460000000000001,0.9316875,-0.1030625,-0.28550000000000003,0.9782500000000001,0.882,-0.53053125,-0.8525625,0.90878125,0.017425988277363542,0.022817063632774286,True
56679,97955,0,97956,2825.0,34727.0,26014.0,-0.011041,-0.011101999999999999,0.001769,-0.36750000000000005,1.5575,-5.652500000000001,0.92678125,-0.10621875,-0.28634375,0.97175,0.88234375,-0.53021875,-0.8495,0.90871875,0.017284803055415066,0.02266267932956398,True
56680,97956,0,97957,2826.0,34729.0,26014.0,-0.011833999999999999,-0.006771,0.004575,0.035,0.12250000000000001,-5.5125,0.9254687500000001,-0.1036875,-0.28550000000000003,0.978,0.88153125,-0.52946875,-0.84959375,0.9175,0.017357948284142926,0.022700320805043344,True
56681,97957,0,97958,2827.0,34732.0,26017.0,-0.013847,-0.000488,0.007686,0.43750000000000006,-0.9275000000000001,-5.53,0.92053125,-0.10296875,-0.29171875,0.9786875,0.88421875,-0.5266875,-0.84875,0.91340625,0.01727582454825993,0.022416872076060163,True
56682,97958,0,97959,2827.0,34729.0,26016.0,-0.011407,0.0062829999999999995,0.008357,0.6125,-2.45,-5.285,0.910625,-0.10115625,-0.29121875,0.973375,0.8912187500000001,-0.52771875,-0.84921875,0.9075625,0.017391038455217122,0.022455434338353196,True
56683,97959,0,97960,2828.0,34733.0,26019.0,-0.010003999999999999,0.009577,0.006954,0.7350000000000001,-4.532500000000001,-5.0575,0.9130625,-0.1020625,-0.2894375,0.98,0.8903125000000001,-0.52746875,-0.84528125,0.91490625,0.017344074691767776,0.022372205989819496,True
56684,97960,0,97961,2829.0,34732.0,26017.0,0.00061,0.009333,0.000488,0.7000000000000001,-8.995000000000001,-4.812500000000001,0.92059375,-0.10215625,-0.28240625,0.9781562500000001,0.88975,-0.528375,-0.8504375000000001,0.9083125,0.017376558781411325,0.022857997972872707,True
56685,97961,0,97962,2829.0,34732.0,26021.0,0.004331,0.006161,-0.003111,0.7000000000000001,-11.270000000000001,-4.550000000000001,0.92121875,-0.09821875000000001,-0.28834375,0.98221875,0.88215625,-0.523875,-0.8495625,0.90846875,0.017356810455117715,0.02258465315033212,True
56686,97962,0,97963,2829.0,34733.0,26022.0,0.0077469999999999995,0.003904,-0.001037,0.525,-13.265,-4.2,0.92671875,-0.1053125,-0.28946875,0.9784375000000001,0.88271875,-0.527625,-0.85078125,0.9146562500000001,0.017217830915141598,0.02258731805463863,True
56687,97963,0,97964,2831.0,34732.0,26023.0,0.012627,0.000549,0.003538,0.5425000000000001,-14.857500000000002,-4.0075,0.920375,-0.1021875,-0.28765625,0.9873437500000001,0.8849375,-0.52765625,-0.8495312500000001,0.907625,0.017346490250164038,0.022611090500952617,True
56688,97964,0,97965,2834.0,34730.0,26022.0,0.018605,-0.0028669999999999998,0.011101999999999999,0.525,-15.872500000000002,-3.6750000000000003,0.91253125,-0.09803125,-0.28859375,0.9774375000000001,0.88225,-0.52921875,-0.8515625,0.897375,0.01757852561040086,0.02265325369380698,True
56689,97965,0,97966,2834.0,34727.0,26023.0,0.034953,-0.003172,-0.0032329999999999998,0.0175,-15.557500000000001,-3.2550000000000003,0.92653125,-0.10446875,-0.29103125,0.97384375,0.88246875,-0.528125,-0.84921875,0.91334375,0.01727226398267295,0.02246297984720345,True
56690,97966,0,97967,2836.0,34729.0,26023.0,0.027694,-0.0017079999999999999,-0.014579,-0.14,-13.982500000000002,-3.3775000000000004,0.9208437500000001,-0.10215625,-0.289125,0.97828125,0.8905625,-0.5288125,-0.85296875,0.90840625,0.017394085017364783,0.022687178971325106,True
56691,97967,0,97968,2838.0,34728.0,26021.0,0.018605,-0.001647,-0.019398,-0.3325,-12.057500000000001,-3.5700000000000003,0.92875,-0.10553125000000001,-0.2895,0.9779375,0.8830625,-0.52846875,-0.85028125,0.91509375,0.017242719238232104,0.022566394495032126,True
56692,97968,0,97969,2836.0,34732.0,26027.0,0.013603,-0.0028669999999999998,-0.018117,-0.31500000000000006,-10.15,-3.7800000000000002,0.9201875,-0.10200000000000001,-0.2850625,0.9723125,0.88621875,-0.528625,-0.8524375000000001,0.91415625,0.017392943958334395,0.02282975261480891,True
56693,97969,0,97970,2838.0,34731.0,26027.0,0.013847,-0.004331,-0.014274,-0.15750000000000003,-8.155000000000001,-3.9200000000000004,0.926625,-0.10346875,-0.28146875,0.9819687500000001,0.8824062500000001,-0.5251875,-0.8530625000000001,0.90125,0.017195332349650743,0.022998926188673937,True
56694,97970,0,97971,2839.0,34730.0,26022.0,0.005124,-0.00793,0.005612,0.07,-2.8000000000000003,-4.2525,0.92221875,-0.09803125,-0.2884375,0.98440625,0.88196875,-0.529375,-0.85003125,0.90878125,0.01758478355033506,0.02259931765679369,True
56695,97971,0,97972,2838.0,34727.0,26019.0,-0.0064659999999999995,-0.007991,0.0071979999999999995,0.1925,-0.1925,-4.2700000000000005,0.914375,-0.10212500000000001,-0.29103125,0.97796875,0.8899375,-0.53171875,-0.8501875,0.9093125,0.01751176729107087,0.02250108776845245,True
56696,97972,0,97973,2836.0,34724.0,26011.0,-0.012688,-0.001037,0.0051849999999999995,0.14,2.1175,-4.9350000000000005,0.919875,-0.10250000000000001,-0.28981250000000003,0.978,0.8872187500000001,-0.5276875,-0.8496875,0.9118125,0.017335001516143745,0.02253046441730907,True
56697,97973,0,97974,2835.0,34721.0,26007.0,-0.018361,0.0032329999999999998,0.004331,0.49000000000000005,3.5875000000000004,-4.987500000000001,0.92696875,-0.10353125,-0.2841875,0.98065625,0.88228125,-0.52778125,-0.8525625,0.9090312500000001,0.017296713293217254,0.02286987508833345,True
56698,97974,0,97975,2834.0,34721.0,26003.0,-0.022509,0.010675,0.002013,0.77,4.760000000000001,-4.655,0.9262812500000001,-0.10190625,-0.2905625,0.978125,0.882625,-0.53075,-0.85078125,0.90846875,0.01748188498109516,0.022543305353830676,True
56699,97975,0,97976,2833.0,34719.0,25996.0,-0.019581,0.009394,0.006344,0.9100000000000001,6.510000000000001,-3.6050000000000004,0.920875,-0.10525,-0.28928125,0.9825,0.8745625,-0.527875,-0.84359375,0.9090625,0.01723039602900781,0.022312090013144735,True
56700,97976,0,97977,2831.0,34719.0,25993.0,-0.01769,0.006222,0.012993,0.7175,6.737500000000001,-3.535,0.91928125,-0.10146875,-0.2915,0.97746875,0.88778125,-0.52853125,-0.8515312500000001,0.916,0.01741084680722577,0.022535080207582787,True
56701,97977,0,97978,2828.0,34720.0,25993.0,-0.011833999999999999,0.000244,0.008601,0.45500000000000007,6.405,-3.2550000000000003,0.921125,-0.10262500000000001,-0.288875,0.97703125,0.88153125,-0.52765625,-0.85171875,0.913375,0.01732865324219472,0.022648081432999477,True
56702,97978,0,97979,2826.0,34719.0,25990.0,-0.009211,-0.000244,0.004392,0.28,5.6000000000000005,-3.2375000000000003,0.923875,-0.10187500000000001,-0.2885625,0.98090625,0.88290625,-0.52775,-0.8532500000000001,0.90915625,0.017362986821049628,0.022720871515797735,True
56703,97979,0,97980,2824.0,34720.0,25986.0,-0.011773,0.0021349999999999997,-0.002013,0.17500000000000002,4.532500000000001,-3.5875000000000004,0.9208437500000001,-0.1016875,-0.2905,0.9776875,0.8883125000000001,-0.53034375,-0.85059375,0.9190625,0.017474530906237302,0.02253844538422749,True
56704,97980,0,97981,2824.0,34718.0,25987.0,-0.001037,-0.000183,-0.0075639999999999995,0.10500000000000001,1.61,-3.7275000000000005,0.9198437500000001,-0.10415625,-0.2895625,0.97821875,0.8856875000000001,-0.5276875,-0.8520625000000001,0.91625,0.017267475786292532,0.02263393631816273,True
56705,97981,0,97982,2821.0,34720.0,25988.0,0.005307,-0.004697,-0.005612,0.052500000000000005,0.6300000000000001,-3.7275000000000005,0.9248125,-0.10250000000000001,-0.2885625,0.98171875,0.8813125,-0.53053125,-0.8545,0.9067500000000001,0.017448918885521487,0.02277002152527711,True
56706,97982,0,97983,2821.0,34717.0,25987.0,0.0034159999999999998,-0.008539999999999999,-0.003172,-0.035,0.10500000000000001,-3.7800000000000002,0.9214375,-0.10246875,-0.28984375,0.97875,0.88475,-0.527375,-0.840875,0.9203125,0.017323755599610642,0.022182441238482946,True
56707,97983,0,97984,2818.0,34720.0,25989.0,-0.000793,-0.010919,-0.00183,-0.08750000000000001,-0.3325,-3.7800000000000002,0.92975,-0.10034375,-0.29340625,0.97809375,0.8795000000000001,-0.528,-0.84903125,0.9054375,0.01743543093607306,0.02236002661069534,True
56708,97984,0,97985,2818.0,34722.0,25988.0,-0.005429,-0.008418,-0.0013419999999999999,0.052500000000000005,-0.9275000000000001,-3.7100000000000004,0.91359375,-0.1005625,-0.28846875,1.0034687500000001,0.88628125,-0.52715625,-0.8555,0.9061875,0.01739271139515002,0.022813109774496593,True
56709,97985,0,97986,2819.0,34721.0,25991.0,-0.000305,0.0008539999999999999,0.003172,0.43750000000000006,-3.0450000000000004,-4.112500000000001,0.91534375,-0.0998125,-0.30121875,0.96903125,0.89178125,-0.5236875,-0.84796875,0.9194687500000001,0.017284309302995318,0.022003810673659193,True
56710,97986,0,97987,2819.0,34722.0,25992.0,0.006588,0.006893,0.00488,0.5775,-4.305000000000001,-4.130000000000001,0.9088437500000001,-0.10871875,-0.28821875,0.97546875,0.8800625,-0.52715625,-0.8535625,0.89978125,0.0170601718248523,0.022746990496835214,True
56711,97987,0,97988,2817.0,34723.0,25991.0,0.013176,0.007625,0.003904,0.7000000000000001,-5.040000000000001,-4.095000000000001,0.93784375,-0.09953125,-0.29215625,0.9809687500000001,0.884625,-0.5290625,-0.849375,0.91953125,0.017511115640885175,0.022423853718654897,True
56712,97988,0,97989,2816.0,34723.0,25993.0,0.015189,0.008723,0.00183,0.7350000000000001,-5.197500000000001,-3.99,0.90878125,-0.10921875,-0.2905,0.9657187500000001,0.86734375,-0.526375,-0.854875,0.9083125,0.017008475569667347,0.022706813049753825,True
56713,97989,0,97990,2818.0,34724.0,25993.0,0.013176,0.009882,-0.002013,0.665,-5.250000000000001,-4.0600000000000005,0.93009375,-0.11540625,-0.2854375,0.96709375,0.87025,-0.530375,-0.85709375,0.9058125,0.01691652695892338,0.02299771066358069,True
56714,97990,0,97991,2818.0,34722.0,25994.0,0.0073809999999999995,-0.00042699999999999997,-0.005124,0.385,-4.8825,-3.9200000000000004,0.92884375,-0.096875,-0.28940625000000003,0.9963125,0.8794062500000001,-0.5337500000000001,-0.84640625,0.89978125,0.017807102460895705,0.022417728922064933,True
56715,97991,0,97992,2819.0,34724.0,25997.0,0.004758,-0.004758,-0.0044529999999999995,0.1925,-4.3925,-4.0425,0.9130312500000001,-0.097375,-0.29078125,0.9712500000000001,0.893875,-0.52746875,-0.84665625,0.918,0.017535186952383746,0.0223722256390133,True
56716,97992,0,97993,2817.0,34722.0,25997.0,0.000183,-0.008905999999999999,-0.001586,0.1925,-3.9550000000000005,-3.99,0.90896875,-0.11225,-0.290875,0.96690625,0.88015625,-0.526625,-0.85240625,0.9068125,0.01689490502668019,0.022594643124345355,True
56717,97993,0,97994,2819.0,34722.0,25996.0,-0.001647,-0.008662,-0.000366,0.22750000000000004,-3.535,-3.9375000000000004,0.94053125,-0.10496875,-0.283375,1.0005,0.8799375,-0.52796875,-0.849,0.9075,0.017245618840736658,0.022762485411887804,True
56718,97994,0,97995,2818.0,34723.0,25999.0,-0.002623,-0.007869,0.001403,0.31500000000000006,-3.22,-3.9375000000000004,0.9253750000000001,-0.09593750000000001,-0.28378125,0.9946875000000001,0.8843125000000001,-0.53240625,-0.84775,0.9081250000000001,0.017791518106789868,0.022696974575162742,True
56719,97995,0,97996,2820.0,34723.0,26001.0,-0.003721,-0.002257,0.005246,0.43750000000000006,-2.4850000000000003,-3.7975000000000003,0.91690625,-0.09996875000000001,-0.28700000000000003,0.9955625,0.89128125,-0.5318125,-0.85075,0.9021875,0.017603418010797206,0.022685432029214407,True
56720,97996,0,97997,2822.0,34722.0,26001.0,-0.001098,0.00183,0.00671,0.525,-2.1700000000000004,-3.8150000000000004,0.9406875,-0.10350000000000001,-0.28515625,0.9811875,0.88828125,-0.5301875,-0.854625,0.90425,0.017394383960579185,0.02291198318220452,True
56721,97997,0,97998,2821.0,34722.0,26001.0,0.002806,0.006588,0.0025009999999999998,0.5425000000000001,-1.995,-3.8675,0.92996875,-0.10834375,-0.288125,0.97040625,0.871625,-0.5278437500000001,-0.853375,0.90396875,0.01710301175577246,0.022743389982245874,True
56722,97998,0,97999,2820.0,34721.0,25998.0,0.007076,0.00671,-0.003111,0.43750000000000006,-1.3825,-3.8150000000000004,0.911875,-0.1038125,-0.29121875,0.972,0.87528125,-0.5269375000000001,-0.8514375000000001,0.9140312500000001,0.017251440380601946,0.02254271005449886,True
56723,97999,0,98000,2821.0,34721.0,26001.0,0.00488,0.004941,-0.0066489999999999995,0.29750000000000004,-0.56,-3.8850000000000002,0.9205625000000001,-0.10228125,-0.289125,0.98228125,0.8809375,-0.53125,-0.8518125,0.9078437500000001,0.017486624203821657,0.022641708728488114,True
56724,98000,0,98001,2822.0,34723.0,26000.0,-0.005795,-0.00042699999999999997,-0.0051849999999999995,0.12250000000000001,0.45500000000000007,-4.0425,0.92953125,-0.10021875,-0.28996875,0.9784375000000001,0.88253125,-0.5270625,-0.8521875,0.91025,0.017402970698182873,0.022622505564148025,True
56725,98001,0,98002,2825.0,34725.0,26001.0,-0.0071979999999999995,-0.001281,-0.000366,0.21000000000000002,0.5425000000000001,-4.0425,0.92903125,-0.10590625000000001,-0.291,0.97771875,0.881375,-0.528625,-0.850125,0.914125,0.017233691248490283,0.022499886821494865,True
56726,98002,0,98003,2822.0,34725.0,26002.0,-0.0053679999999999995,-0.003355,0.0040869999999999995,0.3325,0.6125,-4.025,0.9203125,-0.10553125000000001,-0.29115625,0.97665625,0.89003125,-0.52790625,-0.8500625,0.9130312500000001,0.01722018160437155,0.022491140615843525,True
56727,98003,0,98004,2824.0,34725.0,26005.0,-0.0068319999999999995,-0.0037819999999999998,0.006954,0.29750000000000004,0.35000000000000003,-4.0600000000000005,0.91109375,-0.10134375,-0.29003125,0.9842500000000001,0.89109375,-0.5288437500000001,-0.85109375,0.90909375,0.017428461135678277,0.02257697410199501,True
56728,98004,0,98005,2823.0,34730.0,26006.0,-0.00549,-0.0040869999999999995,0.0077469999999999995,0.4025,-0.035,-4.165,0.91615625,-0.10140625,-0.2895,0.9772500000000001,0.8787812500000001,-0.530625,-0.854875,0.910625,0.01749726107671533,0.022747046605545194,True
56729,98005,0,98006,2824.0,34729.0,26005.0,0.00042699999999999997,0.0013419999999999999,-0.0028669999999999998,0.29750000000000004,-0.7525000000000001,-4.112500000000001,0.9269375,-0.10221875,-0.2895,0.97840625,0.88203125,-0.52678125,-0.8535625,0.9143125,0.017310159685140096,0.022695438531196484,True
56730,98006,0,98007,2824.0,34730.0,26007.0,-0.000549,0.004575,-0.004697,0.385,-1.1375000000000002,-4.2175,0.92734375,-0.10259375,-0.28978125,0.9728125,0.8823125,-0.52759375,-0.85496875,0.90753125,0.017327423322966606,0.02273941704312141,True
56731,98007,0,98008,2825.0,34731.0,26007.0,-0.001037,0.006344,-0.002806,0.56,-1.6450000000000002,-4.305000000000001,0.92528125,-0.10559375,-0.28971875,0.97746875,0.8825937500000001,-0.52734375,-0.85409375,0.91353125,0.01719509476031215,0.022707526803305792,True
56732,98008,0,98009,2825.0,34729.0,26005.0,0.003355,0.00549,-0.000915,0.6125,-1.9075000000000002,-4.1825,0.92834375,-0.10253125,-0.2896875,0.97546875,0.8827812500000001,-0.52790625,-0.854,0.9080312500000001,0.01734249126951062,0.02270509777098254,True
56733,98009,0,98010,2824.0,34730.0,26008.0,0.004575,0.0011589999999999999,0.0,0.5950000000000001,-2.1350000000000002,-4.077500000000001,0.9115,-0.09721875,-0.29078125,0.9845,0.8831875,-0.529125,-0.85190625,0.90840625,0.01760789469661066,0.022578750875498738,True
56734,98010,0,98011,2826.0,34730.0,26008.0,0.004209,-0.002074,0.006039,0.5425000000000001,-2.0650000000000004,-3.9200000000000004,0.92096875,-0.1019375,-0.291875,0.9841875,0.88853125,-0.531625,-0.85121875,0.90828125,0.017515655811630906,0.022507698943336533,True
56735,98011,0,98012,2825.0,34730.0,26008.0,0.0015249999999999999,-0.002928,0.0046359999999999995,0.35000000000000003,-1.7500000000000002,-3.8325000000000005,0.9198125,-0.10212500000000001,-0.28196875,0.9774375000000001,0.8878125,-0.53109375,-0.8528125,0.91421875,0.017486735584303085,0.022968979868978612,True
56736,98012,0,98013,2828.0,34730.0,26008.0,-0.00061,-0.003904,-0.001769,0.1925,-1.5575,-3.7275000000000005,0.926875,-0.105375,-0.2904375,0.9772500000000001,0.882375,-0.528375,-0.85190625,0.9146562500000001,0.017245333211026007,0.02259258281243516,True
56737,98013,0,98014,2828.0,34730.0,26010.0,-0.002379,-0.003111,-0.00366,0.1925,-1.7325000000000002,-3.7275000000000005,0.92021875,-0.1038125,-0.29028125,0.9773437500000001,0.8859375,-0.5283125,-0.85021875,0.91540625,0.01730653097313564,0.022532497827609667,True
56738,98014,0,98015,2829.0,34732.0,26013.0,-0.003904,6.1e-05,-0.004148,0.2625,-1.7675,-3.7275000000000005,0.9255625000000001,-0.1040625,-0.29071875,0.9773437500000001,0.86890625,-0.528375,-0.85078125,0.91315625,0.01729884266691128,0.022537017825143828,True
56739,98015,0,98016,2829.0,34731.0,26013.0,0.0017079999999999999,-0.0006709999999999999,-0.002196,0.2625,-1.9775000000000003,-3.7800000000000002,0.9201875,-0.10287500000000001,-0.289625,0.9775,0.8845000000000001,-0.52046875,-0.8511875,0.91353125,0.01703041464082941,0.022597008694252536,True
56740,98016,0,98017,2830.0,34731.0,26014.0,0.003721,-0.0026839999999999998,-0.00244,0.29750000000000004,-1.9425000000000001,-3.8675,0.92796875,-0.10509375,-0.29003125,0.9775312500000001,0.882375,-0.5280312500000001,-0.85090625,0.9129375000000001,0.017243026792050423,0.022569599448712258,True
56741,98017,0,98018,2830.0,34730.0,26015.0,0.006222,-0.0018909999999999999,-0.00042699999999999997,0.36750000000000005,-1.7500000000000002,-3.9200000000000004,0.92471875,-0.10425,-0.293625,0.9775,0.88353125,-0.52775,-0.8510625,0.9136562500000001,0.017266157719317915,0.02243113347769336,True
56742,98018,0,98019,2831.0,34732.0,26019.0,0.0070149999999999995,0.0006709999999999999,0.000732,0.43750000000000006,-1.33,-3.9025000000000003,0.92025,-0.10434375,-0.2890625,0.980125,0.88709375,-0.527625,-0.8523437500000001,0.907625,0.017257327197394774,0.022665115840432556,True
56743,98019,0,98020,2832.0,34732.0,26019.0,0.000793,0.001586,0.001769,0.525,-0.8400000000000001,-4.1475,0.9185,-0.10246875,-0.2890625,0.98478125,0.8825937500000001,-0.52746875,-0.8521875,0.90778125,0.017327511629181058,0.022658971167025036,True
56744,98020,0,98021,2833.0,34734.0,26020.0,-0.00042699999999999997,-6.1e-05,0.000549,0.49000000000000005,0.052500000000000005,-4.130000000000001,0.9195625000000001,-0.1014375,-0.29315625,0.9772500000000001,0.88578125,-0.53021875,-0.85190625,0.90821875,0.017479715707794084,0.02248318476575615,True
56745,98021,0,98022,2835.0,34734.0,26024.0,-0.001769,0.001647,0.001037,0.5425000000000001,0.29750000000000004,-4.2525,0.92034375,-0.1016875,-0.29103125,0.9780625000000001,0.88996875,-0.5275625,-0.85059375,0.9198125,0.017363119551728798,0.02251706762539627,True
56746,98022,0,98023,2834.0,34733.0,26025.0,-0.003294,0.002379,0.001403,0.6475000000000001,0.6125,-4.2875000000000005,0.92621875,-0.10259375,-0.28978125,0.9848125,0.88228125,-0.527875,-0.85509375,0.908625,0.01733869118299078,0.02274433183338928,True
56747,98023,0,98024,2835.0,34735.0,26024.0,-0.004148,0.0032329999999999998,0.0026839999999999998,0.56,0.9100000000000001,-4.112500000000001,0.927125,-0.1024375,-0.28931250000000003,0.98403125,0.8754375,-0.52759375,-0.85753125,0.8990312500000001,0.017333793699188284,0.02285901782784644,True
56748,98024,0,98025,2837.0,34737.0,26025.0,-0.005673,0.002806,0.000732,0.56,0.7350000000000001,-3.9200000000000004,0.92115625,-0.10175000000000001,-0.2853125,0.98559375,0.8813125,-0.5324375,-0.8586875,0.9036875,0.017555838061342255,0.02306537704373974,True
56749,98025,0,98026,2836.0,34735.0,26027.0,-0.0051849999999999995,0.0017079999999999999,-0.000244,0.45500000000000007,0.7000000000000001,-3.7975000000000003,0.9200625,-0.1018125,-0.2896875,0.98303125,0.8759687500000001,-0.5294375,-0.85246875,0.90278125,0.01743313518705841,0.022644883116491193,True
56750,98026,0,98027,2839.0,34737.0,26030.0,-0.006527,-0.001769,-0.00122,0.49000000000000005,0.49000000000000005,-3.6050000000000004,0.9196875,-0.10184375,-0.2915625,0.97878125,0.87409375,-0.53225,-0.85309375,0.90240625,0.01754450773981188,0.022594018098853388,True
56751,98027,0,98028,2839.0,34736.0,26026.0,-0.00793,-0.0042699999999999995,-0.001037,0.47250000000000003,0.22750000000000004,-3.5700000000000003,0.92096875,-0.10415625,-0.29215625,0.9759375,0.8942187500000001,-0.5331875,-0.8493125,0.90459375,0.017487790773212816,0.02242139495811001,True
56752,98028,0,98029,2841.0,34735.0,26023.0,-0.006588,-0.004514,-0.000122,0.36750000000000005,-0.29750000000000004,-3.43,0.9238125,-0.1055625,-0.28984375,0.9769375,0.8970312500000001,-0.52565625,-0.84784375,0.9234687500000001,0.017128746554946925,0.022456676950087472,True
56753,98029,0,98030,2837.0,34730.0,26016.0,0.0032329999999999998,0.0008539999999999999,0.00042699999999999997,0.7175,-2.2225,-3.6575,0.91959375,-0.10234375,-0.28909375,0.983,0.8799375,-0.52590625,-0.85728125,0.9094375,0.017270004039096416,0.02285799055357271,True
56754,98030,0,98031,2835.0,34725.0,26011.0,0.007259,0.001281,0.0028669999999999998,0.5775,-2.9050000000000002,-3.6750000000000003,0.92703125,-0.1025625,-0.29046875,0.98146875,0.87509375,-0.52534375,-0.8505312500000001,0.91234375,0.017238545331296325,0.02253724455085845,True
56755,98031,0,98032,2833.0,34724.0,26004.0,0.011467999999999999,0.000793,0.004941,0.5775,-3.1850000000000005,-3.6400000000000006,0.927875,-0.10250000000000001,-0.28975,0.97,0.87603125,-0.52475,-0.8534375000000001,0.92525,0.01721730088991733,0.022680464221498543,True
56756,98032,0,98033,2832.0,34720.0,26000.0,0.008967,0.00122,0.003477,0.49000000000000005,-2.8875,-3.6575,0.92590625,-0.10590625000000001,-0.28984375,0.97278125,0.8729375,-0.5260625,-0.84740625,0.92525,0.01713101114375779,0.0224394648837844,True
56757,98033,0,98034,2828.0,34717.0,25995.0,0.005673,0.0011589999999999999,0.000915,0.45500000000000007,-2.3800000000000003,-3.6750000000000003,0.921,-0.1048125,-0.28675,0.977625,0.9016875,-0.52434375,-0.848125,0.9178437500000001,0.017106726861957317,0.022592247906029126,True
56758,98034,0,98035,2827.0,34714.0,25990.0,-0.0026839999999999998,0.0,-0.008723,0.14,-1.8025000000000002,-3.7975000000000003,0.9261875,-0.10203125,-0.29028125,0.977625,0.8835937500000001,-0.52553125,-0.85346875,0.9208437500000001,0.01726771973593844,0.02266031778763276,True
56759,98035,0,98036,2825.0,34711.0,25987.0,-0.00549,-0.0006709999999999999,-0.008235,0.2625,-1.9250000000000003,-3.8500000000000005,0.92590625,-0.10387500000000001,-0.2895,0.972125,0.880375,-0.52628125,-0.8503125,0.9139375000000001,0.01722259667881775,0.022567623646583924,True
56760,98036,0,98037,2823.0,34712.0,25985.0,-0.003965,-0.000366,-0.005978,0.36750000000000005,-2.0300000000000002,-3.9725000000000006,0.92771875,-0.10128125,-0.28990625000000003,0.9799375,0.8747812500000001,-0.52959375,-0.85159375,0.90528125,0.017461051510484146,0.0226016691585424,True
56761,98037,0,98038,2820.0,34710.0,25985.0,-0.001098,-0.0015249999999999999,-0.002196,0.29750000000000004,-2.205,-4.0600000000000005,0.9275625000000001,-0.10234375,-0.2896875,0.98059375,0.87984375,-0.5261875,-0.8532500000000001,0.90771875,0.017281273332840665,0.022675605806081703,True
56762,98038,0,98039,2820.0,34712.0,25982.0,-6.1e-05,-0.000305,0.0028669999999999998,0.36750000000000005,-2.345,-4.095000000000001,0.9284375,-0.10409375,-0.2914375,0.97759375,0.8825000000000001,-0.52753125,-0.8505312500000001,0.91415625,0.01726376355141735,0.022498261480828508,True
56763,98039,0,98040,2819.0,34711.0,25982.0,0.001769,-0.000244,0.010248,0.49000000000000005,-2.555,-4.1475,0.92290625,-0.105125,-0.289875,0.9775312500000001,0.883875,-0.52728125,-0.8501875,0.9146562500000001,0.01721170176576338,0.022547616592430136,True
56764,98040,0,98041,2817.0,34711.0,25982.0,0.001037,-0.0018909999999999999,0.0059169999999999995,0.42000000000000004,-2.555,-3.99,0.9206562500000001,-0.104375,-0.29140625000000003,0.97721875,0.8850625,-0.52775,-0.84796875,0.9158125,0.01726106145080572,0.022398712168373927,True
56765,98041,0,98042,2815.0,34710.0,25980.0,-0.0021349999999999997,-0.0011589999999999999,0.00244,0.29750000000000004,-2.87,-4.0600000000000005,0.92109375,-0.10259375,-0.29146875,0.98328125,0.883875,-0.52965625,-0.85178125,0.905375,0.017410048296131346,0.0225461706089981,True
56766,98042,0,98043,2814.0,34711.0,25982.0,-0.002745,0.001769,-0.0008539999999999999,0.28,-2.975,-3.8500000000000005,0.92078125,-0.10225000000000001,-0.288875,0.96978125,0.8861875,-0.5298437500000001,-0.8538125,0.90140625,0.017431572510526083,0.022730416108192656,True
56767,98043,0,98044,2817.0,34714.0,25982.0,-0.00042699999999999997,0.003111,-0.003477,0.385,-3.3950000000000005,-3.7100000000000004,0.91390625,-0.10425,-0.29259375,0.97696875,0.88171875,-0.527625,-0.85078125,0.91071875,0.017261149418257984,0.022461567480901633,True
56768,98044,0,98045,2816.0,34712.0,25983.0,0.003111,-6.1e-05,-0.005063,0.29750000000000004,-3.7975000000000003,-3.5000000000000004,0.921,-0.100875,-0.29259375,0.968125,0.886875,-0.52978125,-0.8503437500000001,0.90853125,0.017485123313115563,0.022444357535295667,True
56769,98045,0,98046,2814.0,34714.0,25984.0,0.002562,0.000122,-0.002806,0.385,-3.8150000000000004,-3.535,0.92125,-0.1011875,-0.29228125,0.98484375,0.879625,-0.5306875,-0.8514375000000001,0.9085625,0.017508681727733885,0.022499955988461433,True
56770,98046,0,98047,2815.0,34714.0,25987.0,0.001586,0.00122,-0.000122,0.36750000000000005,-3.8325000000000005,-3.6050000000000004,0.92096875,-0.1014375,-0.289625,0.98709375,0.88628125,-0.531,-0.847875,0.900625,0.017511006481594718,0.022466709929923587,True
56771,98047,0,98048,2815.0,34715.0,25989.0,0.001464,0.001464,0.002257,0.45500000000000007,-3.8500000000000005,-3.7100000000000004,0.928125,-0.10134375,-0.28984375,0.9776875,0.88275,-0.52971875,-0.852,0.9117500000000001,0.017463510461162544,0.022620161355222917,True
56772,98048,0,98049,2816.0,34715.0,25992.0,0.003294,0.000488,0.001403,0.35000000000000003,-3.9725000000000006,-3.7450000000000006,0.9340937500000001,-0.10684375,-0.29084375,0.977,0.88321875,-0.524875,-0.8505625,0.91615625,0.017045193910264576,0.022523383525020816,True
56773,98049,0,98050,2817.0,34715.0,25988.0,0.004392,-0.001769,0.002074,0.35000000000000003,-3.7800000000000002,-3.7450000000000006,0.9198125,-0.10046875,-0.29331250000000003,0.98046875,0.89046875,-0.527625,-0.84503125,0.9088437500000001,0.01741531232640747,0.02220640193398831,True
56774,98050,0,98051,2817.0,34714.0,25991.0,0.005307,-0.0013419999999999999,0.001403,0.29750000000000004,-3.535,-3.7625,0.91540625,-0.10103125,-0.28871875,0.980875,0.88453125,-0.5305,-0.8531562500000001,0.909,0.017507541631846067,0.022710898137937714,True
56775,98051,0,98052,2820.0,34716.0,25994.0,0.0050019999999999995,-0.002257,0.0,0.21000000000000002,-3.0100000000000002,-3.7450000000000006,0.93075,-0.10371875,-0.2899375,0.97640625,0.88265625,-0.5274375,-0.8538125,0.916,0.017275296288085537,0.022687666127681614,True
56776,98052,0,98053,2818.0,34715.0,25993.0,0.001952,-0.0013419999999999999,-0.002623,0.12250000000000001,-2.1525000000000003,-3.6925000000000003,0.9248125,-0.1041875,-0.29490625,0.96721875,0.88153125,-0.5266875,-0.8501875,0.9069375000000001,0.017226133777747198,0.02234515333133804,True
56777,98053,0,98054,2818.0,34715.0,25993.0,-0.001403,-0.000732,-0.003843,0.12250000000000001,-1.5575,-3.7800000000000002,0.91821875,-0.1045,-0.29315625,0.9907812500000001,0.88428125,-0.528,-0.85071875,0.90071875,0.01726598173515982,0.022436473794143277,True
56778,98054,0,98055,2819.0,34716.0,25995.0,-0.00671,0.0,-0.000366,0.4025,-0.6825000000000001,-3.4825000000000004,0.933625,-0.1021875,-0.288625,0.9758125,0.8828125,-0.52959375,-0.8515625,0.908,0.01742410634093767,0.022651996227601383,True
56779,98055,0,98056,2819.0,34717.0,25996.0,0.002806,-0.0017079999999999999,-0.0021349999999999997,0.29750000000000004,-0.805,-3.7975000000000003,0.9345,-0.10271875,-0.28925,0.9756250000000001,0.882875,-0.52915625,-0.854125,0.91371875,0.017384923299186048,0.022727615637243317,True
56780,98056,0,98057,2820.0,34717.0,25997.0,0.005673,-0.0026839999999999998,-0.005673,0.1925,-0.9625000000000001,-4.130000000000001,0.9185,-0.09921875000000001,-0.2951875,0.98940625,0.88271875,-0.5280312500000001,-0.847875,0.90334375,0.017482548665621093,0.02224284772842748,True
56781,98057,0,98058,2817.0,34718.0,25998.0,0.000732,0.001281,-0.00366,0.5425000000000001,-0.8750000000000001,-4.0600000000000005,0.92484375,-0.10109375,-0.28875,0.97559375,0.88703125,-0.53053125,-0.85475,0.911,0.017506245405916353,0.022772307104275847,True
56782,98058,0,98059,2819.0,34716.0,25997.0,-0.006222,0.005856,0.00061,0.7000000000000001,-0.45500000000000007,-4.025,0.9075,-0.10121875,-0.28628125,0.9851562500000001,0.8825000000000001,-0.52821875,-0.85121875,0.9090625,0.0174085205433028,0.02273278850760589,True
56783,98059,0,98060,2818.0,34718.0,25996.0,-0.007259,-0.001586,0.007686,0.47250000000000003,-0.525,-3.7450000000000006,0.93221875,-0.10678125000000001,-0.29453125,0.9803125,0.8824375,-0.5275625,-0.8513125,0.90609375,0.01715544502230909,0.022404500768319582,True
56784,98060,0,98061,2819.0,34717.0,25998.0,-0.001769,-0.0026839999999999998,0.0068319999999999995,0.4025,-0.9800000000000001,-3.6750000000000003,0.91825,-0.10078125,-0.2880625,0.97840625,0.8788750000000001,-0.529875,-0.85159375,0.90821875,0.01749270022778347,0.02267585957138061,True
56785,98061,0,98062,2820.0,34717.0,25997.0,0.000122,-0.000122,0.003111,0.43750000000000006,-1.54,-3.7625,0.92975,-0.10362500000000001,-0.2885625,0.9766875,0.8821875,-0.529,-0.852875,0.89815625,0.017341717966488646,0.02270612554885501,True
56786,98062,0,98063,2819.0,34719.0,25997.0,0.001281,0.00183,-0.00061,0.45500000000000007,-1.7325000000000002,-3.7275000000000005,0.91825,-0.10171875,-0.28871875,0.9801562500000001,0.88265625,-0.52815625,-0.85109375,0.909,0.017385632073344284,0.022629788678818208,True
56787,98063,0,98064,2820.0,34715.0,26000.0,0.0021349999999999997,0.002257,-0.004941,0.35000000000000003,-1.9075000000000002,-3.6575,0.9295,-0.1049375,-0.29284375,0.97871875,0.88290625,-0.52709375,-0.85075,0.9101250000000001,0.017211833342464393,0.022450278160618894,True
56788,98064,0,98065,2819.0,34719.0,25999.0,0.0032329999999999998,-0.000183,-0.003294,0.43750000000000006,-2.1175,-3.5875000000000004,0.91578125,-0.09796875000000001,-0.281125,0.97796875,0.88878125,-0.52934375,-0.85328125,0.9100312500000001,0.01758607993742189,0.023021356586466826,True
56789,98065,0,98066,2821.0,34718.0,26000.0,0.0037819999999999998,-0.000183,-0.001464,0.45500000000000007,-2.1525000000000003,-3.7100000000000004,0.92,-0.10434375,-0.29046875,0.98284375,0.8807812500000001,-0.52671875,-0.8516875,0.902,0.0172210153467838,0.02258272199825465,True
56790,98066,0,98067,2822.0,34717.0,26001.0,0.003843,-0.000793,0.001952,0.525,-1.7500000000000002,-3.6050000000000004,0.92559375,-0.10584375,-0.29121875,0.97740625,0.88375,-0.52684375,-0.8474375000000001,0.9083125,0.01716486655564885,0.022385356638888815,True
56791,98067,0,98068,2823.0,34717.0,26001.0,0.003721,-0.0013419999999999999,0.001769,0.5950000000000001,-1.4000000000000001,-3.6400000000000006,0.92059375,-0.10096875,-0.28931250000000003,0.9783437500000001,0.89315625,-0.5318437500000001,-0.856875,0.9198437500000001,0.017563906096540342,0.022833220185562345,True
56792,98068,0,98069,2824.0,34718.0,26002.0,0.000793,-0.000732,0.002196,0.56,-1.0675000000000001,-3.8150000000000004,0.921,-0.10153125,-0.2879375,0.9808125,0.90915625,-0.534875,-0.86128125,0.92625,0.017662358173823993,0.023061713683803,True
56793,98069,0,98070,2822.0,34717.0,26002.0,0.007442,-0.0023179999999999997,0.002379,0.5775,-0.1925,-3.9025000000000003,0.9263750000000001,-0.10459375,-0.29153125,0.97921875,0.88696875,-0.53040625,-0.8454375000000001,0.90046875,0.017358558829411966,0.02229408316919354,True
56794,98070,0,98071,2822.0,34717.0,26003.0,0.002623,-0.002257,-0.0017079999999999999,0.43750000000000006,0.56,-4.0075,0.92690625,-0.10259375,-0.28903125,0.9753125,0.86803125,-0.522625,-0.84325,0.9125625,0.017128315178330217,0.022308625079246875,True
56795,98071,0,98072,2825.0,34721.0,26006.0,-0.002928,0.00061,-0.002196,0.36750000000000005,1.225,-4.0600000000000005,0.92015625,-0.100375,-0.28859375,0.9823125,0.89178125,-0.5309375000000001,-0.85753125,0.91834375,0.01755181594669996,0.022887932605938088,True
56796,98072,0,98073,2825.0,34722.0,26005.0,-0.002257,0.002745,-0.000366,0.47250000000000003,2.1875,-4.0075,0.92671875,-0.10362500000000001,-0.28990625000000003,0.97875,0.87553125,-0.52490625,-0.83915625,0.918,0.01717769053653365,0.022112264783551175,True
56797,98073,0,98074,2825.0,34723.0,26009.0,-0.0017079999999999999,0.002196,-0.002257,0.45500000000000007,2.6775,-3.99,0.9206875,-0.1053125,-0.28984375,0.97903125,0.90753125,-0.5234375,-0.8443437500000001,0.91628125,0.017050015928639695,0.022318963446156633,True
56798,98074,0,98075,2826.0,34725.0,26012.0,-0.008539999999999999,0.000793,0.000122,0.36750000000000005,3.43,-4.165,0.92003125,-0.10200000000000001,-0.2895625,0.9782500000000001,0.88103125,-0.52096875,-0.8445,0.9286562500000001,0.0170861418352405,0.022336432610839424,True
56799,98075,0,98076,2827.0,34726.0,26013.0,-0.014091,-0.001403,0.00042699999999999997,0.36750000000000005,3.3425000000000002,-3.99,0.9206562500000001,-0.09690625,-0.28575,0.9778125,0.894875,-0.5380625,-0.858375,0.93084375,0.0179784467498198,0.023035496085323355,True
56800,98076,0,98077,2828.0,34726.0,26016.0,-0.015982,6.1e-05,0.0023179999999999997,0.43750000000000006,2.9925,-4.112500000000001,0.920375,-0.1013125,-0.2899375,0.9869687500000001,0.9087500000000001,-0.53265625,-0.85084375,0.90615625,0.01758243158035527,0.022570913713945828,True
56801,98077,0,98078,2829.0,34729.0,26016.0,-0.015493999999999999,-0.000488,0.0040869999999999995,0.45500000000000007,2.1700000000000004,-4.235,0.9238437500000001,-0.1044375,-0.29,0.9705625,0.8689375,-0.52328125,-0.84415625,0.91809375,0.01707943344653359,0.02230529563667513,True
56802,98078,0,98079,2830.0,34729.0,26019.0,-0.011407,-0.001098,0.0046359999999999995,0.43750000000000006,0.9625000000000001,-3.9375000000000004,0.920625,-0.1009375,-0.28903125,0.9825,0.90334375,-0.5388437500000001,-0.8531875,0.9041250000000001,0.01784543128687553,0.02269955312573085,True
56803,98079,0,98080,2831.0,34733.0,26022.0,0.000915,0.000732,-0.000366,0.5075000000000001,-1.6275000000000002,-3.7800000000000002,0.92853125,-0.10196875,-0.29021875,0.97746875,0.8687812500000001,-0.52571875,-0.848875,0.9130625,0.01727778110478414,0.022482154624706353,True
56804,98080,0,98081,2831.0,34733.0,26020.0,0.007991,0.0021349999999999997,-0.001037,0.56,-2.7825,-3.9725000000000006,0.921,-0.10103125,-0.28971875,0.97828125,0.8804375,-0.53165625,-0.85246875,0.90509375,0.017553849426697393,0.02264362569613934,True
56805,98081,0,98082,2833.0,34733.0,26023.0,0.011101999999999999,0.00244,-0.000976,0.43750000000000006,-3.4650000000000003,-3.9550000000000005,0.920625,-0.10228125,-0.29103125,0.9861875,0.8827812500000001,-0.5271250000000001,-0.8505625,0.9085,0.01732138397794279,0.02251583842418054,True
56806,98082,0,98083,2833.0,34733.0,26022.0,0.012383,0.0015249999999999999,-0.000976,0.385,-3.8150000000000004,-3.8500000000000005,0.92196875,-0.10165625,-0.28978125,0.984,0.88865625,-0.53125,-0.8511875,0.9094375,0.017512101910828026,0.02259072126834985,True
56807,98083,0,98084,2834.0,34730.0,26020.0,0.01159,-0.0021349999999999997,-0.00061,0.3325,-3.7975000000000003,-3.9025000000000003,0.9264687500000001,-0.10362500000000001,-0.28928125,0.9788125,0.8816875000000001,-0.53,-0.85284375,0.91271875,0.0173817774154097,0.02267597646647579,True
56808,98084,0,98085,2835.0,34727.0,26017.0,0.0075639999999999995,-0.002379,-0.002562,0.31500000000000006,-3.325,-3.8850000000000002,0.92440625,-0.1039375,-0.2888125,0.9789375,0.8814062500000001,-0.52671875,-0.8525,0.91609375,0.017237578915850697,0.022681319786741778,True
56809,98085,0,98086,2835.0,34723.0,26009.0,0.002806,-6.1e-05,-0.0037819999999999998,0.42000000000000004,-3.0275000000000003,-4.0600000000000005,0.92103125,-0.10265625,-0.29209375,0.9791875,0.88271875,-0.52796875,-0.8533125,0.91659375,0.017339898967377802,0.022581245457723192,True
56810,98086,0,98087,2832.0,34719.0,26004.0,0.000366,0.000183,-0.000915,0.42000000000000004,-2.5025000000000004,-3.99,0.920875,-0.10153125,-0.289375,0.97878125,0.88871875,-0.5294375,-0.8494375000000001,0.9090625,0.01744460100236705,0.022538236529498913,True
56811,98087,0,98088,2832.0,34717.0,25999.0,-0.001281,0.0006709999999999999,6.1e-05,0.42000000000000004,-2.2225,-3.9375000000000004,0.9253750000000001,-0.1034375,-0.29090625000000003,0.9736875,0.88328125,-0.5278437500000001,-0.8505312500000001,0.914875,0.017303039530329693,0.02251963929342557,True
56812,98088,0,98089,2830.0,34716.0,25993.0,-0.001586,0.000305,0.0,0.49000000000000005,-1.9775000000000003,-3.9725000000000006,0.9205,-0.10140625,-0.2905625,0.97759375,0.888625,-0.5263125,-0.8515625,0.90871875,0.017324506078930532,0.022574033322854445,True
56813,98089,0,98090,2826.0,34714.0,25988.0,-0.000732,-0.000122,0.000976,0.525,-1.9775000000000003,-3.9550000000000005,0.92853125,-0.1013125,-0.291875,0.96965625,0.87790625,-0.5205,-0.85090625,0.91690625,0.01709538957199078,0.022495406983397234,True
56814,98090,0,98091,2823.0,34713.0,25987.0,-0.000915,-0.000732,0.0015249999999999999,0.49000000000000005,-1.9425000000000001,-3.9550000000000005,0.92009375,-0.10187500000000001,-0.288375,0.9871875,0.88915625,-0.5279375000000001,-0.8505625,0.912,0.017370498436731587,0.022622727352751074,True
56815,98091,0,98092,2823.0,34714.0,25983.0,-0.001586,-0.002379,0.000183,0.45500000000000007,-1.61,-3.8150000000000004,0.9214375,-0.1005625,-0.290375,0.9761875,0.89015625,-0.531,-0.850875,0.90871875,0.01754667563491093,0.022554537818084877,True
56816,98092,0,98093,2820.0,34712.0,25982.0,-0.0055509999999999995,-0.000732,0.000244,0.4025,-1.2075,-3.7975000000000003,0.93378125,-0.11093750000000001,-0.29315625,0.9871875,0.8826875000000001,-0.528125,-0.84765625,0.91621875,0.017008536119250857,0.02231598805219305,True
56817,98093,0,98094,2818.0,34712.0,25981.0,-0.007259,0.00183,0.001403,0.56,-1.5050000000000001,-3.8325000000000005,0.91521875,-0.10384375,-0.28953125,0.97178125,0.8886875,-0.53090625,-0.85440625,0.9094375,0.017409161147481048,0.02272735845379529,True
56818,98094,0,98095,2819.0,34712.0,25979.0,-0.001769,0.002928,0.0021349999999999997,0.45500000000000007,-2.0125,-3.9200000000000004,0.9028125,-0.099875,-0.286875,0.97246875,0.88184375,-0.528125,-0.851,0.9016875,0.017459548987132117,0.022700293750754497,True
56819,98095,0,98096,2815.0,34713.0,25976.0,0.004331,0.0013419999999999999,0.00061,0.4025,-2.6425,-4.130000000000001,0.9120625,-0.1065625,-0.29353125,0.99503125,0.8824375,-0.5270625,-0.84965625,0.9154375,0.017144327821564446,0.02237958523068101,True
56820,98096,0,98097,2817.0,34712.0,25977.0,0.004148,0.0006709999999999999,0.000732,0.385,-2.9050000000000002,-4.0425,0.9250625,-0.10746875,-0.296,0.99234375,0.88828125,-0.5315625,-0.8522500000000001,0.916,0.017287677863976256,0.02238227927048859,True
56821,98097,0,98098,2815.0,34710.0,25975.0,0.0042699999999999995,0.002928,-0.00061,0.43750000000000006,-3.0275000000000003,-4.0425,0.9258125,-0.104125,-0.290125,0.9639062500000001,0.8896875,-0.5288437500000001,-0.8525,0.914375,0.017315074217471013,0.022628508198370388,True
56822,98098,0,98099,2815.0,34713.0,25978.0,0.0062829999999999995,-0.001281,0.000183,0.28,-2.9925,-3.99,0.91578125,-0.09965625,-0.28596875,0.97259375,0.88796875,-0.527375,-0.84990625,0.91021875,0.01743842339426865,0.022693747587075905,True
56823,98099,0,98100,2815.0,34712.0,25978.0,0.006222,-0.0030499999999999998,-0.000122,0.12250000000000001,-2.7475,-3.9375000000000004,0.926875,-0.11006250000000001,-0.29209375,0.9730625,0.8824062500000001,-0.52665625,-0.85209375,0.90040625,0.016985346300517425,0.0225333127113284,True
56824,98100,0,98101,2814.0,34713.0,25979.0,0.004758,-0.0048189999999999995,-0.000915,0.17500000000000002,-2.2750000000000004,-3.8325000000000005,0.914375,-0.10590625000000001,-0.2946875,0.98284375,0.88296875,-0.5271250000000001,-0.85028125,0.9118125,0.01717358842506001,0.022357644342556486,True
56825,98101,0,98102,2814.0,34713.0,25980.0,-0.00183,-0.003538,-0.0018909999999999999,0.2625,-1.7850000000000001,-3.7100000000000004,0.90725,-0.0961875,-0.289125,0.98140625,0.88715625,-0.526875,-0.8504375000000001,0.910625,0.01755981958565859,0.02258763049946304,True
56826,98102,0,98103,2812.0,34714.0,25980.0,-0.0040869999999999995,-0.0028669999999999998,-0.002196,0.21000000000000002,-1.5925000000000002,-3.7100000000000004,0.91825,-0.1005625,-0.28565625,0.9870625000000001,0.89234375,-0.5280625,-0.85065625,0.9090625,0.017429016254341328,0.022735818093335056,True
56827,98103,0,98104,2815.0,34716.0,25984.0,0.00183,0.00122,-0.0037819999999999998,0.35000000000000003,-1.5925000000000002,-3.7275000000000005,0.93396875,-0.101125,-0.28628125,0.98309375,0.88865625,-0.5298437500000001,-0.8512500000000001,0.90809375,0.01747743501219815,0.02273401740355113,True
56828,98104,0,98105,2815.0,34717.0,25988.0,0.000732,0.0017079999999999999,-0.000488,0.525,-1.5750000000000002,-3.8325000000000005,0.9249375,-0.10015625,-0.29040625000000003,0.98153125,0.88678125,-0.5295625,-0.85071875,0.914625,0.01750566280992578,0.02254713457734497,True
56829,98105,0,98106,2814.0,34719.0,25988.0,-0.000366,0.002806,-0.000549,0.56,-1.4700000000000002,-3.8150000000000004,0.91778125,-0.10059375,-0.29009375,0.979125,0.89065625,-0.52715625,-0.84584375,0.9032187500000001,0.01739143729717953,0.022367926225085433,True
56830,98106,0,98107,2816.0,34718.0,25989.0,-0.002745,0.002928,0.0026839999999999998,0.6475000000000001,-1.3475000000000001,-3.9025000000000003,0.9178125,-0.10515625,-0.29028125,0.9800625000000001,0.89053125,-0.52759375,-0.8503125,0.9149375000000001,0.017222949152931072,0.022536185410143232,True
56831,98107,0,98108,2817.0,34720.0,25991.0,-0.0030499999999999998,0.000244,0.006344,0.56,-1.2075,-3.7800000000000002,0.9215,-0.10162500000000001,-0.283375,0.9783437500000001,0.8908125,-0.5275,-0.85075,0.9150312500000001,0.017363163795739475,0.022831302878182747,True
56832,98108,0,98109,2818.0,34720.0,25991.0,-0.003843,0.00122,0.0034159999999999998,0.56,-1.1375000000000002,-3.6400000000000006,0.9204375,-0.1001875,-0.29053125,0.983375,0.88915625,-0.52778125,-0.850875,0.906,0.01743303830223127,0.02254825031311775,True
56833,98109,0,98110,2818.0,34720.0,25992.0,-0.002013,-6.1e-05,0.000793,0.42000000000000004,-1.2600000000000002,-3.6225000000000005,0.92153125,-0.1013125,-0.2886875,0.97840625,0.89028125,-0.5305,-0.85065625,0.90915625,0.017496076313161163,0.022613839423254668,True
56834,98110,0,98111,2821.0,34722.0,25992.0,0.0,0.000122,-0.00366,0.4025,-1.4875,-3.5875000000000004,0.91953125,-0.1013125,-0.2891875,0.98278125,0.88996875,-0.5301875,-0.8512500000000001,0.90953125,0.017483559797494413,0.02261707157587647,True
56835,98111,0,98112,2818.0,34720.0,25991.0,0.002196,-6.1e-05,-0.004758,0.35000000000000003,-1.5750000000000002,-3.7625,0.92678125,-0.1016875,-0.2888125,0.9846875,0.881875,-0.53034375,-0.85128125,0.90871875,0.017474530906237302,0.022633390381029145,True
56836,98112,0,98113,2820.0,34718.0,25995.0,0.002928,0.000366,-0.00488,0.3325,-1.6800000000000002,-3.7625,0.92671875,-0.1018125,-0.289375,0.9785312500000001,0.87403125,-0.52821875,-0.85378125,0.908875,0.01738431373048644,0.022709069671239663,True
56837,98113,0,98114,2820.0,34719.0,25994.0,0.002928,-0.000244,0.000976,0.43750000000000006,-1.435,-3.8150000000000004,0.92690625,-0.10262500000000001,-0.29009375,0.9784375000000001,0.88209375,-0.52815625,-0.8480625,0.9163125,0.017348684738584867,0.022455221609330712,True
56838,98114,0,98115,2819.0,34722.0,25997.0,-6.1e-05,0.000915,0.00122,0.47250000000000003,-1.3475000000000001,-3.9025000000000003,0.92125,-0.1003125,-0.29,0.985,0.884125,-0.5280625,-0.85065625,0.9094375,0.017439208661507607,0.022561023916621924,True
56839,98115,0,98116,2820.0,34721.0,25996.0,-0.000976,0.00122,0.001769,0.49000000000000005,-1.2600000000000002,-3.9550000000000005,0.92871875,-0.1051875,-0.28834375,0.978625,0.88325,-0.5283125,-0.8530625000000001,0.91771875,0.017250473305083665,0.022722300320131575,True
56840,98116,0,98117,2822.0,34720.0,25997.0,0.000366,-0.000976,0.00183,0.45500000000000007,-1.3825,-3.9550000000000005,0.92290625,-0.1023125,-0.28790625000000003,0.9781875,0.888375,-0.530375,-0.85259375,0.91478125,0.01745030395988647,0.022721471476191493,True
56841,98117,0,98118,2821.0,34720.0,25996.0,0.00061,-0.002013,0.0015249999999999999,0.47250000000000003,-1.2950000000000002,-3.8150000000000004,0.921125,-0.10159375,-0.2884375,0.975125,0.8881875,-0.52690625,-0.8510625,0.89959375,0.017340650127857037,0.022639877067630407,True
56842,98118,0,98119,2823.0,34721.0,25997.0,-0.0028669999999999998,-0.001464,-0.000915,0.3325,-1.05,-3.6575,0.92021875,-0.0974375,-0.28953125,0.9788125,0.89015625,-0.52325,-0.8519375,0.9138437500000001,0.017363624315700404,0.02263027782039127,True
56843,98119,0,98120,2821.0,34723.0,25998.0,-0.004758,-6.1e-05,-0.001586,0.3325,-1.155,-3.6925000000000003,0.9204687500000001,-0.1035625,-0.2929375,0.9849687500000001,0.8894375,-0.53115625,-0.85159375,0.9125625,0.017430639862317947,0.022479695089977884,True
56844,98120,0,98121,2823.0,34722.0,25998.0,-0.00244,0.002745,-0.0018909999999999999,0.35000000000000003,-1.3125000000000002,-3.7800000000000002,0.9244687500000001,-0.10228125,-0.2904375,0.97846875,0.89084375,-0.5305,-0.8463125,0.9156875,0.01745658465991317,0.022372535159895457,True
56845,98121,0,98122,2823.0,34724.0,26001.0,0.000305,0.003172,-0.000366,0.56,-1.5750000000000002,-3.6750000000000003,0.9201875,-0.10253125,-0.283375,0.97821875,0.890125,-0.52434375,-0.852125,0.90953125,0.01719974668027559,0.022885366945482533,True
56846,98122,0,98123,2824.0,34723.0,26002.0,0.000549,0.001952,-0.000183,0.525,-1.6975000000000002,-3.6750000000000003,0.920625,-0.1018125,-0.28184375,0.97871875,0.882,-0.5280312500000001,-0.84959375,0.90925,0.017376802306544682,0.022847456007203337,True
56847,98123,0,98124,2824.0,34724.0,26001.0,0.001464,-0.0013419999999999999,-0.000793,0.28,-2.24,-3.7975000000000003,0.9274375,-0.10265625,-0.2895625,0.9735625,0.88253125,-0.52953125,-0.8526875,0.9128437500000001,0.017402493168311155,0.022658515301413582,True
56848,98124,0,98125,2825.0,34723.0,26000.0,0.0023179999999999997,-0.0040869999999999995,-6.1e-05,0.42000000000000004,-2.555,-3.8675,0.921875,-0.10421875,-0.28965625,0.9821875,0.88246875,-0.52771875,-0.846875,0.9101875,0.01726617971758992,0.022426109923280094,True
56849,98125,0,98126,2826.0,34727.0,26001.0,0.0053679999999999995,-0.004392,-0.000488,0.36750000000000005,-2.8000000000000003,-3.8500000000000005,0.919375,-0.101375,-0.288625,0.9788125,0.887125,-0.5300312500000001,-0.85240625,0.90559375,0.017474753522786483,0.022685177617358478,True
56850,98126,0,98127,2826.0,34724.0,26002.0,0.0042699999999999995,-0.003111,0.000549,0.45500000000000007,-2.7300000000000004,-3.8325000000000005,0.9228125,-0.10340625,-0.2895,0.9786875,0.88253125,-0.52821875,-0.85021875,0.9148437500000001,0.01731933754871621,0.02256393618265433,True
56851,98127,0,98128,2826.0,34724.0,26003.0,0.002013,-0.000793,0.001769,0.35000000000000003,-2.5375,-3.7800000000000002,0.92040625,-0.10140625,-0.2886875,0.9783437500000001,0.88475,-0.5280625,-0.8503125,0.909,0.017394616880155127,0.022600319412482237,True
56852,98128,0,98129,2828.0,34726.0,26005.0,-0.0006709999999999999,0.002379,-0.000183,0.45500000000000007,-1.9600000000000002,-3.6925000000000003,0.91540625,-0.1015625,-0.29075,0.982875,0.88271875,-0.52790625,-0.85028125,0.908,0.017381987098878445,0.02251609325347173,True
56853,98129,0,98130,2829.0,34726.0,26004.0,-0.0017079999999999999,0.004941,-0.001098,0.49000000000000005,-1.6975000000000002,-3.6750000000000003,0.92509375,-0.10253125,-0.29,0.9785625,0.88015625,-0.5256875,-0.84809375,0.91815625,0.017253593808532378,0.022460223935689232,True
56854,98130,0,98131,2829.0,34726.0,26007.0,-0.003538,0.005063,-0.001098,0.6125,-1.4000000000000001,-3.7975000000000003,0.92125,-0.1011875,-0.2890625,0.9791875,0.8817812500000001,-0.532125,-0.85553125,0.91634375,0.017566252413926637,0.0227904503147564,True
56855,98131,0,98132,2831.0,34727.0,26010.0,-0.00366,0.0046359999999999995,-0.0017079999999999999,0.5775,-1.4875,-3.8850000000000002,0.9203125,-0.10025,-0.28846875,0.978125,0.8954062500000001,-0.5298125,-0.84603125,0.9071875,0.017511854197825607,0.022440706702403425,True
56856,98132,0,98133,2831.0,34729.0,26010.0,-0.003538,0.0021349999999999997,-0.0013419999999999999,0.5425000000000001,-1.5225000000000002,-3.8325000000000005,0.92409375,-0.10553125000000001,-0.29225,0.9809687500000001,0.88015625,-0.52596875,-0.84896875,0.91590625,0.017142544063626437,0.02240409876164378,True
56857,98133,0,98134,2833.0,34726.0,26011.0,0.000549,-0.00183,0.002013,0.5075000000000001,-1.9075000000000002,-4.0600000000000005,0.90328125,-0.10209375,-0.28840625000000003,0.98,0.8863125000000001,-0.5319375000000001,-0.854875,0.91315625,0.01752180193676101,0.022791052057192004,True
56858,98134,0,98135,2834.0,34727.0,26011.0,0.0008539999999999999,-0.0008539999999999999,0.0050019999999999995,0.47250000000000003,-1.8375000000000001,-4.0075,0.9219375,-0.1144375,-0.29346875,0.9687187500000001,0.8795937500000001,-0.52571875,-0.8516875,0.91178125,0.016769386218293807,0.022462005849703363,True
56859,98135,0,98136,2834.0,34730.0,26012.0,0.000488,-0.0015249999999999999,0.004575,0.45500000000000007,-1.715,-3.8675,0.91715625,-0.11328125,-0.28778125,0.96678125,0.879625,-0.53134375,-0.85296875,0.9073125,0.01704197308800094,0.022741246958675715,True
56860,98136,0,98137,2834.0,34729.0,26014.0,0.0021349999999999997,0.000549,0.0025009999999999998,0.49000000000000005,-1.6450000000000002,-3.8850000000000002,0.93578125,-0.108125,-0.2888125,0.967375,0.88046875,-0.52725,-0.85378125,0.9080312500000001,0.017088136664322334,0.02273170204232002,True
56861,98137,0,98138,2836.0,34729.0,26014.0,0.002806,0.002013,-0.001464,0.36750000000000005,-1.7325000000000002,-3.8675,0.92484375,-0.112125,-0.28753125,0.96565625,0.87946875,-0.527,-0.8531875,0.90571875,0.016915032413258858,0.02275990755712924,True
56862,98138,0,98139,2836.0,34728.0,26010.0,0.00183,-0.0008539999999999999,-0.0044529999999999995,0.31500000000000006,-1.4525000000000001,-4.0600000000000005,0.92953125,-0.11109375,-0.2889375,0.96746875,0.87965625,-0.5256875,-0.8551875,0.9168125,0.016904470058178796,0.022781964529537343,True
56863,98139,0,98140,2835.0,34723.0,26008.0,-0.000549,-0.004575,-0.004514,0.22750000000000004,-1.3125000000000002,-3.9200000000000004,0.8975,-0.10871875,-0.2979375,0.971375,0.87565625,-0.52540625,-0.852,0.91840625,0.0169900345687444,0.022294483341380972,True
56864,98140,0,98141,2836.0,34719.0,26000.0,-0.000366,-0.004941,-0.0025009999999999998,0.17500000000000002,-1.12,-4.025,0.90865625,-0.10609375,-0.29596875,0.99046875,0.87921875,-0.5269375000000001,-0.84809375,0.91678125,0.017158430399229423,0.022220014362268736,True
56865,98141,0,98142,2833.0,34717.0,25995.0,-0.0008539999999999999,-0.004758,0.000793,0.22750000000000004,-1.1375000000000002,-4.0600000000000005,0.9265,-0.10184375,-0.28509375,0.96809375,0.89271875,-0.529625,-0.85321875,0.8986875,0.01743937178004148,0.022859212149331763,True
56866,98142,0,98143,2833.0,34715.0,25991.0,-0.000915,-0.003965,0.0017079999999999999,0.3325,-1.12,-4.0600000000000005,0.9055625,-0.09675,-0.2829375,0.97346875,0.88021875,-0.52675,-0.8488125,0.9076875,0.017531878459233288,0.022772718012178644,True
56867,98143,0,98144,2829.0,34711.0,25985.0,-0.000732,-0.002745,0.0032329999999999998,0.42000000000000004,-1.12,-3.8500000000000005,0.9328125,-0.10659375,-0.292875,0.99071875,0.88103125,-0.5265,-0.847875,0.91640625,0.017120512506880313,0.02233591403691463,True
56868,98144,0,98145,2829.0,34708.0,25983.0,-0.0015249999999999999,-0.00042699999999999997,0.003172,0.49000000000000005,-1.1900000000000002,-3.8325000000000005,0.9194375,-0.0989375,-0.28309375000000003,0.99465625,0.8874062500000001,-0.5294375,-0.8499375,0.90890625,0.017550341299102355,0.022810671052995606,True
56869,98145,0,98146,2825.0,34705.0,25979.0,-0.0013419999999999999,0.003843,0.002013,0.5950000000000001,-1.2775,-3.99,0.9379375,-0.10596875,-0.2889375,0.968,0.88825,-0.5291875,-0.8518125,0.9128125,0.01725367992722955,0.02264925344982383,True
56870,98146,0,98147,2825.0,34706.0,25973.0,-0.002989,0.003477,0.0006709999999999999,0.5775,-1.2950000000000002,-4.077500000000001,0.90821875,-0.097625,-0.285125,0.97559375,0.8859375,-0.5240625,-0.84971875,0.90953125,0.017388534220217387,0.022720327569099752,True
56871,98147,0,98148,2822.0,34704.0,25972.0,-0.003172,0.0040869999999999995,-0.000305,0.56,-1.5750000000000002,-4.0600000000000005,0.9248125,-0.10421875,-0.28840625000000003,0.97640625,0.88296875,-0.5270312500000001,-0.8515312500000001,0.916,0.0172386333955521,0.022659569518477862,True
56872,98148,0,98149,2821.0,34702.0,25969.0,-0.0013419999999999999,0.002745,6.1e-05,0.45500000000000007,-1.715,-3.9375000000000004,0.90959375,-0.100625,-0.28553125,0.975,0.8891875,-0.5309375000000001,-0.85159375,0.90953125,0.017541624734073048,0.0227777142059551,True
56873,98149,0,98150,2819.0,34703.0,25969.0,0.0023179999999999997,0.002623,0.0,0.31500000000000006,-1.9075000000000002,-3.8850000000000002,0.92759375,-0.104125,-0.28934375,0.9786875,0.88,-0.52675,-0.84896875,0.9175625000000001,0.01723118635775225,0.02252105532548509,True
56874,98150,0,98151,2818.0,34705.0,25966.0,0.0044529999999999995,0.0006709999999999999,0.001037,0.5075000000000001,-2.0825,-3.9375000000000004,0.920625,-0.101125,-0.2883125,0.98471875,0.8914062500000001,-0.5299375000000001,-0.8502500000000001,0.90928125,0.017481190076411735,0.022612951579963986,True
56875,98151,0,98152,2816.0,34703.0,25969.0,0.006954,-0.000366,0.000244,0.3325,-2.0475000000000003,-3.9375000000000004,0.92878125,-0.1048125,-0.28925,0.9795312500000001,0.88215625,-0.52721875,-0.8493125,0.91059375,0.017221938382230965,0.022538349904046642,True
56876,98152,0,98153,2816.0,34704.0,25969.0,0.002379,-0.001586,-0.0013419999999999999,0.12250000000000001,-1.4525000000000001,-4.0600000000000005,0.92121875,-0.10153125,-0.28896875,0.97978125,0.887625,-0.529625,-0.84978125,0.91590625,0.017452111477448188,0.02256810610757389,True
56877,98153,0,98154,2815.0,34703.0,25968.0,-0.0017079999999999999,-0.001464,-0.002013,0.17500000000000002,-1.0850000000000002,-3.8150000000000004,0.92240625,-0.09996875000000001,-0.28990625000000003,0.98003125,0.8860625,-0.52775,-0.8499375,0.90971875,0.017440704915860607,0.02253652549427941,True
56878,98154,0,98155,2814.0,34706.0,25969.0,-0.002623,-0.002013,-0.003111,0.24500000000000002,-0.9275000000000001,-3.8500000000000005,0.9281875,-0.1051875,-0.2888125,0.9789375,0.8751875,-0.5270625,-0.8490625,0.91609375,0.01720038834654578,0.022546122212860144,True
56879,98155,0,98156,2814.0,34707.0,25971.0,-0.004026,-0.001952,-0.002257,0.24500000000000002,-0.8225000000000001,-3.7975000000000003,0.9179375000000001,-0.10103125,-0.28800000000000003,0.98478125,0.88909375,-0.52675,-0.8466250000000001,0.90953125,0.017357324146085398,0.022482932792683114,True
56880,98156,0,98157,2813.0,34709.0,25969.0,-0.002806,-0.003904,-0.000915,0.24500000000000002,-0.8925000000000001,-3.8150000000000004,0.92978125,-0.0969375,-0.288875,0.97440625,0.883375,-0.5273125,-0.852125,0.9103125,0.01754676546808787,0.022664057902493248,True
56881,98157,0,98158,2815.0,34710.0,25973.0,0.00122,-0.000122,0.003538,0.49000000000000005,-1.05,-3.7100000000000004,0.924875,-0.10446875,-0.28821875,0.97959375,0.87690625,-0.5269375000000001,-0.8492500000000001,0.916,0.01722468408459067,0.02257739167178084,True
56882,98158,0,98159,2814.0,34711.0,25975.0,0.002989,0.0025009999999999998,0.002257,0.56,-0.9100000000000001,-3.7625,0.9207500000000001,-0.10071875,-0.2876875,0.98184375,0.88934375,-0.5308125,-0.84284375,0.90940625,0.01753279676325438,0.022346727113316082,True
56883,98159,0,98160,2815.0,34713.0,25977.0,0.0015249999999999999,0.004392,0.001952,0.6125,-0.8225000000000001,-3.7800000000000002,0.92290625,-0.1011875,-0.28450000000000003,0.9852500000000001,0.8828125,-0.52825,-0.851375,0.910375,0.017411046446444405,0.02281060907092666,True
56884,98160,0,98161,2817.0,34711.0,25976.0,0.000549,0.00366,-0.0015249999999999999,0.56,-0.7525000000000001,-3.8500000000000005,0.92703125,-0.10162500000000001,-0.28834375,0.9795625,0.87225,-0.520375,-0.85059375,0.91696875,0.01707763441627626,0.022625213934777715,True
56885,98161,0,98162,2815.0,34711.0,25979.0,-0.0006709999999999999,0.000366,-0.001952,0.4025,-0.5950000000000001,-3.8500000000000005,0.9243750000000001,-0.10290625,-0.29196875,0.98040625,0.873125,-0.52790625,-0.84909375,0.91228125,0.01732720256136824,0.022420334745608176,True
56886,98162,0,98163,2818.0,34712.0,25977.0,-0.002623,-0.001037,-0.001098,0.5075000000000001,-0.2625,-3.6925000000000003,0.91425,-0.1015,-0.28859375,0.9811562500000001,0.8796875000000001,-0.528875,-0.85071875,0.9101250000000001,0.017423342896891927,0.022620070093546087,True
56887,98163,0,98164,2817.0,34714.0,25981.0,-0.003721,-0.000915,0.000732,0.4025,-0.24500000000000002,-3.8150000000000004,0.92753125,-0.1035625,-0.2889375,0.979375,0.88315625,-0.52721875,-0.8419375,0.9050312500000001,0.017272902171184816,0.022260743551101837,True
56888,98164,0,98165,2817.0,34714.0,25981.0,-0.0032329999999999998,-0.0013419999999999999,0.002379,0.4025,-0.1925,-3.8500000000000005,0.921,-0.1040625,-0.29121875,0.97965625,0.891,-0.52759375,-0.84940625,0.90821875,0.017267541786482824,0.02246281035386912,True
56889,98165,0,98166,2817.0,34714.0,25981.0,-0.0030499999999999998,-0.00061,0.002562,0.45500000000000007,-0.24500000000000002,-3.8150000000000004,0.92121875,-0.1006875,-0.288125,0.9793437500000001,0.88890625,-0.5299375000000001,-0.8492500000000001,0.90815625,0.017499025425564176,0.022581164421461415,True
56890,98166,0,98167,2820.0,34713.0,25982.0,-0.003965,0.0006709999999999999,0.002806,0.5075000000000001,-0.35000000000000003,-3.9375000000000004,0.9144375,-0.1013125,-0.28715625,0.979375,0.8820625,-0.5275,-0.8508125,0.91290625,0.01737590459688105,0.022681602462696137,True
56891,98167,0,98168,2819.0,34716.0,25982.0,0.003477,0.002623,-6.1e-05,0.45500000000000007,-0.7350000000000001,-3.8850000000000002,0.92871875,-0.10434375,-0.28834375,0.97878125,0.88275,-0.5276875,-0.84540625,0.9120625,0.017259831364045224,0.022421146766316208,True
56892,98168,0,98169,2819.0,34715.0,25981.0,0.0048189999999999995,0.002013,-0.0008539999999999999,0.385,-0.8400000000000001,-4.025,0.92759375,-0.10312500000000001,-0.2883125,0.97909375,0.883125,-0.52621875,-0.85075,0.9136875,0.017250671793832873,0.022632616721829316,True
56893,98169,0,98170,2820.0,34712.0,25982.0,0.00488,-0.001586,-0.003843,0.2625,-0.7000000000000001,-4.0075,0.9218125,-0.100875,-0.289625,0.9855,0.8836875000000001,-0.52734375,-0.84759375,0.91015625,0.017387482083134256,0.022455645227216416,True
56894,98170,0,98171,2819.0,34714.0,25982.0,0.000488,-0.00122,-0.005978,0.1925,-0.42000000000000004,-4.0425,0.922125,-0.10075,-0.2868125,0.98128125,0.8846875000000001,-0.5289375000000001,-0.851625,0.9073125,0.017456422643663226,0.022727387042094833,True
56895,98171,0,98172,2819.0,34714.0,25982.0,-0.0032329999999999998,-0.002623,-0.0042699999999999995,0.2625,-0.35000000000000003,-3.9725000000000006,0.926125,-0.09990625,-0.28790625000000003,0.9864375,0.8833125000000001,-0.52940625,-0.85240625,0.9100625,0.01750959626264904,0.022714098358182118,True
56896,98172,0,98173,2820.0,34714.0,25984.0,-0.0025009999999999998,-0.002013,0.004209,0.35000000000000003,-0.385,-4.025,0.92303125,-0.10165625,-0.287375,0.9841875,0.88275,-0.5289375000000001,-0.85278125,0.9098125,0.017419476485681453,0.022750220360145814,True
56897,98173,0,98174,2819.0,34716.0,25983.0,-0.000915,-0.001098,0.005307,0.4025,-0.6300000000000001,-3.9550000000000005,0.9304687500000001,-0.101,-0.2879375,0.9836875,0.8805937500000001,-0.52634375,-0.8542500000000001,0.91234375,0.01734232196757823,0.022785338523592543,True
56898,98174,0,98175,2819.0,34715.0,25984.0,-0.002196,0.000915,0.0032329999999999998,0.47250000000000003,-0.8400000000000001,-3.9550000000000005,0.9283125,-0.1014375,-0.28746875,0.97884375,0.8767812500000001,-0.52359375,-0.84865625,0.92459375,0.017214289810195536,0.02258421921708543,True
56899,98175,0,98176,2820.0,34720.0,25985.0,-0.002562,0.003172,0.002196,0.5775,-0.9975,-3.9025000000000003,0.92734375,-0.10300000000000001,-0.28800000000000003,0.97496875,0.88471875,-0.524875,-0.8443125,0.91025,0.017201922537831486,0.022391945842735635,True
56900,98176,0,98177,2821.0,34717.0,25986.0,-0.0017079999999999999,0.003538,0.001464,0.49000000000000005,-1.1375000000000002,-3.8675,0.9208437500000001,-0.09878125,-0.28750000000000003,0.98,0.9019375000000001,-0.52659375,-0.8451875,0.9194687500000001,0.01744280124507709,0.02244649995094623,True
56901,98177,0,98178,2822.0,34718.0,25987.0,-0.0015249999999999999,0.0015249999999999999,-0.002074,0.35000000000000003,-1.7325000000000002,-3.7975000000000003,0.9204375,-0.10334375,-0.2888125,0.9800625000000001,0.8980625,-0.52871875,-0.8451875,0.90425,0.01734191680925038,0.02239367281893123,True
56902,98178,0,98179,2821.0,34719.0,25988.0,0.0015249999999999999,0.0006709999999999999,-0.0023179999999999997,0.4025,-2.205,-3.8150000000000004,0.920875,-0.10096875,-0.28771875,0.97940625,0.8884062500000001,-0.53034375,-0.85265625,0.9253125,0.017503831351731464,0.022731473622663572,True
56903,98179,0,98180,2822.0,34721.0,25989.0,0.0032329999999999998,-0.0006709999999999999,-0.002257,0.28,-2.3975000000000004,-3.8325000000000005,0.91234375,-0.10003125,-0.28709375,0.9843125,0.9025625,-0.53521875,-0.85503125,0.89959375,0.017737257793961996,0.02285000144588432,True
56904,98180,0,98181,2823.0,34722.0,25989.0,0.0050019999999999995,-0.000732,-0.00042699999999999997,0.35000000000000003,-2.3800000000000003,-3.7625,0.92796875,-0.1025625,-0.289375,0.97809375,0.8780625,-0.5263125,-0.84478125,0.90440625,0.017277362832264328,0.022355046897424388,True
56905,98181,0,98182,2823.0,34721.0,25991.0,0.004148,-0.002562,-0.000793,0.36750000000000005,-2.31,-3.7975000000000003,0.92096875,-0.10034375,-0.2873125,0.98478125,0.89746875,-0.5340625,-0.8496875,0.9050625,0.017678227973862867,0.022631069304191453,True
56906,98182,0,98183,2826.0,34723.0,25993.0,0.001403,0.001952,-0.002379,0.5075000000000001,-2.3625000000000003,-3.9200000000000004,0.92759375,-0.1051875,-0.2881875,0.97928125,0.87709375,-0.524625,-0.84359375,0.91725,0.01710270799247695,0.02235611544726697,True
56907,98183,0,98184,2827.0,34723.0,25993.0,0.0018909999999999999,0.001586,0.001098,0.5950000000000001,-2.2225,-3.9375000000000004,0.9196562500000001,-0.0993125,-0.2895,0.987125,0.9005,-0.5226875,-0.84715625,0.903625,0.017264624849947622,0.022443463726357017,True
56908,98184,0,98185,2827.0,34724.0,25996.0,0.000793,-0.001952,0.002989,0.45500000000000007,-1.995,-3.8500000000000005,0.9273750000000001,-0.1020625,-0.28821875,0.9790625000000001,0.87665625,-0.527,-0.84965625,0.9148437500000001,0.017325294573327352,0.022593370884154588,True
56909,98185,0,98186,2826.0,34724.0,25995.0,-0.000366,-0.003355,0.003111,0.35000000000000003,-1.9425000000000001,-3.7975000000000003,0.9217500000000001,-0.10096875,-0.28746875,0.97965625,0.8894375,-0.5288437500000001,-0.848,0.913875,0.017443749259481507,0.0225584051030264,True
56910,98186,0,98187,2826.0,34724.0,25993.0,-0.003538,-0.002562,0.002562,0.4025,-1.8375000000000001,-3.8675,0.9215625000000001,-0.09803125,-0.28334375,0.9834375000000001,0.89203125,-0.52909375,-0.848625,0.91021875,0.017573519201050793,0.022748995165728484,True
56911,98187,0,98188,2829.0,34725.0,25997.0,-0.002623,0.001037,-0.00061,0.47250000000000003,-1.8900000000000001,-3.7275000000000005,0.92853125,-0.1018125,-0.28796875,0.97959375,0.8828125,-0.52675,-0.8514375000000001,0.9163125,0.017325471169233594,0.02267348719767217,True
56912,98188,0,98189,2830.0,34726.0,26000.0,-0.00183,0.001769,-0.002379,0.385,-2.0125,-3.7450000000000006,0.921125,-0.1001875,-0.29034375,0.98484375,0.8864062500000001,-0.52709375,-0.844125,0.90996875,0.017405496727471027,0.022290229581440283,True
56913,98189,0,98190,2831.0,34724.0,26000.0,0.001647,0.002074,0.000183,0.45500000000000007,-2.24,-3.7800000000000002,0.9262812500000001,-0.10065625,-0.286625,0.9801875,0.88225,-0.53065625,-0.85021875,0.91771875,0.017529086691270238,0.022679629329218683,True
56914,98190,0,98191,2831.0,34725.0,25999.0,0.004026,0.001281,-0.000915,0.43750000000000006,-2.3275,-3.7275000000000005,0.920875,-0.0965,-0.2901875,0.9859375,0.88471875,-0.5236875,-0.84871875,0.910375,0.017419382790618252,0.02247726555317867,True
56915,98191,0,98192,2833.0,34725.0,25997.0,0.003721,0.0023179999999999997,-0.000244,0.5950000000000001,-2.205,-3.8850000000000002,0.9217500000000001,-0.10128125,-0.2876875,0.9792500000000001,0.88603125,-0.52946875,-0.84971875,0.91759375,0.01745604457903313,0.022617207689724857,True
56916,98192,0,98193,2832.0,34721.0,25997.0,0.002562,-0.0021349999999999997,6.1e-05,0.35000000000000003,-1.8200000000000003,-3.8850000000000002,0.9217500000000001,-0.1009375,-0.28871875,0.9866875,0.88675,-0.52659375,-0.8429375,0.90428125,0.017354886468896644,0.022308905700060628,True
56917,98193,0,98194,2831.0,34718.0,25992.0,0.0023179999999999997,-0.004026,0.000366,0.36750000000000005,-1.4525000000000001,-3.8850000000000002,0.92653125,-0.10078125,-0.287625,0.98059375,0.88365625,-0.528125,-0.85059375,0.90375,0.01742260160530004,0.022654136784961122,True
56918,98194,0,98195,2830.0,34716.0,25984.0,-0.001647,-0.003477,-0.001769,0.29750000000000004,-1.2075,-3.8850000000000002,0.9226875,-0.1046875,-0.29109375,0.9775312500000001,0.883375,-0.526625,-0.84840625,0.90028125,0.01720324341404494,0.022428500821858547,True
56919,98195,0,98196,2830.0,34713.0,25977.0,-0.0035989999999999998,-0.000122,0.0006709999999999999,0.385,-1.1025,-3.9025000000000003,0.92203125,-0.1005,-0.28796875,0.9765625,0.8718750000000001,-0.52815625,-0.85071875,0.91215625,0.017435319868365565,0.022645220271546473,True
56920,98196,0,98197,2826.0,34708.0,25971.0,-0.0006709999999999999,-6.1e-05,0.0006709999999999999,0.385,-1.12,-3.8150000000000004,0.9303750000000001,-0.1058125,-0.28959375,0.979125,0.88303125,-0.526375,-0.85071875,0.91834375,0.017147356672153957,0.022579829808745473,True
56921,98197,0,98198,2826.0,34704.0,25965.0,-0.0032329999999999998,0.0006709999999999999,-0.000305,0.47250000000000003,-0.9625000000000001,-3.7975000000000003,0.92078125,-0.10571875,-0.290625,0.9888125,0.8824375,-0.52690625,-0.8470625,0.9067500000000001,0.017172467481503095,0.022394498343617078,True
56922,98198,0,98199,2823.0,34704.0,25960.0,-0.003111,0.0023179999999999997,0.002379,0.525,-0.9975,-3.7975000000000003,0.92225,-0.10115625,-0.2866875,0.97721875,0.88984375,-0.52959375,-0.8528125,0.9103125,0.01746614739593883,0.0227791120220297,True
56923,98199,0,98200,2821.0,34700.0,25956.0,-0.000549,0.000793,0.003172,0.47250000000000003,-1.0850000000000002,-3.7625,0.9266875,-0.10671875,-0.2881875,0.9725625,0.882875,-0.52659375,-0.8499375,0.9165,0.017119172938557765,0.0226056906581757,True
56924,98200,0,98201,2820.0,34701.0,25953.0,0.0011589999999999999,0.001037,0.000183,0.45500000000000007,-1.3125000000000002,-3.7625,0.91178125,-0.10325000000000001,-0.29090625000000003,0.9762500000000001,0.8870625,-0.525625,-0.84928125,0.9178437500000001,0.017221783338854768,0.0224704688390132,True
56925,98201,0,98202,2819.0,34698.0,25952.0,-0.0008539999999999999,-0.0006709999999999999,-0.00122,0.28,-1.3825,-3.8325000000000005,0.91896875,-0.10525,-0.29459375,0.97709375,0.884,-0.5275,-0.8491875,0.9159375000000001,0.017215370502497194,0.02231838566150302,True
56926,98202,0,98203,2817.0,34698.0,25948.0,0.000976,-0.000244,-0.0021349999999999997,0.29750000000000004,-1.4700000000000002,-3.9725000000000006,0.9185625000000001,-0.10271875,-0.29231250000000003,0.9765625,0.8906875,-0.5276875,-0.84971875,0.9139375000000001,0.01732608302352189,0.02243108888304822,True
56927,98203,0,98204,2816.0,34697.0,25948.0,0.00183,-0.00183,6.1e-05,0.3325,-1.2775,-3.9025000000000003,0.91825,-0.10021875,-0.29331250000000003,0.9902500000000001,0.8921875,-0.52721875,-0.849875,0.90034375,0.017409230306636374,0.022396993948661716,True
56928,98204,0,98205,2812.0,34697.0,25947.0,0.000915,-0.001403,0.002379,0.31500000000000006,-1.0850000000000002,-3.8675,0.92259375,-0.10115625,-0.2889375,0.9761875,0.8779375,-0.52278125,-0.85109375,0.909875,0.017193196632213158,0.022620986249347674,True
56929,98205,0,98206,2811.0,34696.0,25945.0,-0.000244,-0.0011589999999999999,0.0011589999999999999,0.3325,-0.9975,-3.8150000000000004,0.91446875,-0.10584375,-0.295375,0.96859375,0.8831875,-0.52775,-0.84975,0.91334375,0.017201180295787426,0.022309077556112236,True
56930,98206,0,98207,2811.0,34697.0,25945.0,-6.1e-05,0.0035989999999999998,0.00061,0.31500000000000006,-0.9450000000000001,-3.8150000000000004,0.9183125,-0.10225000000000001,-0.29428125,0.97821875,0.88628125,-0.52925,-0.850375,0.9135,0.017407788660476778,0.022377680417297527,True
56931,98207,0,98208,2810.0,34697.0,25946.0,0.000549,0.002196,-0.00042699999999999997,0.4025,-1.0150000000000001,-3.9725000000000006,0.917375,-0.10065625,-0.2899375,0.98790625,0.8874375,-0.528,-0.84971875,0.909,0.017422690394651014,0.02252666340539568,True
56932,98208,0,98209,2809.0,34697.0,25946.0,-0.001037,-0.00042699999999999997,-0.001403,0.28,-0.9450000000000001,-3.99,0.91725,-0.09728125,-0.28853125,0.977125,0.8870625,-0.52971875,-0.8508125,0.9086875,0.017629125894482588,0.022626272279829884,True
56933,98209,0,98210,2807.0,34697.0,25946.0,-0.003172,-0.00122,-0.000549,0.14,-1.0325000000000002,-3.9550000000000005,0.9270625,-0.10359375,-0.29325,0.97859375,0.88334375,-0.5268125,-0.84990625,0.91171875,0.01725535064941684,0.02240073843336934,True
56934,98210,0,98211,2808.0,34701.0,25949.0,-0.003355,-0.001586,-0.0015249999999999999,0.22750000000000004,-1.225,-3.9025000000000003,0.9156562500000001,-0.10096875,-0.2909375,0.98603125,0.889125,-0.527,-0.8499375,0.90965625,0.01736988828637828,0.02249502639594164,True
56935,98211,0,98212,2809.0,34702.0,25953.0,0.0017079999999999999,6.1e-05,-0.001098,0.1925,-1.8025000000000002,-3.9375000000000004,0.92696875,-0.10221875,-0.2891875,0.97859375,0.88315625,-0.530125,-0.85196875,0.91325,0.01744411208666894,0.022645338711847526,True
56936,98212,0,98213,2807.0,34699.0,25951.0,0.0018909999999999999,0.001037,-0.0008539999999999999,0.3325,-2.1525000000000003,-3.7625,0.921,-0.09581250000000001,-0.28825,0.98346875,0.8827812500000001,-0.52571875,-0.851,0.909375,0.01752879311640969,0.022644963985352703,True
56937,98213,0,98214,2808.0,34701.0,25956.0,-0.000183,0.001586,-0.000122,0.49000000000000005,-2.3625000000000003,-3.7100000000000004,0.92803125,-0.10521875,-0.28978125,0.978375,0.88365625,-0.52640625,-0.84146875,0.92721875,0.01717281756270346,0.022208328563503316,True
56938,98214,0,98215,2808.0,34702.0,25953.0,0.000549,-0.000549,0.001586,0.49000000000000005,-2.5025000000000004,-3.6750000000000003,0.92915625,-0.1060625,-0.2888125,0.9791875,0.88375,-0.51925,-0.84746875,0.913625,0.016851555410544776,0.022483427009038895,True
56939,98215,0,98216,2807.0,34702.0,25957.0,0.0006709999999999999,0.000366,0.0018909999999999999,0.49000000000000005,-2.7475,-3.7450000000000006,0.92515625,-0.10503125,-0.2899375,0.979,0.9068125,-0.5261875,-0.845125,0.92,0.017171696579421487,0.02234593305527744,True
56940,98216,0,98217,2809.0,34702.0,25956.0,0.0032329999999999998,6.1e-05,0.001769,0.5775,-2.9400000000000004,-3.6925000000000003,0.9240625,-0.097125,-0.2901875,0.9798125,0.90253125,-0.5249375000000001,-0.84575,0.9255625000000001,0.01744397921503368,0.02236046406327038,True
56941,98217,0,98218,2810.0,34703.0,25958.0,0.0044529999999999995,-0.000915,-0.00122,0.36750000000000005,-2.6775,-3.6400000000000006,0.92603125,-0.10478125,-0.29009375,0.9788125,0.9018125,-0.52609375,-0.842875,0.924875,0.017178132983365933,0.022251098151884596,True
56942,98218,0,98219,2810.0,34702.0,25958.0,0.003721,-0.0017079999999999999,-0.002562,0.36750000000000005,-2.2225,-3.7275000000000005,0.92584375,-0.105875,-0.28953125,0.98303125,0.9106562500000001,-0.52634375,-0.8481562500000001,0.93203125,0.017143556099754983,0.022481547297900625,True
56943,98219,0,98220,2808.0,34702.0,25959.0,-0.000183,0.000244,-0.001647,0.385,-1.9775000000000003,-3.7450000000000006,0.9206875,-0.10196875,-0.29146875,0.9813437500000001,0.8698125,-0.52909375,-0.85365625,0.888375,0.017412995537187347,0.022619911305806366,True
56944,98220,0,98221,2809.0,34703.0,25957.0,-0.000732,0.0006709999999999999,-0.001098,0.43750000000000006,-2.0300000000000002,-3.7450000000000006,0.92134375,-0.10340625,-0.29234375,0.9779375,0.89146875,-0.539875,-0.8456250000000001,0.90496875,0.017786103229947177,0.022268759590471164,True
56945,98221,0,98222,2810.0,34703.0,25956.0,0.0023179999999999997,-6.1e-05,-0.000488,0.43750000000000006,-1.8725000000000003,-3.8150000000000004,0.92090625,-0.10275000000000001,-0.2920625,0.97846875,0.89628125,-0.5309375000000001,-0.8437187500000001,0.91246875,0.01745499942674429,0.02220505937743318,True
56946,98222,0,98223,2810.0,34702.0,25956.0,0.002074,0.000366,0.001037,0.5425000000000001,-1.715,-3.7450000000000006,0.92121875,-0.10387500000000001,-0.290625,0.978375,0.907,-0.52609375,-0.843875,0.92978125,0.01721508342517854,0.022269070344300156,True
56947,98223,0,98224,2811.0,34705.0,25958.0,-0.000915,0.000183,0.000244,0.43750000000000006,-1.4000000000000001,-3.7800000000000002,0.92571875,-0.1045,-0.2896875,0.9824375000000001,0.8982187500000001,-0.52609375,-0.8453125,0.93125,0.0171896003618595,0.022363373372743856,True
56948,98224,0,98225,2810.0,34702.0,25958.0,-0.004514,0.00061,0.000793,0.45500000000000007,-1.12,-3.8325000000000005,0.9272812500000001,-0.10234375,-0.2895625,0.9826875,0.86784375,-0.5259375000000001,-0.8553125,0.91021875,0.017271256195609243,0.022761733532821203,True
