frame_seq,absolute_seq_u64,segment_id,sample_seq,PPG_G,PPG_R,PPG_IR,ACC_X,ACC_Y,ACC_Z,GYRO_X,GYRO_Y,GYRO_Z,Uh1,Uh2,Uh3,Uh4,Uc1,Uc2,Uc3,Uc4,UD1,UD2,parser_valid
23907,152,0,153,3602.0,37949.0,28601.0,6.1e-05,-0.002623,0.0034159999999999998,0.35000000000000003,-0.525,-3.7625,0.89378125,0.061125,0.10312500000000001,1.12715625,0.8636875,-0.4053125,-0.3885,1.11221875,0.019112129787315774,0.020158066301740576,True
23908,153,0,154,3601.0,37949.0,28600.0,0.0013419999999999999,-0.0028669999999999998,0.003721,0.43750000000000006,-0.525,-3.7100000000000004,0.89628125,0.059312500000000004,0.09940625,1.13434375,0.861125,-0.4055625,-0.382625,1.1124375,0.019047911720944763,0.0197694567340473,True
23909,154,0,155,3603.0,37950.0,28601.0,0.001464,-0.001464,0.002074,0.35000000000000003,-0.42000000000000004,-3.8675,0.9060312500000001,0.058,0.1005,1.14165625,0.86134375,-0.40565625,-0.38809375,1.11259375,0.018997901357395378,0.020034109881999287,True
23910,155,0,156,3602.0,37950.0,28598.0,0.00042699999999999997,-0.002013,0.000122,0.43750000000000006,-0.12250000000000001,-3.7800000000000002,0.8985,0.056125,0.10121875,1.12784375,0.8623125,-0.40800000000000003,-0.38971875,1.11671875,0.019015281874795148,0.02012887089975156,True
23911,156,0,157,3602.0,37947.0,28596.0,-0.0017079999999999999,-0.003965,-0.002623,0.47250000000000003,-0.12250000000000001,-3.8500000000000005,0.89290625,0.060875,0.09840625,1.13565625,0.86034375,-0.4053125,-0.387,1.11225,0.01910188611598397,0.019904303522368477,True
23912,157,0,158,3600.0,37945.0,28592.0,-0.001647,-0.0015249999999999999,-0.003355,0.56,-0.12250000000000001,-4.0075,0.9050625,0.059312500000000004,0.100125,1.13521875,0.86190625,-0.406375,-0.38946875000000003,1.117875,0.01908056808927995,0.02007398172623174,True
23913,158,0,159,3601.0,37947.0,28591.0,0.0017079999999999999,0.001403,-0.001464,0.8575,0.17500000000000002,-3.99,0.8921875,0.0608125,0.10303125,1.13803125,0.86671875,-0.40700000000000003,-0.38778125,1.11271875,0.019167144671610604,0.020125344530880603,True
23914,159,0,160,3598.0,37946.0,28588.0,0.000488,0.0021349999999999997,0.000183,0.8400000000000001,0.56,-3.9550000000000005,0.8983125000000001,0.06134375,0.10671875,1.13396875,0.863125,-0.40721875,-0.38825,1.1115,0.019197701499684392,0.02029537789714309,True
23915,160,0,161,3598.0,37949.0,28589.0,-0.000488,0.000793,0.002379,0.8225000000000001,0.9100000000000001,-3.99,0.88903125,0.06134375,0.101375,1.13553125,0.8623125,-0.40718750000000004,-0.38765625000000004,1.11040625,0.019196445719114507,0.02005240868523395,True
23916,161,0,162,3597.0,37947.0,28588.0,-0.001098,0.001098,0.0035989999999999998,0.7875000000000001,1.0150000000000001,-4.095000000000001,0.90096875,0.05878125,0.1025625,1.12190625,0.865375,-0.40650000000000003,-0.38928125,1.11775,0.019063825210497203,0.020166389692193164,True
23917,162,0,163,3595.0,37945.0,28587.0,-0.0021349999999999997,0.000122,-0.000183,0.8225000000000001,1.0150000000000001,-4.130000000000001,0.89471875,0.0654375,0.10165625,1.13096875,0.8653125,-0.40546875,-0.38825,1.11253125,0.01929511187938154,0.02008779842752145,True
23918,163,0,164,3595.0,37947.0,28586.0,0.001281,0.002013,-0.002074,0.8925000000000001,0.43750000000000006,-4.83,0.90078125,0.059500000000000004,0.1005625,1.1284687500000001,0.86059375,-0.40646875,-0.39025,1.126875,0.01909201838139735,0.02012330746917313,True
23919,164,0,165,3593.0,37944.0,28585.0,0.001098,0.001403,-0.002989,0.9625000000000001,0.5075000000000001,-4.585000000000001,0.89465625,0.0610625,0.10237500000000001,1.13034375,0.86725,-0.4055625,-0.389,1.11209375,0.01911961668574531,0.020147402517528393,True
23920,165,0,166,3593.0,37946.0,28585.0,-0.000732,0.000732,-0.002196,0.7525000000000001,0.7000000000000001,-4.6375,0.89553125,0.06128125,0.1011875,1.1285625,0.85446875,-0.4043125,-0.38678125,1.1053125,0.019078339125513166,0.02000955948214773,True
23921,166,0,167,3593.0,37943.0,28584.0,-0.003355,-0.000122,-0.003172,0.6300000000000001,1.0325000000000002,-4.7075000000000005,0.8955000000000001,0.0609375,0.1020625,1.1305625,0.85553125,-0.40446875,-0.38784375,1.0971875,0.019070533957023753,0.02008813304784274,True
23922,167,0,168,3590.0,37944.0,28583.0,-0.004392,0.000793,0.00061,0.7525000000000001,1.3475000000000001,-4.742500000000001,0.8995625,0.0581875,0.10140625,1.13746875,0.870375,-0.41550000000000004,-0.39825,1.13334375,0.01940109766336958,0.02047918395786583,True
23923,168,0,169,3589.0,37946.0,28585.0,-0.000366,0.0028669999999999998,0.00488,0.8225000000000001,1.4700000000000002,-5.040000000000001,0.9031250000000001,0.06028125,0.10165625,1.133875,0.88409375,-0.4125625,-0.389375,1.1224375,0.019368870023374236,0.020132998488071138,True
23924,169,0,170,3589.0,37945.0,28582.0,0.001281,0.000549,0.005856,0.6825000000000001,1.6275000000000002,-5.11,0.89446875,0.06078125,0.10240625,1.1299375,0.85084375,-0.401625,-0.384125,1.1006875,0.018949813793138776,0.019952786905414892,True
23925,170,0,171,3589.0,37945.0,28583.0,-0.000366,-0.00244,0.004392,0.45500000000000007,1.7500000000000002,-5.232500000000001,0.8945625,0.06425,0.10703125000000001,1.13059375,0.8501875,-0.403,-0.384875,1.10934375,0.01914723599557432,0.020172596742858023,True
23926,171,0,172,3589.0,37945.0,28584.0,-0.004209,-0.004331,0.000244,0.36750000000000005,1.9425000000000001,-5.075,0.89134375,0.059812500000000005,0.0989375,1.1304375,0.8716875000000001,-0.417375,-0.3926875,1.1084687500000001,0.019542948412759355,0.020154605760435377,True
23927,172,0,173,3589.0,37944.0,28584.0,-0.0073809999999999995,-0.0062829999999999995,-0.0018909999999999999,0.4025,1.6800000000000002,-5.232500000000001,0.8946875,0.06084375,0.10403125,1.1356875,0.84990625,-0.39846875,-0.38728125,1.12784375,0.018825464200494142,0.020146259640975765,True
23928,173,0,174,3589.0,37947.0,28584.0,-0.00549,-0.005124,-0.006039,0.7350000000000001,0.8400000000000001,-5.3375,0.90265625,0.0584375,0.10096875,1.1295,0.8896875,-0.41140625000000003,-0.39103125,1.1205625000000001,0.019246894062073954,0.02017134884364514,True
23929,174,0,175,3588.0,37943.0,28586.0,-0.0046359999999999995,-0.001586,-0.005673,0.8750000000000001,0.24500000000000002,-5.355,0.89465625,0.06140625,0.10278125,1.1302812500000001,0.864375,-0.40228125000000003,-0.383125,1.1016875,0.01900180951319869,0.019927972727039705,True
23930,175,0,176,3590.0,37947.0,28586.0,-0.000366,0.0,-0.0028669999999999998,1.0150000000000001,-0.35000000000000003,-5.355,0.887,0.05784375,0.10621875,1.13471875,0.84971875,-0.40646875,-0.39096875000000003,1.1255625,0.01902415727387847,0.020384081710571666,True
23931,176,0,177,3590.0,37945.0,28586.0,0.0,0.00366,-0.0021349999999999997,1.0675000000000001,-0.9100000000000001,-5.1450000000000005,0.89475,0.0608125,0.10215625,1.1285625,0.8630625000000001,-0.40534375,-0.3849375,1.10621875,0.019100581199557987,0.019975189602187825,True
23932,177,0,178,3589.0,37948.0,28586.0,0.0030499999999999998,0.005795,-0.000366,1.0675000000000001,-1.6975000000000002,-4.8475,0.90140625,0.0624375,0.10162500000000001,1.1351875,0.8590625000000001,-0.40584375,-0.38596875,1.1135,0.01918725919893673,0.01999484847203374,True
23933,178,0,179,3590.0,37949.0,28588.0,0.0037819999999999998,0.008784,0.002745,1.2600000000000002,-2.9225000000000003,-4.48,0.90240625,0.06196875,0.10303125,1.130625,0.8644375,-0.40896875,-0.39021875,1.11840625,0.01929362542200805,0.020223270855248072,True
23934,179,0,180,3592.0,37949.0,28587.0,0.003965,0.008357,0.002623,1.1900000000000002,-3.3425000000000002,-4.340000000000001,0.89575,0.061125,0.10165625,1.13521875,0.8659687500000001,-0.39975,-0.38828125,1.1013125,0.018888513201979526,0.02008905404106737,True
23935,180,0,181,3591.0,37951.0,28588.0,0.002806,0.0059169999999999995,0.001769,0.9275000000000001,-3.8325000000000005,-4.2,0.89965625,0.0616875,0.10228125,1.1313125,0.8626875,-0.4086875,-0.392,1.11978125,0.019270802659913606,0.02026407223679895,True
23936,181,0,182,3593.0,37952.0,28589.0,0.000732,0.002562,-6.1e-05,0.6825000000000001,-4.2525,-4.095000000000001,0.894875,0.06125,0.1000625,1.13475,0.865125,-0.40553125,-0.3883125,1.113625,0.01912604340460731,0.020024960726577536,True
23937,182,0,183,3591.0,37949.0,28587.0,-0.00061,0.0006709999999999999,-0.000366,0.43750000000000006,-4.515000000000001,-3.8150000000000004,0.89965625,0.06140625,0.10262500000000001,1.1308125,0.87,-0.4025,-0.38756250000000003,1.11325,0.019010603421780556,0.020099897232451994,True
23938,183,0,184,3590.0,37949.0,28584.0,-0.0042699999999999995,0.001098,0.001403,0.42000000000000004,-4.340000000000001,-3.325,0.8993125000000001,0.05921875,0.10212500000000001,1.13053125,0.86165625,-0.40618750000000003,-0.3911875,1.11978125,0.019069190958235487,0.020225030044150168,True
23939,184,0,185,3591.0,37951.0,28588.0,-0.003111,-0.000732,0.002623,0.035,-4.585000000000001,-3.0975,0.89528125,0.06246875,0.09990625,1.137875,0.8656875,-0.40371875,-0.38878125,1.11384375,0.019103133615650282,0.020037389117178624,True
23940,185,0,186,3591.0,37948.0,28587.0,-0.0011589999999999999,-0.005978,-6.1e-05,-0.29750000000000004,-5.2675,-3.0625000000000004,0.90028125,0.06228125,0.10278125,1.13015625,0.8691875,-0.40734375,-0.391625,1.119875,0.019241135160396144,0.020269508489081805,True
23941,186,0,187,3592.0,37948.0,28586.0,0.002989,-0.008479,-0.0023179999999999997,-0.49000000000000005,-6.072500000000001,-3.115,0.89725,0.059687500000000004,0.10246875,1.13071875,0.84978125,-0.40475,-0.3895,1.1123750000000001,0.01903061903932636,0.020171333975686257,True
23942,187,0,188,3593.0,37945.0,28585.0,0.014395999999999999,-0.005124,-0.0026839999999999998,-0.5950000000000001,-6.755000000000001,-3.2550000000000003,0.9091250000000001,0.06059375,0.10275000000000001,1.1331875,0.86271875,-0.40768750000000004,-0.3875,1.11240625,0.019185809798654627,0.020102511532547412,True
23943,188,0,189,3592.0,37947.0,28586.0,0.015493999999999999,-0.00244,-0.002745,-0.5950000000000001,-6.6675,-3.4125000000000005,0.9148125,0.06315625,0.10387500000000001,1.12790625,0.85928125,-0.40765625,-0.38903125,1.1163750000000001,0.019289541575709467,0.020210161073945895,True
23944,189,0,190,3594.0,37945.0,28586.0,0.011712,-0.00122,-0.000915,-0.36750000000000005,-5.635000000000001,-3.4475000000000002,0.91009375,0.0624375,0.1041875,1.1260625,0.8624375,-0.405875,-0.39003125,1.11815625,0.019188515060410655,0.020263145419299123,True
23945,190,0,191,3592.0,37945.0,28585.0,0.008052,-0.0025009999999999998,0.004575,-0.45500000000000007,-4.305000000000001,-3.4125000000000005,0.89659375,0.05446875,0.09640625,1.1265625000000001,0.8626875,-0.4054375,-0.38796875000000003,1.1098125,0.018844417355763445,0.01986122768014454,True
23946,191,0,192,3593.0,37945.0,28586.0,0.0044529999999999995,-0.003477,0.006161,-0.36750000000000005,-2.7300000000000004,-3.535,0.8888125,0.0603125,0.0980625,1.13540625,0.86940625,-0.4055,-0.38806250000000003,1.11340625,0.01908637397307984,0.019932907749436842,True
23947,192,0,193,3592.0,37949.0,28587.0,-0.0017079999999999999,-0.001464,0.001403,-0.07,-0.6825000000000001,-4.1825,0.88346875,0.06246875,0.1048125,1.1436875,0.871625,-0.4060625,-0.38803125,1.11334375,0.019197330581284876,0.020208427033239922,True
23948,193,0,194,3593.0,37948.0,28587.0,-0.004026,0.001403,-0.000183,0.5425000000000001,0.035,-4.567500000000001,0.91278125,0.058625000000000003,0.10221875,1.12484375,0.86253125,-0.40471875,-0.38856250000000003,1.11990625,0.018985826255424474,0.02012341850816341,True
23949,194,0,195,3593.0,37948.0,28585.0,-0.002562,0.0048189999999999995,-0.002013,0.7350000000000001,0.36750000000000005,-4.777500000000001,0.88878125,0.06453125,0.09678125,1.13953125,0.869375,-0.40525,-0.387875,1.11240625,0.01924918818696797,0.019872836399235275,True
23950,195,0,196,3594.0,37949.0,28588.0,-0.0006709999999999999,0.0042699999999999995,-0.001403,0.8575,0.7350000000000001,-4.9175,0.89,0.074625,0.095125,1.14528125,0.865625,-0.40634375,-0.388125,1.1129375,0.019706710473583328,0.019814971425642605,True
23951,196,0,197,3596.0,37947.0,28586.0,-0.002745,0.0026839999999999998,-0.002745,0.7000000000000001,1.225,-4.795000000000001,0.901,0.06265625,0.10403125,1.14234375,0.8643125,-0.40525,-0.387625,1.10953125,0.01917236045522992,0.020160070937616927,True
23952,197,0,198,3595.0,37950.0,28587.0,-0.006527,-0.000183,0.000244,0.7525000000000001,1.8200000000000003,-4.550000000000001,0.90046875,0.06281250000000001,0.10465625,1.1339375,0.86275,-0.40628125,-0.38434375,1.11278125,0.019220205864012976,0.020053851151930223,True
23953,198,0,199,3594.0,37951.0,28589.0,-0.0060999999999999995,0.00042699999999999997,0.000549,0.7875000000000001,1.8200000000000003,-4.550000000000001,0.90534375,0.05846875,0.1053125,1.125,0.86259375,-0.4053125,-0.38975,1.119125,0.019003290779415344,0.02029797353396406,True
23954,199,0,200,3595.0,37950.0,28590.0,-0.004026,0.000549,-0.001037,0.6825000000000001,1.8200000000000003,-4.4975000000000005,0.88909375,0.06268750000000001,0.10440625,1.12684375,0.86871875,-0.40484375,-0.3906875,1.12128125,0.019157313801691517,0.02029847457149373,True
23955,200,0,201,3595.0,37952.0,28593.0,-0.002989,-0.000183,6.1e-05,0.6825000000000001,2.0300000000000002,-4.305000000000001,0.8930625,0.06153125,0.1030625,1.1300000000000001,0.87053125,-0.4034375,-0.39015625,1.11871875,0.01905341204492195,0.020222041422961363,True
23956,201,0,202,3595.0,37956.0,28591.0,-0.005307,-0.000976,0.003355,0.5775,2.2750000000000004,-4.235,0.89471875,0.061125,0.10187500000000001,1.1186875,0.86271875,-0.400125,-0.38796875000000003,1.11309375,0.01890359168241966,0.02008546734750101,True
23957,202,0,203,3597.0,37951.0,28592.0,-0.010735999999999999,-0.000183,0.003721,0.7175,2.4325,-4.025,0.887625,0.06075,0.1060625,1.13121875,0.8623125,-0.40540625,-0.388125,1.1127500000000001,0.019100532284726877,0.02026344788703519,True
23958,203,0,204,3598.0,37952.0,28592.0,-0.007869,0.001281,0.003294,0.8750000000000001,1.8025000000000002,-4.0425,0.8882187500000001,0.05803125,0.10025,1.13803125,0.86309375,-0.405125,-0.38784375,1.1039375,0.01897782740305571,0.020013813234308588,True
23959,204,0,205,3598.0,37954.0,28592.0,-0.002806,0.002379,0.001281,0.8575,0.9800000000000001,-4.130000000000001,0.9023125000000001,0.05971875,0.10028125,1.12690625,0.863375,-0.4055,-0.38806250000000003,1.1045,0.01906204544057692,0.02002388463618215,True
23960,205,0,206,3598.0,37955.0,28594.0,-0.0018909999999999999,0.000793,0.000183,0.9275000000000001,0.22750000000000004,-4.025,0.89890625,0.05725,0.0988125,1.137,0.86246875,-0.40484375,-0.3881875,1.11821875,0.018934509670851713,0.019968683609636835,True
23961,206,0,207,3597.0,37954.0,28596.0,-0.001464,0.0011589999999999999,-0.002745,0.8225000000000001,-0.7525000000000001,-3.9025000000000003,0.89496875,0.06134375,0.1036875,1.129875,0.87040625,-0.40740625,-0.38984375,1.1126562500000001,0.01920523611557455,0.020235113232326466,True
23962,207,0,208,3598.0,37957.0,28598.0,0.00488,0.002196,-0.0050019999999999995,0.8225000000000001,-2.3800000000000003,-3.6750000000000003,0.89453125,0.06759375000000001,0.0999375,1.13725,0.86240625,-0.405,-0.388125,1.11215625,0.019364628149969268,0.02001230106865534,True
23963,208,0,209,3601.0,37957.0,28601.0,0.006588,0.000732,-0.004941,0.77,-2.765,-3.4125000000000005,0.89384375,0.059500000000000004,0.1025625,1.1248125,0.86340625,-0.40209375,-0.38606250000000003,1.11965625,0.018916153455069817,0.020037060103491492,True
23964,209,0,210,3599.0,37956.0,28599.0,0.005307,0.0013419999999999999,-0.004026,0.7525000000000001,-3.0275000000000003,-3.325,0.8952187500000001,0.060625,0.10212500000000001,1.13296875,0.8678750000000001,-0.4050625,-0.38821875,1.1128437500000001,0.019081594238900226,0.0201057631566471,True
23965,210,0,211,3601.0,37956.0,28599.0,0.003904,0.000122,-0.00183,0.5425000000000001,-2.9925,-3.325,0.898,0.05721875,0.099625,1.12715625,0.86475,-0.4058125,-0.39025,1.11959375,0.01897217107605002,0.020084869978782505,True
23966,211,0,212,3601.0,37956.0,28597.0,0.00488,-0.000488,-0.001098,0.47250000000000003,-2.9925,-3.3075,0.89509375,0.0614375,0.1023125,1.1304375,0.87115625,-0.40659375000000003,-0.3879375,1.112625,0.019176426452380314,0.020102150909645393,True
23967,212,0,213,3601.0,37956.0,28601.0,0.004575,-0.002989,0.001769,0.15750000000000003,-2.555,-3.1325000000000003,0.89553125,0.06084375,0.10065625,1.1385,0.86328125,-0.40328125000000004,-0.381,1.1093125,0.0190189587721938,0.019755393544153236,True
23968,213,0,214,3602.0,37955.0,28600.0,0.004758,-0.003843,0.000488,0.17500000000000002,-2.3800000000000003,-3.22,0.90053125,0.06103125,0.10953125,1.13075,0.86628125,-0.40700000000000003,-0.38921875,1.1201875000000001,0.01917610726430942,0.02044960952265025,True
23969,214,0,215,3602.0,37956.0,28600.0,0.00122,-0.002196,0.000183,0.42000000000000004,-2.31,-3.4825000000000004,0.89490625,0.06109375,0.10265625,1.13015625,0.86453125,-0.4055,-0.38834375,1.1123125,0.019118385200057365,0.020132568452911035,True
23970,215,0,216,3605.0,37955.0,28597.0,0.00061,-0.000122,-0.00061,0.5950000000000001,-2.0300000000000002,-3.6925000000000003,0.8956875,0.06034375,0.09975,1.13715625,0.8628125,-0.4055625,-0.38765625000000004,1.11290625,0.019090166432345086,0.019985776615987855,True
23971,216,0,217,3603.0,37958.0,28594.0,0.0050019999999999995,0.001464,0.000732,0.5425000000000001,-1.8900000000000001,-3.8675,0.90075,0.05878125,0.09971875000000001,1.13571875,0.85090625,-0.40390625,-0.389,1.11834375,0.01895956717994686,0.020038490713026366,True
23972,217,0,218,3606.0,37955.0,28593.0,0.0064659999999999995,-0.001769,0.0026839999999999998,0.35000000000000003,-0.5950000000000001,-3.9200000000000004,0.8991875,0.05940625,0.1003125,1.13534375,0.86875,-0.40778125,-0.38959375,1.11753125,0.01914092457707519,0.020086691685875253,True
23973,218,0,219,3601.0,37955.0,28590.0,0.000732,-0.003294,0.0028669999999999998,0.2625,0.7175,-3.7625,0.9010625,0.06096875,0.10328125,1.1303125,0.86653125,-0.40578125,-0.3894375,1.1124687500000001,0.019124567053144425,0.020202136683144085,True
23974,219,0,220,3601.0,37953.0,28589.0,-0.008418,-0.004941,0.002257,0.47250000000000003,1.8025000000000002,-3.8500000000000005,0.8950625,0.062125,0.10296875,1.13396875,0.86609375,-0.40515625,-0.384875,1.11278125,0.019146824761673058,0.020005997570215144,True
23975,220,0,221,3600.0,37955.0,28589.0,-0.013908,-0.002562,0.003111,0.7875000000000001,2.1350000000000002,-4.077500000000001,0.8996875,0.05984375,0.10153125,1.131625,0.86334375,-0.40746875,-0.39103125,1.11909375,0.01914629103028146,0.020194410599182845,True
23976,221,0,222,3599.0,37956.0,28587.0,-0.012871,0.001403,-0.000549,0.8400000000000001,1.8550000000000002,-4.0425,0.89584375,0.06121875,0.1021875,1.13371875,0.86340625,-0.40515625,-0.388375,1.11353125,0.01910969121535536,0.020114603781514757,True
23977,222,0,223,3597.0,37952.0,28587.0,-0.005612,0.00549,-0.002928,1.0675000000000001,0.35000000000000003,-3.9025000000000003,0.90015625,0.06034375,0.10103125,1.1346875,0.86353125,-0.4050625,-0.38871875,1.107625,0.019070069990601336,0.02008100569038708,True
23978,223,0,224,3598.0,37951.0,28585.0,-0.0035989999999999998,0.003965,-0.0017079999999999999,0.9450000000000001,-0.15750000000000003,-3.7625,0.9000625,0.062375,0.10296875,1.13096875,0.86828125,-0.40068750000000003,-0.3903125,1.11775,0.018977436598866325,0.020224474368665837,True
23979,224,0,225,3596.0,37952.0,28585.0,-0.0017079999999999999,0.003904,-0.000549,0.8750000000000001,-0.6300000000000001,-3.4825000000000004,0.89596875,0.061375,0.10303125,1.1304375,0.8629687500000001,-0.40384375,-0.386375,1.11090625,0.01906333915123514,0.020068839669692605,True
23980,225,0,226,3596.0,37952.0,28582.0,-0.00122,0.004026,0.0017079999999999999,0.8400000000000001,-0.9625000000000001,-3.3600000000000003,0.90134375,0.058125,0.1020625,1.13921875,0.8606875,-0.40671875,-0.39359375,1.11625,0.019045728955269747,0.020319115546474163,True
23981,226,0,227,3595.0,37952.0,28581.0,0.003355,0.0030499999999999998,0.002745,0.6125,-1.4525000000000001,-3.1850000000000005,0.89596875,0.06215625,0.1015625,1.12025,0.87403125,-0.40746875,-0.38415625000000003,1.11059375,0.019241036619170107,0.019919440517856754,True
23982,227,0,228,3593.0,37954.0,28582.0,0.004392,-0.0013419999999999999,0.001769,0.24500000000000002,-1.7850000000000001,-3.325,0.9198437500000001,0.050125,0.09790625,1.124125,0.86003125,-0.4048125,-0.38759375,1.12415625,0.018641302816811235,0.019907663092017844,True
23983,228,0,229,3590.0,37951.0,28581.0,0.00244,-0.002989,-0.00061,0.28,-1.7850000000000001,-3.325,0.88803125,0.0670625,0.10596875,1.12034375,0.87453125,-0.407875,-0.39006250000000003,1.11315625,0.019458371529680482,0.020337432509654293,True
23984,229,0,230,3592.0,37948.0,28582.0,0.001464,-0.003904,-0.001647,0.31500000000000006,-1.7850000000000001,-3.5525,0.884125,0.06415625,0.10625,1.121375,0.86915625,-0.40815625,-0.38478125,1.1130625,0.019350601297465884,0.020136791261967955,True
23985,230,0,231,3592.0,37950.0,28583.0,0.0028669999999999998,-0.003843,-0.0035989999999999998,0.35000000000000003,-1.6975000000000002,-3.6925000000000003,0.877375,0.06365625,0.1045,1.12321875,0.8625,-0.4040625,-0.38590625,1.11190625,0.019165610233951826,0.020110232729201934,True
23986,231,0,232,3590.0,37950.0,28582.0,0.00244,-0.001586,-0.004331,0.4025,-1.7325000000000002,-3.6050000000000004,0.892875,0.0603125,0.10009375,1.1166875,0.85990625,-0.4045,-0.38703125,1.11096875,0.019046180007785452,0.019974756049898446,True
23987,232,0,233,3591.0,37948.0,28582.0,0.001464,-0.0021349999999999997,-0.000793,0.385,-1.2600000000000002,-3.535,0.88603125,0.06471875,0.1083125,1.1208125,0.8601875,-0.40725,-0.39028125,1.11946875,0.019337235862295014,0.020442312447709065,True
23988,233,0,234,3590.0,37951.0,28582.0,0.002379,-0.001098,0.001952,0.4025,-1.12,-3.6575,0.8833125000000001,0.064875,0.10728125000000001,1.11996875,0.8719687500000001,-0.40650000000000003,-0.3903125,1.1203125,0.01931350255055006,0.02040128637138208,True
23989,234,0,235,3590.0,37950.0,28581.0,0.003172,-6.1e-05,0.002806,0.3325,-1.0850000000000002,-3.8150000000000004,0.88375,0.0643125,0.10625,1.11928125,0.8676875000000001,-0.40484375,-0.38840625,1.1186875,0.019223898944241345,0.020282434404667177,True
23990,235,0,236,3592.0,37949.0,28583.0,-0.00042699999999999997,-0.000244,0.002806,0.4025,-0.8575,-3.8325000000000005,0.8818125,0.064875,0.108125,1.13675,0.86834375,-0.40621875,-0.38878125,1.1204375,0.019302201411269412,0.020374378075985244,True
23991,236,0,237,3591.0,37948.0,28584.0,-0.002989,-0.000183,0.001037,0.6825000000000001,-0.8400000000000001,-3.9550000000000005,0.903625,0.051562500000000004,0.098625,1.13734375,0.8649375,-0.40459375000000003,-0.38690625,1.11315625,0.018691409276173673,0.019909505741426307,True
23992,237,0,238,3589.0,37950.0,28585.0,-0.004697,0.0050019999999999995,-0.0025009999999999998,0.9100000000000001,-1.3475000000000001,-3.8500000000000005,0.899375,0.06021875,0.10446875,1.12121875,0.8619375,-0.4044375,-0.3878125,1.113375,0.01903982626110518,0.020185543496367295,True
23993,238,0,239,3589.0,37949.0,28585.0,-0.005978,0.0040869999999999995,-0.0030499999999999998,0.8750000000000001,-1.7325000000000002,-3.7975000000000003,0.882,0.064,0.106125,1.12575,0.86703125,-0.40603125,-0.388375,1.1184375,0.019258815379907375,0.020276053652611134,True
23994,239,0,240,3591.0,37952.0,28587.0,-0.00549,0.00122,-0.0013419999999999999,0.8225000000000001,-2.0650000000000004,-3.6750000000000003,0.8882187500000001,0.05896875,0.1026875,1.13784375,0.86859375,-0.406875,-0.39021875,1.11990625,0.019086579088883768,0.020209177090713876,True
23995,240,0,241,3591.0,37953.0,28590.0,-0.003294,0.000122,0.000183,0.5425000000000001,-2.5200000000000005,-3.3600000000000003,0.90378125,0.0585,0.10121875,1.13265625,0.87090625,-0.40734375,-0.388,1.11071875,0.01908621252568707,0.020059814252911267,True
23996,241,0,242,3591.0,37952.0,28587.0,0.000122,-0.000793,0.0011589999999999999,0.385,-2.9050000000000002,-3.22,0.89484375,0.0610625,0.1015,1.1300000000000001,0.8631562500000001,-0.39809375,-0.38103125,1.11315625,0.018819349360029408,0.019791256778771405,True
23997,242,0,243,3591.0,37951.0,28588.0,0.0008539999999999999,-0.003172,0.005978,0.1925,-3.535,-2.9400000000000004,0.8956875,0.06115625,0.1025625,1.130625,0.86290625,-0.40428125,-0.38828125,1.11278125,0.019071960990451213,0.020126213281224974,True
23998,243,0,244,3591.0,37952.0,28585.0,-0.0006709999999999999,-0.002989,0.0053679999999999995,0.31500000000000006,-3.9550000000000005,-2.9925,0.89471875,0.0611875,0.10237500000000001,1.131125,0.8628750000000001,-0.39887500000000004,-0.38803125,1.11359375,0.018855889871971558,0.020108480466212292,True
23999,244,0,245,3594.0,37953.0,28587.0,-0.000976,-0.002562,0.0023179999999999997,0.385,-4.445,-2.9925,0.8968125,0.0614375,0.1045625,1.13315625,0.86353125,-0.404375,-0.38906250000000003,1.1124687500000001,0.019087253822316692,0.020239605355884427,True
24000,245,0,246,3591.0,37952.0,28588.0,0.003355,-0.000793,-0.000488,0.28,-5.075,-3.0100000000000002,0.89046875,0.06153125,0.09996875000000001,1.1360937500000001,0.86190625,-0.4043125,-0.389,1.117625,0.019088583216593378,0.02004874123580303,True
24001,246,0,247,3592.0,37956.0,28588.0,0.006039,-0.0008539999999999999,-0.0035989999999999998,0.35000000000000003,-5.652500000000001,-3.1675000000000004,0.9006875,0.059562500000000004,0.10175000000000001,1.1360000000000001,0.8699687500000001,-0.4034375,-0.3896875,1.1213125,0.018972736935114164,0.02014939715812267,True
24002,247,0,248,3593.0,37953.0,28586.0,0.012017,-0.002562,-0.0050019999999999995,0.31500000000000006,-5.232500000000001,-2.975,0.90359375,0.058875000000000004,0.09915625,1.13803125,0.87121875,-0.4054375,-0.39078125,1.12025,0.01902496113827093,0.020086994958392324,True
24003,248,0,249,3592.0,37956.0,28587.0,0.009577,-0.0008539999999999999,-0.005795,0.43750000000000006,-4.7075000000000005,-3.115,0.90159375,0.06134375,0.10153125,1.13121875,0.8659375,-0.40559375000000003,-0.38856250000000003,1.11328125,0.019132396645748475,0.02009522906485366,True
24004,249,0,250,3593.0,37956.0,28587.0,0.009089,0.004331,-0.003721,0.8925000000000001,-3.8325000000000005,-3.2900000000000005,0.88871875,0.06203125,0.10246875,1.1311875,0.85028125,-0.40468750000000003,-0.385375,1.11334375,0.019124143671169727,0.020005587365377813,True
24005,250,0,251,3594.0,37961.0,28590.0,0.011773,0.005673,-0.001403,1.05,-2.8000000000000003,-3.43,0.89596875,0.06209375,0.10296875,1.13096875,0.8629687500000001,-0.40418750000000003,-0.389625,1.1134375,0.019106608240901282,0.020196856245227223,True
24006,251,0,252,3593.0,37959.0,28589.0,0.008235,-6.1e-05,0.00061,0.9100000000000001,-1.4525000000000001,-3.8500000000000005,0.89828125,0.0615625,0.10253125,1.1320000000000001,0.8708750000000001,-0.406125,-0.3894375,1.1073125,0.01916271018033383,0.0201713856664386,True
24007,252,0,253,3594.0,37961.0,28589.0,0.002623,-0.0013419999999999999,0.002074,0.6300000000000001,1.6800000000000002,-3.9550000000000005,0.89525,0.06728125,0.1021875,1.130875,0.863375,-0.40471875,-0.38809375,1.1130625,0.019340522004581594,0.02010330348184757,True
24008,253,0,254,3592.0,37963.0,28589.0,-0.002989,-0.00122,0.000488,0.8400000000000001,3.1500000000000004,-4.130000000000001,0.8969375,0.0616875,0.1023125,1.130625,0.86259375,-0.40490625,-0.38740625,1.11296875,0.019118850333629124,0.02008080502615976,True
24009,254,0,255,3594.0,37963.0,28589.0,-0.00976,0.001769,-0.00183,1.2075,4.655,-4.305000000000001,0.89765625,0.060125,0.10003125,1.1371875,0.8678750000000001,-0.40690625,-0.3896875,1.1142812500000001,0.019135208912436415,0.02007892680051764,True
24010,255,0,256,3594.0,37963.0,28591.0,-0.013969,0.003965,-0.001281,1.2950000000000002,5.617500000000001,-4.7075000000000005,0.9031250000000001,0.059562500000000004,0.10534375,1.1302812500000001,0.86271875,-0.405875,-0.38753125,1.114,0.01907071555516858,0.020210122744589002,True
24011,256,0,257,3595.0,37963.0,28591.0,-0.013847,0.001037,0.0026839999999999998,0.9800000000000001,6.3875,-4.6725,0.8965,0.06284375,0.1023125,1.1369375,0.8635,-0.40675,-0.388,1.1189375,0.01924032286150348,0.02010466212891586,True
24012,257,0,258,3596.0,37962.0,28593.0,-0.013725,-0.0035989999999999998,0.005673,0.7350000000000001,6.527500000000001,-4.6025,0.9020625,0.058875000000000004,0.09996875000000001,1.138375,0.8691875,-0.40759375000000003,-0.388875,1.1135,0.01911162381584625,0.020043718703712247,True
24013,258,0,259,3595.0,37965.0,28595.0,-0.012139,-0.0053679999999999995,0.004514,0.5075000000000001,6.615,-4.4975000000000005,0.90346875,0.06103125,0.1003125,1.13365625,0.864375,-0.406125,-0.3823125,1.11753125,0.019140943103421786,0.019794061781465557,True
24014,259,0,260,3595.0,37964.0,28594.0,-0.016714,-0.004331,0.004697,0.6475000000000001,6.4575000000000005,-4.340000000000001,0.902625,0.06103125,0.10187500000000001,1.13853125,0.86865625,-0.406375,-0.38790625,1.11559375,0.01915099026381427,0.020082956075821393,True
24015,260,0,261,3595.0,37964.0,28595.0,-0.020374,-0.000549,0.004758,1.0325000000000002,5.705000000000001,-4.322500000000001,0.90475,0.05890625,0.10015625,1.13878125,0.8658125,-0.40590625,-0.38953125,1.1107500000000001,0.019045082581188724,0.02007777414746337,True
24016,261,0,262,3597.0,37963.0,28598.0,-0.00732,0.0026839999999999998,0.0011589999999999999,1.2425000000000002,2.555,-3.9725000000000006,0.90146875,0.0608125,0.10575,1.13065625,0.87275,-0.4035625,-0.39196875000000003,1.11459375,0.019028983985432454,0.02040502573208651,True
24017,262,0,263,3597.0,37965.0,28596.0,-0.0025009999999999998,0.0013419999999999999,-0.0018909999999999999,0.9450000000000001,0.8575,-3.6575,0.8961875,0.06225,0.10253125,1.1304375,0.8632500000000001,-0.4030625,-0.3876875,1.1039375,0.01906779118399586,0.020101075593985697,True
24018,263,0,264,3595.0,37965.0,28599.0,0.0008539999999999999,-0.00061,-0.001952,0.7350000000000001,-0.1925,-3.4475000000000002,0.89934375,0.0574375,0.09934375000000001,1.1378125000000001,0.858375,-0.40665625,-0.39446875000000003,1.1290625,0.019015048405084164,0.02024280606643668,True
24019,264,0,265,3595.0,37964.0,28599.0,0.005307,-0.002806,-0.000122,0.47250000000000003,-1.225,-3.22,0.9020312500000001,0.058875000000000004,0.10246875,1.13146875,0.8686875000000001,-0.4084375,-0.3873125,1.10753125,0.01914553113037244,0.020083445029049428,True
24020,265,0,266,3597.0,37964.0,28598.0,0.00976,-0.00488,0.001647,0.35000000000000003,-1.995,-2.87,0.89590625,0.0605625,0.10425,1.13803125,0.8456875,-0.40675,-0.39337500000000003,1.12678125,0.019146854865969457,0.020400006149210597,True
24021,266,0,267,3598.0,37964.0,28598.0,0.011041,0.0006709999999999999,-6.1e-05,0.8575,-2.9575000000000005,-3.0450000000000004,0.90378125,0.05996875,0.1005625,1.13115625,0.8775937500000001,-0.41128125,-0.39065625,1.1131875,0.01930459917993858,0.020139628264409654,True
24022,267,0,268,3597.0,37968.0,28598.0,0.010309,0.004331,0.000915,1.2950000000000002,-3.0625000000000004,-3.3600000000000003,0.89578125,0.06725,0.10265625,1.13146875,0.85709375,-0.403,-0.38571875,1.10409375,0.0192701717002008,0.020027090651162375,True
24023,268,0,269,3598.0,37967.0,28597.0,0.012139,0.0057339999999999995,-0.0035989999999999998,1.2775,-3.2900000000000005,-3.5175000000000005,0.897,0.057875,0.0999375,1.136125,0.8631875,-0.40800000000000003,-0.3883125,1.1300625,0.019086979678793838,0.02001983532070946,True
24024,269,0,270,3600.0,37968.0,28600.0,0.012871,0.0050019999999999995,-0.007686,1.1725,-3.43,-3.6050000000000004,0.8959375,0.061625,0.10350000000000001,1.13215625,0.87075,-0.402875,-0.38496875,1.10534375,0.019034642434549207,0.020031551198932747,True
24025,270,0,271,3599.0,37968.0,28599.0,0.013237,0.0057339999999999995,-0.008052,1.1375000000000002,-3.2025,-3.8150000000000004,0.89746875,0.05921875,0.10128125,1.13075,0.857375,-0.41215625,-0.39015625,1.1184375,0.019309027648878825,0.020149009910504365,True
24026,271,0,272,3600.0,37971.0,28599.0,0.004941,0.00061,-0.0044529999999999995,0.9800000000000001,-1.3825,-3.8675,0.896375,0.0635,0.10228125,1.1346875,0.8492500000000001,-0.403125,-0.38728125,1.11396875,0.019121526443846844,0.020074500924534177,True
24027,272,0,273,3601.0,37971.0,28600.0,0.000549,-0.0035989999999999998,-0.003111,0.6475000000000001,-0.42000000000000004,-3.9375000000000004,0.89465625,0.0609375,0.1024375,1.13765625,0.871,-0.41203125,-0.39059375,1.124875,0.01937441195107433,0.02021399130556221,True
24028,273,0,274,3601.0,37969.0,28602.0,-0.0013419999999999999,-0.0040869999999999995,0.000305,0.42000000000000004,0.49000000000000005,-4.077500000000001,0.9030312500000001,0.0613125,0.1006875,1.13371875,0.873,-0.40953125,-0.38996875000000003,1.1154375,0.01928934010152284,0.02011713319640887,True
24029,274,0,275,3601.0,37970.0,28601.0,-6.1e-05,-0.003843,0.001037,0.5425000000000001,1.5575,-4.112500000000001,0.90028125,0.06434375,0.10546875,1.13053125,0.86528125,-0.4043125,-0.38615625000000003,1.117375,0.019203829241245782,0.020160003690618527,True
24030,275,0,276,3602.0,37972.0,28602.0,-0.006954,0.0011589999999999999,0.0034159999999999998,0.8750000000000001,2.5900000000000003,-4.2175,0.89375,0.06209375,0.1021875,1.12253125,0.86084375,-0.40478125,-0.3875,1.11309375,0.019130472640479006,0.020079446437724243,True
24031,276,0,277,3602.0,37974.0,28603.0,-0.011895,0.007137,0.004941,1.2075,3.6050000000000004,-4.357500000000001,0.89525,0.0608125,0.09971875000000001,1.13659375,0.8638125,-0.405,-0.38765625000000004,1.1148125,0.019086765007170662,0.019984495230040814,True
24032,277,0,278,3601.0,37975.0,28600.0,-0.009089,0.00549,0.00488,1.1375000000000002,3.5525,-4.2875000000000005,0.902375,0.05996875,0.10203125,1.13153125,0.8575625,-0.40771875,-0.3888125,1.11378125,0.01916145891348408,0.020125774881413355,True
24033,278,0,279,3602.0,37971.0,28598.0,-0.007137,0.001464,0.0044529999999999995,0.8925000000000001,3.4825000000000004,-4.1825,0.89675,0.0618125,0.106125,1.13659375,0.863125,-0.40453125,-0.38746875000000003,1.114,0.01910890011460474,0.02023964664229452,True
24034,279,0,280,3603.0,37972.0,28597.0,-0.0066489999999999995,-0.002623,0.0037819999999999998,0.43750000000000006,3.5525,-4.077500000000001,0.90234375,0.05946875,0.10362500000000001,1.1315625,0.86953125,-0.40671875,-0.38903125,1.1195625,0.0191007855162833,0.02019991056430337,True
24035,280,0,281,3601.0,37970.0,28595.0,-0.007991,-0.005063,0.002989,0.31500000000000006,3.3425000000000002,-4.077500000000001,0.89584375,0.06196875,0.1028125,1.13134375,0.8633125,-0.40465625,-0.38606250000000003,1.1139375,0.019120326679463066,0.020047311861027175,True
24036,281,0,282,3598.0,37970.0,28594.0,-0.008173999999999999,-0.006588,-0.001037,0.15750000000000003,2.5200000000000005,-3.9550000000000005,0.8961250000000001,0.05978125,0.10065625,1.13784375,0.8628125,-0.40428125,-0.38856250000000003,1.11634375,0.019015618417362733,0.020059351591550346,True
24037,282,0,283,3600.0,37966.0,28591.0,-0.00488,-0.0060999999999999995,0.000732,0.08750000000000001,1.715,-3.99,0.9011250000000001,0.06321875,0.10315625,1.13090625,0.870375,-0.4078125,-0.38809375,1.11378125,0.01929838038537866,0.02014302573361233,True
24038,283,0,284,3597.0,37965.0,28591.0,-0.010187,-0.008784,0.004575,-0.0175,0.6300000000000001,-3.9025000000000003,0.8958125,0.06859375,0.10096875,1.1394375,0.8631875,-0.40234375,-0.38756250000000003,1.113625,0.01929886345445814,0.02003198351618781,True
24039,284,0,285,3598.0,37965.0,28588.0,-0.00488,-0.008479,-0.0018909999999999999,-0.1925,-0.9275000000000001,-3.9725000000000006,0.902875,0.05846875,0.099875,1.12825,0.8631875,-0.40750000000000003,-0.390375,1.12015625,0.019091211717709722,0.020100141961736956,True
24040,285,0,286,3596.0,37964.0,28589.0,0.014457,0.000366,-0.00244,-0.12250000000000001,-2.2750000000000004,-4.340000000000001,0.89625,0.06246875,0.10315625,1.12875,0.87209375,-0.40690625,-0.3891875,1.11403125,0.01923123706020709,0.02018696809805575,True
24041,286,0,287,3594.0,37964.0,28588.0,-0.005673,0.0051849999999999995,0.001586,1.1725,-1.995,-3.2550000000000003,0.894,0.06134375,0.10075,1.13934375,0.8632500000000001,-0.40421875,-0.38906250000000003,1.11725,0.019077131899581913,0.02008328528413095,True
24042,287,0,288,3596.0,37967.0,28590.0,-0.010369999999999999,0.009821,0.0060999999999999995,1.3475000000000001,-1.7675,-2.8525000000000005,0.90678125,0.0584375,0.10040625,1.12825,0.8711875,-0.404,-0.38934375,1.12084375,0.01894925012293067,0.0200804910956245,True
24043,288,0,289,3595.0,37965.0,28589.0,-0.00061,0.009455,0.006039,1.3125000000000002,-2.6075000000000004,-2.6425,0.88565625,0.06290625,0.10409375,1.13003125,0.86971875,-0.40746875,-0.387125,1.1125625000000001,0.019271764918269128,0.020142544477875106,True
24044,289,0,290,3593.0,37966.0,28588.0,0.012199999999999999,0.004575,0.00183,0.7525000000000001,-3.6400000000000006,-2.6250000000000004,0.89759375,0.06021875,0.099875,1.13225,0.8628125,-0.40446875,-0.388,1.113875,0.01904108238373351,0.02000471543381991,True
24045,290,0,291,3593.0,37964.0,28588.0,0.014884,-0.001098,-0.0028669999999999998,0.4025,-4.1475,-2.87,0.9004375,0.0570625,0.1019375,1.13265625,0.864375,-0.40618750000000003,-0.38765625000000004,1.11546875,0.018980842460544073,0.02007547363228068,True
24046,291,0,292,3594.0,37965.0,28588.0,0.0071979999999999995,-0.00488,-0.009271999999999999,0.28,-3.9200000000000004,-3.325,0.90671875,0.0560625,0.09790625,1.14365625,0.864375,-0.40396875,-0.3876875,1.11315625,0.018850673622502485,0.01991143071683201,True
24047,292,0,293,3592.0,37963.0,28589.0,0.009028,-0.0011589999999999999,-0.010553,0.665,-3.6750000000000003,-3.5000000000000004,0.9084375,0.05725,0.0990625,1.1380937500000001,0.8635625,-0.40459375000000003,-0.388375,1.118125,0.018924459662435483,0.019986468963184303,True
24048,293,0,294,3593.0,37964.0,28587.0,0.007686,0.00042699999999999997,-0.009394,0.8225000000000001,-2.8875,-3.7275000000000005,0.88503125,0.061875,0.10396875,1.12959375,0.866625,-0.40484375,-0.38684375,1.11353125,0.019124021230416604,0.02012611820666625,True
24049,294,0,295,3592.0,37966.0,28586.0,0.006893,0.001464,-0.009637999999999999,0.9275000000000001,-2.1525000000000003,-3.9375000000000004,0.9049375000000001,0.0583125,0.0989375,1.13821875,0.8629375,-0.40496875,-0.3868125,1.11809375,0.01898307081421688,0.019918552291325484,True
24050,295,0,296,3592.0,37964.0,28589.0,0.003965,0.000549,-0.0066489999999999995,0.8400000000000001,-1.2950000000000002,-3.8850000000000002,0.8935000000000001,0.06365625,0.1035625,1.12878125,0.86653125,-0.40540625,-0.38865625,1.1159375,0.019219614506519433,0.020182282490450863,True
24051,296,0,297,3591.0,37964.0,28588.0,-0.0032329999999999998,-0.0008539999999999999,-0.001037,0.5950000000000001,0.2625,-4.340000000000001,0.89353125,0.06240625,0.10421875,1.12934375,0.863375,-0.404,-0.387,1.11384375,0.019111877151286677,0.020142647722147047,True
24052,297,0,298,3591.0,37967.0,28590.0,-0.00488,0.0017079999999999999,0.003965,0.6475000000000001,0.9800000000000001,-4.375,0.89390625,0.06290625,0.1045625,1.1300937500000001,0.86278125,-0.40384375,-0.38809375,1.1126562500000001,0.019126085414311014,0.020200687066819236,True
24053,298,0,299,3592.0,37968.0,28592.0,-0.007442,0.001403,0.006954,0.5425000000000001,1.5575,-4.375,0.8955625,0.0635,0.09984375000000001,1.13778125,0.86359375,-0.40503125,-0.38806250000000003,1.113625,0.019198141776606004,0.020005945531753496,True
24054,299,0,300,3592.0,37967.0,28591.0,-0.010858,0.000183,0.009089,0.385,1.7675,-4.375,0.895375,0.06034375,0.099375,1.13834375,0.86353125,-0.40534375,-0.38775,1.1148125,0.019081374340404446,0.019974167358612415,True
24055,300,0,301,3593.0,37969.0,28592.0,-0.013847,-0.0006709999999999999,0.009333,0.35000000000000003,1.6450000000000002,-4.357500000000001,0.90259375,0.06015625,0.10025,1.136875,0.86940625,-0.40659375000000003,-0.3915,1.12240625,0.019123930392785763,0.02016071172334625,True
24056,301,0,302,3593.0,37968.0,28592.0,-0.011467999999999999,-0.00061,0.008052,0.35000000000000003,0.8400000000000001,-4.0600000000000005,0.90309375,0.06109375,0.10059375,1.1380625,0.881,-0.41200000000000003,-0.39690625,1.1395625,0.01937955718499099,0.020391929816920947,True
24057,302,0,303,3593.0,37970.0,28594.0,-0.014029999999999999,-0.000122,0.006039,0.43750000000000006,0.07,-3.9725000000000006,0.902,0.06159375,0.10084375,1.136625,0.89565625,-0.410875,-0.3891875,1.1104687500000001,0.019354846968820248,0.02009215149131147,True
24058,303,0,304,3593.0,37969.0,28596.0,-0.013237,0.0011589999999999999,0.003172,0.525,-1.0850000000000002,-3.8675,0.9035625,0.05996875,0.10046875,1.13575,0.8775000000000001,-0.41128125,-0.3914375,1.12740625,0.01930459917993858,0.020167169319151444,True
24059,304,0,305,3595.0,37968.0,28596.0,-0.010919,0.0011589999999999999,0.001647,0.5425000000000001,-2.6775,-3.6750000000000003,0.89028125,0.06275,0.10278125,1.13121875,0.8637812500000001,-0.40046875,-0.38240625,1.1031250000000001,0.01898401029693333,0.01989908194561396,True
24060,305,0,306,3594.0,37969.0,28595.0,-0.002928,0.000915,-0.000305,0.525,-4.41,-3.5000000000000004,0.89590625,0.06134375,0.10253125,1.131125,0.8528125,-0.40228125000000003,-0.3846875,1.1061875,0.018999248277248672,0.01998052056234061,True
24061,306,0,307,3593.0,37967.0,28592.0,0.014457,0.002013,0.000244,0.14,-6.8950000000000005,-2.8525000000000005,0.89596875,0.06125,0.10203125,1.12984375,0.8555,-0.4050625,-0.38996875000000003,1.129,0.019107203679564436,0.020172227567942253,True
24062,307,0,308,3593.0,37965.0,28594.0,0.015738,-0.002013,-0.0021349999999999997,-0.052500000000000005,-7.192500000000001,-2.5725000000000002,0.8921875,0.059937500000000005,0.10046875,1.1329375,0.8840625,-0.4165,-0.3933125,1.133,0.019512931828886203,0.020242484492419797,True
24063,308,0,309,3593.0,37967.0,28592.0,0.014395999999999999,-0.00366,-0.001098,-0.12250000000000001,-7.210000000000001,-2.4675000000000002,0.9030312500000001,0.062625,0.10262500000000001,1.1393125,0.88590625,-0.41200000000000003,-0.39775,1.1378125000000001,0.019442282484024253,0.020509063335758422,True
24064,309,0,310,3593.0,37966.0,28591.0,0.015372,-0.0028669999999999998,-0.004514,-0.052500000000000005,-7.140000000000001,-2.6950000000000003,0.902,0.06009375,0.1026875,1.13096875,0.88925,-0.412125,-0.37940625,1.114625,0.019343615109295074,0.01977463048346389,True
24065,310,0,311,3594.0,37965.0,28592.0,0.011467999999999999,-0.004392,-0.008601,0.0175,-6.930000000000001,-2.87,0.8954375,0.06153125,0.10228125,1.13453125,0.84375,-0.40225,-0.38534375,1.11603125,0.019005675706133655,0.01999664245044731,True
24066,311,0,312,3594.0,37964.0,28591.0,0.007625,-0.002379,-0.009882,0.17500000000000002,-6.580000000000001,-3.4825000000000004,0.9021250000000001,0.06428125,0.0991875,1.135125,0.87334375,-0.40903125,-0.39159375,1.1128437500000001,0.019390876071740865,0.020120917682961984,True
24067,312,0,313,3595.0,37963.0,28591.0,0.007442,-0.001098,-0.008235,0.35000000000000003,-6.055000000000001,-3.7100000000000004,0.88778125,0.058,0.10078125,1.136125,0.86640625,-0.40775,-0.39028125,1.12475,0.019082053855844966,0.020133531670529628,True
24068,313,0,314,3595.0,37964.0,28592.0,0.008113,0.002562,-0.0050019999999999995,0.4025,-5.32,-3.7100000000000004,0.90240625,0.0614375,0.10321875,1.1313125,0.879625,-0.40590625,-0.382875,1.1127500000000001,0.019148797230178656,0.01993586687377924,True
24069,314,0,315,3594.0,37967.0,28591.0,0.008784,0.005063,-0.0018909999999999999,0.5775,-4.2875000000000005,-3.7275000000000005,0.89553125,0.0623125,0.10325000000000001,1.131,0.86078125,-0.40353125,-0.386125,1.11134375,0.019089194314859656,0.02006776394363598,True
24070,315,0,316,3597.0,37965.0,28590.0,0.004148,0.004331,0.007991,0.6300000000000001,-1.4000000000000001,-3.8675,0.8959375,0.062625,0.1076875,1.1310625,0.8628125,-0.40371875,-0.388,1.1135625,0.019109536328351596,0.020325057405281285,True
24071,316,0,317,3597.0,37965.0,28591.0,0.0035989999999999998,0.0021349999999999997,0.008479,0.5775,0.10500000000000001,-4.0425,0.8963125000000001,0.06253125,0.101375,1.1339062500000001,0.86290625,-0.40465625,-0.38825,1.106125,0.019143375559735654,0.020076266234764693,True
24072,317,0,318,3595.0,37968.0,28591.0,-0.0017079999999999999,0.0008539999999999999,0.0053679999999999995,0.6300000000000001,1.5575,-4.2525,0.88971875,0.06515625,0.10203125,1.136375,0.86328125,-0.40478125,-0.3885,1.1074375,0.019255960345885094,0.020113219345183182,True
24073,318,0,319,3596.0,37968.0,28593.0,-0.008967,0.000366,0.0032329999999999998,0.7175,2.8175000000000003,-4.585000000000001,0.90128125,0.06046875,0.1024375,1.13559375,0.8653125,-0.406125,-0.38615625000000003,1.12040625,0.019117895610220797,0.02003570160836643,True
24074,319,0,320,3598.0,37970.0,28595.0,-0.015921,-0.001098,-0.001281,0.77,3.4825000000000004,-4.777500000000001,0.89959375,0.06265625,0.10287500000000001,1.13121875,0.870375,-0.40709375000000003,-0.39071875,1.12040625,0.019246453707746337,0.020236949761884324,True
24075,320,0,321,3597.0,37968.0,28595.0,-0.015311,-0.0042699999999999995,-0.0032329999999999998,0.5775,3.3600000000000003,-4.970000000000001,0.89715625,0.06215625,0.10371875,1.13140625,0.86346875,-0.40475,-0.38734375,1.1136875,0.01913177762525738,0.020135956791112193,True
24076,321,0,322,3596.0,37968.0,28596.0,-0.010492,-0.0034159999999999998,-0.002745,0.5075000000000001,3.0625000000000004,-4.795000000000001,0.89634375,0.0624375,0.1029375,1.13246875,0.863,-0.40471875,-0.38821875,1.11365625,0.019142046043861907,0.020139078422855297,True
24077,322,0,323,3596.0,37967.0,28594.0,-0.010248,-0.000549,-0.000915,0.6125,2.8175000000000003,-4.7250000000000005,0.90059375,0.059500000000000004,0.10384375,1.1319062500000001,0.86375,-0.40509375000000003,-0.39021875,1.12096875,0.01903675334170761,0.020256583389601623,True
24078,323,0,324,3598.0,37970.0,28598.0,-0.0066489999999999995,0.004026,0.004697,0.7875000000000001,2.6075000000000004,-4.6025,0.8969375,0.06790625,0.10287500000000001,1.14340625,0.86975,-0.40396875,-0.38809375,1.11340625,0.019335994273472424,0.02013149346697095,True
24079,324,0,325,3598.0,37970.0,28597.0,0.000976,0.003904,0.010431,0.665,2.5200000000000005,-4.41,0.89396875,0.062125,0.10225000000000001,1.1283750000000001,0.8688750000000001,-0.40646875,-0.38978125,1.11378125,0.019199571834823504,0.02017366391918747,True
24080,325,0,326,3599.0,37970.0,28597.0,0.0066489999999999995,-0.005063,0.006222,-0.08750000000000001,2.7475,-4.0600000000000005,0.90271875,0.05453125,0.09959375000000001,1.12559375,0.8625625,-0.40518750000000003,-0.38778125,1.11409375,0.018836927599921127,0.01998439279916044,True
24081,326,0,327,3598.0,37971.0,28598.0,0.000305,-0.0073809999999999995,0.002013,0.035,2.9925,-4.1475,0.8900625,0.06403125,0.1051875,1.126125,0.86971875,-0.40678125,-0.38906250000000003,1.11996875,0.019290233119125446,0.020265231597155486,True
24082,327,0,328,3599.0,37970.0,28597.0,-0.003294,-0.0057339999999999995,-0.0026839999999999998,0.45500000000000007,2.7475,-4.340000000000001,0.8892187500000001,0.06390625,0.10571875,1.12490625,0.87025,-0.40396875,-0.39125,1.1195,0.019172086507445636,0.02037487828627069,True
24083,328,0,329,3599.0,37972.0,28601.0,-0.003355,-0.0013419999999999999,-0.005673,0.8400000000000001,2.1350000000000002,-4.585000000000001,0.8884375,0.06306250000000001,0.10184375,1.13875,0.870125,-0.404125,-0.38190625,1.11346875,0.019143792289213403,0.019840532361984617,True
24084,329,0,330,3601.0,37973.0,28602.0,-0.001647,0.0028669999999999998,-0.007259,1.1375000000000002,1.1725,-4.760000000000001,0.91415625,0.06534375,0.10565625000000001,1.12565625,0.86290625,-0.398125,-0.39028125,1.12025,0.018996080641442734,0.020333406364471503,True
24085,330,0,331,3603.0,37971.0,28601.0,-0.001586,0.004697,-0.0057339999999999995,1.435,0.6125,-4.550000000000001,0.8896875,0.06034375,0.09934375000000001,1.1464375,0.86246875,-0.405,-0.3883125,1.11328125,0.019067557877484122,0.01999548964283609,True
24086,331,0,332,3602.0,37972.0,28599.0,-0.004514,0.005612,-0.0034159999999999998,1.4700000000000002,0.42000000000000004,-4.4975000000000005,0.9029375000000001,0.063875,0.1055625,1.1255,0.86384375,-0.4043125,-0.39015625,1.1204687500000001,0.019184621570470385,0.02032454179132206,True
24087,332,0,333,3603.0,37972.0,28600.0,-0.0042699999999999995,0.0073809999999999995,-0.000305,1.4175000000000002,0.31500000000000006,-4.69,0.8891875,0.06215625,0.10290625,1.13490625,0.8661875,-0.4040625,-0.38656250000000003,1.11303125,0.019104145057815682,0.020071248254033343,True
24088,333,0,334,3603.0,37973.0,28601.0,-0.000732,0.00732,-0.003843,1.33,-0.21000000000000002,-4.9175,0.9153125,0.0571875,0.09734375,1.13584375,0.86371875,-0.39837500000000003,-0.38721875,1.1133125,0.0186718377760814,0.019869526942263557,True
24089,334,0,335,3604.0,37973.0,28601.0,0.0017079999999999999,0.009699,-0.006954,1.33,-0.8225000000000001,-4.9175,0.9063125,0.06684375000000001,0.10540625,1.12665625,0.8638125,-0.4073125,-0.389625,1.11921875,0.01942681112473977,0.020296796281205638,True
24090,335,0,336,3605.0,37976.0,28601.0,-0.000122,0.0062829999999999995,-0.003721,0.7000000000000001,-1.1900000000000002,-5.32,0.8922187500000001,0.0603125,0.10084375,1.13521875,0.8625625,-0.40121875,-0.3879375,1.11353125,0.018914270419382227,0.020041926464671317,True
24091,336,0,337,3604.0,37973.0,28600.0,-0.004209,-0.002196,-0.001952,-0.14,-1.5575,-5.425000000000001,0.8894062500000001,0.06356250000000001,0.1046875,1.13240625,0.8719687500000001,-0.40721875,-0.387875,1.10165625,0.019288606982309282,0.020197024135969206,True
24092,337,0,338,3605.0,37976.0,28600.0,-0.0042699999999999995,-0.009943,0.0032329999999999998,-0.9975,-1.8725000000000003,-5.407500000000001,0.90140625,0.05984375,0.10265625,1.1276875,0.8628125,-0.40434375,-0.38740625,1.11340625,0.019020691756974618,0.02009490041607028,True
24093,338,0,339,3605.0,37972.0,28599.0,-0.003538,-0.015372,0.005612,-1.6275000000000002,-2.2225,-5.355,0.90465625,0.059812500000000005,0.10103125,1.13740625,0.8641562500000001,-0.40434375,-0.39140625,1.11409375,0.019019411247229296,0.020188975369142565,True
24094,339,0,340,3606.0,37970.0,28596.0,-0.004026,-0.014457,0.00732,-1.9425000000000001,-2.8350000000000004,-5.197500000000001,0.900625,0.062375,0.10409375,1.13175,0.8609375,-0.40725,-0.38596875,1.12175,0.01924120906697805,0.020096084966893104,True
24095,340,0,341,3604.0,37968.0,28596.0,0.0046359999999999995,-0.0042699999999999995,0.011407,-1.7675,-3.7625,-4.9175,0.8968125,0.06275,0.1038125,1.1273125,0.86959375,-0.40321875,-0.3901875,1.11690625,0.01909456104023163,0.020254046837483313,True
24096,341,0,342,3605.0,37967.0,28594.0,0.005429,-0.003721,0.012871,-1.6800000000000002,-3.9375000000000004,-4.6375,0.8966875,0.062125,0.1033125,1.13703125,0.86334375,-0.403625,-0.38825,1.11403125,0.019085279338622845,0.020155710229311247,True
24097,342,0,343,3602.0,37967.0,28595.0,0.0050019999999999995,-0.0044529999999999995,0.011651,-1.54,-3.9725000000000006,-4.567500000000001,0.90246875,0.05915625,0.1005,1.13859375,0.8634375,-0.4049375,-0.39103125,1.1201875000000001,0.019016387565016304,0.020152130714030384,True
24098,343,0,344,3603.0,37964.0,28593.0,0.004941,-0.00366,0.009577,-1.33,-4.095000000000001,-4.6025,0.900625,0.06109375,0.1046875,1.13334375,0.86953125,-0.40590625,-0.38921875,1.121875,0.01913471252476027,0.020251007425155836,True
24099,344,0,345,3602.0,37967.0,28595.0,0.004575,-0.0030499999999999998,0.00244,-0.8750000000000001,-4.2875000000000005,-4.655,0.89659375,0.06184375,0.10384375,1.12184375,0.8611875,-0.406125,-0.3891875,1.1163125,0.019174233926934327,0.020215156818979726,True
24100,345,0,346,3602.0,37965.0,28594.0,0.005307,0.002989,-0.010187,0.035,-4.812500000000001,-4.83,0.8961875,0.06268750000000001,0.104125,1.1313125,0.85765625,-0.40384375,-0.38771875,1.11996875,0.019117121662443032,0.020167681735299658,True
24101,346,0,347,3601.0,37967.0,28593.0,0.0071979999999999995,0.0035989999999999998,-0.013297999999999999,0.15750000000000003,-4.7075000000000005,-4.8475,0.8956875,0.06281250000000001,0.1039375,1.131125,0.87065625,-0.405625,-0.38796875000000003,1.11365625,0.019193833388819175,0.020170037736332594,True
24102,347,0,348,3601.0,37965.0,28592.0,0.007808,0.003111,-0.014518,0.17500000000000002,-4.235,-4.8475,0.8963125000000001,0.0625,0.1030625,1.13496875,0.863,-0.402125,-0.3884375,1.1140625,0.019040349969521097,0.02015299258101303,True
24103,348,0,349,3598.0,37965.0,28592.0,0.0064659999999999995,0.003477,-0.011101999999999999,0.22750000000000004,-3.5525,-4.9,0.90565625,0.060375,0.10478125,1.1315625,0.86271875,-0.4054375,-0.3901875,1.11625,0.019086422851464967,0.020293765679333133,True
24104,349,0,350,3599.0,37965.0,28590.0,0.004697,0.003843,-0.0055509999999999995,0.29750000000000004,-2.5725000000000002,-5.022500000000001,0.8930625,0.059437500000000004,0.1018125,1.13171875,0.86365625,-0.40396875,-0.387,1.119125,0.018988970800087587,0.02004397834912043,True
24105,350,0,351,3599.0,37964.0,28590.0,-0.002989,0.005063,0.0023179999999999997,0.385,-0.7525000000000001,-5.3725000000000005,0.896375,0.0623125,0.1031875,1.1378125000000001,0.86909375,-0.40468750000000003,-0.38825,1.113375,0.019135668096549076,0.020150584810308243,True
24106,351,0,352,3597.0,37965.0,28590.0,-0.004697,0.005307,0.0030499999999999998,0.36750000000000005,-0.14,-5.460000000000001,0.9028125,0.0610625,0.10340625,1.1289375,0.8679687500000001,-0.40684375,-0.39003125,1.114125,0.01917110851336523,0.020231113890024226,True
24107,352,0,353,3597.0,37966.0,28591.0,-0.005673,0.004148,0.004514,0.24500000000000002,0.15750000000000003,-5.495,0.90253125,0.059625000000000004,0.10159375,1.1315,0.863625,-0.404375,-0.390125,1.11975,0.019012984352190947,0.02016056703276428,True
24108,353,0,354,3598.0,37969.0,28592.0,-0.007808,0.002379,0.0026839999999999998,0.17500000000000002,0.08750000000000001,-5.495,0.8960625,0.06284375,0.10287500000000001,1.13134375,0.86984375,-0.40540625,-0.387375,1.11371875,0.01918632270257743,0.020102614570038802,True
24109,354,0,355,3598.0,37963.0,28591.0,-0.007869,-0.000549,0.0023179999999999997,-0.035,-0.052500000000000005,-5.285,0.89759375,0.059500000000000004,0.1015625,1.1363125,0.8638125,-0.40396875,-0.38690625,1.11825,0.018991531858931755,0.02002995972480109,True
24110,355,0,356,3598.0,37965.0,28593.0,-0.011041,-0.00488,0.002623,-0.35000000000000003,-1.1375000000000002,-5.197500000000001,0.90053125,0.063,0.1026875,1.13459375,0.86040625,-0.40615625,-0.39015625,1.109625,0.019222865132644557,0.02020666636770726,True
24111,356,0,357,3598.0,37966.0,28595.0,-0.007137,-0.0030499999999999998,0.005063,-0.385,-2.0650000000000004,-5.197500000000001,0.9000312500000001,0.061875,0.1026875,1.13434375,0.87153125,-0.40659375000000003,-0.38753125,1.12009375,0.019194351936144306,0.02010120438082473,True
24112,357,0,358,3597.0,37964.0,28593.0,-0.0037819999999999998,-0.000976,0.003172,-0.28,-3.0975,-5.0575,0.89978125,0.06553125,0.10465625,1.13140625,0.86953125,-0.40725,-0.38975,1.11925,0.019370525151338226,0.02027106673910147,True
24113,358,0,359,3597.0,37965.0,28594.0,-0.00366,0.0008539999999999999,0.002257,-0.15750000000000003,-4.130000000000001,-4.9,0.897,0.06306250000000001,0.10387500000000001,1.13240625,0.8611562500000001,-0.40625,-0.38903125,1.12003125,0.0192291933418694,0.020210161073945895,True
24114,359,0,360,3596.0,37965.0,28595.0,-0.00732,0.0008539999999999999,0.002013,-0.14,-5.215000000000001,-4.83,0.8964375,0.06306250000000001,0.10321875,1.12578125,0.87115625,-0.4034375,-0.3909375,1.1111875,0.019116159352550233,0.020259830111081213,True
24115,360,0,361,3599.0,37962.0,28597.0,0.001098,0.0044529999999999995,-0.006222,-0.1925,-8.33,-4.357500000000001,0.8961875,0.06281250000000001,0.10415625,1.1242812500000001,0.85728125,-0.40440625,-0.38665625000000003,1.11340625,0.019144852171931043,0.020126272948961587,True
24116,361,0,362,3599.0,37964.0,28597.0,0.011956,0.00549,-0.0073809999999999995,-0.43750000000000006,-9.765,-4.2700000000000005,0.89646875,0.062125,0.10234375,1.13740625,0.861625,-0.40368750000000003,-0.38746875000000003,1.11153125,0.019087791547896193,0.020084597750637815,True
24117,362,0,363,3601.0,37964.0,28596.0,0.019398,0.0028669999999999998,-0.0042699999999999995,-0.9625000000000001,-10.22,-4.0075,0.90315625,0.058875000000000004,0.10209375,1.1435,0.867,-0.4085625,-0.38906250000000003,1.1139375,0.01915055423685848,0.020138381702863733,True
24118,363,0,364,3601.0,37963.0,28597.0,0.017324,-0.003538,0.000915,-1.3650000000000002,-9.852500000000001,-3.7975000000000003,0.89553125,0.06306250000000001,0.104875,1.1322812500000001,0.87509375,-0.4085625,-0.39090625,1.12359375,0.019322112885590867,0.02032647925904762,True
24119,364,0,365,3601.0,37962.0,28596.0,0.012871,-0.009943,0.004209,-1.7850000000000001,-9.065000000000001,-3.6225000000000005,0.897875,0.064,0.10790625000000001,1.1396875,0.87503125,-0.40946875,-0.3918125,1.1234375,0.0193969297262973,0.020487151170090374,True
24120,365,0,366,3600.0,37963.0,28595.0,0.008113,-0.013054,0.009394,-1.9600000000000002,-7.612500000000001,-3.6050000000000004,0.90978125,0.052625,0.09346875,1.15078125,0.8693125,-0.39978125000000003,-0.3863125,1.1118125,0.018541405980842553,0.019674202485513135,True
24121,366,0,367,3602.0,37959.0,28594.0,0.008173999999999999,-0.011651,0.0075639999999999995,-1.5925000000000002,-7.0875,-3.7275000000000005,0.91928125,0.05378125,0.10325000000000001,1.1440000000000001,0.8609687500000001,-0.40384375,-0.3879375,1.1165625000000001,0.018752168907818056,0.02014059204473523,True
24122,367,0,368,3601.0,37960.0,28597.0,0.0070149999999999995,-0.007991,0.002806,-1.1725,-6.807500000000001,-4.0075,0.9032187500000001,0.05915625,0.1063125,1.1364375,0.86903125,-0.409375,-0.385875,1.1235625,0.019194725387274358,0.020183302834120162,True
24123,368,0,369,3601.0,37958.0,28595.0,0.004697,-0.005063,-0.002379,-0.6825000000000001,-6.4225,-4.2525,0.9098125,0.06015625,0.10878125,1.12075,0.8679687500000001,-0.40875,-0.38965625,1.1260625,0.019210580222256364,0.020436429890232664,True
24124,369,0,370,3602.0,37958.0,28594.0,0.003843,-0.001647,-0.004331,-0.07,-5.915000000000001,-4.48,0.8843125000000001,0.06559375,0.106,1.12371875,0.87575,-0.40653125,-0.38409375,1.11103125,0.019344207301068235,0.020098911816232662,True
24125,370,0,371,3601.0,37952.0,28595.0,0.0015249999999999999,0.0071979999999999995,-0.008479,1.12,-5.11,-4.7075000000000005,0.90434375,0.0554375,0.09415625,1.15465625,0.8608750000000001,-0.39937500000000004,-0.387625,1.1103125,0.018640334024949412,0.01975515245949534,True
24126,371,0,372,3604.0,37957.0,28595.0,0.001769,0.010735999999999999,-0.0059169999999999995,1.5225000000000002,-4.515000000000001,-4.8475,0.907625,0.06371875,0.1053125,1.129125,0.86178125,-0.40675,-0.38675,1.111875,0.019276173599516527,0.020177452920130807,True
24127,372,0,373,3603.0,37957.0,28596.0,0.001647,0.010858,-0.0044529999999999995,1.5050000000000001,-3.7800000000000002,-4.777500000000001,0.904875,0.050812500000000003,0.09481250000000001,1.1501875,0.85975,-0.40365625,-0.3873125,1.10440625,0.018622977858082226,0.019769501046907077,True
24128,373,0,374,3603.0,37957.0,28594.0,0.003172,0.009271999999999999,-0.0017079999999999999,1.2950000000000002,-2.9050000000000002,-4.812500000000001,0.905,0.0575625,0.10340625,1.121,0.86534375,-0.40584375,-0.39106250000000004,1.120625,0.01898751195602488,0.02027253835293153,True
24129,374,0,375,3604.0,37956.0,28594.0,0.002257,0.0035989999999999998,0.00244,0.9975,-1.6800000000000002,-4.742500000000001,0.88128125,0.07100000000000001,0.1075,1.12034375,0.8715,-0.40675,-0.3855,1.11746875,0.019574502955125122,0.0202169321933116,True
24130,375,0,376,3604.0,37959.0,28593.0,0.00183,6.1e-05,0.004331,0.9275000000000001,1.05,-4.6025,0.8844375,0.06475,0.10740625000000001,1.1221875000000001,0.86590625,-0.40390625,-0.3875,1.113875,0.019204148925953197,0.020293439261916967,True
24131,376,0,377,3603.0,37958.0,28594.0,0.000488,-0.002928,0.0044529999999999995,0.7525000000000001,2.3625000000000003,-4.62,0.8875937500000001,0.064625,0.10678125000000001,1.13403125,0.8661875,-0.4055625,-0.39006250000000003,1.12103125,0.01926558750694642,0.020370745257417854,True
24132,377,0,378,3603.0,37957.0,28595.0,-0.003355,-0.0070149999999999995,0.002257,0.7350000000000001,3.535,-4.62,0.89878125,0.059562500000000004,0.1001875,1.13921875,0.87040625,-0.40684375,-0.38815625,1.11621875,0.01910965034141295,0.020023807662787135,True
24133,378,0,379,3605.0,37957.0,28594.0,-0.006161,-0.005673,0.000366,0.9275000000000001,4.41,-4.8825,0.903875,0.06003125,0.100625,1.13890625,0.86690625,-0.40771875,-0.3903125,1.12071875,0.019164019578847367,0.02012838088892875,True
24134,379,0,380,3604.0,37957.0,28593.0,-0.0068319999999999995,-0.000976,-0.001037,1.5225000000000002,5.880000000000001,-5.1625000000000005,0.90153125,0.06309375,0.1040625,1.1245625000000001,0.8665625,-0.4049375,-0.38728125,1.1144687500000001,0.019177727867567784,0.020147541046626506,True
24135,380,0,381,3604.0,37955.0,28595.0,-0.007259,-0.000244,-0.0013419999999999999,1.7850000000000001,6.335000000000001,-5.197500000000001,0.896875,0.062375,0.10690625000000001,1.131,0.8570625000000001,-0.40434375,-0.38821875,1.11353125,0.01912441304634549,0.020301810684718417,True
24136,381,0,382,3606.0,37956.0,28594.0,-0.011224,0.002013,-0.000793,1.9425000000000001,6.720000000000001,-5.3725000000000005,0.899375,0.060125,0.1010625,1.14021875,0.864,-0.4045,-0.38896875000000003,1.1198125,0.019038496998504375,0.020092331702216807,True
24137,382,0,383,3606.0,37955.0,28596.0,-0.011407,0.0023179999999999997,-0.000305,2.0825,6.8950000000000005,-5.3375,0.90190625,0.05909375,0.10128125,1.13775,0.8705,-0.40618750000000003,-0.39025,1.1210625,0.019064069306195405,0.020152776211805945,True
24138,383,0,384,3606.0,37958.0,28597.0,-0.012139,0.003294,-0.000732,2.1,6.8775,-5.2675,0.9036875,0.060625,0.10134375,1.14046875,0.87065625,-0.4069375,-0.39059375,1.1220625,0.019156950764511113,0.020169148198780525,True
24139,384,0,385,3607.0,37957.0,28597.0,-0.011346,0.002379,0.005063,2.2225,5.5475,-5.32,0.9032187500000001,0.06121875,0.1006875,1.1378125000000001,0.87153125,-0.40675,-0.39009375,1.119875,0.019173742919479243,0.020122155127017503,True
24140,385,0,386,3606.0,37958.0,28598.0,-0.009028,0.001464,-0.007869,2.1,4.077500000000001,-5.565,0.88846875,0.060375,0.1044375,1.131,0.8698125,-0.40734375,-0.38821875,1.119875,0.01916303366686512,0.0202005835297012,True
24141,386,0,387,3608.0,37957.0,28598.0,0.0042699999999999995,0.006893,-0.008418,1.6625,2.8350000000000004,-5.775,0.8910625,0.06284375,0.10346875,1.122625,0.86653125,-0.40325,-0.38746875000000003,1.1109375000000001,0.019099658856914548,0.020130727999395182,True
24142,387,0,388,3608.0,37956.0,28597.0,0.00366,0.0068319999999999995,-0.0070149999999999995,1.8025000000000002,2.3625000000000003,-5.652500000000001,0.89690625,0.06196875,0.10175000000000001,1.1302812500000001,0.86346875,-0.40459375000000003,-0.3879375,1.11090625,0.019117814653235112,0.020079086228591492,True
24143,388,0,389,3609.0,37961.0,28597.0,-0.005124,0.0021349999999999997,-0.002745,1.9075000000000002,2.7825,-5.215000000000001,0.89859375,0.0656875,0.10128125,1.1377187500000001,0.85971875,-0.405,-0.38878125,1.1179375,0.019286519155910675,0.02009376749811965,True
24144,389,0,390,3610.0,37961.0,28599.0,-0.012505,0.002379,0.005429,1.5050000000000001,1.435,-4.6725,0.89975,0.0614375,0.10265625,1.1224687500000001,0.8719375,-0.40546875,-0.38815625,1.11328125,0.019131214187393962,0.02012503507722114,True
24145,390,0,391,3611.0,37958.0,28599.0,-0.0008539999999999999,0.0034159999999999998,0.001464,1.2075,-0.35000000000000003,-4.7075000000000005,0.90475,0.0606875,0.10165625,1.128125,0.8639687500000001,-0.40640625,-0.39021875,1.12015625,0.01913816172751775,0.02016689579711129,True
24146,391,0,392,3611.0,37960.0,28601.0,0.0066489999999999995,0.00183,-0.001952,0.8225000000000001,-1.8725000000000003,-4.742500000000001,0.89678125,0.06343750000000001,0.10359375,1.12715625,0.86865625,-0.40359375000000003,-0.38753125,1.1139375,0.01913780629133773,0.020138364763756068,True
24147,392,0,393,3612.0,37958.0,28600.0,0.006222,-0.0030499999999999998,-0.00061,0.385,-3.08,-4.62,0.8929375,0.06225,0.10128125,1.138375,0.86371875,-0.40234375,-0.3866875,1.11365625,0.019038898671362256,0.02000963640510832,True
24148,393,0,394,3612.0,37960.0,28603.0,0.008723,-0.0046359999999999995,0.0017079999999999999,0.0,-3.7975000000000003,-4.357500000000001,0.895625,0.06184375,0.10400000000000001,1.13178125,0.8671562500000001,-0.40565625,-0.3889375,1.1167500000000001,0.019155395585808106,0.02021152007954426,True
24149,394,0,395,3613.0,37957.0,28602.0,0.010248,-0.006588,0.0044529999999999995,-0.35000000000000003,-4.2875000000000005,-3.8500000000000005,0.8939375,0.0621875,0.10262500000000001,1.1320000000000001,0.86390625,-0.40475,-0.38775,1.11003125,0.019133058113686884,0.0201074309848182,True
24150,395,0,396,3613.0,37958.0,28603.0,0.007259,-0.006161,0.0053679999999999995,-0.14,-4.375,-3.6750000000000003,0.90209375,0.06071875,0.10303125,1.13090625,0.86371875,-0.40428125,-0.38965625,1.1167500000000001,0.019054033808104876,0.020200674209994246,True
24151,396,0,397,3613.0,37960.0,28603.0,0.0059169999999999995,-0.0017079999999999999,0.002806,0.14,-4.567500000000001,-3.6400000000000006,0.8965,0.060875,0.09925,1.1393125,0.86371875,-0.40421875,-0.38878125,1.1095,0.019057924155019307,0.020010481253547673,True
24152,397,0,398,3613.0,37957.0,28602.0,0.007991,0.00061,0.001098,0.29750000000000004,-4.585000000000001,-3.7800000000000002,0.9040312500000001,0.061,0.10162500000000001,1.1326875,0.86840625,-0.4020625,-0.38975,1.12034375,0.01897636726403762,0.02014678297235519,True
24153,398,0,399,3614.0,37956.0,28598.0,0.010492,0.002074,-0.001037,0.42000000000000004,-4.445,-3.7625,0.89790625,0.06259375,0.10371875,1.1320000000000001,0.8725,-0.40268750000000003,-0.387375,1.11415625,0.019066803605135706,0.020137212389607327,True
24154,399,0,400,3615.0,37956.0,28596.0,0.002562,-0.002562,-0.001647,0.35000000000000003,-3.0450000000000004,-3.4650000000000003,0.89578125,0.06293750000000001,0.1046875,1.13234375,0.86134375,-0.40434375,-0.38565625000000003,1.115,0.01914746222176124,0.020107875915785535,True
24155,400,0,401,3615.0,37954.0,28594.0,-0.001037,-0.001952,-0.000915,0.3325,-2.1525000000000003,-3.43,0.8973125000000001,0.0604375,0.1005625,1.134875,0.861,-0.4049375,-0.3954375,1.12303125,0.019068887187275115,0.020331670624886312,True
24156,401,0,402,3614.0,37953.0,28593.0,-0.002989,-0.001037,-0.000549,0.525,-1.4700000000000002,-3.535,0.89659375,0.06403125,0.10259375,1.1293125,0.8601875,-0.402375,-0.38556250000000003,1.10734375,0.0191131498470948,0.020018248502571966,True
24157,402,0,403,3614.0,37952.0,28593.0,-0.003843,-6.1e-05,-0.003355,0.5950000000000001,-1.0850000000000002,-3.7275000000000005,0.88953125,0.06259375,0.10025,1.13934375,0.85790625,-0.40390625,-0.39296875000000003,1.12775,0.019115792169542532,0.02021970982929251,True
24158,403,0,404,3612.0,37950.0,28592.0,-0.0040869999999999995,0.002257,-0.00183,0.7175,-0.7875000000000001,-3.99,0.8980312500000001,0.06321875,0.10262500000000001,1.13184375,0.87490625,-0.401125,-0.38,1.10775,0.019029604167840622,0.019795939294503694,True
24159,404,0,405,3612.0,37950.0,28592.0,-0.000305,0.0011589999999999999,-0.002379,0.5075000000000001,0.2625,-4.2525,0.8925625,0.0624375,0.10209375,1.13775,0.85753125,-0.405125,-0.38971875,1.11946875,0.019158373497369915,0.020164746672201785,True
24160,405,0,406,3611.0,37951.0,28589.0,-0.000976,-0.000976,-0.000122,0.4025,1.0325000000000002,-4.235,0.90446875,0.059937500000000005,0.10540625,1.13403125,0.87415625,-0.4064375,-0.39340625,1.12253125,0.019108688025444107,0.020448661203270862,True
24161,406,0,407,3611.0,37948.0,28589.0,0.0008539999999999999,-0.002989,0.002928,0.14,2.0125,-4.4625,0.89865625,0.06268750000000001,0.10262500000000001,1.13196875,0.8637812500000001,-0.40353125,-0.38509375,1.1138125,0.01910456094340855,0.02000069202112459,True
24162,407,0,408,3610.0,37950.0,28587.0,-0.002745,-0.006344,0.005978,0.10500000000000001,2.9400000000000004,-4.340000000000001,0.897375,0.06315625,0.10303125,1.12815625,0.858,-0.40218750000000003,-0.382125,1.10825,0.019069755529089353,0.019898029806671897,True
24163,408,0,409,3609.0,37947.0,28586.0,-0.008845,-0.005795,0.0055509999999999995,0.36750000000000005,3.5175000000000005,-4.375,0.89725,0.06228125,0.1020625,1.1320000000000001,0.8575625,-0.4038125,-0.38759375,1.10109375,0.019099218615943717,0.020078087859734008,True
24164,409,0,410,3609.0,37948.0,28587.0,-0.005978,0.003965,-0.00061,1.12,3.0625000000000004,-4.7250000000000005,0.89471875,0.0625,0.10250000000000001,1.1315,0.85771875,-0.40218750000000003,-0.38578125,1.108875,0.019042862448294853,0.020023194868936174,True
24165,410,0,411,3609.0,37947.0,28588.0,-0.005246,0.006893,-0.0015249999999999999,1.4525000000000001,2.5025000000000004,-4.6025,0.8972187500000001,0.063,0.10237500000000001,1.13265625,0.84546875,-0.40328125000000004,-0.3875,1.1141875,0.019107317791536745,0.020087134802665302,True
24166,411,0,412,3608.0,37947.0,28584.0,-0.00366,0.0060999999999999995,-0.0032329999999999998,1.5925000000000002,1.9250000000000003,-4.6025,0.8984375,0.0616875,0.10128125,1.13509375,0.86153125,-0.4038125,-0.387875,1.1145625000000001,0.019074888401146337,0.020057354320538383,True
24167,412,0,413,3608.0,37947.0,28588.0,-0.0034159999999999998,0.003904,-0.0025009999999999998,1.4000000000000001,1.33,-4.6025,0.896625,0.0620625,0.1014375,1.1309375,0.86240625,-0.4038125,-0.38296875,1.1127500000000001,0.019090254852597317,0.019866582078935734,True
24168,413,0,414,3609.0,37948.0,28587.0,-0.0030499999999999998,0.002623,-0.0037819999999999998,1.2775,0.77,-4.515000000000001,0.8961875,0.06225,0.10175000000000001,1.133625,0.8634375,-0.4043125,-0.38790625,1.113625,0.019118034978448994,0.02007783058457509,True
24169,414,0,415,3607.0,37947.0,28590.0,-0.003477,0.0055509999999999995,-0.002562,1.61,-0.9275000000000001,-4.357500000000001,0.89784375,0.0603125,0.1010625,1.1395,0.86321875,-0.40353125,-0.38884375,1.1189375,0.019007238962598906,0.020087309387104502,True
24170,415,0,416,3608.0,37948.0,28588.0,-0.0011589999999999999,0.0062829999999999995,-0.011712,1.4000000000000001,-1.8375000000000001,-4.2700000000000005,0.90265625,0.06,0.1000625,1.13696875,0.867625,-0.4063125,-0.39171875,1.11965625,0.019106225080089426,0.020161812090425158,True
24171,416,0,417,3608.0,37950.0,28591.0,0.004697,0.008173999999999999,-0.005246,1.1025,-2.6950000000000003,-4.2700000000000005,0.8983125000000001,0.06390625,0.10278125,1.1326875,0.8717812500000001,-0.40690625,-0.39109375,1.115125,0.019290134324173102,0.020248169477844757,True
24172,417,0,418,3610.0,37950.0,28592.0,0.002562,0.005795,0.001281,1.0325000000000002,-3.0275000000000003,-4.077500000000001,0.8985,0.06256250000000001,0.10896875,1.13671875,0.87128125,-0.40509375000000003,-0.39084375,1.11728125,0.019162239440280785,0.020491808529583978,True
24173,418,0,419,3611.0,37951.0,28593.0,-0.001647,6.1e-05,0.0023179999999999997,0.6125,-3.325,-3.8850000000000002,0.9011250000000001,0.05965625,0.10190625,1.1368125,0.8670625000000001,-0.4069375,-0.39040625,1.12196875,0.01911725918091936,0.020184678145736094,True
24174,419,0,420,3610.0,37950.0,28593.0,0.0057339999999999995,-0.0066489999999999995,0.005307,-0.5425000000000001,-4.1475,-3.6400000000000006,0.903375,0.06071875,0.09965625,1.1386875,0.8705,-0.405875,-0.392,1.1196875,0.01911809144314637,0.020156454985241063,True
24175,420,0,421,3610.0,37949.0,28593.0,0.008173999999999999,-0.008296,0.004514,-0.7000000000000001,-4.2700000000000005,-3.6050000000000004,0.9026875,0.060375,0.0988125,1.13671875,0.87109375,-0.40734375,-0.3921875,1.12025,0.01916303366686512,0.02012939593876113,True
24176,421,0,422,3612.0,37950.0,28595.0,0.005246,-0.008967,0.0051849999999999995,-0.7000000000000001,-3.99,-3.7800000000000002,0.90346875,0.059125000000000004,0.10153125,1.14078125,0.86521875,-0.40440625,-0.3893125,1.119125,0.018993752408952787,0.020125362287272346,True
24177,422,0,423,3611.0,37949.0,28594.0,0.002745,-0.008784,0.005429,-0.6125,-3.8150000000000004,-3.7100000000000004,0.905625,0.06003125,0.0989375,1.1400000000000001,0.866125,-0.4060625,-0.38956250000000003,1.11321875,0.01909745785498992,0.02002905956185151,True
24178,423,0,424,3614.0,37950.0,28594.0,0.001769,-0.0059169999999999995,0.00366,-0.45500000000000007,-3.5700000000000003,-3.6575,0.904875,0.05996875,0.09840625,1.1341875000000001,0.8640625000000001,-0.405125,-0.38803125,1.11521875,0.0190572164658038,0.01994574695323141,True
24179,424,0,425,3614.0,37947.0,28595.0,0.0023179999999999997,-0.003477,-0.0018909999999999999,-0.10500000000000001,-3.43,-3.9025000000000003,0.90753125,0.05715625,0.09903125,1.14140625,0.86946875,-0.4044375,-0.38971875,1.1220625,0.018914336788135356,0.020039181468625995,True
24180,425,0,426,3614.0,37947.0,28593.0,0.003294,-0.000549,-0.003111,0.29750000000000004,-3.3075,-4.025,0.905625,0.05921875,0.10162500000000001,1.1303750000000001,0.871375,-0.40709375000000003,-0.38906250000000003,1.1230625,0.019105613506319244,0.020119162021910438,True
24181,426,0,427,3615.0,37948.0,28594.0,0.003477,0.003111,-0.004514,0.49000000000000005,-3.0975,-4.165,0.89384375,0.06343750000000001,0.1031875,1.13065625,0.8698125,-0.40434375,-0.389125,1.1175625,0.01916795037768635,0.02018573852075464,True
24182,427,0,428,3613.0,37949.0,28592.0,0.001281,0.0050019999999999995,-0.004026,0.7350000000000001,-2.555,-4.2175,0.89390625,0.06375,0.1035625,1.129375,0.870625,-0.4034375,-0.39125,1.1194375,0.01914433161311803,0.020286475682878082,True
24183,428,0,429,3616.0,37949.0,28595.0,-0.00042699999999999997,0.0062829999999999995,-0.003294,0.805,-2.2225,-4.2700000000000005,0.89425,0.064375,0.10415625,1.1214375,0.86925,-0.404875,-0.38765625000000004,1.11375,0.019227715774000072,0.02016645203452054,True
24184,429,0,430,3614.0,37948.0,28596.0,-0.001403,0.004514,0.000915,0.6300000000000001,-1.61,-4.48,0.89378125,0.06306250000000001,0.106875,1.1318125,0.85821875,-0.40353125,-0.3813125,1.114625,0.01911992757195744,0.020023019679518892,True
24185,430,0,431,3616.0,37950.0,28594.0,-0.0018909999999999999,0.001464,0.000915,0.36750000000000005,-1.435,-4.3925,0.907375,0.05878125,0.099375,1.14315625,0.8639375,-0.40365625,-0.3906875,1.11759375,0.018949517042144044,0.020092197073165733,True
24186,431,0,432,3616.0,37952.0,28597.0,-0.001281,-0.0013419999999999999,0.00183,0.07,-1.2775,-4.4625,0.9089375000000001,0.05684375,0.09996875000000001,1.1424375,0.86684375,-0.40384375,-0.3896875,1.10959375,0.018877661433969805,0.02007636424205927,True
24187,432,0,433,3617.0,37949.0,28597.0,-0.003721,-0.0023179999999999997,0.0023179999999999997,0.0,-1.1725,-4.322500000000001,0.90940625,0.058,0.1045625,1.14103125,0.8615625,-0.40378125000000004,-0.39,1.1180625,0.018922528655267307,0.020277265272652726,True
24188,433,0,434,3616.0,37951.0,28595.0,-0.0032329999999999998,-0.003721,0.0023179999999999997,-0.12250000000000001,-1.3475000000000001,-4.305000000000001,0.9038437500000001,0.05940625,0.0990625,1.134875,0.86053125,-0.4045625,-0.38953125,1.11565625,0.019011557777362326,0.020032929087146763,True
24189,434,0,435,3615.0,37953.0,28599.0,-0.002928,-0.001464,0.00183,0.052500000000000005,-1.5925000000000002,-4.340000000000001,0.90759375,0.05940625,0.09959375000000001,1.13853125,0.86384375,-0.40353125,-0.38846875000000003,1.1080625,0.018970102943605755,0.020012018999757828,True
24190,435,0,436,3617.0,37952.0,28599.0,-0.0015249999999999999,-0.000793,0.001281,-0.0175,-1.7500000000000002,-4.165,0.9040625,0.06209375,0.10040625,1.1274375,0.86446875,-0.40384375,-0.38815625,1.108,0.019092791478801368,0.020032777180521794,True
24191,436,0,437,3617.0,37949.0,28600.0,0.00042699999999999997,-0.001464,0.002806,0.0,-2.0125,-3.99,0.90290625,0.06196875,0.09965625,1.1399375,0.8644375,-0.4038125,-0.389625,1.11896875,0.019086413239734572,0.020061040298897586,True
24192,437,0,438,3618.0,37951.0,28600.0,0.000244,-0.001952,0.002257,0.0,-2.0475000000000003,-3.9375000000000004,0.90271875,0.06346875,0.10296875,1.1320625,0.86975,-0.405125,-0.38790625,1.115,0.019200628966251965,0.02012780412422653,True
24193,438,0,439,3619.0,37950.0,28601.0,0.001098,0.000183,0.000183,0.08750000000000001,-1.995,-3.8675,0.89659375,0.06253125,0.1055,1.13153125,0.863625,-0.40296875,-0.38715625000000004,1.1155625,0.019075547928978927,0.020201463629036288,True
24194,439,0,440,3619.0,37951.0,28602.0,0.002928,0.0008539999999999999,-0.000183,0.3325,-2.5200000000000005,-3.8850000000000002,0.8965,0.0669375,0.1035625,1.1324375,0.8649687500000001,-0.40165625,-0.3895,1.106875,0.019203358378593667,0.02021617909346235,True
24195,440,0,441,3617.0,37948.0,28600.0,0.004148,0.002074,-0.002623,0.36750000000000005,-2.5725000000000002,-3.8675,0.89671875,0.06275,0.10250000000000001,1.1319375,0.8549375,-0.40321875,-0.38459375,1.1075625,0.01909456104023163,0.019975471192748496,True
24196,441,0,442,3619.0,37952.0,28600.0,0.0062829999999999995,0.000488,-0.002989,0.31500000000000006,-2.5725000000000002,-3.7800000000000002,0.89728125,0.06340625,0.1024375,1.1320937500000001,0.849,-0.4000625,-0.38390625,1.09946875,0.01899457224750961,0.019945276405415973,True
24197,442,0,443,3619.0,37950.0,28602.0,0.004758,-6.1e-05,-0.0032329999999999998,0.31500000000000006,-2.2575000000000003,-3.6750000000000003,0.8978125,0.06340625,0.10237500000000001,1.1320625,0.849875,-0.39971875,-0.3849375,1.1124375,0.01898075157116309,0.019984160303876113,True
24198,443,0,444,3621.0,37950.0,28601.0,0.0011589999999999999,-0.000366,-0.001403,0.24500000000000002,-1.4000000000000001,-3.6400000000000006,0.90296875,0.059875000000000005,0.1008125,1.13253125,0.8683125,-0.41209375,-0.387125,1.1083125,0.019333399045299012,0.020007996022491377,True
24199,444,0,445,3621.0,37954.0,28603.0,0.000183,-6.1e-05,-0.000549,0.45500000000000007,-1.0150000000000001,-3.7450000000000006,0.89625,0.06306250000000001,0.1061875,1.13234375,0.8443125,-0.4003125,-0.38321875,1.10346875,0.018990535469576467,0.02007143745121837,True
24200,445,0,446,3621.0,37951.0,28603.0,-0.0017079999999999999,0.001647,0.000122,0.6125,-0.8225000000000001,-3.8150000000000004,0.89690625,0.06328125,0.10300000000000001,1.12675,0.85303125,-0.40203125,-0.38596875,1.109625,0.01906859700460387,0.020051233355246553,True
24201,446,0,447,3621.0,37953.0,28603.0,-0.005307,0.002013,-0.000244,0.7000000000000001,-0.6125,-3.9025000000000003,0.889125,0.06284375,0.10200000000000001,1.13309375,0.85778125,-0.40453125,-0.39056250000000003,1.1163125,0.019151156611541143,0.02019479870544191,True
24202,447,0,448,3623.0,37953.0,28604.0,-0.0050019999999999995,0.00366,0.000244,0.6300000000000001,-0.56,-3.8325000000000005,0.8993125000000001,0.061625,0.1005,1.1409375,0.86153125,-0.41378125,-0.39575,1.12771875,0.01947286432739705,0.02034165787073568,True
24203,448,0,449,3623.0,37955.0,28604.0,-0.0046359999999999995,0.000122,0.000488,0.43750000000000006,-0.9450000000000001,-3.7975000000000003,0.901875,0.06034375,0.10312500000000001,1.1321875000000001,0.8855625,-0.40800000000000003,-0.38290625,1.105,0.01918812479514913,0.019933278052118992,True
24204,449,0,450,3624.0,37953.0,28605.0,-0.00244,0.000183,0.000366,0.29750000000000004,-1.1025,-3.7975000000000003,0.896625,0.06296875,0.10240625,1.12,0.84465625,-0.40015625,-0.3835,1.10353125,0.018980411242243582,0.019927666249718045,True
24205,450,0,451,3624.0,37953.0,28609.0,-0.0013419999999999999,0.0006709999999999999,0.000976,0.385,-1.2075,-3.6400000000000006,0.89784375,0.05959375,0.10109375,1.13796875,0.85421875,-0.4059375,-0.391125,1.1295625,0.019074507996261154,0.020180239738839433,True
24206,451,0,452,3624.0,37956.0,28609.0,-0.0023179999999999997,-6.1e-05,0.001952,0.42000000000000004,-1.4000000000000001,-3.5175000000000005,0.902875,0.06340625,0.10234375,1.13146875,0.8715937500000001,-0.40640625,-0.3846875,1.112875,0.01924955666096888,0.019972831310632957,True
24207,452,0,453,3625.0,37955.0,28609.0,-0.002745,-0.000183,0.002379,0.4025,-1.6625,-3.5525,0.896875,0.06378125,0.10262500000000001,1.13296875,0.8599687500000001,-0.403125,-0.38609375,1.11721875,0.01913305160711999,0.02004087883078855,True
24208,453,0,454,3625.0,37953.0,28609.0,0.003172,-0.001769,0.0021349999999999997,0.17500000000000002,-1.9250000000000003,-3.535,0.89675,0.063125,0.10228125,1.12903125,0.868,-0.4024375,-0.38746875000000003,1.11525,0.01907852443019268,0.020082034959040183,True
24209,454,0,455,3626.0,37954.0,28610.0,0.000122,-0.0026839999999999998,-0.000976,0.17500000000000002,-2.0125,-3.5175000000000005,0.89684375,0.06275,0.1049375,1.13196875,0.86759375,-0.40525,-0.384125,1.1141875,0.01917620184181682,0.02005659419806944,True
24210,455,0,456,3629.0,37954.0,28609.0,-0.0008539999999999999,-0.0006709999999999999,-0.001098,0.21000000000000002,-2.0825,-3.4650000000000003,0.8973125000000001,0.0669375,0.10209375,1.1361875000000001,0.8640625000000001,-0.40368750000000003,-0.3885,1.115125,0.019284995351624628,0.02011578202841503,True
24211,456,0,457,3628.0,37956.0,28611.0,0.0017079999999999999,0.000366,-0.0017079999999999999,0.42000000000000004,-2.24,-3.4475000000000002,0.90128125,0.06078125,0.1023125,1.13575,0.8639687500000001,-0.40365625,-0.38875,1.1176875,0.01903147197461446,0.020134795756240068,True
24212,457,0,458,3630.0,37952.0,28608.0,0.0021349999999999997,-0.0008539999999999999,-0.0026839999999999998,0.35000000000000003,-2.3975000000000004,-3.535,0.9021875,0.06165625,0.10278125,1.13253125,0.87221875,-0.40650000000000003,-0.38965625,1.1219375,0.019181621699137525,0.020190423963027358,True
24213,458,0,459,3628.0,37952.0,28604.0,0.001952,-0.002013,-0.000549,0.22750000000000004,-2.5375,-3.535,0.8970625,0.06340625,0.10312500000000001,1.1323750000000001,0.86534375,-0.40618750000000003,-0.39078125,1.1206562500000001,0.019240766301578238,0.020249710123573843,True
24214,459,0,460,3629.0,37952.0,28603.0,-0.000122,-0.002806,-0.000732,0.15750000000000003,-2.4325,-3.4475000000000002,0.89675,0.06293750000000001,0.1025625,1.13290625,0.859625,-0.40328125000000004,-0.38796875000000003,1.1141875,0.019104756660541296,0.020113657477111538,True
24215,460,0,461,3629.0,37952.0,28604.0,-0.000976,-0.000793,0.00122,0.21000000000000002,-2.5725000000000002,-3.4825000000000004,0.89690625,0.06115625,0.10375000000000001,1.135375,0.8581875,-0.40368750000000003,-0.38371875,1.11421875,0.0190480946783145,0.01999156711894079,True
24216,461,0,462,3629.0,37949.0,28600.0,6.1e-05,0.0028669999999999998,0.000183,0.3325,-2.7300000000000004,-3.5175000000000005,0.903375,0.064875,0.100375,1.14234375,0.86384375,-0.40409375000000003,-0.38803125,1.1146875,0.019216806606473555,0.02002647302659988,True
24217,462,0,463,3628.0,37948.0,28601.0,0.001769,0.0021349999999999997,0.001769,0.385,-2.9225000000000003,-3.3775000000000004,0.9118125,0.059812500000000005,0.1003125,1.133,0.8628750000000001,-0.39984375,-0.3851875,1.1223125,0.018838491537471424,0.019909627514654134,True
24218,463,0,464,3627.0,37948.0,28599.0,0.0028669999999999998,0.002074,-6.1e-05,0.43750000000000006,-3.0275000000000003,-3.325,0.8945000000000001,0.06356250000000001,0.10328125,1.12896875,0.8655625,-0.405125,-0.3906875,1.123125,0.01920447037251397,0.020252350410376912,True
24219,464,0,465,3627.0,37949.0,28597.0,0.004331,0.000793,-0.001586,0.31500000000000006,-3.115,-3.22,0.8864062500000001,0.06421875,0.10359375,1.12684375,0.87234375,-0.40390625,-0.38940625,1.11765625,0.019182379870025933,0.020213694214060662,True
24220,465,0,466,3627.0,37948.0,28597.0,0.0026839999999999998,0.001098,-0.0011589999999999999,0.14,-2.9925,-3.2025,0.89125,0.06184375,0.09990625,1.13840625,0.8644375,-0.40153125,-0.38725,1.11459375,0.01898958697520263,0.019975858286604677,True
24221,466,0,467,3625.0,37948.0,28596.0,0.000732,-0.0006709999999999999,-0.000732,0.1925,-2.6250000000000004,-3.3075,0.9011250000000001,0.0564375,0.09659375,1.149125,0.86434375,-0.4040625,-0.38909375,1.11515625,0.01886980907379663,0.019914126575531328,True
24222,467,0,468,3627.0,37949.0,28594.0,0.0055509999999999995,-0.001464,0.002074,-0.0175,-2.3625000000000003,-3.325,0.9133125,0.06009375,0.100375,1.14540625,0.86190625,-0.40390625,-0.38184375,1.11453125,0.019013349553414223,0.01977778034116062,True
24223,468,0,469,3625.0,37952.0,28597.0,0.0046359999999999995,-0.005673,0.00042699999999999997,-0.10500000000000001,-1.2075,-3.1850000000000005,0.9121875,0.054906250000000004,0.09778125,1.13871875,0.8543125,-0.4028125,-0.38806250000000003,1.11421875,0.018756803134884554,0.01992137546801842,True
24224,469,0,470,3626.0,37949.0,28596.0,-0.00061,-0.003965,0.0017079999999999999,-0.035,-0.4025,-3.2900000000000005,0.891,0.06553125,0.104875,1.1264687500000001,0.87065625,-0.4063125,-0.389125,1.118125,0.019332857022133106,0.020254929194876814,True
24225,470,0,471,3624.0,37949.0,28597.0,-0.003904,-0.002379,0.0025009999999999998,0.22750000000000004,0.36750000000000005,-3.4650000000000003,0.8891875,0.0646875,0.10453125,1.1262812500000001,0.86921875,-0.400125,-0.38909375,1.120875,0.019049595032812332,0.020239579422667152,True
24226,471,0,472,3625.0,37949.0,28598.0,-0.00732,0.000549,0.0011589999999999999,0.665,0.7000000000000001,-3.6575,0.89034375,0.06415625,0.10521875,1.1268125,0.87,-0.405375,-0.38365625000000003,1.1203125,0.019238845950943183,0.02004929018797171,True
24227,472,0,473,3625.0,37950.0,28598.0,-0.008173999999999999,0.0030499999999999998,-0.0021349999999999997,0.9450000000000001,0.665,-3.8325000000000005,0.893375,0.06265625,0.10115625,1.1429375,0.865,-0.40328125000000004,-0.380125,1.11471875,0.019093231571061783,0.01974072118170026,True
24228,473,0,474,3624.0,37952.0,28598.0,-0.0025009999999999998,0.004697,-0.002379,0.9975,0.5950000000000001,-3.9725000000000006,0.91290625,0.05878125,0.0993125,1.134875,0.8644375,-0.40353125,-0.38859375,1.113875,0.01894449189602427,0.020005509747768872,True
24229,474,0,475,3625.0,37951.0,28600.0,-0.0023179999999999997,0.002379,-0.00122,0.805,0.8750000000000001,-3.7975000000000003,0.8975,0.0615625,0.0998125,1.14196875,0.864125,-0.4035,-0.387375,1.11471875,0.01905720490913189,0.019977037299012297,True
24230,475,0,476,3623.0,37953.0,28600.0,-0.007625,0.000732,-0.001098,0.8400000000000001,0.7875000000000001,-3.8500000000000005,0.903,0.063125,0.10315625,1.13021875,0.86475,-0.4035,-0.39071875,1.1206875,0.019121232610076422,0.02024848078738967,True
24231,476,0,477,3626.0,37952.0,28603.0,-0.0046359999999999995,0.0025009999999999998,0.001403,0.8750000000000001,0.525,-3.99,0.89515625,0.06368750000000001,0.10287500000000001,1.13221875,0.87240625,-0.4043125,-0.3876875,1.11459375,0.019176938502160224,0.020115170821341715,True
24232,477,0,478,3627.0,37952.0,28604.0,-0.003294,0.002806,0.00061,0.8575,0.14,-3.9725000000000006,0.8964375,0.063,0.10284375,1.1315,0.86409375,-0.40303125,-0.38765625000000004,1.1144375,0.019097268909984286,0.020112633824744847,True
24233,478,0,479,3627.0,37955.0,28607.0,-0.002806,-0.000122,0.0013419999999999999,0.4025,-0.8400000000000001,-3.9375000000000004,0.8965,0.063375,0.10690625000000001,1.1323750000000001,0.8641875,-0.40365625,-0.38756250000000003,1.1145,0.01913775727766203,0.02027544778204054,True
24234,479,0,480,3629.0,37954.0,28606.0,-0.001403,-0.00183,0.000244,0.21000000000000002,-1.4000000000000001,-3.6750000000000003,0.8925000000000001,0.0635,0.10253125,1.13265625,0.86475,-0.40334375,-0.38753125,1.11796875,0.01913031897524289,0.020094797418250362,True
24235,480,0,481,3628.0,37953.0,28607.0,-0.001403,-0.003721,0.000793,0.08750000000000001,-2.0300000000000002,-3.5700000000000003,0.89725,0.06306250000000001,0.10359375,1.1300937500000001,0.868,-0.4038125,-0.38790625,1.112625,0.019131232056466586,0.02015343158045804,True
24236,481,0,482,3629.0,37953.0,28609.0,0.002013,-0.003538,0.000793,0.07,-2.5200000000000005,-3.4650000000000003,0.89759375,0.06340625,0.10246875,1.13240625,0.86475,-0.39653125,-0.38696875000000003,1.1144687500000001,0.01885257765896535,0.02006963247533583,True
24237,482,0,483,3627.0,37954.0,28609.0,0.0037819999999999998,-0.002562,0.0015249999999999999,0.15750000000000003,-3.0450000000000004,-3.43,0.8973125000000001,0.0608125,0.10415625,1.1390625,0.8639375,-0.40271875,-0.38806250000000003,1.1161875,0.018995065867404633,0.02018277384683593,True
24238,483,0,484,3630.0,37956.0,28612.0,0.0068319999999999995,-0.0011589999999999999,0.000183,0.24500000000000002,-3.5875000000000004,-3.325,0.8895937500000001,0.062625,0.10237500000000001,1.1320937500000001,0.8708750000000001,-0.40609375000000003,-0.3888125,1.1143125,0.019204988508249095,0.020139869458588852,True
24239,484,0,485,3628.0,37956.0,28614.0,0.007442,0.00042699999999999997,-0.00061,0.3325,-3.5700000000000003,-3.4475000000000002,0.902625,0.0618125,0.10078125,1.1324375,0.86403125,-0.403875,-0.39106250000000004,1.11996875,0.019082522755095244,0.020164916964974362,True
24240,485,0,486,3629.0,37956.0,28613.0,0.00793,0.001464,0.0015249999999999999,0.24500000000000002,-3.4825000000000004,-3.43,0.8876875000000001,0.06328125,0.1026875,1.1322812500000001,0.87228125,-0.40675,-0.39034375,1.10525,0.019258248230510002,0.020214198498124898,True
24241,486,0,487,3631.0,37955.0,28611.0,0.00488,0.0,0.00042699999999999997,0.35000000000000003,-3.08,-3.4475000000000002,0.8971875,0.0615,0.10021875,1.1375,0.8645,-0.40346875,-0.3884375,1.12140625,0.01905338764596734,0.02003639019514883,True
24242,487,0,488,3632.0,37955.0,28613.0,0.001952,-0.000366,0.000976,0.385,-2.5900000000000003,-3.5175000000000005,0.89584375,0.06309375,0.1019375,1.1351875,0.866125,-0.40503125,-0.38778125,1.1148437500000001,0.019181495618859328,0.020080496252606005,True
24243,488,0,489,3630.0,37954.0,28612.0,-0.001769,-0.00244,-0.005063,0.3325,-1.995,-3.5875000000000004,0.89128125,0.0624375,0.10271875,1.13309375,0.864625,-0.40621875,-0.3904375,1.122125,0.01920232932436533,0.02021924575973678,True
24244,489,0,490,3632.0,37955.0,28612.0,-0.0008539999999999999,-0.001098,-0.006161,0.45500000000000007,-1.8725000000000003,-3.6925000000000003,0.89678125,0.06353125,0.10309375,1.1325,0.86784375,-0.40434375,-0.38790625,1.1146562500000001,0.01917179190692231,0.020132929615472833,True
24245,490,0,491,3632.0,37955.0,28610.0,0.000793,0.000488,-0.0044529999999999995,0.6125,-1.7325000000000002,-3.8325000000000005,0.89715625,0.06271875,0.10237500000000001,1.13365625,0.8636875,-0.40340625,-0.38703125,1.11425,0.01910081712465857,0.020068299621340747,True
24246,491,0,492,3633.0,37953.0,28611.0,0.001037,0.003355,-0.0035989999999999998,0.77,-1.4700000000000002,-3.8675,0.89675,0.06281250000000001,0.10225000000000001,1.13203125,0.86434375,-0.40253125,-0.3878125,1.1141875,0.019069486900052633,0.020094565677015928,True
24247,492,0,493,3633.0,37957.0,28614.0,0.000183,0.004026,0.000122,0.7350000000000001,-0.9975,-3.9725000000000006,0.88965625,0.063,0.10290625,1.12978125,0.8643125,-0.40353125,-0.38715625000000004,1.11525,0.01911736646719929,0.02009510641487771,True
24248,493,0,494,3632.0,37954.0,28614.0,-0.000183,0.001952,0.0050019999999999995,0.5775,-0.28,-3.9550000000000005,0.89709375,0.06340625,0.10315625,1.132875,0.8645,-0.40321875,-0.388,1.11059375,0.01912145298455762,0.020139259061833687,True
24249,494,0,495,3634.0,37954.0,28612.0,-0.0030499999999999998,-0.0021349999999999997,0.0053679999999999995,0.45500000000000007,0.0,-3.99,0.89684375,0.06318750000000001,0.10278125,1.13565625,0.8714375,-0.40590625,-0.38875,1.1214375,0.019220501185035897,0.02015401568346061,True
24250,495,0,496,3632.0,37958.0,28613.0,-0.0037819999999999998,-0.001647,0.0051849999999999995,0.35000000000000003,0.0,-4.112500000000001,0.90178125,0.06271875,0.10262500000000001,1.136625,0.8697812500000001,-0.4064375,-0.39006250000000003,1.1174375,0.019222643616054167,0.020200337740011943,True
24251,496,0,497,3633.0,37955.0,28611.0,-0.0037819999999999998,-0.002745,0.001403,0.29750000000000004,0.0,-4.235,0.9008125,0.06053125,0.10053125,1.13578125,0.862375,-0.4035625,-0.38534375,1.1145625000000001,0.019017459028779098,0.01992487803252722,True
24252,497,0,498,3635.0,37955.0,28614.0,-0.000732,-0.002745,-0.0015249999999999999,0.4025,-0.08750000000000001,-4.112500000000001,0.89975,0.06381250000000001,0.10365625,1.133,0.86421875,-0.40296875,-0.388,1.1146875,0.01912805178673189,0.020159760948007217,True
24253,498,0,499,3636.0,37957.0,28615.0,-0.000549,-0.000793,-0.00122,0.47250000000000003,-0.21000000000000002,-4.0075,0.8970312500000001,0.06440625,0.10375000000000001,1.132125,0.85375,-0.40340625,-0.38796875000000003,1.11453125,0.019169967307330303,0.020162349519166088,True
24254,499,0,500,3635.0,37957.0,28614.0,-0.000488,0.00122,-0.000915,0.6300000000000001,-0.21000000000000002,-3.9550000000000005,0.8978125,0.06821875,0.10171875,1.13584375,0.86903125,-0.40578125,-0.39137500000000003,1.1275625,0.019421627816155237,0.020215906237348244,True
24255,500,0,501,3636.0,37958.0,28614.0,-0.002806,0.004758,-0.0015249999999999999,0.9100000000000001,-0.08750000000000001,-3.9725000000000006,0.89946875,0.06306250000000001,0.10234375,1.13378125,0.87546875,-0.40878125,-0.39096875000000003,1.12803125,0.019330901660647232,0.020225211431997757,True
24256,501,0,502,3638.0,37959.0,28614.0,-0.0006709999999999999,0.005063,0.0,1.05,-0.10500000000000001,-3.8850000000000002,0.8979375,0.06353125,0.10209375,1.13625,0.87415625,-0.40815625,-0.39156250000000004,1.12421875,0.01932499510281527,0.020238812089221427,True
24257,502,0,503,3638.0,37959.0,28616.0,0.006527,0.00183,0.0,0.7525000000000001,0.15750000000000003,-3.7625,0.90196875,0.06390625,0.10528125,1.12659375,0.8751875,-0.40146875,-0.3908125,1.12546875,0.019071597893057155,0.02033936958844647,True
24258,503,0,504,3638.0,37959.0,28616.0,0.005673,-0.0050019999999999995,0.000183,0.08750000000000001,0.385,-3.6400000000000006,0.8963125000000001,0.06290625,0.1019375,1.1250625,0.87575,-0.40518750000000003,-0.39009375,1.11765625,0.019180092347170045,0.02017340544252726,True
24259,504,0,505,3639.0,37960.0,28619.0,0.00244,-0.0064659999999999995,0.000122,0.035,0.8750000000000001,-3.6575,0.889875,0.05965625,0.09665625,1.156125,0.8616875,-0.401625,-0.38690625,1.104375,0.018903710306178382,0.019828775944058095,True
24260,505,0,506,3638.0,37959.0,28620.0,0.001464,-0.0050019999999999995,-0.000793,0.22750000000000004,1.1025,-3.7100000000000004,0.9075,0.06703125,0.10746875,1.1264375,0.86240625,-0.4086875,-0.39165625,1.12096875,0.01948973085914595,0.020462940067876693,True
24261,506,0,507,3639.0,37960.0,28621.0,-0.001281,-0.000915,-0.0018909999999999999,0.5775,1.4175000000000002,-3.7800000000000002,0.89915625,0.05709375,0.1030625,1.14228125,0.8623125,-0.40225,-0.38875,1.11634375,0.018823827720804435,0.020165547639792936,True
24262,507,0,508,3640.0,37961.0,28620.0,-0.0035989999999999998,0.0030499999999999998,0.001037,1.0150000000000001,2.0475000000000003,-4.0600000000000005,0.9106875,0.05940625,0.096375,1.1516250000000001,0.869,-0.39684375,-0.3881875,1.11140625,0.018701189574983446,0.01986873768294589,True
24263,508,0,509,3642.0,37962.0,28623.0,-0.005978,0.002562,0.000915,0.9975,2.1175,-4.0600000000000005,0.92221875,0.0506875,0.09496875,1.13621875,0.85521875,-0.39753125,-0.388,1.113,0.01837147969633198,0.01980354067574217,True
24264,509,0,510,3643.0,37963.0,28622.0,-0.008052,0.001281,0.000976,0.9450000000000001,2.1525000000000003,-3.9375000000000004,0.9024375,0.0615,0.1026875,1.132125,0.8610625000000001,-0.402625,-0.38653125,1.10603125,0.0190194702414187,0.02006102241375554,True
24265,510,0,511,3643.0,37961.0,28623.0,-0.008845,0.000976,0.0017079999999999999,0.8575,1.9075000000000002,-3.9375000000000004,0.91703125,0.054843750000000004,0.09828125,1.13934375,0.8613125,-0.400375,-0.3884375,1.11671875,0.01865621942285723,0.01995694681137322,True
24266,511,0,512,3643.0,37964.0,28625.0,-0.008662,0.0008539999999999999,0.001647,1.0325000000000002,1.6625,-3.8500000000000005,0.9199375000000001,0.050625,0.09096875,1.1568125,0.86271875,-0.40221875,-0.3861875,1.1124375,0.018557482605961805,0.019566660430212802,True
24267,512,0,513,3644.0,37961.0,28627.0,-0.006222,0.0017079999999999999,0.001464,0.9800000000000001,0.42000000000000004,-3.7100000000000004,0.914,0.0539375,0.09634375,1.15078125,0.86265625,-0.40359375000000003,-0.38778125,1.11421875,0.018748519365103758,0.019851129343715926,True
24268,513,0,514,3643.0,37963.0,28627.0,-0.0057339999999999995,0.00122,0.001037,0.8575,-0.45500000000000007,-3.6050000000000004,0.9168125,0.054906250000000004,0.09225,1.14621875,0.86309375,-0.40228125000000003,-0.38765625000000004,1.115125,0.018735440974396604,0.019678243988698177,True
24269,514,0,515,3646.0,37963.0,28627.0,-0.002562,0.000305,-0.0011589999999999999,0.7175,-1.2950000000000002,-3.535,0.9105,0.06115625,0.10625,1.1216875,0.86490625,-0.40321875,-0.38778125,1.1146875,0.019029252032582794,0.020257326606945847,True
24270,515,0,516,3645.0,37962.0,28625.0,6.1e-05,0.000244,-0.000976,0.6825000000000001,-2.24,-3.43,0.88428125,0.066125,0.10840625,1.1304687500000001,0.86925,-0.40615625,-0.39015625,1.121375,0.019350906597592563,0.020441135960332354,True
24271,516,0,517,3646.0,37961.0,28622.0,0.003111,-0.001281,-0.001037,0.47250000000000003,-3.0450000000000004,-3.3075,0.8944062500000001,0.062625,0.10215625,1.137,0.87303125,-0.40453125,-0.383875,1.12103125,0.019142193112190998,0.0199324861204382,True
24272,517,0,518,3645.0,37960.0,28621.0,0.010675,-0.002928,0.000915,0.15750000000000003,-4.130000000000001,-3.2550000000000003,0.90378125,0.06125,0.10271875,1.1325,0.856125,-0.4033125,-0.3825625,1.11471875,0.019036862311212873,0.01990279938788222,True
24273,518,0,519,3646.0,37959.0,28621.0,0.001464,-0.004941,-0.0013419999999999999,0.29750000000000004,-4.6375,-3.1675000000000004,0.8972187500000001,0.06346875,0.10312500000000001,1.1330625,0.86403125,-0.4025625,-0.38690625,1.115,0.019097635750343844,0.02009403099255364,True
24274,519,0,520,3647.0,37958.0,28617.0,0.0064659999999999995,-0.00183,-0.002196,0.28,-4.69,-3.22,0.8975625,0.06303125,0.10371875,1.1325,0.865125,-0.40453125,-0.389375,1.11890625,0.01915883961098413,0.020217564000717524,True
24275,520,0,521,3646.0,37956.0,28617.0,0.012565999999999999,0.000183,0.001586,0.29750000000000004,-4.83,-3.3425000000000002,0.8976875,0.06303125,0.1039375,1.1326875,0.86659375,-0.40309375000000003,-0.38406250000000003,1.1138125,0.019101061725011814,0.020013072062950957,True
24276,521,0,522,3645.0,37958.0,28615.0,0.011529,-0.000183,-0.002623,0.42000000000000004,-4.585000000000001,-3.2725000000000004,0.8975625,0.06318750000000001,0.10325000000000001,1.1315,0.86525,-0.4035,-0.38806250000000003,1.11471875,0.019123793718114207,0.020145614273376578,True
24277,522,0,523,3645.0,37960.0,28616.0,0.006039,0.000915,-0.001464,0.385,-3.8325000000000005,-3.4650000000000003,0.89753125,0.0619375,0.1018125,1.1359375,0.86465625,-0.39903125,-0.38778125,1.11421875,0.018892911988052805,0.020075370735088912,True
24278,523,0,524,3645.0,37958.0,28616.0,0.0075639999999999995,0.000122,-0.0013419999999999999,0.4025,-3.2375000000000003,-3.535,0.90509375,0.061875,0.0995,1.13234375,0.86703125,-0.40465625,-0.3903125,1.11903125,0.019116485199417634,0.020082256018654945,True
24279,524,0,525,3644.0,37958.0,28615.0,0.001403,-0.00122,-0.003111,0.49000000000000005,-2.7125000000000004,-3.7625,0.9030625,0.06159375,0.10309375,1.1330625,0.8645,-0.40403125,-0.38953125,1.12375,0.019079839524463814,0.020198215166599396,True
24280,525,0,526,3645.0,37960.0,28616.0,-6.1e-05,0.002989,-0.000793,0.56,-2.0300000000000002,-4.0075,0.8992187500000001,0.06846875,0.1040625,1.13296875,0.87265625,-0.40484375,-0.38828125,1.1193125,0.019394203251147633,0.02018771823045136,True
24281,526,0,527,3644.0,37960.0,28614.0,-0.0011589999999999999,0.00122,0.000183,0.5950000000000001,-1.2600000000000002,-4.130000000000001,0.8971250000000001,0.06390625,0.10325000000000001,1.13309375,0.86609375,-0.4045,-0.38746875000000003,1.1118125,0.019193437685672728,0.020121758228803473,True
24282,527,0,528,3643.0,37963.0,28615.0,-0.002928,-0.001037,0.000549,0.36750000000000005,-0.12250000000000001,-4.1475,0.89675,0.06318750000000001,0.10028125,1.13759375,0.8649687500000001,-0.40296875,-0.38603125,1.11809375,0.019102440148803617,0.01994225690168424,True
24283,528,0,529,3645.0,37959.0,28615.0,-0.005307,-0.001098,0.0025009999999999998,0.3325,0.5075000000000001,-4.130000000000001,0.9052187500000001,0.06375,0.1030625,1.131625,0.87003125,-0.40471875,-0.38628125,1.11490625,0.019195826626766596,0.020066353905436075,True
24284,529,0,530,3644.0,37960.0,28616.0,-0.00671,-0.001769,0.00183,0.385,0.8575,-4.2,0.902375,0.0615,0.10021875,1.132875,0.864625,-0.40368750000000003,-0.3908125,1.12159375,0.0190621806642951,0.020131811927134452,True
24285,530,0,531,3644.0,37961.0,28616.0,-0.007625,0.000488,0.0030499999999999998,0.525,0.9975,-4.322500000000001,0.897,0.06365625,0.10284375,1.13234375,0.8649687500000001,-0.402875,-0.38828125,1.1147500000000001,0.019117880577595874,0.020137745459204923,True
24286,531,0,532,3644.0,37964.0,28619.0,-0.009516,0.0015249999999999999,0.001952,0.5775,1.0675000000000001,-4.4625,0.8988125,0.06121875,0.10221875,1.13571875,0.86528125,-0.404,-0.389875,1.12009375,0.019063217095558107,0.020176148914252328,True
24287,532,0,533,3643.0,37962.0,28616.0,-0.006222,0.002806,0.000488,0.5950000000000001,0.6300000000000001,-4.322500000000001,0.897375,0.06334375,0.10253125,1.1285,0.86959375,-0.40303125,-0.3871875,1.1146562500000001,0.019111355274767348,0.020080985148451417,True
24288,533,0,534,3644.0,37965.0,28619.0,-0.005612,0.001281,0.000976,0.5425000000000001,0.31500000000000006,-4.2525,0.89725,0.06071875,0.1003125,1.13815625,0.8649687500000001,-0.40428125,-0.39034375,1.1185625000000001,0.019054033808104876,0.020116823896752175,True
24289,534,0,535,3645.0,37964.0,28621.0,-0.0032329999999999998,6.1e-05,0.0028669999999999998,0.3325,-0.1925,-4.2175,0.89746875,0.06346875,0.1038125,1.132625,0.87140625,-0.402375,-0.38425,1.11496875,0.019090098812103332,0.020015481304530586,True
24290,535,0,536,3646.0,37963.0,28619.0,-0.0011589999999999999,-0.002989,0.002623,0.17500000000000002,-0.6475000000000001,-4.077500000000001,0.89753125,0.060625,0.1001875,1.1389375,0.8646875,-0.40375,-0.38746875000000003,1.116625,0.01902883778107873,0.01999618144051953,True
24291,536,0,537,3646.0,37963.0,28621.0,-0.000122,-0.0034159999999999998,0.002013,0.14,-1.2075,-4.025,0.89275,0.06356250000000001,0.10312500000000001,1.12696875,0.8700625000000001,-0.4030625,-0.3873125,1.1150625,0.019121575417019893,0.02011035451323306,True
24292,537,0,538,3645.0,37963.0,28624.0,0.004331,-0.00061,-0.001037,0.3325,-2.2750000000000004,-3.9550000000000005,0.896375,0.0610625,0.10384375,1.13225,0.8644375,-0.40575,-0.39003125,1.10828125,0.019127152412853527,0.02024905154641817,True
24293,538,0,539,3646.0,37964.0,28624.0,0.007869,0.000549,-0.003477,0.35000000000000003,-2.6250000000000004,-3.8500000000000005,0.9011875,0.06025,0.10140625,1.134875,0.86453125,-0.40468750000000003,-0.39134375,1.1260625,0.019051155643767206,0.020201839023321542,True
24294,539,0,540,3646.0,37964.0,28623.0,0.0070149999999999995,-0.000793,-0.003721,0.29750000000000004,-2.7825,-3.9375000000000004,0.89696875,0.06365625,0.1031875,1.1328125,0.87165625,-0.40278125000000004,-0.38771875,1.1146875,0.019114112248988013,0.02012924025540519,True
24295,540,0,541,3647.0,37964.0,28623.0,0.006344,6.1e-05,-0.004026,0.4025,-2.6775,-3.9375000000000004,0.8971250000000001,0.07140625,0.10287500000000001,1.133875,0.86153125,-0.40246875,-0.387,1.1106562500000001,0.019419141762039956,0.020087546643703613,True
24296,541,0,542,3647.0,37961.0,28623.0,0.004941,0.000183,-0.0025009999999999998,0.5425000000000001,-2.5025000000000004,-3.9200000000000004,0.90396875,0.06034375,0.1011875,1.13915625,0.863375,-0.4084375,-0.39065625,1.1295,0.01920570499443072,0.020165252831194323,True
24297,542,0,543,3648.0,37965.0,28623.0,0.003111,0.0034159999999999998,-0.0011589999999999999,0.6825000000000001,-2.0650000000000004,-4.130000000000001,0.9061250000000001,0.061375,0.1015625,1.1400625,0.8660625000000001,-0.4068125,-0.3928125,1.1289375,0.019182656481668798,0.020267240606223657,True
24298,543,0,544,3649.0,37964.0,28624.0,0.0011589999999999999,0.003294,-0.0015249999999999999,0.6825000000000001,-1.8200000000000003,-4.1475,0.895,0.0618125,0.10190625,1.1329375,0.87784375,-0.40709375000000003,-0.38378125,1.11715625,0.019211883840123324,0.01991846527084474,True
24299,544,0,545,3650.0,37964.0,28627.0,-0.000366,0.0015249999999999999,-0.0008539999999999999,0.7875000000000001,-1.6975000000000002,-4.130000000000001,0.89759375,0.063125,0.10315625,1.1325,0.851125,-0.40059375,-0.38459375,1.10953125,0.019004404349791695,0.02000238367719372,True
24300,545,0,546,3650.0,37963.0,28625.0,-0.000976,0.00122,-0.00183,0.5425000000000001,-1.7325000000000002,-4.235,0.8970312500000001,0.06315625,0.1030625,1.1394375,0.85728125,-0.40165625,-0.38603125,1.127375,0.0190483996347584,0.02005630785042154,True
24301,546,0,547,3651.0,37966.0,28626.0,-0.000793,0.000732,-0.00122,0.45500000000000007,-1.61,-4.1475,0.90596875,0.06234375,0.10125,1.13584375,0.8819375,-0.40928125,-0.389625,1.12465625,0.019321543931163476,0.020126385707037318,True
24302,547,0,548,3650.0,37965.0,28626.0,-0.002745,-0.000488,0.001586,0.2625,-1.4525000000000001,-4.235,0.88971875,0.064,0.10315625,1.13265625,0.86646875,-0.3979375,-0.384875,1.1103125,0.018933465175078837,0.02001368676279866,True
24303,548,0,549,3650.0,37966.0,28627.0,-0.002196,-0.000976,0.00183,0.28,-1.5225000000000002,-4.2525,0.9033125000000001,0.06134375,0.10228125,1.13271875,0.8701875,-0.4084375,-0.38956250000000003,1.12196875,0.019246674433789544,0.020166157142015157,True
24304,549,0,550,3653.0,37962.0,28627.0,-0.003477,-0.002074,0.002989,0.17500000000000002,-1.54,-3.99,0.89834375,0.06356250000000001,0.10287500000000001,1.1330625,0.87128125,-0.40225,-0.38490625,1.1086562500000001,0.0190889159811083,0.020003408871010115,True
24305,550,0,551,3652.0,37965.0,28628.0,-0.004026,-0.0013419999999999999,0.004026,0.10500000000000001,-1.5925000000000002,-3.9200000000000004,0.89409375,0.06409375,0.11043750000000001,1.13325,0.8590625000000001,-0.401375,-0.38515625000000003,1.1096875,0.01907551316268038,0.020323583122416944,True
24306,551,0,552,3651.0,37967.0,28629.0,-0.0026839999999999998,-0.002013,0.004392,0.08750000000000001,-1.61,-3.9200000000000004,0.8983125000000001,0.06368750000000001,0.10359375,1.133,0.857875,-0.401375,-0.3851875,1.1124375,0.019058864510708925,0.020044186660447043,True
24307,552,0,553,3653.0,37965.0,28629.0,-6.1e-05,-0.002257,0.001464,0.035,-2.205,-3.8325000000000005,0.89725,0.06393750000000001,0.10359375,1.1321875000000001,0.8604375,-0.402,-0.38671875,1.11553125,0.01909423407917384,0.020105718404613167,True
24308,553,0,554,3654.0,37965.0,28629.0,0.001037,-0.001464,0.000732,0.08750000000000001,-2.2575000000000003,-3.8675,0.887375,0.06356250000000001,0.10337500000000001,1.1325,0.8647812500000001,-0.402625,-0.387375,1.1054375,0.019103989837158913,0.020123116981634968,True
24309,554,0,555,3653.0,37965.0,28628.0,0.001586,-0.000305,-0.001037,0.29750000000000004,-2.415,-3.8850000000000002,0.89809375,0.06356250000000001,0.10312500000000001,1.12825,0.8643125,-0.40218750000000003,-0.38721875,1.116125,0.01908640362672404,0.020106587595192668,True
24310,555,0,556,3654.0,37965.0,28629.0,0.0018909999999999999,0.001647,-0.003477,0.49000000000000005,-2.7825,-3.7275000000000005,0.89784375,0.06378125,0.10265625,1.1319375,0.8543125,-0.4024375,-0.3864375,1.1146875,0.01910541723547084,0.02005597373540108,True
24311,556,0,557,3653.0,37964.0,28629.0,0.004758,0.003538,-0.0040869999999999995,0.6300000000000001,-2.7825,-3.7800000000000002,0.901,0.06578125,0.10040625,1.13646875,0.86475,-0.40321875,-0.3873125,1.1210625,0.019218776211642162,0.019998872364472304,True
24312,557,0,558,3656.0,37966.0,28631.0,0.00244,0.001769,-0.0060999999999999995,0.47250000000000003,-2.7475,-3.7975000000000003,0.897375,0.0643125,0.10334375,1.132875,0.87228125,-0.40415625,-0.387125,1.1150625,0.019196269078141145,0.02011179054521597,True
24313,558,0,559,3657.0,37965.0,28631.0,0.0037819999999999998,0.0013419999999999999,-0.004026,0.28,-2.5900000000000003,-3.7625,0.8946875,0.06375,0.10821875,1.13375,0.8651562500000001,-0.40265625,-0.38678125,1.11596875,0.019112929560690755,0.020297881664887614,True
24314,559,0,560,3656.0,37968.0,28632.0,0.002989,-0.00122,-0.0011589999999999999,0.17500000000000002,-2.415,-3.8150000000000004,0.897875,0.06265625,0.104125,1.13334375,0.86434375,-0.4025,-0.38628125,1.12084375,0.019061827681590003,0.020109923484131063,True
24315,560,0,561,3658.0,37969.0,28633.0,0.000793,-0.001952,-0.000366,0.052500000000000005,-2.1350000000000002,-3.8500000000000005,0.89659375,0.06415625,0.1030625,1.13503125,0.86725,-0.404,-0.38865625,1.12125,0.0191835867070972,0.020161781155942117,True
24316,561,0,562,3659.0,37968.0,28632.0,0.002379,-0.0023179999999999997,0.005063,0.0,-1.8725000000000003,-3.9025000000000003,0.89815625,0.063875,0.10421875,1.139875,0.87140625,-0.40546875,-0.389,1.1225625000000001,0.019231089343448894,0.020223000123006277,True
24317,562,0,563,3658.0,37966.0,28635.0,-0.000305,-0.001952,0.004392,-0.07,-1.2775,-3.8500000000000005,0.9016875,0.062625,0.10165625,1.1369375,0.8611562500000001,-0.40609375000000003,-0.38996875000000003,1.119375,0.019204988508249095,0.020156852394491075,True
24318,563,0,564,3659.0,37970.0,28635.0,-0.000915,-0.000244,0.00549,-0.07,-0.7350000000000001,-3.7800000000000002,0.8902187500000001,0.06440625,0.104375,1.13109375,0.8715,-0.40590625,-0.38856250000000003,1.11621875,0.019270437867882902,0.020211830853089436,True
24319,564,0,565,3660.0,37970.0,28636.0,-0.0021349999999999997,0.000488,0.003355,-0.0175,-0.525,-3.8325000000000005,0.8958125,0.06393750000000001,0.10409375,1.131375,0.86471875,-0.40034375,-0.3875,1.11478125,0.01902765201822208,0.020157611481291644,True
24320,565,0,566,3662.0,37969.0,28636.0,-0.0034159999999999998,0.000122,0.0030499999999999998,0.28,-0.22750000000000004,-3.9025000000000003,0.8952187500000001,0.067125,0.10471875,1.13040625,0.86525,-0.403125,-0.38696875000000003,1.1155625,0.01927007299270073,0.02016189486444477,True
24321,566,0,567,3662.0,37972.0,28640.0,-0.0044529999999999995,-0.002074,-0.000793,0.29750000000000004,-0.45500000000000007,-3.9725000000000006,0.8954062500000001,0.06428125,0.1085625,1.1303125,0.8658750000000001,-0.403125,-0.38825,1.1160625,0.019153540786272252,0.020370977827437395,True
24322,567,0,568,3663.0,37971.0,28639.0,-0.0044529999999999995,-0.0008539999999999999,-0.003904,0.47250000000000003,-0.77,-4.077500000000001,0.89465625,0.06440625,0.1035625,1.1330625,0.865125,-0.4024375,-0.38675,1.11521875,0.01913102943097385,0.020105692640470747,True
24323,568,0,569,3663.0,37970.0,28639.0,-0.003111,0.0017079999999999999,-0.004758,0.5775,-1.0150000000000001,-4.0425,0.905625,0.058875000000000004,0.099,1.1413125,0.8650625000000001,-0.40265625,-0.38803125,1.1143750000000001,0.018913156226589064,0.019970092911866348,True
24324,569,0,570,3665.0,37973.0,28641.0,-0.002196,0.0037819999999999998,-0.002562,0.7350000000000001,-1.3475000000000001,-4.0600000000000005,0.91246875,0.058937500000000004,0.1003125,1.1435625,0.865125,-0.4035,-0.38775,1.115125,0.018949638371545067,0.0200126087892487,True
24325,570,0,571,3665.0,37973.0,28641.0,-0.000366,0.003965,-0.0015249999999999999,0.7525000000000001,-1.6275000000000002,-3.9550000000000005,0.90878125,0.05753125,0.1015,1.13234375,0.8657812500000001,-0.4023125,-0.38706250000000003,1.1143750000000001,0.018844269369962374,0.02003367564256663,True
24326,571,0,572,3664.0,37972.0,28640.0,0.003721,0.003294,0.001952,0.5950000000000001,-1.995,-3.6750000000000003,0.89478125,0.0693125,0.1036875,1.13075,0.86475,-0.40296875,-0.38665625000000003,1.11478125,0.01935343420050071,0.02010705137158769,True
24327,572,0,573,3665.0,37970.0,28640.0,0.003721,0.000976,0.0018909999999999999,0.385,-2.0300000000000002,-3.6400000000000006,0.895,0.064375,0.10490625,1.1286875,0.86484375,-0.4025625,-0.3876875,1.11584375,0.01913477324358866,0.020198460801172727,True
24328,573,0,574,3665.0,37973.0,28640.0,0.004331,-0.0013419999999999999,0.0015249999999999999,0.1925,-2.0650000000000004,-3.5700000000000003,0.89509375,0.06503125,0.10478125,1.131375,0.864375,-0.40396875,-0.388125,1.1199375,0.01921818556664067,0.02021091207298634,True
24329,574,0,575,3664.0,37971.0,28638.0,0.005429,-0.0040869999999999995,0.001464,0.035,-2.1,-3.5700000000000003,0.89534375,0.063375,0.10459375,1.137375,0.86971875,-0.40384375,-0.38875,1.1186562500000001,0.019145293454028118,0.02022833273538004,True
24330,575,0,576,3666.0,37971.0,28639.0,0.004331,-0.003843,-0.00042699999999999997,-0.0175,-1.715,-3.6050000000000004,0.90271875,0.06159375,0.10250000000000001,1.1366875,0.8698125,-0.4029375,-0.38803125,1.11825,0.019035874267186073,0.020113605931188067,True
24331,576,0,577,3665.0,37972.0,28637.0,0.000244,-0.0051849999999999995,-0.000488,0.052500000000000005,-1.2425000000000002,-3.5875000000000004,0.89753125,0.06384375,0.10337500000000001,1.13265625,0.869,-0.402625,-0.38909375,1.120875,0.01911551523657803,0.02019217093706075,True
24332,577,0,578,3665.0,37970.0,28636.0,-0.000732,-0.0035989999999999998,-0.002562,0.28,-1.05,-3.4825000000000004,0.8943125000000001,0.06390625,0.10359375,1.1334375,0.86946875,-0.40021875,-0.387625,1.11596875,0.019021345863958698,0.020142131511371033,True
24333,578,0,579,3667.0,37970.0,28634.0,-0.002013,0.000122,-0.00183,0.525,-1.12,-3.6225000000000005,0.897375,0.0641875,0.10425,1.1326875,0.8646875,-0.3955625,-0.38653125,1.11621875,0.01884564047252446,0.020125094666753805,True
24334,579,0,580,3665.0,37969.0,28635.0,-0.001769,0.0034159999999999998,-0.002562,0.805,-1.1025,-3.7800000000000002,0.8980625,0.06390625,0.10421875,1.1295,0.85609375,-0.40215625,-0.38403125,1.1068125,0.019099234314590537,0.020023350322765025,True
24335,580,0,581,3666.0,37970.0,28634.0,-0.002928,0.00549,-0.003965,1.05,-1.0325000000000002,-3.7800000000000002,0.89709375,0.06415625,0.10375000000000001,1.13403125,0.86075,-0.401,-0.377875,1.1068437500000001,0.019062999467234953,0.019756644088133195,True
24336,581,0,582,3665.0,37969.0,28631.0,-0.003111,0.0042699999999999995,-0.0008539999999999999,0.9100000000000001,-1.4000000000000001,-3.8675,0.89815625,0.06709375000000001,0.1081875,1.1339062500000001,0.85365625,-0.39540625,-0.3813125,1.1046875,0.01895848731766867,0.020076851892202277,True
24337,582,0,583,3666.0,37969.0,28633.0,-0.000976,0.004148,0.00042699999999999997,0.7175,-1.5925000000000002,-3.8675,0.897625,0.06421875,0.10140625,1.1394375,0.8522500000000001,-0.4028125,-0.3933125,1.13846875,0.019138418983467582,0.02028091715711017,True
24338,583,0,584,3665.0,37969.0,28630.0,-0.000305,0.001403,0.003111,0.49000000000000005,-1.6625,-3.7975000000000003,0.9051250000000001,0.06071875,0.0999375,1.13625,0.889,-0.4106875,-0.39725,1.1360000000000001,0.019311469617559928,0.020378833680025413,True
24339,584,0,585,3665.0,37967.0,28632.0,0.000305,-0.0017079999999999999,0.005307,0.08750000000000001,-1.6450000000000002,-3.7800000000000002,0.9045625,0.0614375,0.10028125,1.139,0.88390625,-0.41540625000000003,-0.39746875,1.140625,0.01953044504430476,0.020401706631963612,True
24340,585,0,586,3664.0,37968.0,28627.0,0.000549,-0.003355,0.0060999999999999995,-0.052500000000000005,-1.6275000000000002,-3.6225000000000005,0.900875,0.06446875,0.10337500000000001,1.13290625,0.8787812500000001,-0.3993125,-0.38425,1.1075625,0.019007963851440487,0.019997539395306393,True
24341,586,0,587,3666.0,37967.0,28629.0,0.00183,-0.0021349999999999997,0.003538,-0.08750000000000001,-1.61,-3.7625,0.90259375,0.061125,0.1019375,1.14075,0.86671875,-0.40746875,-0.39103125,1.13871875,0.01919878520790895,0.020211066311515632,True
24342,587,0,588,3665.0,37967.0,28631.0,0.0030499999999999998,-0.0017079999999999999,0.001464,-0.052500000000000005,-1.5050000000000001,-3.7275000000000005,0.90359375,0.06153125,0.10365625,1.1380000000000001,0.887375,-0.41046875,-0.38965625,1.1255625,0.01933596625423262,0.020226299827411465,True
24343,588,0,589,3664.0,37971.0,28630.0,0.001098,-0.0026839999999999998,0.001037,0.07,-1.4875,-3.8150000000000004,0.89871875,0.06371875,0.10396875,1.1266875,0.87521875,-0.40365625,-0.38159375,1.1021875,0.019151843281680382,0.01991512552373653,True
24344,589,0,590,3665.0,37968.0,28631.0,-0.0008539999999999999,-0.0021349999999999997,-0.001952,0.08750000000000001,-1.5750000000000002,-3.9025000000000003,0.897875,0.0643125,0.10415625,1.133875,0.857,-0.39918750000000003,-0.38128125,1.11303125,0.018996534208362472,0.019910253896111386,True
24345,590,0,591,3664.0,37968.0,28633.0,-0.000915,-0.000488,-0.0040869999999999995,0.385,-1.7325000000000002,-3.9375000000000004,0.889125,0.06306250000000001,0.10340625,1.1333125,0.8554375000000001,-0.400125,-0.38234375,1.1041875,0.018982997013334973,0.019922202926041514,True
24346,591,0,592,3665.0,37969.0,28632.0,0.002379,0.0023179999999999997,-0.003904,0.7350000000000001,-1.9600000000000002,-3.9375000000000004,0.8971875,0.06378125,0.1039375,1.13328125,0.85240625,-0.40078125000000003,-0.385875,1.1115625,0.019038837127397304,0.020085910388698378,True
24347,592,0,593,3665.0,37968.0,28633.0,-0.000366,0.001281,-0.003172,0.47250000000000003,-1.7675,-3.9200000000000004,0.89790625,0.06375,0.10312500000000001,1.13659375,0.8611875,-0.39868750000000003,-0.384,1.11509375,0.018953376078118957,0.01997723917322835,True
24348,593,0,594,3665.0,37968.0,28635.0,-0.002623,0.001098,-0.0017079999999999999,0.4025,-1.7500000000000002,-3.9375000000000004,0.9048437500000001,0.06128125,0.1014375,1.13953125,0.86425,-0.40259375000000003,-0.3866875,1.1206562500000001,0.019009249785179087,0.020016043589355874,True
24349,594,0,595,3665.0,37970.0,28634.0,-0.0018909999999999999,0.001464,0.000244,0.43750000000000006,-1.8550000000000002,-3.9375000000000004,0.90325,0.06221875,0.1064375,1.13690625,0.87246875,-0.40565625,-0.39025,1.12121875,0.019170760876384956,0.020364182408954396,True
24350,595,0,596,3667.0,37971.0,28638.0,0.000488,0.001281,0.000915,0.42000000000000004,-1.9075000000000002,-3.9025000000000003,0.9026875,0.06384375,0.1041875,1.13365625,0.87165625,-0.40575,-0.387375,1.1182812500000001,0.019241111213545988,0.02015643340047873,True
24351,596,0,597,3667.0,37972.0,28637.0,0.003477,-0.0006709999999999999,0.0015249999999999999,0.28,-1.995,-3.8150000000000004,0.89853125,0.063625,0.10440625,1.1328125,0.86490625,-0.40253125,-0.3874375,1.1151875,0.01910278262629005,0.02016791432064152,True
24352,597,0,598,3669.0,37972.0,28639.0,0.002806,-0.00183,0.001464,0.24500000000000002,-1.9250000000000003,-3.8150000000000004,0.90084375,0.0683125,0.10178125,1.13709375,0.8650625000000001,-0.40334375,-0.38515625000000003,1.115375,0.019327525556820466,0.019968602825745682,True
24353,598,0,599,3667.0,37970.0,28638.0,0.001098,-0.0028669999999999998,0.0018909999999999999,0.17500000000000002,-1.8550000000000002,-3.7275000000000005,0.90125,0.0644375,0.1035625,1.1379062500000001,0.8715,-0.4044375,-0.3839375,1.12359375,0.01921269441264524,0.019992669354569993,True
24354,599,0,600,3668.0,37973.0,28639.0,-0.000305,-0.002928,0.0006709999999999999,0.14,-1.6800000000000002,-3.7100000000000004,0.90153125,0.06390625,0.10440625,1.1335625,0.86153125,-0.40503125,-0.38771875,1.12215625,0.019214787934352676,0.020179214179267997,True
24355,600,0,601,3668.0,37970.0,28639.0,-0.000122,-0.00122,0.000488,0.2625,-1.5575,-3.8500000000000005,0.89359375,0.06853125,0.10428125,1.13415625,0.8721875,-0.40571875,-0.38803125,1.11684375,0.019431921053339192,0.020186643807092872,True
24356,601,0,602,3668.0,37969.0,28640.0,-0.0026839999999999998,0.000732,0.000366,0.385,-1.54,-3.7975000000000003,0.89853125,0.06415625,0.10215625,1.14253125,0.8654375,-0.40228125000000003,-0.3871875,1.11528125,0.019114503894999572,0.02006560822153026,True
24357,602,0,603,3670.0,37973.0,28641.0,-0.00244,-0.000183,0.000488,0.385,-1.4875,-3.8500000000000005,0.90696875,0.0614375,0.0973125,1.145,0.85865625,-0.402125,-0.3875,1.1150625,0.01899680867957196,0.01987954894925679,True
24358,603,0,604,3670.0,37970.0,28640.0,-0.001586,-0.00061,-0.000793,0.45500000000000007,-1.4700000000000002,-3.7975000000000003,0.9139375000000001,0.06381250000000001,0.1060625,1.12740625,0.865375,-0.4033125,-0.39109375,1.12221875,0.019141868547558862,0.02038269604043484,True
24359,604,0,605,3669.0,37972.0,28640.0,-0.0023179999999999997,0.00042699999999999997,-0.000915,0.6125,-1.6800000000000002,-3.7275000000000005,0.88465625,0.06190625,0.0964375,1.14221875,0.87028125,-0.40240625,-0.38675,1.10925,0.01902732440576429,0.01981352578756907,True
24360,605,0,606,3668.0,37969.0,28641.0,-0.0006709999999999999,0.001464,0.000183,0.77,-1.6625,-3.6925000000000003,0.89646875,0.066,0.10565625000000001,1.1284375,0.86846875,-0.404625,-0.38940625,1.11603125,0.019284254521427804,0.020298259618353767,True
24361,606,0,607,3671.0,37972.0,28640.0,0.003111,0.0018909999999999999,0.0,0.525,-1.8200000000000003,-3.5700000000000003,0.9091250000000001,0.05940625,0.10075,1.13075,0.8611562500000001,-0.40225,-0.38756250000000003,1.12184375,0.01891859357231403,0.020023013780077446,True
24362,607,0,608,3672.0,37972.0,28640.0,0.001037,-0.000183,-6.1e-05,0.525,-1.7850000000000001,-3.5700000000000003,0.89203125,0.06596875,0.106125,1.1276875,0.8735625,-0.40515625,-0.389375,1.11478125,0.01930432221674467,0.020316223765471646,True
