frame_seq,absolute_seq_u64,segment_id,sample_seq,PPG_G,PPG_R,PPG_IR,ACC_X,ACC_Y,ACC_Z,GYRO_X,GYRO_Y,GYRO_Z,Uh1,Uh2,Uh3,Uh4,Uc1,Uc2,Uc3,Uc4,UD1,UD2,parser_valid
22398,64179,0,64180,3905.0,37882.0,27951.0,-0.005429,-0.001647,-0.0023179999999999997,0.28,-0.56,-3.7100000000000004,1.0150937500000001,0.1034375,0.67425,1.29409375,0.978875,-0.33846875,0.06490625,1.274125,0.018156698950093152,0.025458172688377294,True
22399,64180,0,64181,3904.0,37882.0,27953.0,0.001281,-0.00244,-0.006405,0.3325,-1.2775,-3.9025000000000003,1.02078125,0.1049375,0.6726875,1.2887187500000001,0.969,-0.33834375,0.06540625,1.2709062500000001,0.018213287418130088,0.02537253217427181,True
22400,64181,0,64182,3907.0,37883.0,27954.0,0.003538,-0.0008539999999999999,-0.0042699999999999995,0.2625,-1.3475000000000001,-3.8325000000000005,1.0204375,0.1054375,0.67390625,1.29359375,0.9829687500000001,-0.33437500000000003,0.06496875,1.2776875,0.018073712597919612,0.025441266135802516,True
22401,64182,0,64183,3906.0,37881.0,27953.0,0.002928,-0.000976,-0.001098,0.49000000000000005,-1.1725,-3.5875000000000004,1.01875,0.11025,0.67584375,1.29165625,0.97365625,-0.335625,0.066875,1.2707187500000001,0.018321904615147547,0.02544459822944141,True
22402,64183,0,64184,3906.0,37877.0,27946.0,0.001403,-0.001403,0.0015249999999999999,0.5075000000000001,-0.9800000000000001,-3.535,1.015875,0.1049375,0.6735,1.2894375,0.96959375,-0.3418125,0.068125,1.27134375,0.018353193707329726,0.02529576140607453,True
22403,64184,0,64185,3905.0,37875.0,27942.0,0.001952,-0.0013419999999999999,0.004697,0.47250000000000003,-0.7525000000000001,-3.6400000000000006,1.00696875,0.10390625,0.67396875,1.288875,0.97809375,-0.34,0.06634375,1.2754375,0.01823772596548891,0.025387888655750205,True
22404,64185,0,64186,3905.0,37872.0,27936.0,0.002623,0.001647,0.00183,0.385,-0.29750000000000004,-3.9550000000000005,1.0204375,0.1054375,0.6741875,1.29228125,0.97978125,-0.339,0.06440625,1.27146875,0.018260302395332596,0.02547591910060723,True
22405,64186,0,64187,3906.0,37871.0,27933.0,0.007686,0.003965,-0.0008539999999999999,0.24500000000000002,-0.15750000000000003,-4.077500000000001,1.0144375,0.10250000000000001,0.67578125,1.28878125,0.9740625,-0.34221875,0.06675,1.2715625,0.018269441851926502,0.025447076765587624,True
22406,64187,0,64188,3906.0,37870.0,27927.0,0.007625,0.004209,0.000305,0.15750000000000003,0.29750000000000004,-3.9550000000000005,1.02025,0.1049375,0.6754687500000001,1.29359375,0.97828125,-0.3398125,0.06621875,1.27734375,0.018272531885773567,0.025455651726573714,True
22407,64188,0,64189,3906.0,37873.0,27925.0,0.0032329999999999998,0.002562,0.000915,0.10500000000000001,1.1025,-3.8500000000000005,1.0160625,0.10300000000000001,0.6755625000000001,1.2956875,0.96803125,-0.34268750000000003,0.067,1.27846875,0.018308886395555134,0.0254277566539924,True
22408,64189,0,64190,3905.0,37874.0,27922.0,0.000183,0.00183,-0.001952,-0.052500000000000005,1.4000000000000001,-4.0425,1.01625,0.09953125,0.67584375,1.30390625,0.9741562500000001,-0.34284375,0.06728125,1.27703125,0.018172691923062607,0.025428055473221155,True
22409,64190,0,64191,3904.0,37873.0,27921.0,-0.004697,-0.001586,-0.007076,-0.10500000000000001,1.435,-4.6375,1.0186250000000001,0.10453125,0.66925,1.285125,0.97296875,-0.33803125,0.0641875,1.2714375,0.018183989306858994,0.025278544440469695,True
22410,64191,0,64192,3903.0,37871.0,27918.0,-0.010065,0.000976,-0.006039,0.12250000000000001,1.3825,-4.7250000000000005,1.01525,0.0976875,0.6774375,1.28975,0.97303125,-0.34234375,0.0669375,1.27121875,0.018076782355848538,0.025508645205769218,True
22411,64192,0,64193,3902.0,37873.0,27917.0,-0.009577,0.0035989999999999998,-0.003721,0.49000000000000005,1.05,-4.550000000000001,1.02728125,0.1065,0.67396875,1.296375,0.9785625,-0.33934375,0.0669375,1.27790625,0.018317821325811216,0.02536370972164553,True
22412,64193,0,64194,3903.0,37872.0,27919.0,-0.009577,0.002989,0.002074,0.5775,0.6825000000000001,-4.2525,1.0090937500000001,0.0991875,0.67740625,1.28303125,0.96503125,-0.34168750000000003,0.0679375,1.27078125,0.0181119324615436,0.02546662035501537,True
22413,64194,0,64195,3903.0,37872.0,27916.0,-0.008052,-0.001647,0.009516,0.4025,0.1925,-4.077500000000001,1.0307187500000001,0.10690625000000001,0.67684375,1.30134375,0.97459375,-0.33918750000000003,0.06671875000000001,1.27678125,0.01832821042197896,0.02549274349918066,True
22414,64195,0,64196,3902.0,37874.0,27918.0,-0.002623,-0.003477,0.0035989999999999998,0.36750000000000005,-1.3825,-3.8675,1.01296875,0.1064375,0.67696875,1.2978125,0.97903125,-0.3360625,0.06709375000000001,1.2785625,0.018182892158499345,0.025482697071108947,True
22415,64196,0,64197,3902.0,37874.0,27919.0,0.006344,0.0013419999999999999,0.001952,0.525,-2.2925000000000004,-3.8675,1.03240625,0.10715625000000001,0.67759375,1.28903125,0.981,-0.33968750000000003,0.066375,1.2783437500000001,0.01835864778461104,0.025538076659929285,True
22416,64197,0,64198,3902.0,37873.0,27921.0,0.008784,-0.000549,0.000244,0.42000000000000004,-2.7825,-3.7100000000000004,1.0330625,0.09975,0.67725,1.28321875,0.9809687500000001,-0.33909375,0.06671875000000001,1.275125,0.01803040632932358,0.025509717770103083,True
22417,64198,0,64199,3902.0,37873.0,27921.0,0.00915,-0.0035989999999999998,-0.0018909999999999999,0.14,-3.0625000000000004,-3.7450000000000006,1.03115625,0.1074375,0.67684375,1.30115625,0.97215625,-0.33621875,0.067625,1.278125,0.018230286905191465,0.02545584172068171,True
22418,64199,0,64200,3901.0,37874.0,27924.0,0.010919,-0.0048189999999999995,-0.004514,0.035,-3.2900000000000005,-3.6750000000000003,1.02678125,0.10690625000000001,0.67775,1.27825,0.97196875,-0.3385625,0.06665625,1.27403125,0.018303001666593908,0.025533153928815316,True
22419,64200,0,64201,3900.0,37875.0,27927.0,0.00183,0.006588,-0.002074,0.805,-2.205,-3.8325000000000005,1.02646875,0.101,0.677875,1.28571875,0.98153125,-0.33928125000000003,0.0674375,1.2716875,0.018089328336267124,0.025506566628625747,True
22420,64201,0,64202,3901.0,37876.0,27930.0,-0.0035989999999999998,0.007625,0.000244,0.9275000000000001,-1.7675,-3.6925000000000003,1.011375,0.1010625,0.6770625,1.2863437500000001,0.9700625,-0.34240625,0.067,1.2704375,0.0182179504131807,0.025490431621610327,True
22421,64202,0,64203,3901.0,37878.0,27934.0,-0.008784,0.004331,0.002379,0.7525000000000001,-1.435,-3.7100000000000004,1.01578125,0.10300000000000001,0.67425,1.29153125,0.97884375,-0.34265625,0.0665625,1.270875,0.018307626144948744,0.0253907321085824,True
22422,64203,0,64204,3902.0,37875.0,27936.0,-0.013297999999999999,-0.001464,0.00061,0.36750000000000005,-1.4525000000000001,-3.6575,1.0159375,0.10525,0.6723125,1.29171875,0.9743437500000001,-0.34084375,0.06471875,1.271125,0.018326963296003244,0.025384859432140576,True
22423,64204,0,64205,3901.0,37877.0,27939.0,-0.011956,-0.00122,0.00244,0.17500000000000002,-1.6975000000000002,-3.5700000000000003,1.0156875,0.10903125,0.672125,1.2953125,0.9733125,-0.34121875,0.06515625,1.271875,0.018497430413175184,0.025359210878491738,True
22424,64205,0,64206,3903.0,37878.0,27941.0,-0.008601,-0.0015249999999999999,0.0062829999999999995,0.3325,-3.2550000000000003,-3.3075,1.01571875,0.10490625,0.67225,1.2935,0.97421875,-0.34134375,0.065,1.271875,0.018333005958226938,0.02537079590557761,True
22425,64206,0,64207,3903.0,37878.0,27942.0,-0.000549,-0.001952,0.006222,0.15750000000000003,-4.48,-3.3075,1.01459375,0.1079375,0.67490625,1.2945625,0.9733437500000001,-0.3423125,0.06393750000000001,1.27175,0.018496599285708785,0.025525031529308552,True
22426,64207,0,64208,3903.0,37875.0,27943.0,0.009089,-0.003111,-0.001769,0.12250000000000001,-5.7925,-2.9925,1.014875,0.10496875,0.674125,1.29390625,0.97440625,-0.3355,0.06365625,1.27503125,0.01809984384952025,0.025503842874916936,True
22427,64208,0,64209,3905.0,37876.0,27943.0,0.015616,-0.002928,-0.009821,0.2625,-6.755000000000001,-2.8175000000000003,1.01665625,0.10471875,0.67396875,1.295875,0.97428125,-0.3395,0.06331250000000001,1.27675,0.018250939830316972,0.025511309783360792,True
22428,64209,0,64210,3904.0,37875.0,27945.0,0.018361,0.0006709999999999999,-0.008723,0.385,-6.982500000000001,-2.8525000000000005,1.01615625,0.10978125,0.67053125,1.2966875,0.97428125,-0.3400625,0.063125,1.2691875000000001,0.01848161852501406,0.0253753361706572,True
22429,64210,0,64211,3904.0,37875.0,27945.0,0.013054,-0.000488,-0.000305,0.35000000000000003,-6.23,-3.1325000000000003,1.00821875,0.10525,0.6734687500000001,1.29178125,0.97309375,-0.33918750000000003,0.06396875,1.278375,0.018260161724790527,0.025463703386500218,True
22430,64211,0,64212,3904.0,37875.0,27946.0,0.010369999999999999,-0.004941,0.001647,0.14,-5.2675,-3.2725000000000004,1.02215625,0.11021875,0.6730625,1.28846875,0.9711875,-0.33925,0.06490625,1.2708125000000001,0.018466828271208026,0.02540855934604392,True
22431,64212,0,64213,3907.0,37875.0,27948.0,0.0021349999999999997,-0.005978,-6.1e-05,0.08750000000000001,-4.2525,-3.3775000000000004,1.01565625,0.105375,0.6717500000000001,1.28975,0.97771875,-0.34025,0.06196875,1.270875,0.018308152134838385,0.025473325004536453,True
22432,64213,0,64214,3906.0,37873.0,27946.0,-0.0042699999999999995,-0.000732,-0.0015249999999999999,0.31500000000000006,-3.3600000000000003,-3.3600000000000003,1.01534375,0.10446875,0.67203125,1.2890625,0.97475,-0.34165625,0.06318750000000001,1.2716875,0.01832763536786861,0.025435456370809604,True
22433,64214,0,64215,3908.0,37873.0,27945.0,-0.0073809999999999995,0.002196,-0.0015249999999999999,0.5075000000000001,-2.5725000000000002,-3.5175000000000005,1.014875,0.10496875,0.6714687500000001,1.2945312500000001,0.973375,-0.3423125,0.06306250000000001,1.2678125,0.018374640864543993,0.02541704635356967,True
22434,64215,0,64216,3905.0,37876.0,27947.0,-0.005124,0.0030499999999999998,0.003111,0.5425000000000001,-2.3275,-3.6225000000000005,1.0153125,0.105625,0.6731875,1.2939375,0.97440625,-0.33859375,0.06340625,1.278,0.01825161940590754,0.025474854792152706,True
22435,64216,0,64217,3907.0,37877.0,27946.0,-0.002257,0.000976,0.002745,0.36750000000000005,-2.5900000000000003,-3.7450000000000006,1.02128125,0.1030625,0.67328125,1.2885625,0.97371875,-0.33809375,0.06453125,1.27546875,0.018126162818318508,0.02543296754946569,True
22436,64217,0,64218,3907.0,37877.0,27950.0,0.0026839999999999998,-6.1e-05,-0.001281,0.3325,-2.9575000000000005,-3.5175000000000005,1.01778125,0.10278125,0.67271875,1.28846875,0.98021875,-0.33971875,0.06359375,1.2710625,0.0181801607711675,0.02544763794690358,True
22437,64218,0,64219,3908.0,37877.0,27947.0,0.006954,-0.000915,-0.004758,0.45500000000000007,-3.2550000000000003,-3.22,1.015125,0.10328125,0.6728125,1.2884375000000001,0.9795,-0.33859375,0.0644375,1.2770625,0.018155321730533424,0.025417200870044312,True
22438,64219,0,64220,3908.0,37877.0,27949.0,0.009516,-0.0006709999999999999,-0.00244,0.5775,-3.1675000000000004,-3.22,1.0186875,0.10578125000000001,0.672625,1.29271875,0.97428125,-0.33115625,0.06343750000000001,1.27246875,0.017957942298775873,0.025450082901419115,True
22439,64220,0,64221,3908.0,37877.0,27950.0,0.008113,-0.0017079999999999999,0.001769,0.6300000000000001,-1.9250000000000003,-3.6925000000000003,1.0154375,0.1065,0.6739375,1.289,0.9741875,-0.34225,0.06415625,1.27190625,0.01843502552146987,0.025475653015156398,True
22440,64221,0,64222,3910.0,37878.0,27949.0,0.003965,-0.0015249999999999999,0.0015249999999999999,0.5775,-0.77,-3.8850000000000002,1.01884375,0.10559375,0.67271875,1.2887187500000001,0.9810625000000001,-0.3388125,0.06268750000000001,1.27140625,0.018259159110576986,0.025484533821413746,True
22441,64222,0,64223,3908.0,37878.0,27950.0,-0.0026839999999999998,0.000244,0.00183,0.7350000000000001,0.7175,-4.235,1.014625,0.10325000000000001,0.6726562500000001,1.28790625,0.9813437500000001,-0.341625,0.06290625,1.27353125,0.01827630653253429,0.025473017166087675,True
22442,64223,0,64224,3909.0,37877.0,27952.0,-0.009211,0.0042699999999999995,0.00042699999999999997,0.9975,2.0125,-4.322500000000001,1.01915625,0.10371875,0.672625,1.29409375,0.9734375000000001,-0.3385625,0.0624375,1.2727187500000001,0.0181720366599301,0.02549079506319827,True
22443,64224,0,64225,3910.0,37880.0,27953.0,-0.014029999999999999,0.006954,0.0008539999999999999,1.0675000000000001,2.8175000000000003,-4.2875000000000005,1.01553125,0.109375,0.67234375,1.28859375,0.9722500000000001,-0.34046875,0.060125,1.2689062500000001,0.01848131006104802,0.025573180728804976,True
22444,64225,0,64226,3911.0,37880.0,27954.0,-0.00976,0.002013,0.000305,0.7525000000000001,2.6950000000000003,-4.235,1.01503125,0.10528125,0.6711875,1.2887187500000001,0.9714375000000001,-0.34268750000000003,0.0650625,1.26971875,0.01840260037023439,0.025323859734331874,True
22445,64226,0,64227,3911.0,37880.0,27956.0,-0.0035989999999999998,-0.0040869999999999995,-0.003111,0.28,2.2575000000000003,-4.165,1.0166250000000001,0.09406250000000001,0.67378125,1.29384375,0.9826875,-0.340875,0.06390625,1.27953125,0.01786860579169812,0.0254793036144421,True
22446,64227,0,64228,3912.0,37880.0,27959.0,-0.001464,-0.006527,0.000488,0.29750000000000004,1.9775000000000003,-3.8675,1.035,0.10946875,0.67,1.31003125,0.9809687500000001,-0.33784375,0.0635,1.282,0.01837929870019812,0.02533787312263698,True
22447,64228,0,64229,3913.0,37880.0,27959.0,-0.002196,-0.008418,0.003965,0.1925,1.8550000000000002,-3.7625,1.01428125,0.106125,0.665,1.28046875,0.97271875,-0.33809375,0.0603125,1.2690937500000001,0.01825199436582826,0.025258788361376898,True
22448,64229,0,64230,3914.0,37880.0,27958.0,-0.004331,-0.004941,0.003965,0.28,1.715,-3.9200000000000004,1.0034687500000001,0.0974375,0.6782812500000001,1.28165625,0.9713437500000001,-0.3424375,0.06440625,1.26590625,0.018070293905448048,0.02564695099740319,True
22449,64230,0,64231,3912.0,37881.0,27958.0,-0.008723,0.000976,0.0021349999999999997,0.6300000000000001,1.6275000000000002,-3.9550000000000005,1.03496875,0.10946875,0.67425,1.30765625,0.9861875,-0.3374375,0.06228125,1.2823125,0.018362913104553426,0.025565040528350267,True
22450,64231,0,64232,3913.0,37884.0,27961.0,-0.012444,0.0068319999999999995,0.0018909999999999999,0.7875000000000001,1.225,-3.9375000000000004,1.0030937500000001,0.10262500000000001,0.67025,1.2773125,0.971,-0.3415,0.06165625,1.26803125,0.01824558880923526,0.025423385859767344,True
22451,64232,0,64233,3913.0,37882.0,27962.0,-0.010431,0.008418,0.000915,0.8750000000000001,0.43750000000000006,-3.9550000000000005,1.0184375,0.10225000000000001,0.67540625,1.3114375,0.98059375,-0.341,0.064375,1.2811875,0.018210016022349125,0.02552810925137739,True
22452,64233,0,64234,3915.0,37886.0,27963.0,-0.00488,0.008723,0.000793,0.8925000000000001,-0.36750000000000005,-3.6400000000000006,1.015375,0.10603125000000001,0.667,1.2886250000000001,0.974375,-0.33868750000000003,0.06225,1.273375,0.01827209252758597,0.025263443723825336,True
22453,64234,0,64235,3914.0,37884.0,27963.0,0.005673,-0.000915,-0.002745,0.665,-2.7125000000000004,-2.7300000000000004,1.00321875,0.09953125,0.67090625,1.26959375,0.972375,-0.34190625,0.06340625,1.27103125,0.018134877994610634,0.02537955092294617,True
22454,64235,0,64236,3916.0,37882.0,27964.0,0.010492,-0.003172,-0.0032329999999999998,0.525,-3.8325000000000005,-2.5725000000000002,1.030875,0.0970625,0.67665625,1.2955,0.98321875,-0.33928125000000003,0.06234375,1.27859375,0.01792755281136332,0.02566301786541863,True
22455,64236,0,64237,3915.0,37881.0,27963.0,0.018117,-0.004331,-0.004331,0.29750000000000004,-4.655,-2.6250000000000004,1.02475,0.1083125,0.668,1.297625,0.976125,-0.339,0.06034375,1.27553125,0.01837842557212704,0.025382831050466736,True
22456,64237,0,64238,3917.0,37884.0,27966.0,0.019947,-0.0053679999999999995,-0.000793,0.4025,-4.760000000000001,-2.555,1.01134375,0.1074375,0.6724687500000001,1.295125,0.97475,-0.33984375,0.058750000000000004,1.2789062500000001,0.018376504573904672,0.025634365373570722,True
22457,64238,0,64239,3919.0,37884.0,27968.0,0.016714,-0.003355,0.000366,0.47250000000000003,-3.8325000000000005,-2.6950000000000003,1.01740625,0.11090625,0.671,1.28859375,0.9736250000000001,-0.33915625,0.059062500000000004,1.2714375,0.01849129424936413,0.025560298129511428,True
22458,64239,0,64240,3917.0,37882.0,27966.0,0.0025009999999999998,-0.001769,-0.001098,0.56,-1.0675000000000001,-2.9400000000000004,1.01515625,0.10575,0.66803125,1.288875,0.97396875,-0.33996875,0.0616875,1.27209375,0.018312215376200924,0.025329427460686713,True
22459,64240,0,64241,3918.0,37877.0,27962.0,-0.005612,0.000366,-0.00183,0.7000000000000001,0.17500000000000002,-3.2375000000000003,1.0218125,0.1058125,0.66825,1.2886875,0.9755625,-0.33865625,0.06009375,1.272375,0.018261844262663432,0.025403451611261008,True
22460,64241,0,64242,3918.0,37877.0,27957.0,-0.008967,0.002806,-0.0015249999999999999,0.7525000000000001,0.7000000000000001,-3.535,1.01484375,0.10275000000000001,0.67109375,1.29009375,0.981,-0.33859375,0.061375,1.27640625,0.018133494257448625,0.02547008234599941,True
22461,64242,0,64243,3917.0,37874.0,27950.0,-0.008662,0.004148,-0.00244,0.8575,0.8400000000000001,-3.6925000000000003,1.010125,0.1058125,0.6764375,1.289375,0.9735,-0.340125,0.06221875,1.278875,0.01832108503962079,0.025658967453385015,True
22462,64243,0,64244,3917.0,37875.0,27948.0,-0.013297999999999999,0.002745,-0.000183,0.805,0.665,-3.535,1.01759375,0.10553125000000001,0.67171875,1.2889375,0.97246875,-0.33968750000000003,0.061375,1.27259375,0.018291884396625883,0.025496190779545614,True
22463,64244,0,64245,3917.0,37875.0,27941.0,-0.009333,-0.001098,-0.000488,0.8750000000000001,-1.3475000000000001,-3.1500000000000004,1.0208125000000001,0.10575,0.6685625000000001,1.2886250000000001,0.97440625,-0.34028125,0.0696875,1.26640625,0.018324819069212687,0.025025791033861346,True
22464,64245,0,64246,3916.0,37876.0,27940.0,0.000549,-0.002562,0.000976,0.77,-2.4675000000000002,-3.0100000000000002,1.0224375,0.10603125000000001,0.66821875,1.2887187500000001,0.9699375,-0.33940625,0.05928125,1.2705312500000001,0.018301083248487216,0.025435222156811814,True
22465,64246,0,64247,3916.0,37875.0,27937.0,0.006405,-0.001464,0.002745,0.6125,-3.2725000000000004,-3.0975,1.0149062500000001,0.10275000000000001,0.6706875,1.2943437500000001,0.98046875,-0.33925,0.06053125,1.2771875,0.018159967952997732,0.02548745990864981,True
22466,64247,0,64248,3916.0,37877.0,27934.0,0.00366,0.000549,0.004941,0.77,-3.3600000000000003,-2.9575000000000005,1.00790625,0.1088125,0.66925,1.289,0.97421875,-0.34134375,0.06259375,1.27328125,0.018493483951558757,0.02534344129285102,True
22467,64248,0,64249,3916.0,37879.0,27935.0,0.000244,0.002074,0.0066489999999999995,0.8400000000000001,-3.1325000000000003,-3.115,1.02159375,0.10534375,0.6719375,1.29534375,0.98103125,-0.33465625,0.06046875,1.2769062500000001,0.018081208769899926,0.02554221900230398,True
22468,64249,0,64250,3915.0,37878.0,27934.0,-0.0037819999999999998,0.00183,0.0008539999999999999,0.47250000000000003,-3.6400000000000006,-3.6575,1.0156875,0.10425,0.66871875,1.28215625,0.9739375,-0.34109375000000003,0.06184375,1.2718125,0.018295962974137103,0.025351785394917375,True
22469,64250,0,64251,3915.0,37878.0,27935.0,-0.002745,0.0051849999999999995,6.1e-05,0.6475000000000001,-3.9200000000000004,-3.6400000000000006,1.02096875,0.10559375,0.67096875,1.29471875,0.98190625,-0.33846875,0.059000000000000004,1.2710625,0.018245293266446763,0.02556153669437367,True
22470,64251,0,64252,3916.0,37879.0,27934.0,-0.003721,0.005856,-6.1e-05,0.9450000000000001,-4.2175,-3.3950000000000005,1.01559375,0.10396875,0.67015625,1.2955,0.98084375,-0.33825,0.059000000000000004,1.27184375,0.018169702012264647,0.025527599097782048,True
22471,64252,0,64253,3913.0,37878.0,27936.0,0.000122,0.002989,6.1e-05,0.665,-4.7075000000000005,-2.9575000000000005,1.0144375,0.1046875,0.67015625,1.2888125,0.97384375,-0.33996875,0.062125,1.267375,0.018268562896162303,0.025400385372552913,True
22472,64253,0,64254,3914.0,37881.0,27936.0,0.0070149999999999995,-0.005612,-0.004148,0.10500000000000001,-5.180000000000001,-2.4325,1.02125,0.11009375,0.668375,1.2889375,0.97440625,-0.33934375,0.0615,1.27159375,0.01846547321145419,0.025351421350544103,True
22473,64254,0,64255,3914.0,37877.0,27933.0,0.010369999999999999,-0.013969,-0.007503,-0.2625,-5.355,-2.555,1.0199375,0.105,0.67059375,1.2965312500000001,0.97865625,-0.339375,0.05990625,1.2674375,0.018257453200831983,0.025508985318823153,True
22474,64255,0,64256,3914.0,37879.0,27938.0,0.016958,-0.007686,-0.005124,-0.035,-5.197500000000001,-2.8000000000000003,1.0155625,0.1049375,0.6669375,1.28703125,0.9743437500000001,-0.34025,0.06306250000000001,1.27178125,0.018290177791929006,0.025227746866114346,True
22475,64256,0,64257,3915.0,37876.0,27940.0,0.018239,0.0018909999999999999,0.00061,0.28,-4.445,-3.0975,1.015125,0.105125,0.6694375,1.289,0.9741875,-0.34025,0.06040625,1.271375,0.01829788108174731,0.02544033354784895,True
22476,64257,0,64258,3914.0,37879.0,27946.0,0.00793,0.005795,-0.0008539999999999999,0.7175,-3.535,-3.2900000000000005,1.0155625,0.1019375,0.669625,1.2891875,0.97965625,-0.33828125000000003,0.06090625,1.2774375,0.018087503611209196,0.02542781094209132,True
22477,64258,0,64259,3914.0,37881.0,27948.0,0.005429,0.012627,-0.0042699999999999995,1.0850000000000002,-2.8525000000000005,-3.5175000000000005,1.0224375,0.11034375,0.66996875,1.2951875,0.97778125,-0.3385625,0.0578125,1.2721875,0.018444238438486252,0.025568100241467075,True
22478,64259,0,64260,3915.0,37885.0,27951.0,0.0015249999999999999,0.012444,0.001403,1.6975000000000002,-2.2225,-3.3600000000000003,1.01534375,0.10534375,0.66703125,1.2973125,0.973875,-0.34659375000000003,0.06256250000000001,1.25971875,0.01856265827740277,0.025252024156721033,True
22479,64260,0,64261,3916.0,37887.0,27958.0,-0.010431,0.0021349999999999997,0.007686,1.4175000000000002,-2.0300000000000002,-3.22,1.01453125,0.105625,0.6675625000000001,1.28809375,0.96678125,-0.34578125,0.062625,1.27440625,0.018541456746227848,0.025271672436931788,True
22480,64261,0,64262,3916.0,37885.0,27957.0,-0.007503,-0.010431,0.0008539999999999999,0.665,-1.995,-3.4125000000000005,1.01621875,0.1031875,0.6700625,1.288875,0.9769375,-0.33715625,0.06025,1.286125,0.018093475896552212,0.025472801512129408,True
22481,64262,0,64263,3916.0,37885.0,27957.0,-0.0028669999999999998,-0.011285,-0.0021349999999999997,0.14,-1.6275000000000002,-3.5525,1.01859375,0.1054375,0.66990625,1.29525,0.9785312500000001,-0.3375,0.06228125,1.2651875000000001,0.01819979455572676,0.025383580045613165,True
22482,64263,0,64264,3917.0,37881.0,27956.0,-0.010126,-0.010431,0.002196,0.5775,-0.5425000000000001,-3.3075,1.0156875,0.10465625,0.66990625,1.28903125,0.9841875,-0.33703125,0.06053125,1.2820625,0.018148783040248594,0.025454825516961398,True
22483,64264,0,64265,3917.0,37879.0,27957.0,-0.015006,-0.001952,0.0057339999999999995,0.8925000000000001,0.6300000000000001,-3.325,1.02025,0.10540625,0.6678125,1.289,0.96703125,-0.34318750000000003,0.06303125,1.2730625,0.018427896921880096,0.02526557377905254,True
22484,64265,0,64266,3917.0,37883.0,27958.0,-0.010187,0.001647,0.0037819999999999998,0.8575,0.14,-3.6400000000000006,1.02203125,0.10590625000000001,0.66921875,1.29671875,0.9795312500000001,-0.33759375,0.05409375,1.262625,0.018222836840638777,0.02568810691806663,True
22485,64266,0,64267,3916.0,37881.0,27959.0,0.004514,0.003843,-0.003477,0.8575,-0.5775,-3.6225000000000005,1.00715625,0.10250000000000001,0.670375,1.2883125,0.97703125,-0.3415625,0.06146875,1.2838125,0.01824297433658994,0.025436240997450506,True
22486,64267,0,64268,3920.0,37882.0,27959.0,0.015677,0.005063,-0.008113,0.8575,-1.225,-3.3425000000000002,1.0109375,0.10575,0.6659375,1.28878125,0.967,-0.341375,0.05734375,1.269375,0.018368929446261766,0.025418806653919192,True
22487,64268,0,64269,3920.0,37882.0,27960.0,0.013237,0.002562,-0.0034159999999999998,0.9625000000000001,-0.9450000000000001,-3.22,1.0169062500000001,0.10278125,0.6691875,1.2943437500000001,0.99053125,-0.33703125,0.05809375,1.28109375,0.018071739953902554,0.02552402234053523,True
22488,64269,0,64270,3918.0,37882.0,27959.0,0.005246,-0.000915,0.004514,0.7175,0.21000000000000002,-3.6750000000000003,1.0174375,0.11018750000000001,0.667625,1.28846875,0.96696875,-0.34365625,0.06256250000000001,1.2791875,0.01864320401747375,0.025276828399029762,True
22489,64270,0,64271,3920.0,37880.0,27960.0,0.0059169999999999995,0.000366,0.003172,0.665,0.7350000000000001,-3.9200000000000004,1.0220625,0.10725,0.66746875,1.29353125,0.9754375000000001,-0.33859375,0.05821875,1.26946875,0.01831838579416693,0.025447145875998684,True
22490,64271,0,64272,3919.0,37879.0,27958.0,0.0008539999999999999,0.0015249999999999999,0.0011589999999999999,0.7000000000000001,1.7675,-3.7625,1.0148125000000001,0.10459375,0.66921875,1.29409375,0.98046875,-0.33684375,0.059625000000000004,1.26753125,0.018138650374496485,0.02546299922202555,True
22491,64272,0,64273,3921.0,37882.0,27958.0,-0.005795,0.005246,0.001403,0.8225000000000001,2.9925,-3.5175000000000005,1.01571875,0.10340625,0.6690625,1.29465625,0.9775625,-0.33828125000000003,0.05896875,1.2768125000000001,0.0181478509292845,0.025483185900774426,True
22492,64273,0,64274,3920.0,37882.0,27959.0,-0.008784,0.00366,0.001037,0.805,3.8850000000000002,-3.3425000000000002,1.01546875,0.10337500000000001,0.669125,1.293625,0.9741562500000001,-0.3420625,0.059187500000000004,1.27775,0.018299086201097377,0.0254768922316233,True
22493,64274,0,64275,3921.0,37882.0,27962.0,-0.003355,-0.0018909999999999999,-0.005124,0.24500000000000002,3.8675,-3.1675000000000004,1.0125625,0.1021875,0.66915625,1.29340625,0.97403125,-0.3415625,0.059250000000000004,1.27153125,0.01823013621249663,0.025475653436087004,True
22494,64275,0,64276,3921.0,37882.0,27962.0,0.001098,-0.0064659999999999995,-0.007076,-0.0175,3.7800000000000002,-3.0975,1.0159375,0.10378125,0.6695625000000001,1.29384375,0.9740625,-0.34184375,0.05959375,1.27575,0.018306953432810528,0.025478629879140003,True
22495,64276,0,64277,3923.0,37882.0,27964.0,-0.00061,-0.008052,-0.003172,-0.15750000000000003,4.1825,-3.2025,1.01565625,0.10359375,0.6729375,1.29390625,0.9741562500000001,-0.33996875,0.059375000000000004,1.272,0.01822362651965196,0.025628508027672626,True
22496,64277,0,64278,3921.0,37885.0,27967.0,-0.004758,-0.0066489999999999995,0.0006709999999999999,0.08750000000000001,4.515000000000001,-3.3075,1.00946875,0.1068125,0.66909375,1.2875625,0.974375,-0.33984375,0.059125000000000004,1.27425,0.018350826512598298,0.025478131020691602,True
22497,64278,0,64279,3922.0,37887.0,27968.0,-0.008905999999999999,6.1e-05,0.0023179999999999997,0.49000000000000005,4.795000000000001,-3.4125000000000005,1.015875,0.10328125,0.67284375,1.2891875,0.9731562500000001,-0.34,0.06,1.27865625,0.018212048069022185,0.02559915413533834,True
22498,64279,0,64280,3924.0,37889.0,27969.0,-0.011773,0.007869,0.004392,1.0325000000000002,4.2700000000000005,-3.6925000000000003,1.0215,0.10625,0.67025,1.29671875,0.97890625,-0.3383125,0.063375,1.278375,0.01826595414123309,0.025353407174152583,True
22499,64280,0,64281,3923.0,37891.0,27971.0,-0.009637999999999999,0.008296,0.0026839999999999998,0.9625000000000001,3.3600000000000003,-3.6575,1.0165,0.10515625,0.6659375,1.29325,0.97384375,-0.3394375,0.0605,1.27203125,0.018266393789914005,0.025290315169489756,True
22500,64281,0,64282,3924.0,37890.0,27969.0,-0.005856,0.005795,0.004941,0.9100000000000001,2.555,-3.5000000000000004,1.014125,0.10553125000000001,0.66490625,1.2856875,0.9731875,-0.33896875,0.059375000000000004,1.26353125,0.01826289373907841,0.025293042683722754,True
22501,64282,0,64283,3926.0,37892.0,27970.0,-0.003538,0.001647,0.002928,0.8750000000000001,1.4700000000000002,-3.325,1.01103125,0.1015,0.66859375,1.28678125,0.973375,-0.34021875,0.0606875,1.27265625,0.018147690229776595,0.02539363860177689,True
22502,64283,0,64284,3924.0,37891.0,27972.0,0.00061,-0.00183,-0.000244,0.7350000000000001,0.385,-3.325,1.0219375,0.112125,0.670625,1.296875,0.9816875,-0.338375,0.06446875,1.2758125,0.018509863538547666,0.025324537135560758,True
22503,64284,0,64285,3925.0,37891.0,27975.0,0.0075639999999999995,-0.004331,-0.001586,0.22750000000000004,-0.43750000000000006,-3.4125000000000005,1.01246875,0.10515625,0.6696875,1.28759375,0.96659375,-0.3408125,0.05915625,1.2715,0.018321851417244187,0.02550165968983445,True
22504,64285,0,64286,3925.0,37892.0,27975.0,0.005124,-0.003355,-0.001281,0.28,-0.525,-3.3075,1.01275,0.1040625,0.66559375,1.30075,0.9745312500000001,-0.33759375,0.06065625,1.2711875000000001,0.01814707955670433,0.02526959411742438,True
22505,64286,0,64287,3925.0,37891.0,27974.0,0.002989,-0.000793,-0.001281,0.47250000000000003,-0.5775,-3.22,1.0124375,0.106125,0.6656562500000001,1.28528125,0.9741875,-0.33984375,0.06271875,1.27165625,0.01832258064516129,0.02518821973568949,True
22506,64287,0,64288,3928.0,37891.0,27974.0,-6.1e-05,0.0023179999999999997,-0.000183,0.7350000000000001,-0.7525000000000001,-3.3425000000000002,1.01378125,0.09946875000000001,0.66890625,1.286,0.9794375000000001,-0.3388125,0.06165625,1.271375,0.018007503447425795,0.025367252068138592,True
22507,64288,0,64289,3925.0,37891.0,27978.0,0.000976,0.0025009999999999998,0.0011589999999999999,0.805,-1.1025,-3.3600000000000003,1.01778125,0.09909375000000001,0.6717500000000001,1.29084375,0.97796875,-0.3373125,0.06053125,1.27559375,0.01793157112150325,0.02553184268134605,True
22508,64289,0,64290,3925.0,37892.0,27976.0,0.0026839999999999998,-0.001952,-0.0034159999999999998,0.665,-2.205,-3.2550000000000003,1.0236875,0.10640625000000001,0.67003125,1.2975,0.9755,-0.339,0.0605625,1.2745,0.018300104770122026,0.025458774877229258,True
22509,64290,0,64291,3925.0,37892.0,27976.0,0.0021349999999999997,-0.001403,-0.002562,0.6125,-2.6250000000000004,-3.2550000000000003,1.01253125,0.105875,0.6686875,1.29278125,0.9740625,-0.339625,0.0604375,1.2713125,0.01830348659849936,0.02540773249302279,True
22510,64291,0,64292,3927.0,37893.0,27980.0,0.0042699999999999995,0.000183,-0.00042699999999999997,0.7175,-2.7475,-3.3775000000000004,1.0136875,0.10653125000000001,0.67115625,1.29446875,0.9735312500000001,-0.33875,0.05903125,1.274375,0.018295156900005136,0.025568096529093046,True
22511,64292,0,64293,3927.0,37893.0,27980.0,0.002623,-0.00042699999999999997,0.002013,0.56,-2.7475,-3.4475000000000002,1.0150937500000001,0.1023125,0.6724375,1.28928125,0.97059375,-0.33953125,0.06221875,1.27659375,0.01815333851180885,0.025491867589023106,True
22512,64293,0,64294,3925.0,37892.0,27981.0,0.0023179999999999997,-0.001098,-0.000915,0.385,-2.24,-3.7450000000000006,1.0125,0.11021875,0.66996875,1.2945312500000001,0.9746250000000001,-0.33809375,0.059250000000000004,1.27284375,0.018420197760968853,0.02550959138707016,True
22513,64294,0,64295,3926.0,37891.0,27979.0,0.0011589999999999999,-0.002989,-0.000488,0.35000000000000003,-1.7850000000000001,-3.6750000000000003,1.0155625,0.10271875,0.67478125,1.2883125,0.9645625,-0.33753125,0.0623125,1.28990625,0.018089345031657638,0.025585961467664745,True
22514,64295,0,64296,3927.0,37891.0,27979.0,-0.0023179999999999997,-0.005307,0.00122,0.12250000000000001,-1.5050000000000001,-3.7275000000000005,1.02240625,0.10571875,0.6713125,1.29590625,0.9735,-0.33768750000000003,0.0559375,1.2670937500000001,0.018218914594905534,0.025700525965466386,True
22515,64296,0,64297,3927.0,37886.0,27972.0,-0.0015249999999999999,-0.0057339999999999995,0.0021349999999999997,0.10500000000000001,-1.1725,-3.8850000000000002,1.0156875,0.1033125,0.6713125,1.2887187500000001,1.004,-0.33696875,0.05903125,1.28921875,0.018091047185159408,0.025574622998494997,True
22516,64297,0,64298,3926.0,37881.0,27965.0,-0.002196,0.000488,0.001037,0.385,-0.9625000000000001,-4.0075,1.02153125,0.10571875,0.6676562500000001,1.288375,0.96125,-0.34815625,0.0665625,1.26440625,0.018641041865336314,0.025115228433023884,True
22517,64298,0,64299,3924.0,37880.0,27961.0,-0.006039,0.010065,0.000732,0.9275000000000001,-0.8400000000000001,-3.8325000000000005,1.0150000000000001,0.10928125,0.67134375,1.28821875,0.98975,-0.33465625,0.0703125,1.29115625,0.01824301504156238,0.02511655239960823,True
22518,64299,0,64300,3923.0,37881.0,27958.0,-6.1e-05,0.008418,-6.1e-05,0.7350000000000001,-1.33,-3.7275000000000005,1.02196875,0.1058125,0.6695625000000001,1.28978125,0.96159375,-0.34553125,0.06715625,1.27440625,0.018539079938951836,0.025170692471512084,True
22519,64300,0,64301,3926.0,37881.0,27953.0,0.003294,-0.00122,-0.0025009999999999998,0.14,-1.7675,-3.5525,1.01134375,0.10309375,0.6709375,1.29515625,0.99003125,-0.335625,0.05409375,1.26659375,0.018027839843850323,0.025759883278587543,True
22520,64301,0,64302,3925.0,37882.0,27952.0,0.0053679999999999995,-0.0071979999999999995,-0.004148,-0.17500000000000002,-2.1,-3.6925000000000003,1.0150937500000001,0.10471875,0.66925,1.28846875,0.9719375,-0.33775,0.066875,1.2910625,0.018180347402697455,0.025169090956571695,True
22521,64302,0,64303,3924.0,37879.0,27950.0,0.005063,-0.008662,-0.005063,-0.14,-2.3625000000000003,-3.6575,1.0167187500000001,0.11071875,0.67034375,1.292,0.9861562500000001,-0.33540625,0.05446875,1.25996875,0.018332342407474708,0.02571983029192556,True
22522,64303,0,64304,3923.0,37881.0,27949.0,0.003172,-0.0032329999999999998,0.001769,0.21000000000000002,-2.1350000000000002,-3.7975000000000003,1.015125,0.106375,0.66990625,1.28884375,0.9770625000000001,-0.34068750000000003,0.06709375000000001,1.2593750000000001,0.01836688055750274,0.02518760127596288,True
22523,64304,0,64305,3924.0,37880.0,27948.0,-0.0008539999999999999,6.1e-05,0.002623,0.43750000000000006,-1.9425000000000001,-3.8850000000000002,1.01559375,0.10378125,0.6726875,1.28934375,0.9943125,-0.33153125,0.06356250000000001,1.28659375,0.01789087976121519,0.025447604723969473,True
22524,64305,0,64306,3921.0,37881.0,27946.0,-0.004392,0.006344,0.003538,0.77,-1.8550000000000002,-3.8675,1.0118125,0.10953125,0.6718125,1.29553125,0.96309375,-0.338125,0.05928125,1.2718125,0.018393210241134023,0.025585332520561863,True
22525,64306,0,64307,3923.0,37883.0,27946.0,-0.005795,0.008723,0.002379,1.0325000000000002,-1.8025000000000002,-4.0425,1.0147187500000001,0.11075,0.66959375,1.28865625,0.9646875,-0.3446875,0.06359375,1.2650000000000001,0.01870788031269656,0.025317083678758165,True
22526,64307,0,64308,3921.0,37881.0,27947.0,-0.007442,0.011041,0.002623,0.8575,-1.7850000000000001,-4.2700000000000005,1.02196875,0.105375,0.67184375,1.29259375,0.97509375,-0.336625,0.06240625,1.2773125,0.018161926725665533,0.025459430315547066,True
22527,64308,0,64309,3921.0,37882.0,27948.0,0.001098,0.000915,0.0030499999999999998,0.08750000000000001,-1.9425000000000001,-4.112500000000001,1.015625,0.104875,0.67059375,1.28890625,0.9730625,-0.34075,0.0615,1.2710625,0.018307776054558713,0.025444106773607367,True
22528,64309,0,64310,3921.0,37882.0,27950.0,0.0046359999999999995,-0.007137,0.002928,-0.29750000000000004,-1.6800000000000002,-3.8500000000000005,1.0213125,0.105875,0.6705,1.2935625,0.9803125,-0.338125,0.05965625,1.2679375,0.018242982974243083,0.025515245577875215,True
22529,64310,0,64311,3920.0,37883.0,27952.0,0.007808,-0.011956,0.00122,-0.5775,-1.2775,-3.6750000000000003,1.01903125,0.10775,0.672125,1.29259375,0.9745312500000001,-0.338625,0.06028125,1.26625,0.018340189719016586,0.02555768329567364,True
22530,64311,0,64312,3921.0,37883.0,27954.0,0.010614,-0.013359,0.000244,-0.665,-0.8575,-3.5875000000000004,1.0145,0.10565625000000001,0.67140625,1.2885625,0.9686875,-0.33940625,0.06393750000000001,1.27034375,0.018285676134766025,0.025378808649083366,True
22531,64312,0,64313,3922.0,37882.0,27958.0,0.008479,-0.010126,-0.0050019999999999995,-0.45500000000000007,-0.42000000000000004,-3.9375000000000004,1.0161875,0.10434375,0.6723125,1.29275,0.98059375,-0.33803125,0.06378125,1.2770000000000001,0.018176285314778697,0.025423031781074443,True
22532,64313,0,64314,3919.0,37885.0,27961.0,0.006161,0.0060999999999999995,-0.008601,0.22750000000000004,0.77,-4.550000000000001,1.0150000000000001,0.10459375,0.6719375,1.2889375,0.974,-0.34,0.0604375,1.27190625,0.018265971651602302,0.02554349103079891,True
22533,64314,0,64315,3921.0,37887.0,27964.0,-0.000183,0.0077469999999999995,-0.003355,0.43750000000000006,1.5750000000000002,-4.4975000000000005,1.02215625,0.105625,0.66934375,1.2874375,0.9813125,-0.338875,0.06359375,1.2720625,0.018262964085234014,0.025306639337306536,True
22534,64315,0,64316,3921.0,37889.0,27970.0,-0.008662,0.002623,0.000915,0.28,2.3800000000000003,-4.4625,1.0193125,0.105875,0.6694687500000001,1.28859375,0.9818125,-0.33803125,0.061125,1.2709375,0.018239201250101113,0.025412378401240665,True
22535,64316,0,64317,3920.0,37888.0,27970.0,-0.011041,-0.0018909999999999999,0.00183,0.0175,2.6950000000000003,-4.4275,1.03359375,0.10634375,0.6679375,1.286875,0.9761562500000001,-0.33815625,0.0615,1.27203125,0.018263503423764895,0.025333145351630216,True
22536,64317,0,64318,3924.0,37890.0,27972.0,-0.008784,-0.003172,0.002562,-0.035,2.7300000000000004,-4.4975000000000005,1.0313125,0.1073125,0.6681875,1.28240625,0.98309375,-0.33825,0.0615625,1.27175,0.01830708863620022,0.02534104408443534,True
22537,64318,0,64319,3925.0,37891.0,27974.0,-0.011224,0.0051849999999999995,0.0053679999999999995,0.5425000000000001,3.1500000000000004,-4.62,1.01565625,0.10390625,0.6748125,1.3016875,0.97459375,-0.33890625,0.0643125,1.2793125,0.01819360720040573,0.025505847701261977,True
22538,64319,0,64320,3923.0,37890.0,27974.0,-0.014029999999999999,0.007808,0.0051849999999999995,0.7875000000000001,2.9925,-4.6375,1.00940625,0.10546875,0.6693125,1.28240625,0.974,-0.33871875,0.0621875,1.27215625,0.018250241705923816,0.025362593177634757,True
22539,64320,0,64321,3923.0,37892.0,27977.0,-0.010797,0.00915,0.0055509999999999995,0.7000000000000001,2.0475000000000003,-4.6025,1.03165625,0.10709375,0.6666562500000001,1.285625,0.98203125,-0.33821875,0.0608125,1.27171875,0.018296840231991095,0.02530761539003778,True
22540,64321,0,64322,3924.0,37892.0,27975.0,-0.004941,0.007442,0.0040869999999999995,0.6300000000000001,0.8225000000000001,-4.4975000000000005,1.010875,0.1033125,0.6740625,1.305,0.97428125,-0.33990625,0.06403125,1.2770000000000001,0.01820955041681806,0.025485964506867933,True
22541,64322,0,64323,3923.0,37891.0,27976.0,-0.00122,0.003172,0.002989,0.3325,-0.35000000000000003,-4.1475,0.99809375,0.10103125,0.66925,1.28178125,0.97478125,-0.33990625,0.06175,1.2719375,0.018115825733716624,0.02537779495159421,True
22542,64323,0,64324,3925.0,37892.0,27976.0,0.004331,-0.005124,-0.0026839999999999998,-0.08750000000000001,-2.1175,-3.6400000000000006,1.0313125,0.1074375,0.66984375,1.28475,0.981375,-0.33865625,0.06296875,1.27296875,0.018328610479471315,0.02535297688597035,True
22543,64324,0,64325,3925.0,37890.0,27972.0,0.0032329999999999998,-0.005856,-0.005429,-0.22750000000000004,-2.5375,-3.535,1.027875,0.1065625,0.67309375,1.304,0.97603125,-0.33868750000000003,0.0643125,1.2788125000000001,0.018293919916593696,0.025434040697598515,True
22544,64325,0,64326,3923.0,37891.0,27974.0,0.001098,-0.0055509999999999995,-0.00366,-0.052500000000000005,-3.0100000000000002,-3.535,1.01003125,0.10634375,0.6668125,1.28275,0.9736875,-0.33840625,0.0611875,1.2723125,0.0182735876553133,0.02529887395208096,True
22545,64326,0,64327,3925.0,37889.0,27973.0,0.003904,-0.002379,-0.002989,0.0175,-3.6225000000000005,-3.7275000000000005,1.02446875,0.1079375,0.67184375,1.28790625,0.97971875,-0.33759375,0.06415625,1.264125,0.01830629825514283,0.025388179599893985,True
22546,64327,0,64328,3925.0,37888.0,27971.0,0.006527,-0.0015249999999999999,0.000549,0.0175,-4.077500000000001,-3.6925000000000003,1.01521875,0.10378125,0.67284375,1.296,0.9773437500000001,-0.33934375,0.06346875,1.27590625,0.018206119464498707,0.025457949342597413,True
22547,64328,0,64329,3925.0,37888.0,27972.0,0.008662,-0.00042699999999999997,-0.0006709999999999999,0.17500000000000002,-4.305000000000001,-3.4125000000000005,1.0141875,0.1043125,0.6728125,1.293875,0.9743125,-0.3405625,0.06384375,1.2784375000000001,0.018277104319179147,0.02544137595191375,True
22548,64329,0,64330,3924.0,37890.0,27975.0,0.008173999999999999,-0.000122,-0.0013419999999999999,0.17500000000000002,-4.3925,-3.3425000000000002,1.01496875,0.10234375,0.6736562500000001,1.288375,0.9736875,-0.3405625,0.06490625,1.2718125,0.018196220814535407,0.025433366017210614,True
22549,64330,0,64331,3926.0,37890.0,27975.0,0.009028,0.002196,-0.000305,0.21000000000000002,-4.112500000000001,-3.2900000000000005,1.02234375,0.11075,0.6713125,1.28984375,0.9739375,-0.3389375,0.06234375,1.2667187500000001,0.01847605303230677,0.02543978172466237,True
22550,64331,0,64332,3924.0,37890.0,27977.0,0.011041,0.0021349999999999997,-0.00183,0.24500000000000002,-3.7625,-3.5000000000000004,1.0235625,0.1058125,0.6713125,1.288875,0.9813125,-0.33834375,0.060875,1.2721875,0.018249238919554666,0.02549957444142173,True
22551,64332,0,64333,3925.0,37889.0,27977.0,0.009333,-0.000976,-0.002257,-0.035,-3.0275000000000003,-3.6925000000000003,1.02303125,0.105125,0.6724687500000001,1.2963125,0.98240625,-0.33625,0.06028125,1.275875,0.018136524731624633,0.025572042278065615,True
22552,64333,0,64334,3925.0,37890.0,27981.0,-0.0017079999999999999,-0.0046359999999999995,-0.003355,-0.28,-0.805,-4.3925,1.015625,0.10225000000000001,0.6734375,1.288375,0.9742500000000001,-0.33337500000000003,0.06453125,1.2730000000000001,0.017902366605536634,0.025439495518549224,True
22553,64334,0,64335,3925.0,37890.0,27981.0,-0.00915,-0.00183,-0.002379,0.0175,0.17500000000000002,-4.567500000000001,1.0220625,0.106375,0.67115625,1.28878125,0.9801875,-0.33840625,0.06125,1.27134375,0.01827487163420982,0.025477781839068455,True
22554,64335,0,64336,3926.0,37890.0,27983.0,-0.013481,0.002074,-0.00122,0.17500000000000002,0.805,-4.9,1.02109375,0.1025625,0.67221875,1.29640625,0.9825625,-0.33834375,0.06331250000000001,1.27765625,0.01811570477140623,0.02543820025222788,True
22555,64336,0,64337,3926.0,37892.0,27985.0,-0.018178,0.003538,0.0006709999999999999,0.24500000000000002,0.7350000000000001,-5.1275,1.014375,0.10190625,0.672125,1.296,0.974125,-0.341375,0.06343750000000001,1.2783125,0.018211019303552078,0.02542919435487029,True
22556,64337,0,64338,3926.0,37890.0,27986.0,-0.017934,0.0034159999999999998,0.003965,0.29750000000000004,0.21000000000000002,-5.022500000000001,1.01534375,0.1049375,0.67084375,1.28809375,0.9739375,-0.34025,0.06353125,1.27178125,0.018290177791929006,0.02537185022331249,True
22557,64338,0,64339,3927.0,37893.0,27986.0,-0.008539999999999999,0.004514,0.00976,0.47250000000000003,-2.345,-4.375,1.02003125,0.1058125,0.67215625,1.2955,0.98071875,-0.33540625,0.064125,1.2763125,0.01813073286993103,0.02540250774203993,True
22558,64339,0,64340,3926.0,37895.0,27988.0,-0.000915,0.003843,0.00793,0.35000000000000003,-3.7275000000000005,-4.0600000000000005,1.0156875,0.10415625,0.6717500000000001,1.2883437500000001,0.9647187500000001,-0.340875,0.06331250000000001,1.27284375,0.018283288912169345,0.025418617342102996,True
22559,64340,0,64341,3928.0,37895.0,27989.0,0.007808,0.0028669999999999998,0.0057339999999999995,0.31500000000000006,-4.6725,-3.7800000000000002,1.012,0.10590625000000001,0.6700625,1.29171875,0.97984375,-0.338,0.0610625,1.27184375,0.018239224669241518,0.025439725551729266,True
22560,64341,0,64342,3928.0,37894.0,27990.0,0.014884,-0.000915,0.0030499999999999998,0.035,-5.1450000000000005,-3.43,1.01634375,0.10178125,0.6725625000000001,1.2900625000000001,0.97475,-0.340125,0.06453125,1.27796875,0.0181554634579732,0.025402938891681413,True
22561,64342,0,64343,3927.0,37894.0,27988.0,0.011651,-0.008845,-0.005429,-0.385,-5.390000000000001,-3.0975,1.01853125,0.1050625,0.67234375,1.288875,0.97371875,-0.339125,0.06321875,1.27234375,0.01824993708689199,0.02544723927741956,True
22562,64343,0,64344,3928.0,37893.0,27986.0,0.016958,-0.004941,-0.014395999999999999,-0.29750000000000004,-5.250000000000001,-3.7100000000000004,1.020875,0.10509375,0.672,1.2926875,0.9793437500000001,-0.33871875,0.061,1.26740625,0.018234834156995217,0.025523204812231085,True
22563,64344,0,64345,3928.0,37894.0,27988.0,0.016592,-0.00042699999999999997,-0.010065,0.0,-4.375,-3.9025000000000003,1.01521875,0.10509375,0.67184375,1.28896875,0.9736250000000001,-0.3409375,0.06256250000000001,1.27178125,0.0183243250182948,0.02545306906806545,True
22564,64345,0,64346,3928.0,37892.0,27988.0,0.012444,-0.0023179999999999997,-0.003721,-0.24500000000000002,-3.22,-4.130000000000001,1.01946875,0.10646875,0.66934375,1.2898125,0.9824375000000001,-0.339125,0.06115625,1.2728125000000001,0.018307714430983037,0.025405884526064463,True
22565,64346,0,64347,3929.0,37893.0,27990.0,0.002806,-0.004026,0.00122,-0.4025,-1.8375000000000001,-4.235,1.01571875,0.1041875,0.672625,1.291875,0.97890625,-0.34128125,0.06353125,1.27753125,0.018300957349975156,0.02544626596184953,True
22566,64347,0,64348,3929.0,37894.0,27990.0,-0.007259,-0.002257,0.003294,-0.10500000000000001,-0.7525000000000001,-4.322500000000001,1.0156875,0.10396875,0.6723750000000001,1.2924375000000001,0.9735312500000001,-0.3419375,0.06321875,1.27584375,0.018318437059498652,0.025448544799648035,True
22567,64348,0,64349,3931.0,37896.0,27993.0,-0.009394,0.01098,0.0018909999999999999,0.9800000000000001,-0.77,-4.7075000000000005,1.0160625,0.1048125,0.67253125,1.2921875,0.974125,-0.34318750000000003,0.06356250000000001,1.28109375,0.018403506114390324,0.0254410770190844,True
22568,64349,0,64350,3929.0,37894.0,27991.0,-0.008905999999999999,0.013786,0.001403,1.1725,-1.2425000000000002,-4.7075000000000005,1.00778125,0.104625,0.67278125,1.2955625,0.96578125,-0.34203125,0.063875,1.2823125,0.01834917741303943,0.025438798051062986,True
22569,64350,0,64351,3929.0,37890.0,27985.0,-0.010614,0.009028,0.005124,1.0150000000000001,-1.4000000000000001,-4.7250000000000005,1.01571875,0.10271875,0.67340625,1.3030625,0.9707187500000001,-0.33646875,0.06425,1.2825312500000001,0.01804647603198389,0.025449641227034876,True
22570,64351,0,64352,3929.0,37888.0,27978.0,-0.012199999999999999,-0.004575,0.002623,0.35000000000000003,-1.6625,-4.515000000000001,1.0033125,0.11340625,0.6664375,1.2805,0.9716250000000001,-0.34321875,0.069125,1.26803125,0.01875779060647023,0.02495991057577293,True
22571,64352,0,64353,3927.0,37883.0,27973.0,-0.008784,-0.00915,-0.005307,-0.24500000000000002,-2.4675000000000002,-4.4975000000000005,1.02840625,0.10703125000000001,0.68421875,1.31078125,0.98571875,-0.33740625,0.06403125,1.2815625,0.018261498182453196,0.02591027363369197,True
22572,64353,0,64354,3928.0,37882.0,27968.0,-0.0059169999999999995,-0.001281,0.00061,0.31500000000000006,-3.7450000000000006,-4.305000000000001,1.00315625,0.10440625,0.6645625000000001,1.277875,0.9714375000000001,-0.338875,0.06190625,1.2695,0.018212889872683102,0.025175615748434438,True
22573,64354,0,64355,3929.0,37884.0,27965.0,-0.002074,0.0040869999999999995,0.005795,0.42000000000000004,-4.655,-4.340000000000001,1.03528125,0.110125,0.67384375,1.3079375,0.98728125,-0.33746875,0.06415625,1.28190625,0.018391138149894903,0.025471736295070022,True
22574,64355,0,64356,3929.0,37885.0,27963.0,0.000732,0.0006709999999999999,0.007991,0.1925,-5.74,-4.077500000000001,1.0023125,0.0976875,0.673125,1.28065625,0.972,-0.34390625,0.06553125,1.26865625,0.01813980654809661,0.02538572116834638,True
22575,64356,0,64357,3926.0,37884.0,27961.0,-0.000549,-0.000244,0.0066489999999999995,0.0,-6.6850000000000005,-3.8850000000000002,1.0393125,0.10821875,0.6679375,1.2885312500000001,0.9874375,-0.3375625,0.06028125,1.26878125,0.018316593948140864,0.025382764782898713,True
22576,64357,0,64358,3924.0,37884.0,27958.0,0.007869,0.010248,0.003904,0.525,-8.662500000000001,-3.5525,1.00515625,0.10025,0.68003125,1.30478125,0.9714375000000001,-0.3415,0.06559375,1.27846875,0.018148018815602983,0.025671725196859646,True
22577,64358,0,64359,3924.0,37884.0,27957.0,0.008784,0.009455,0.000976,0.4025,-9.38,-3.3600000000000003,1.0134375,0.10359375,0.67225,1.28015625,0.97484375,-0.3385,0.06306250000000001,1.27025,0.01816437948106909,0.025449684196234376,True
22578,64359,0,64360,3925.0,37885.0,27956.0,0.008357,0.005429,0.0,0.12250000000000001,-9.922500000000001,-3.2025,1.03803125,0.10934375,0.67121875,1.2983437500000001,0.9804375000000001,-0.33846875,0.06415625,1.27415625,0.01839937033836609,0.025362068132651475,True
22579,64360,0,64361,3924.0,37884.0,27956.0,0.013359,-0.0032329999999999998,-0.0044529999999999995,-0.4025,-10.255,-2.9925,1.00578125,0.09421875,0.67771875,1.3066875,0.9666875,-0.34096875,0.0649375,1.27925,0.01787880772000909,0.025601823684396063,True
22580,64361,0,64362,3922.0,37883.0,27955.0,0.016104,-0.012017,-0.008539999999999999,-0.9800000000000001,-10.080000000000002,-2.9225000000000003,1.0059375,0.10621875,0.6720625,1.27759375,0.9736875,-0.33640625,0.06281250000000001,1.27134375,0.0181877716641092,0.025452029399861614,True
22581,64362,0,64363,3920.0,37882.0,27956.0,0.017324,-0.013176,-0.006405,-1.1375000000000002,-8.155000000000001,-3.2025,1.023625,0.1070625,0.675125,1.2934375,0.98253125,-0.33803125,0.06415625,1.27228125,0.01828799319994299,0.025525264802917173,True
22582,64363,0,64364,3922.0,37882.0,27955.0,0.017202,-0.006588,-0.004758,-0.8225000000000001,-6.702500000000001,-3.43,1.0013750000000001,0.10350000000000001,0.6739375,1.293875,0.96746875,-0.3379375,0.06484375,1.27775,0.01813783522124667,0.025447661324542223,True
22583,64364,0,64365,3921.0,37884.0,27958.0,0.016226,-0.000915,-0.0026839999999999998,-0.35000000000000003,-5.232500000000001,-3.7275000000000005,1.01578125,0.1038125,0.674125,1.28840625,0.9745,-0.34053125,0.06540625,1.28,0.01825530204892303,0.0254325916854135,True
22584,64365,0,64366,3921.0,37885.0,27961.0,0.010735999999999999,0.003904,-0.0028669999999999998,0.07,-3.8500000000000005,-3.9725000000000006,1.0215,0.10528125,0.67253125,1.2890625,0.974875,-0.33771875,0.06371875,1.2727187500000001,0.01820219900437464,0.025434715344514927,True
22585,64366,0,64367,3920.0,37886.0,27963.0,0.006039,0.007442,-0.003172,0.43750000000000006,-2.2925000000000004,-4.375,1.01325,0.10690625000000001,0.67359375,1.29540625,0.98175,-0.33621875,0.06703125,1.2725625,0.018208457301938083,0.02534422312317606,True
22586,64367,0,64368,3920.0,37887.0,27966.0,-0.001281,0.000244,0.003843,0.24500000000000002,0.43750000000000006,-4.9175,1.01521875,0.10315625,0.67496875,1.2829375,0.9751562500000001,-0.33990625,0.0655625,1.27784375,0.0182031309179755,0.025461482017281583,True
22587,64368,0,64369,3921.0,37888.0,27969.0,-0.01098,-0.003111,0.004697,0.1925,1.7325000000000002,-5.215000000000001,1.02203125,0.1035625,0.6741875,1.29475,0.96896875,-0.3388125,0.06515625,1.277875,0.018175701875348275,0.025445382320492486,True
22588,64369,0,64370,3922.0,37888.0,27970.0,-0.018178,-0.000976,0.0028669999999999998,0.49000000000000005,2.6950000000000003,-5.407500000000001,1.022,0.10575,0.67259375,1.29428125,0.974375,-0.33903125,0.06196875,1.267125,0.018274402355270405,0.025508572264062022,True
22589,64370,0,64371,3920.0,37892.0,27975.0,-0.020923,0.0035989999999999998,0.00061,0.9275000000000001,3.22,-5.495,1.01584375,0.10209375,0.67159375,1.2893125,0.9765,-0.34028125,0.06565625,1.27559375,0.01817460511061268,0.025316654023572298,True
22590,64371,0,64372,3920.0,37894.0,27978.0,-0.022509,0.00793,-0.001281,0.9100000000000001,3.4475000000000002,-5.425000000000001,1.02078125,0.10284375,0.673875,1.2926875,0.97975,-0.33809375,0.06478125,1.278125,0.01811717485063924,0.025447594875229622,True
22591,64372,0,64373,3921.0,37892.0,27978.0,-0.018543999999999998,0.002989,0.0040869999999999995,0.7000000000000001,2.7125000000000004,-4.515000000000001,1.02321875,0.11040625,0.67271875,1.294125,0.97459375,-0.3384375,0.06368750000000001,1.27134375,0.018441765211920442,0.025443820972841997,True
22592,64373,0,64374,3920.0,37893.0,27980.0,-0.015677,-0.001281,0.007991,0.35000000000000003,1.8725000000000003,-4.322500000000001,1.016125,0.1056875,0.6739375,1.2890625,0.977875,-0.337375,0.06534375,1.269125,0.018205024165506754,0.025427302721341565,True
22593,64374,0,64375,3923.0,37893.0,27978.0,-0.01525,-0.0035989999999999998,0.008539999999999999,0.14,0.77,-4.112500000000001,1.01921875,0.106,0.6780625,1.29603125,0.97665625,-0.3378125,0.06328125,1.27215625,0.01823551315468471,0.025683605861810115,True
22594,64375,0,64376,3924.0,37891.0,27977.0,-0.0066489999999999995,-0.003538,0.003904,0.12250000000000001,-0.7875000000000001,-3.9550000000000005,1.0161875,0.10559375,0.6719375,1.2880625,0.97471875,-0.33921875,0.06528125,1.2715,0.018275545512322574,0.025346286970679362,True
22595,64376,0,64377,3924.0,37890.0,27977.0,-0.000183,-0.003843,0.002013,0.035,-2.2750000000000004,-3.6925000000000003,1.0151875000000001,0.10234375,0.6746875,1.2891875,0.9744375000000001,-0.3369375,0.0648125,1.276125,0.01804998061074858,0.025480268328794162,True
22596,64377,0,64378,3923.0,37891.0,27978.0,0.009271999999999999,0.00122,-0.002623,-0.10500000000000001,-4.235,-3.7100000000000004,1.02159375,0.10303125,0.67425,1.288375,0.9793437500000001,-0.33821875,0.06503125,1.27721875,0.01812992168952381,0.02545308315892412,True
22597,64378,0,64379,3925.0,37890.0,27979.0,0.01098,0.001464,-0.0015249999999999999,-0.0175,-4.8475,-3.5175000000000005,1.01878125,0.1029375,0.67775,1.2889375,0.9791562500000001,-0.33921875,0.065875,1.276375,0.018166410949406502,0.02556496216176693,True
22598,64379,0,64380,3923.0,37890.0,27981.0,0.011895,-0.000366,0.000915,-0.17500000000000002,-5.2675,-3.6575,1.0205625,0.10578125000000001,0.671,1.2893125,0.96728125,-0.33903125,0.06490625,1.27171875,0.018275686301195738,0.0253223888040965,True
22599,64380,0,64381,3923.0,37888.0,27977.0,0.013786,-0.002379,-0.003538,-0.49000000000000005,-5.95,-4.0425,1.0161875,0.10984375,0.672625,1.2885625,0.9795625,-0.33803125,0.0659375,1.27221875,0.018402269082467382,0.02534828761310371,True
22600,64381,0,64382,3924.0,37887.0,27977.0,0.014945,-0.0018909999999999999,-0.006344,-0.43750000000000006,-6.125000000000001,-4.0425,1.0163125,0.10190625,0.67309375,1.2890625,0.98053125,-0.33918750000000003,0.06590625,1.27334375,0.01812278039273086,0.02536914521779209,True
22601,64382,0,64383,3923.0,37888.0,27977.0,0.007442,0.00122,-0.0021349999999999997,0.0,-5.8100000000000005,-3.8500000000000005,1.017375,0.1045,0.6744687500000001,1.2880625,0.98471875,-0.3384375,0.0653125,1.28365625,0.018199093512062964,0.025450770978313383,True
22602,64383,0,64384,3924.0,37887.0,27976.0,0.003355,-0.001769,-0.001037,-0.052500000000000005,-5.5825000000000005,-3.8500000000000005,1.023125,0.106375,0.6739375,1.2915,0.97496875,-0.33759375,0.058937500000000004,1.27828125,0.01824209716706279,0.025688082974596467,True
22603,64384,0,64385,3923.0,37886.0,27977.0,0.008296,-0.00366,-0.0053679999999999995,-0.2625,-5.477500000000001,-4.165,1.02378125,0.10596875,0.6735,1.2955625,0.97009375,-0.3400625,0.05959375,1.25609375,0.01832498375877219,0.025643100772360535,True
22604,64385,0,64386,3923.0,37884.0,27976.0,0.011956,-0.001647,-0.0071979999999999995,-0.1925,-5.215000000000001,-4.3925,1.0210000000000001,0.10690625000000001,0.67375,1.29603125,0.96778125,-0.34534375,0.06434375,1.2653125,0.018576447498302423,0.025460185575651384,True
22605,64386,0,64387,3923.0,37883.0,27977.0,0.006954,0.000732,-0.004209,0.0175,-4.165,-4.3925,1.00778125,0.10553125000000001,0.673875,1.2934375,0.96796875,-0.3448125,0.06318750000000001,1.266125,0.018498550769286068,0.02551248208173081,True
22606,64387,0,64388,3924.0,37886.0,27979.0,-0.000122,0.00061,0.0068319999999999995,0.14,-1.995,-4.1825,1.01446875,0.10459375,0.6734687500000001,1.28909375,0.99225,-0.33528125000000003,0.06628125,1.2871875,0.01807560781735366,0.025369542708443504,True
22607,64388,0,64389,3924.0,37887.0,27980.0,0.0,-0.002562,0.0060999999999999995,-0.10500000000000001,-1.2600000000000002,-4.235,1.01053125,0.10740625000000001,0.67434375,1.28459375,0.96690625,-0.33753125,0.0601875,1.274375,0.018281948790512596,0.025654179622334138,True
22608,64389,0,64390,3924.0,37887.0,27979.0,-0.0006709999999999999,-0.004392,0.001037,-0.21000000000000002,-0.8225000000000001,-4.305000000000001,1.006875,0.10596875,0.67190625,1.28621875,0.969,-0.33940625,0.06746875000000001,1.2868125000000001,0.01829851539620035,0.025255895153171483,True
22609,64390,0,64391,3926.0,37885.0,27982.0,-6.1e-05,-0.0008539999999999999,0.000244,-0.12250000000000001,-0.385,-4.375,1.02371875,0.10625,0.6733750000000001,1.29546875,0.96809375,-0.33084375,0.059062500000000004,1.2656875,0.017964594836543637,0.025659500593909493,True
22610,64391,0,64392,3926.0,37888.0,27983.0,-0.00366,0.003172,0.0,0.21000000000000002,0.4025,-4.305000000000001,1.00765625,0.10553125000000001,0.6720625,1.2893125,0.97371875,-0.34246875,0.06790625,1.26625,0.018404049507098577,0.025244604852009654,True
22611,64392,0,64393,3926.0,37889.0,27982.0,-0.008418,0.0018909999999999999,-0.000305,0.24500000000000002,1.5750000000000002,-4.340000000000001,1.01590625,0.109,0.67496875,1.288875,0.98690625,-0.3360625,0.07200000000000001,1.2828125000000001,0.018288188567891786,0.025199295804078904,True
22612,64393,0,64394,3926.0,37889.0,27984.0,-0.007869,0.0030499999999999998,-0.000366,0.21000000000000002,1.6975000000000002,-4.445,1.02459375,0.10603125000000001,0.67403125,1.28765625,0.9715,-0.336875,0.0654375,1.2761875,0.018198977888492257,0.025427402318300155,True
22613,64394,0,64395,3927.0,37887.0,27986.0,-0.005063,0.004148,0.000366,0.0175,1.9425000000000001,-4.532500000000001,1.0219375,0.10525,0.67271875,1.29534375,0.96890625,-0.337625,0.06309375,1.27284375,0.018197133039891938,0.025467994636942694,True
22614,64395,0,64396,3926.0,37893.0,27988.0,-0.002745,0.0034159999999999998,-0.0021349999999999997,-0.385,1.8550000000000002,-4.865,1.01540625,0.10484375,0.6715625000000001,1.28934375,0.97084375,-0.34171875,0.0659375,1.2720625,0.018345561568038415,0.025303894815182342,True
22615,64396,0,64397,3928.0,37894.0,27989.0,-0.003721,-0.001037,-0.003172,-0.6125,1.8375000000000001,-4.9,1.0210000000000001,0.10521875,0.67225,1.29421875,0.9795625,-0.3380625,0.06246875,1.27540625,0.018213497890392876,0.02547385708373749,True
22616,64397,0,64398,3928.0,37893.0,27989.0,-0.0055509999999999995,-0.006405,0.005612,-0.08750000000000001,2.6775,-4.4975000000000005,1.00596875,0.1075625,0.6804687500000001,1.28809375,0.97390625,-0.3400625,0.0656875,1.27596875,0.018390462226627397,0.02568618797803363,True
22617,64398,0,64399,3930.0,37894.0,27991.0,-0.006588,-0.001952,0.0028669999999999998,0.12250000000000001,2.6250000000000004,-4.48,1.01540625,0.10584375,0.67915625,1.29321875,0.9683125,-0.33825,0.06309375,1.27175,0.018246741240639734,0.025736930811599765,True
22618,64399,0,64400,3929.0,37896.0,27992.0,-0.006588,-0.0008539999999999999,0.00183,0.22750000000000004,2.4675000000000002,-4.357500000000001,1.00940625,0.10496875,0.67121875,1.2889375,0.97390625,-0.34084375,0.06784375000000001,1.2711875000000001,0.01831540864313711,0.02521189456131852,True
22619,64400,0,64401,3931.0,37895.0,27994.0,-0.0077469999999999995,-0.000549,0.0021349999999999997,0.1925,2.2750000000000004,-4.2700000000000005,1.01525,0.104625,0.671875,1.28903125,0.97740625,-0.34065625,0.06459375,1.27278125,0.018293724106144427,0.025371670890273694,True
22620,64401,0,64402,3930.0,37893.0,27995.0,-0.008723,-0.000183,0.0023179999999999997,0.12250000000000001,1.9075000000000002,-4.305000000000001,1.01465625,0.1031875,0.673625,1.2889375,0.98109375,-0.33825,0.06478125,1.27209375,0.018137602333775024,0.025437150015602008,True
22621,64402,0,64403,3931.0,37894.0,27994.0,-0.000915,0.003721,0.000732,0.2625,0.9625000000000001,-4.2175,1.01503125,0.1073125,0.6763750000000001,1.290375,0.9783125,-0.34084375,0.0661875,1.27303125,0.018411697417021543,0.02549478901449571,True
22622,64403,0,64404,3933.0,37893.0,27993.0,-0.002196,0.0048189999999999995,-0.0030499999999999998,0.45500000000000007,0.14,-3.9550000000000005,1.0153125,0.10553125000000001,0.67378125,1.29890625,0.9735,-0.339125,0.06990625,1.27440625,0.018269196201589007,0.025234961730979423,True
22623,64404,0,64405,3931.0,37890.0,27988.0,0.001098,0.005246,-0.0018909999999999999,0.665,-0.8750000000000001,-3.8150000000000004,1.02203125,0.10578125000000001,0.67790625,1.2868125000000001,0.9745625,-0.33896875,0.06528125,1.27909375,0.018273165332857416,0.02559566320368816,True
22624,64405,0,64406,3933.0,37886.0,27980.0,0.0053679999999999995,0.005612,-0.000305,0.6825000000000001,-1.8025000000000002,-4.077500000000001,1.02721875,0.11084375,0.6754687500000001,1.28759375,0.9778125,-0.337875,0.067875,1.27775,0.018437055412602786,0.025388207273695923,True
22625,64406,0,64407,3931.0,37884.0,27974.0,0.006344,-0.001037,-0.00183,0.28,-2.6775,-4.077500000000001,1.027875,0.10225000000000001,0.675125,1.2870625,0.97965625,-0.33878125000000003,0.0655625,1.27203125,0.018120514970321286,0.025468010267632152,True
22626,64407,0,64408,3930.0,37883.0,27966.0,0.001403,-0.008235,0.000976,-0.21000000000000002,-3.5875000000000004,-3.7450000000000006,1.01603125,0.1036875,0.6700625,1.2959687500000001,0.97996875,-0.3389375,0.06403125,1.271375,0.018185880135482495,0.025318851989226464,True
22627,64408,0,64409,3928.0,37880.0,27963.0,-0.000366,-0.0071979999999999995,-0.002074,-0.17500000000000002,-3.7625,-3.5000000000000004,1.00859375,0.111125,0.6718125,1.29753125,0.9744375000000001,-0.33903125,0.064125,1.26553125,0.018495241054427753,0.025388146453806267,True
22628,64409,0,64410,3929.0,37880.0,27957.0,0.001403,-0.0042699999999999995,0.00042699999999999997,-0.12250000000000001,-3.7275000000000005,-3.3425000000000002,1.01303125,0.10578125000000001,0.6725625000000001,1.2805625,0.973875,-0.33815625,0.065875,1.2721875,0.018240391566226383,0.025348221420252465,True
22629,64410,0,64411,3927.0,37880.0,27955.0,-0.0006709999999999999,-0.001647,0.00244,-0.0175,-3.8675,-3.3950000000000005,1.0114375,0.100625,0.67290625,1.2803125,0.97678125,-0.33953125,0.06628125,1.27259375,0.018084006856130395,0.025346040301405318,True
22630,64411,0,64412,3924.0,37878.0,27953.0,0.001952,0.00488,0.000305,0.0175,-4.0075,-3.5525,1.01803125,0.10215625,0.67590625,1.29946875,0.97809375,-0.33771875,0.06678125,1.27596875,0.018073797487695924,0.025451027141930083,True
22631,64412,0,64413,3925.0,37881.0,27953.0,0.003294,0.005978,-0.0023179999999999997,0.5075000000000001,-4.760000000000001,-3.8500000000000005,1.0175625,0.10590625000000001,0.67171875,1.29553125,0.9743125,-0.33421875,0.06540625,1.2725,0.018086670647686192,0.025332057286328497,True
22632,64413,0,64414,3923.0,37879.0,27950.0,0.002623,0.003904,-0.001098,0.385,-4.865,-4.165,1.01371875,0.105875,0.672125,1.293,0.9745312500000001,-0.33871875,0.064625,1.2719375,0.01826693321726313,0.025380843208013242,True
22633,64414,0,64415,3921.0,37880.0,27949.0,0.001037,0.00122,0.001952,0.28,-5.075,-4.2875000000000005,1.0139375,0.10753125000000001,0.6775,1.28925,0.9701875,-0.3385,0.06703125,1.271625,0.018326160198861886,0.025507439397797232,True
22634,64415,0,64416,3920.0,37881.0,27950.0,0.0035989999999999998,-0.001098,0.00061,0.14,-5.215000000000001,-4.2875000000000005,1.0106875,0.10353125,0.67559375,1.2885,0.9775625,-0.33825,0.0669375,1.2729375,0.01815172619231046,0.02543160742591969,True
22635,64416,0,64417,3919.0,37882.0,27950.0,-0.0015249999999999999,0.000122,0.002562,0.17500000000000002,-5.1275,-4.2875000000000005,1.01721875,0.10296875,0.67534375,1.28934375,0.98028125,-0.33768750000000003,0.0664375,1.28184375,0.018105921115142923,0.025441521712448782,True
22636,64417,0,64418,3917.0,37881.0,27948.0,0.003843,0.000366,-0.000976,0.35000000000000003,-5.9675,-4.1825,1.01475,0.10546875,0.6746562500000001,1.2944375000000001,0.9683125,-0.3384375,0.059062500000000004,1.271375,0.018238896806748582,0.02571301771286108,True
22637,64418,0,64419,3917.0,37879.0,27949.0,0.007686,-0.001769,-0.0055509999999999995,0.14,-6.4750000000000005,-3.9375000000000004,1.015375,0.10440625,0.6725625000000001,1.28896875,0.97040625,-0.339125,0.06809375,1.26928125,0.01822297432631617,0.025257860518319557,True
22638,64419,0,64420,3915.0,37878.0,27950.0,0.009516,-0.003477,-0.007076,-0.12250000000000001,-6.580000000000001,-3.8500000000000005,1.01825,0.10262500000000001,0.67459375,1.28990625,0.98053125,-0.3368125,0.057875,1.2808125000000001,0.018056493634899806,0.025758730689109676,True
22639,64420,0,64421,3917.0,37878.0,27952.0,0.013359,-0.00244,-0.00671,-0.15750000000000003,-6.072500000000001,-3.7625,1.0240625,0.105875,0.67384375,1.2934375,0.96115625,-0.34459375000000003,0.06525,1.2592812500000001,0.018503851599495268,0.0254272031251632,True
22640,64421,0,64422,3915.0,37878.0,27953.0,0.008296,-0.008357,0.000244,-0.45500000000000007,-4.445,-3.3600000000000003,1.01628125,0.1061875,0.67140625,1.29409375,0.97121875,-0.34571875,0.0658125,1.26378125,0.01856204183743805,0.025302456997965773,True
22641,64422,0,64423,3913.0,37880.0,27954.0,0.005673,-0.0051849999999999995,0.006405,-0.24500000000000002,-3.2375000000000003,-3.5525,1.01590625,0.10515625,0.67134375,1.289125,0.98290625,-0.34775,0.07196875,1.2659375,0.018601564826318653,0.02504907293616143,True
22642,64423,0,64424,3917.0,37883.0,27959.0,0.002562,0.002379,0.005246,0.10500000000000001,-2.415,-3.7275000000000005,1.01515625,0.10409375,0.67278125,1.2806875,0.99340625,-0.3305,0.076875,1.2756875,0.017862096956494933,0.024909214410742744,True
22643,64424,0,64425,3914.0,37881.0,27963.0,-0.002013,0.007808,0.0050019999999999995,0.5950000000000001,-1.8200000000000003,-3.6925000000000003,1.01578125,0.1035625,0.67659375,1.28421875,1.00021875,-0.342,0.0721875,1.26590625,0.018304268342782024,0.025259569799788426,True
22644,64425,0,64426,3916.0,37881.0,27966.0,-0.004392,0.008479,0.002196,0.8225000000000001,-1.0675000000000001,-3.6925000000000003,1.00871875,0.10559375,0.6721875,1.2942500000000001,0.9772500000000001,-0.3448125,0.061875,1.2605,0.01850111805133024,0.025495417874206942,True
22645,64426,0,64427,3915.0,37882.0,27966.0,-0.006527,0.0008539999999999999,-0.000488,0.43750000000000006,-0.14,-3.6225000000000005,1.0156875,0.11090625,0.67309375,1.29340625,0.98509375,-0.34696875,0.0673125,1.261125,0.01880624256356348,0.025311877322594885,True
22646,64427,0,64428,3915.0,37883.0,27967.0,-0.006405,-0.001647,-0.001647,0.36750000000000005,0.10500000000000001,-3.535,1.01571875,0.109375,0.67128125,1.296,0.97190625,-0.3490625,0.06571875,1.2626875,0.018827726940205604,0.025301052230260725,True
22647,64428,0,64429,3914.0,37883.0,27969.0,-0.006893,-0.002074,-0.002257,0.42000000000000004,0.45500000000000007,-3.5525,1.0183125,0.10559375,0.67253125,1.29309375,0.964375,-0.341375,0.06271875,1.258375,0.018362510334769502,0.025475428626632355,True
22648,64429,0,64430,3916.0,37884.0,27969.0,-0.0070149999999999995,-0.001464,-0.001098,0.5950000000000001,0.6825000000000001,-3.5525,1.015375,0.10478125,0.6734375,1.29565625,0.9667187500000001,-0.34025,0.06346875,1.28078125,0.018283758383747083,0.025482754524008153,True
22649,64430,0,64431,3914.0,37885.0,27970.0,-0.0042699999999999995,-0.0021349999999999997,-0.0018909999999999999,0.5425000000000001,0.5775,-3.7450000000000006,1.0195625,0.1059375,0.671375,1.29459375,0.97396875,-0.33834375,0.0648125,1.2725625,0.018254374848329605,0.025341873758039292,True
22650,64431,0,64432,3916.0,37883.0,27970.0,-0.000305,-0.005429,-0.0051849999999999995,0.36750000000000005,0.7175,-3.7100000000000004,1.0151875000000001,0.1056875,0.67053125,1.29246875,0.97403125,-0.33918750000000003,0.0621875,1.27125,0.018278136852349733,0.025413506351092026,True
22651,64432,0,64433,3916.0,37881.0,27970.0,-0.000244,-0.001647,0.0032329999999999998,0.5775,1.0675000000000001,-3.7625,1.0158125,0.1061875,0.67215625,1.28953125,0.97390625,-0.342125,0.065,1.2710000000000001,0.018417147229340083,0.0253668790474201,True
22652,64433,0,64434,3915.0,37882.0,27972.0,0.002379,0.0015249999999999999,0.0059169999999999995,0.6825000000000001,1.2775,-4.0600000000000005,1.0191875,0.10362500000000001,0.67303125,1.29403125,0.9802500000000001,-0.3378125,0.06459375,1.27828125,0.018137928377909892,0.025419977987630772,True
22653,64434,0,64435,3917.0,37885.0,27971.0,0.003294,0.003538,0.0032329999999999998,0.7175,1.1725,-4.112500000000001,1.01578125,0.10225000000000001,0.673,1.29003125,0.96525,-0.3405625,0.064375,1.27590625,0.01819236921907618,0.025427579183748075,True
22654,64435,0,64436,3917.0,37880.0,27971.0,-0.001037,0.003294,0.000976,0.6300000000000001,1.3475000000000001,-4.095000000000001,1.01590625,0.10515625,0.6716875,1.28915625,0.9735,-0.33868750000000003,0.064875,1.2690000000000001,0.018236141533926185,0.025352384831915438,True
22655,64436,0,64437,3917.0,37884.0,27971.0,-0.008113,0.006039,-0.000122,0.9275000000000001,1.715,-4.1475,1.021125,0.1059375,0.67159375,1.28496875,0.978375,-0.33815625,0.0645,1.272125,0.01824681152665375,0.025363737962440725,True
22656,64437,0,64438,3917.0,37885.0,27972.0,-0.007076,0.004697,0.0013419999999999999,0.9100000000000001,1.33,-4.025,1.01496875,0.10159375,0.6729375,1.28890625,0.97409375,-0.33571875,0.06440625,1.27525,0.017969984962946696,0.02542369562066953,True
22657,64438,0,64439,3917.0,37885.0,27974.0,-0.007137,0.002928,0.004026,0.7000000000000001,0.8750000000000001,-4.077500000000001,1.02240625,0.10565625000000001,0.67321875,1.30984375,0.97775,-0.3380625,0.06384375,1.27896875,0.01823147384883246,0.02545834818403644,True
22658,64439,0,64440,3918.0,37884.0,27973.0,-0.00671,-0.001037,0.0034159999999999998,0.4025,0.21000000000000002,-4.1475,1.01184375,0.106125,0.6659375,1.2999375,0.973125,-0.33828125000000003,0.06184375,1.2783125,0.018259557666998362,0.025235600590584332,True
22659,64440,0,64441,3916.0,37885.0,27973.0,-0.00549,-0.0017079999999999999,0.000488,0.42000000000000004,-0.3325,-4.0075,1.00859375,0.10362500000000001,0.6675625000000001,1.283375,0.97496875,-0.3374375,0.0620625,1.2687187500000001,0.018122799493578565,0.025294576861519504,True
22660,64441,0,64442,3917.0,37884.0,27973.0,-0.000488,-0.0035989999999999998,-0.000793,0.4025,-1.3475000000000001,-3.4125000000000005,1.01071875,0.099875,0.675875,1.28746875,0.975,-0.341125,0.0640625,1.27234375,0.018117486352828803,0.025560415170703045,True
22661,64442,0,64443,3916.0,37883.0,27974.0,0.000549,-0.0037819999999999998,-0.000366,0.22750000000000004,-1.7675,-3.3075,1.0303437500000001,0.10728125000000001,0.67240625,1.30153125,0.97003125,-0.33809375,0.06403125,1.28021875,0.01829950219499011,0.025416769480032013,True
22662,64443,0,64444,3916.0,37883.0,27974.0,0.0057339999999999995,-0.003904,-0.000976,0.15750000000000003,-2.2225,-3.2900000000000005,1.02334375,0.1068125,0.6699375,1.29884375,0.9745312500000001,-0.3383125,0.063125,1.2789375,0.018289065850395338,0.025350531345465936,True
22663,64444,0,64445,3916.0,37880.0,27971.0,0.008784,-0.000488,-0.0017079999999999999,0.1925,-2.6075000000000004,-3.2025,1.009625,0.10453125,0.66625,1.2825,0.97546875,-0.339,0.06703125,1.27190625,0.01822306791569087,0.02503737652688825,True
22664,64445,0,64446,3916.0,37881.0,27971.0,0.006771,0.003477,-0.0026839999999999998,0.525,-2.8875,-2.9400000000000004,1.00721875,0.09653125,0.675,1.2835,0.96021875,-0.34196875,0.06359375,1.2721875,0.018014155079383216,0.02554294256264973,True
22665,64446,0,64447,3918.0,37883.0,27971.0,0.007442,0.000732,-0.00061,0.4025,-2.9400000000000004,-2.8350000000000004,1.01796875,0.10065625,0.6734375,1.29390625,0.9823437500000001,-0.34115625,0.06325,1.27540625,0.018150842772721613,0.025491660313116858,True
22666,64447,0,64448,3916.0,37883.0,27974.0,0.007686,-0.002745,-0.001098,0.28,-2.975,-2.9575000000000005,1.02578125,0.1075625,0.67378125,1.2906875,0.9743437500000001,-0.33396875,0.06375,1.280125,0.018144646051622797,0.025485665047783174,True
22667,64448,0,64449,3918.0,37884.0,27976.0,0.0051849999999999995,-0.002562,-0.001952,0.28,-2.765,-3.0450000000000004,1.0244375000000001,0.1065625,0.670625,1.2874375,0.9813437500000001,-0.33537500000000003,0.06165625,1.2795625,0.01816029134541794,0.025439051103942813,True
22668,64449,0,64450,3917.0,37881.0,27977.0,0.003355,-0.001281,-0.001464,0.42000000000000004,-2.1350000000000002,-3.22,1.0113125,0.10484375,0.6726562500000001,1.286375,0.9735625,-0.3418125,0.06315625,1.27265625,0.01834934230965751,0.025462839059556465,True
22669,64450,0,64451,3919.0,37883.0,27976.0,0.001098,-0.000549,-0.001769,0.43750000000000006,-1.8025000000000002,-3.3425000000000002,1.0240625,0.1088125,0.6699375,1.2940625000000001,0.9805625,-0.33784375,0.0605625,1.2725312500000001,0.018352334520185254,0.025454858745114623,True
22670,64451,0,64452,3919.0,37883.0,27977.0,-0.002379,-0.000732,0.0026839999999999998,0.45500000000000007,-0.6825000000000001,-3.3775000000000004,1.0080625,0.10471875,0.6724687500000001,1.28909375,0.974125,-0.33865625,0.0676875,1.27865625,0.018216905462888896,0.02527048942721269,True
22671,64452,0,64453,3917.0,37885.0,27981.0,-0.0037819999999999998,-0.000305,0.001586,0.45500000000000007,-0.4025,-3.43,1.0186250000000001,0.10621875,0.668875,1.293125,0.9746250000000001,-0.33853125,0.06215625,1.2725,0.018273493804191656,0.02534558903201129,True
22672,64453,0,64454,3919.0,37885.0,27981.0,-0.003111,-0.001464,-0.000549,0.4025,-0.385,-3.2900000000000005,1.01590625,0.1020625,0.6718125,1.2890625,0.9741875,-0.3420625,0.06846875,1.2730625,0.01824516718745587,0.02521124719087919,True
22673,64454,0,64455,3920.0,37885.0,27981.0,-0.00366,0.000732,-0.002379,0.5425000000000001,-0.29750000000000004,-3.3425000000000002,1.0235,0.10590625000000001,0.671125,1.292125,0.9815,-0.3380625,0.0611875,1.28059375,0.018241745825083654,0.02547902073254469,True
22674,64455,0,64456,3919.0,37886.0,27984.0,-0.0055509999999999995,0.0034159999999999998,0.001037,0.8575,-0.29750000000000004,-3.3600000000000003,1.016125,0.1021875,0.6715625000000001,1.2941875,0.9748125,-0.33315625,0.06371875,1.27875,0.01789096924078643,0.02539424331003798,True
22675,64456,0,64457,3920.0,37886.0,27984.0,-0.002928,0.002745,0.000366,0.8575,-0.56,-3.3600000000000003,1.01609375,0.10396875,0.67090625,1.2954375,0.9745625,-0.3405,0.0618125,1.27790625,0.018260460960128184,0.025444438932563294,True
22676,64457,0,64458,3920.0,37888.0,27986.0,-0.002989,0.001769,0.002562,0.7350000000000001,-0.7175,-3.3425000000000002,1.01553125,0.10453125,0.6711875,1.2893125,0.9733437500000001,-0.3393125,0.06921875,1.2738125,0.018235673254945062,0.02515457994084502,True
22677,64458,0,64459,3920.0,37883.0,27985.0,-0.004697,-0.000793,0.005612,0.8400000000000001,-0.6475000000000001,-3.1850000000000005,1.0184375,0.106,0.6711875,1.2955,0.98090625,-0.33765625,0.05828125,1.27684375,0.018229210136041757,0.02559992690583253,True
22678,64459,0,64460,3920.0,37881.0,27979.0,-0.005246,-0.000915,0.003965,0.7350000000000001,-0.8575,-3.1850000000000005,1.0155,0.1054375,0.669125,1.28865625,0.97384375,-0.33875,0.06190625,1.2726250000000001,0.018250218273329566,0.025366211543055718,True
22679,64460,0,64461,3919.0,37877.0,27972.0,-0.000732,-0.0006709999999999999,0.000793,0.6825000000000001,-1.33,-3.2375000000000003,1.0159375,0.10315625,0.673875,1.2893125,0.974125,-0.34028125,0.06184375,1.27146875,0.018218257030205843,0.025567184189467393,True
22680,64461,0,64462,3919.0,37875.0,27967.0,0.0055509999999999995,-0.000549,-0.002989,0.6125,-2.2925000000000004,-3.0975,1.02278125,0.1029375,0.67140625,1.2925,0.980875,-0.3378125,0.062625,1.27909375,0.01810968015305402,0.025432247687977482,True
22681,64462,0,64463,3919.0,37877.0,27962.0,0.00549,-0.000122,-0.001586,0.43750000000000006,-2.31,-3.115,1.02459375,0.10546875,0.6723750000000001,1.2959375,0.97375,-0.33775,0.06075,1.27628125,0.01821116372713172,0.025549046022745076,True
22682,64463,0,64464,3917.0,37877.0,27958.0,0.0040869999999999995,-0.0006709999999999999,-0.001037,0.5425000000000001,-2.24,-2.9225000000000003,1.01578125,0.10740625000000001,0.669,1.2954375,0.97459375,-0.3321875,0.06040625,1.27246875,0.018066347302313036,0.025422058383927255,True
22683,64464,0,64465,3917.0,37878.0,27955.0,0.004697,0.000732,-0.0026839999999999998,0.7175,-2.345,-2.8875,1.01603125,0.1056875,0.67134375,1.289375,0.9746250000000001,-0.341875,0.06356250000000001,1.2710625,0.018386525277941816,0.025391466461957845,True
22684,64465,0,64466,3916.0,37877.0,27952.0,0.0044529999999999995,0.001037,-0.002623,0.665,-2.4675000000000002,-2.9400000000000004,1.01565625,0.10250000000000001,0.67,1.28940625,0.9795312500000001,-0.3398125,0.06321875,1.27178125,0.0181723873181028,0.025349325110283993,True
22685,64466,0,64467,3915.0,37878.0,27950.0,0.001037,-0.000549,-0.001464,0.525,-1.6275000000000002,-3.325,1.01821875,0.104375,0.6724687500000001,1.29315625,0.98065625,-0.33340625,0.06268750000000001,1.27725,0.01799095636271638,0.025474089875377616,True
22686,64467,0,64468,3911.0,37877.0,27948.0,-0.004148,-0.0030499999999999998,0.002196,0.42000000000000004,-1.1375000000000002,-3.325,1.01559375,0.10312500000000001,0.6717500000000001,1.2929375,0.97478125,-0.33703125,0.06256250000000001,1.2698125,0.018085864519732663,0.02544915260875355,True
22687,64468,0,64469,3911.0,37877.0,27945.0,-0.006039,-0.005063,0.003721,0.45500000000000007,-0.7000000000000001,-3.3600000000000003,1.01571875,0.10434375,0.673125,1.289375,0.97721875,-0.33303125,0.0640625,1.2800625,0.01797453821130485,0.025445525164827988,True
22688,64469,0,64470,3908.0,37876.0,27942.0,-0.004697,-0.00488,0.0040869999999999995,0.4025,-0.36750000000000005,-3.4650000000000003,1.01603125,0.10396875,0.67278125,1.29146875,0.9743125,-0.34134375,0.06275,1.27221875,0.0182944912398273,0.02548460036136148,True
22689,64470,0,64471,3908.0,37876.0,27942.0,-0.003294,-0.002928,0.001037,0.47250000000000003,-0.2625,-3.3775000000000004,1.00821875,0.10584375,0.67325,1.289125,0.9725,-0.342,0.0651875,1.28184375,0.018397984964259307,0.02540494102471035,True
22690,64471,0,64472,3905.0,37876.0,27941.0,0.004148,0.0028669999999999998,-0.0040869999999999995,0.525,0.1925,-3.3075,1.0207187500000001,0.10540625,0.6744375,1.2906875,0.97240625,-0.3404375,0.063125,1.2678125,0.0183169982051473,0.025538525810073372,True
22691,64472,0,64473,3905.0,37876.0,27941.0,0.0021349999999999997,0.0048189999999999995,-0.001281,0.7000000000000001,0.43750000000000006,-3.2725000000000004,1.02409375,0.10634375,0.67353125,1.28940625,0.9834375000000001,-0.33625,0.06471875,1.281,0.01818660434536956,0.0254357779898659,True
22692,64473,0,64474,3903.0,37877.0,27941.0,0.000915,0.0044529999999999995,0.0008539999999999999,0.5950000000000001,0.5425000000000001,-3.2375000000000003,1.01521875,0.111,0.67296875,1.27725,0.97140625,-0.33703125,0.065125,1.26971875,0.018409445482386023,0.025395735302565815,True
22693,64474,0,64475,3903.0,37877.0,27942.0,-0.000976,0.003294,0.000183,0.7000000000000001,0.45500000000000007,-3.43,1.03290625,0.10703125000000001,0.66378125,1.2779375,0.98465625,-0.336375,0.060375,1.2703125,0.01821989717038795,0.025205334252311806,True
22694,64475,0,64476,3901.0,37877.0,27944.0,-0.004331,0.000915,0.0013419999999999999,0.7875000000000001,0.22750000000000004,-3.4650000000000003,1.0235,0.1034375,0.67575,1.28990625,0.9785,-0.34134375,0.0641875,1.2778125,0.018272666232734172,0.025550104054332813,True
22695,64476,0,64477,3900.0,37877.0,27945.0,-0.00671,-0.000732,0.001098,0.665,-0.35000000000000003,-3.7975000000000003,1.03840625,0.11025,0.67109375,1.30453125,0.98721875,-0.3364375,0.061875,1.28328125,0.018354679069194087,0.025449727161170728,True
22696,64477,0,64478,3899.0,37878.0,27947.0,-0.006527,-0.001586,0.0011589999999999999,0.7000000000000001,-0.7525000000000001,-3.6225000000000005,0.9890625000000001,0.0991875,0.6771875,1.2950625,0.97159375,-0.34184375,0.064875,1.2730937500000001,0.018118235189148315,0.025582172643761003,True
22697,64478,0,64479,3900.0,37876.0,27946.0,-0.003172,-0.000122,0.00244,0.6475000000000001,-1.0850000000000002,-3.5525,1.025125,0.10909375,0.6668437500000001,1.2785625,0.9745312500000001,-0.33771875,0.059812500000000005,1.2621875,0.01835884885472267,0.02535616105763583,True
22698,64479,0,64480,3899.0,37875.0,27949.0,-0.001403,0.000549,0.0026839999999999998,0.5775,-1.2075,-3.3775000000000004,1.01115625,0.09396875,0.66928125,1.2785625,0.97509375,-0.3419375,0.06365625,1.26921875,0.017907623417404633,0.025301483230913246,True
22699,64480,0,64481,3898.0,37878.0,27953.0,-0.001647,0.000122,0.00183,0.6300000000000001,-1.7675,-3.2375000000000003,1.012125,0.10209375,0.6693125,1.27878125,0.96321875,-0.3408125,0.06434375,1.270875,0.01819603392450437,0.0252747927059656,True
22700,64481,0,64482,3899.0,37877.0,27955.0,0.000488,0.000488,0.0,0.7350000000000001,-2.1875,-3.115,1.02478125,0.09678125,0.67671875,1.2794375,0.9796875,-0.3394375,0.06359375,1.2770000000000001,0.017922302025262498,0.025614747410129705,True
22701,64482,0,64483,3898.0,37877.0,27955.0,0.0037819999999999998,0.0008539999999999999,-0.000183,0.47250000000000003,-2.5375,-3.1850000000000005,1.0245,0.10984375,0.6720625,1.30821875,0.97378125,-0.33753125,0.0624375,1.280125,0.018382102745117174,0.02546729643003543,True
22702,64483,0,64484,3897.0,37877.0,27955.0,0.006527,-0.000549,-0.001281,0.42000000000000004,-2.7125000000000004,-3.2725000000000004,1.00315625,0.10134375,0.6729375,1.2803437500000001,0.9741562500000001,-0.3410625,0.06209375,1.27203125,0.018175305617821737,0.025517843691947782,True
22703,64484,0,64485,3900.0,37877.0,27957.0,0.0044529999999999995,-0.0021349999999999997,-0.0018909999999999999,0.36750000000000005,-2.415,-3.2550000000000003,1.0289375,0.10553125000000001,0.6724375,1.2959687500000001,0.9810625000000001,-0.33753125,0.06125,1.27796875,0.018204907286970613,0.02553130384836301,True
22704,64485,0,64486,3899.0,37875.0,27957.0,0.002074,-0.00061,-0.00061,0.3325,-2.0825,-3.4475000000000002,1.0170937500000001,0.1066875,0.66759375,1.29303125,0.97484375,-0.337875,0.0603125,1.2719375,0.018266282491795193,0.025367133551764197,True
22705,64486,0,64487,3900.0,37877.0,27960.0,0.00366,-0.0011589999999999999,-0.001281,0.2625,-1.9250000000000003,-3.535,1.0101875,0.1043125,0.67434375,1.28884375,0.981625,-0.339375,0.062,1.26859375,0.018229206789410164,0.02558040563121397,True
22706,64487,0,64488,3900.0,37876.0,27958.0,0.002257,-0.002074,-0.002013,0.22750000000000004,-1.7850000000000001,-3.5175000000000005,1.02184375,0.1055,0.670625,1.2968125,0.980625,-0.33821875,0.0580625,1.27315625,0.01823135680379239,0.02558533535558682,True
22707,64488,0,64489,3899.0,37876.0,27957.0,0.001403,-0.001037,-0.0018909999999999999,0.2625,-1.6975000000000002,-3.5175000000000005,1.01584375,0.10575,0.668625,1.28821875,0.9665312500000001,-0.3410625,0.06240625,1.27221875,0.018356326885894978,0.025324966090211135,True
22708,64489,0,64490,3900.0,37875.0,27959.0,0.002257,0.000244,-0.002074,0.28,-1.61,-3.6225000000000005,1.00540625,0.111,0.6678125,1.28996875,0.975,-0.34140625,0.06393750000000001,1.2667187500000001,0.018585871553743943,0.02522866908456644,True
22709,64490,0,64491,3899.0,37876.0,27960.0,-0.0006709999999999999,0.002623,0.000732,0.7350000000000001,-1.435,-3.8675,1.0151875000000001,0.10346875,0.67090625,1.296125,0.981,-0.3318125,0.06040625,1.27725,0.017889388634734875,0.025501685883871777,True
22710,64491,0,64492,3898.0,37879.0,27959.0,-0.001464,0.002379,0.001769,0.77,-1.5050000000000001,-3.9025000000000003,1.0187187500000001,0.105875,0.66771875,1.29421875,0.9745,-0.33918750000000003,0.05959375,1.2725625,0.018285840478446537,0.02540161573072721,True
22711,64492,0,64493,3898.0,37877.0,27959.0,-0.003538,0.002379,0.004148,0.7875000000000001,-1.3650000000000002,-3.99,1.01528125,0.10475,0.66815625,1.286375,0.974375,-0.3410625,0.0618125,1.27140625,0.018315244044913817,0.025329559725438693,True
22712,64493,0,64494,3900.0,37880.0,27959.0,-0.006954,0.0018909999999999999,0.002013,0.6475000000000001,-1.3125000000000002,-3.9200000000000004,1.01653125,0.10265625,0.6708125,1.2884375000000001,0.97321875,-0.33684375,0.061,1.2793125,0.01805903857191835,0.025473599565562475,True
22713,64494,0,64495,3900.0,37878.0,27958.0,-0.005307,-0.00122,0.000244,0.525,-1.2950000000000002,-3.7100000000000004,1.020125,0.10846875,0.6719375,1.28903125,0.9770625000000001,-0.33771875,0.05928125,1.27928125,0.01833316855138693,0.025590553750605337,True
22714,64495,0,64496,3898.0,37879.0,27960.0,-0.003111,-0.0035989999999999998,0.000122,0.2625,-1.4175000000000002,-3.4650000000000003,1.02096875,0.10312500000000001,0.67015625,1.2890625,0.97375,-0.33690625,0.06096875,1.27915625,0.01808082118079409,0.025447458321856697,True
22715,64496,0,64497,3899.0,37876.0,27961.0,-0.002257,-0.001952,-0.002013,0.3325,-1.8200000000000003,-3.43,1.0203125,0.10300000000000001,0.669375,1.289625,0.97646875,-0.33746875,0.0608125,1.27225,0.018098379684616955,0.02542118440736554,True
22716,64497,0,64498,3898.0,37877.0,27960.0,-0.000366,0.001037,-0.001403,0.42000000000000004,-2.24,-3.5875000000000004,1.016,0.10303125,0.66671875,1.2925312500000001,0.97878125,-0.34068750000000003,0.06096875,1.270125,0.018229507691596633,0.02530386437421105,True
22717,64498,0,64499,3898.0,37877.0,27962.0,0.000732,0.0037819999999999998,-0.0011589999999999999,0.7525000000000001,-2.765,-3.6050000000000004,1.0150625,0.1056875,0.66634375,1.2821875,0.9746250000000001,-0.342,0.059062500000000004,1.27215625,0.01839156601758278,0.025365809087467855,True
22718,64499,0,64500,3898.0,37878.0,27962.0,6.1e-05,0.003538,-6.1e-05,0.7175,-3.22,-3.6750000000000003,1.01546875,0.1033125,0.67125,1.28784375,0.9791562500000001,-0.33684375,0.066,1.2783437500000001,0.018086003859888365,0.02528829280521434,True
22719,64500,0,64501,3900.0,37875.0,27962.0,0.0048189999999999995,0.0006709999999999999,0.002989,0.6300000000000001,-4.0425,-3.4825000000000004,1.02109375,0.1060625,0.66990625,1.29565625,0.974125,-0.33753125,0.05996875,1.2725312500000001,0.018226735712974174,0.025477723634968103,True
22720,64501,0,64502,3900.0,37877.0,27963.0,0.005246,-6.1e-05,0.0021349999999999997,0.56,-4.2700000000000005,-3.4650000000000003,1.0030625,0.1059375,0.6696875,1.29021875,0.97509375,-0.33953125,0.0609375,1.2781875,0.01830227317956257,0.025429149533320282,True
22721,64502,0,64503,3897.0,37874.0,27964.0,0.003538,-6.1e-05,-0.001037,0.5775,-4.1825,-3.5175000000000005,1.01990625,0.10646875,0.6694375,1.28928125,0.9765,-0.33771875,0.06125,1.27753125,0.018250991580712552,0.025405984021722103,True
22722,64503,0,64504,3897.0,37874.0,27962.0,0.004148,-0.000976,-0.002928,0.3325,-4.235,-3.535,1.019625,0.10409375,0.6694687500000001,1.28928125,0.98075,-0.3388125,0.05890625,1.279125,0.018197529152254244,0.02550269868100742,True
22723,64504,0,64505,3899.0,37874.0,27964.0,0.0059169999999999995,-0.001586,-0.002074,0.2625,-3.9550000000000005,-3.5175000000000005,1.02278125,0.10353125,0.6700625,1.2885625,0.97609375,-0.337375,0.0601875,1.28215625,0.018116425867621303,0.025475345723781257,True
22724,64505,0,64506,3899.0,37877.0,27965.0,0.0060999999999999995,-0.004758,-0.001037,0.07,-2.8525000000000005,-3.4475000000000002,1.0230625,0.10528125,0.67040625,1.2894375,0.97040625,-0.337375,0.05290625,1.2780625,0.018188331732571814,0.02578601004558225,True
22725,64506,0,64507,3899.0,37878.0,27968.0,0.0037819999999999998,-0.004941,0.001098,0.035,-2.2750000000000004,-3.5700000000000003,1.021125,0.10603125000000001,0.66871875,1.2948125,0.97059375,-0.33915625,0.0544375,1.26640625,0.01829099971368153,0.02565323950940806,True
22726,64507,0,64508,3900.0,37879.0,27969.0,0.00488,-0.002257,0.0011589999999999999,0.24500000000000002,-1.61,-3.6225000000000005,1.0190000000000001,0.10578125000000001,0.667,1.29390625,0.9685,-0.345125,0.06109375,1.26596875,0.01852141855915712,0.025310523533212805,True
22727,64508,0,64509,3898.0,37879.0,27971.0,0.00488,0.001098,-0.001586,0.3325,-1.0150000000000001,-3.7275000000000005,1.01590625,0.10625,0.66778125,1.2888125,0.9726250000000001,-0.34034375,0.06290625,1.28309375,0.018347881796040782,0.02526935835725672,True
22728,64509,0,64510,3899.0,37880.0,27971.0,0.002623,0.002196,-0.0028669999999999998,0.47250000000000003,-0.3325,-3.9025000000000003,1.016875,0.106625,0.6691875,1.28859375,0.96259375,-0.33609375,0.0544375,1.27771875,0.01819185751616362,0.025672815161473028,True
22729,64510,0,64511,3899.0,37880.0,27972.0,-0.001769,0.004697,-0.000488,0.7000000000000001,0.9275000000000001,-4.0425,1.02209375,0.10490625,0.6698125,1.2890625,0.9676875,-0.3369375,0.0549375,1.2805312500000001,0.018155273234358265,0.02567857152179077,True
22730,64511,0,64512,3898.0,37881.0,27972.0,-0.002196,0.004514,0.00244,0.6125,1.715,-4.1825,1.022375,0.10615625000000001,0.669875,1.2945625,0.9676875,-0.33818750000000003,0.05384375,1.26771875,0.01825706002141696,0.02572568405419972,True
22731,64512,0,64513,3899.0,37883.0,27972.0,-0.004148,0.003355,0.002989,0.6475000000000001,2.4850000000000003,-4.2700000000000005,1.00715625,0.1055625,0.66690625,1.2891875,0.9849375,-0.34284375,0.067,1.27971875,0.01842045467674663,0.02506606986169724,True
22732,64513,0,64514,3902.0,37879.0,27969.0,-0.008418,0.000732,0.0030499999999999998,0.5425000000000001,3.1325000000000003,-4.2175,1.02153125,0.10553125000000001,0.6689375,1.2916875,0.97384375,-0.337375,0.05753125,1.2674375,0.018198603998993316,0.025536474804838158,True
22733,64514,0,64515,3900.0,37873.0,27962.0,-0.01159,-0.003294,0.002074,0.22750000000000004,3.5875000000000004,-4.1475,1.0170937500000001,0.10925,0.66790625,1.29075,0.96778125,-0.34496875,0.058687500000000004,1.266,0.018657602507705005,0.025446338833762773,True
22734,64515,0,64516,3899.0,37876.0,27958.0,-0.012565999999999999,-0.00549,6.1e-05,0.14,3.3425000000000002,-4.112500000000001,1.01590625,0.10328125,0.6706875,1.28859375,0.98009375,-0.33959375,0.06346875,1.2779375,0.018195661133415593,0.02536786736800053,True
22735,64516,0,64517,3898.0,37874.0,27950.0,-0.011773,-0.003965,-0.000732,-0.07,2.7125000000000004,-4.0425,1.02159375,0.10578125000000001,0.6680625,1.28934375,0.9693125,-0.33865625,0.0621875,1.27046875,0.018260560296955587,0.02531037453819141,True
22736,64517,0,64518,3896.0,37874.0,27948.0,-0.008845,-0.002074,-0.002257,0.07,1.8900000000000001,-3.8675,1.02128125,0.105125,0.66709375,1.28915625,0.9782500000000001,-0.33896875,0.06109375,1.27121875,0.018246202399187516,0.02531443975223388,True
22737,64518,0,64519,3894.0,37874.0,27943.0,-0.0026839999999999998,0.0025009999999999998,-0.001281,0.31500000000000006,1.05,-3.7275000000000005,1.01715625,0.10290625,0.67078125,1.29575,0.9831562500000001,-0.335,0.06565625,1.27909375,0.017994914731867682,0.025282706988780507,True
22738,64519,0,64520,3894.0,37875.0,27944.0,-0.000244,0.005612,0.000793,0.5775,0.5075000000000001,-3.6400000000000006,1.01678125,0.10553125000000001,0.667375,1.29528125,0.97428125,-0.34171875,0.05953125,1.26021875,0.01837380525974568,0.025389801525920415,True
22739,64520,0,64521,3891.0,37874.0,27940.0,0.000732,0.004148,0.00183,0.42000000000000004,-0.665,-3.5000000000000004,1.0155625,0.10540625,0.6705625000000001,1.28384375,0.9750625,-0.34059375000000003,0.061625,1.2784375000000001,0.018323299940043575,0.02543771245959678,True
22740,64521,0,64522,3889.0,37877.0,27938.0,0.005795,-0.001281,-0.001403,0.10500000000000001,-1.3125000000000002,-3.6225000000000005,1.02246875,0.10534375,0.6706562500000001,1.29609375,0.9748125,-0.3378125,0.058937500000000004,1.27234375,0.018208548940049564,0.02555102765384786,True
22741,64522,0,64523,3888.0,37874.0,27935.0,0.008539999999999999,-0.004514,-0.001586,0.0,-1.7675,-3.7800000000000002,1.01565625,0.1051875,0.66853125,1.2896875,0.97290625,-0.341,0.06228125,1.274,0.018330697177601576,0.02532613931726473,True
22742,64523,0,64524,3885.0,37874.0,27932.0,0.010431,-0.005978,-0.001464,-0.10500000000000001,-1.7675,-3.8500000000000005,1.0198125,0.104875,0.671,1.28921875,0.98171875,-0.33771875,0.06209375,1.28128125,0.018185506807206406,0.02543690511779826,True
22743,64524,0,64525,3882.0,37872.0,27932.0,0.010065,-0.006039,-0.0017079999999999999,-0.08750000000000001,-1.61,-3.7975000000000003,1.023125,0.106625,0.670875,1.29696875,0.9795312500000001,-0.33759375,0.05796875,1.268125,0.018252369341155594,0.025599592766382344,True
22744,64525,0,64526,3882.0,37874.0,27933.0,0.0013419999999999999,0.002928,-0.0013419999999999999,0.3325,-0.8575,-4.0075,1.01525,0.1053125,0.67240625,1.2906250000000001,0.96759375,-0.33996875,0.06409375,1.27275,0.018294240825596785,0.025414224706866908,True
22745,64526,0,64527,3882.0,37872.0,27931.0,0.0017079999999999999,0.004758,-0.001647,0.5775,-0.7000000000000001,-4.0075,1.01428125,0.1013125,0.67259375,1.27684375,0.97865625,-0.34046875,0.0619375,1.27384375,0.018150071575757966,0.025509844416188653,True
22746,64527,0,64528,3881.0,37873.0,27933.0,0.0030499999999999998,0.0053679999999999995,0.000366,0.525,-0.6825000000000001,-3.9200000000000004,1.012875,0.1036875,0.6664375,1.28790625,0.9806875,-0.33975,0.06159375,1.2723125,0.018218654669830216,0.02526666744992683,True
22747,64528,0,64529,3880.0,37872.0,27934.0,0.000732,0.004514,0.0044529999999999995,0.5950000000000001,-0.17500000000000002,-4.077500000000001,1.025875,0.10453125,0.67275,1.28609375,0.9745312500000001,-0.3369375,0.06221875,1.273125,0.01813986455773246,0.025504922265926377,True
22748,64529,0,64530,3878.0,37873.0,27934.0,-0.003843,0.002074,0.006893,0.49000000000000005,0.2625,-4.025,1.01303125,0.1041875,0.6658125,1.30046875,0.980625,-0.34115625,0.0641875,1.27371875,0.018295915996184443,0.02513493118313824,True
22749,64530,0,64531,3877.0,37874.0,27937.0,-0.010126,-0.00061,-0.002623,0.45500000000000007,0.07,-4.112500000000001,1.0288125000000001,0.10234375,0.67021875,1.28696875,0.9745625,-0.3330625,0.06159375,1.27146875,0.017893606692540243,0.02542462491628907,True
22750,64531,0,64532,3876.0,37874.0,27936.0,-0.009821,-0.000915,-0.003477,0.49000000000000005,-0.29750000000000004,-4.0600000000000005,1.01390625,0.09996875000000001,0.6678437500000001,1.2869375,0.97675,-0.3348125,0.0641875,1.2726250000000001,0.01786663653151221,0.025219793562470467,True
22751,64532,0,64533,3876.0,37871.0,27939.0,-0.007686,-0.002623,-0.0035989999999999998,0.4025,-0.8750000000000001,-4.095000000000001,1.01225,0.1005,0.668,1.28696875,0.9752500000000001,-0.338,0.06256250000000001,1.27240625,0.018017092612375708,0.025292494236277382,True
22752,64533,0,64534,3876.0,37872.0,27942.0,-0.001586,-0.003721,-0.005673,0.31500000000000006,-1.6275000000000002,-3.99,1.01275,0.10334375,0.6665625000000001,1.28759375,0.9785,-0.34009375000000003,0.06125,1.2719375,0.01821839737162064,0.02528588585452457,True
22753,64534,0,64535,3875.0,37871.0,27944.0,0.008784,-0.001769,-0.00793,0.5075000000000001,-2.5025000000000004,-3.8675,1.00896875,0.1083125,0.6664375,1.278,0.9745,-0.33971875,0.06125,1.26609375,0.01840741278080709,0.0252806641950812,True
22754,64535,0,64536,3875.0,37875.0,27947.0,0.013725,0.001586,-0.0011589999999999999,0.7525000000000001,-2.2575000000000003,-3.99,1.01275,0.10300000000000001,0.66690625,1.28696875,0.97575,-0.33875,0.06284375,1.2730937500000001,0.018150069333881153,0.02523534933269277,True
22755,64536,0,64537,3874.0,37873.0,27948.0,0.010553,-0.000915,0.000976,0.47250000000000003,-1.6800000000000002,-3.9375000000000004,1.01203125,0.105125,0.670125,1.2936875,0.97440625,-0.3398125,0.06359375,1.2726250000000001,0.01828023531405593,0.025339277904342886,True
22756,64537,0,64538,3874.0,37874.0,27949.0,0.003172,-0.0028669999999999998,0.0048189999999999995,0.385,-0.8575,-3.8150000000000004,1.0141875,0.10621875,0.6703125,1.29509375,0.97509375,-0.339625,0.0679375,1.27234375,0.01831760965914635,0.025170208376315246,True
22757,64538,0,64539,3875.0,37876.0,27952.0,-0.0071979999999999995,-0.002562,0.008052,0.3325,-0.08750000000000001,-3.7450000000000006,1.01596875,0.10596875,0.670375,1.296375,0.9746250000000001,-0.33965625,0.06009375,1.2753125,0.018308598750239127,0.025492215534469776,True
22758,64539,0,64540,3874.0,37877.0,27952.0,-0.010614,-0.000976,0.0048189999999999995,0.35000000000000003,0.22750000000000004,-3.6750000000000003,1.020875,0.10640625000000001,0.67040625,1.27975,0.975125,-0.33775,0.06306250000000001,1.2798125,0.01824968413267455,0.02537265888754566,True
22759,64540,0,64541,3875.0,37876.0,27951.0,-0.010797,-0.0021349999999999997,0.000122,0.36750000000000005,-0.15750000000000003,-3.7625,1.02315625,0.10390625,0.6705,1.2830625,0.9751875,-0.33753125,0.05775,1.28790625,0.018138137983900893,0.025592832753813865,True
22760,64541,0,64542,3874.0,37873.0,27949.0,-0.010797,-0.001037,0.0018909999999999999,0.36750000000000005,-0.42000000000000004,-3.7275000000000005,1.02178125,0.10365625,0.6707500000000001,1.283375,0.96875,-0.33625,0.0585,1.2899375,0.018076172376598695,0.025572750245389807,True
22761,64542,0,64543,3874.0,37873.0,27951.0,-0.009455,0.000732,0.001464,0.47250000000000003,-0.6825000000000001,-3.7800000000000002,1.0154375,0.10321875,0.6684375,1.29059375,0.969875,-0.33371875,0.06625,1.27396875,0.017956051209805323,0.025160599571734475,True
22762,64543,0,64544,3874.0,37873.0,27951.0,-0.006405,0.003111,0.0006709999999999999,0.5775,-1.2775,-3.6050000000000004,1.0146875,0.10615625000000001,0.67025,1.2939375,0.99803125,-0.343625,0.06646875000000001,1.26115625,0.018476346476746994,0.02522742021196726,True
22763,64544,0,64545,3873.0,37874.0,27949.0,0.001464,0.008357,-0.001098,0.8225000000000001,-2.7825,-3.3425000000000002,1.023625,0.1063125,0.6709375,1.28984375,0.9618125000000001,-0.34071875,0.0558125,1.2753125,0.018365573120144613,0.025689950849240546,True
22764,64545,0,64546,3874.0,37875.0,27951.0,0.004026,0.007076,0.0013419999999999999,0.77,-3.5000000000000004,-3.1675000000000004,1.02209375,0.10375000000000001,0.670875,1.2885625,0.96246875,-0.33525,0.06096875,1.2919375,0.018039674957109543,0.025477482510909876,True
22765,64546,0,64547,3873.0,37874.0,27950.0,0.004331,0.0032329999999999998,0.0017079999999999999,0.45500000000000007,-4.077500000000001,-3.0275000000000003,1.02209375,0.1045,0.67003125,1.2894375,0.9636250000000001,-0.33487500000000003,0.059500000000000004,1.2975625,0.01805536293077322,0.025502025855767423,True
22766,64547,0,64548,3872.0,37875.0,27948.0,0.0053679999999999995,-0.0040869999999999995,-0.001281,0.1925,-4.8475,-2.9925,1.0066875,0.10759375,0.67025,1.28865625,0.980625,-0.33446875,0.062875,1.29571875,0.01816610440694334,0.025373765646459212,True
22767,64548,0,64549,3873.0,37873.0,27950.0,0.008113,-0.005612,-0.004575,0.0175,-5.425000000000001,-2.9050000000000002,1.0208125000000001,0.10225000000000001,0.6696875,1.28965625,0.98353125,-0.33334375,0.0621875,1.28990625,0.017901105350554215,0.025378258769467765,True
22768,64549,0,64550,3873.0,37871.0,27951.0,0.009211,-0.003843,-0.003111,0.24500000000000002,-5.53,-2.8175000000000003,1.01846875,0.10337500000000001,0.6704687500000001,1.28965625,0.98984375,-0.33575,0.06221875,1.2923125,0.018044440791839166,0.02540962312453248,True
22769,64550,0,64551,3871.0,37871.0,27951.0,0.007625,-0.003904,-0.0040869999999999995,0.15750000000000003,-5.2675,-2.8175000000000003,1.022375,0.10553125000000001,0.67009375,1.28965625,0.9716875,-0.33453125,0.0610625,1.28278125,0.018083870014960736,0.025441030956365546,True
22770,64551,0,64552,3872.0,37871.0,27950.0,0.0073809999999999995,-0.0046359999999999995,-0.001586,0.035,-4.9350000000000005,-2.9050000000000002,1.02325,0.10350000000000001,0.673,1.2900625000000001,0.968125,-0.33634375,0.06393750000000001,1.27240625,0.0180735345669992,0.025445392282043053,True
22771,64552,0,64553,3874.0,37871.0,27950.0,0.006161,-0.002806,0.0,0.1925,-4.585000000000001,-3.0100000000000002,1.0150625,0.10446875,0.6725,1.291375,0.9803125,-0.34025,0.0603125,1.27240625,0.01827091956738324,0.025572075658882344,True
22772,64553,0,64554,3873.0,37870.0,27950.0,0.003965,-0.000122,0.0011589999999999999,0.36750000000000005,-4.112500000000001,-3.2025,1.01571875,0.11043750000000001,0.6701875,1.2941562500000001,0.9736875,-0.3405,0.06121875,1.2734375,0.01852622172921674,0.02543858618533473,True
22773,64554,0,64555,3874.0,37871.0,27950.0,0.000244,0.005246,-0.001098,0.8400000000000001,-3.22,-3.3600000000000003,1.02028125,0.10559375,0.6685625000000001,1.28959375,0.9744375000000001,-0.33809375,0.0608125,1.2724375,0.018230166444321468,0.02538724424126759,True
22774,64555,0,64556,3872.0,37872.0,27952.0,-0.001403,0.004575,-0.002623,0.665,-2.7825,-3.3950000000000005,1.01503125,0.10334375,0.67009375,1.28909375,0.979125,-0.339625,0.06140625,1.27675,0.018199489515553342,0.02542703662365297,True
22775,64556,0,64557,3873.0,37871.0,27950.0,-0.0015249999999999999,0.000976,-0.000793,0.49000000000000005,-2.4325,-3.4825000000000004,1.02059375,0.10540625,0.66925,1.29321875,0.98159375,-0.33753125,0.05909375,1.26896875,0.01819977118673448,0.025485929547884176,True
22776,64557,0,64558,3873.0,37870.0,27951.0,-0.0026839999999999998,-0.001586,-0.000488,0.385,-2.3975000000000004,-3.6575,1.01575,0.10312500000000001,0.6696562500000001,1.28878125,0.9745312500000001,-0.34034375,0.0615,1.27378125,0.01821949412690608,0.025404943918791906,True
22777,64558,0,64559,3871.0,37870.0,27953.0,-0.00244,-0.002379,0.000976,0.4025,-2.3625000000000003,-3.7800000000000002,1.02103125,0.10603125000000001,0.66759375,1.2905625,0.97775,-0.33825,0.05921875,1.2729375,0.018254445163477243,0.025411660281554095,True
22778,64559,0,64560,3870.0,37870.0,27953.0,-0.0037819999999999998,-6.1e-05,0.0018909999999999999,0.7350000000000001,-2.0825,-4.112500000000001,1.0179375,0.10365625,0.6694375,1.2961562500000001,0.9805625,-0.33853125,0.0605625,1.28109375,0.018168208075415398,0.02543397270716992,True
22779,64560,0,64561,3872.0,37871.0,27954.0,-0.004575,0.000305,0.003904,0.6475000000000001,-2.0475000000000003,-4.095000000000001,1.01584375,0.1051875,0.664875,1.28946875,0.973875,-0.33778125000000003,0.06096875,1.27228125,0.018200868248826094,0.02522684580229202,True
22780,64561,0,64562,3873.0,37871.0,27953.0,-0.002196,0.001281,0.0018909999999999999,0.6300000000000001,-1.9250000000000003,-4.130000000000001,1.0305,0.10765625000000001,0.6678125,1.30046875,0.9798125,-0.3373125,0.059687500000000004,1.277375,0.018283397149952363,0.025401715203174562,True
22781,64562,0,64563,3873.0,37873.0,27956.0,0.000305,0.001586,0.000976,0.525,-1.8900000000000001,-3.9550000000000005,1.01140625,0.09715625,0.67259375,1.2860625,0.9746875,-0.34153125,0.06140625,1.27203125,0.01802218173928561,0.025531470494168023,True
22782,64563,0,64564,3875.0,37873.0,27957.0,0.00061,0.00122,0.00183,0.45500000000000007,-1.61,-3.7975000000000003,1.027875,0.10753125000000001,0.66740625,1.29609375,0.98346875,-0.337875,0.06021875,1.278375,0.018300950678726058,0.025363118136261166,True
22783,64564,0,64565,3873.0,37872.0,27956.0,0.001403,-0.0017079999999999999,0.0,0.22750000000000004,-1.5050000000000001,-3.6050000000000004,1.00884375,0.09884375000000001,0.67109375,1.30284375,0.9736875,-0.3410625,0.06071875,1.2800625,0.018072598515368833,0.025496797235714835,True
22784,64565,0,64566,3872.0,37870.0,27955.0,0.00244,-0.003355,-0.003538,0.17500000000000002,-1.4700000000000002,-3.6050000000000004,1.0086875,0.1023125,0.6705,1.2995625,0.97428125,-0.3409375,0.06034375,1.28046875,0.018210062780038776,0.025487260285953352,True
22785,64566,0,64567,3873.0,37867.0,27951.0,0.0040869999999999995,-0.001647,-0.003843,0.15750000000000003,-1.4175000000000002,-3.5875000000000004,1.0089062500000001,0.098875,0.67103125,1.29315625,0.974125,-0.3405,0.06078125,1.2774375,0.018051190402826565,0.02549164224500852,True
22786,64567,0,64568,3874.0,37869.0,27945.0,0.001769,0.000366,-0.002623,0.28,-1.1900000000000002,-3.6225000000000005,1.02715625,0.1068125,0.66134375,1.28621875,0.97990625,-0.33578125000000003,0.06,1.27234375,0.018186954651394232,0.025118786549707603,True
22787,64568,0,64569,3872.0,37866.0,27941.0,0.0,0.002013,-0.000122,0.42000000000000004,-0.9800000000000001,-3.7450000000000006,1.01759375,0.10734375,0.66203125,1.2842500000000001,0.9745312500000001,-0.33853125,0.0604375,1.27265625,0.01831971680706904,0.025129688564692856,True
22788,64569,0,64570,3873.0,37869.0,27937.0,-0.001464,0.001464,0.001586,0.15750000000000003,-0.805,-3.9025000000000003,1.02978125,0.109625,0.66703125,1.29553125,0.97084375,-0.3378125,0.06134375,1.27740625,0.01838445834028839,0.025301649920304106,True
22789,64570,0,64571,3869.0,37868.0,27932.0,-0.0008539999999999999,-0.000915,-0.000305,0.08750000000000001,-0.8400000000000001,-3.8150000000000004,1.00996875,0.100125,0.67178125,1.2991875,0.9745312500000001,-0.3405625,0.06384375,1.28025,0.018105066388667067,0.02539829259344846,True
22790,64571,0,64572,3867.0,37870.0,27930.0,-0.001769,-0.001647,0.00042699999999999997,0.08750000000000001,-0.8225000000000001,-3.9375000000000004,1.0171875,0.10703125000000001,0.6665,1.28565625,0.9744375000000001,-0.33859375,0.05903125,1.27171875,0.018309398011132013,0.02537360774091483,True
22791,64572,0,64573,3865.0,37869.0,27925.0,-0.002074,-0.002562,0.000183,0.15750000000000003,-0.56,-3.9025000000000003,1.01765625,0.10446875,0.67125,1.29290625,0.981625,-0.33753125,0.06215625,1.278375,0.01816125043496349,0.025444804317431475,True
22792,64573,0,64574,3861.0,37868.0,27924.0,-0.001952,-0.00122,-0.0017079999999999999,0.08750000000000001,-0.5425000000000001,-4.095000000000001,1.0195625,0.10521875,0.67015625,1.2965,0.97371875,-0.3350625,0.0604375,1.274875,0.0180924643197444,0.025469084909133154,True
22793,64574,0,64575,3861.0,37869.0,27922.0,0.00122,0.0017079999999999999,0.0025009999999999998,0.29750000000000004,-0.36750000000000005,-4.025,1.00846875,0.108,0.667,1.28728125,0.9742500000000001,-0.3378125,0.059562500000000004,1.27284375,0.01831768980881088,0.025372865470816897,True
22794,64575,0,64576,3856.0,37868.0,27922.0,0.002928,0.000122,0.000366,0.10500000000000001,-0.17500000000000002,-4.0075,1.0134375,0.104625,0.66803125,1.2902500000000001,0.97509375,-0.33587500000000003,0.0620625,1.27221875,0.01810084905515006,0.025314158749056802,True
22795,64576,0,64577,3854.0,37866.0,27919.0,0.001586,-0.000793,0.000732,0.08750000000000001,0.052500000000000005,-4.130000000000001,1.0126875,0.1080625,0.66925,1.2941562500000001,0.975,-0.33890625,0.05959375,1.2724375,0.018364372885490695,0.02546557663364631,True
22796,64577,0,64578,3852.0,37865.0,27918.0,0.000244,-0.000183,0.001098,0.1925,0.21000000000000002,-4.025,1.0105625,0.1053125,0.66815625,1.28946875,0.9739375,-0.34125,0.0613125,1.26896875,0.01834591485646793,0.025349917367023567,True
22797,64578,0,64579,3849.0,37865.0,27919.0,-0.00042699999999999997,0.000244,0.00061,0.3325,0.36750000000000005,-4.077500000000001,1.01575,0.10315625,0.6709375,1.289875,0.98128125,-0.33896875,0.06190625,1.27303125,0.01816531359817782,0.025441927680644995,True
22798,64579,0,64580,3848.0,37865.0,27920.0,0.0013419999999999999,0.001037,-0.001769,0.29750000000000004,0.6300000000000001,-4.1825,1.01434375,0.10190625,0.671,1.2903437500000001,0.9821562500000001,-0.3374375,0.06221875,1.27953125,0.01805217784329184,0.025431816075268048,True
22799,64580,0,64581,3845.0,37864.0,27920.0,-0.002623,0.001037,0.001098,0.35000000000000003,0.8750000000000001,-4.130000000000001,1.01040625,0.105875,0.6699375,1.297625,0.97384375,-0.3385625,0.06184375,1.27359375,0.018260630635026205,0.025402697837265557,True
22800,64581,0,64582,3844.0,37866.0,27920.0,-0.004026,0.001037,0.000305,0.29750000000000004,1.0675000000000001,-4.165,1.008625,0.104875,0.6683125,1.291625,0.9735625,-0.341,0.06134375,1.262875,0.01831785875683004,0.02535517213920476,True
22801,64582,0,64583,3843.0,37863.0,27920.0,-0.005124,-0.000183,0.0017079999999999999,0.2625,1.0150000000000001,-4.095000000000001,1.0166250000000001,0.10609375,0.6685625000000001,1.29,0.97328125,-0.33484375,0.059250000000000004,1.272125,0.018119594460104145,0.02545085262575316,True
22802,64583,0,64584,3841.0,37865.0,27921.0,-0.0050019999999999995,-6.1e-05,-0.001647,0.1925,0.9275000000000001,-4.0600000000000005,1.0179375,0.1025625,0.6706875,1.2953125,0.98165625,-0.33821875,0.06153125,1.27959375,0.01811066185770066,0.0254467508495087,True
22803,64584,0,64585,3841.0,37864.0,27925.0,-0.002928,-0.00122,-0.000793,0.2625,0.525,-3.8675,1.01659375,0.10515625,0.66825,1.2935,0.97409375,-0.33825,0.0609375,1.265375,0.018218493523568868,0.025369101233600942,True
22804,64585,0,64586,3840.0,37863.0,27925.0,-0.00366,-0.000915,0.0,0.31500000000000006,0.12250000000000001,-3.8325000000000005,1.01540625,0.10265625,0.6716875,1.28909375,0.9714375000000001,-0.340625,0.06221875,1.26925,0.01821158043394531,0.025460536364455246,True
22805,64586,0,64587,3840.0,37862.0,27926.0,-0.00122,-0.000549,-0.001464,0.31500000000000006,-0.28,-3.7275000000000005,1.0190937500000001,0.10262500000000001,0.6708125,1.2846250000000001,0.9796875,-0.33825,0.0616875,1.27728125,0.0181144905652625,0.025445611506659045,True
22806,64587,0,64588,3839.0,37863.0,27928.0,0.000976,-0.000366,-0.0008539999999999999,0.17500000000000002,-0.7000000000000001,-3.7100000000000004,1.0225,0.1131875,0.67084375,1.2946875,0.9804375000000001,-0.33740625,0.0613125,1.27640625,0.018514452418281015,0.02546218333816338,True
22807,64588,0,64589,3838.0,37864.0,27929.0,0.0032329999999999998,-0.001464,0.000366,0.24500000000000002,-0.9275000000000001,-3.6750000000000003,1.01528125,0.105625,0.6680625,1.2891875,0.9751562500000001,-0.3380625,0.06015625,1.27240625,0.018230189851801065,0.025393075090559016,True
22808,64589,0,64590,3839.0,37863.0,27929.0,0.002013,-0.0011589999999999999,6.1e-05,0.45500000000000007,-1.2425000000000002,-3.7275000000000005,1.0159375,0.10365625,0.66984375,1.291375,0.9756875,-0.340125,0.06559375,1.27659375,0.018232496751762778,0.025246082718262543,True
22809,64590,0,64591,3837.0,37863.0,27928.0,0.003111,0.0018909999999999999,-0.000366,0.5075000000000001,-1.12,-3.7450000000000006,1.018875,0.1060625,0.6676562500000001,1.2922500000000001,0.96196875,-0.338125,0.059625000000000004,1.26825,0.018250686936647748,0.02539773290936337,True
22810,64591,0,64592,3839.0,37863.0,27928.0,0.004209,0.003477,0.000122,0.56,-0.8750000000000001,-3.8850000000000002,1.01178125,0.10475,0.67009375,1.29275,0.9741562500000001,-0.34025,0.06059375,1.2785312500000001,0.0182824745021107,0.02546011348965683,True
22811,64592,0,64593,3837.0,37862.0,27928.0,0.003294,0.002196,-0.000305,0.45500000000000007,-0.6125,-3.99,1.0165625,0.10484375,0.66925,1.28984375,0.9685312500000001,-0.33715625,0.06528125,1.27328125,0.018161530273283266,0.025234002384089016,True
22812,64593,0,64594,3838.0,37861.0,27930.0,-0.0006709999999999999,0.001403,0.000244,0.43750000000000006,-0.3325,-3.9025000000000003,1.02015625,0.1065,0.6695,1.291375,0.9808125,-0.33796875,0.05646875,1.27184375,0.01826236012403459,0.02560320963517025,True
22813,64594,0,64595,3838.0,37861.0,27931.0,-0.004575,-0.001037,-0.000366,0.35000000000000003,0.0175,-3.9200000000000004,1.01084375,0.10628125000000001,0.6684687500000001,1.2920625000000001,0.9762500000000001,-0.3419375,0.059875000000000005,1.269875,0.018413437714232896,0.025421494248672474,True
22814,64595,0,64596,3836.0,37861.0,27930.0,-0.0048189999999999995,-0.000366,-0.000732,0.385,-0.29750000000000004,-3.8500000000000005,1.01603125,0.10646875,0.66746875,1.2903437500000001,0.97190625,-0.34084375,0.06221875,1.26978125,0.018377033458423148,0.025284298226261052,True
22815,64596,0,64597,3837.0,37864.0,27930.0,-0.005063,0.00183,-0.0008539999999999999,0.385,-0.5775,-4.0600000000000005,1.018125,0.1058125,0.6704375,1.30390625,0.9861875,-0.331,0.06359375,1.28428125,0.017952920143027417,0.02535233333115743,True
22816,64597,0,64598,3837.0,37863.0,27931.0,-0.004575,-0.0006709999999999999,0.000732,0.43750000000000006,-0.8225000000000001,-4.095000000000001,1.01684375,0.1058125,0.6587500000000001,1.28446875,0.9717187500000001,-0.338125,0.05771875,1.2705,0.018240414986774863,0.025103340977585417,True
22817,64598,0,64599,3837.0,37862.0,27930.0,-0.003843,-0.00061,0.000183,0.36750000000000005,-1.3125000000000002,-4.025,1.0110000000000001,0.1001875,0.6748125,1.28359375,0.9590625,-0.343125,0.06171875,1.2700625,0.01821099386377057,0.025611435658105152,True
22818,64599,0,64600,3836.0,37862.0,27930.0,-0.001464,0.000305,0.001281,0.6125,-2.3975000000000004,-3.7975000000000003,1.03246875,0.10234375,0.67434375,1.2906250000000001,0.986625,-0.33709375,0.0615625,1.2749062500000001,0.018056284966235955,0.02559821416915787,True
22819,64600,0,64601,3836.0,37862.0,27933.0,0.002013,0.0037819999999999998,0.001586,0.7175,-2.8350000000000004,-3.8675,1.03409375,0.10953125,0.6739375,1.2895625,0.98365625,-0.33721875,0.0615625,1.2649375,0.018356657948024564,0.025581243554429985,True
22820,64601,0,64602,3836.0,37863.0,27934.0,0.004575,0.002257,0.001281,0.6475000000000001,-3.1675000000000004,-3.7800000000000002,1.04115625,0.1039375,0.67653125,1.2789375,0.98678125,-0.33665625,0.06246875,1.2629375,0.018104120199339217,0.02565270802518535,True
22821,64602,0,64603,3837.0,37862.0,27933.0,0.006893,-0.000549,0.003172,0.42000000000000004,-3.2725000000000004,-3.8150000000000004,1.026125,0.097375,0.68165625,1.27865625,0.98653125,-0.34125,0.06153125,1.27159375,0.018019822318081448,0.025904956849004804,True
22822,64603,0,64604,3837.0,37862.0,27933.0,0.002745,-0.004331,-0.0030499999999999998,0.052500000000000005,-2.9400000000000004,-3.7100000000000004,1.023625,0.09640625,0.67471875,1.29303125,0.983875,-0.3350625,0.062125,1.2820625,0.017730332519178858,0.02559098290888394,True
22823,64604,0,64605,3836.0,37861.0,27932.0,-0.000244,-0.001647,-0.003904,0.14,-2.1525000000000003,-3.7450000000000006,1.03971875,0.10959375,0.6707500000000001,1.3121875,0.982375,-0.3368125,0.061125,1.27884375,0.018342839679600605,0.025465900131062973,True
22824,64605,0,64606,3835.0,37859.0,27932.0,0.000305,0.00244,-0.003172,0.35000000000000003,-1.9775000000000003,-3.7800000000000002,1.0239375,0.10784375,0.66096875,1.29553125,0.97375,-0.33784375,0.06034375,1.26296875,0.018312530254451977,0.025089123825660614,True
22825,64606,0,64607,3834.0,37860.0,27933.0,0.002257,0.0021349999999999997,-0.002806,0.43750000000000006,-2.0650000000000004,-3.8500000000000005,1.0034687500000001,0.1011875,0.6663125,1.27828125,0.9743437500000001,-0.33946875,0.06228125,1.2730625,0.018104596058613642,0.025233450869247935,True
22826,64607,0,64608,3835.0,37861.0,27933.0,0.000732,-0.000305,-0.0006709999999999999,0.22750000000000004,-1.9600000000000002,-3.8325000000000005,1.03203125,0.10400000000000001,0.67378125,1.297375,0.98271875,-0.33759375,0.06034375,1.27865625,0.018144511513181125,0.025624323657529542,True
22827,64608,0,64609,3835.0,37860.0,27933.0,-0.0040869999999999995,-0.00061,0.000122,0.22750000000000004,-2.2225,-4.095000000000001,1.01578125,0.1073125,0.66809375,1.2925625,0.9679375,-0.338125,0.058,1.27296875,0.018302046686012173,0.0254821547907443,True
22828,64609,0,64610,3835.0,37862.0,27934.0,-0.003477,0.000915,0.00122,0.6125,-2.5025000000000004,-4.025,1.0160625,0.1044375,0.66759375,1.2896875,0.97859375,-0.33859375,0.06,1.266,0.01820282858371799,0.025379855889724308,True
22829,64610,0,64611,3834.0,37861.0,27938.0,-0.002745,0.0011589999999999999,0.002074,0.525,-2.7300000000000004,-4.0600000000000005,1.0229062500000001,0.1055,0.66909375,1.29534375,0.97928125,-0.337375,0.05778125,1.26675,0.018197319965690628,0.025532825774553583,True
22830,64611,0,64612,3834.0,37862.0,27937.0,-0.0021349999999999997,0.000915,0.0032329999999999998,0.5775,-2.9575000000000005,-4.025,1.0105,0.10259375,0.6697500000000001,1.29128125,0.9695,-0.3373125,0.0608125,1.27925,0.018075383220723325,0.025436849099410748,True
22831,64612,0,64613,3834.0,37863.0,27939.0,0.000366,-0.000244,0.0018909999999999999,0.35000000000000003,-3.2025,-3.8675,1.01575,0.10553125000000001,0.6678437500000001,1.2894375,0.97465625,-0.3370625,0.06078125,1.2729375,0.018185997180226662,0.025358492536436683,True
22832,64613,0,64614,3834.0,37864.0,27936.0,0.004575,-0.001586,-6.1e-05,0.14,-3.2900000000000005,-3.4125000000000005,1.0183125,0.10521875,0.66678125,1.290375,0.97990625,-0.3380625,0.05971875,1.2730000000000001,0.018213497890392876,0.025357367094423752,True
22833,64614,0,64615,3834.0,37863.0,27938.0,0.006893,0.000549,0.000244,0.29750000000000004,-3.115,-3.4125000000000005,1.01840625,0.1060625,0.673,1.2960625000000001,0.9818125,-0.33734375,0.05796875,1.2729375,0.018219171925859822,0.025688348811256357,True
22834,64615,0,64616,3836.0,37864.0,27939.0,0.005795,0.003111,-0.000488,0.5425000000000001,-2.5900000000000003,-3.4125000000000005,1.0154375,0.10521875,0.6684375,1.28940625,0.97384375,-0.33984375,0.06075,1.2783437500000001,0.018285347456267052,0.025384567185688774,True
22835,64616,0,64617,3836.0,37864.0,27939.0,0.005124,0.004514,-0.0013419999999999999,0.5775,-2.345,-3.325,1.02315625,0.10525,0.6675,1.29,0.974375,-0.3378125,0.0610625,1.26225,0.0182046969093874,0.02533268237155471,True
22836,64617,0,64618,3837.0,37862.0,27940.0,0.004697,0.001952,-0.00183,0.45500000000000007,-2.0475000000000003,-3.3075,1.01884375,0.10300000000000001,0.6701875,1.2946250000000001,0.982875,-0.33475,0.05815625,1.277625,0.017988678741306156,0.02556324635607899,True
22837,64618,0,64619,3835.0,37860.0,27936.0,-0.000915,-0.004392,-0.0037819999999999998,0.22750000000000004,-1.6450000000000002,-3.535,1.02246875,0.1051875,0.6688125,1.2845,0.9745625,-0.34118750000000003,0.06034375,1.26459375,0.01833825896949358,0.025416770551999885,True
22838,64619,0,64620,3836.0,37856.0,27931.0,-0.003477,-0.0059169999999999995,-0.0042699999999999995,0.07,-1.4525000000000001,-3.6225000000000005,1.02303125,0.10478125,0.66934375,1.2970625,0.98165625,-0.33815625,0.057625,1.2633125,0.018199303819491256,0.02554962696892017,True
22839,64620,0,64621,3836.0,37859.0,27927.0,-0.0053679999999999995,-0.0037819999999999998,-0.003172,0.22750000000000004,-1.4000000000000001,-3.6750000000000003,1.0150000000000001,0.105,0.66940625,1.28415625,0.97596875,-0.33809375,0.0604375,1.27821875,0.018205770532049168,0.0254377560158002,True
22840,64621,0,64622,3833.0,37858.0,27922.0,-0.007076,-0.000305,-0.000122,0.4025,-1.435,-3.7975000000000003,1.02221875,0.1055,0.66828125,1.28975,0.975125,-0.3384375,0.061125,1.2724375,0.018240180783996505,0.025362772895551694,True
22841,64622,0,64623,3833.0,37856.0,27918.0,-0.006527,-0.0006709999999999999,0.0030499999999999998,0.56,-1.6625,-3.7275000000000005,1.02315625,0.1050625,0.667375,1.29021875,0.9664375000000001,-0.33759375,0.0606875,1.271875,0.018188168253075555,0.025342728618459702,True
22842,64623,0,64624,3829.0,37856.0,27912.0,-0.0013419999999999999,0.0021349999999999997,0.002013,0.7525000000000001,-2.31,-3.5875000000000004,1.01578125,0.10328125,0.6736875,1.2908125,0.9799375,-0.3375625,0.06078125,1.27765625,0.01811371824931112,0.025602600335485053,True
22843,64624,0,64625,3828.0,37857.0,27910.0,0.003172,0.005063,0.0008539999999999999,0.6300000000000001,-2.3975000000000004,-3.3775000000000004,1.02121875,0.10640625000000001,0.6696875,1.2951875,0.9741875,-0.337375,0.059875000000000005,1.27184375,0.018234556931468575,0.025472402504164035,True
22844,64625,0,64626,3825.0,37855.0,27907.0,0.002562,0.0040869999999999995,0.0021349999999999997,0.525,-2.3975000000000004,-3.3600000000000003,1.01571875,0.1021875,0.67040625,1.29296875,0.9736875,-0.33878125000000003,0.0616875,1.27759375,0.018117947052094074,0.02542864080331477,True
22845,64626,0,64627,3820.0,37855.0,27906.0,0.000488,-0.000122,0.002806,0.29750000000000004,-2.3800000000000003,-3.3600000000000003,1.01546875,0.10496875,0.6694687500000001,1.29534375,0.9753437500000001,-0.33896875,0.06125,1.27384375,0.018239782653075635,0.02540728943658295,True
22846,64627,0,64628,3818.0,37855.0,27904.0,0.000549,-0.0025009999999999998,0.001952,0.17500000000000002,-2.415,-3.4125000000000005,1.01534375,0.10621875,0.67271875,1.289625,0.974875,-0.33878125000000003,0.06246875,1.2725312500000001,0.01828357777774925,0.025493439303604044,True
22847,64628,0,64629,3815.0,37853.0,27899.0,0.0035989999999999998,-0.001098,-0.003538,0.15750000000000003,-2.415,-3.5000000000000004,1.01515625,0.108,0.671375,1.288125,0.98209375,-0.34168750000000003,0.0615,1.28184375,0.018473965701843804,0.02547674248595359,True
22848,64629,0,64630,3812.0,37851.0,27898.0,0.0034159999999999998,-0.000305,-0.0037819999999999998,0.4025,-2.1875,-3.4650000000000003,1.02296875,0.1053125,0.6705625000000001,1.29134375,0.97346875,-0.338625,0.058937500000000004,1.2709062500000001,0.018240040265216296,0.02554711178754076,True
22849,64630,0,64631,3808.0,37851.0,27897.0,0.001464,0.0017079999999999999,-0.002806,0.5950000000000001,-1.9775000000000003,-3.3950000000000005,1.01621875,0.1031875,0.67428125,1.29553125,0.96546875,-0.33565625,0.05809375,1.27378125,0.018032953189828196,0.02573677691182172,True
22850,64631,0,64632,3806.0,37851.0,27897.0,0.000183,0.0026839999999999998,0.0011589999999999999,0.6475000000000001,-1.8550000000000002,-3.4650000000000003,1.01684375,0.10528125,0.66984375,1.2895,0.96865625,-0.34328125,0.0648125,1.2628125000000001,0.0184265422312368,0.025277898909294105,True
22851,64632,0,64633,3804.0,37850.0,27897.0,0.002074,0.0021349999999999997,0.0030499999999999998,0.5950000000000001,-1.6975000000000002,-3.7450000000000006,1.02115625,0.10534375,0.67196875,1.2954375,0.9805,-0.33684375,0.055718750000000004,1.2671875000000001,0.018169467846462218,0.02573683434327351,True
22852,64633,0,64634,3803.0,37850.0,27896.0,-0.000366,0.000549,-0.0006709999999999999,0.4025,-1.5050000000000001,-3.8850000000000002,1.01796875,0.10575,0.6686562500000001,1.2903437500000001,0.97390625,-0.34190625,0.06653125,1.275875,0.018390353056264852,0.02515828383631186,True
