frame_seq,absolute_seq_u64,segment_id,sample_seq,PPG_G,PPG_R,PPG_IR,ACC_X,ACC_Y,ACC_Z,GYRO_X,GYRO_Y,GYRO_Z,Uh1,Uh2,Uh3,Uh4,Uc1,Uc2,Uc3,Uc4,UD1,UD2,parser_valid
2072,43853,0,43854,3713.0,37705.0,28292.0,-0.001769,0.00122,-0.00122,0.45500000000000007,-1.61,-3.8150000000000004,0.99734375,0.130125,0.58340625,1.27625,0.9751562500000001,-0.32865625,-0.02725,1.2550625,0.018857648580570492,0.02541515362765194,True
2073,43854,0,43855,3716.0,37705.0,28292.0,-0.0021349999999999997,0.000305,-0.001403,0.4025,-1.7675,-3.7625,1.01375,0.13034375,0.5796875,1.27171875,0.976375,-0.3243125,-0.029500000000000002,1.26096875,0.018691432697224227,0.025351651095528414,True
2074,43855,0,43856,3715.0,37707.0,28294.0,-0.00122,0.001037,-0.000122,0.45500000000000007,-2.3800000000000003,-3.8675,1.0113125,0.13284375,0.57603125,1.27990625,0.9795625,-0.32940625,-0.02803125,1.25521875,0.018999641637370415,0.025139908206170652,True
2075,43856,0,43857,3716.0,37706.0,28294.0,0.000549,0.002562,0.00122,0.6125,-2.66,-3.99,1.015875,0.1345625,0.57896875,1.27146875,0.9760625,-0.32803125,-0.02803125,1.2551875000000001,0.01901484527236457,0.02526216125176714,True
2076,43857,0,43858,3715.0,37707.0,28297.0,0.003294,0.0023179999999999997,0.0037819999999999998,0.56,-2.87,-3.9375000000000004,1.00796875,0.1325,0.57946875,1.27178125,0.9780625000000001,-0.33075,-0.031343750000000004,1.2615625,0.019039692570101623,0.025417326070249397,True
2077,43858,0,43859,3717.0,37711.0,28298.0,0.0064659999999999995,-6.1e-05,0.002623,0.35000000000000003,-2.8525000000000005,-3.8150000000000004,1.0098125,0.13259375,0.57953125,1.2720625,0.9785625,-0.33178125,-0.03115625,1.26375,0.01908512143968087,0.02541232280490041,True
2078,43859,0,43860,3717.0,37709.0,28297.0,0.004697,-0.0030499999999999998,-0.001464,0.10500000000000001,-2.6075000000000004,-3.7275000000000005,1.0089375,0.132375,0.577625,1.2725,0.9830625000000001,-0.33265625,-0.025531250000000002,1.26034375,0.01911140506906228,0.02510480387400383,True
2079,43860,0,43861,3716.0,37712.0,28301.0,0.002257,-0.001281,-0.003477,0.29750000000000004,-1.6975000000000002,-3.8500000000000005,1.01028125,0.12984375,0.578875,1.26346875,0.98071875,-0.3278125,-0.029437500000000002,1.25796875,0.01881205924289329,0.02531530336488318,True
2080,43861,0,43862,3718.0,37711.0,28299.0,-0.000366,-0.002379,-0.0046359999999999995,0.29750000000000004,-1.2600000000000002,-3.9025000000000003,1.008625,0.13159375,0.57875,1.27140625,0.98,-0.3320625,-0.03015625,1.26059375,0.019055361624194415,0.02533925471250317,True
2081,43862,0,43863,3719.0,37710.0,28294.0,-0.002928,-0.0037819999999999998,-0.003843,0.21000000000000002,-0.9100000000000001,-3.9725000000000006,1.00215625,0.13175,0.57896875,1.2720625,0.9826875,-0.32953125,-0.0308125,1.26375,0.01895972615584199,0.025374974316827618,True
2082,43863,0,43864,3719.0,37707.0,28292.0,-0.006039,-0.0032329999999999998,-0.001952,0.10500000000000001,-0.6475000000000001,-3.99,1.0089062500000001,0.13153125000000002,0.578,1.27628125,0.98040625,-0.33137500000000003,-0.02696875,1.2556875,0.019025075648211418,0.025178737954616098,True
2083,43864,0,43865,3717.0,37704.0,28285.0,-0.0071979999999999995,0.002379,0.00244,0.45500000000000007,-0.6300000000000001,-4.0075,1.01521875,0.1299375,0.57746875,1.27753125,0.974875,-0.3291875,-0.02675,1.25434375,0.018871365926215168,0.02514775198476698,True
2084,43865,0,43866,3716.0,37700.0,28283.0,-0.004209,0.005612,0.0032329999999999998,0.5950000000000001,-0.9100000000000001,-4.0600000000000005,1.0053125,0.13134375,0.5795,1.27465625,0.97565625,-0.3290625,-0.0270625,1.254875,0.01892412623790991,0.025244971165326598,True
2085,43866,0,43867,3716.0,37702.0,28280.0,-0.001037,0.007137,0.002989,0.49000000000000005,-1.4175000000000002,-4.095000000000001,1.00753125,0.1324375,0.5810625,1.27315625,0.9753437500000001,-0.3298125,-0.029750000000000002,1.26071875,0.018999324388545947,0.025419011849894407,True
2086,43867,0,43868,3714.0,37706.0,28277.0,-0.000305,0.0032329999999999998,0.00244,0.45500000000000007,-1.8725000000000003,-4.095000000000001,1.016125,0.12996875,0.58075,1.2716875,0.9755,-0.32865625,-0.02665625,1.2590937500000001,0.018851226113238372,0.025280515261044703,True
2087,43868,0,43869,3711.0,37705.0,28274.0,-0.00061,0.001586,0.002013,0.28,-2.1350000000000002,-4.0600000000000005,1.00884375,0.130875,0.58028125,1.2726875,0.98328125,-0.33115625,-0.02728125,1.26059375,0.018989284572121394,0.025286360686355223,True
2088,43869,0,43870,3711.0,37704.0,28272.0,0.000183,-0.004026,-0.001037,0.0175,-2.8875,-3.9375000000000004,1.0150000000000001,0.12875,0.57865625,1.2715625,0.97896875,-0.32475,-0.026125,1.248125,0.018643562626542924,0.025171818177088478,True
2089,43870,0,43871,3706.0,37703.0,28270.0,6.1e-05,-0.003538,-0.000732,-0.0175,-3.0975,-3.8150000000000004,1.0116875,0.13209375,0.58090625,1.27153125,0.9758125,-0.3285625,-0.02625,1.25990625,0.01893479115340251,0.02527053743301597,True
2090,43871,0,43872,3706.0,37700.0,28269.0,0.000793,-0.002562,0.0021349999999999997,0.14,-3.2725000000000004,-3.7100000000000004,1.00878125,0.13096875,0.57753125,1.27934375,0.9810625000000001,-0.33109375,-0.02140625,1.254625,0.018990617715243484,0.024933490311375924,True
2091,43872,0,43873,3704.0,37699.0,28269.0,0.0021349999999999997,0.001281,0.001647,0.21000000000000002,-3.2725000000000004,-3.6050000000000004,1.00321875,0.13034375,0.581125,1.27025,0.97578125,-0.32834375,-0.025875000000000002,1.25496875,0.018854037279048233,0.0252644284547389,True
2092,43873,0,43874,3702.0,37700.0,28266.0,0.002196,-0.000183,0.0066489999999999995,0.22750000000000004,-3.3075,-3.43,1.009375,0.13228125,0.5820625,1.2745625,0.9746250000000001,-0.33078125,-0.02659375,1.259875,0.019031961828188317,0.025332606707931707,True
2093,43874,0,43875,3703.0,37700.0,28266.0,0.003843,-0.003965,-0.0035989999999999998,0.10500000000000001,-4.567500000000001,-3.9375000000000004,1.01578125,0.12934375,0.578125,1.27171875,0.9755312500000001,-0.324375,-0.02640625,1.2549062500000001,0.01865284308435469,0.025161118300827862,True
2094,43875,0,43876,3700.0,37699.0,28267.0,0.013054,0.002928,-0.008357,0.2625,-4.8825,-4.0075,1.00940625,0.131625,0.580375,1.27884375,0.9909375,-0.33575,-0.0305,1.24675,0.019205284406685636,0.025420819375377122,True
2095,43876,0,43877,3700.0,37696.0,28266.0,0.010492,0.005307,-0.008967,0.6300000000000001,-4.2875000000000005,-3.9375000000000004,1.01465625,0.1310625,0.581125,1.27190625,0.97178125,-0.3284375,-0.029687500000000002,1.27175,0.018887361755147655,0.02541907796345666,True
2096,43877,0,43878,3698.0,37697.0,28265.0,0.004575,0.006039,-0.0042699999999999995,0.77,-3.2375000000000003,-3.8150000000000004,1.0093125,0.12975,0.5786875,1.27825,0.97840625,-0.326625,-0.02465625,1.24853125,0.018760308920781243,0.025113522696084363,True
2097,43878,0,43879,3698.0,37697.0,28268.0,-0.0023179999999999997,0.002013,-0.0037819999999999998,0.6825000000000001,-2.7300000000000004,-3.6225000000000005,1.0139375,0.12865625,0.58134375,1.2716875,0.97121875,-0.3286875,-0.0278125,1.26534375,0.018798537734516094,0.02535213099403036,True
2098,43879,0,43880,3699.0,37699.0,28271.0,0.003294,0.001098,0.000244,0.31500000000000006,-2.2750000000000004,-3.9375000000000004,1.0085625,0.1321875,0.57946875,1.2789375,0.9927812500000001,-0.33203125,-0.02390625,1.24996875,0.019078503772676194,0.025115607500341457,True
2099,43880,0,43881,3699.0,37696.0,28271.0,0.0053679999999999995,0.001403,0.001403,0.5075000000000001,-1.995,-3.99,1.0163125,0.12890625,0.5790625,1.2710000000000001,0.96046875,-0.32784375,-0.025656250000000002,1.25253125,0.01877478352350894,0.025169707903400142,True
2100,43881,0,43882,3699.0,37700.0,28273.0,0.003111,0.001037,0.000793,0.5425000000000001,-1.4875,-3.99,1.0092812500000001,0.13225,0.58009375,1.2763125,0.9923125,-0.33309375,-0.0265,1.24690625,0.01912390404528812,0.02524686283894866,True
2101,43882,0,43883,3699.0,37700.0,28275.0,0.0011589999999999999,0.000549,0.001098,0.47250000000000003,-1.12,-4.025,1.015375,0.131,0.5785,1.277125,0.95628125,-0.32721875,-0.017843750000000002,1.240625,0.01883564063401206,0.02482919600141041,True
2102,43883,0,43884,3697.0,37699.0,28276.0,-0.0013419999999999999,0.0008539999999999999,-0.000366,0.5075000000000001,-0.9625000000000001,-4.1825,1.0095,0.132625,0.58053125,1.2714375,0.975875,-0.33165625,-0.0325625,1.267875,0.019081366481165866,0.02551096038967963,True
2103,43884,0,43885,3697.0,37703.0,28277.0,-0.003172,-0.00244,-0.000976,0.385,-1.1375000000000002,-4.4975000000000005,1.01146875,0.1295,0.5786250000000001,1.27778125,0.9775312500000001,-0.32621875,-0.02459375,1.249125,0.018733645153955546,0.025108385027322263,True
2104,43885,0,43886,3699.0,37701.0,28277.0,-0.005612,-0.004758,-0.0006709999999999999,0.4025,-1.12,-4.3925,1.015625,0.13140625,0.57928125,1.26790625,0.9686875,-0.32753125,-0.026375,1.25334375,0.01886494339617794,0.0252079745696136,True
2105,43886,0,43887,3698.0,37701.0,28281.0,-0.006161,-0.001281,-0.00042699999999999997,0.42000000000000004,-0.6475000000000001,-4.2525,1.00859375,0.132875,0.58321875,1.2715625,0.98553125,-0.3331875,-0.0271875,1.26021875,0.019153368213679363,0.025404814858168482,True
2106,43887,0,43888,3699.0,37704.0,28279.0,-0.010126,0.0008539999999999999,0.0025009999999999998,0.665,-0.08750000000000001,-4.2175,1.01134375,0.1306875,0.5809375,1.27821875,0.97721875,-0.32306250000000003,-0.02740625,1.2550937500000001,0.01865513440176376,0.02531874409040718,True
2107,43888,0,43889,3699.0,37705.0,28280.0,-0.013725,0.0013419999999999999,0.0062829999999999995,0.7525000000000001,0.24500000000000002,-3.9725000000000006,1.013375,0.13253125,0.5817187500000001,1.27121875,0.9758125,-0.32840625,-0.0274375,1.26175,0.01894647332272331,0.02535252666873028,True
2108,43889,0,43890,3699.0,37704.0,28278.0,-0.004209,-0.001952,0.012017,0.0175,-0.43750000000000006,-3.8850000000000002,0.9995625,0.13028125000000002,0.58265625,1.27725,0.98428125,-0.3305,-0.0268125,1.24753125,0.018938420912024002,0.025366192456864597,True
2109,43890,0,43891,3698.0,37704.0,28283.0,0.002928,-0.003721,0.010065,-0.17500000000000002,-1.1025,-3.6925000000000003,1.01615625,0.1308125,0.58396875,1.27165625,0.9755625,-0.32846875000000003,-0.02746875,1.2496875,0.018878345970705618,0.025447437112991772,True
2110,43891,0,43892,3701.0,37706.0,28283.0,0.006588,-0.002928,-0.000915,0.0,-1.6800000000000002,-3.6750000000000003,1.00840625,0.1343125,0.58109375,1.27640625,0.9842500000000001,-0.3315,-0.02834375,1.2558125,0.019144421840001646,0.025363275402616958,True
2111,43892,0,43893,3701.0,37704.0,28280.0,0.011467999999999999,0.0028669999999999998,-0.008357,0.47250000000000003,-2.1525000000000003,-3.8150000000000004,1.01228125,0.13253125,0.5806250000000001,1.26990625,0.97596875,-0.3289375,-0.0285625,1.26184375,0.018967895741439592,0.025352640217241464,True
2112,43893,0,43894,3702.0,37705.0,28279.0,0.011895,0.00732,-0.012993,0.77,-2.2575000000000003,-3.9200000000000004,1.01365625,0.1291875,0.5800625,1.27796875,0.98053125,-0.32775,-0.021656250000000002,1.2554375,0.018782563122360266,0.0250490117641243,True
2113,43894,0,43895,3700.0,37707.0,28278.0,0.005795,-0.00042699999999999997,-0.008296,0.385,-1.5925000000000002,-3.9025000000000003,1.0053750000000001,0.13325,0.5815625,1.2723125,0.9749375,-0.32821875,-0.02759375,1.2569375,0.018968456126694438,0.02535236180277103,True
2114,43895,0,43896,3702.0,37705.0,28277.0,0.003294,-0.0070149999999999995,-0.001586,-0.10500000000000001,-1.4175000000000002,-3.99,1.00178125,0.1404375,0.58184375,1.27203125,0.9776875,-0.32853125,-0.025593750000000002,1.25609375,0.019276492492739362,0.02528293395454587,True
2115,43896,0,43897,3701.0,37702.0,28277.0,0.0018909999999999999,-0.006771,-0.0017079999999999999,0.035,-1.0150000000000001,-4.1825,1.00790625,0.13178125000000002,0.57915625,1.27553125,0.97996875,-0.33040625,-0.0269375,1.2504375,0.018996291934089676,0.025225593149355803,True
2116,43897,0,43898,3703.0,37702.0,28277.0,0.001281,-6.1e-05,-0.0030499999999999998,0.2625,-0.525,-4.357500000000001,1.02159375,0.12909375,0.58090625,1.27634375,0.97575,-0.3285,-0.02625,1.2563125,0.01880895862876873,0.02527053743301597,True
2117,43898,0,43899,3702.0,37703.0,28279.0,-0.004392,0.005124,0.002989,0.7000000000000001,0.2625,-4.322500000000001,1.01534375,0.13375,0.5834375,1.25971875,0.97546875,-0.3283125,-0.026000000000000002,1.2549375,0.018992788751788683,0.025365749604595027,True
2118,43899,0,43900,3702.0,37705.0,28279.0,-0.014579,-0.002745,0.009211,0.17500000000000002,0.8575,-4.112500000000001,1.00534375,0.13296875,0.582125,1.26609375,0.9755,-0.329625,-0.02925,1.26190625,0.019013599675292984,0.02544294973833973,True
2119,43900,0,43901,3703.0,37706.0,28280.0,-0.00732,-0.0053679999999999995,0.006527,-0.12250000000000001,0.24500000000000002,-4.112500000000001,1.0186250000000001,0.1285,0.5816875,1.269125,0.97240625,-0.32584375,-0.025375,1.25515625,0.01867740969930385,0.025267555657299837,True
2120,43901,0,43902,3702.0,37709.0,28282.0,-0.00244,-0.0044529999999999995,0.0034159999999999998,0.12250000000000001,-0.4025,-4.0425,0.99825,0.13215625,0.5835625,1.272875,0.97575,-0.32915625,-0.02715625,1.26040625,0.018961302860636606,0.02541785401674407,True
2121,43902,0,43903,3703.0,37705.0,28282.0,-0.002623,-0.000915,0.0011589999999999999,0.3325,-0.7000000000000001,-4.025,1.0209062500000001,0.128875,0.58284375,1.26925,0.98071875,-0.3279375,-0.025812500000000002,1.2593750000000001,0.018777280235942728,0.02533343045110337,True
2122,43903,0,43904,3703.0,37707.0,28284.0,-0.002745,0.002379,-0.001281,0.45500000000000007,-1.05,-4.0600000000000005,1.01771875,0.13109375,0.5884375000000001,1.26978125,0.9761562500000001,-0.32828125,-0.02109375,1.25478125,0.018882345007418064,0.02537483331707159,True
2123,43904,0,43905,3703.0,37707.0,28282.0,0.004148,0.004514,-0.00183,0.43750000000000006,-1.715,-4.0075,1.0146875,0.12740625,0.5806875,1.2696875,0.98021875,-0.3274375,-0.02496875,1.2550625,0.01869673902152662,0.025209450064321105,True
2124,43905,0,43906,3701.0,37708.0,28280.0,0.0048189999999999995,0.002928,0.000915,0.29750000000000004,-1.61,-3.9375000000000004,1.00646875,0.13196875,0.58303125,1.2715625,0.9768125,-0.33046875000000003,-0.0268125,1.259875,0.019006518318723308,0.025381800020289835,True
2125,43906,0,43907,3702.0,37709.0,28284.0,0.002013,-0.00042699999999999997,0.002745,-0.0175,-1.4700000000000002,-3.8850000000000002,1.014125,0.13121875,0.58003125,1.27484375,0.980625,-0.32765625,-0.02509375,1.25553125,0.018862277372075246,0.02518720660559337,True
2126,43907,0,43908,3702.0,37708.0,28283.0,0.00061,-0.0034159999999999998,0.000732,0.0,-1.3650000000000002,-3.8150000000000004,1.0089375,0.13303125,0.58184375,1.27221875,0.97671875,-0.3289375,-0.025843750000000002,1.2575625,0.018988447399316145,0.025293076335768647,True
2127,43908,0,43909,3702.0,37707.0,28284.0,-0.00061,-0.002196,-0.001647,0.0175,-1.5050000000000001,-3.8850000000000002,1.00803125,0.1325625,0.58159375,1.27265625,0.980375,-0.32353125,-0.02728125,1.2610000000000001,0.018751132198372718,0.025340986092631683,True
2128,43909,0,43910,3703.0,37709.0,28284.0,-0.00122,0.0015249999999999999,-0.002928,0.43750000000000006,-2.2750000000000004,-3.8325000000000005,1.01315625,0.12946875,0.581,1.2771875,0.97971875,-0.3273125,-0.025500000000000002,1.25625,0.01877647808404648,0.0252440115710391,True
2129,43910,0,43911,3702.0,37706.0,28285.0,0.004026,0.0025009999999999998,-0.0048189999999999995,0.45500000000000007,-2.9400000000000004,-3.7450000000000006,1.0131875000000001,0.129375,0.5805625,1.2798125,0.97684375,-0.3288125,-0.02709375,1.2519375,0.01883312224959603,0.02529045985846707,True
2130,43911,0,43912,3703.0,37706.0,28287.0,0.005429,0.0017079999999999999,-0.006405,0.5775,-3.6750000000000003,-3.7800000000000002,1.01590625,0.12971875,0.5788125000000001,1.27484375,0.97196875,-0.3244375,-0.0238125,1.2469375,0.018670781184559768,0.025084486486064612,True
2131,43912,0,43913,3703.0,37705.0,28288.0,0.011773,0.003355,-0.008967,0.7000000000000001,-4.077500000000001,-3.7800000000000002,1.0121875,0.1286875,0.57809375,1.27953125,0.96334375,-0.32434375,-0.0224375,1.24478125,0.018624603181740515,0.024998764176199853,True
2132,43913,0,43914,3703.0,37709.0,28287.0,0.012444,0.003965,-0.0026839999999999998,0.56,-4.0425,-3.8500000000000005,1.01784375,0.1310625,0.58178125,1.2689375,0.95459375,-0.32584375,-0.0226875,1.2750937500000001,0.0187827503413936,0.02516241157447517,True
2133,43914,0,43915,3705.0,37708.0,28289.0,0.0013419999999999999,-0.0070149999999999995,0.008235,-0.15750000000000003,-3.1675000000000004,-3.9200000000000004,1.009375,0.13575,0.58090625,1.27171875,0.999125,-0.3360625,-0.02715625,1.2530000000000001,0.01938738035374457,0.025307302024141953,True
2134,43915,0,43916,3705.0,37709.0,28288.0,0.00061,-0.01098,0.004941,-0.29750000000000004,-2.66,-3.9025000000000003,1.0110625,0.129625,0.5784375,1.2783125,0.97875,-0.32515625,-0.02209375,1.24459375,0.018695923073464328,0.024999121902103145,True
2135,43916,0,43917,3706.0,37708.0,28286.0,6.1e-05,-0.0075639999999999995,0.0013419999999999999,-0.10500000000000001,-1.9250000000000003,-3.8675,1.015375,0.132125,0.58190625,1.2714375,0.966,-0.32878125,-0.029312500000000002,1.2748125000000001,0.01894489679790269,0.025436381086641573,True
2136,43917,0,43918,3704.0,37706.0,28284.0,-0.005063,-0.00061,0.000244,0.28,-1.0150000000000001,-3.8325000000000005,1.00875,0.1345,0.583,1.27209375,0.99740625,-0.33640625,-0.03259375,1.2724375,0.01934986806032629,0.02561495260993208,True
2137,43918,0,43919,3703.0,37704.0,28279.0,-0.010309,0.003721,0.000488,0.6125,-0.10500000000000001,-4.0075,1.008625,0.132875,0.58296875,1.27203125,0.99553125,-0.33365625,-0.0235625,1.2550937500000001,0.019172262696856332,0.025247348306480358,True
2138,43919,0,43920,3705.0,37701.0,28276.0,-0.0071979999999999995,0.004758,0.0035989999999999998,0.36750000000000005,0.0,-3.9725000000000006,1.0144375,0.1308125,0.58153125,1.27771875,0.9755,-0.32709375,-0.02275,1.244875,0.018822891657578292,0.025154541008002837,True
2139,43920,0,43921,3704.0,37701.0,28271.0,-0.0028669999999999998,0.002074,0.0,0.29750000000000004,-0.6475000000000001,-3.8325000000000005,1.0128125000000001,0.1284375,0.5815,1.277875,0.9643125,-0.32525,-0.02034375,1.2443125,0.01865088745233862,0.025055584393957726,True
2140,43921,0,43922,3704.0,37702.0,28265.0,0.006954,0.0017079999999999999,-0.005673,0.47250000000000003,-1.54,-3.9550000000000005,1.0149062500000001,0.130875,0.58159375,1.2783125,0.9627187500000001,-0.32709375,-0.020625,1.25203125,0.018825460809514086,0.025070902609736427,True
2141,43922,0,43923,3700.0,37700.0,28266.0,0.015006,0.005795,-0.008479,0.5425000000000001,-1.8900000000000001,-4.235,1.0149062500000001,0.130125,0.58215625,1.2773125,0.9695312500000001,-0.3286875,-0.023125,1.2546875,0.018858908849891717,0.025195774904389,True
2142,43923,0,43924,3699.0,37701.0,28264.0,0.001952,-0.0025009999999999998,0.00183,0.5425000000000001,-1.2425000000000002,-4.077500000000001,1.014375,0.13090625,0.5837187500000001,1.27753125,0.9782500000000001,-0.329625,-0.02246875,1.25775,0.018928826482117994,0.02523418830547964,True
2143,43924,0,43925,3697.0,37701.0,28259.0,-0.002989,-0.008723,0.0055509999999999995,0.08750000000000001,0.525,-3.9200000000000004,1.0105,0.132125,0.58409375,1.2709375,0.98384375,-0.33121875,-0.026375,1.25540625,0.019043178837887025,0.02540827528081119,True
2144,43925,0,43926,3695.0,37698.0,28258.0,-0.005673,-0.00915,0.004331,-0.0175,0.9100000000000001,-4.025,1.0095625,0.132125,0.5849375,1.27175,0.98109375,-0.33134375,-0.02496875,1.2638125,0.019048218411693765,0.025386349357894585,True
2145,43926,0,43927,3692.0,37699.0,28257.0,-0.003477,-0.0034159999999999998,0.0015249999999999999,0.3325,1.225,-4.41,1.00984375,0.130625,0.58725,1.2763125,0.98178125,-0.3285625,-0.02228125,1.2549062500000001,0.018874419727840475,0.025373578955995284,True
2146,43927,0,43928,3690.0,37697.0,28256.0,-0.005856,0.001647,0.0008539999999999999,0.665,1.7500000000000002,-4.357500000000001,1.01075,0.13253125,0.58565625,1.2719375,0.9754375000000001,-0.32871875,-0.02296875,1.2553750000000001,0.018959074858802417,0.025335128490312005,True
2147,43928,0,43929,3689.0,37696.0,28253.0,-0.013786,0.003904,0.003538,0.7000000000000001,2.5375,-4.095000000000001,1.0086875,0.133375,0.58521875,1.27196875,0.97659375,-0.32975,-0.0253125,1.2632812500000001,0.019035337395575377,0.025412000364199216,True
2148,43929,0,43930,3687.0,37695.0,28253.0,-0.015677,0.0037819999999999998,0.004697,0.6475000000000001,2.1175,-4.2175,1.0092812500000001,0.13303125,0.5854375,1.27128125,0.98165625,-0.33075,-0.02484375,1.261875,0.019061527079929717,0.025402090284145976,True
2149,43930,0,43931,3685.0,37696.0,28254.0,-0.014213,0.004697,0.00244,0.7000000000000001,1.0325000000000002,-4.2875000000000005,1.008875,0.1309375,0.5836250000000001,1.2716875,0.9813437500000001,-0.331,-0.0245625,1.2553750000000001,0.018985553409231023,0.02531523727018963,True
2150,43931,0,43932,3685.0,37697.0,28254.0,-0.011956,0.0051849999999999995,0.003172,0.6475000000000001,-0.3325,-4.095000000000001,1.010875,0.1288125,0.58121875,1.2869375,0.9838125,-0.33146875000000003,-0.0240625,1.26075,0.018917117364729577,0.02519479168021645,True
2151,43932,0,43933,3684.0,37696.0,28255.0,-0.009577,0.002074,0.004209,0.56,-2.0650000000000004,-3.7275000000000005,1.02825,0.12840625,0.5880625,1.2666875,0.98453125,-0.32821875,-0.018000000000000002,1.2552812500000001,0.018769356059000413,0.025233678907486054,True
2152,43933,0,43934,3682.0,37697.0,28257.0,-0.001403,-0.0057339999999999995,0.0006709999999999999,0.035,-5.705000000000001,-3.3600000000000003,1.00196875,0.13409375,0.583375,1.28515625,0.9755,-0.328625,-0.025875000000000002,1.26340625,0.01901951918778805,0.025358077489373434,True
2153,43934,0,43935,3682.0,37693.0,28253.0,0.004331,-0.0053679999999999995,-0.0025009999999999998,0.22750000000000004,-7.490000000000001,-3.1675000000000004,1.01665625,0.13378125,0.5855,1.2686250000000001,0.97571875,-0.32821875,-0.01846875,1.25953125,0.01899029290831249,0.025146013939793727,True
2154,43935,0,43936,3682.0,37696.0,28255.0,0.011346,-0.00061,-0.0044529999999999995,0.525,-8.8375,-2.8175000000000003,1.01621875,0.12646875,0.5761875,1.28428125,0.9830625000000001,-0.32728125,-0.025750000000000002,1.2605,0.0186518992951586,0.02505384847507362,True
2155,43936,0,43937,3681.0,37695.0,28256.0,0.017873,0.002989,-0.009637999999999999,0.7000000000000001,-9.957500000000001,-2.8525000000000005,1.01796875,0.130625,0.58509375,1.2663125,0.97596875,-0.3284375,-0.0241875,1.25496875,0.018869378684923763,0.02536115945648526,True
2156,43937,0,43938,3683.0,37694.0,28259.0,0.029523999999999998,0.006039,-0.013725,0.8575,-10.867500000000001,-2.8175000000000003,0.9937812500000001,0.1379375,0.58290625,1.2795625,0.9762500000000001,-0.32925,-0.02475,1.2608125000000001,0.019202708673715794,0.02529292708560963,True
2157,43938,0,43939,3681.0,37693.0,28257.0,0.036295,0.001464,-0.00671,0.3325,-9.31,-2.9400000000000004,1.02796875,0.126,0.585125,1.2613125,0.984,-0.32903125,-0.01865625,1.2552812500000001,0.01870322107461636,0.025138011207433808,True
2158,43939,0,43940,3680.0,37696.0,28258.0,0.026657,-0.007503,0.001647,-0.28,-7.192500000000001,-3.3600000000000003,1.0056875,0.12915625,0.57734375,1.278875,0.97746875,-0.330125,-0.0214375,1.25584375,0.018877060845351186,0.024926953268304613,True
2159,43940,0,43941,3680.0,37694.0,28259.0,0.015189,-0.012749,0.004575,-0.6475000000000001,-4.952500000000001,-3.7625,1.0015625,0.13359375,0.5830625,1.2708125000000001,0.97609375,-0.32846875000000003,-0.02753125,1.26190625,0.018992666770283273,0.025412254952326827,True
2160,43941,0,43942,3682.0,37693.0,28258.0,0.008845,-0.009882,0.00488,-0.4025,-2.6950000000000003,-4.0075,1.01434375,0.1268125,0.582875,1.2754375,0.9754375000000001,-0.328,-0.02628125,1.2550625,0.01869502219664584,0.02535374674347492,True
2161,43942,0,43943,3680.0,37694.0,28259.0,-0.005429,-0.0028669999999999998,0.002257,0.3325,-0.42000000000000004,-4.1825,1.0136875,0.13278125,0.58446875,1.2629375,0.9769375,-0.32865625,-0.02428125,1.2606875,0.01896683052521653,0.025338947445097862,True
2162,43943,0,43944,3682.0,37696.0,28262.0,-0.024888,0.0077469999999999995,0.003172,1.155,2.8875,-4.322500000000001,1.0169062500000001,0.1289375,0.5835,1.27159375,0.9819687500000001,-0.32834375,-0.02403125,1.26159375,0.018796234330584055,0.02528848067494917,True
2163,43944,0,43945,3682.0,37700.0,28261.0,-0.023241,0.005612,0.0013419999999999999,0.9800000000000001,3.5525,-4.1825,1.01075,0.1296875,0.58109375,1.275625,0.98384375,-0.33065625,-0.02378125,1.24865625,0.018920317860312542,0.025178176312273905,True
2164,43945,0,43946,3682.0,37700.0,28260.0,-0.020984,0.000549,0.0035989999999999998,0.5950000000000001,3.7975000000000003,-4.112500000000001,1.01103125,0.13221875,0.5836250000000001,1.26503125,0.97590625,-0.32406250000000003,-0.0243125,1.247625,0.018758431080334547,0.025305094578669005,True
2165,43946,0,43947,3681.0,37697.0,28262.0,-0.016774999999999998,-0.002989,0.0025009999999999998,0.385,3.7625,-3.9725000000000006,1.00825,0.132875,0.5824375,1.2709375,0.979625,-0.33184375,-0.02634375,1.2638125,0.019099199993835237,0.025338072922560267,True
2166,43947,0,43948,3682.0,37698.0,28263.0,-0.014945,-0.00122,0.001403,0.5425000000000001,3.6050000000000004,-3.8500000000000005,1.0148125000000001,0.130375,0.58046875,1.27409375,0.9804375000000001,-0.32865625,-0.02384375,1.25565625,0.018867924528301886,0.025154696570984816,True
2167,43948,0,43949,3684.0,37698.0,28265.0,-0.007442,0.007808,-0.00122,1.05,2.5900000000000003,-4.077500000000001,1.0089375,0.13259375,0.5836875,1.2725625,0.97603125,-0.32875,-0.017781250000000002,1.2554375,0.018962903971638495,0.0250426441867939,True
2168,43949,0,43950,3683.0,37701.0,28267.0,-0.004209,0.0070149999999999995,0.000793,0.8750000000000001,1.8200000000000003,-4.130000000000001,1.00740625,0.13196875,0.58346875,1.271625,0.98178125,-0.32875,-0.025906250000000002,1.261625,0.01893721420130504,0.02536324722402511,True
2169,43950,0,43951,3682.0,37702.0,28266.0,-0.0028669999999999998,0.0015249999999999999,0.002196,0.31500000000000006,1.0325000000000002,-4.025,1.0088125000000001,0.13165625,0.58321875,1.2786875,0.9813125,-0.3306875,-0.02484375,1.2611875000000001,0.019002494278059345,0.025309737966558058,True
2170,43951,0,43952,3682.0,37699.0,28264.0,-0.0028669999999999998,-0.008479,0.0055509999999999995,-0.15750000000000003,0.47250000000000003,-3.8500000000000005,1.01396875,0.12959375,0.58209375,1.2720625,0.9697187500000001,-0.32837500000000003,-0.0234375,1.2549375,0.0188244693696147,0.025205853658536583,True
2171,43952,0,43953,3682.0,37697.0,28265.0,-0.002013,-0.011895,0.00244,-0.4025,-0.14,-3.7975000000000003,1.0090625,0.1320625,0.58425,1.27203125,0.97640625,-0.330125,-0.0231875,1.2599375,0.018996511526348507,0.02528546638534125,True
2172,43953,0,43954,3683.0,37698.0,28263.0,0.008967,-0.0077469999999999995,0.000244,-0.22750000000000004,-1.2775,-3.6400000000000006,1.00996875,0.12909375,0.58196875,1.271375,0.98346875,-0.323875,-0.02315625,1.2552812500000001,0.018622392608085677,0.02518923798782685,True
2173,43954,0,43955,3683.0,37699.0,28265.0,0.013908,-0.000183,-0.003904,0.08750000000000001,-1.3825,-3.7975000000000003,1.0098125,0.132125,0.5835312500000001,1.2750625,0.96759375,-0.33153125,-0.024875,1.26284375,0.01905577767531585,0.025324013132222333,True
2174,43955,0,43956,3681.0,37699.0,28265.0,0.0183,0.008296,-0.006588,0.6825000000000001,-1.2425000000000002,-3.9375000000000004,1.01646875,0.1311875,0.582375,1.27728125,0.9729375,-0.3281875,-0.02209375,1.25565625,0.01888241777156642,0.02516303350951663,True
2175,43956,0,43957,3681.0,37701.0,28265.0,0.013603,0.013663999999999999,-0.003721,1.05,-0.7875000000000001,-3.6575,1.0135,0.1328125,0.58834375,1.2716875,0.96646875,-0.32903125,-0.0233125,1.259125,0.01898323633416353,0.025460945487846443,True
2176,43957,0,43958,3680.0,37703.0,28266.0,0.005063,0.012688,0.000915,1.1025,-0.21000000000000002,-3.5875000000000004,1.00859375,0.13225,0.58259375,1.2759375,0.981125,-0.330625,-0.0245625,1.25575,0.01902437771327288,0.025272312451059206,True
2177,43958,0,43959,3682.0,37701.0,28266.0,-0.0006709999999999999,-0.001037,-0.002379,0.5950000000000001,0.035,-3.6575,1.01278125,0.1320625,0.5846875,1.2730937500000001,0.96984375,-0.32853125,-0.021937500000000002,1.25421875,0.018932246475010694,0.025252958883936822,True
2178,43959,0,43960,3681.0,37703.0,28264.0,-0.005978,-0.0051849999999999995,-0.002806,0.47250000000000003,0.2625,-3.6050000000000004,1.00240625,0.13203125,0.58525,1.27209375,0.9761875,-0.32878125,-0.02303125,1.255875,0.0189410433373024,0.02532075339160207,True
2179,43960,0,43961,3681.0,37703.0,28267.0,-0.013725,-0.007137,-0.001464,0.385,0.36750000000000005,-3.6400000000000006,1.00321875,0.1328125,0.584875,1.27246875,0.9762500000000001,-0.32946875000000003,-0.02525,1.26134375,0.019000877279739207,0.025395157178385242,True
2180,43961,0,43962,3681.0,37702.0,28268.0,-0.014029999999999999,-0.008235,0.0021349999999999997,0.2625,0.5075000000000001,-3.6050000000000004,1.00925,0.1319375,0.58540625,1.273125,0.98321875,-0.33109375,-0.02371875,1.2625,0.019030433023587357,0.025355150313687385,True
2181,43962,0,43963,3681.0,37701.0,28268.0,-0.010309,-0.008723,0.00366,0.10500000000000001,0.47250000000000003,-3.7100000000000004,1.01378125,0.13153125000000002,0.5845312500000001,1.27515625,0.98209375,-0.32753125,-0.0224375,1.25553125,0.018870081607643606,0.025266742810757654,True
2182,43963,0,43964,3682.0,37700.0,28265.0,-0.0023179999999999997,0.002806,0.004392,0.49000000000000005,0.4025,-3.6750000000000003,1.0128125000000001,0.13165625,0.58409375,1.2786250000000001,0.9755,-0.32765625,-0.02040625,1.254,0.01888026101980128,0.025166102259407037,True
2183,43964,0,43965,3681.0,37700.0,28267.0,0.001952,0.010003999999999999,-0.000549,1.0325000000000002,-0.15750000000000003,-3.5175000000000005,1.00871875,0.13346875,0.58578125,1.26546875,0.95925,-0.330125,-0.02359375,1.26621875,0.01905431024296012,0.02536568867844762,True
2184,43965,0,43966,3681.0,37704.0,28267.0,0.008601,0.014761999999999999,-0.001281,1.2950000000000002,-0.5950000000000001,-3.4475000000000002,0.995125,0.131625,0.5789062500000001,1.2833125,0.9826875,-0.33165625,-0.02125,1.24415625,0.019040267758180247,0.02498438882239684,True
2185,43966,0,43967,3682.0,37702.0,28270.0,0.00915,0.011163,0.000305,1.1725,-0.8575,-3.4475000000000002,1.00215625,0.13278125,0.58540625,1.2986875,0.9731562500000001,-0.3321875,-0.02503125,1.26628125,0.01910920462864262,0.025408395670661197,True
2186,43967,0,43968,3682.0,37703.0,28269.0,0.0055509999999999995,0.000305,-0.0023179999999999997,0.49000000000000005,-1.155,-3.535,1.02678125,0.13640625,0.59,1.26325,0.9768125,-0.3285,-0.02078125,1.25284375,0.019109532030334796,0.02542720170685539,True
2187,43968,0,43969,3684.0,37703.0,28271.0,0.000122,-0.012627,-0.002806,-0.10500000000000001,-1.1725,-3.4125000000000005,1.02634375,0.124375,0.5766875,1.283875,0.98903125,-0.3289375,-0.0249375,1.2530937500000001,0.01863264682232835,0.025041688453924182,True
2188,43969,0,43970,3682.0,37702.0,28271.0,0.001464,-0.008845,-0.00244,0.17500000000000002,-0.6825000000000001,-3.3775000000000004,0.9975625,0.13521875,0.58828125,1.26446875,0.973375,-0.32809375,-0.02234375,1.25446875,0.01904434045515794,0.025419043468645725,True
2189,43970,0,43971,3682.0,37702.0,28271.0,0.000915,-0.0018909999999999999,-0.000488,0.45500000000000007,-0.15750000000000003,-3.4125000000000005,1.004375,0.12925,0.57421875,1.28559375,0.9765,-0.33403125,-0.0275625,1.2595625,0.019038409429181613,0.025045455609573383,True
2190,43971,0,43972,3683.0,37703.0,28269.0,-0.00061,0.001952,0.0018909999999999999,0.7525000000000001,0.43750000000000006,-3.43,1.00415625,0.1401875,0.5890625,1.27346875,0.9707187500000001,-0.32690625,-0.0225625,1.2630937500000001,0.01920070498072479,0.02546043953470826,True
2191,43972,0,43973,3682.0,37702.0,28270.0,0.000122,0.003721,0.002745,0.7175,1.0150000000000001,-3.4650000000000003,1.021375,0.11965625,0.5769375,1.281875,0.9872500000000001,-0.33290625,-0.02396875,1.25296875,0.018598785338270064,0.025012780205185704,True
2192,43973,0,43974,3683.0,37700.0,28266.0,0.0035989999999999998,0.001281,-0.0026839999999999998,0.47250000000000003,1.4700000000000002,-3.6225000000000005,1.00171875,0.13625,0.58696875,1.27034375,0.9728125,-0.32256250000000003,-0.023125,1.26103125,0.018863657971893384,0.02539610271353123,True
2193,43974,0,43975,3683.0,37699.0,28261.0,0.0018909999999999999,0.004209,-0.0034159999999999998,0.6475000000000001,1.7500000000000002,-3.535,1.0183125,0.1218125,0.5849375,1.27378125,0.98121875,-0.33046875000000003,-0.02140625,1.2555,0.01858908904087596,0.025241809063530574,True
2194,43975,0,43976,3679.0,37697.0,28257.0,-0.005124,0.005307,-6.1e-05,0.805,2.2750000000000004,-3.5525,0.9858750000000001,0.13575,0.58765625,1.27221875,0.9765312500000001,-0.3291875,-0.0231875,1.2621875,0.01911027649402595,0.025427256478766612,True
2195,43976,0,43977,3679.0,37697.0,28256.0,-0.011224,0.00244,0.001403,0.7875000000000001,2.2750000000000004,-3.7625,1.02678125,0.129125,0.5894375000000001,1.26565625,0.98509375,-0.3281875,-0.021375,1.2565,0.018797639569326733,0.025427874132933695,True
2196,43977,0,43978,3677.0,37699.0,28253.0,-0.008784,-0.002562,-0.0018909999999999999,0.385,1.995,-3.6750000000000003,1.00059375,0.1310625,0.5820625,1.27528125,0.9786875,-0.32959375,-0.023375,1.256125,0.018933988571017548,0.025202016785734728,True
2197,43978,0,43979,3674.0,37696.0,28248.0,-0.0075639999999999995,-0.0055509999999999995,0.000488,0.0175,1.715,-3.6400000000000006,1.00778125,0.132375,0.58721875,1.272,0.97565625,-0.3253125,-0.02396875,1.26396875,0.018815277296026518,0.025440738221073483,True
2198,43979,0,43980,3672.0,37695.0,28247.0,-0.011651,-0.005307,0.004697,0.24500000000000002,1.54,-3.43,1.01146875,0.13303125,0.58815625,1.27371875,0.98321875,-0.32865625,-0.021125,1.25525,0.018977106472947924,0.025364392800087423,True
2199,43980,0,43981,3670.0,37694.0,28246.0,-0.008723,-0.002196,0.007686,0.36750000000000005,0.9100000000000001,-3.43,1.009125,0.13971875,0.58634375,1.2719375,0.9759375,-0.32978125,-0.0225,1.262875,0.019297337496612308,0.025344728899989594,True
2200,43981,0,43982,3666.0,37693.0,28243.0,0.002196,0.000244,0.005612,0.35000000000000003,-0.08750000000000001,-3.6400000000000006,1.0089375,0.13059375,0.58615625,1.27771875,0.98253125,-0.32940625,-0.02046875,1.2554687500000001,0.018907160958767745,0.02525450299549213,True
2201,43982,0,43983,3665.0,37694.0,28242.0,0.010675,0.0064659999999999995,-0.002196,0.47250000000000003,-0.7350000000000001,-3.7625,1.01475,0.13509375,0.58609375,1.272,0.96921875,-0.32871875,-0.0211875,1.25884375,0.01906440305246243,0.02528106697472804,True
2202,43983,0,43984,3663.0,37695.0,28241.0,0.0034159999999999998,0.008235,-0.001464,0.7525000000000001,-0.24500000000000002,-3.6750000000000003,1.00896875,0.13265625,0.5854375,1.27828125,0.98371875,-0.32940625,-0.0211875,1.25525,0.018991934914153526,0.02525374734284057,True
2203,43984,0,43985,3661.0,37698.0,28241.0,0.0008539999999999999,0.0071979999999999995,-0.000488,0.7525000000000001,-0.24500000000000002,-3.5700000000000003,1.01478125,0.13,0.585125,1.2790000000000001,0.9758125,-0.32875,-0.0194375,1.24778125,0.018856291424754663,0.02516971931586658,True
2204,43985,0,43986,3658.0,37697.0,28240.0,0.003477,0.0030499999999999998,-0.001403,0.5425000000000001,-0.5425000000000001,-3.6575,1.01478125,0.13178125000000002,0.58703125,1.27221875,0.97546875,-0.32859375,-0.01728125,1.25684375,0.018923206360827987,0.025161569859202947,True
2205,43986,0,43987,3657.0,37695.0,28240.0,0.005673,-0.003843,-0.0028669999999999998,0.14,-0.8750000000000001,-3.7625,1.0090937500000001,0.13253125,0.5874375000000001,1.2729062500000001,0.978375,-0.3264375,-0.02284375,1.2619375,0.018867076200532854,0.02540420511206131,True
2206,43987,0,43988,3658.0,37693.0,28238.0,0.0006709999999999999,-0.007808,-0.004026,-0.08750000000000001,-0.385,-3.9025000000000003,1.015375,0.13003125000000001,0.58546875,1.27596875,0.9625312500000001,-0.3273125,-0.02009375,1.2550625,0.018799600243553413,0.025210663467955863,True
2207,43988,0,43989,3655.0,37695.0,28240.0,-0.0018909999999999999,-0.0055509999999999995,6.1e-05,0.1925,0.12250000000000001,-3.9200000000000004,1.0124375,0.131125,0.58559375,1.277625,0.9720625,-0.329125,-0.02021875,1.2550625,0.018917655279423323,0.025220940171496144,True
2208,43989,0,43990,3655.0,37694.0,28240.0,-0.003965,-0.001403,0.001464,0.4025,0.45500000000000007,-4.0075,1.0146875,0.13121875,0.58734375,1.27859375,0.97603125,-0.32840625,-0.02053125,1.25478125,0.01889252404275352,0.025306476100523383,True
2209,43990,0,43991,3654.0,37695.0,28242.0,-0.004026,0.0018909999999999999,0.003111,0.6475000000000001,0.5775,-4.130000000000001,1.01325,0.1299375,0.58675,1.2785312500000001,0.97496875,-0.3285625,-0.02034375,1.255875,0.01884616076268378,0.025274149126196414,True
2210,43991,0,43992,3653.0,37696.0,28242.0,-0.00244,0.005673,0.0021349999999999997,0.5950000000000001,0.6125,-4.1475,1.0151875000000001,0.13325,0.58734375,1.2741875,0.9753125,-0.32384375,-0.02109375,1.2550000000000001,0.018792003217008,0.02532930041955313,True
2211,43992,0,43993,3652.0,37698.0,28244.0,-0.002013,0.0034159999999999998,-0.0013419999999999999,0.77,0.47250000000000003,-3.7100000000000004,1.0094375,0.13471875,0.58725,1.27003125,0.97621875,-0.32884375,-0.02071875,1.2473125,0.019054029232277017,0.0253101814449245,True
2212,43993,0,43994,3653.0,37697.0,28245.0,-0.0013419999999999999,0.001037,0.0,0.5775,0.12250000000000001,-3.8325000000000005,1.008625,0.13225,0.584875,1.27721875,0.98128125,-0.3301875,-0.021531250000000002,1.25578125,0.019006738028632127,0.02524427954608431,True
2213,43994,0,43995,3652.0,37698.0,28246.0,-0.000732,-0.001647,-0.006954,0.42000000000000004,-0.22750000000000004,-3.9725000000000006,1.0156875,0.13293750000000001,0.5873125,1.2714375,0.97646875,-0.3281875,-0.01953125,1.2593125,0.01895435079164858,0.025264595869247033,True
2214,43995,0,43996,3652.0,37695.0,28247.0,0.0068319999999999995,-0.0011589999999999999,-0.005429,0.0,-0.35000000000000003,-4.2175,1.0014375,0.13278125,0.5863125,1.26428125,0.9815625,-0.33028125,-0.0221875,1.2610937500000001,0.01903235294495414,0.02533074891701682,True
2215,43996,0,43997,3653.0,37696.0,28245.0,0.000915,-0.000122,-0.0053679999999999995,0.17500000000000002,-0.07,-4.2875000000000005,1.00965625,0.1373125,0.58634375,1.273875,0.984,-0.33078125,-0.02115625,1.25753125,0.019238747214498097,0.02529020641960147,True
2216,43997,0,43998,3653.0,37697.0,28247.0,-0.010735999999999999,-0.0048189999999999995,0.008723,0.08750000000000001,0.9100000000000001,-3.8675,1.01565625,0.129625,0.58478125,1.2769062500000001,0.96675,-0.32934375,-0.02034375,1.25621875,0.018864822443063225,0.025192187351606908,True
2217,43998,0,43999,3653.0,37697.0,28247.0,-0.005246,-0.0057339999999999995,0.008357,-0.052500000000000005,0.42000000000000004,-3.99,1.0155625,0.12821875,0.5913125,1.2771875,0.97596875,-0.328625,-0.01615625,1.2403125,0.01877803410591433,0.025294170460770548,True
2218,43999,0,44000,3652.0,37696.0,28245.0,0.000793,-0.003904,0.006527,-0.14,0.15750000000000003,-4.077500000000001,1.013125,0.13196875,0.58715625,1.2693125,0.97121875,-0.325875,-0.0114375,1.2545625,0.018821265422107117,0.024929525772873867,True
2219,44000,0,44001,3653.0,37695.0,28246.0,0.002623,6.1e-05,0.0013419999999999999,0.07,-0.052500000000000005,-4.2,1.009375,0.13278125,0.58746875,1.27234375,0.97896875,-0.3359375,-0.02403125,1.26,0.01926035313001605,0.025453679844010358,True
2220,44001,0,44002,3652.0,37694.0,28245.0,0.005978,0.0059169999999999995,-0.002989,0.525,0.0175,-4.112500000000001,1.009125,0.13265625,0.5863125,1.27259375,0.994125,-0.33371875,-0.021843750000000002,1.25796875,0.019165792322638726,0.02531680150488033,True
2221,44002,0,44003,3651.0,37696.0,28246.0,0.000366,0.0062829999999999995,-0.00366,0.56,0.8225000000000001,-3.8150000000000004,1.01196875,0.1294375,0.58396875,1.27615625,0.9694375000000001,-0.3265,-0.017937500000000002,1.25225,0.01874242081680472,0.025060696822947436,True
2222,44003,0,44004,3650.0,37697.0,28246.0,-0.0025009999999999998,-0.001037,-0.002623,0.14,0.9275000000000001,-3.9375000000000004,1.012625,0.132875,0.58709375,1.27165625,0.97578125,-0.332,-0.0180625,1.2649062500000001,0.0191054989314483,0.02519588122480737,True
2223,44004,0,44005,3651.0,37697.0,28245.0,-0.00244,-0.006771,-0.003721,-0.1925,0.77,-3.9025000000000003,1.00715625,0.13,0.58403125,1.27275,0.97371875,-0.32653125,-0.017875000000000002,1.2531875000000001,0.018766804247934032,0.02506076203660815,True
2224,44005,0,44006,3651.0,37697.0,28244.0,-0.00122,-0.007259,-0.0023179999999999997,-0.10500000000000001,0.45500000000000007,-4.0075,1.0089375,0.13246875,0.58675,1.2786875,0.98353125,-0.33340625,-0.02215625,1.239125,0.019145490574300508,0.025347693340392788,True
2225,44006,0,44007,3650.0,37696.0,28244.0,-0.000915,-0.0030499999999999998,-0.0011589999999999999,0.15750000000000003,0.2625,-4.077500000000001,1.0147187500000001,0.13075,0.5866250000000001,1.26171875,0.96903125,-0.32828125,-0.024875,1.26525,0.018868215361494144,0.02545278591459893,True
2226,44007,0,44008,3648.0,37694.0,28245.0,0.000183,0.003477,0.003538,0.5425000000000001,-0.36750000000000005,-3.9200000000000004,1.0148125000000001,0.13146875,0.5864375000000001,1.26465625,0.97265625,-0.3271875,-0.0201875,1.264,0.018853648823975232,0.0252547986979702,True
2227,44008,0,44009,3652.0,37695.0,28245.0,-0.000549,0.005307,0.00183,0.47250000000000003,-0.7175,-4.025,1.00846875,0.13175,0.58525,1.26896875,0.989375,-0.33228125000000003,-0.02025,1.2495625000000001,0.019070601939553036,0.025207897503148387,True
2228,44009,0,44010,3649.0,37696.0,28244.0,-0.00793,0.0026839999999999998,0.0023179999999999997,0.6300000000000001,-0.7525000000000001,-3.8150000000000004,1.01540625,0.1338125,0.58896875,1.27059375,0.9716875,-0.3274375,-0.02296875,1.26015625,0.01896007337394249,0.025473017359688318,True
2229,44010,0,44011,3649.0,37698.0,28245.0,-0.0064659999999999995,0.002013,0.0028669999999999998,0.5075000000000001,-0.8750000000000001,-3.5000000000000004,1.01025,0.130125,0.585375,1.27246875,0.9746875,-0.32890625,-0.01990625,1.2556875,0.018867730644487976,0.02519915122483045,True
2230,44011,0,44012,3649.0,37695.0,28245.0,-0.0008539999999999999,-0.000793,0.00122,0.24500000000000002,-1.0325000000000002,-3.3600000000000003,1.0086875,0.13025,0.589125,1.27684375,0.9823125,-0.32840625,-0.02003125,1.255125,0.018852704336109152,0.025360343775572735,True
2231,44012,0,44013,3651.0,37697.0,28244.0,0.0048189999999999995,-0.0030499999999999998,-0.001281,0.08750000000000001,-1.05,-3.5525,1.00859375,0.13265625,0.59075,1.27203125,0.9756250000000001,-0.3248125,-0.02403125,1.2501875,0.018806671171668846,0.025590261834179055,True
2232,44013,0,44014,3647.0,37697.0,28246.0,0.0046359999999999995,-0.002013,-0.0018909999999999999,0.08750000000000001,-0.56,-3.7100000000000004,1.0151875000000001,0.13259375,0.5913437500000001,1.27346875,0.98053125,-0.32878125,-0.02134375,1.26371875,0.01896416410090415,0.02550596279610711,True
2233,44014,0,44015,3649.0,37696.0,28246.0,0.003172,0.000366,-0.0021349999999999997,0.1925,-0.24500000000000002,-3.8150000000000004,1.0131875000000001,0.13175,0.5875625,1.271875,0.97603125,-0.3283125,-0.021375,1.2573750000000001,0.01891058000837502,0.0253498186510972,True
2234,44015,0,44016,3648.0,37695.0,28245.0,-0.000366,0.0008539999999999999,-0.00122,0.31500000000000006,-0.0175,-4.095000000000001,1.0086875,0.131625,0.58634375,1.27153125,0.9839687500000001,-0.33103125,-0.015875,1.25565625,0.019015069490735212,0.02507586127925799,True
2235,44016,0,44017,3650.0,37695.0,28246.0,-0.003477,-0.000549,-0.001647,0.22750000000000004,-0.12250000000000001,-4.305000000000001,1.008875,0.132625,0.58490625,1.2785,0.98,-0.3305,-0.0230625,1.254625,0.019034750621647726,0.025307712120384313,True
2236,44017,0,44018,3650.0,37696.0,28249.0,-0.003538,-0.0011589999999999999,-0.001647,0.17500000000000002,-0.8750000000000001,-4.515000000000001,0.99925,0.13290625,0.5871875,1.2805312500000001,0.9763437500000001,-0.3298125,-0.021812500000000002,1.259875,0.0190185908748783,0.025351958766641775,True
2237,44018,0,44019,3651.0,37697.0,28247.0,-0.000366,-0.001647,0.000915,0.052500000000000005,-1.0850000000000002,-4.4275,1.01596875,0.13540625,0.58684375,1.2796875,0.975875,-0.32859375,-0.02428125,1.26275,0.019072207985716398,0.02543780576161878,True
2238,44019,0,44020,3651.0,37695.0,28250.0,-0.003172,-0.0035989999999999998,0.0042699999999999995,0.0,-1.2600000000000002,-4.340000000000001,1.01803125,0.136,0.58846875,1.2705625,0.9761562500000001,-0.32840625,-0.021375,1.254125,0.019089053562643465,0.02538754546731817,True
2239,44020,0,44021,3652.0,37696.0,28249.0,-0.004331,-0.001586,0.00488,0.07,-1.4700000000000002,-4.340000000000001,1.0069062500000001,0.13375,0.58725,1.2710937500000001,0.9763125,-0.330125,-0.02309375,1.26353125,0.01906586998628244,0.025406542402557956,True
2240,44021,0,44022,3652.0,37695.0,28249.0,0.000488,0.0018909999999999999,0.002379,0.35000000000000003,-2.1175,-4.305000000000001,1.01965625,0.12671875,0.5845312500000001,1.2815625,0.980375,-0.32840625,-0.0200625,1.2553125,0.018707555082857104,0.025170365397675382,True
2241,44022,0,44023,3654.0,37697.0,28251.0,0.0032329999999999998,0.009455,-0.004026,0.7525000000000001,-2.8175000000000003,-4.2700000000000005,1.01721875,0.12959375,0.58765625,1.26984375,0.97503125,-0.32840625,-0.02078125,1.2555625000000001,0.01882572969612426,0.025329629942822948,True
2242,44023,0,44024,3653.0,37698.0,28252.0,0.0030499999999999998,0.007076,-0.003477,0.7350000000000001,-3.1675000000000004,-4.165,1.00653125,0.13321875,0.5858125,1.2758125,0.977125,-0.331125,-0.02465625,1.25725,0.01908435183329994,0.02541009301641933,True
2243,44024,0,44025,3654.0,37697.0,28252.0,0.0028669999999999998,0.003965,-0.0030499999999999998,0.49000000000000005,-3.3775000000000004,-3.99,1.01428125,0.12859375,0.5825312500000001,1.2719375,0.9748125,-0.32865625,-0.021875000000000002,1.25515625,0.018794708400715718,0.025160660855990634,True
2244,44025,0,44026,3654.0,37697.0,28253.0,0.0037819999999999998,-0.00042699999999999997,-0.000366,0.17500000000000002,-3.5175000000000005,-3.8675,1.00578125,0.1325,0.586875,1.26959375,0.97571875,-0.32975,-0.022,1.26096875,0.01899937319536781,0.02534655732245442,True
2245,44026,0,44027,3654.0,37696.0,28253.0,0.005307,-0.005246,0.000488,-0.0175,-3.7625,-3.7800000000000002,1.00525,0.13165625,0.58384375,1.284875,0.9793125,-0.33025,-0.02228125,1.260125,0.018984854245229704,0.025231783513482927,True
2246,44027,0,44028,3654.0,37698.0,28252.0,0.0025009999999999998,-0.005246,0.00061,0.17500000000000002,-3.5875000000000004,-3.8675,1.0191875,0.129375,0.58734375,1.27015625,0.9760625,-0.32846875000000003,-0.021375,1.25603125,0.018819258815867726,0.02534071217821628,True
2247,44028,0,44029,3652.0,37694.0,28249.0,0.0026839999999999998,-0.002013,-0.000366,0.29750000000000004,-3.6575,-4.1475,1.0069062500000001,0.132625,0.59128125,1.27709375,0.97884375,-0.32978125,-0.022,1.25903125,0.019005770962285163,0.02552998293231205,True
2248,44029,0,44030,3653.0,37692.0,28246.0,0.003355,0.0,-0.001037,0.42000000000000004,-3.4125000000000005,-4.0600000000000005,1.01646875,0.12946875,0.5911875,1.27540625,0.9765312500000001,-0.32896875000000003,-0.0205,1.25571875,0.018843277111776472,0.025465227618076226,True
2249,44030,0,44031,3654.0,37692.0,28242.0,0.002013,0.00122,0.002257,0.42000000000000004,-3.0975,-3.9375000000000004,1.0072812500000001,0.132375,0.58765625,1.27190625,0.97665625,-0.32865625,-0.014125,1.25984375,0.01895013211015302,0.025059470207638216,True
2250,44031,0,44032,3651.0,37691.0,28238.0,-0.000366,0.000549,0.0044529999999999995,0.35000000000000003,-2.5025000000000004,-3.8500000000000005,1.010375,0.13140625,0.58375,1.277125,0.9811562500000001,-0.33140625,-0.012968750000000001,1.25503125,0.01902119816851934,0.02484985326939219,True
2251,44032,0,44033,3650.0,37692.0,28234.0,-0.0034159999999999998,-0.000305,0.000305,0.45500000000000007,-2.0475000000000003,-3.8675,1.01403125,0.1296875,0.5898125,1.2728125000000001,0.97196875,-0.32825,-0.01996875,1.2474687500000001,0.01882328157594566,0.025386429780430084,True
2252,44033,0,44034,3648.0,37689.0,28230.0,0.000549,0.000183,-0.0040869999999999995,0.3325,-1.9775000000000003,-3.8850000000000002,1.0085,0.13225,0.5886875,1.27175,0.97740625,-0.32996875000000003,-0.0265,1.27559375,0.018997917948414957,0.02560454081951179,True
2253,44034,0,44035,3644.0,37690.0,28226.0,-0.000915,-0.0015249999999999999,-0.0051849999999999995,0.17500000000000002,-1.7500000000000002,-3.9375000000000004,1.01121875,0.1310625,0.59065625,1.27721875,0.9731875,-0.326375,-0.01675,1.2431875000000001,0.018804178592165915,0.025290942779518464,True
2254,44035,0,44036,3644.0,37688.0,28225.0,-0.002562,-0.0017079999999999999,-0.003843,0.1925,-1.4525000000000001,-4.0075,1.008625,0.1328125,0.5884375000000001,1.270375,0.9964375,-0.33509375,-0.021531250000000002,1.24475,0.019227632932377753,0.025392583996909027,True
2255,44036,0,44037,3640.0,37686.0,28225.0,-0.002806,-0.000122,-0.000488,0.24500000000000002,-1.5575,-4.165,1.01434375,0.13196875,0.5893125,1.27165625,0.96325,-0.3319375,-0.02925,1.27546875,0.01906573407892405,0.025742064359062393,True
2256,44037,0,44038,3638.0,37687.0,28224.0,-0.0021349999999999997,0.0035989999999999998,0.005063,0.5075000000000001,-1.8725000000000003,-4.3925,1.00859375,0.13146875,0.58725,1.2720625,0.985375,-0.3248125,-0.0165625,1.27796875,0.018757852706983866,0.02514150391006207,True
2257,44038,0,44039,3636.0,37687.0,28221.0,-0.0032329999999999998,0.001647,0.003538,0.31500000000000006,-2.24,-4.515000000000001,1.0060625,0.12915625,0.58675,1.27225,0.98265625,-0.32146875,-0.0170625,1.26375,0.018527869539128883,0.025140980500841847,True
2258,44039,0,44040,3634.0,37688.0,28222.0,-0.000915,-0.001952,0.002074,0.08750000000000001,-2.4850000000000003,-4.3925,0.99675,0.13315625,0.58928125,1.2786875,0.9904375,-0.33834375,-0.02059375,1.2454375,0.019372723339072737,0.025389672143304117,True
2259,44040,0,44041,3632.0,37684.0,28219.0,-0.00122,-0.004026,-0.000122,-0.07,-2.6950000000000003,-4.130000000000001,1.0163125,0.13303125,0.58928125,1.27203125,0.96340625,-0.3300625,-0.021906250000000002,1.27996875,0.019033808482818323,0.025442922540753816,True
2260,44041,0,44042,3630.0,37683.0,28218.0,0.001769,-0.0028669999999999998,-0.002989,0.0175,-2.87,-4.0075,1.0013125,0.12859375,0.5889375,1.2750625,0.98903125,-0.32565625,-0.014625,1.24,0.018673699707484767,0.02513312200377895,True
2261,44042,0,44043,3629.0,37685.0,28219.0,0.0011589999999999999,0.002928,-0.00122,0.525,-3.3600000000000003,-3.8500000000000005,1.0083125,0.1328125,0.5900625,1.27121875,0.98290625,-0.33859375,-0.02646875,1.2698125,0.019368672440247293,0.02566050202446001,True
2262,44043,0,44044,3628.0,37684.0,28219.0,0.002745,0.005856,-0.0015249999999999999,0.7000000000000001,-3.6575,-3.9200000000000004,1.0120625,0.130125,0.5875,1.27390625,0.9823437500000001,-0.32490625,-0.014687500000000001,1.248,0.018706392753312255,0.02507579996616654,True
2263,44044,0,44045,3628.0,37682.0,28222.0,0.003172,0.0046359999999999995,0.000305,0.525,-4.0075,-4.025,0.99925,0.13221875,0.58946875,1.27278125,0.97484375,-0.3303125,-0.0184375,1.25871875,0.01901049359723596,0.025309983216018943,True
2264,44045,0,44046,3628.0,37686.0,28222.0,0.001586,0.00183,0.00244,0.36750000000000005,-4.112500000000001,-4.0600000000000005,1.00834375,0.13290625,0.5900625,1.272375,0.977375,-0.328,-0.01896875,1.2555,0.018945505179217365,0.02535626139236307,True
2265,44046,0,44047,3625.0,37685.0,28223.0,0.002257,-0.0062829999999999995,-0.000305,0.08750000000000001,-4.3925,-4.130000000000001,1.00975,0.1324375,0.58925,1.272375,0.97340625,-0.32984375,-0.0186875,1.243,0.01900058441600144,0.025311020845747715,True
2266,44047,0,44048,3628.0,37685.0,28223.0,0.003294,-0.0066489999999999995,0.0,-0.24500000000000002,-4.4275,-4.0600000000000005,1.0094375,0.13209375,0.58696875,1.276,0.9833125,-0.33071875,-0.02040625,1.2590000000000001,0.01902173564025929,0.02528579215849024,True
2267,44048,0,44049,3627.0,37687.0,28224.0,0.00488,-0.003904,-0.0011589999999999999,-0.035,-3.99,-4.077500000000001,1.013875,0.13265625,0.58940625,1.2723125,0.9753125,-0.32921875,-0.01840625,1.25721875,0.018984374498256344,0.02530611288998411,True
2268,44049,0,44050,3626.0,37685.0,28224.0,0.004026,0.0008539999999999999,-0.00042699999999999997,0.08750000000000001,-3.4125000000000005,-4.130000000000001,1.0121875,0.13178125000000002,0.5896875,1.27134375,0.9825,-0.32871875,-0.017843750000000002,1.2525,0.018928247094804368,0.025294995517655496,True
2269,44050,0,44051,3627.0,37685.0,28223.0,0.00061,0.00244,0.001586,0.28,-2.9925,-4.2175,1.00915625,0.13046875,0.58978125,1.275875,0.9844375,-0.3301875,-0.017781250000000002,1.25603125,0.01893352650899217,0.025296362460624878,True
2270,44051,0,44052,3628.0,37685.0,28224.0,0.003721,0.001098,0.001769,0.29750000000000004,-2.6950000000000003,-4.322500000000001,1.00071875,0.13259375,0.58940625,1.27875,0.97596875,-0.3289375,-0.021500000000000002,1.2605,0.018970464698674163,0.025431644568407467,True
2271,44052,0,44053,3628.0,37685.0,28225.0,0.002562,0.000732,0.000915,0.1925,-2.5200000000000005,-4.375,1.01484375,0.1323125,0.59328125,1.27221875,0.97521875,-0.3288125,-0.018000000000000002,1.2610000000000001,0.018953863859980834,0.025450963860438006,True
2272,44053,0,44054,3627.0,37685.0,28226.0,0.003904,-0.000366,-0.000366,0.15750000000000003,-2.345,-4.2700000000000005,1.0120625,0.12928125000000001,0.59428125,1.26446875,0.9833125,-0.33159375,-0.0154375,1.25484375,0.018941422610263662,0.025388617217570988,True
2273,44054,0,44055,3628.0,37686.0,28227.0,-0.000305,-0.0008539999999999999,-0.0051849999999999995,0.2625,-2.1525000000000003,-4.2700000000000005,1.00446875,0.13675,0.58778125,1.2814375,0.9713437500000001,-0.32946875000000003,-0.021,1.26165625,0.019162718051539865,0.0253437096707048,True
2274,44055,0,44056,3627.0,37685.0,28226.0,0.0023179999999999997,0.000549,-0.003843,0.24500000000000002,-1.435,-4.2525,1.0298125,0.12421875,0.58790625,1.2700625,0.9831562500000001,-0.3311875,-0.017375,1.25553125,0.018716975897703308,0.025201807025122435,True
2275,44056,0,44057,3628.0,37685.0,28226.0,-0.005307,-0.00042699999999999997,-0.000732,0.1925,-0.525,-4.2875000000000005,1.00325,0.13478125,0.59259375,1.26609375,0.976,-0.3291875,-0.017875000000000002,1.25578125,0.019070458066057488,0.02541726734775662,True
2276,44057,0,44058,3627.0,37688.0,28227.0,-0.003172,0.001647,-6.1e-05,0.4025,-0.4025,-4.375,1.00275,0.13275,0.5914375000000001,1.26940625,0.9675625,-0.32890625,-0.01878125,1.26203125,0.018975626986930415,0.02540589981017459,True
2277,44058,0,44059,3627.0,37686.0,28225.0,-0.005246,0.007503,0.001403,0.805,-0.28,-4.4975000000000005,1.01553125,0.124,0.585,1.28709375,0.98140625,-0.33275,-0.02025,1.2594375,0.018770997934882,0.025197489618134696,True
2278,44059,0,44060,3628.0,37687.0,28226.0,-0.007869,0.008601,0.003477,0.8225000000000001,-0.2625,-4.375,1.0110000000000001,0.13809375000000002,0.59275,1.26675,0.9755312500000001,-0.329125,-0.0175625,1.25571875,0.019204091803548217,0.02541109240373581,True
2279,44060,0,44061,3627.0,37687.0,28225.0,-0.011101999999999999,0.005124,0.0044529999999999995,0.6475000000000001,-0.6125,-4.112500000000001,1.00296875,0.1306875,0.59528125,1.287375,0.97578125,-0.33046875000000003,-0.017656250000000002,1.262125,0.018953858009825644,0.025520287809098773,True
2280,44061,0,44062,3625.0,37685.0,28224.0,-0.004697,-0.008357,0.001647,-0.07,-2.31,-3.8150000000000004,1.0254375,0.124625,0.58678125,1.2669375,0.98271875,-0.3305,-0.010781250000000001,1.25571875,0.01870594521279875,0.02488725767721531,True
2281,44062,0,44063,3625.0,37685.0,28223.0,-0.001464,-0.006588,-0.000549,-0.07,-3.0625000000000004,-3.7100000000000004,0.99846875,0.13296875,0.591875,1.26634375,0.9686250000000001,-0.32940625,-0.017875000000000002,1.256,0.019004779452848338,0.025387341719448536,True
2282,44063,0,44064,3627.0,37686.0,28223.0,-0.000915,-0.001647,-0.00061,0.31500000000000006,-3.7275000000000005,-3.6575,1.02115625,0.129125,0.58896875,1.2668125000000001,0.982125,-0.33053125,-0.01671875,1.25384375,0.018892158386389527,0.0252194109572108,True
2283,44064,0,44065,3627.0,37684.0,28223.0,-0.002623,0.003172,-0.000183,0.6300000000000001,-4.2700000000000005,-3.5525,1.00290625,0.1316875,0.5855312500000001,1.27640625,0.976,-0.33053125,-0.01975,1.25878125,0.01899747873363842,0.025199315146910362,True
2284,44065,0,44066,3626.0,37687.0,28223.0,-6.1e-05,0.002989,-0.000244,0.5425000000000001,-5.022500000000001,-3.3775000000000004,1.0081875,0.1323125,0.5908125,1.2760625,0.976375,-0.329,-0.0210625,1.2627187500000001,0.01896142463726417,0.02547243694986431,True
2285,44066,0,44067,3627.0,37685.0,28225.0,0.009333,-0.003843,0.0008539999999999999,-0.12250000000000001,-6.0025,-3.0625000000000004,1.01584375,0.13265625,0.58928125,1.27196875,0.9761875,-0.32834375,-0.01934375,1.26259375,0.018949091016522653,0.02533895206858014,True
2286,44067,0,44068,3628.0,37683.0,28225.0,0.010126,-0.006527,0.0017079999999999999,-0.1925,-6.16,-2.9575000000000005,1.01553125,0.1360625,0.59003125,1.2724375,0.98365625,-0.3291875,-0.01565625,1.2554687500000001,0.01912312114820933,0.025220526713693285,True
2287,44068,0,44069,3627.0,37683.0,28226.0,0.008418,-0.0057339999999999995,0.0032329999999999998,-0.08750000000000001,-6.142500000000001,-2.8875,1.00884375,0.132125,0.58903125,1.271875,0.97503125,-0.33325,-0.021625000000000002,1.25603125,0.019125065496799647,0.025421104941901307,True
2288,44069,0,44070,3626.0,37681.0,28226.0,0.0062829999999999995,-0.0018909999999999999,-0.000732,0.28,-6.107500000000001,-3.0450000000000004,1.009375,0.13225,0.5875312500000001,1.2759375,0.9846875,-0.33234375,-0.0208125,1.2603125,0.019093670333339755,0.0253256941246263,True
2289,44070,0,44071,3628.0,37682.0,28227.0,0.004026,0.002623,-0.002562,0.6125,-5.985,-3.1675000000000004,1.01415625,0.130875,0.5871875,1.2775625,0.98271875,-0.33140625,-0.0195,1.25578125,0.018999364247596663,0.02525812360790191,True
2290,44071,0,44072,3627.0,37684.0,28229.0,0.0035989999999999998,0.008052,-0.00976,0.9450000000000001,-6.125000000000001,-3.22,1.016,0.12909375,0.587,1.27825,0.9762500000000001,-0.329,-0.01890625,1.25503125,0.018829123679559374,0.02522622153121564,True
2291,44072,0,44073,3627.0,37686.0,28228.0,0.0062829999999999995,0.007991,-0.008173999999999999,0.9275000000000001,-6.090000000000001,-3.2550000000000003,1.0163125,0.128,0.58990625,1.2785,0.9768125,-0.32934375,-0.0196875,1.2555625000000001,0.018798030670268286,0.02537892093725199,True
2292,44073,0,44074,3630.0,37684.0,28231.0,0.008539999999999999,0.007076,-0.005856,0.77,-5.880000000000001,-3.3600000000000003,1.01375,0.1304375,0.58528125,1.27725,0.97528125,-0.3293125,-0.0191875,1.256,0.018896958144624925,0.025166078161469867,True
2293,44074,0,44075,3629.0,37684.0,28232.0,0.007442,0.002379,0.00042699999999999997,0.56,-5.3375,-3.3950000000000005,1.01571875,0.12990625,0.5895312500000001,1.273125,0.9762500000000001,-0.32846875000000003,-0.01309375,1.2590625,0.01884109537309043,0.025095683474770928,True
2294,44075,0,44076,3628.0,37686.0,28232.0,0.0037819999999999998,-0.006161,0.0073809999999999995,0.0,-4.655,-3.3600000000000003,1.0170625,0.12946875,0.5841875,1.2638125,0.98075,-0.331125,-0.0224375,1.2616875,0.018930228257016478,0.025252433272019127,True
2295,44076,0,44077,3629.0,37687.0,28235.0,0.0026839999999999998,-0.012139,0.0025009999999999998,-0.4025,-3.4475000000000002,-3.5700000000000003,1.0095,0.12903125000000001,0.5905,1.2784375000000001,0.9845,-0.3294375,-0.01965625,1.26015625,0.01884419851465945,0.025402372275831385,True
2296,44077,0,44078,3629.0,37687.0,28235.0,0.0011589999999999999,-0.0015249999999999999,0.000915,0.2625,-2.5025000000000004,-3.8325000000000005,1.007875,0.128625,0.584875,1.2789062500000001,0.9814375000000001,-0.331,-0.0220625,1.261875,0.0188905100489088,0.0252658363535604,True
2297,44078,0,44079,3630.0,37688.0,28236.0,-0.001769,0.005429,-0.000366,0.7000000000000001,-1.33,-3.8675,1.0169375,0.1301875,0.5850625,1.2725,0.98109375,-0.32984375,-0.02128125,1.2591875000000001,0.018908105400389185,0.02524194041481447,True
2298,44079,0,44080,3630.0,37689.0,28237.0,-0.008173999999999999,0.006344,0.0021349999999999997,0.7875000000000001,-0.49000000000000005,-3.8325000000000005,1.01125,0.1333125,0.58725,1.2595625,0.9820625000000001,-0.33075,-0.022125,1.2553125,0.0190730865263093,0.02536723957601586,True
2299,44080,0,44081,3632.0,37689.0,28238.0,-0.010431,0.0035989999999999998,0.001769,0.6475000000000001,-0.14,-3.8150000000000004,1.0095,0.13568750000000002,0.58765625,1.2665,0.98246875,-0.32821875,-0.02028125,1.25809375,0.019068648418824333,0.025309341454942375,True
2300,44081,0,44082,3630.0,37688.0,28239.0,0.000793,-0.0017079999999999999,0.000366,0.24500000000000002,-0.1925,-3.7100000000000004,1.00921875,0.133375,0.58759375,1.271875,0.98146875,-0.33175,-0.0231875,1.2563125,0.019115969874752125,0.025424654825676237,True
2301,44082,0,44083,3631.0,37688.0,28240.0,-0.0030499999999999998,-0.002257,0.001281,0.15750000000000003,0.24500000000000002,-3.7275000000000005,1.00971875,0.13171875,0.58696875,1.2751875,0.96378125,-0.32890625,-0.0165625,1.25590625,0.01893323913811374,0.02512979324164314,True
2302,44083,0,44084,3632.0,37693.0,28238.0,-0.00244,-0.002257,0.000244,0.2625,0.8225000000000001,-3.6750000000000003,1.0110937500000001,0.13040625,0.58646875,1.27546875,0.9764375000000001,-0.32946875000000003,-0.02084375,1.25628125,0.018901974585861025,0.02528272971260637,True
2303,44084,0,44085,3631.0,37692.0,28239.0,-0.000793,0.0008539999999999999,-0.000366,0.525,0.9100000000000001,-3.6225000000000005,1.01253125,0.132,0.5929375,1.27603125,0.9716250000000001,-0.329125,-0.0201875,1.25578125,0.01895362040352869,0.025525404412434335,True
2304,44085,0,44086,3633.0,37691.0,28239.0,6.1e-05,0.0023179999999999997,-0.00122,0.5950000000000001,0.9625000000000001,-3.7800000000000002,1.0138125,0.1315625,0.5879375,1.27565625,0.96996875,-0.329125,-0.02,1.25471875,0.01893563784147601,0.02530963780183181,True
2305,44086,0,44087,3634.0,37691.0,28236.0,-0.003355,-0.0025009999999999998,-0.0008539999999999999,0.21000000000000002,1.2775,-3.7625,1.011375,0.13153125000000002,0.5865312500000001,1.273625,0.976,-0.32875,-0.0195,1.25215625,0.01891923136207162,0.025230802056662296,True
2306,44087,0,44088,3634.0,37684.0,28229.0,-0.004392,-0.002074,-0.00061,0.24500000000000002,1.33,-3.6050000000000004,1.009375,0.132875,0.58828125,1.2725,0.9742500000000001,-0.3301875,-0.02096875,1.25740625,0.019032426281137375,0.025363256842003922,True
2307,44088,0,44089,3633.0,37683.0,28223.0,-0.005124,-0.001037,0.001952,0.21000000000000002,1.4000000000000001,-3.5875000000000004,1.0098125,0.13253125,0.5888125,1.27259375,0.977125,-0.32609375,-0.02125,1.2550000000000001,0.018853211893093195,0.02539678409741375,True
2308,44089,0,44090,3630.0,37684.0,28222.0,-0.003843,0.0015249999999999999,0.0008539999999999999,0.5075000000000001,1.1900000000000002,-3.6575,1.007625,0.133125,0.5875,1.26340625,0.97571875,-0.32934375,-0.01665625,1.2538125,0.01900868164600617,0.025155718752480377,True
2309,44090,0,44091,3629.0,37685.0,28219.0,-0.000244,0.003111,-0.000488,0.7525000000000001,0.7175,-3.5000000000000004,1.000875,0.13415625,0.5895625,1.2630000000000001,0.9733125,-0.3285,-0.01959375,1.2495625000000001,0.019017047906776004,0.025360805696391098,True
2310,44091,0,44092,3626.0,37683.0,28215.0,0.0025009999999999998,0.00244,0.002074,0.6125,0.17500000000000002,-3.5875000000000004,1.0051875000000001,0.13293750000000001,0.58759375,1.27221875,0.9843437500000001,-0.3324375,-0.0245,1.2658125,0.01912570411410694,0.025477897562904535,True
2311,44092,0,44093,3625.0,37684.0,28214.0,-0.001281,0.000976,-0.000976,0.56,0.08750000000000001,-3.6225000000000005,1.0061875,0.13115625,0.59015625,1.290375,0.9887812500000001,-0.33434375,-0.02415625,1.2666250000000001,0.01912934266000085,0.02557061707422087,True
2312,44093,0,44094,3622.0,37683.0,28213.0,-0.0015249999999999999,-0.001403,-0.0025009999999999998,0.5425000000000001,-0.2625,-3.6400000000000006,1.0303437500000001,0.12515625,0.5854375,1.27,0.9708125,-0.3296875,-0.01678125,1.2530000000000001,0.018695009954402417,0.025074915065897933,True
2313,44094,0,44095,3618.0,37679.0,28210.0,-0.002562,-0.000244,-0.001952,0.6125,-0.525,-3.7100000000000004,0.99921875,0.136125,0.593625,1.2610937500000001,0.97346875,-0.32784375,-0.0185625,1.25153125,0.01907151142402417,0.025488099048392256,True
2314,44095,0,44096,3617.0,37680.0,28211.0,-0.0046359999999999995,-0.00042699999999999997,-0.001586,0.6125,-0.9100000000000001,-3.6750000000000003,0.99065625,0.1348125,0.59321875,1.2615625,0.9726250000000001,-0.32925,-0.017718750000000002,1.24390625,0.019074262461851475,0.02543694954376131,True
2315,44096,0,44097,3616.0,37678.0,28206.0,-0.0042699999999999995,-0.001586,0.004392,0.3325,-1.1375000000000002,-3.4125000000000005,0.99425,0.1358125,0.59309375,1.261125,0.9735,-0.3285,-0.01834375,1.2528125,0.019085126497729005,0.025457105051217364,True
2316,44097,0,44098,3613.0,37677.0,28207.0,-0.005246,-0.004148,0.006771,0.1925,-1.3475000000000001,-3.3950000000000005,0.997375,0.13290625,0.58515625,1.274375,0.9755,-0.33090625,-0.021656250000000002,1.26203125,0.019062689043898642,0.025261060007050935,True
2317,44098,0,44099,3610.0,37678.0,28207.0,-0.001281,-0.00366,0.004392,0.1925,-1.6450000000000002,-3.325,1.0145625,0.12712500000000002,0.5843125,1.2803125,0.9831562500000001,-0.33271875,-0.0208125,1.2628125000000001,0.018898165664286898,0.02519169574301452,True
2318,44099,0,44100,3610.0,37676.0,28208.0,-0.000244,-0.00366,0.0017079999999999999,0.31500000000000006,-2.1525000000000003,-3.3425000000000002,1.02296875,0.1251875,0.58565625,1.28246875,0.981375,-0.3309375,-0.0198125,1.26009375,0.01874670879410216,0.02520705563376067,True
2319,44100,0,44101,3609.0,37679.0,28207.0,0.00122,6.1e-05,-0.002074,0.4025,-2.6950000000000003,-3.535,1.02215625,0.13059375,0.59028125,1.2705312500000001,0.9813125,-0.32778125,-0.01953125,1.255875,0.01884162782004627,0.025388193202146688,True
2320,44101,0,44102,3609.0,37678.0,28208.0,0.006344,0.0044529999999999995,-0.0057339999999999995,0.525,-3.0625000000000004,-3.6750000000000003,1.0085,0.1371875,0.5879375,1.2721875,0.976,-0.32959375,-0.021687500000000002,1.262125,0.01918573958926051,0.02537810884435159,True
2321,44102,0,44103,3607.0,37680.0,28207.0,0.0037819999999999998,0.002379,-0.000488,0.525,-3.0450000000000004,-3.5700000000000003,1.00834375,0.1316875,0.58628125,1.27821875,0.9781562500000001,-0.32946875000000003,-0.0195,1.2556875,0.018954637059224733,0.025220393846666248,True
2322,44103,0,44104,3607.0,37678.0,28212.0,0.007442,-0.0018909999999999999,-0.0006709999999999999,0.24500000000000002,-3.1500000000000004,-3.5525,1.0167187500000001,0.1316875,0.58803125,1.27775,0.97115625,-0.32871875,-0.01959375,1.255125,0.01892439362430461,0.02529705565898674,True
2323,44104,0,44105,3606.0,37678.0,28211.0,0.011956,-0.0048189999999999995,-0.001952,0.035,-3.4125000000000005,-3.535,1.0136875,0.1305,0.58896875,1.2749062500000001,0.975875,-0.3298125,-0.01953125,1.25553125,0.018919689578372215,0.025333550170759476,True
2324,44105,0,44106,3607.0,37679.0,28214.0,0.009699,-0.001586,-0.003721,0.2625,-3.1675000000000004,-3.7450000000000006,1.016125,0.13415625,0.5855,1.2795,0.97165625,-0.32887500000000003,-0.0195,1.2549375,0.01903216856513094,0.02518786819042861,True
2325,44106,0,44107,3607.0,37684.0,28217.0,0.00366,0.006222,0.000244,0.9800000000000001,-2.2925000000000004,-3.8850000000000002,1.01675,0.1309375,0.58628125,1.2770000000000001,0.9760625,-0.32896875000000003,-0.01740625,1.25475,0.01890364752924433,0.025135416110971597,True
2326,44107,0,44108,3607.0,37685.0,28217.0,-0.00061,0.0037819999999999998,0.0018909999999999999,0.8400000000000001,-1.8900000000000001,-3.9200000000000004,1.013375,0.12984375,0.5864375000000001,1.27709375,0.9754375000000001,-0.32987500000000003,-0.01959375,1.2470625,0.018895236823041634,0.025230703579239348,True
2327,44108,0,44109,3606.0,37686.0,28216.0,-0.003721,-0.0011589999999999999,0.000976,0.43750000000000006,-1.5050000000000001,-4.112500000000001,1.006875,0.129625,0.58734375,1.27340625,0.97675,-0.32925,-0.0208125,1.24521875,0.018861041750156706,0.025317888393658627,True
2328,44109,0,44110,3608.0,37684.0,28215.0,-0.008052,-0.004026,0.000305,0.15750000000000003,-1.05,-4.130000000000001,1.010375,0.13825,0.586,1.27740625,0.97521875,-0.3299375,-0.02025,1.25553125,0.019243267682048093,0.02523912115818944,True
2329,44110,0,44111,3609.0,37683.0,28215.0,-0.016653,-0.000183,0.005063,0.31500000000000006,-0.6125,-4.112500000000001,1.01546875,0.1303125,0.5850625,1.27803125,0.975375,-0.32646875000000003,-0.01971875,1.2555,0.018777129335715854,0.025178531701167402,True
2330,44111,0,44112,3608.0,37684.0,28217.0,-0.014761999999999999,0.0023179999999999997,0.0060999999999999995,0.56,-0.8925000000000001,-3.9025000000000003,1.01521875,0.12984375,0.5873125,1.2716875,0.9744375000000001,-0.32934375,-0.0199375,1.25409375,0.018873813643247157,0.025281081601482104,True
2331,44112,0,44113,3609.0,37684.0,28215.0,-0.009882,-0.000488,0.0057339999999999995,0.28,-1.61,-3.8150000000000004,1.0090625,0.13296875,0.5885,1.27203125,0.9792500000000001,-0.33125,-0.022875,1.26221875,0.019079116362702285,0.025449701586508694,True
2332,44113,0,44114,3609.0,37681.0,28216.0,-0.007625,-0.003355,0.0057339999999999995,0.035,-2.5725000000000002,-3.7100000000000004,1.00978125,0.12846875,0.58578125,1.27778125,0.9826875,-0.3291875,-0.02009375,1.25484375,0.018810996051553303,0.025223673408851705,True
2333,44114,0,44115,3608.0,37681.0,28214.0,-0.00366,-0.003294,0.0015249999999999999,0.10500000000000001,-3.5700000000000003,-3.6400000000000006,1.014375,0.12928125000000001,0.587875,1.2725625,0.97609375,-0.3293125,-0.01978125,1.25478125,0.01884943316832319,0.02529815919951394,True
2334,44115,0,44116,3611.0,37683.0,28215.0,0.0068319999999999995,0.008052,-0.0060999999999999995,0.49000000000000005,-5.617500000000001,-3.535,1.00925,0.13209375,0.5929375,1.27165625,0.98140625,-0.3308125,-0.0208125,1.26,0.01902551548576522,0.025550759367527636,True
2335,44116,0,44117,3609.0,37682.0,28215.0,0.007076,0.006344,-0.0055509999999999995,0.6125,-6.4225,-3.4125000000000005,1.0090625,0.132625,0.58775,1.2725312500000001,0.9773437500000001,-0.32940625,-0.02065625,1.25653125,0.01899065046028404,0.02532846079090783,True
2336,44117,0,44118,3610.0,37683.0,28215.0,0.007625,-0.002196,-0.008173999999999999,0.17500000000000002,-7.385000000000001,-3.325,1.0099375,0.13165625,0.58765625,1.27259375,0.979625,-0.3316875,-0.022375,1.25846875,0.019042811971015164,0.025394293861452085,True
2337,44118,0,44119,3609.0,37683.0,28215.0,0.013237,-0.0053679999999999995,-0.006161,-0.17500000000000002,-8.3825,-3.3600000000000003,1.00809375,0.1350625,0.5877187500000001,1.272,0.9815,-0.33078125,-0.0153125,1.25965625,0.019146271762235337,0.025110281200796367,True
2338,44119,0,44120,3608.0,37682.0,28214.0,0.015006,-0.0053679999999999995,-0.001647,-0.14,-8.680000000000001,-3.5175000000000005,1.00334375,0.1310625,0.5875,1.264125,0.98228125,-0.3305625,-0.02128125,1.26228125,0.018973050869662382,0.025343412937226237,True
2339,44120,0,44121,3609.0,37680.0,28215.0,0.009271999999999999,-0.000976,0.0075639999999999995,0.07,-7.892500000000001,-3.6225000000000005,1.00884375,0.131875,0.5860625,1.27371875,0.97921875,-0.33190625,-0.015125,1.25503125,0.0190606212778746,0.025033702718599213,True
2340,44121,0,44122,3608.0,37682.0,28216.0,0.0077469999999999995,-0.0013419999999999999,0.006527,0.10500000000000001,-7.3325000000000005,-3.535,1.01015625,0.1309375,0.58775,1.265375,0.9788125,-0.33021875,-0.02084375,1.26896875,0.018954052766171698,0.02533606880482706,True
2341,44122,0,44123,3609.0,37681.0,28216.0,0.0051849999999999995,0.000183,0.002745,0.07,-6.580000000000001,-3.6575,1.00884375,0.13159375,0.58803125,1.25965625,0.99,-0.32746875000000003,-0.0230625,1.260125,0.01887013008700299,0.025437795451766398,True
2342,44123,0,44124,3609.0,37683.0,28216.0,0.0042699999999999995,0.003111,6.1e-05,0.10500000000000001,-5.897500000000001,-3.8325000000000005,1.009875,0.131,0.58528125,1.280125,0.984625,-0.3276875,-0.0169375,1.2500625,0.018854545874941876,0.025074751932880703,True
2343,44124,0,44125,3608.0,37681.0,28214.0,0.0066489999999999995,0.0032329999999999998,0.0,0.08750000000000001,-5.0925,-3.7625,1.01628125,0.1288125,0.58871875,1.27171875,0.95934375,-0.32709375,-0.01875,1.2593750000000001,0.018740678795632956,0.025291438979963568,True
2344,44125,0,44126,3609.0,37683.0,28214.0,-0.000244,-0.0037819999999999998,-0.003965,0.10500000000000001,-3.5875000000000004,-3.6050000000000004,1.0073750000000001,0.13171875,0.588375,1.27221875,0.992375,-0.33590625,-0.025625000000000002,1.26596875,0.01921543398450592,0.025556046929060116,True
2345,44126,0,44127,3608.0,37679.0,28214.0,-0.003477,-0.004514,-0.0040869999999999995,-0.035,-2.975,-3.9025000000000003,1.0127187500000001,0.1343125,0.58521875,1.27775,0.9756250000000001,-0.326,-0.0168125,1.2492812500000001,0.018922654772671216,0.025067075408112545,True
2346,44127,0,44128,3609.0,37679.0,28215.0,-0.0073809999999999995,-0.004331,-0.0057339999999999995,0.0175,-2.7475,-4.1475,1.0085625,0.13221875,0.58859375,1.2724375,0.9792500000000001,-0.332,-0.02628125,1.2706875,0.019078528275521946,0.025591767348515496,True
2347,44128,0,44129,3610.0,37678.0,28214.0,-0.007686,-6.1e-05,-0.0053679999999999995,0.36750000000000005,-2.765,-4.2525,1.009375,0.12803125,0.5856875,1.27946875,0.98321875,-0.32796875000000003,-0.01703125,1.2490625,0.018743858342057433,0.02509547261383524,True
2348,44129,0,44130,3608.0,37678.0,28214.0,-0.0060999999999999995,0.0050019999999999995,-0.003111,0.7350000000000001,-2.9225000000000003,-4.1475,1.0090000000000001,0.13221875,0.58703125,1.2715,0.97759375,-0.3343125,-0.0204375,1.24125,0.019171745657494948,0.025289662188709094,True
2349,44130,0,44131,3610.0,37680.0,28219.0,-0.003477,0.0075639999999999995,0.006527,0.7000000000000001,-3.08,-3.9550000000000005,1.0148125000000001,0.137,0.588875,1.27128125,0.9699375,-0.32815625,-0.021937500000000002,1.2713125,0.019120078201569427,0.02542727871138621,True
2350,44131,0,44132,3608.0,37681.0,28218.0,-0.000122,0.003172,0.010187,0.4025,-2.9575000000000005,-3.9025000000000003,1.0086875,0.1304375,0.58621875,1.273625,0.98728125,-0.32790625,-0.01584375,1.2504375,0.018840246476204667,0.025069387786968763,True
2351,44132,0,44133,3610.0,37682.0,28218.0,0.000183,-0.0013419999999999999,0.008967,0.12250000000000001,-2.975,-3.8675,1.00478125,0.13153125000000002,0.5856250000000001,1.2746250000000001,0.98375,-0.3316875,-0.01596875,1.2513750000000001,0.01903767463724002,0.025049739040820498,True
2352,44133,0,44134,3610.0,37682.0,28218.0,0.000183,-0.005124,0.002379,0.0,-3.0100000000000002,-3.7975000000000003,1.00503125,0.13265625,0.58909375,1.27240625,0.97284375,-0.331125,-0.019375,1.26140625,0.01906123329685742,0.025332413936665712,True
2353,44134,0,44135,3610.0,37681.0,28218.0,0.001037,-0.002379,-0.001647,0.07,-2.975,-3.9375000000000004,1.0093125,0.1325,0.58846875,1.27246875,0.9830625000000001,-0.33184375,-0.02071875,1.26353125,0.019083788091479915,0.025360918894235834,True
2354,44135,0,44136,3610.0,37685.0,28220.0,0.00042699999999999997,-0.0023179999999999997,-0.0062829999999999995,0.21000000000000002,-2.87,-3.9200000000000004,1.0090000000000001,0.13390625,0.5890625,1.271875,0.98278125,-0.33215625,-0.021937500000000002,1.2616875,0.019154179975315586,0.025435084076794394,True
2355,44136,0,44137,3611.0,37684.0,28221.0,0.001769,-0.0028669999999999998,-0.0048189999999999995,0.035,-3.1500000000000004,-3.99,1.009125,0.13568750000000002,0.58890625,1.27171875,0.98228125,-0.3329375,-0.02109375,1.26253125,0.01925887493032849,0.025394347416008066,True
2356,44137,0,44138,3612.0,37682.0,28223.0,0.002928,-0.0018909999999999999,-0.002745,0.15750000000000003,-3.2375000000000003,-4.077500000000001,1.00953125,0.13209375,0.5886875,1.27215625,0.98303125,-0.32984375,-0.0213125,1.26153125,0.018986455677505124,0.025394116162470306,True
2357,44138,0,44139,3614.0,37684.0,28223.0,0.002623,0.0021349999999999997,-0.000244,0.4025,-3.0975,-4.2525,1.00946875,0.13078125000000002,0.58865625,1.27475,0.9826875,-0.331,-0.0194375,1.25225,0.018979131560560605,0.025316735664604968,True
2358,44139,0,44140,3613.0,37682.0,28225.0,0.002013,0.0040869999999999995,0.002745,0.5775,-3.0450000000000004,-4.2700000000000005,1.01503125,0.1303125,0.5875312500000001,1.2785,0.9791875,-0.32946875000000003,-0.017906250000000002,1.2549375,0.018898121234151487,0.025207755151429992,True
2359,44140,0,44141,3615.0,37685.0,28224.0,-0.0013419999999999999,0.003111,0.002074,0.47250000000000003,-3.115,-4.0425,1.0149375,0.1306875,0.5895312500000001,1.2650937500000001,0.97559375,-0.32484375,-0.018000000000000002,1.25471875,0.018726995933940994,0.02529483096011325,True
2360,44141,0,44142,3615.0,37686.0,28225.0,6.1e-05,0.001037,0.001464,0.3325,-3.22,-3.9025000000000003,0.99653125,0.1318125,0.58925,1.2726250000000001,0.9813125,-0.33128125,-0.021625000000000002,1.2623125,0.019032855082384944,0.025430211320008535,True
2361,44142,0,44143,3618.0,37686.0,28225.0,0.000366,0.000366,0.001464,0.21000000000000002,-3.4125000000000005,-3.8850000000000002,1.0140625,0.12725,0.58609375,1.28378125,0.981,-0.32875,-0.018625,1.25590625,0.01874325643528747,0.025177076123216877,True
2362,44143,0,44144,3618.0,37688.0,28223.0,0.004148,-0.0026839999999999998,0.00244,0.052500000000000005,-3.4475000000000002,-3.7800000000000002,1.02059375,0.13190625,0.58478125,1.2851875,0.9736250000000001,-0.3291875,-0.0184375,1.2552812500000001,0.018952287247570435,0.025114820645597783,True
2363,44144,0,44145,3619.0,37682.0,28218.0,-0.010187,-0.004575,-0.013481,0.12250000000000001,-3.6750000000000003,-3.7975000000000003,1.01975,0.12565625,0.58503125,1.2807187500000001,0.9756875,-0.32703125,-0.017781250000000002,1.2550000000000001,0.018608415278785817,0.02509859231897201,True
2364,44145,0,44146,3619.0,37683.0,28217.0,0.006405,0.008905999999999999,0.0073809999999999995,0.6300000000000001,-4.812500000000001,-3.8850000000000002,1.01971875,0.13175,0.5855312500000001,1.284,0.967875,-0.3289375,-0.0174375,1.24821875,0.01893578377600748,0.025105457232895895,True
2365,44146,0,44147,3618.0,37680.0,28211.0,0.011407,-0.0055509999999999995,0.016897,-0.5950000000000001,-5.1450000000000005,-3.5175000000000005,1.01634375,0.1260625,0.58590625,1.274375,0.97946875,-0.3291875,-0.0174375,1.26115625,0.018712092214341315,0.02512107088859917,True
2366,44147,0,44148,3615.0,37677.0,28207.0,-0.010858,-0.022814,0.0070149999999999995,-1.3825,-5.180000000000001,-3.4650000000000003,1.01203125,0.13034375,0.5843125,1.28384375,0.98290625,-0.33240625,-0.01959375,1.25184375,0.01901784785464857,0.025142234139576156,True
2367,44148,0,44149,3614.0,37676.0,28202.0,-0.0023179999999999997,-0.015921,0.00122,-0.8575,-5.390000000000001,-3.4650000000000003,1.0213125,0.1306875,0.59228125,1.27003125,0.97590625,-0.32946875000000003,-0.0175,1.2552812500000001,0.018913534640989646,0.025389039242219216,True
2368,44149,0,44150,3611.0,37676.0,28200.0,0.022753,0.0026839999999999998,-0.0060999999999999995,-0.14,-5.3375,-3.3950000000000005,1.00459375,0.13290625,0.5918125,1.27196875,0.9768125,-0.32928125,-0.0175,1.25175,0.018997170333587228,0.025369522223378786,True
2369,44150,0,44151,3609.0,37675.0,28199.0,0.005246,0.0053679999999999995,-0.0062829999999999995,0.8225000000000001,-4.322500000000001,-3.2550000000000003,1.01196875,0.13228125,0.5916250000000001,1.26928125,0.97609375,-0.32921875,-0.01325,1.2539375,0.018968960933034483,0.025189218452312787,True
2370,44151,0,44152,3607.0,37673.0,28196.0,0.020007999999999998,0.0064659999999999995,-0.006222,0.6475000000000001,-4.077500000000001,-3.6225000000000005,1.00696875,0.13365625,0.5910625,1.2690937500000001,0.9756875,-0.32953125,-0.01721875,1.25734375,0.019038077439325923,0.025326881365062302,True
2371,44152,0,44153,3603.0,37675.0,28193.0,0.019947,0.006771,-0.007869,0.56,-3.535,-4.130000000000001,1.00515625,0.13228125,0.59271875,1.25971875,0.98078125,-0.3305,-0.01815625,1.25934375,0.01902062226423625,0.025433884001816332,True
2372,44153,0,44154,3601.0,37676.0,28195.0,0.0059169999999999995,0.0053679999999999995,-0.008052,0.6825000000000001,-2.1175,-4.515000000000001,1.0064375,0.13293750000000001,0.591,1.2701875,0.9811875,-0.32859375,-0.017656250000000002,1.25971875,0.018970732741180326,0.025342033530020232,True
2373,44154,0,44155,3599.0,37676.0,28194.0,-0.0025009999999999998,0.006527,-0.004209,0.6300000000000001,-0.6125,-4.6025,1.0028125,0.13209375,0.5970625,1.27296875,0.97921875,-0.3314375,-0.01659375,1.25565625,0.01905071371142786,0.02555134405768928,True
2374,44155,0,44156,3596.0,37673.0,28192.0,-0.018117,-0.007503,0.009089,0.0175,1.6625,-4.340000000000001,1.0130000000000001,0.1293125,0.5905,1.2775,0.976625,-0.3294375,-0.015625,1.25559375,0.01885575858463641,0.025238776837996097,True
2375,44156,0,44157,3594.0,37673.0,28193.0,-0.027389,-0.012688,0.009943,-0.31500000000000006,1.8375000000000001,-4.585000000000001,1.0146875,0.13221875,0.591,1.2716875,0.97671875,-0.329125,-0.01875,1.26759375,0.018962611684555035,0.0253864168618267,True
2376,44157,0,44158,3593.0,37674.0,28192.0,-0.017995,-0.010735999999999999,0.004758,-0.22750000000000004,1.12,-4.567500000000001,1.00865625,0.13290625,0.59209375,1.27240625,0.9938750000000001,-0.33659375,-0.02025,1.27446875,0.019291935626776037,0.025492813355398047,True
2377,44158,0,44159,3592.0,37675.0,28192.0,-0.010675,-0.00488,-0.000122,0.08750000000000001,0.525,-4.2700000000000005,1.0096875,0.13178125000000002,0.59228125,1.2643125,1.00775,-0.341,-0.01865625,1.265375,0.01942324678525944,0.025435956684712536,True
2378,44159,0,44160,3591.0,37672.0,28193.0,-0.010614,0.001464,-0.003538,0.525,-0.07,-4.130000000000001,1.0098125,0.132,0.5903437500000001,1.26275,0.964875,-0.32565625,-0.01046875,1.243875,0.01881372676225333,0.025022939212713206,True
2379,44160,0,44161,3589.0,37674.0,28196.0,0.003355,0.009821,0.002196,1.0150000000000001,-1.6450000000000002,-3.6750000000000003,1.01284375,0.12946875,0.5909375,1.27878125,0.964125,-0.325875,-0.010750000000000001,1.2455,0.018718494195995007,0.025059088116781026,True
2380,44161,0,44162,3589.0,37675.0,28194.0,0.0060999999999999995,0.007137,0.0046359999999999995,0.6125,-2.24,-3.7450000000000006,1.01325,0.13196875,0.59315625,1.27215625,0.965375,-0.33428125000000003,-0.02603125,1.27734375,0.019160212508844907,0.02577152645633057,True
2381,44162,0,44163,3589.0,37676.0,28198.0,0.006039,0.002562,0.004331,0.2625,-2.6950000000000003,-3.9025000000000003,1.00815625,0.13734375000000001,0.5944375000000001,1.27478125,0.997125,-0.3344375,-0.017968750000000002,1.24646875,0.019387390811889532,0.025497836905962332,True
2382,44163,0,44164,3589.0,37678.0,28197.0,0.00671,0.000183,0.005307,0.07,-2.6250000000000004,-3.9200000000000004,1.0101875,0.13396875,0.5899375,1.27765625,0.96384375,-0.32825,-0.01215625,1.24671875,0.018999260119408508,0.02507453906810222,True
2383,44164,0,44165,3588.0,37679.0,28199.0,0.003111,-0.003538,0.001403,0.12250000000000001,-2.45,-3.8500000000000005,1.0123125,0.1314375,0.595,1.27184375,0.97603125,-0.3363125,-0.02209375,1.27528125,0.019220249575608465,0.02568859136185829,True
2384,44165,0,44166,3589.0,37677.0,28201.0,-0.002562,-0.001281,-0.0017079999999999999,0.29750000000000004,-2.0825,-4.0425,0.997625,0.131625,0.58946875,1.27559375,0.99540625,-0.3336875,-0.010812500000000001,1.2411875,0.019122153187838876,0.02500045552394364,True
2385,44166,0,44167,3589.0,37680.0,28202.0,0.003172,-0.0006709999999999999,-0.0044529999999999995,0.08750000000000001,-2.3275,-4.112500000000001,1.00915625,0.132375,0.5925625,1.27215625,0.9695625,-0.33253125,-0.019375,1.2755,0.019106366091690523,0.025476828601909918,True
2386,44167,0,44168,3589.0,37679.0,28204.0,0.001403,-0.002379,-0.0066489999999999995,-0.0175,-2.5200000000000005,-4.1475,1.00878125,0.1284375,0.5895,1.27284375,0.9945625,-0.3286875,-0.01259375,1.254875,0.018789546291800574,0.02507408221987681,True
2387,44168,0,44169,3590.0,37678.0,28203.0,0.004514,-0.0017079999999999999,-0.004331,-0.10500000000000001,-2.7300000000000004,-4.130000000000001,1.00878125,0.13178125000000002,0.5894375000000001,1.27540625,0.99190625,-0.3329375,-0.01325,1.248,0.01909834149699353,0.025098122911309383,True
2388,44169,0,44170,3590.0,37674.0,28199.0,0.008173999999999999,-0.003843,-0.002379,-0.14,-2.8525000000000005,-3.99,1.00003125,0.1311875,0.59165625,1.27534375,0.9751875,-0.32915625,-0.01528125,1.256125,0.018921484381522684,0.025272970725670765,True
2389,44170,0,44171,3589.0,37674.0,28201.0,0.002196,-0.000915,-0.0017079999999999999,0.12250000000000001,-2.7300000000000004,-4.165,1.0018125,0.1321875,0.5928125,1.27790625,0.97590625,-0.326875,-0.017,1.2610000000000001,0.018870590653341214,0.025390868967814464,True
2390,44171,0,44172,3590.0,37674.0,28200.0,0.0042699999999999995,0.004758,-0.001647,0.56,-2.7475,-4.0425,1.01428125,0.1325625,0.5925312500000001,1.2750937500000001,0.9760625,-0.32940625,-0.01596875,1.2626875,0.018988081552545083,0.025337308119207144,True
2391,44172,0,44173,3590.0,37675.0,28202.0,0.001403,0.0077469999999999995,0.00122,0.6300000000000001,-2.5200000000000005,-4.0425,1.0055625,0.1311875,0.5934375000000001,1.27184375,0.98159375,-0.32925,-0.01153125,1.25540625,0.018925264856088867,0.02519492587545828,True
2392,44173,0,44174,3591.0,37675.0,28200.0,-0.002928,0.003477,0.003843,0.47250000000000003,-2.24,-4.095000000000001,1.00859375,0.13209375,0.5915625,1.27734375,0.975375,-0.33134375,-0.017375,1.2550937500000001,0.019046934060105086,0.025354040564383076,True
2393,44174,0,44175,3591.0,37673.0,28201.0,-0.00366,-0.0028669999999999998,0.001281,0.2625,-2.1875,-4.0425,1.0086875,0.13159375,0.59209375,1.27475,0.97571875,-0.32978125,-0.0169375,1.2619375,0.018963384637911616,0.025358405916657775,True
2394,44175,0,44176,3590.0,37675.0,28200.0,-0.003721,-0.0025009999999999998,0.0008539999999999999,0.07,-2.3625000000000003,-3.99,1.01515625,0.132375,0.592875,1.27228125,0.9774375000000001,-0.32925,-0.0155625,1.2608125000000001,0.018974074416597306,0.02533513424888549,True
2395,44176,0,44177,3591.0,37677.0,28199.0,-0.003355,-0.000183,0.0006709999999999999,0.24500000000000002,-2.3975000000000004,-4.077500000000001,1.01021875,0.130875,0.59196875,1.2730625,0.98465625,-0.33221875,-0.01521875,1.25590625,0.019032121762426617,0.0252834465644832,True
2396,44177,0,44178,3593.0,37676.0,28201.0,-0.004209,-0.000366,0.000732,0.21000000000000002,-2.5375,-3.9725000000000006,1.00915625,0.13234375,0.59228125,1.27825,0.973875,-0.328625,-0.017718750000000002,1.26259375,0.018947587461272473,0.02539791586159697,True
2397,44178,0,44179,3591.0,37675.0,28200.0,-0.006771,-0.002745,-0.000122,0.10500000000000001,-2.7475,-3.7625,1.0236875,0.1323125,0.599,1.27065625,0.98003125,-0.32937500000000003,-0.01534375,1.25571875,0.018976545842217488,0.025581301537688794,True
2398,44179,0,44180,3591.0,37674.0,28198.0,0.0006709999999999999,0.000915,-0.003477,0.22750000000000004,-4.1475,-3.8325000000000005,1.0065,0.1340625,0.59125,1.2903125,0.978375,-0.3330625,-0.0181875,1.26278125,0.01919713147492224,0.025374000431964323,True
2399,44180,0,44181,3592.0,37674.0,28199.0,0.00549,0.000732,-0.0015249999999999999,0.07,-4.4975000000000005,-3.8150000000000004,1.01665625,0.134,0.59759375,1.2715,0.978625,-0.32409375,-0.0156875,1.25846875,0.018832921575957996,0.025536693463387213,True
2400,44181,0,44182,3591.0,37674.0,28200.0,0.005124,-0.001464,0.0017079999999999999,-0.15750000000000003,-4.69,-3.6925000000000003,1.0275,0.13075,0.5943125,1.2665,0.9833437500000001,-0.3310625,-0.014906250000000001,1.25559375,0.0189803671746764,0.025368358454449517,True
2401,44182,0,44183,3590.0,37674.0,28199.0,0.0040869999999999995,-0.002623,0.0032329999999999998,-0.21000000000000002,-4.567500000000001,-3.6050000000000004,1.003625,0.12640625,0.58965625,1.26965625,0.9763437500000001,-0.33287500000000003,-0.017875000000000002,1.2554375,0.018874927438701755,0.025294962605975756,True
2402,44183,0,44184,3591.0,37675.0,28200.0,0.006344,-0.000366,0.004392,-0.07,-4.532500000000001,-3.6050000000000004,1.00228125,0.13140625,0.58428125,1.2868125000000001,0.9762500000000001,-0.32946875000000003,-0.0174375,1.258875,0.018943077004096115,0.025053411713884963,True
2403,44184,0,44185,3591.0,37674.0,28200.0,0.010187,0.0071979999999999995,-0.0018909999999999999,0.5075000000000001,-4.340000000000001,-3.6925000000000003,1.0129375,0.131125,0.594125,1.26578125,0.97596875,-0.32921875,-0.01521875,1.2543125,0.018921435773600417,0.025373233379354498,True
2404,44185,0,44186,3592.0,37674.0,28203.0,0.008784,0.005307,-0.001403,0.29750000000000004,-4.025,-3.6925000000000003,1.0078125,0.12440625,0.58903125,1.26703125,0.98046875,-0.33271875,-0.01590625,1.2550937500000001,0.018786433390226894,0.025189034871419852,True
2405,44186,0,44187,3593.0,37677.0,28202.0,0.005612,-0.00061,-0.0037819999999999998,0.07,-3.7100000000000004,-3.6575,1.0029375,0.13225,0.58746875,1.2886875,0.9765312500000001,-0.33,-0.01884375,1.2610625,0.018999177969584877,0.025243200976316774,True
2406,44187,0,44188,3593.0,37675.0,28203.0,0.003843,-0.005246,-0.005856,-0.24500000000000002,-3.3425000000000002,-3.7625,1.02003125,0.134125,0.59384375,1.2709062500000001,0.97728125,-0.32921875,-0.015375,1.25978125,0.01904474429537529,0.025367863295909395,True
2407,44188,0,44189,3594.0,37677.0,28203.0,0.002074,-0.0055509999999999995,-0.002928,-0.24500000000000002,-2.9050000000000002,-4.025,1.02315625,0.1265625,0.5914375000000001,1.266,0.98378125,-0.3296875,-0.014718750000000001,1.25559375,0.018752809710359003,0.025241030565889933,True
2408,44189,0,44190,3593.0,37676.0,28203.0,-0.0011589999999999999,-0.0040869999999999995,0.0017079999999999999,0.052500000000000005,-1.6275000000000002,-4.1825,1.00271875,0.13343750000000001,0.5906250000000001,1.28121875,0.97609375,-0.32990625,-0.01828125,1.2633125,0.019044206140333978,0.0253517828216788,True
2409,44190,0,44191,3594.0,37675.0,28204.0,-0.003538,-0.000976,0.0034159999999999998,0.14,-1.0150000000000001,-4.095000000000001,1.00975,0.130625,0.593875,1.27225,0.9814375000000001,-0.32887500000000003,-0.01565625,1.25659375,0.01888702210850276,0.025380578554875015,True
2410,44191,0,44192,3595.0,37676.0,28205.0,-0.003355,0.001769,0.0037819999999999998,0.385,-0.17500000000000002,-4.0075,1.008875,0.133375,0.59065625,1.2741875,0.9818125,-0.3306875,-0.01609375,1.2551875000000001,0.01907313552072871,0.025264308439002493,True
2411,44192,0,44193,3595.0,37678.0,28207.0,-0.004514,0.0035989999999999998,0.002928,0.4025,0.36750000000000005,-4.165,1.002375,0.13271875,0.59040625,1.278125,0.97621875,-0.33225,-0.01725,1.2552812500000001,0.019109155544596163,0.025300825448375645,True
2412,44193,0,44194,3596.0,37678.0,28210.0,-0.005856,0.002379,0.0011589999999999999,0.4025,0.7175,-4.112500000000001,1.0040625,0.13196875,0.59265625,1.27825,0.97684375,-0.32971875,-0.01865625,1.255875,0.01897627772618621,0.025451569548150723,True
2413,44194,0,44195,3597.0,37679.0,28211.0,-0.002745,0.0037819999999999998,-0.004575,0.6300000000000001,0.9800000000000001,-4.1825,1.0119375,0.13240625,0.5920625,1.272125,0.9750625,-0.3286875,-0.014875000000000001,1.2555,0.01895267675249641,0.025273398258371115,True
2414,44195,0,44196,3597.0,37680.0,28211.0,-0.002928,0.002196,-0.001769,0.5425000000000001,1.0325000000000002,-4.130000000000001,1.00946875,0.1288125,0.59015625,1.27184375,0.9823125,-0.33246875,-0.014375,1.256375,0.018957437271957863,0.025173724071519663,True
2415,44196,0,44197,3598.0,37680.0,28213.0,-0.002379,-0.000488,-0.000732,0.42000000000000004,0.8925000000000001,-4.2525,1.00896875,0.1313125,0.59309375,1.275625,0.9762500000000001,-0.33071875,-0.0185,1.26384375,0.018989626025741637,0.02546344484459895,True
2416,44197,0,44198,3597.0,37680.0,28214.0,-0.002013,-0.0032329999999999998,-0.0006709999999999999,0.10500000000000001,0.7525000000000001,-4.305000000000001,1.01759375,0.1325625,0.594125,1.27140625,0.97575,-0.3290625,-0.015125,1.26234375,0.018974220646603212,0.025369428641325,True
2417,44198,0,44199,3599.0,37681.0,28216.0,-0.0021349999999999997,-0.002989,0.00183,0.17500000000000002,0.7000000000000001,-4.2,1.01284375,0.12934375,0.5896250000000001,1.27215625,0.98328125,-0.32987500000000003,-0.014750000000000001,1.25521875,0.018874685957079515,0.02516682455574179,True
2418,44199,0,44200,3598.0,37681.0,28218.0,-0.005063,0.002013,0.005246,0.47250000000000003,0.5075000000000001,-4.025,1.00821875,0.13209375,0.5949375,1.2744375000000001,0.9768125,-0.33271875,-0.0165625,1.26403125,0.019102366027224146,0.025461595513512812,True
2419,44200,0,44201,3600.0,37682.0,28215.0,-0.0017079999999999999,0.002257,0.002928,0.5775,0.385,-3.9200000000000004,1.00009375,0.1293125,0.5921875,1.278,0.984,-0.329,-0.01515625,1.2554687500000001,0.01883811500678203,0.02529001867310357,True
2420,44201,0,44202,3600.0,37681.0,28217.0,-0.0011589999999999999,0.0017079999999999999,0.001647,0.42000000000000004,0.21000000000000002,-3.8675,1.0003125,0.13368750000000001,0.5915625,1.2783437500000001,0.9756250000000001,-0.33078125,-0.01025,1.260375,0.01908975898585254,0.025064816068137565,True
2421,44202,0,44203,3601.0,37679.0,28212.0,-0.002257,0.000244,0.0023179999999999997,0.31500000000000006,0.035,-3.8500000000000005,1.0110000000000001,0.13090625,0.5935,1.2725625,0.9753125,-0.32803125,-0.01434375,1.2550937500000001,0.01886455567587287,0.02531169522381806,True
2422,44203,0,44204,3600.0,37676.0,28207.0,0.000244,-0.0018909999999999999,0.00042699999999999997,0.28,-0.35000000000000003,-3.8325000000000005,1.00859375,0.12896875,0.59115625,1.2780625,0.98303125,-0.32759375,-0.01621875,1.2483125,0.018767269163231567,0.025290201023006588,True
2423,44204,0,44205,3602.0,37675.0,28202.0,0.000976,-0.000549,-0.004209,0.31500000000000006,-1.155,-4.025,1.01521875,0.13275,0.59403125,1.2725625,0.9762500000000001,-0.32896875000000003,-0.0139375,1.25578125,0.018978147193353605,0.025317328738779305,True
2424,44205,0,44206,3598.0,37673.0,28195.0,0.002379,0.002806,-0.004331,0.35000000000000003,-1.1900000000000002,-4.025,1.00865625,0.13228125,0.59484375,1.27265625,0.975875,-0.32953125,-0.01378125,1.2611875000000001,0.01898156175943587,0.025344821528263065,True
2425,44206,0,44207,3596.0,37672.0,28191.0,-0.001098,0.002013,-0.0030499999999999998,0.36750000000000005,-1.3125000000000002,-4.0075,1.0085625,0.130875,0.5926875,1.27559375,0.98221875,-0.33237500000000003,-0.0081875,1.25525,0.019038421033705098,0.025027920162652848,True
2426,44207,0,44208,3594.0,37669.0,28189.0,-0.004697,-0.0008539999999999999,0.000488,0.35000000000000003,-1.4700000000000002,-3.99,1.0110937500000001,0.1321875,0.5944375000000001,1.27278125,0.9764375000000001,-0.3295,-0.01321875,1.25478125,0.018976448344602232,0.025305072857007144,True
2427,44208,0,44209,3592.0,37671.0,28184.0,-0.0013419999999999999,-0.0021349999999999997,-0.0023179999999999997,0.17500000000000002,-2.205,-4.0600000000000005,1.0092812500000001,0.132,0.5952500000000001,1.2718125,0.96803125,-0.3300625,-0.0151875,1.2610625,0.018991422648421064,0.025418810492318665,True
2428,44209,0,44210,3589.0,37668.0,28183.0,0.00061,0.002257,0.000305,0.29750000000000004,-2.975,-3.99,1.01178125,0.13084375,0.595,1.27421875,0.9813125,-0.32937500000000003,-0.01265625,1.25575,0.018916176432810135,0.025305665632056013,True
2429,44210,0,44211,3588.0,37667.0,28182.0,0.0021349999999999997,0.003172,0.0028669999999999998,0.22750000000000004,-3.1500000000000004,-3.9200000000000004,1.00925,0.13215625,0.5953437500000001,1.274375,0.9761875,-0.33109375,-0.01425,1.2621875,0.019039423577084366,0.02538466743704259,True
2430,44211,0,44212,3584.0,37666.0,28182.0,0.00183,0.0,0.004209,0.035,-3.43,-3.8150000000000004,1.01234375,0.1316875,0.5953437500000001,1.272125,0.97628125,-0.32890625,-0.01390625,1.25603125,0.01893195465784657,0.025370716186584596,True
2431,44212,0,44213,3582.0,37664.0,28179.0,0.005612,-0.00244,0.001586,-0.10500000000000001,-3.7100000000000004,-3.9025000000000003,1.00959375,0.13209375,0.59490625,1.2681875,0.9821562500000001,-0.33187500000000003,-0.016,1.26428125,0.019068351699160054,0.025437468770819455,True
2432,44213,0,44214,3581.0,37665.0,28178.0,0.009699,-0.0018909999999999999,-0.000305,-0.08750000000000001,-4.0425,-4.0075,1.0090937500000001,0.1308125,0.596875,1.28696875,0.98759375,-0.33187500000000003,-0.014812500000000001,1.25246875,0.01901569443374175,0.025471258624234522,True
2433,44214,0,44215,3578.0,37663.0,28176.0,0.011833999999999999,-0.000793,-0.003538,0.035,-3.6225000000000005,-3.8325000000000005,1.0266875,0.13440625,0.60446875,1.26878125,0.97296875,-0.3290625,-0.01121875,1.252875,0.019050004495652063,0.025641659692929995,True
2434,44215,0,44216,3577.0,37663.0,28176.0,0.008723,-0.001769,-0.002013,-0.035,-2.9575000000000005,-3.8850000000000002,1.0051875000000001,0.13384375,0.601625,1.2650000000000001,0.9731875,-0.32965625,-0.0134375,1.25975,0.01905082403291251,0.0256132634072069,True
2435,44216,0,44217,3576.0,37665.0,28178.0,0.00671,-0.00244,-0.0015249999999999999,0.0175,-1.8550000000000002,-3.9375000000000004,1.0055,0.1264375,0.58478125,1.28978125,0.98184375,-0.3333125,-0.01621875,1.26590625,0.018893851792681327,0.025024755406177334,True
2436,44217,0,44218,3576.0,37665.0,28178.0,0.004209,-0.003355,-0.00122,0.07,-0.6300000000000001,-4.0600000000000005,1.03265625,0.12015625,0.5861875,1.28978125,0.9850625000000001,-0.33384375,-0.01534375,1.26321875,0.018657142893834848,0.025047788458160213,True
2437,44218,0,44219,3574.0,37664.0,28178.0,-0.0011589999999999999,-0.0026839999999999998,-0.001037,0.29750000000000004,0.385,-4.2175,1.02321875,0.13528125,0.6009375,1.2610000000000001,0.97590625,-0.328125,-0.0121875,1.25390625,0.019048169556840078,0.02553390856205833,True
2438,44219,0,44220,3573.0,37664.0,28180.0,-0.0066489999999999995,0.001647,0.002623,0.45500000000000007,2.1,-4.2525,1.00140625,0.12790625,0.58875,1.2926875,0.98509375,-0.33387500000000003,-0.015875,1.251125,0.018976889213082587,0.025176055421674202,True
2439,44220,0,44221,3575.0,37666.0,28183.0,-0.007503,0.0017079999999999999,0.001098,0.6825000000000001,2.555,-4.2875000000000005,1.0108125000000001,0.13559375,0.5993437500000001,1.26778125,0.9734375000000001,-0.3285625,-0.010843750000000001,1.2463125,0.019078654976018412,0.025412996992244394,True
2440,44221,0,44222,3573.0,37665.0,28184.0,-0.008539999999999999,0.004148,0.0017079999999999999,0.8225000000000001,2.9925,-4.2875000000000005,1.005875,0.12965625,0.594125,1.2779375,0.987375,-0.33365625,-0.014687500000000001,1.2554375,0.019039987054966307,0.025351672804403553,True
2441,44222,0,44223,3573.0,37666.0,28187.0,-0.010492,0.003904,0.000976,0.8925000000000001,3.2725000000000004,-4.2700000000000005,1.01153125,0.12771875,0.58678125,1.289875,0.9823125,-0.32984375,-0.0131875,1.2605,0.01880663536937018,0.024984969196613322,True
2442,44223,0,44224,3574.0,37666.0,28186.0,-0.012383,0.0018909999999999999,0.0006709999999999999,0.7175,3.115,-4.41,1.02715625,0.124875,0.59303125,1.2900625000000001,0.97878125,-0.33178125,-0.01234375,1.25759375,0.018767892301349703,0.025210991742528256,True
2443,44224,0,44225,3574.0,37665.0,28189.0,-0.008418,-0.0015249999999999999,-0.003111,0.525,1.995,-4.112500000000001,1.02878125,0.12575,0.5971875,1.27328125,0.97590625,-0.33040625,-0.01259375,1.255125,0.01874840252616004,0.02539422672738133,True
2444,44225,0,44226,3574.0,37668.0,28191.0,-0.004941,-0.0008539999999999999,-0.0008539999999999999,0.6300000000000001,1.3825,-3.9725000000000006,1.000125,0.13334375,0.598,1.273375,0.9755,-0.33,-0.01375,1.2628125000000001,0.019044132757912047,0.02547498828796002,True
2445,44226,0,44227,3576.0,37666.0,28189.0,-0.001647,-0.002928,0.000976,0.56,0.8400000000000001,-3.8675,1.01534375,0.1310625,0.5938125,1.27196875,0.98253125,-0.32925,-0.0119375,1.25525,0.018920127007614293,0.02522703551098282,True
2446,44227,0,44228,3576.0,37668.0,28190.0,-0.005612,-0.0030499999999999998,0.002562,0.4025,0.43750000000000006,-3.6575,1.0090937500000001,0.1319375,0.59515625,1.27515625,0.98178125,-0.3308125,-0.0139375,1.25978125,0.01901909358760625,0.025364176532898866,True
2447,44228,0,44229,3577.0,37669.0,28192.0,-0.0048189999999999995,-0.00244,0.0037819999999999998,0.43750000000000006,-0.10500000000000001,-3.6575,1.0147187500000001,0.13009375,0.593125,1.2786875,0.9765625,-0.32928125,-0.011875,1.2553750000000001,0.018881568891395015,0.02519586662849111,True
2448,44229,0,44230,3576.0,37669.0,28190.0,0.005978,0.003843,0.002623,0.36750000000000005,-1.1025,-3.7100000000000004,1.014,0.1295625,0.5935,1.2747187500000001,0.97584375,-0.33021875,-0.011625,1.2549375,0.018897538683247558,0.025201334770137383,True
2449,44230,0,44231,3575.0,37670.0,28193.0,0.0062829999999999995,0.0030499999999999998,0.001037,0.28,-1.2950000000000002,-3.7100000000000004,1.00884375,0.13253125,0.59540625,1.27265625,0.9686875,-0.33084375,-0.01371875,1.26084375,0.019044756719544507,0.025365708924195676,True
2450,44231,0,44232,3577.0,37669.0,28191.0,0.006039,0.0023179999999999997,-0.002074,0.31500000000000006,-1.3650000000000002,-3.5700000000000003,1.01028125,0.13021875,0.59203125,1.27975,0.98271875,-0.32925,-0.01184375,1.25553125,0.018885446530410927,0.02514904754034142,True
2451,44232,0,44233,3577.0,37673.0,28190.0,0.0064659999999999995,0.0028669999999999998,-0.0042699999999999995,0.3325,-1.54,-3.5875000000000004,1.01721875,0.12890625,0.596625,1.27525,0.9765312500000001,-0.32546875000000003,-0.01209375,1.2553750000000001,0.018678982290937354,0.025350506971096597,True
2452,44233,0,44234,3578.0,37669.0,28192.0,0.008113,0.0025009999999999998,-0.00488,0.21000000000000002,-1.6625,-3.6225000000000005,1.01,0.1324375,0.59496875,1.27171875,0.9697187500000001,-0.32965625,-0.0131875,1.25634375,0.018993024202715564,0.025325927680363135,True
2453,44234,0,44235,3578.0,37672.0,28191.0,0.008905999999999999,-0.0046359999999999995,-0.004758,-0.08750000000000001,-1.6975000000000002,-3.9025000000000003,1.00971875,0.1330625,0.5948125,1.271375,0.9775312500000001,-0.3323125,-0.0093125,1.2615,0.019125802366708876,0.025162111576497656,True
2454,44235,0,44236,3579.0,37672.0,28189.0,0.006954,-0.0066489999999999995,-0.0025009999999999998,-0.0175,-1.225,-4.0075,1.0091875000000001,0.13065625,0.59446875,1.27425,0.98475,-0.33284375,-0.01321875,1.2590625,0.019048328455238614,0.02530637422357217,True
2455,44236,0,44237,3578.0,37672.0,28191.0,0.003721,-0.003721,0.0023179999999999997,0.12250000000000001,-0.49000000000000005,-4.0425,1.0174375,0.129625,0.594,1.27084375,0.97528125,-0.32646875000000003,-0.012,1.2544375,0.01874886793834391,0.025237381309345327,True
2456,44237,0,44238,3578.0,37670.0,28192.0,-0.001769,-0.001769,0.004392,0.24500000000000002,0.43750000000000006,-4.1475,1.00921875,0.13590625,0.5961875,1.26275,0.977625,-0.3296875,-0.0138125,1.25596875,0.019136856977714986,0.025402047259259646,True
2457,44238,0,44239,3580.0,37670.0,28192.0,-0.009699,0.0015249999999999999,0.0028669999999999998,0.35000000000000003,1.225,-4.2525,1.0090000000000001,0.1313125,0.59465625,1.2714375,0.9845,-0.32371875,-0.013000000000000001,1.261625,0.01870730601175036,0.025305303377337274,True
2458,44239,0,44240,3579.0,37672.0,28191.0,-0.015006,0.004331,0.0013419999999999999,0.6825000000000001,2.2575000000000003,-4.130000000000001,1.0119375,0.12996875,0.59265625,1.27184375,0.981,-0.32878125,-0.0120625,1.25571875,0.018856267204095972,0.025183957021601124,True
2459,44240,0,44241,3580.0,37672.0,28192.0,-0.014761999999999999,0.0051849999999999995,-0.000122,0.7875000000000001,2.1350000000000002,-3.9550000000000005,1.01559375,0.12965625,0.593125,1.2769375,0.977,-0.32903125,-0.01225,1.25475,0.01885350449373113,0.025211090172724337,True
2460,44241,0,44242,3581.0,37673.0,28193.0,-0.010919,0.004148,-0.000732,0.6825000000000001,1.4175000000000002,-4.0075,1.0030625,0.13259375,0.595125,1.2718125,0.97584375,-0.3303125,-0.01190625,1.26078125,0.019025906469553155,0.025280427288025084,True
2461,44242,0,44243,3580.0,37672.0,28194.0,-0.005063,0.002562,-0.002928,0.5950000000000001,0.12250000000000001,-3.8500000000000005,1.00771875,0.136875,0.5981562500000001,1.27203125,0.9803437500000001,-0.33075,-0.0144375,1.2605625,0.019219506180450662,0.025509394088452,True
2462,44243,0,44244,3580.0,37672.0,28197.0,0.002257,0.000976,0.003538,0.6300000000000001,-1.7675,-3.7625,1.0090625,0.13190625,0.594125,1.27175,0.9821875,-0.33287500000000003,-0.01421875,1.2549375,0.01910095909340758,0.02533264797548327,True
2463,44244,0,44245,3583.0,37672.0,28198.0,0.003538,-0.002806,0.0051849999999999995,0.21000000000000002,-2.2575000000000003,-3.6050000000000004,1.0090625,0.1320625,0.595,1.27196875,0.981125,-0.32996875000000003,-0.0134375,1.261875,0.018990211403374698,0.02533737620863319,True
2464,44245,0,44246,3581.0,37673.0,28195.0,0.002745,-0.004392,0.005063,0.12250000000000001,-2.3625000000000003,-3.5175000000000005,1.00884375,0.131125,0.5948125,1.27575,0.97390625,-0.33137500000000003,-0.015125,1.2565625,0.01900837909900283,0.025398056433185337,True
2465,44246,0,44247,3583.0,37673.0,28198.0,0.000488,-0.005307,0.0008539999999999999,0.0,-2.4325,-3.5175000000000005,1.0160625,0.12965625,0.59371875,1.2750937500000001,0.97328125,-0.3259375,-0.0068125,1.2550937500000001,0.018728723199260052,0.025015034794810848,True
2466,44247,0,44248,3585.0,37672.0,28196.0,-0.001586,-0.0026839999999999998,-0.001098,0.10500000000000001,-2.345,-3.4650000000000003,1.00934375,0.1325,0.59490625,1.2726875,0.9762500000000001,-0.3306875,-0.0181875,1.25234375,0.019037172706278853,0.02552622882138796,True
2467,44248,0,44249,3583.0,37674.0,28199.0,0.00042699999999999997,0.001464,-0.0037819999999999998,0.35000000000000003,-2.5025000000000004,-3.4650000000000003,1.00871875,0.13240625,0.5945312500000001,1.2630000000000001,0.9896875,-0.3378125,-0.0200625,1.271375,0.01932050179119426,0.025586684047970317,True
2468,44249,0,44250,3584.0,37671.0,28200.0,0.003538,-0.000793,-0.002196,0.12250000000000001,-2.7300000000000004,-3.5175000000000005,0.99784375,0.1320625,0.5945312500000001,1.2725312500000001,0.99203125,-0.33537500000000003,-0.01859375,1.26565625,0.019208148631364837,0.02552709814661818,True
2469,44250,0,44251,3584.0,37672.0,28199.0,0.004758,-0.002013,0.000549,0.035,-2.9400000000000004,-3.4650000000000003,1.009375,0.13159375,0.5924375000000001,1.2776875,0.9730625,-0.32696875000000003,-0.01028125,1.24921875,0.01884996460975024,0.02510252769321476,True
2470,44251,0,44252,3586.0,37671.0,28201.0,0.0060999999999999995,-0.0017079999999999999,0.000366,0.12250000000000001,-3.1850000000000005,-3.5525,1.015875,0.12925,0.59215625,1.27953125,0.96940625,-0.3261875,-0.00434375,1.2458125,0.01872210760522996,0.02484966913540388,True
2471,44252,0,44253,3585.0,37674.0,28201.0,0.007137,0.000183,-0.0011589999999999999,0.43750000000000006,-3.6400000000000006,-3.9025000000000003,1.00965625,0.1300625,0.5908125,1.27703125,0.9736250000000001,-0.3281875,-0.012781250000000001,1.24521875,0.01883617511579932,0.025136353166087328,True
2472,44253,0,44254,3586.0,37673.0,28204.0,0.015127999999999999,0.008052,-0.008601,0.8925000000000001,-4.532500000000001,-4.112500000000001,1.01575,0.133375,0.594625,1.272125,0.9725,-0.32971875,-0.01540625,1.2630937500000001,0.01903407740790263,0.025401662734728873,True
2473,44254,0,44255,3588.0,37676.0,28203.0,0.013908,0.008845,-0.005124,0.805,-3.9375000000000004,-4.0425,1.00834375,0.13225,0.59290625,1.27928125,0.9959687500000001,-0.32821875,-0.015625,1.250125,0.018927351596589863,0.02533897202342225,True
2474,44255,0,44256,3589.0,37675.0,28206.0,6.1e-05,0.002562,0.002562,0.7175,-2.9050000000000002,-3.8500000000000005,1.00859375,0.1306875,0.5934375000000001,1.27153125,0.97040625,-0.32746875000000003,-0.0155625,1.2709062500000001,0.018832877958172282,0.025358556560979992,True
2475,44256,0,44257,3590.0,37677.0,28206.0,-0.01098,-0.0066489999999999995,0.008845,0.24500000000000002,-2.0650000000000004,-3.7450000000000006,1.01209375,0.13075,0.59090625,1.27225,0.985125,-0.327,-0.01178125,1.25765625,0.018816541291569035,0.025099658110536882,True
2476,44257,0,44258,3591.0,37676.0,28209.0,-0.010309,-0.009699,0.00793,-0.0175,-2.1700000000000004,-3.8850000000000002,1.008625,0.132875,0.59059375,1.2790625,0.9881562500000001,-0.33153125,-0.01228125,1.24978125,0.019086601875909475,0.025106943972680647,True
2477,44258,0,44259,3590.0,37676.0,28207.0,-0.007259,-0.001586,-0.000244,0.385,-1.8725000000000003,-3.6750000000000003,1.01165625,0.13275,0.59559375,1.27721875,0.9700625,-0.3296875,-0.01346875,1.25859375,0.019007128636567984,0.02536337029609685,True
2478,44259,0,44260,3591.0,37676.0,28208.0,-0.009089,0.004026,-0.000366,0.7350000000000001,-1.715,-3.5000000000000004,1.015125,0.13225,0.59321875,1.2770000000000001,0.97440625,-0.32825,-0.0155625,1.2590937500000001,0.01892861179904021,0.02534944788405435,True
2479,44260,0,44261,3593.0,37674.0,28209.0,-0.008784,0.0035989999999999998,0.001952,0.9625000000000001,-1.8375000000000001,-3.3075,1.01440625,0.132,0.5935312500000001,1.27171875,0.97640625,-0.32890625,-0.01453125,1.25121875,0.01894479946051829,0.02532060666393395,True
2480,44261,0,44262,3594.0,37676.0,28204.0,-0.004392,0.00183,0.000183,0.5950000000000001,-2.1700000000000004,-3.2375000000000003,1.0095,0.1316875,0.5915312500000001,1.27584375,0.98440625,-0.33075,-0.0158125,1.25896875,0.01900629861389394,0.025289327604468934,True
2481,44262,0,44263,3594.0,37671.0,28200.0,0.0021349999999999997,-0.001647,-0.000305,0.28,-2.7300000000000004,-3.2725000000000004,1.0148125000000001,0.13325,0.5921875,1.27809375,0.9788125,-0.3294375,-0.0131875,1.2555625000000001,0.019017599564313807,0.025210105905348883,True
2482,44263,0,44264,3594.0,37670.0,28192.0,0.007503,-0.000976,-0.0006709999999999999,0.17500000000000002,-3.2550000000000003,-3.5525,1.0147187500000001,0.12959375,0.59875,1.27259375,0.97646875,-0.32928125,-0.01378125,1.2560625,0.018861017523894175,0.02550748853848246,True
2483,44264,0,44265,3593.0,37669.0,28188.0,0.004758,0.0,-0.00061,0.29750000000000004,-3.0625000000000004,-3.5525,1.01,0.1318125,0.593125,1.27209375,0.9819687500000001,-0.33315625,-0.0123125,1.26415625,0.0191084438542575,0.02521362738386817,True
2484,44265,0,44266,3590.0,37669.0,28185.0,0.004941,0.002745,-0.0023179999999999997,0.24500000000000002,-3.0100000000000002,-3.535,1.0005,0.13,0.5925312500000001,1.27821875,0.9819375,-0.33103125,-0.01365625,1.256375,0.01894828235034222,0.025243448714728733,True
2485,44266,0,44267,3590.0,37667.0,28181.0,0.006527,0.0032329999999999998,-0.003843,0.385,-3.08,-3.535,1.016125,0.1315,0.595,1.2723125,0.9761875,-0.32987500000000003,-0.01365625,1.2589375,0.018963311566541137,0.02534625480032846,True
2486,44267,0,44268,3588.0,37666.0,28180.0,0.007076,0.0028669999999999998,-0.0028669999999999998,0.4025,-3.1325000000000003,-3.6750000000000003,1.00440625,0.13175,0.5935312500000001,1.27228125,0.9761562500000001,-0.3323125,-0.0131875,1.262375,0.019071861747624687,0.025266064740468133,True
2487,44268,0,44269,3586.0,37668.0,28178.0,0.0046359999999999995,-0.00244,0.001098,0.07,-2.8175000000000003,-3.6925000000000003,1.01171875,0.12734375,0.5952500000000001,1.2791875,0.9841875,-0.32921875,-0.01321875,1.25228125,0.01876601565761334,0.025338908387697923,True
2488,44269,0,44270,3585.0,37667.0,28175.0,0.000183,-0.00366,0.001769,0.12250000000000001,-2.5200000000000005,-3.7100000000000004,1.0200625,0.12762500000000002,0.59146875,1.28,0.97696875,-0.32940625,-0.0130625,1.25625,0.018785137841167,0.025175100010671275,True
2489,44270,0,44271,3583.0,37666.0,28176.0,-0.003294,-0.0023179999999999997,0.003843,0.3325,-1.9600000000000002,-3.7100000000000004,1.01084375,0.13303125,0.5959375,1.27275,0.97678125,-0.32928125,-0.013000000000000001,1.2551875000000001,0.01900230817546244,0.025358659892558196,True
2490,44271,0,44272,3580.0,37665.0,28173.0,-0.0055509999999999995,0.000122,0.003721,0.42000000000000004,-1.4700000000000002,-3.8150000000000004,1.006125,0.13293750000000001,0.59584375,1.2649062500000001,0.976375,-0.33084375,-0.01428125,1.26059375,0.019061453633312655,0.025406756656520795,True
2491,44272,0,44273,3579.0,37667.0,28175.0,-0.007137,0.001464,0.003355,0.43750000000000006,-1.2425000000000002,-3.7450000000000006,1.008,0.13196875,0.59346875,1.2781875,0.98428125,-0.3310625,-0.0151875,1.262375,0.019030457465636776,0.02534463867916917,True
2492,44273,0,44274,3579.0,37665.0,28172.0,-0.003904,-0.000488,-0.001952,0.29750000000000004,-0.9975,-3.7100000000000004,1.0218125,0.12753125,0.5950625,1.262875,0.97975,-0.32953125,-0.011875,1.2555625000000001,0.01878632577436115,0.025276555870793097,True
2493,44274,0,44275,3577.0,37665.0,28173.0,-0.003965,-0.0023179999999999997,-0.003172,0.21000000000000002,-0.9800000000000001,-3.7450000000000006,0.9994375,0.1323125,0.5954375000000001,1.26859375,0.97703125,-0.33021875,-0.01384375,1.2612812500000001,0.01901056684909584,0.025372083550764344,True
2494,44275,0,44276,3575.0,37663.0,28175.0,-0.002745,-0.00122,-0.0032329999999999998,0.1925,-1.05,-3.7625,0.99909375,0.1306875,0.58934375,1.2814375,0.9823125,-0.3306875,-0.01409375,1.25575,0.01896267830491843,0.02512847273280925,True
2495,44276,0,44277,3574.0,37664.0,28175.0,-0.000793,0.0011589999999999999,-0.001586,0.35000000000000003,-1.2775,-3.8850000000000002,1.016875,0.13303125,0.59521875,1.26359375,0.976375,-0.3291875,-0.0135,1.2554687500000001,0.018998528002630587,0.025349022424886,True
2496,44277,0,44278,3573.0,37665.0,28175.0,-0.0015249999999999999,0.002196,-0.000793,0.36750000000000005,-1.5750000000000002,-3.8325000000000005,1.0066875,0.13278125,0.59490625,1.2601875,0.97978125,-0.33,-0.01584375,1.2594375,0.019021013152486645,0.025431128148474903,True
2497,44278,0,44279,3574.0,37664.0,28177.0,0.0034159999999999998,-0.000183,0.003904,0.21000000000000002,-2.1700000000000004,-3.7975000000000003,1.01390625,0.12890625,0.59103125,1.280125,0.9803125,-0.33021875,-0.0141875,1.25578125,0.018870566052761033,0.02520254953451996,True
2498,44279,0,44280,3573.0,37666.0,28178.0,0.004392,-0.001403,0.004514,0.10500000000000001,-2.2575000000000003,-3.6050000000000004,1.003875,0.13259375,0.5952500000000001,1.27275,0.9770625000000001,-0.32909375,-0.01359375,1.25321875,0.018976765215514863,0.025354128846291492,True
2499,44280,0,44281,3573.0,37667.0,28178.0,0.0050019999999999995,-0.0006709999999999999,0.002379,0.12250000000000001,-2.0300000000000002,-3.4825000000000004,1.0156875,0.13021875,0.592,1.2723125,0.979125,-0.32975,-0.01340625,1.25634375,0.018905609387683802,0.02521117761042334,True
2500,44281,0,44282,3572.0,37666.0,28182.0,0.004026,-6.1e-05,-0.001098,0.29750000000000004,-1.8900000000000001,-3.4475000000000002,1.01053125,0.1315625,0.5941875,1.26734375,0.9765,-0.3296875,-0.01403125,1.26121875,0.018958319953760197,0.025327640481020864,True
2501,44282,0,44283,3573.0,37668.0,28182.0,0.005673,0.0018909999999999999,-0.004026,0.31500000000000006,-1.6450000000000002,-3.43,1.01640625,0.13459375,0.594875,1.2723125,0.98228125,-0.328625,-0.014687500000000001,1.25540625,0.019040071109649642,0.02538290369175114,True
2502,44283,0,44284,3572.0,37667.0,28182.0,0.002745,-0.002196,-0.004209,0.31500000000000006,-0.9800000000000001,-3.6400000000000006,1.00934375,0.13171875,0.59415625,1.2729062500000001,0.98771875,-0.33603125,-0.019375,1.25659375,0.019220471702837742,0.02554318128594104,True
2503,44284,0,44285,3573.0,37664.0,28183.0,-0.0008539999999999999,-0.004148,-0.0035989999999999998,0.10500000000000001,-0.77,-3.9025000000000003,1.00996875,0.12953125000000001,0.592375,1.2718125,0.9718125,-0.32453125,-0.012968750000000001,1.24409375,0.01866685509098968,0.025209034180748685,True
2504,44285,0,44286,3575.0,37666.0,28184.0,-0.00366,-0.003477,-0.001952,0.24500000000000002,-0.6825000000000001,-4.025,1.0098125,0.13221875,0.5925625,1.266,1.0025,-0.33840625,-0.013375,1.2643125,0.019336722181634226,0.025233333506847748,True
2505,44286,0,44287,3574.0,37665.0,28186.0,-0.004148,-0.0026839999999999998,0.000915,0.4025,-0.525,-4.025,0.9985625,0.131625,0.5906875,1.27615625,0.9805,-0.32506250000000003,-0.01059375,1.24790625,0.0187743608058561,0.02504233157499489,True
2506,44287,0,44288,3575.0,37667.0,28187.0,-0.005795,6.1e-05,0.002257,0.525,-0.5950000000000001,-4.0425,1.0093125,0.13090625,0.5935,1.27203125,1.00159375,-0.3365625,-0.01621875,1.26184375,0.01920849544794997,0.025387791323311457,True
2507,44288,0,44289,3577.0,37667.0,28187.0,-0.003477,0.0037819999999999998,0.0034159999999999998,0.8925000000000001,-0.9625000000000001,-3.5875000000000004,1.0106875,0.12815625,0.58925,1.27434375,0.9648125000000001,-0.325875,-0.01034375,1.2395625000000001,0.018664539302286145,0.024972310111136996,True
2508,44289,0,44290,3576.0,37669.0,28189.0,0.000488,0.005673,0.00042699999999999997,0.77,-1.225,-3.6050000000000004,1.00971875,0.132125,0.59265625,1.277625,0.990375,-0.334625,-0.01684375,1.244375,0.01918048870693508,0.02537802245559432,True
2509,44290,0,44291,3578.0,37669.0,28187.0,0.002196,0.004697,0.001281,0.6125,-1.6975000000000002,-3.5875000000000004,1.01603125,0.130375,0.5895625,1.2746875,0.96465625,-0.32796875000000003,-0.012875000000000001,1.25478125,0.018840198074489882,0.02508810377766094,True
2510,44291,0,44292,3578.0,37670.0,28188.0,0.005795,0.00122,0.000732,0.6475000000000001,-1.9250000000000003,-3.3775000000000004,1.0089375,0.13215625,0.593375,1.27246875,0.98046875,-0.33509375,-0.0191875,1.28015625,0.01920066570526362,0.02550304834416235,True
2511,44292,0,44293,3578.0,37669.0,28187.0,0.009455,0.002623,0.000244,0.42000000000000004,-2.1350000000000002,-3.3075,1.0099375,0.13134375,0.5925,1.2707187500000001,0.99253125,-0.3338125,-0.021375,1.27240625,0.019115633853100496,0.025555364753266627,True
2512,44293,0,44294,3578.0,37669.0,28187.0,0.005856,-0.002623,0.002013,0.31500000000000006,-1.3475000000000001,-3.3775000000000004,1.008375,0.1318125,0.59265625,1.27553125,0.99571875,-0.33696875,-0.015375,1.2596875,0.019262105105016414,0.025318415806540606,True
2513,44294,0,44295,3581.0,37670.0,28187.0,0.001403,-0.001586,-0.0017079999999999999,0.5075000000000001,-0.665,-3.535,1.01321875,0.13065625,0.59125,1.27265625,0.9744375000000001,-0.32975,-0.012781250000000001,1.2476562500000001,0.018923591487787585,0.025154572629940565,True
2514,44295,0,44296,3579.0,37671.0,28188.0,-0.003355,-0.0011589999999999999,-0.001037,0.6825000000000001,0.052500000000000005,-3.5175000000000005,1.0166875,0.12953125000000001,0.59271875,1.27740625,0.97290625,-0.3278125,-0.0125,1.25559375,0.018799213862734268,0.025204320666319623,True
2515,44296,0,44297,3579.0,37671.0,28188.0,-0.0073809999999999995,-0.000732,-0.00366,0.77,0.47250000000000003,-3.5875000000000004,1.011125,0.13140625,0.59340625,1.27153125,0.97659375,-0.32934375,-0.014375,1.255625,0.018938036501703833,0.025309059677797154,True
2516,44297,0,44298,3580.0,37671.0,28188.0,-0.0066489999999999995,0.0006709999999999999,-0.002562,0.7175,0.5775,-3.7625,1.009625,0.13215625,0.59259375,1.273625,0.977,-0.330625,-0.017,1.26284375,0.019020524544683913,0.02538176083607445,True
2517,44298,0,44299,3582.0,37670.0,28190.0,-0.000732,-0.005978,0.002013,0.35000000000000003,0.5950000000000001,-3.8325000000000005,1.01403125,0.13659375,0.59359375,1.272375,0.98246875,-0.32715625,-0.014656250000000001,1.25515625,0.01906305838768146,0.025328282598257056,True
2518,44299,0,44300,3582.0,37671.0,28193.0,-0.000122,-0.006527,0.002196,0.17500000000000002,0.8925000000000001,-3.8500000000000005,1.00925,0.13084375,0.59090625,1.27609375,0.98375,-0.3246875,-0.014937500000000001,1.25503125,0.01872711622708411,0.02522778791325191,True
2519,44300,0,44301,3581.0,37671.0,28190.0,-0.002196,-0.005124,0.001037,0.3325,1.12,-3.8150000000000004,1.0009375,0.13443750000000002,0.5936875,1.2730625,0.9761875,-0.32934375,-0.01503125,1.2548125,0.01906262884710978,0.02534740611674199,True
2520,44301,0,44302,3583.0,37671.0,28193.0,-0.004392,0.00244,-0.001098,0.7875000000000001,1.2600000000000002,-3.9725000000000006,1.00846875,0.13165625,0.59325,1.2650937500000001,0.9829375,-0.33065625,-0.01540625,1.2630937500000001,0.019001234296752684,0.02534440782154164,True
2521,44302,0,44303,3582.0,37672.0,28193.0,-0.006954,0.008601,0.000244,1.12,1.435,-4.2525,1.01453125,0.130125,0.590125,1.2743125,0.98571875,-0.33078125,-0.0169375,1.26340625,0.01894333951976984,0.02527643251767633,True
2522,44303,0,44304,3584.0,37675.0,28192.0,-0.007686,0.0023179999999999997,0.001098,0.6300000000000001,0.9975,-4.1825,1.009875,0.13196875,0.59290625,1.27190625,0.9839687500000001,-0.33221875,-0.0159375,1.26303125,0.019077072451520682,0.02535165450026675,True
2523,44304,0,44305,3583.0,37675.0,28195.0,-0.008113,-0.003294,0.0013419999999999999,0.17500000000000002,0.5775,-4.112500000000001,1.00365625,0.13203125,0.59275,1.269875,0.98278125,-0.3308125,-0.01578125,1.2524375,0.019022946726501632,0.02533880716455976,True
