frame_seq,absolute_seq_u64,segment_id,sample_seq,PPG_G,PPG_R,PPG_IR,ACC_X,ACC_Y,ACC_Z,GYRO_X,GYRO_Y,GYRO_Z,Uh1,Uh2,Uh3,Uh4,Uc1,Uc2,Uc3,Uc4,UD1,UD2,parser_valid
29658,154288,0,154289,4839.0,41848.0,27549.0,-0.01281,0.0,0.003355,0.525,-0.6475000000000001,-3.9200000000000004,0.96125,0.13571875,0.08790625,1.2395,0.940625,-0.32734375,-0.3878125,1.2264375,0.019034651080638426,0.019506413295575405,True
29659,154289,0,154290,4840.0,41847.0,27550.0,-0.010858,0.000488,0.001281,0.47250000000000003,-0.7525000000000001,-3.9025000000000003,0.9946875000000001,0.1481875,0.07843750000000001,1.26275,0.9415,-0.332625,-0.3786875,1.22271875,0.019759993013495254,0.01875100946267103,True
29660,154290,0,154291,4840.0,41848.0,27550.0,-0.006405,-0.001037,0.000793,0.5950000000000001,-1.3650000000000002,-3.6400000000000006,0.95925,0.14284375,0.07993750000000001,1.2304375,0.95021875,-0.32825,-0.382,1.2304375,0.01936406235549207,0.01894584119432368,True
29661,154291,0,154292,4842.0,41846.0,27550.0,0.004331,-0.001586,-0.006161,0.35000000000000003,-3.0450000000000004,-3.8850000000000002,0.9629375,0.13309375,0.08265625,1.23475,0.943625,-0.330125,-0.3876875,1.22740625,0.01903889725186369,0.01928611517594688,True
29662,154292,0,154293,4841.0,41847.0,27550.0,0.009028,-0.0011589999999999999,-0.005063,0.31500000000000006,-3.6225000000000005,-3.9725000000000006,0.9915,0.1436875,0.0858125,1.2376875,0.94459375,-0.3305,-0.3844375,1.225125,0.0194894268510717,0.019284840997459956,True
29663,154293,0,154294,4844.0,41847.0,27550.0,0.00976,-0.0015249999999999999,-0.0035989999999999998,0.36750000000000005,-3.9025000000000003,-3.9200000000000004,0.987125,0.147,0.0814375,1.23834375,0.94225,-0.32640625,-0.3834375,1.22490625,0.019460591307028756,0.019065195381086034,True
29664,154294,0,154295,4846.0,41848.0,27547.0,0.0066489999999999995,-0.000244,-0.003172,0.5075000000000001,-3.6925000000000003,-4.0075,0.96275,0.1438125,0.08140625,1.251125,0.9509375,-0.32953125,-0.3839375,1.23028125,0.019455522802150165,0.019084028164032162,True
29665,154295,0,154296,4846.0,41849.0,27549.0,0.0023179999999999997,0.002928,-0.000366,0.6300000000000001,-3.535,-4.095000000000001,0.97075,0.14384375,0.078125,1.24884375,0.94796875,-0.324375,-0.38353125,1.22659375,0.019248952953570236,0.01893311699879401,True
29666,154296,0,154297,4847.0,41848.0,27550.0,-0.002562,0.002928,0.006527,0.665,-2.9575000000000005,-3.8325000000000005,0.9713437500000001,0.1433125,0.08025,1.24725,0.94346875,-0.3290625,-0.38465625000000003,1.23103125,0.019416079020718534,0.01906552404239859,True
29667,154297,0,154298,4848.0,41848.0,27548.0,-0.003294,-0.000366,0.007991,0.5775,-2.8875,-3.7975000000000003,0.971,0.14346875,0.08040625,1.24396875,0.9435,-0.32859375,-0.38525,1.2319375000000001,0.019403608151416483,0.019095816118350234,True
29668,154298,0,154299,4849.0,41849.0,27549.0,-0.003538,-0.002074,0.007869,0.49000000000000005,-2.9925,-3.7975000000000003,0.9716250000000001,0.1438125,0.078,1.2444375,0.94415625,-0.32390625,-0.3861875,1.21846875,0.019228767994449905,0.01903485323402849,True
29669,154299,0,154300,4851.0,41848.0,27551.0,-0.0040869999999999995,0.0,0.003355,0.5075000000000001,-3.2025,-3.7625,0.9629375,0.142625,0.07906250000000001,1.243625,0.9444375,-0.33071875,-0.38409375,1.22509375,0.01945457324395729,0.01899419575517339,True
29670,154300,0,154301,4853.0,41850.0,27550.0,0.001281,0.000244,-0.004392,0.5075000000000001,-3.5875000000000004,-3.535,0.97471875,0.14240625,0.0813125,1.24434375,0.944375,-0.32975,-0.38265625000000003,1.2246875,0.01940653931914631,0.019028638440489846,True
29671,154301,0,154302,4854.0,41852.0,27548.0,0.0059169999999999995,-0.001281,-0.005246,0.385,-3.99,-3.6400000000000006,0.97903125,0.14628125,0.081375,1.2485625,0.9516875,-0.33103125,-0.382125,1.22153125,0.019617438122356612,0.019009827896461037,True
29672,154302,0,154303,4854.0,41853.0,27552.0,0.006039,-0.003477,-0.0059169999999999995,0.28,-4.095000000000001,-3.7450000000000006,0.97884375,0.143625,0.08171875,1.24984375,0.95003125,-0.3304375,-0.38340625,1.22290625,0.0194843393177784,0.01907547268954681,True
29673,154303,0,154304,4855.0,41853.0,27549.0,0.006039,-0.00366,-0.0051849999999999995,0.31500000000000006,-4.112500000000001,-4.0075,0.97859375,0.144375,0.08159375,1.2505,0.9526875,-0.327625,-0.38356250000000003,1.23078125,0.019401811726381016,0.01907663205489354,True
29674,154304,0,154305,4859.0,41853.0,27550.0,0.0034159999999999998,-0.0017079999999999999,-0.0026839999999999998,0.35000000000000003,-4.025,-4.025,0.97796875,0.1446875,0.08240625,1.2441875,0.9509375,-0.327625,-0.38353125,1.224625,0.01941465720554308,0.01910869657158456,True
29675,154305,0,154306,4859.0,41854.0,27546.0,-0.0006709999999999999,0.000305,0.002074,0.47250000000000003,-3.5175000000000005,-4.0075,0.97803125,0.14496875,0.08246875000000001,1.24584375,0.9503125,-0.32975,-0.38306250000000003,1.21646875,0.019511863048325608,0.0190924027693404,True
29676,154306,0,154307,4860.0,41853.0,27547.0,-0.000732,-0.000488,0.0037819999999999998,0.36750000000000005,-3.3425000000000002,-4.077500000000001,0.97796875,0.14328125,0.0825,1.24578125,0.9490937500000001,-0.330125,-0.3806875,1.2258125,0.019457616843316674,0.018998131205282872,True
29677,154307,0,154308,4857.0,41852.0,27546.0,-0.001098,0.000732,0.0026839999999999998,0.385,-3.3425000000000002,-4.077500000000001,0.97821875,0.148625,0.0815,1.24996875,0.949125,-0.33103125,-0.383375,1.2209375,0.019713765728692656,0.01906524424941174,True
29678,154308,0,154309,4857.0,41852.0,27544.0,-0.00042699999999999997,0.0032329999999999998,0.0028669999999999998,0.36750000000000005,-3.3075,-3.9200000000000004,0.9726875,0.143875,0.0813125,1.250625,0.94965625,-0.32853125,-0.38303125,1.2300625,0.019417787500016055,0.019043725336651898,True
29679,154309,0,154310,4859.0,41852.0,27545.0,6.1e-05,0.002623,0.003172,0.35000000000000003,-3.2375000000000003,-3.7450000000000006,0.9724375000000001,0.143125,0.08009375,1.2436875,0.94759375,-0.32884375,-0.385625,1.2283125,0.019399555311789118,0.019098085449932082,True
29680,154310,0,154311,4853.0,41849.0,27541.0,0.0021349999999999997,-0.000549,0.00042699999999999997,0.2625,-3.0275000000000003,-3.8150000000000004,0.975125,0.14190625,0.081375,1.24678125,0.9439062500000001,-0.3294375,-0.3825,1.22553125,0.019373392829160146,0.01902491541064288,True
29681,154311,0,154312,4852.0,41847.0,27540.0,0.003477,-0.000549,-0.0017079999999999999,0.1925,-2.9925,-3.8500000000000005,0.9785625,0.14346875,0.07846875,1.2439375,0.9490000000000001,-0.32790625,-0.38296875,1.23046875,0.019375896764646565,0.018924582348078516,True
29682,154312,0,154313,4850.0,41846.0,27536.0,0.002928,0.000183,-0.000183,0.28,-2.5900000000000003,-3.7625,0.972,0.1413125,0.08434375,1.24403125,0.9440937500000001,-0.32878125,-0.3838125,1.225625,0.019322535936731316,0.019199468909958193,True
29683,154313,0,154314,4847.0,41850.0,27538.0,0.0017079999999999999,-0.00183,-0.000244,0.2625,-2.0825,-3.7625,0.97946875,0.14453125,0.08165625,1.2413750000000001,0.944125,-0.33059375,-0.38384375,1.2260312500000001,0.019527883490307343,0.019090509469000348,True
29684,154314,0,154315,4845.0,41848.0,27536.0,-0.002806,-0.0028669999999999998,-0.000732,0.1925,-1.7325000000000002,-3.8500000000000005,0.9763437500000001,0.143875,0.0805,1.24815625,0.95153125,-0.32834375,-0.38315625000000003,1.2329375,0.01941023009427019,0.019015432015697314,True
29685,154315,0,154316,4843.0,41847.0,27538.0,-0.004941,0.001586,-0.002562,0.31500000000000006,-1.1025,-3.9550000000000005,0.97215625,0.1441875,0.081375,1.24915625,0.9435,-0.3244375,-0.3839375,1.23803125,0.01926560480586653,0.019082746582663283,True
29686,154316,0,154317,4842.0,41847.0,27538.0,-0.005063,0.00122,-6.1e-05,0.31500000000000006,-0.9800000000000001,-3.9550000000000005,0.9717187500000001,0.14403125,0.079625,1.25075,0.94378125,-0.32853125,-0.38428125,1.24225,0.019424210000346814,0.01902480722084027,True
29687,154317,0,154318,4839.0,41845.0,27538.0,-0.0034159999999999998,0.000122,0.000122,0.28,-1.155,-3.99,0.9676875,0.15031250000000002,0.0810625,1.2434375,0.9578125000000001,-0.32634375,-0.37753125,1.228875,0.019594241325312196,0.018812148994783874,True
29688,154318,0,154319,4837.0,41845.0,27539.0,-0.001769,0.0008539999999999999,-0.0008539999999999999,0.2625,-1.3650000000000002,-4.2,0.97996875,0.141625,0.07965625,1.24109375,0.96009375,-0.33284375,-0.38315625000000003,1.2190625,0.019499108072807973,0.018980828210047665,True
29689,154319,0,154320,4836.0,41846.0,27538.0,0.001403,0.0015249999999999999,-0.001952,0.29750000000000004,-1.7325000000000002,-4.2175,0.97184375,0.14465625000000001,0.08084375,1.2374375,0.93775,-0.331,-0.38790625,1.2384375,0.01954939172249394,0.019220592173631142,True
29690,154320,0,154321,4835.0,41845.0,27537.0,0.0044529999999999995,0.0028669999999999998,-0.000549,0.28,-2.3275,-4.305000000000001,0.97209375,0.14365625,0.08221875000000001,1.250125,0.9393125,-0.32371875,-0.38871875,1.2351875,0.019214783923613653,0.01930964495623617,True
29691,154321,0,154322,4833.0,41845.0,27535.0,0.006771,0.000122,0.003477,0.17500000000000002,-2.2750000000000004,-4.2700000000000005,0.9714375000000001,0.1433125,0.079,1.24878125,0.9364687500000001,-0.32871875,-0.39028125,1.2348125,0.019402223966274428,0.01924050178798164,True
29692,154322,0,154323,4832.0,41843.0,27536.0,0.005307,-0.002928,0.003965,0.07,-2.3800000000000003,-4.2525,0.97221875,0.146,0.08084375,1.245875,0.93815625,-0.32809375,-0.39065625,1.23265625,0.019487500947335833,0.019331173182353386,True
29693,154323,0,154324,4831.0,41840.0,27535.0,0.002074,-0.000976,0.001281,0.24500000000000002,-2.4850000000000003,-4.357500000000001,0.9715625,0.14,0.0811875,1.24428125,0.9300625,-0.33484375,-0.38715625000000004,1.219875,0.01951291550824114,0.01920452492282695,True
29694,154324,0,154325,4830.0,41842.0,27536.0,0.0026839999999999998,0.0013419999999999999,0.0,0.31500000000000006,-2.2925000000000004,-4.2525,0.979625,0.14140625,0.081875,1.24396875,0.95078125,-0.33084375,-0.3800625,1.22090625,0.019409520066479405,0.01894734683309364,True
29695,154325,0,154326,4829.0,41842.0,27532.0,-0.0013419999999999999,-0.0026839999999999998,-0.0028669999999999998,0.21000000000000002,-1.8900000000000001,-4.025,0.97959375,0.14203125,0.08184375,1.2436562500000001,0.9526875,-0.32734375,-0.37978125,1.2189375,0.019294132759561964,0.018934747414930148,True
29696,154326,0,154327,4828.0,41845.0,27535.0,-0.0035989999999999998,-0.002745,-0.002928,0.1925,-1.61,-4.095000000000001,0.971875,0.1438125,0.0859375,1.24675,0.93740625,-0.3265,-0.381,1.2253125,0.019333340184572383,0.019151695992781263,True
29697,154327,0,154328,4829.0,41845.0,27535.0,-0.005673,-0.000976,-0.000549,0.1925,-1.33,-4.0075,0.9795,0.14146875,0.08134375,1.24390625,0.9569375,-0.33187500000000003,-0.38246875,1.21978125,0.019453648763196427,0.01902237647695129,True
29698,154328,0,154329,4829.0,41844.0,27534.0,-0.0070149999999999995,-0.000244,0.0011589999999999999,0.28,-1.0675000000000001,-3.9375000000000004,0.972125,0.14065625,0.0801875,1.24009375,0.9398125,-0.33115625,-0.3805625,1.22834375,0.019391289717273504,0.018898251424674883,True
29699,154329,0,154330,4829.0,41844.0,27536.0,-0.005673,0.001281,0.000549,0.35000000000000003,-1.1725,-3.9200000000000004,0.9715312500000001,0.14015625,0.080875,1.243875,0.93390625,-0.329625,-0.38406250000000003,1.23,0.019309021409084606,0.019067269861205452,True
29700,154330,0,154331,4829.0,41841.0,27535.0,0.000549,0.002928,0.000915,0.22750000000000004,-1.8375000000000001,-4.0425,0.9717187500000001,0.1406875,0.07921875,1.24515625,0.9386875,-0.33090625,-0.38575,1.2286875,0.019382498339945722,0.019067231887475264,True
29701,154331,0,154332,4828.0,41843.0,27533.0,0.00366,0.0030499999999999998,0.00042699999999999997,0.2625,-2.205,-4.095000000000001,0.97240625,0.1426875,0.07915625,1.2489375,0.9440937500000001,-0.32865625,-0.378125,1.2317500000000001,0.019374014954072934,0.018757851557492627,True
29702,154332,0,154333,4830.0,41846.0,27536.0,0.00366,0.001586,0.000122,0.1925,-2.5025000000000004,-4.2,0.9717187500000001,0.1454375,0.079,1.24721875,0.9490937500000001,-0.3276875,-0.3841875,1.23359375,0.0194480054875746,0.018995404296329333,True
29703,154333,0,154334,4829.0,41846.0,27534.0,0.0055509999999999995,0.000305,-0.000366,0.29750000000000004,-2.6950000000000003,-4.2875000000000005,0.97159375,0.14400000000000002,0.08053125,1.2438125,0.9497187500000001,-0.32796875000000003,-0.38425,1.23228125,0.01940025305236386,0.019060715420814663,True
29704,154334,0,154335,4829.0,41845.0,27534.0,0.004514,-0.000549,-0.001037,0.31500000000000006,-2.7125000000000004,-4.305000000000001,0.9720625,0.1409375,0.08015625,1.244625,0.94403125,-0.328,-0.3824375,1.22509375,0.019275628904965474,0.018972416108930863,True
29705,154335,0,154336,4829.0,41843.0,27535.0,0.0035989999999999998,-0.0028669999999999998,-0.000976,0.12250000000000001,-2.5200000000000005,-4.1825,0.9716875,0.14159375,0.0806875,1.2469375,0.94440625,-0.32606250000000003,-0.38306250000000003,1.23028125,0.019224494305233326,0.01901935000986853,True
29706,154336,0,154337,4830.0,41843.0,27534.0,0.00042699999999999997,-0.002562,0.0,0.14,-2.2750000000000004,-4.2,0.97240625,0.14390625,0.08125,1.2477500000000001,0.9493125,-0.328125,-0.38306250000000003,1.22490625,0.019402697495183044,0.01904241930233333,True
29707,154337,0,154338,4828.0,41846.0,27533.0,-0.0028669999999999998,-0.001098,-0.000549,0.17500000000000002,-1.9600000000000002,-4.130000000000001,0.98021875,0.14421875,0.083875,1.24453125,0.9372812500000001,-0.32996875000000003,-0.38409375,1.22559375,0.01948985240681824,0.019191558021302308,True
29708,154338,0,154339,4831.0,41845.0,27533.0,-0.0025009999999999998,0.00042699999999999997,0.000732,0.29750000000000004,-1.5575,-4.095000000000001,0.97296875,0.14353125,0.08290625,1.243625,0.944125,-0.3300625,-0.38603125,1.2242187500000001,0.019465373342135887,0.01922975883990963,True
29709,154339,0,154340,4831.0,41843.0,27533.0,-0.0034159999999999998,0.000366,0.002806,0.36750000000000005,-1.2775,-3.9200000000000004,0.9674375000000001,0.1416875,0.08309375000000001,1.2356875,0.9442812500000001,-0.3295,-0.385875,1.2255625,0.019366920816292977,0.0192311635321677,True
29710,154340,0,154341,4832.0,41844.0,27534.0,-0.0023179999999999997,-6.1e-05,0.0017079999999999999,0.28,-1.225,-3.9375000000000004,0.9703437500000001,0.13925,0.08534375,1.24296875,0.9351875000000001,-0.3291875,-0.38703125,1.218375,0.01925413662087976,0.019369926382490694,True
29711,154341,0,154342,4833.0,41844.0,27533.0,-0.000915,0.0021349999999999997,0.00061,0.28,-1.3125000000000002,-3.99,0.97028125,0.1388125,0.08234375000000001,1.23934375,0.943625,-0.32890625,-0.385625,1.2250625,0.019224816158761763,0.019190352923084807,True
29712,154342,0,154343,4833.0,41844.0,27534.0,0.0011589999999999999,0.001769,-0.00061,0.28,-1.5225000000000002,-3.9375000000000004,0.9792500000000001,0.14103125,0.0839375,1.2421875,0.94434375,-0.33171875,-0.38559375,1.225,0.019429371383803292,0.01925445223165829,True
29713,154343,0,154344,4834.0,41845.0,27535.0,0.001586,0.000732,-0.000732,0.1925,-1.7325000000000002,-4.025,0.983875,0.1431875,0.08378125,1.2425,0.94453125,-0.33153125,-0.38296875,1.2253125,0.019510434634071785,0.01914245983684821,True
29714,154344,0,154345,4834.0,41844.0,27534.0,0.002379,-0.000366,-0.0023179999999999997,0.15750000000000003,-1.8025000000000002,-4.0600000000000005,0.9790625000000001,0.14646875,0.0825625,1.255875,0.9439062500000001,-0.33215625,-0.38209375,1.22490625,0.019670472073349436,0.01905727435733447,True
29715,154345,0,154346,4833.0,41846.0,27536.0,0.001037,-0.000183,-0.00122,0.28,-1.5575,-4.0600000000000005,0.9775625,0.14509375,0.08003125,1.2556875,0.949125,-0.32409375,-0.38340625,1.22484375,0.019289002288111968,0.019006265787824456,True
29716,154346,0,154347,4835.0,41844.0,27535.0,-0.000732,-0.000793,-0.000976,0.29750000000000004,-1.5575,-3.9550000000000005,0.971125,0.149125,0.07809375,1.25,0.94978125,-0.32740625,-0.38321875,1.22884375,0.01958824730852678,0.01891926183863646,True
29717,154347,0,154348,4835.0,41844.0,27537.0,-0.001586,-0.001647,0.000305,0.21000000000000002,-1.54,-3.9375000000000004,0.96878125,0.1430625,0.07875,1.23878125,0.94534375,-0.3279375,-0.38315625000000003,1.23046875,0.019360457498709044,0.01894366115953508,True
29718,154348,0,154349,4836.0,41844.0,27535.0,-0.0018909999999999999,-0.000732,-0.000244,0.2625,-1.5050000000000001,-3.99,0.9575,0.1438125,0.07975,1.2361875,0.948375,-0.32809375,-0.38365625000000003,1.22771875,0.01939758432573452,0.0190047893248167,True
29719,154349,0,154350,4836.0,41844.0,27537.0,-0.0006709999999999999,-0.0006709999999999999,0.0,0.29750000000000004,-1.6975000000000002,-3.99,0.96984375,0.13996875,0.08090625,1.2420625,0.9439062500000001,-0.32796875000000003,-0.3836875,1.225875,0.01923454871258004,0.01905346555971077,True
29720,154350,0,154351,4836.0,41844.0,27536.0,0.002562,0.00042699999999999997,0.000488,0.29750000000000004,-1.7675,-3.9200000000000004,0.97565625,0.14234375,0.0835,1.24309375,0.9446875,-0.32953125,-0.3843125,1.22540625,0.01939515378044943,0.01918497804684877,True
29721,154351,0,154352,4837.0,41844.0,27536.0,0.001464,0.0013419999999999999,0.00122,0.28,-1.6625,-3.9200000000000004,0.9784375000000001,0.143625,0.08225,1.250625,0.9439375,-0.3290625,-0.38315625000000003,1.22578125,0.019428923740896303,0.019087202871859547,True
29722,154352,0,154353,4839.0,41847.0,27538.0,0.001281,0.000793,0.0017079999999999999,0.2625,-1.4525000000000001,-3.8500000000000005,0.9708125,0.1435625,0.07868750000000001,1.24971875,0.9500000000000001,-0.32809375,-0.3813125,1.230625,0.019387308140408656,0.018866908826175786,True
29723,154353,0,154354,4839.0,41846.0,27537.0,-0.001098,-0.000122,0.001647,0.28,-1.3825,-3.9200000000000004,0.9702500000000001,0.14409375,0.08090625,1.2506875,0.9536250000000001,-0.3279375,-0.38328125,1.23078125,0.019402847035429945,0.019037122003421916,True
29724,154354,0,154355,4839.0,41846.0,27539.0,-0.001952,0.001037,0.00183,0.28,-1.3125000000000002,-3.9025000000000003,0.9790625000000001,0.14375000000000002,0.08159375,1.25075,0.9643125,-0.32803125,-0.381,1.240375,0.019392496053292435,0.018973534719658753,True
29725,154355,0,154356,4841.0,41845.0,27538.0,-0.0006709999999999999,-0.000122,0.0,0.21000000000000002,-1.1900000000000002,-3.9375000000000004,0.97909375,0.1443125,0.08140625,1.25034375,0.9655312500000001,-0.3195,-0.384125,1.24915625,0.019071629762125043,0.01909157084783645,True
29726,154356,0,154357,4842.0,41846.0,27540.0,-0.000183,-0.00183,-0.002013,0.28,-1.2775,-3.9550000000000005,0.97590625,0.14453125,0.081,1.251875,0.949625,-0.32503125,-0.385625,1.242625,0.019303675098053575,0.019135248737729708,True
29727,154357,0,154358,4844.0,41846.0,27539.0,-0.0011589999999999999,-0.001586,-0.0021349999999999997,0.21000000000000002,-1.2600000000000002,-3.9725000000000006,0.9721875,0.14321875,0.07790625,1.2510625,0.9316562500000001,-0.3266875,-0.39325,1.239,0.019316491404758666,0.019315025673085795,True
29728,154358,0,154359,4844.0,41848.0,27539.0,-0.000305,-0.00042699999999999997,-0.00183,0.1925,-1.155,-3.9025000000000003,0.9735,0.1454375,0.08190625,1.25084375,0.9335625000000001,-0.324,-0.38556250000000003,1.24459375,0.019299354546949515,0.019169898172330453,True
29729,154359,0,154360,4845.0,41849.0,27541.0,0.000732,0.000122,-0.0021349999999999997,0.15750000000000003,-1.12,-4.0075,0.977125,0.14421875,0.082125,1.246,0.95515625,-0.32325,-0.37809375,1.2226875,0.01921900856176703,0.018878373129564325,True
29730,154360,0,154361,4846.0,41846.0,27541.0,0.002745,-0.000366,0.0,0.14,-1.1725,-3.9725000000000006,0.9802500000000001,0.1441875,0.08134375,1.2494687500000001,0.96325,-0.3241875,-0.38225000000000003,1.2468125,0.019255524978994673,0.019013575449353528,True
29731,154361,0,154362,4849.0,41848.0,27540.0,0.002074,0.0008539999999999999,0.000183,0.21000000000000002,-1.12,-3.9200000000000004,0.9720625,0.1438125,0.078125,1.2438125,0.93675,-0.326375,-0.394125,1.2314375,0.019328301072395703,0.019359169472157742,True
29732,154362,0,154363,4849.0,41850.0,27542.0,0.000183,0.001403,0.001464,0.3325,-0.8400000000000001,-3.9200000000000004,0.972,0.14,0.08196875,1.2435,0.9324687500000001,-0.341375,-0.3821875,1.19621875,0.01977599868536597,0.01903669430808864,True
29733,154363,0,154364,4849.0,41848.0,27543.0,-0.001769,0.000549,0.002196,0.29750000000000004,-0.7000000000000001,-3.9375000000000004,0.974,0.14178125,0.07934375,1.244,0.949375,-0.34109375000000003,-0.38275000000000003,1.22265625,0.019837851370175182,0.01895166664957808,True
29734,154364,0,154365,4851.0,41848.0,27543.0,-0.002745,0.000732,0.0021349999999999997,0.22750000000000004,-0.5075000000000001,-3.9375000000000004,0.97284375,0.14300000000000002,0.07893750000000001,1.24865625,0.93196875,-0.32528125,-0.38340625,1.24046875,0.019250805167977246,0.01896140946263404,True
29735,154365,0,154366,4851.0,41849.0,27542.0,-0.002379,-0.000305,0.001403,0.2625,-0.5950000000000001,-4.0075,0.97128125,0.14371875,0.07796875,1.2510000000000001,0.94346875,-0.32534375,-0.38503125,1.23153125,0.019282872415728968,0.018987057890278485,True
29736,154366,0,154367,4855.0,41850.0,27545.0,-0.0008539999999999999,6.1e-05,0.000305,0.2625,-0.6125,-3.9550000000000005,0.97109375,0.144125,0.081875,1.24015625,0.939625,-0.32625,-0.37521875,1.2256562500000001,0.019336108113663222,0.018752395811832457,True
29737,154367,0,154368,4857.0,41849.0,27544.0,-0.001647,-0.000732,-0.0015249999999999999,0.28,-0.665,-3.9725000000000006,0.97709375,0.14403125,0.0813125,1.24903125,0.9484375,-0.3283125,-0.38246875,1.22465625,0.019415393073399564,0.019021094818382572,True
29738,154368,0,154369,4856.0,41849.0,27547.0,-0.000915,-0.000244,-0.001403,0.2625,-0.7000000000000001,-3.9550000000000005,0.97409375,0.14425,0.07853125,1.2500625,0.94296875,-0.32840625,-0.3826875,1.22865625,0.019428163322453562,0.01891582911030624,True
29739,154369,0,154370,4857.0,41850.0,27546.0,0.000244,-0.0017079999999999999,-0.003477,0.15750000000000003,-1.0150000000000001,-4.130000000000001,0.97140625,0.14428125,0.08184375,1.24646875,0.95225,-0.32365625000000003,-0.37459375,1.21528125,0.019237958931441486,0.018725953124859775,True
29740,154370,0,154371,4858.0,41851.0,27546.0,0.000122,-0.000244,-0.001647,0.1925,-1.155,-4.0600000000000005,0.9734375000000001,0.14365625,0.082,1.244,0.93596875,-0.33034375,-0.3835,1.22359375,0.019481845586337018,0.01909077860028298,True
29741,154371,0,154372,4861.0,41850.0,27543.0,0.001403,0.001769,-0.000183,0.22750000000000004,-1.2950000000000002,-4.1475,0.97175,0.14203125,0.0805625,1.2448125,0.9443125,-0.32828125,-0.38578125,1.23059375,0.019331924650451828,0.01912359276986461,True
29742,154372,0,154373,4861.0,41849.0,27545.0,0.000915,0.001037,0.001464,0.22750000000000004,-1.5225000000000002,-4.1825,0.9717187500000001,0.14400000000000002,0.08003125,1.24975,0.9499062500000001,-0.3279375,-0.38303125,1.2288125,0.01939899344118259,0.018991178547581117,True
29743,154373,0,154374,4861.0,41852.0,27545.0,0.001403,-0.000183,0.0028669999999999998,0.24500000000000002,-1.435,-4.1825,0.97203125,0.1444375,0.07971875,1.24853125,0.95265625,-0.32746875000000003,-0.3834375,1.23296875,0.01939808267146577,0.01899470696041114,True
29744,154374,0,154375,4863.0,41850.0,27546.0,0.000122,0.000915,0.0021349999999999997,0.21000000000000002,-1.4175000000000002,-4.130000000000001,0.97121875,0.1439375,0.08228125,1.24425,0.951125,-0.33071875,-0.382875,1.224,0.019508517396346955,0.019077169939968115,True
29745,154375,0,154376,4864.0,41849.0,27546.0,-0.000305,0.0008539999999999999,0.000366,0.24500000000000002,-1.54,-4.235,0.971875,0.14100000000000001,0.08546875,1.24515625,0.943875,-0.32837500000000003,-0.3836875,1.23225,0.019293314904920696,0.01924057835796985,True
29746,154376,0,154377,4866.0,41852.0,27547.0,-0.000366,-0.000305,-0.00061,0.21000000000000002,-1.4525000000000001,-4.2700000000000005,0.97228125,0.1446875,0.08215625,1.24034375,0.9519375,-0.3309375,-0.38234375,1.2241250000000001,0.019548157566883724,0.019050670631284163,True
29747,154377,0,154378,4865.0,41851.0,27544.0,0.000488,-0.0013419999999999999,-0.00042699999999999997,0.1925,-1.4525000000000001,-4.112500000000001,0.9700625,0.14940625,0.07428125000000001,1.2586875,0.9438125,-0.32575,-0.38390625,1.2245625,0.01953305653474199,0.018790570112202594,True
29748,154378,0,154379,4868.0,41850.0,27546.0,-0.000122,-0.001037,-0.0018909999999999999,0.12250000000000001,-1.3825,-4.077500000000001,0.98571875,0.14025,0.08509375,1.2386875,0.94571875,-0.331125,-0.3848125,1.23109375,0.019373333538831434,0.01927044753778607,True
29749,154379,0,154380,4868.0,41853.0,27548.0,-0.000488,0.000793,-0.000244,0.24500000000000002,-1.2950000000000002,-4.235,0.96540625,0.14353125,0.07903125,1.25375,0.9445,-0.328,-0.383,1.225125,0.019382244738572838,0.01894890907599557,True
29750,154380,0,154381,4869.0,41852.0,27547.0,0.000183,-0.000366,0.001464,0.15750000000000003,-1.12,-4.2,0.9851875,0.13678125,0.07834375,1.23821875,0.94371875,-0.32809375,-0.3818125,1.22709375,0.01910856661344459,0.018872930386122852,True
29751,154381,0,154382,4872.0,41852.0,27546.0,-0.00042699999999999997,-0.001403,0.001586,0.10500000000000001,-0.9800000000000001,-4.2,0.9551875,0.14153125,0.07453125000000001,1.2581875,0.9520625,-0.32771875,-0.382875,1.225375,0.01928869717798756,0.018759323910736533,True
29752,154382,0,154383,4873.0,41852.0,27549.0,-0.002074,-0.000732,0.000549,0.12250000000000001,-0.7875000000000001,-4.2,0.971375,0.1465625,0.08403125,1.24540625,0.94996875,-0.33225,-0.384,1.22553125,0.0196781021072856,0.01919419496391076,True
29753,154383,0,154384,4873.0,41854.0,27551.0,-0.0026839999999999998,0.001647,-0.000915,0.28,-0.8225000000000001,-4.2525,0.97759375,0.1460625,0.08990625000000001,1.24253125,0.9444375,-0.33187500000000003,-0.38540625,1.22496875,0.019642444324574248,0.019491678552617922,True
29754,154384,0,154385,4875.0,41853.0,27549.0,-0.000793,0.001647,-0.002928,0.2625,-1.1900000000000002,-4.2175,0.98446875,0.1463125,0.08071875,1.2594375,0.944875,-0.33037500000000003,-0.38253125,1.2251875,0.019592279198327196,0.018999257921590892,True
29755,154385,0,154386,4877.0,41853.0,27550.0,0.000549,-0.000366,-0.002013,0.1925,-1.4700000000000002,-4.1475,0.9655,0.14296875,0.07821875,1.23978125,0.9523125,-0.32809375,-0.383375,1.23046875,0.019362902200259734,0.018930675101375426,True
29756,154386,0,154387,4877.0,41853.0,27549.0,0.002745,-0.001647,-0.000488,0.035,-1.5925000000000002,-4.165,0.96515625,0.13959375000000002,0.078125,1.2510937500000001,0.94740625,-0.32821875,-0.38028125,1.22865625,0.01922921298954532,0.018802336416853273,True
29757,154387,0,154388,4879.0,41855.0,27550.0,0.00366,-0.000793,0.001586,0.0,-1.54,-4.2,0.965375,0.14553125,0.08253125,1.2476562500000001,0.9505,-0.330625,-0.38265625000000003,1.22496875,0.019570243263376915,0.019078622740293115,True
29758,154388,0,154389,4879.0,41855.0,27549.0,0.002196,-0.000793,0.003721,0.052500000000000005,-1.5050000000000001,-4.1475,0.978,0.14209375,0.080375,1.24221875,0.9432812500000001,-0.32859375,-0.3853125,1.2315625000000001,0.019347090293700187,0.019097048684530903,True
29759,154389,0,154390,4879.0,41855.0,27550.0,0.00061,0.000244,0.0021349999999999997,0.14,-1.2950000000000002,-4.0425,0.9695312500000001,0.14334375,0.079375,1.24915625,0.94446875,-0.32753125,-0.383875,1.2311875,0.01935564259114866,0.018998210907823308,True
29760,154390,0,154391,4881.0,41851.0,27548.0,0.000488,-0.000366,0.00061,0.15750000000000003,-1.1375000000000002,-3.9550000000000005,0.9735625,0.1443125,0.0806875,1.24975,0.9511875000000001,-0.33037500000000003,-0.37853125,1.2264375,0.019510077423796388,0.01883701463762301,True
29761,154391,0,154392,4879.0,41850.0,27547.0,0.001769,-0.000305,-0.000793,0.035,-1.0325000000000002,-4.130000000000001,0.9706250000000001,0.14325000000000002,0.078375,1.2436562500000001,0.9466875,-0.327375,-0.38134375,1.23103125,0.019345490419743195,0.01885534918476345,True
29762,154392,0,154393,4877.0,41849.0,27544.0,0.001952,-0.001586,-0.0025009999999999998,0.035,-0.8925000000000001,-4.0075,0.97115625,0.1425625,0.08159375,1.24325,0.9440000000000001,-0.3225,-0.38656250000000003,1.2239375000000001,0.019120670161373216,0.019197303843048814,True
29763,154393,0,154394,4875.0,41850.0,27544.0,0.000122,-6.1e-05,-0.002196,0.07,-0.7175,-4.0600000000000005,0.97771875,0.1441875,0.0813125,1.2486875,0.94484375,-0.3303125,-0.3763125,1.225,0.019502421105359827,0.01877334810176888,True
29764,154394,0,154395,4874.0,41849.0,27543.0,-0.004697,0.0011589999999999999,-0.000915,0.24500000000000002,-0.07,-4.1475,0.9714375000000001,0.14378125,0.0785,1.24753125,0.95159375,-0.32753125,-0.3834375,1.2316875,0.01937362633127848,0.018944724262114396,True
29765,154395,0,154396,4871.0,41846.0,27544.0,-0.005795,0.0,0.000183,0.12250000000000001,0.052500000000000005,-4.2700000000000005,0.97146875,0.14353125,0.08378125,1.232625,0.947625,-0.32771875,-0.38409375,1.22828125,0.019370907927813825,0.019187713301832266,True
29766,154396,0,154397,4867.0,41845.0,27545.0,-0.006161,0.000122,0.0030499999999999998,0.15750000000000003,-0.17500000000000002,-4.2700000000000005,0.97246875,0.14359375,0.08003125,1.23696875,0.94278125,-0.32515625,-0.38259375,1.22409375,0.019270174266609284,0.018973576180753942,True
29767,154397,0,154398,4865.0,41845.0,27543.0,-0.002562,-0.000976,0.0037819999999999998,0.10500000000000001,-0.6475000000000001,-4.357500000000001,0.9783125,0.14490625000000001,0.0823125,1.24409375,0.94484375,-0.3303125,-0.38546875,1.230375,0.019531962443967786,0.01918278687999385,True
29768,154398,0,154399,4862.0,41842.0,27542.0,0.00183,-0.000549,0.003294,0.10500000000000001,-0.9625000000000001,-4.4625,0.971875,0.1439375,0.07821875,1.2434687500000001,0.94384375,-0.3269375,-0.38271875,1.22728125,0.019356115006255926,0.018904270058071354,True
29769,154399,0,154400,4860.0,41843.0,27539.0,0.0071979999999999995,0.0008539999999999999,0.00042699999999999997,-0.10500000000000001,-1.3125000000000002,-4.48,0.971125,0.14625,0.07671875,1.2490625,0.95175,-0.3281875,-0.38309375,1.229625,0.019501555551559278,0.018857840793890236,True
29770,154400,0,154401,4858.0,41842.0,27541.0,0.009333,-0.000305,-0.000976,-0.17500000000000002,-1.2775,-4.4975000000000005,0.971875,0.14384375,0.08046875,1.2386875,0.9519375,-0.32790625,-0.38371875,1.23028125,0.01939131116143626,0.01903678043366539,True
29771,154401,0,154402,4855.0,41843.0,27537.0,0.008601,-0.00061,-0.001952,-0.10500000000000001,-0.7000000000000001,-4.550000000000001,0.972125,0.14240625,0.07818750000000001,1.24921875,0.94696875,-0.32559375,-0.384,1.22890625,0.019238995964898083,0.018954539862204724,True
29772,154402,0,154403,4854.0,41841.0,27538.0,0.00488,-0.000549,-0.0026839999999999998,-0.07,0.10500000000000001,-4.515000000000001,0.96265625,0.14359375,0.0813125,1.25071875,0.95125,-0.32809375,-0.3828125,1.2244375,0.019388592663574393,0.019034924703620636,True
29773,154403,0,154404,4851.0,41842.0,27540.0,-0.001647,-0.000366,-0.002806,-0.0175,0.665,-4.2700000000000005,0.97346875,0.14428125,0.082875,1.24390625,0.9498125000000001,-0.327625,-0.38334375,1.22684375,0.019397958082632397,0.019120378024445477,True
29774,154404,0,154405,4849.0,41841.0,27538.0,-0.009028,0.0015249999999999999,-0.000793,0.15750000000000003,1.7675,-4.165,0.97721875,0.14190625,0.081375,1.24853125,0.93384375,-0.331625,-0.3815,1.225125,0.01946155466394045,0.01898468100814142,True
29775,154405,0,154406,4848.0,41839.0,27537.0,-0.006344,-0.000549,0.001403,0.052500000000000005,1.9250000000000003,-4.130000000000001,0.97265625,0.14325000000000002,0.07943750000000001,1.2438125,0.9510937500000001,-0.32175,-0.38428125,1.2248125,0.019118690061364824,0.0190171178410272,True
29776,154406,0,154407,4845.0,41841.0,27537.0,-0.000976,-0.003172,0.000976,-0.08750000000000001,1.7325000000000002,-3.9725000000000006,0.9722500000000001,0.14325000000000002,0.0806875,1.2474687500000001,0.94459375,-0.33121875,-0.3825,1.22559375,0.01950041035244073,0.018996718958269248,True
29777,154407,0,154408,4845.0,41839.0,27535.0,0.004148,-0.0025009999999999998,0.000915,-0.21000000000000002,1.715,-3.9725000000000006,0.96903125,0.14190625,0.07990625,1.23421875,0.94315625,-0.32784375,-0.38609375,1.22959375,0.019309150651709527,0.019109251558585515,True
29778,154408,0,154409,4843.0,41842.0,27535.0,0.0060999999999999995,6.1e-05,0.00183,-0.07,2.1350000000000002,-3.99,0.97196875,0.14196875,0.07971875,1.24409375,0.94453125,-0.32790625,-0.3861875,1.22915625,0.01931423917748779,0.01910533370581195,True
29779,154409,0,154410,4842.0,41841.0,27534.0,0.0053679999999999995,0.002074,-0.000915,-0.07,3.5525,-3.535,0.9728125,0.14328125,0.08175,1.2433125,0.9441875000000001,-0.3288125,-0.38556250000000003,1.224625,0.019404718171098567,0.019163490692494792,True
29780,154410,0,154411,4842.0,41840.0,27537.0,0.001403,0.002013,-0.002623,0.0175,4.567500000000001,-3.4475000000000002,0.9761562500000001,0.144125,0.0825,1.24396875,0.94434375,-0.33190625,-0.38665625000000003,1.2235625,0.0195640754616174,0.019238236074287554,True
29781,154411,0,154412,4840.0,41842.0,27535.0,-0.0059169999999999995,0.0032329999999999998,-0.000183,0.12250000000000001,5.985,-3.1675000000000004,0.973875,0.14134375,0.08634375,1.2435,0.9431875000000001,-0.33271875,-0.38609375,1.2233125,0.019482512614830597,0.019373233976843873,True
29782,154412,0,154413,4838.0,41840.0,27537.0,-0.010919,0.000793,0.001403,0.29750000000000004,7.455000000000001,-2.6950000000000003,0.9755,0.14515625000000001,0.0815625,1.25,0.937,-0.3316875,-0.38275000000000003,1.21703125,0.01959764401873072,0.019042663358316843,True
29783,154413,0,154414,4839.0,41842.0,27540.0,-0.012931999999999999,-0.00122,0.003355,0.28,8.47,-2.4325,0.9726250000000001,0.1443125,0.07790625,1.233875,0.95634375,-0.32565625,-0.38475,1.2230625,0.019319879602425934,0.018973179958785717,True
29784,154414,0,154415,4837.0,41840.0,27541.0,-0.015372,-0.000549,0.00366,0.385,8.225000000000001,-2.345,0.99109375,0.1446875,0.08328125,1.261875,0.94175,-0.33315625,-0.38609375,1.2115,0.019637557293867295,0.01924765010796368,True
29785,154415,0,154416,4836.0,41841.0,27541.0,-0.014823,-0.00042699999999999997,0.004148,0.5075000000000001,7.192500000000001,-2.45,0.963,0.14928125,0.076,1.2339375000000001,0.95534375,-0.32937500000000003,-0.38225000000000003,1.23690625,0.0196740051892003,0.018794409867834184,True
29786,154416,0,154417,4836.0,41838.0,27542.0,-0.010003999999999999,0.001647,0.004148,0.385,5.7575,-2.6250000000000004,0.99534375,0.14881250000000001,0.07975,1.25853125,0.9419062500000001,-0.33334375,-0.38115625000000003,1.2158125,0.01981463192866784,0.018904199836707908,True
29787,154417,0,154418,4835.0,41836.0,27541.0,-0.004575,-0.000915,0.002074,0.385,4.2875000000000005,-2.66,0.96284375,0.135,0.08525,1.26453125,0.9490937500000001,-0.32696875000000003,-0.38503125,1.222625,0.018989984109713632,0.019285652955642614,True
29788,154418,0,154419,4834.0,41837.0,27539.0,0.0017079999999999999,-0.001403,-0.000366,0.14,3.1325000000000003,-2.8350000000000004,0.965875,0.1475,0.0803125,1.2643125,0.94675,-0.32846875000000003,-0.38234375,1.2224375,0.019564270768171552,0.01897505238806257,True
29789,154419,0,154420,4833.0,41836.0,27540.0,0.007808,-0.0015249999999999999,-0.004758,-0.035,1.4875,-3.2550000000000003,0.9586875,0.1526875,0.073375,1.25425,0.9567187500000001,-0.33046875000000003,-0.38175000000000003,1.2261875,0.0198580740455319,0.01866662565238344,True
29790,154420,0,154421,4834.0,41836.0,27538.0,0.00732,0.0006709999999999999,-0.007076,0.08750000000000001,1.3125000000000002,-3.2375000000000003,0.958125,0.138125,0.07203125,1.23078125,0.953375,-0.32728125,-0.383875,1.2321875,0.019131042438209164,0.018697038514182016,True
29791,154421,0,154422,4831.0,41835.0,27541.0,0.0037819999999999998,0.001952,-0.004209,0.24500000000000002,1.12,-3.2375000000000003,0.96690625,0.13690625,0.0879375,1.2286875,0.9469062500000001,-0.32684375,-0.386875,1.2241250000000001,0.019063303269664815,0.0194700017939978,True
29792,154422,0,154423,4831.0,41835.0,27542.0,0.001403,0.003355,-0.00183,0.36750000000000005,0.9275000000000001,-3.2900000000000005,0.99403125,0.1466875,0.07778125,1.23334375,0.9410625,-0.32871875,-0.38215625000000003,1.23059375,0.019540948904265665,0.0188636925825623,True
29793,154423,0,154424,4829.0,41837.0,27542.0,0.000183,-0.000366,-0.0013419999999999999,0.21000000000000002,0.7350000000000001,-3.3775000000000004,0.9849687500000001,0.1394375,0.0878125,1.262625,0.93790625,-0.33134375,-0.38415625000000003,1.22471875,0.01934875668344458,0.019355549774251468,True
29794,154424,0,154425,4828.0,41833.0,27541.0,-0.00061,-0.002257,0.0028669999999999998,0.43750000000000006,0.052500000000000005,-3.2025,0.9589375,0.1395625,0.082,1.23428125,0.944125,-0.327875,-0.37628125,1.2305625,0.019214070279463376,0.0188002938307089,True
29795,154425,0,154426,4828.0,41832.0,27539.0,-0.0017079999999999999,0.000244,0.002013,0.47250000000000003,-0.29750000000000004,-3.1850000000000005,0.9860625000000001,0.1436875,0.08715625,1.24465625,0.9439375,-0.3305625,-0.38646875,1.22415625,0.019491945572569478,0.01942163110433937,True
29796,154426,0,154427,4828.0,41831.0,27539.0,-0.00244,0.0006709999999999999,0.003294,0.7350000000000001,-0.6300000000000001,-3.0975,0.9739375,0.145625,0.079125,1.248125,0.94471875,-0.3310625,-0.3831875,1.2296875,0.01959172559767992,0.018960297951201008,True
29797,154427,0,154428,4827.0,41832.0,27541.0,-0.002806,0.001403,0.002013,0.6300000000000001,-0.9100000000000001,-2.9575000000000005,0.9715625,0.14240625,0.08178125,1.2472812500000001,0.94484375,-0.32775,-0.38403125,1.22434375,0.01932592409902272,0.019103178437732685,True
29798,154428,0,154429,4826.0,41835.0,27541.0,0.002928,-0.002196,0.001403,0.385,-1.4175000000000002,-2.8875,0.9750625,0.144125,0.07978125,1.24465625,0.95359375,-0.3273125,-0.38059375,1.23034375,0.019378938795643785,0.018882846116083617,True
29799,154429,0,154430,4825.0,41835.0,27540.0,0.004026,-0.0008539999999999999,-0.000305,0.45500000000000007,-2.1,-3.0625000000000004,0.9721875,0.14234375,0.0810625,1.2492812500000001,0.9395,-0.3309375,-0.38271875,1.229375,0.01945182958938594,0.019020899791988947,True
29800,154430,0,154431,4825.0,41833.0,27542.0,0.004392,0.000488,-0.001952,0.385,-2.1350000000000002,-3.1500000000000004,0.972125,0.14425,0.07993750000000001,1.2449375,0.9435625,-0.32746875000000003,-0.38390625,1.2297500000000001,0.01939037533446631,0.019022536637254336,True
29801,154431,0,154432,4824.0,41834.0,27539.0,0.003111,0.000244,-0.002013,0.42000000000000004,-2.1175,-3.1500000000000004,0.97521875,0.14609375,0.0824375,1.25028125,0.942625,-0.3258125,-0.382625,1.22459375,0.019399403411499615,0.01907352059099461,True
29802,154432,0,154433,4824.0,41834.0,27539.0,0.0008539999999999999,-0.000183,-0.002196,0.5075000000000001,-1.9075000000000002,-3.2025,0.971375,0.1443125,0.07893750000000001,1.2435625000000001,0.9464375,-0.3280625,-0.38375000000000004,1.224875,0.019416877114648977,0.018975239657558828,True
29803,154433,0,154434,4824.0,41834.0,27541.0,-0.0055509999999999995,0.0006709999999999999,-0.001952,0.525,-1.61,-3.2900000000000005,0.9771875,0.1410625,0.0818125,1.248875,0.94346875,-0.332,-0.3823125,1.22428125,0.019441989972053264,0.019035315046511687,True
29804,154434,0,154435,4825.0,41833.0,27541.0,-0.0053679999999999995,0.000122,0.000122,0.6125,-1.6800000000000002,-3.3425000000000002,0.9754375000000001,0.1439375,0.07784375,1.244125,0.9519062500000001,-0.327625,-0.38709375,1.227625,0.019383828055554126,0.01906489985097138,True
29805,154435,0,154436,4825.0,41834.0,27541.0,-0.00366,-0.00042699999999999997,0.003843,0.6125,-1.995,-3.4475000000000002,0.9722500000000001,0.14446875,0.08065625,1.2469375,0.94446875,-0.33025,-0.38246875,1.2305625,0.019511462068823787,0.018994179988439438,True
29806,154436,0,154437,4827.0,41834.0,27542.0,0.000122,-0.002074,0.0060999999999999995,0.525,-2.2925000000000004,-3.4475000000000002,0.97103125,0.1408125,0.079875,1.24403125,0.9449062500000001,-0.32809375,-0.38478125,1.22465625,0.019274270101824153,0.019055174013504837,True
29807,154437,0,154438,4826.0,41832.0,27540.0,0.003721,-0.000366,0.0060999999999999995,0.49000000000000005,-2.5725000000000002,-3.6225000000000005,0.976375,0.1466875,0.08175,1.24434375,0.941625,-0.3290625,-0.38475,1.22490625,0.01955480199863846,0.019130809214775626,True
29808,154438,0,154439,4828.0,41833.0,27541.0,0.0073809999999999995,0.002928,0.004575,0.36750000000000005,-2.4850000000000003,-3.9375000000000004,0.97409375,0.14931250000000001,0.08190625,1.24915625,0.94846875,-0.3303125,-0.383,1.2130625,0.01971306369369485,0.019066819095271297,True
29809,154439,0,154440,4827.0,41835.0,27539.0,0.0068319999999999995,0.000915,-0.001037,0.36750000000000005,-1.8375000000000001,-3.9550000000000005,0.9755312500000001,0.14325000000000002,0.07884375,1.24378125,0.9517187500000001,-0.3278125,-0.38440625,1.22653125,0.0193631260517155,0.01899779700397667,True
29810,154440,0,154441,4827.0,41834.0,27539.0,0.002745,-0.0013419999999999999,-0.00549,0.2625,-1.3125000000000002,-4.165,0.9773125,0.142875,0.0823125,1.24378125,0.9443125,-0.3276875,-0.38246875,1.2257500000000001,0.01934267282905537,0.019062107892581632,True
29811,154441,0,154442,4828.0,41832.0,27540.0,-0.000732,-0.0017079999999999999,-0.008905999999999999,0.2625,-0.5950000000000001,-4.322500000000001,0.9776875,0.14371875,0.07996875,1.24278125,0.95084375,-0.3273125,-0.38306250000000003,1.2246875,0.01936223945822211,0.018989872580607952,True
29812,154442,0,154443,4830.0,41834.0,27541.0,-0.003843,0.000305,-0.007076,0.36750000000000005,-0.12250000000000001,-4.48,0.96234375,0.14875,0.079125,1.24434375,0.94503125,-0.3278125,-0.38134375,1.22946875,0.019589204742514355,0.018886110409726698,True
29813,154443,0,154444,4829.0,41831.0,27541.0,-0.0042699999999999995,0.001586,0.00042699999999999997,0.21000000000000002,0.42000000000000004,-4.6025,0.9761875,0.14584375,0.08115625,1.2490625,0.94396875,-0.32937500000000003,-0.3831875,1.22875,0.01953271508207671,0.01904360330248045,True
29814,154444,0,154445,4829.0,41834.0,27542.0,-0.003355,0.0,0.003172,0.15750000000000003,0.5075000000000001,-4.760000000000001,0.97190625,0.14184375,0.0820625,1.24809375,0.94421875,-0.329625,-0.38290625,1.2251875,0.019378381294409594,0.019069455676556192,True
29815,154445,0,154446,4829.0,41832.0,27543.0,-0.0040869999999999995,-0.002745,0.002562,0.28,0.4025,-4.760000000000001,0.96703125,0.1445,0.08096875,1.24359375,0.9488125000000001,-0.327625,-0.3843125,1.22525,0.019406949918045844,0.0190811715524069,True
29816,154446,0,154447,4830.0,41830.0,27541.0,-0.003111,-0.002196,0.001952,0.21000000000000002,0.07,-4.812500000000001,0.97878125,0.14409375,0.088375,1.24378125,0.9448125,-0.32671875,-0.38384375,1.21865625,0.01935371986820047,0.01936605052269497,True
29817,154447,0,154448,4831.0,41833.0,27542.0,-0.000305,-0.002745,-0.000366,0.1925,-0.49000000000000005,-4.777500000000001,0.9799375,0.1450625,0.08059375,1.2441875,0.94034375,-0.33134375,-0.383375,1.2225,0.019579939969406747,0.019028077532335045,True
29818,154448,0,154449,4832.0,41834.0,27543.0,0.004575,0.000976,-0.00122,0.22750000000000004,-1.4700000000000002,-4.41,0.9725,0.1440625,0.08146875,1.2516562500000001,0.94434375,-0.3344375,-0.3834375,1.241125,0.01966349129705587,0.01906647698873467,True
29819,154449,0,154450,4835.0,41834.0,27542.0,0.005063,0.000793,-0.000732,0.4025,-1.8025000000000002,-4.2875000000000005,0.96896875,0.14228125,0.082125,1.24925,0.94171875,-0.3345625,-0.37990625,1.22228125,0.019595328660624165,0.018951313645843078,True
29820,154450,0,154451,4836.0,41835.0,27541.0,0.004941,-0.000366,-0.000488,0.36750000000000005,-1.8025000000000002,-4.0425,0.9729375,0.143625,0.079625,1.2443125,0.93940625,-0.32790625,-0.38246875,1.21875,0.019382319429975606,0.01895188525567166,True
29821,154451,0,154452,4838.0,41834.0,27542.0,0.001769,-0.000549,0.000549,0.49000000000000005,-1.61,-3.7450000000000006,0.97709375,0.14146875,0.0814375,1.25084375,0.9426875,-0.33290625,-0.3805625,1.2328125,0.01949520518125532,0.018949521775799883,True
29822,154452,0,154453,4839.0,41838.0,27542.0,-0.000122,0.000488,0.0021349999999999997,0.6475000000000001,-1.3650000000000002,-3.3600000000000003,0.9728125,0.14350000000000002,0.08159375,1.241875,0.9375,-0.32821875,-0.39059375,1.2191875,0.019389777560266306,0.01935940981346549,True
29823,154453,0,154454,4840.0,41836.0,27543.0,-0.003904,0.0017079999999999999,0.004392,0.6300000000000001,-1.2950000000000002,-2.8875,0.9728125,0.14796875,0.08184375,1.2438437500000001,0.93865625,-0.33334375,-0.37534375000000003,1.2190625,0.01977995728597719,0.01875614574666255,True
29824,154454,0,154455,4840.0,41836.0,27545.0,-0.002379,0.0021349999999999997,0.002745,0.5775,-1.225,-2.8525000000000005,0.9615312500000001,0.14146875,0.08165625,1.24396875,0.942875,-0.33440625,-0.380875,1.2197500000000001,0.019555644592725577,0.018971068511692054,True
29825,154455,0,154456,4841.0,41835.0,27543.0,-0.001586,-0.000488,0.0008539999999999999,0.49000000000000005,-1.2950000000000002,-2.9400000000000004,0.9772500000000001,0.1416875,0.081875,1.24353125,0.961375,-0.32937500000000003,-0.37996875,1.22209375,0.019361882498009096,0.01894357432267012,True
29826,154456,0,154457,4843.0,41838.0,27544.0,-0.00183,-0.0015249999999999999,-0.0017079999999999999,0.49000000000000005,-1.4700000000000002,-2.9400000000000004,0.9800625000000001,0.14190625,0.08215625,1.24425,0.962375,-0.332,-0.37990625,1.21825,0.019476666529672858,0.01895259543912315,True
29827,154457,0,154458,4846.0,41839.0,27544.0,-0.00183,-0.001037,-0.002623,0.45500000000000007,-1.435,-3.0100000000000002,0.97259375,0.1419375,0.07934375,1.2439375,0.93721875,-0.33596875,-0.3888125,1.21890625,0.019637856002753126,0.019195532787830486,True
29828,154458,0,154459,4846.0,41839.0,27546.0,-0.002806,0.00061,-0.001403,0.49000000000000005,-1.2600000000000002,-3.3950000000000005,0.972125,0.14425,0.07931250000000001,1.2436875,0.94265625,-0.3354375,-0.3838125,1.2180625,0.019711480428490344,0.01899313325182434,True
29829,154459,0,154460,4846.0,41838.0,27547.0,-0.002989,-0.00061,-0.000122,0.525,-1.1725,-3.5175000000000005,0.97428125,0.14253125,0.08534375,1.2431875000000001,0.9390937500000001,-0.33040625,-0.37990625,1.2195,0.01943812590470001,0.019083338353690346,True
29830,154460,0,154461,4847.0,41837.0,27547.0,-0.0018909999999999999,0.0006709999999999999,0.000488,0.385,-1.2425000000000002,-3.6750000000000003,0.9758125,0.14053125,0.08225,1.24353125,0.9398125,-0.3338125,-0.3823125,1.214375,0.019493194911401574,0.01905325838145992,True
29831,154461,0,154462,4848.0,41840.0,27551.0,-0.00061,0.000488,0.002379,0.36750000000000005,-1.12,-3.8325000000000005,0.9764375000000001,0.14253125,0.08196875,1.24521875,0.9434375,-0.32928125,-0.38346875,1.2250625,0.019392784157978363,0.01908823985512726,True
29832,154462,0,154463,4850.0,41840.0,27549.0,-0.000122,0.000793,0.003477,0.45500000000000007,-1.2600000000000002,-3.9025000000000003,0.9789375,0.1440625,0.08190625,1.24,0.94396875,-0.33003125,-0.3829375,1.21959375,0.01948594907785003,0.019064304700776927,True
29833,154463,0,154464,4850.0,41842.0,27550.0,0.001037,0.000549,0.002745,0.35000000000000003,-0.9625000000000001,-4.357500000000001,0.97278125,0.14475,0.08046875,1.2480625,0.9445,-0.3274375,-0.38346875,1.2297500000000001,0.019409668609774458,0.019026722766833575,True
29834,154464,0,154465,4852.0,41839.0,27550.0,0.002196,-0.000366,0.002379,0.12250000000000001,-0.8575,-4.6725,0.9725,0.14434375,0.08103125,1.244625,0.94875,-0.32759375,-0.3834375,1.23196875,0.019399267549837312,0.019048534481653785,True
29835,154465,0,154466,4855.0,41840.0,27553.0,0.001647,-0.000915,-0.000793,-0.08750000000000001,-0.5075000000000001,-4.8825,0.972375,0.1423125,0.07953125,1.2440625,0.94446875,-0.32803125,-0.3865,1.22475,0.019333407835868347,0.01911021466795153,True
29836,154466,0,154467,4854.0,41841.0,27550.0,0.000488,-0.000976,-0.001769,-0.14,-0.35000000000000003,-5.355,0.97740625,0.145125,0.081875,1.24934375,0.94415625,-0.3303125,-0.38271875,1.2260312500000001,0.019540953286152817,0.01905422257310826,True
29837,154467,0,154468,4856.0,41845.0,27554.0,0.000305,-0.0018909999999999999,-0.003294,-0.12250000000000001,-0.31500000000000006,-5.705000000000001,0.9715312500000001,0.14390625,0.08084375,1.24334375,0.95253125,-0.32740625,-0.3865,1.22540625,0.019373725877578914,0.019164035429438418,True
29838,154468,0,154469,4855.0,41845.0,27551.0,0.004575,-0.002745,-0.002989,-0.35000000000000003,-0.052500000000000005,-6.055000000000001,0.97875,0.1448125,0.08040625,1.2438125,0.94540625,-0.32253125,-0.38306250000000003,1.2294375,0.019214437230911152,0.019007815363636132,True
29839,154469,0,154470,4855.0,41843.0,27553.0,0.005795,-0.000122,-0.0006709999999999999,-0.4025,0.24500000000000002,-6.282500000000001,0.97246875,0.14425,0.08490625,1.253875,0.9439375,-0.329625,-0.38234375,1.23040625,0.019477283353113745,0.01916345716354688,True
29840,154470,0,154471,4854.0,41843.0,27553.0,0.0030499999999999998,0.000915,-0.000366,-0.385,0.5775,-6.44,0.973,0.1400625,0.081875,1.25009375,0.9460625,-0.3256875,-0.37828125,1.22340625,0.01914642700232008,0.018875664173412555,True
29841,154471,0,154472,4854.0,41841.0,27550.0,0.000305,0.001647,0.000793,-0.47250000000000003,1.05,-6.352500000000001,0.9718125,0.1445,0.0809375,1.25384375,0.9538125000000001,-0.3285,-0.38306250000000003,1.22540625,0.019442217974803215,0.019029603028741775,True
29842,154472,0,154473,4852.0,41839.0,27550.0,-0.0048189999999999995,-0.000915,0.000122,-0.47250000000000003,1.6450000000000002,-6.125000000000001,0.9687187500000001,0.144875,0.08475,1.2416562500000001,0.95303125,-0.3280625,-0.37809375,1.2338125,0.019439998561332206,0.018986051770352223,True
29843,154473,0,154474,4849.0,41836.0,27550.0,-0.007869,-0.00042699999999999997,-0.002013,-0.36750000000000005,2.1,-6.3875,0.969375,0.13984375000000002,0.082625,1.2304375,0.94471875,-0.32015625000000003,-0.38646875,1.2249375,0.018914352164164244,0.019235821094433773,True
29844,154474,0,154475,4845.0,41836.0,27548.0,-0.005429,0.000793,-0.0021349999999999997,-0.21000000000000002,2.24,-6.300000000000001,0.9821562500000001,0.1405,0.08246875000000001,1.24484375,0.94496875,-0.33115625,-0.38490625,1.22546875,0.01938486790984296,0.0191665694839405,True
29845,154475,0,154476,4844.0,41835.0,27548.0,-0.003111,0.000793,-0.0034159999999999998,-0.17500000000000002,2.0300000000000002,-6.2475000000000005,0.9796875,0.146,0.07965625,1.24621875,0.94959375,-0.3293125,-0.3833125,1.23140625,0.019536618636469896,0.01898711465064478,True
29846,154476,0,154477,4840.0,41836.0,27547.0,-0.002013,0.003111,-0.003843,-0.10500000000000001,1.2950000000000002,-6.4750000000000005,0.96940625,0.1391875,0.08334375000000001,1.24225,0.94665625,-0.32759375,-0.385875,1.2249375,0.01918731687140246,0.01924141536852789,True
29847,154477,0,154478,4837.0,41834.0,27548.0,-0.000305,0.002562,-0.000549,-0.31500000000000006,0.77,-6.755000000000001,0.9853437500000001,0.14521875,0.07790625,1.2416875,0.94678125,-0.3301875,-0.38284375,1.2279375000000001,0.019539769268115997,0.01889648331113962,True
29848,154478,0,154479,4833.0,41833.0,27545.0,0.00366,-0.0015249999999999999,0.0030499999999999998,-0.36750000000000005,-0.12250000000000001,-6.6675,0.98240625,0.14528125,0.079875,1.25071875,0.9440937500000001,-0.32934375,-0.37571875,1.2288125,0.01950833548479909,0.018690474511649017,True
29849,154479,0,154480,4831.0,41836.0,27545.0,0.004209,-0.000732,0.002745,-0.2625,-0.5075000000000001,-6.615,0.9693125,0.13859375000000002,0.08365625,1.245125,0.94415625,-0.32778125,-0.383875,1.22465625,0.01917046997452758,0.01917378800539291,True
29850,154480,0,154481,4828.0,41835.0,27545.0,0.005673,0.0008539999999999999,0.000732,-0.17500000000000002,-1.0150000000000001,-6.737500000000001,0.97528125,0.14734375,0.07996875,1.241625,0.94871875,-0.3276875,-0.38365625000000003,1.22828125,0.01952636270915598,0.019013760497874475,True
29851,154481,0,154482,4828.0,41835.0,27543.0,0.0023179999999999997,0.00061,-0.001586,-0.10500000000000001,-1.33,-6.6850000000000005,0.98121875,0.145375,0.080125,1.24825,0.94421875,-0.3274375,-0.3836875,1.22740625,0.01943535976610771,0.019021425696995175,True
29852,154482,0,154483,4823.0,41834.0,27545.0,-0.00042699999999999997,-0.001586,-0.002379,0.0,-1.3650000000000002,-6.125000000000001,0.9701875,0.14690625000000002,0.08265625,1.24971875,0.9440000000000001,-0.32765625,-0.38396875,1.22434375,0.01950711959768011,0.019136548475112362,True
29853,154483,0,154484,4825.0,41834.0,27543.0,0.0035989999999999998,-0.003538,-0.000976,0.15750000000000003,-1.9775000000000003,-5.5125,0.97075,0.14396875,0.0804375,1.23896875,0.9383750000000001,-0.32709375,-0.38284375,1.22996875,0.01936369814006246,0.019000296058576022,True
29854,154484,0,154485,4823.0,41837.0,27539.0,0.007259,-0.001952,-0.002013,0.1925,-2.4325,-5.32,0.97403125,0.1441875,0.08175,1.25034375,0.94440625,-0.33028125,-0.3795,1.2279375000000001,0.019501161746743063,0.018919584076785824,True
29855,154485,0,154486,4825.0,41835.0,27538.0,0.007442,0.000122,-0.000915,0.36750000000000005,-2.765,-4.9175,0.9722500000000001,0.14246875,0.0825,1.2434687500000001,0.9484375,-0.327375,-0.38721875,1.2254375,0.01931337639182197,0.01926085769825639,True
29856,154486,0,154487,4823.0,41837.0,27538.0,0.007137,0.002989,-0.001281,0.5775,-2.8175000000000003,-4.7250000000000005,0.97840625,0.1441875,0.079,1.24390625,0.9315625000000001,-0.33071875,-0.38478125,1.22034375,0.019518792472992604,0.01901929097682597,True
29857,154487,0,154488,4824.0,41837.0,27535.0,0.004392,0.002257,-0.002013,0.8575,-2.8525000000000005,-4.235,0.97221875,0.14059375,0.081875,1.23634375,0.9319375,-0.34018750000000003,-0.37975000000000003,1.2191875,0.019752569695693598,0.018934771685517694,True
29858,154488,0,154489,4824.0,41838.0,27534.0,-0.0044529999999999995,0.002074,0.0040869999999999995,0.9625000000000001,-2.3625000000000003,-3.4650000000000003,0.977125,0.1443125,0.0813125,1.24121875,0.96246875,-0.32378125,-0.38546875,1.2393125,0.019244283822031166,0.019141778851390748,True
29859,154489,0,154490,4825.0,41836.0,27532.0,-0.006588,0.003538,0.008113,1.0325000000000002,-2.3625000000000003,-3.115,0.97284375,0.14096875,0.0805,1.244375,0.93021875,-0.33496875,-0.38471875,1.2140625,0.019557760886789715,0.019078290579012728,True
29860,154490,0,154491,4827.0,41835.0,27530.0,-0.008235,0.0040869999999999995,0.009516,1.1025,-2.3625000000000003,-2.8000000000000003,0.9722500000000001,0.14075000000000001,0.07990625,1.24425,0.9383750000000001,-0.339625,-0.387625,1.214375,0.019736335296866733,0.01917083971891482,True
29861,154491,0,154492,4827.0,41836.0,27533.0,-0.007259,0.001281,0.0070149999999999995,0.9100000000000001,-2.2225,-2.5375,0.9721875,0.143875,0.07925,1.25134375,0.93371875,-0.33187500000000003,-0.39325,1.24053125,0.019552541676299093,0.019370112633617907,True
29862,154492,0,154493,4829.0,41839.0,27531.0,-0.0040869999999999995,-0.0042699999999999995,-0.000793,0.7175,-2.1350000000000002,-2.4850000000000003,0.97259375,0.14409375,0.07956250000000001,1.24353125,0.9314375,-0.32865625,-0.38746875000000003,1.2041250000000001,0.019431817160062013,0.019150460213301145,True
29863,154493,0,154494,4831.0,41840.0,27532.0,-0.004331,-0.0021349999999999997,-0.0034159999999999998,0.7000000000000001,-2.0825,-2.66,0.9718125,0.14009375,0.08565625,1.24440625,0.93021875,-0.33365625,-0.388625,1.206875,0.01946891971895921,0.019446822032812425,True
29864,154494,0,154495,4834.0,41840.0,27534.0,-0.004575,0.000183,-0.0059169999999999995,0.56,-1.9425000000000001,-2.7125000000000004,0.97728125,0.14690625000000002,0.0814375,1.2445,0.93740625,-0.33668750000000003,-0.376875,1.220625,0.019870976689000917,0.01880111786272851,True
29865,154495,0,154496,4833.0,41840.0,27534.0,-0.005307,0.000366,-0.00671,0.7175,-2.0125,-2.9225000000000003,0.97975,0.14478125,0.085875,1.24409375,0.97059375,-0.33196875000000003,-0.378,1.225,0.019593564536367406,0.019028427270489787,True
29866,154496,0,154497,4833.0,41841.0,27534.0,-0.0050019999999999995,0.0006709999999999999,-0.006161,0.6825000000000001,-2.1875,-3.22,0.97709375,0.14428125,0.08190625,1.246,0.96546875,-0.329,-0.378125,1.2218437500000001,0.01945337868387521,0.018870657607998973,True
29867,154497,0,154498,4836.0,41842.0,27534.0,0.00122,-0.000793,-0.001586,0.6300000000000001,-2.9575000000000005,-3.9025000000000003,0.9769375,0.14459375,0.0814375,1.24340625,0.9590000000000001,-0.32771875,-0.37746875,1.22528125,0.019414582388659028,0.018825016440642554,True
29868,154498,0,154499,4836.0,41842.0,27534.0,0.003477,-0.000793,0.001952,0.385,-3.325,-4.165,0.97565625,0.14375000000000002,0.0811875,1.24471875,0.94446875,-0.32509375,-0.38353125,1.22746875,0.01927407782344107,0.019058714065461703,True
29869,154499,0,154500,4837.0,41843.0,27533.0,0.0068319999999999995,0.00042699999999999997,0.0037819999999999998,0.4025,-3.6750000000000003,-4.1825,0.9725312500000001,0.1430625,0.08015625,1.24609375,0.9423750000000001,-0.3278125,-0.38565625000000003,1.22959375,0.019355418823620088,0.019101905449028053,True
29870,154500,0,154501,4838.0,41844.0,27533.0,0.008723,0.001281,0.003477,0.5075000000000001,-3.8850000000000002,-4.2175,0.9720625,0.14396875,0.0811875,1.25025,0.95128125,-0.32546875000000003,-0.37990625,1.2314375,0.01929818926922015,0.018912859847440962,True
29871,154501,0,154502,4840.0,41845.0,27532.0,0.008113,0.0013419999999999999,0.0025009999999999998,0.6825000000000001,-3.8675,-4.2875000000000005,0.9725,0.14350000000000002,0.079125,1.24990625,0.95153125,-0.32671875,-0.3839375,1.2283125,0.019329312548573778,0.018990472724103726,True
29872,154502,0,154503,4842.0,41848.0,27531.0,0.003965,0.000915,-0.00122,0.7000000000000001,-3.5000000000000004,-4.4275,0.9726875,0.14340625,0.081875,1.248625,0.95003125,-0.32356250000000003,-0.38221875,1.2314375,0.019198205443795496,0.019034106565876,True
29873,154503,0,154504,4843.0,41848.0,27529.0,0.000549,0.0006709999999999999,0.000976,0.77,-3.3075,-4.357500000000001,0.97209375,0.14384375,0.07943750000000001,1.2495625000000001,0.9485625,-0.3276875,-0.382625,1.2300312500000001,0.019382493712154104,0.01895048215686375,True
29874,154504,0,154505,4846.0,41847.0,27531.0,0.00061,0.001586,0.0028669999999999998,0.7175,-3.08,-4.2525,0.97265625,0.14346875,0.08115625,1.248875,0.95196875,-0.32553125,-0.38290625,1.2249375,0.01928015446733563,0.019032288244966694,True
29875,154505,0,154506,4846.0,41850.0,27530.0,0.00122,6.1e-05,0.003538,0.56,-3.1325000000000003,-4.1825,0.9724375000000001,0.14475,0.08034375,1.249875,0.95028125,-0.3278125,-0.38115625000000003,1.23221875,0.019424783876478825,0.01892855266041782,True
29876,154506,0,154507,4849.0,41852.0,27530.0,0.003965,-0.001464,0.005612,0.45500000000000007,-3.1325000000000003,-4.112500000000001,0.973125,0.14446875,0.07956250000000001,1.250375,0.9525625,-0.32725,-0.38278125,1.2186875,0.019390549692217575,0.01896189549746299,True
29877,154507,0,154508,4851.0,41853.0,27532.0,0.0050019999999999995,0.000915,0.0015249999999999999,0.24500000000000002,-2.1700000000000004,-4.077500000000001,0.9696250000000001,0.15115625,0.079125,1.244,0.95315625,-0.32690625,-0.38325000000000004,1.2313125,0.019651594620668216,0.018962812586509184,True
29878,154508,0,154509,4853.0,41857.0,27532.0,0.001281,-0.0011589999999999999,-0.00366,0.12250000000000001,-1.225,-4.1825,0.98165625,0.14759375,0.08775000000000001,1.2440625,0.94503125,-0.331125,-0.38153125,1.2258437500000001,0.019675158875719884,0.019247406784592334,True
29879,154509,0,154510,4855.0,41855.0,27533.0,-0.0051849999999999995,-0.0025009999999999998,-0.007686,0.12250000000000001,-0.10500000000000001,-4.2700000000000005,0.98028125,0.14525,0.077875,1.252625,0.9450000000000001,-0.33075,-0.3829375,1.2251875,0.019563720805975977,0.01889897392387607,True
29880,154510,0,154511,4855.0,41856.0,27532.0,-0.011101999999999999,-0.0021349999999999997,-0.007625,0.10500000000000001,1.0150000000000001,-4.2175,0.9667187500000001,0.14609375,0.079875,1.2609375,0.95359375,-0.3268125,-0.38134375,1.225,0.019439712868260073,0.018916871634689948,True
29881,154511,0,154512,4856.0,41857.0,27535.0,-0.012565999999999999,-0.001647,-0.006527,0.08750000000000001,1.6625,-4.340000000000001,0.9627187500000001,0.14715625000000002,0.08284375000000001,1.246625,0.9499062500000001,-0.32903125,-0.3826875,1.22496875,0.01957280974761377,0.019092696406005288,True
29882,154512,0,154513,4860.0,41860.0,27538.0,-0.0070149999999999995,0.00061,-0.0013419999999999999,0.0175,1.2075,-4.795000000000001,0.9878750000000001,0.1446875,0.0846875,1.2383125,0.9450000000000001,-0.3306875,-0.3859375,1.2296875,0.01953808333611617,0.019299032485423206,True
29883,154513,0,154514,4859.0,41860.0,27540.0,-0.002562,0.0011589999999999999,-0.002745,0.0,0.5950000000000001,-5.11,0.966375,0.14553125,0.07975,1.25759375,0.95225,-0.32696875000000003,-0.38315625000000003,1.225625,0.019422888435288513,0.01898467307734207,True
29884,154514,0,154515,4860.0,41861.0,27542.0,0.0008539999999999999,0.000915,-0.000305,0.0175,-0.10500000000000001,-5.407500000000001,0.9873125,0.139875,0.085375,1.23821875,0.94446875,-0.3294375,-0.38646875,1.2264375,0.019289903434882127,0.019348588548721308,True
29885,154515,0,154516,4862.0,41864.0,27540.0,0.0023179999999999997,0.00122,0.00042699999999999997,-0.0175,-0.45500000000000007,-5.652500000000001,0.975125,0.13978125,0.08153125,1.25875,0.94425,-0.32740625,-0.38253125,1.22428125,0.01920416402796743,0.019032580958960117,True
29886,154516,0,154517,4863.0,41865.0,27542.0,0.002806,0.00061,0.002745,0.12250000000000001,-0.8575,-5.5125,0.990375,0.13925,0.07896875,1.25365625,0.9445,-0.33015625,-0.38684375,1.2321875,0.019293186824478368,0.019100975295337264,True
29887,154517,0,154518,4865.0,41864.0,27543.0,0.004514,0.001464,0.0026839999999999998,0.22750000000000004,-1.9075000000000002,-5.460000000000001,0.9794375000000001,0.1460625,0.085125,1.2376875,0.95225,-0.32946875000000003,-0.38521875,1.2325,0.019545484321354122,0.019288067694697222,True
29888,154518,0,154519,4866.0,41868.0,27543.0,0.006039,0.001586,0.0030499999999999998,0.22750000000000004,-2.5900000000000003,-5.32,0.96675,0.146375,0.08334375000000001,1.2398125,0.94978125,-0.32634375,-0.3776875,1.22478125,0.019432379763193966,0.01891201739295411,True
29889,154519,0,154520,4867.0,41868.0,27543.0,0.006588,0.0006709999999999999,0.0008539999999999999,0.24500000000000002,-2.8525000000000005,-5.1275,0.97475,0.13690625,0.07803125,1.2475625000000001,0.9454375,-0.3274375,-0.38306250000000003,1.23128125,0.019087244597792104,0.01891041168434031,True
29890,154520,0,154521,4870.0,41869.0,27543.0,0.0046359999999999995,-0.000305,-0.000366,0.28,-2.87,-4.9,0.968,0.14559375,0.08378125,1.24203125,0.94825,-0.3276875,-0.38303125,1.22553125,0.01945442821065504,0.01914497402778828,True
29891,154521,0,154522,4872.0,41870.0,27545.0,0.0011589999999999999,0.000183,0.0006709999999999999,0.525,-2.87,-4.795000000000001,0.9699375,0.14746875,0.08271875000000001,1.24684375,0.9449375,-0.32706250000000003,-0.382,1.23225,0.0195063111298374,0.01905991099991797,True
29892,154522,0,154523,4874.0,41872.0,27545.0,-0.001464,-0.000976,-0.000244,0.35000000000000003,-2.66,-4.165,0.97290625,0.14403125,0.07993750000000001,1.2423125,0.94271875,-0.32721875,-0.38325000000000004,1.2315625000000001,0.019371306060212905,0.018996134641608483,True
29893,154523,0,154524,4876.0,41874.0,27546.0,-0.0037819999999999998,-0.0011589999999999999,-0.00042699999999999997,0.5775,-2.9575000000000005,-4.0425,0.97184375,0.14028125,0.08221875000000001,1.23640625,0.945375,-0.327625,-0.38606250000000003,1.22503125,0.01923353594935798,0.01920282333402533,True
29894,154524,0,154525,4878.0,41874.0,27545.0,-0.001281,0.000122,-0.0026839999999999998,0.56,-3.3425000000000002,-4.0425,0.9785312500000001,0.14428125,0.08184375,1.2470937500000001,0.94384375,-0.32971875,-0.3828125,1.2189375,0.019482346050547748,0.01905671259211791,True
29895,154525,0,154526,4881.0,41873.0,27547.0,0.0025009999999999998,-0.001586,-0.0018909999999999999,0.31500000000000006,-3.7975000000000003,-3.9375000000000004,0.9793125,0.14175000000000001,0.0820625,1.244375,0.945125,-0.3310625,-0.37965625000000003,1.224875,0.019432464159754633,0.018938689916926127,True
29896,154526,0,154527,4882.0,41876.0,27548.0,0.003965,-0.002806,-0.0013419999999999999,0.35000000000000003,-4.1825,-3.8850000000000002,0.96865625,0.14215625,0.0825625,1.2444375,0.9450937500000001,-0.32790625,-0.3836875,1.2271875,0.019321946375882637,0.019121390068667834,True
29897,154527,0,154528,4886.0,41878.0,27550.0,0.0032329999999999998,0.002074,-0.003111,0.45500000000000007,-4.532500000000001,-3.8850000000000002,0.9728125,0.14109375,0.08234375000000001,1.24465625,0.93984375,-0.32771875,-0.38621875,1.22509375,0.019270713576463063,0.019214233448963874,True
29898,154528,0,154529,4887.0,41879.0,27547.0,-0.001281,0.002379,-0.0017079999999999999,0.5950000000000001,-4.077500000000001,-3.6225000000000005,0.97975,0.14134375,0.0874375,1.2452812500000001,0.9449062500000001,-0.33087500000000003,-0.38021875,1.22546875,0.019408210761018667,0.019181790565353313,True
29899,154529,0,154530,4890.0,41879.0,27550.0,-0.004209,0.002989,-6.1e-05,0.8400000000000001,-4.025,-3.3950000000000005,0.9781562500000001,0.14421875,0.0810625,1.250625,0.9470000000000001,-0.3299375,-0.3825625,1.22953125,0.019488593014264834,0.01901461341481233,True
29900,154530,0,154531,4893.0,41881.0,27553.0,-0.0034159999999999998,0.001464,0.0018909999999999999,0.7525000000000001,-4.025,-3.4475000000000002,0.9723125,0.14359375,0.07925,1.23553125,0.95353125,-0.3274375,-0.3833125,1.23240625,0.019362139970557937,0.01897045366580115,True
29901,154531,0,154532,4893.0,41880.0,27554.0,-0.003111,-0.0011589999999999999,0.001281,0.7350000000000001,-4.2,-3.3950000000000005,0.97296875,0.1445625,0.08209375000000001,1.248625,0.9445625,-0.32865625,-0.38046875,1.2245625,0.019451084562058376,0.0189726663889512,True
29902,154532,0,154533,4897.0,41883.0,27550.0,0.003111,0.00122,0.004209,0.8225000000000001,-5.0575,-3.325,0.97490625,0.14409375,0.080125,1.2318125,0.9539375,-0.32725,-0.382625,1.23096875,0.01937513487961031,0.018978678464685404,True
29903,154533,0,154534,4897.0,41883.0,27552.0,0.0068319999999999995,6.1e-05,0.003904,0.8400000000000001,-5.250000000000001,-3.115,0.97646875,0.1451875,0.08090625,1.2492812500000001,0.94515625,-0.32996875000000003,-0.38240625,1.2314687500000001,0.019529669556192918,0.01900191864779548,True
29904,154534,0,154535,4901.0,41886.0,27553.0,0.008662,-0.0013419999999999999,0.002928,0.6825000000000001,-5.250000000000001,-2.8875,0.9726875,0.14128125,0.08,1.24371875,0.9468125000000001,-0.32825,-0.38459375,1.2248125,0.01929983660970271,0.019052757440340788,True
29905,154535,0,154536,4905.0,41886.0,27550.0,0.012078,-0.003477,0.00122,0.45500000000000007,-5.040000000000001,-2.8350000000000004,0.9793437500000001,0.14453125,0.08203125,1.25040625,0.94465625,-0.328125,-0.38221875,1.22490625,0.019428387925497753,0.019040514924426228,True
29906,154536,0,154537,4907.0,41887.0,27554.0,0.016287,-0.003477,-0.0017079999999999999,0.2625,-4.375,-2.8525000000000005,0.9729375,0.143375,0.07978125,1.24415625,0.950875,-0.32684375,-0.38296875,1.23115625,0.019329213227671595,0.018978410904127496,True
29907,154537,0,154538,4910.0,41892.0,27552.0,0.013542,0.0,-0.004026,0.31500000000000006,-1.7850000000000001,-2.5725000000000002,0.97278125,0.14290625,0.082625,1.24503125,0.9450937500000001,-0.32834375,-0.38556250000000003,1.2245625,0.0193704102853282,0.019199372579574495,True
29908,154538,0,154539,4912.0,41893.0,27554.0,0.004026,0.001281,-0.002928,0.43750000000000006,0.47250000000000003,-2.4325,0.97428125,0.1436875,0.08153125,1.24515625,0.9514375,-0.327,-0.38346875,1.22996875,0.019348357791754017,0.0190702973710416,True
29909,154539,0,154540,4915.0,41894.0,27553.0,-0.011956,0.003965,-0.002257,0.7175,2.7125000000000004,-2.0475000000000003,0.97284375,0.14171875,0.0820625,1.24846875,0.9445625,-0.33134375,-0.3815625,1.22034375,0.019442514349418124,0.01901539329154971,True
29910,154540,0,154541,4918.0,41896.0,27555.0,-0.02501,0.005063,0.001586,0.8925000000000001,4.6375,-1.9425000000000001,0.9731875,0.14440625,0.08134375,1.244125,0.95084375,-0.32709375,-0.38559375,1.2254375,0.019381682203613,0.019148088202691392,True
29911,154541,0,154542,4922.0,41896.0,27555.0,-0.032513,0.004392,0.0035989999999999998,1.0325000000000002,5.7575,-1.9425000000000001,0.96690625,0.144125,0.0825625,1.2395,0.93340625,-0.32875,-0.38396875,1.2251875,0.019436880234290705,0.01913270373593306,True
29912,154542,0,154543,4920.0,41896.0,27560.0,-0.025315,-6.1e-05,0.0046359999999999995,0.6825000000000001,4.322500000000001,-2.5900000000000003,0.975375,0.1426875,0.082625,1.24409375,0.93578125,-0.329625,-0.38609375,1.22546875,0.01941306123707209,0.019220739278917928,True
29913,154543,0,154544,4921.0,41896.0,27561.0,-0.014823,-0.001403,0.002989,0.4025,2.4675000000000002,-2.9050000000000002,0.976625,0.14490625000000001,0.08209375000000001,1.2461875,0.9442812500000001,-0.331125,-0.38284375,1.22228125,0.01956470364605007,0.01906822291800972,True
29914,154544,0,154545,4923.0,41893.0,27562.0,-0.002806,-0.0025009999999999998,0.0021349999999999997,0.22750000000000004,0.45500000000000007,-3.4650000000000003,0.97803125,0.14459375,0.08221875000000001,1.24428125,0.9547187500000001,-0.33359375,-0.3813125,1.21075,0.019651330786271553,0.019011743112681074,True
29915,154545,0,154546,4922.0,41893.0,27561.0,0.009699,-0.001952,0.0011589999999999999,0.07,-1.1375000000000002,-3.9200000000000004,0.9805,0.15046875,0.0813125,1.25634375,0.9521875,-0.32928125,-0.38134375,1.2281250000000001,0.019719037117054167,0.018975830649202836,True
29916,154546,0,154547,4922.0,41895.0,27560.0,0.014761999999999999,-0.002745,-0.00061,0.035,-2.1350000000000002,-4.0425,0.9735312500000001,0.13978125,0.08209375000000001,1.24409375,0.953125,-0.32640625,-0.38325000000000004,1.21540625,0.019163845872219615,0.01908456624937201,True
29917,154547,0,154548,4921.0,41896.0,27561.0,0.016409,-0.0017079999999999999,-0.003843,-0.08750000000000001,-2.6250000000000004,-4.2875000000000005,0.986,0.13809375000000002,0.08696875,1.234875,0.9411875000000001,-0.32853125,-0.3851875,1.23215625,0.019180154987777982,0.019362420321762955,True
29918,154548,0,154549,4923.0,41896.0,27559.0,0.012931999999999999,-0.00122,-0.005612,0.0,-2.24,-4.340000000000001,0.98975,0.13496875,0.080375,1.2334687500000001,0.9418125,-0.32725,-0.38578125,1.23696875,0.019000041106166952,0.019115903863034942,True
29919,154549,0,154550,4922.0,41898.0,27559.0,0.00671,-0.001464,-0.004758,0.10500000000000001,-1.8200000000000003,-4.357500000000001,0.95909375,0.1494375,0.07803125,1.243125,0.95246875,-0.32656250000000003,-0.38228125,1.229375,0.019567088444986832,0.01887897589566194,True
29920,154550,0,154551,4921.0,41899.0,27560.0,0.002806,0.002562,-0.0025009999999999998,0.08750000000000001,-1.1725,-4.340000000000001,0.96,0.14528125,0.08315625,1.2336562500000001,0.9541875,-0.32653125,-0.38321875,1.23334375,0.019394976421062908,0.019126884140347546,True
29921,154551,0,154552,4921.0,41899.0,27556.0,-0.000549,0.00183,6.1e-05,0.15750000000000003,-0.6475000000000001,-4.1825,0.98740625,0.142125,0.08471875,1.26703125,0.942875,-0.32865625,-0.38503125,1.2221250000000001,0.019350894071677303,0.019263867049586002,True
29922,154552,0,154553,4919.0,41900.0,27558.0,-0.008601,0.000793,0.0017079999999999999,0.36750000000000005,-0.4025,-4.305000000000001,0.956125,0.14415625,0.0820625,1.2295625000000001,0.95746875,-0.327,-0.38378125,1.23425,0.019367626505528836,0.019104655886789505,True
29923,154553,0,154554,4919.0,41900.0,27557.0,-0.0060999999999999995,0.002013,0.001769,0.3325,-0.56,-4.0600000000000005,0.97021875,0.13559375,0.0885625,1.241625,0.9430000000000001,-0.326375,-0.387375,1.22671875,0.01899044761087503,0.019515733038098608,True
29924,154554,0,154555,4919.0,41902.0,27560.0,-0.002745,0.000732,0.000732,0.35000000000000003,-1.225,-3.9200000000000004,0.985625,0.15234375,0.07906250000000001,1.25203125,0.9435,-0.32853125,-0.38146875,1.2288125,0.01976588701794318,0.018888577005845886,True
29925,154555,0,154556,4918.0,41902.0,27559.0,-0.0017079999999999999,0.000732,0.000915,0.36750000000000005,-1.9775000000000003,-4.025,0.960875,0.1395,0.08165625,1.23828125,0.948875,-0.32690625,-0.3854375,1.22996875,0.019172444091611528,0.01915461840698983,True
29926,154556,0,154557,4918.0,41902.0,27559.0,0.002745,-0.002013,0.0006709999999999999,0.2625,-2.45,-3.99,0.99390625,0.1475625,0.08459375,1.2629062500000001,0.94415625,-0.3305,-0.38415625000000003,1.217875,0.019648691970982925,0.019223548077452957,True
29927,154557,0,154558,4917.0,41903.0,27558.0,0.002196,-0.002257,0.001037,0.29750000000000004,-3.115,-3.7100000000000004,0.96896875,0.141875,0.08259375000000001,1.23390625,0.951625,-0.3274375,-0.3839375,1.23140625,0.019291489290641485,0.019132728256049707,True
29928,154558,0,154559,4917.0,41905.0,27558.0,0.0026839999999999998,-0.000732,0.00042699999999999997,0.385,-3.4125000000000005,-3.5175000000000005,0.97821875,0.14246875,0.085875,1.24753125,0.944625,-0.32821875,-0.38506250000000003,1.22509375,0.019347388513595964,0.019312540207760385,True
29929,154559,0,154560,4919.0,41904.0,27560.0,0.003843,0.000305,0.0006709999999999999,0.47250000000000003,-3.5875000000000004,-3.43,0.97365625,0.1459375,0.0820625,1.243875,0.94815625,-0.32953125,-0.38190625,1.2245,0.0195428652165257,0.01902922377121354,True
29930,154560,0,154561,4919.0,41907.0,27559.0,0.003721,-0.000244,-0.000122,0.36750000000000005,-3.6225000000000005,-3.5175000000000005,0.972,0.14403125,0.0805625,1.244125,0.95040625,-0.32790625,-0.38621875,1.21634375,0.01939901835983111,0.01914119014453604,True
29931,154561,0,154562,4919.0,41907.0,27559.0,-0.000793,0.0013419999999999999,-0.0011589999999999999,0.385,-3.115,-3.6925000000000003,0.97396875,0.14484375,0.08190625,1.250875,0.9444375,-0.32865625,-0.3828125,1.22878125,0.019462645003256188,0.019059275873117593,True
29932,154562,0,154563,4922.0,41908.0,27561.0,-0.0025009999999999998,0.0,0.000915,0.385,-2.7825,-3.6575,0.9725,0.1405,0.07871875,1.24503125,0.9454375,-0.327375,-0.38459375,1.22540625,0.019232449041460497,0.019000214018328684,True
29933,154563,0,154564,4923.0,41910.0,27562.0,-0.0028669999999999998,-0.000488,0.0017079999999999999,0.36750000000000005,-2.6250000000000004,-3.5875000000000004,0.975,0.1415625,0.0829375,1.2474687500000001,0.9450000000000001,-0.32921875,-0.3825625,1.22540625,0.019350446672275493,0.01909151263325994,True
29934,154564,0,154565,4922.0,41911.0,27564.0,-0.00061,-6.1e-05,0.001037,0.22750000000000004,-2.5375,-3.5875000000000004,0.9805,0.1448125,0.08140625,1.24996875,0.9430000000000001,-0.3201875,-0.38265625000000003,1.2315,0.019119918380563473,0.019032483386628562,True
29935,154565,0,154566,4925.0,41913.0,27563.0,-0.000366,-0.000488,-0.00061,0.24500000000000002,-2.6425,-3.7275000000000005,0.9731562500000001,0.14496875,0.08084375,1.24821875,0.95225,-0.3268125,-0.38153125,1.23109375,0.019393467598765767,0.018964149349725522,True
29936,154566,0,154567,4924.0,41915.0,27565.0,0.00042699999999999997,0.000305,-0.002074,0.29750000000000004,-2.5200000000000005,-3.9200000000000004,0.97278125,0.14459375,0.07803125,1.24771875,0.95315625,-0.32740625,-0.38334375,1.23271875,0.019401986185847493,0.018921728075133253,True
29937,154567,0,154568,4926.0,41918.0,27565.0,0.00061,0.000366,-0.001586,0.1925,-2.4850000000000003,-3.8850000000000002,0.9726250000000001,0.14265625,0.08475,1.24425,0.9476875,-0.3243125,-0.3863125,1.2294375,0.019197613498839895,0.019316676106729953,True
29938,154568,0,154569,4928.0,41915.0,27564.0,0.001769,-0.001403,-0.001952,0.22750000000000004,-2.5200000000000005,-3.9025000000000003,0.972125,0.14259375,0.080375,1.24390625,0.9430937500000001,-0.32765625,-0.385375,1.2301875,0.019329852212952078,0.019099562750214013,True
29939,154569,0,154570,4928.0,41916.0,27565.0,0.000488,-0.002013,-0.002257,0.22750000000000004,-2.6250000000000004,-3.9725000000000006,0.97578125,0.14196875,0.08290625,1.24315625,0.94503125,-0.331125,-0.38496875,1.22446875,0.019443973511294687,0.019187024793706167,True
29940,154570,0,154571,4932.0,41919.0,27567.0,0.0023179999999999997,-0.00061,-0.000244,0.24500000000000002,-2.6775,-3.9550000000000005,0.979,0.1446875,0.07831250000000001,1.2468125,0.94925,-0.32659375,-0.38271875,1.230875,0.01937308835109724,0.018908114994354353,True
29941,154571,0,154572,4932.0,41919.0,27569.0,0.008357,-0.001098,0.001281,0.24500000000000002,-2.765,-3.8675,0.9731562500000001,0.1411875,0.0825625,1.2445,0.944625,-0.32840625,-0.384,1.22528125,0.019302281669190725,0.019133960793963255,True
29942,154572,0,154573,4934.0,41920.0,27569.0,0.011101999999999999,-0.000976,0.000732,0.15750000000000003,-2.5200000000000005,-3.7975000000000003,0.97771875,0.14428125,0.08253125,1.2513125,0.95153125,-0.3285,-0.38340625,1.2241875,0.019433226462790557,0.019108794531116833,True
29943,154573,0,154574,4935.0,41919.0,27569.0,0.012565999999999999,0.00042699999999999997,0.000305,0.2625,-1.8900000000000001,-3.7625,0.97784375,0.14534375,0.08165625,1.24925,0.95178125,-0.3296875,-0.37634375000000003,1.22671875,0.01952475756213474,0.018788707802005786,True
29944,154574,0,154575,4933.0,41922.0,27569.0,0.0059169999999999995,0.0028669999999999998,0.000549,0.36750000000000005,-1.0150000000000001,-3.8325000000000005,0.9796875,0.1453125,0.08221875000000001,1.24553125,0.94928125,-0.327375,-0.382125,1.2255625,0.019430271453455213,0.01904443316569003,True
29945,154575,0,154576,4936.0,41922.0,27567.0,-0.0044529999999999995,0.0044529999999999995,0.000366,0.5425000000000001,0.12250000000000001,-3.6225000000000005,0.9785,0.14446875,0.0815625,1.25115625,0.949875,-0.32971875,-0.38296875,1.22534375,0.019490052674776603,0.01905146394447969,True
29946,154576,0,154577,4936.0,41920.0,27568.0,-0.020252,0.000793,0.00366,0.5775,1.9250000000000003,-3.2550000000000003,0.973375,0.1441875,0.07953125,1.246625,0.9509375,-0.32765625,-0.384375,1.229,0.01939536407252548,0.01902473407663719,True
29947,154577,0,154578,4936.0,41921.0,27569.0,-0.020496,-0.0021349999999999997,0.003355,0.525,1.6800000000000002,-3.2900000000000005,0.9735312500000001,0.14753125,0.079875,1.2445625,0.94515625,-0.3271875,-0.37596875,1.231875,0.019513918326974706,0.01870053882473902,True
29948,154578,0,154579,4938.0,41920.0,27571.0,-0.015372,-0.0021349999999999997,0.001281,0.47250000000000003,0.6300000000000001,-3.3075,0.97303125,0.1420625,0.08296875000000001,1.23665625,0.94546875,-0.3268125,-0.3778125,1.2255625,0.019274000652572138,0.018901665192477792,True
29949,154579,0,154580,4938.0,41919.0,27572.0,-0.0053679999999999995,-0.001464,-0.001281,0.35000000000000003,-0.6825000000000001,-3.3600000000000003,0.9805,0.144375,0.082,1.25003125,0.945375,-0.32859375,-0.383125,1.233,0.019440858557638583,0.019075692717812013,True
29950,154580,0,154581,4940.0,41920.0,27571.0,0.005429,-0.00122,-0.0018909999999999999,0.29750000000000004,-1.9075000000000002,-3.5175000000000005,0.97246875,0.14159375,0.07943750000000001,1.24415625,0.9453125,-0.32846875000000003,-0.38825,1.22559375,0.01932149963198979,0.019176755199737577,True
29951,154581,0,154582,4941.0,41922.0,27573.0,0.016042999999999998,-0.000488,-0.004575,0.1925,-2.9925,-3.7100000000000004,0.97640625,0.140875,0.08259375000000001,1.2441875,0.93421875,-0.33515625,-0.38409375,1.22146875,0.019561462647275995,0.019139013521878377,True
29952,154582,0,154583,4943.0,41923.0,27572.0,0.012505,0.000915,-0.0032329999999999998,0.29750000000000004,-2.5900000000000003,-3.6400000000000006,0.98028125,0.14471875,0.08184375,1.251625,0.943875,-0.33121875,-0.3801875,1.23603125,0.019560775187227313,0.01895109502336682,True
29953,154583,0,154584,4945.0,41927.0,27572.0,0.006771,0.001769,-0.001769,0.36750000000000005,-1.995,-3.535,0.981,0.1445,0.08221875000000001,1.24434375,0.95775,-0.32465625,-0.379625,1.2404375,0.019287271531329447,0.018943841424960393,True
29954,154584,0,154585,4946.0,41928.0,27572.0,0.000976,0.001098,0.000732,0.36750000000000005,-1.3125000000000002,-3.5875000000000004,0.9718125,0.14371875,0.078625,1.2439375,0.943125,-0.32709375,-0.3905,1.2201250000000001,0.019353421532319292,0.01923392304380804,True
29955,154585,0,154586,4947.0,41927.0,27572.0,-0.0028669999999999998,0.000244,0.002379,0.42000000000000004,-0.6300000000000001,-3.535,0.97940625,0.1458125,0.08259375000000001,1.2505625,0.9465625,-0.33078125,-0.38121875,1.234125,0.019588098923046297,0.019023351734621552,True
29956,154586,0,154587,4950.0,41927.0,27575.0,-0.011041,0.000915,0.0037819999999999998,0.5950000000000001,-0.10500000000000001,-3.3775000000000004,0.97484375,0.144375,0.07825,1.24715625,0.9524375,-0.32590625,-0.3836875,1.2353750000000001,0.019332527436670525,0.01894453002647774,True
29957,154587,0,154588,4950.0,41928.0,27572.0,-0.010248,0.001098,0.00366,0.49000000000000005,-0.29750000000000004,-3.2900000000000005,0.97309375,0.14059375,0.082,1.24503125,0.9286562500000001,-0.3350625,-0.379125,1.2209375,0.019546128143291187,0.01891474776063538,True
29958,154588,0,154589,4951.0,41925.0,27574.0,-0.007625,0.0,0.0023179999999999997,0.45500000000000007,-0.7350000000000001,-3.3425000000000002,0.9745312500000001,0.14603125,0.08053125,1.24540625,0.96209375,-0.3236875,-0.3811875,1.2416875,0.019311165299258182,0.018937500480647223,True
29959,154589,0,154590,4954.0,41926.0,27574.0,-0.002806,0.000488,6.1e-05,0.49000000000000005,-1.4175000000000002,-3.3775000000000004,0.9661875,0.1445625,0.07996875,1.2516562500000001,0.9394375,-0.32525,-0.38478125,1.2393750000000001,0.019313778892303263,0.019059018624577574,True
29960,154590,0,154591,4954.0,41928.0,27576.0,0.002379,-0.001037,-0.001403,0.42000000000000004,-2.0825,-3.43,0.9726875,0.14428125,0.07946875,1.24446875,0.93996875,-0.32675,-0.38796875000000003,1.21284375,0.019362687165363233,0.019166725396103357,True
29961,154591,0,154592,4957.0,41927.0,27574.0,0.006222,-0.000366,-0.0030499999999999998,0.43750000000000006,-2.5375,-3.3425000000000002,0.97990625,0.14253125,0.0830625,1.24809375,0.94753125,-0.33075,-0.38025000000000003,1.22234375,0.019451979490973357,0.019003599224782355,True
29962,154592,0,154593,4959.0,41930.0,27576.0,0.0064659999999999995,-0.000915,-0.0018909999999999999,0.42000000000000004,-2.5025000000000004,-3.3425000000000002,0.97759375,0.144375,0.07996875,1.24421875,0.9499375,-0.32615625,-0.3835,1.223875,0.019342605760003698,0.01900747431664855,True
29963,154593,0,154594,4960.0,41931.0,27576.0,0.00366,-0.000244,-0.000976,0.45500000000000007,-2.3625000000000003,-3.3425000000000002,0.9793125,0.1443125,0.08259375000000001,1.2514375,0.9425625,-0.32871875,-0.38225000000000003,1.2256562500000001,0.019443327651605162,0.01906484225204811,True
29964,154594,0,154595,4960.0,41932.0,27576.0,0.000976,-6.1e-05,-0.000793,0.36750000000000005,-2.1525000000000003,-3.325,0.97365625,0.14415625,0.07890625,1.23425,0.95275,-0.3274375,-0.38378125,1.22325,0.019385262011257866,0.01897521533908938,True
29965,154595,0,154596,4964.0,41933.0,27577.0,-0.000366,0.000244,0.0,0.5075000000000001,-1.9425000000000001,-3.2025,0.972875,0.1423125,0.0824375,1.24953125,0.94575,-0.321,-0.382625,1.223375,0.019049895152337487,0.01907352059099461,True
29966,154596,0,154597,4965.0,41934.0,27578.0,-0.000915,0.001037,0.0015249999999999999,0.5075000000000001,-1.7500000000000002,-3.115,0.97278125,0.14440625,0.07931250000000001,1.24465625,0.95259375,-0.3271875,-0.38321875,1.230375,0.019385461225223836,0.018969244985344684,True
29967,154597,0,154598,4967.0,41934.0,27578.0,-6.1e-05,-0.00061,0.001952,0.525,-1.6975000000000002,-2.975,0.97303125,0.14128125,0.08246875000000001,1.244625,0.93415625,-0.32721875,-0.38625,1.2255,0.01925826395588275,0.019220616125890613,True
29968,154598,0,154599,4969.0,41936.0,27578.0,-0.002257,-0.000732,0.0006709999999999999,0.49000000000000005,-1.7500000000000002,-3.115,0.97884375,0.1445,0.08284375000000001,1.24453125,0.93525,-0.329125,-0.382,1.22540625,0.019467407890748228,0.01906503773275367,True
29969,154599,0,154600,4972.0,41937.0,27580.0,-0.0017079999999999999,0.00061,0.001098,0.43750000000000006,-2.1,-3.1500000000000004,0.9776875,0.145,0.082625,1.2463125,0.939625,-0.32475,-0.37725000000000003,1.22521875,0.019311606491330846,0.01886492528894769,True
29970,154600,0,154601,4973.0,41938.0,27581.0,-0.000122,0.001098,-0.000488,0.5775,-2.2575000000000003,-3.22,0.97871875,0.143875,0.08215625,1.25225,0.9530000000000001,-0.32665625,-0.382625,1.23221875,0.019342208200109703,0.019061985737794843,True
29971,154601,0,154602,4976.0,41941.0,27582.0,-0.000183,-0.00061,-0.001403,0.47250000000000003,-2.555,-3.22,0.97259375,0.14125000000000001,0.08128125,1.2445625,0.94375,-0.32675,-0.38590625,1.22459375,0.01923808153575796,0.019158094647394947,True
29972,154602,0,154603,4977.0,41940.0,27581.0,-0.000122,-0.00122,-0.001037,0.45500000000000007,-2.5025000000000004,-3.3425000000000002,0.9806875,0.14509375,0.0824375,1.25590625,0.9450625,-0.33075,-0.3784375,1.2295625000000001,0.019557298891320657,0.018905026214251833,True
29973,154603,0,154604,4980.0,41939.0,27582.0,-0.000366,-0.0006709999999999999,0.000122,0.385,-2.4675000000000002,-3.2900000000000005,0.9731562500000001,0.1441875,0.079,1.24353125,0.95153125,-0.32656250000000003,-0.38303125,1.23015625,0.019351274969490653,0.01894888479052415,True
29974,154604,0,154605,4981.0,41943.0,27583.0,0.0008539999999999999,-0.000244,0.00042699999999999997,0.525,-2.4850000000000003,-3.3075,0.97140625,0.1428125,0.08253125,1.24321875,0.944375,-0.32890625,-0.3838125,1.22075,0.019389229632959765,0.019125136809512458,True
29975,154605,0,154606,4982.0,41944.0,27583.0,0.000183,0.000488,0.000122,0.525,-2.6250000000000004,-3.3075,0.98475,0.14503125,0.08396875000000001,1.253625,0.948875,-0.32828125,-0.383,1.2316562500000001,0.01945523792396966,0.019151406717795187,True
29976,154606,0,154607,4985.0,41942.0,27583.0,0.00042699999999999997,0.0006709999999999999,-0.00042699999999999997,0.43750000000000006,-2.7125000000000004,-3.5000000000000004,0.97065625,0.14965625,0.07928125,1.2428125,0.94903125,-0.32640625,-0.3841875,1.23078125,0.019569783350140344,0.019006938410394032,True
29977,154607,0,154608,4986.0,41942.0,27585.0,6.1e-05,0.000488,6.1e-05,0.4025,-2.6425,-3.6050000000000004,0.97078125,0.14315625,0.0818125,1.2412812500000001,0.9449375,-0.32640625,-0.38446875,1.23159375,0.019302583997584926,0.01912205899503142,True
29978,154608,0,154609,4988.0,41944.0,27584.0,0.000732,0.001098,0.000305,0.45500000000000007,-2.6425,-3.5700000000000003,0.97003125,0.140375,0.08240625,1.242375,0.945625,-0.3273125,-0.38521875,1.22509375,0.019224791065597567,0.019176575973918628,True
29979,154609,0,154610,4990.0,41946.0,27586.0,0.001403,-0.000732,-0.0006709999999999999,0.42000000000000004,-2.4325,-3.535,0.9820625000000001,0.14553125,0.08315625,1.247625,0.9451875000000001,-0.32987500000000003,-0.383,1.227125,0.019540020242602974,0.01911808432104335,True
29980,154610,0,154611,4991.0,41947.0,27585.0,0.002074,-0.001037,0.000488,0.47250000000000003,-2.3975000000000004,-3.6575,0.9635312500000001,0.14228125,0.08153125,1.24325,0.9480000000000001,-0.32765625,-0.38446875,1.2296875,0.01931700675029063,0.019110525014000974,True
29981,154611,0,154612,4993.0,41948.0,27587.0,0.0026839999999999998,-0.001586,-0.001037,0.35000000000000003,-2.205,-3.7800000000000002,0.965875,0.139625,0.08259375000000001,1.234375,0.9389375,-0.32775,-0.3838125,1.22625,0.019211599921899886,0.019127699985389896,True
29982,154612,0,154613,4993.0,41949.0,27588.0,-0.000976,0.000976,-0.001769,0.31500000000000006,-2.1,-3.9550000000000005,0.9718125,0.13903125,0.08034375,1.23334375,0.9446875,-0.32771875,-0.38325000000000004,1.2294375,0.019185933740704725,0.01901279566915813,True
29983,154613,0,154614,4994.0,41949.0,27586.0,-0.002562,0.002379,-0.000793,0.385,-1.8550000000000002,-3.9200000000000004,0.9702500000000001,0.14228125,0.0826875,1.2418125,0.94521875,-0.32715625,-0.38278125,1.22846875,0.01929685061319076,0.019090059711707415,True
29984,154614,0,154615,4995.0,41948.0,27585.0,-0.0035989999999999998,0.001403,-0.000549,0.31500000000000006,-1.8200000000000003,-4.025,0.9703125,0.1411875,0.08321875000000001,1.24953125,0.94465625,-0.32828125,-0.38371875,1.2248125,0.019297242792274936,0.019149560605885844,True
29985,154615,0,154616,4994.0,41949.0,27585.0,-0.0023179999999999997,-0.00244,-0.000366,0.17500000000000002,-1.8200000000000003,-4.112500000000001,0.9795,0.1445,0.08021875,1.245,0.9505,-0.326625,-0.383,1.229375,0.019366640460811973,0.018997611040479024,True
29986,154616,0,154617,4993.0,41947.0,27585.0,0.000488,-0.001586,-6.1e-05,0.15750000000000003,-2.5375,-4.1825,0.9735625,0.14346875,0.08190625,1.2513750000000001,0.94584375,-0.32928125,-0.38171875,1.2260312500000001,0.019431317972042433,0.019015271431592574,True
29987,154617,0,154618,4992.0,41947.0,27583.0,0.0034159999999999998,0.0015249999999999999,0.00042699999999999997,0.15750000000000003,-2.8000000000000003,-4.2,0.97621875,0.144875,0.0814375,1.246375,0.9524375,-0.32684375,-0.38403125,1.23490625,0.019390873507789105,0.019089081096875644,True
29988,154618,0,154619,4990.0,41948.0,27582.0,0.006405,0.000488,0.00061,0.1925,-2.87,-4.112500000000001,0.97246875,0.14175000000000001,0.08271875000000001,1.2444375,0.9410000000000001,-0.32759375,-0.3904375,1.22071875,0.019292649935836754,0.01939925226843512,True
29989,154619,0,154620,4989.0,41948.0,27583.0,0.0050019999999999995,0.000366,-0.0006709999999999999,0.22750000000000004,-2.7825,-4.165,0.977625,0.14221875,0.083125,1.2490937500000001,0.95975,-0.33421875,-0.37946875,1.2334375,0.019578910870109607,0.018974726428359928,True
29990,154620,0,154621,4986.0,41949.0,27578.0,0.003111,-0.000183,0.001769,0.22750000000000004,-2.415,-4.0600000000000005,0.97875,0.15009375,0.0800625,1.246625,0.95784375,-0.322875,-0.39025,1.2351875,0.019445429456838473,0.01928280767929808,True
29991,154621,0,154622,4988.0,41949.0,27580.0,0.00061,-0.000305,0.000183,0.12250000000000001,-1.5050000000000001,-3.9550000000000005,0.9733437500000001,0.141375,0.08296875000000001,1.244625,0.93453125,-0.33646875,-0.376375,1.2195625,0.019634884374915732,0.018843808810785036,True
29992,154622,0,154623,4986.0,41950.0,27579.0,0.001037,-0.0021349999999999997,-0.000122,0.22750000000000004,-1.225,-3.9725000000000006,0.9773125,0.14625,0.0806875,1.2448125,0.9627187500000001,-0.3236875,-0.389625,1.21459375,0.019320158590263092,0.019283301813783526,True
29993,154623,0,154624,4986.0,41948.0,27580.0,0.000549,-0.00042699999999999997,-0.0013419999999999999,0.28,-0.9625000000000001,-3.8850000000000002,0.9751875,0.14259375,0.08265625,1.2513750000000001,0.9490625,-0.33659375,-0.37040625,1.2415,0.019689998728766225,0.018590683115920565,True
29994,154624,0,154625,4983.0,41949.0,27581.0,-0.001281,0.001037,-0.0034159999999999998,0.36750000000000005,-0.6300000000000001,-3.7975000000000003,0.98,0.149875,0.08075,1.24934375,0.9646875,-0.322375,-0.3820625,1.24265625,0.01941627822118523,0.01898167966717336,True
29995,154625,0,154626,4984.0,41951.0,27579.0,-0.005612,0.0013419999999999999,-0.0013419999999999999,0.42000000000000004,0.052500000000000005,-3.8325000000000005,0.97290625,0.14253125,0.08534375,1.248875,0.9321875000000001,-0.3323125,-0.37675000000000003,1.2111875,0.019514945404387685,0.01895633134031403,True
29996,154626,0,154627,4983.0,41951.0,27580.0,-0.007869,0.000488,0.000549,0.3325,0.2625,-3.8675,0.9731875,0.14425,0.08134375,1.2440625,0.955375,-0.32509375,-0.3891875,1.2144375,0.019294632728805,0.019292616861467816,True
29997,154627,0,154628,4984.0,41950.0,27580.0,-0.007137,-0.001037,0.003294,0.35000000000000003,0.12250000000000001,-3.8675,0.9793125,0.147125,0.08353125,1.2526875,0.95746875,-0.3301875,-0.37115625,1.23065625,0.019618118438257,0.018656788185829307,True
29998,154628,0,154629,4984.0,41950.0,27581.0,-0.005246,-0.001586,0.00366,0.36750000000000005,-0.10500000000000001,-3.7625,0.9775,0.14453125,0.08325,1.2501875,0.95303125,-0.318125,-0.3814375,1.241625,0.019025161273741296,0.019059069015106265,True
29999,154629,0,154630,4985.0,41951.0,27581.0,-0.001769,0.0,0.002623,0.35000000000000003,-0.6300000000000001,-3.6750000000000003,0.97284375,0.1419375,0.0826875,1.25059375,0.9325625000000001,-0.32984375,-0.37890625,1.21940625,0.01939105137080874,0.018934145169043425,True
30000,154630,0,154631,4984.0,41951.0,27583.0,0.003477,0.0008539999999999999,-0.001586,0.31500000000000006,-1.54,-3.7275000000000005,0.97059375,0.14209375,0.0825,1.25071875,0.95003125,-0.32640625,-0.3833125,1.22134375,0.019258907180340294,0.019103741544550194,True
30001,154631,0,154632,4986.0,41953.0,27584.0,0.004331,0.000488,-0.002013,0.35000000000000003,-1.6450000000000002,-3.6750000000000003,0.9726875,0.142625,0.08509375,1.2445,0.9510625,-0.326625,-0.38509375,1.22140625,0.019289564417587727,0.019281758963916224,True
30002,154632,0,154633,4987.0,41953.0,27583.0,0.003294,-0.00042699999999999997,-0.002379,0.36750000000000005,-1.7675,-3.6925000000000003,0.9798125,0.15015625,0.08140625,1.24821875,0.9479375,-0.33090625,-0.3820625,1.23065625,0.01977166386887048,0.019008594945567055,True
30003,154633,0,154634,4987.0,41956.0,27583.0,0.003843,-0.000366,-0.0023179999999999997,0.36750000000000005,-1.9250000000000003,-3.6400000000000006,0.97259375,0.148375,0.08690625,1.24490625,0.93453125,-0.3221875,-0.37825000000000003,1.21934375,0.01934704680654238,0.01908078922810292,True
30004,154634,0,154635,4989.0,41956.0,27583.0,0.0021349999999999997,-0.00061,-0.00061,0.4025,-1.8200000000000003,-3.5175000000000005,0.9761875,0.144625,0.08159375,1.2483125,0.94471875,-0.32846875000000003,-0.379875,1.224875,0.019446096458495772,0.018928265628925498,True
30005,154635,0,154636,4990.0,41955.0,27584.0,-0.001037,0.000732,0.00042699999999999997,0.4025,-1.715,-3.4475000000000002,0.97303125,0.1434375,0.08359375000000001,1.244125,0.95228125,-0.3275,-0.3834375,1.21490625,0.01935823656355976,0.019153626308841813,True
30006,154636,0,154637,4991.0,41957.0,27584.0,-0.0011589999999999999,-0.0006709999999999999,0.00061,0.45500000000000007,-1.6450000000000002,-3.43,0.9755312500000001,0.146875,0.082125,1.24459375,0.94921875,-0.3273125,-0.38234375,1.225875,0.019491980464344343,0.019049388966144814,True
30007,154637,0,154638,4989.0,41956.0,27584.0,-0.0006709999999999999,0.000122,0.00061,0.42000000000000004,-1.7675,-3.43,0.977625,0.14484375,0.0816875,1.24465625,0.94521875,-0.330625,-0.38390625,1.23159375,0.01954198669372447,0.01909430528588913,True
30008,154638,0,154639,4992.0,41958.0,27586.0,-0.000915,0.000488,0.001769,0.385,-1.7675,-3.325,0.97396875,0.14350000000000002,0.08221875000000001,1.25253125,0.94578125,-0.329125,-0.38365625000000003,1.2256562500000001,0.019426304891770666,0.019106035420754425,True
30009,154639,0,154640,4993.0,41957.0,27586.0,-0.000976,0.0013419999999999999,0.00042699999999999997,0.31500000000000006,-1.8900000000000001,-3.3075,0.9735625,0.1404375,0.08209375000000001,1.25421875,0.951625,-0.32678125,-0.38559375,1.22546875,0.019205942010926746,0.01917884406648905,True
30010,154640,0,154641,4994.0,41960.0,27587.0,-0.001403,-0.00061,0.0008539999999999999,0.42000000000000004,-1.8200000000000003,-3.3075,0.97228125,0.141375,0.0835625,1.244625,0.95353125,-0.3246875,-0.38534375,1.2251875,0.01916006115186475,0.019229019480194943,True
30011,154641,0,154642,4996.0,41960.0,27589.0,-0.000122,-0.00042699999999999997,-0.000122,0.42000000000000004,-2.0125,-3.3775000000000004,0.96928125,0.143625,0.078875,1.23909375,0.94596875,-0.32915625,-0.3800625,1.22909375,0.01943270227466273,0.018824295466838937,True
30012,154642,0,154643,4998.0,41961.0,27588.0,0.0026839999999999998,-0.000305,-0.000244,0.36750000000000005,-2.1175,-3.4475000000000002,0.9879375,0.14675,0.08078125,1.25603125,0.9455625,-0.331,-0.3825,1.22515625,0.01963544449467757,0.019000563929047472,True
30013,154643,0,154644,4998.0,41964.0,27588.0,0.003843,0.0,-0.000366,0.385,-2.1350000000000002,-3.3950000000000005,0.96665625,0.14528125,0.07865625,1.2388125,0.9430937500000001,-0.3265,-0.38296875,1.229625,0.019393716728670383,0.018932272141799798,True
30014,154644,0,154645,4998.0,41962.0,27588.0,0.00244,0.000549,-0.001098,0.43750000000000006,-2.0475000000000003,-3.4825000000000004,0.9715625,0.13815625,0.08496875,1.241125,0.9471875000000001,-0.32725,-0.38506250000000003,1.22496875,0.019131067013328677,0.01927537606270232,True
30015,154645,0,154646,4999.0,41964.0,27591.0,-0.002562,-6.1e-05,0.0,0.31500000000000006,-1.3825,-3.5700000000000003,0.982375,0.1460625,0.0765625,1.254125,0.944875,-0.32753125,-0.37493750000000003,1.226625,0.01946739869052681,0.01852312441826774,True
30016,154646,0,154647,5000.0,41962.0,27590.0,-0.003721,-0.000366,0.000305,0.385,-1.3650000000000002,-3.5875000000000004,0.96609375,0.13821875,0.08034375,1.232125,0.9475625,-0.32684375,-0.38415625000000003,1.23065625,0.019117256014767638,0.01904925457488405,True
30017,154647,0,154648,5001.0,41965.0,27591.0,-0.003477,-0.001403,0.000244,0.31500000000000006,-1.435,-3.5525,0.98775,0.1473125,0.08353125,1.2454687500000001,0.9450937500000001,-0.32971875,-0.38384375,1.22546875,0.019606936475580917,0.01916740464677559,True
30018,154648,0,154649,5001.0,41965.0,27590.0,-0.001464,0.000366,-0.000244,0.385,-1.7325000000000002,-3.6925000000000003,0.97984375,0.1459375,0.08434375,1.24809375,0.9518125000000001,-0.3259375,-0.381875,1.2158437500000001,0.019398019089706203,0.019121529824921175,True
30019,154649,0,154650,5002.0,41965.0,27590.0,-0.0006709999999999999,0.000122,-0.000793,0.29750000000000004,-1.9250000000000003,-3.7100000000000004,0.9905625,0.1424375,0.0863125,1.23896875,0.94471875,-0.32253125,-0.3831875,1.2293125,0.019116791144013844,0.01925507073265134,True
30020,154650,0,154651,5004.0,41966.0,27591.0,0.002074,0.0,-0.000488,0.3325,-2.1525000000000003,-3.8500000000000005,0.96465625,0.13678125,0.082125,1.2390625,0.93690625,-0.32696875000000003,-0.383375,1.231125,0.0190632053161165,0.019090876468085324,True
30021,154651,0,154652,5005.0,41967.0,27594.0,0.003904,-0.0006709999999999999,-0.000549,0.24500000000000002,-2.205,-3.8850000000000002,0.96703125,0.14365625,0.082,1.24196875,0.94421875,-0.32659375,-0.38584375,1.2318437500000001,0.019330696472867274,0.01918505485380222,True
30022,154652,0,154653,5005.0,41967.0,27593.0,0.002013,0.000488,0.000488,0.2625,-2.24,-3.8500000000000005,0.9748125,0.14803125,0.08375,1.24434375,0.9455,-0.32790625,-0.3853125,1.2254375,0.019563438592254522,0.0192354516678841,True
30023,154653,0,154654,5005.0,41967.0,27594.0,0.0018909999999999999,0.0008539999999999999,0.000549,0.35000000000000003,-2.1525000000000003,-3.7800000000000002,0.9685,0.148,0.0828125,1.24425,0.9440937500000001,-0.3264375,-0.3828125,1.22521875,0.019502958458261714,0.019096443447612944,True
30024,154654,0,154655,5008.0,41967.0,27594.0,0.00061,-0.000244,0.001037,0.4025,-1.995,-3.7975000000000003,0.9729375,0.1433125,0.08071875,1.2438437500000001,0.9455,-0.3268125,-0.38459375,1.2162187500000001,0.01932538428534359,0.019082233018542703,True
30025,154655,0,154656,5008.0,41969.0,27593.0,0.00042699999999999997,-0.000366,6.1e-05,0.42000000000000004,-1.8025000000000002,-3.9200000000000004,0.9745625,0.14203125,0.08225,1.24471875,0.94496875,-0.33071875,-0.38221875,1.22509375,0.019430169936923872,0.01904948662639654,True
30026,154656,0,154657,5009.0,41967.0,27596.0,6.1e-05,-0.000244,-0.000366,0.28,-1.6800000000000002,-3.8500000000000005,0.98028125,0.14209375,0.082125,1.24378125,0.9455,-0.32890625,-0.38603125,1.22553125,0.01935968658681481,0.019197722056556458,True
30027,154657,0,154658,5012.0,41970.0,27597.0,0.0,-0.000122,0.00042699999999999997,0.31500000000000006,-1.5050000000000001,-3.8500000000000005,0.9793437500000001,0.144875,0.08265625,1.2468125,0.9479062500000001,-0.3294375,-0.3823125,1.22484375,0.019495415790028028,0.019069920049626137,True
30028,154658,0,154659,5011.0,41972.0,27598.0,-0.001647,0.001403,-0.00122,0.45500000000000007,-1.4175000000000002,-3.8150000000000004,0.9795,0.1445,0.08225,1.249,0.94340625,-0.32478125,-0.37503125,1.2256562500000001,0.019292311210404,0.018760232358676462,True
30029,154659,0,154660,5013.0,41973.0,27602.0,-0.001769,0.000366,0.000366,0.47250000000000003,-1.3475000000000001,-3.8675,0.97821875,0.144125,0.0800625,1.2425625,0.95203125,-0.32621875,-0.3825,1.23128125,0.019334848331083104,0.01897108581974777,True
30030,154660,0,154661,5016.0,41974.0,27601.0,-0.002379,0.00061,-0.000366,0.36750000000000005,-1.3475000000000001,-3.9200000000000004,0.97375,0.14203125,0.0801875,1.2369375,0.94928125,-0.32684375,-0.38606250000000003,1.2265625,0.01927397589339965,0.01911952780404791,True
30031,154661,0,154662,5016.0,41975.0,27604.0,-0.002196,0.0,0.000366,0.35000000000000003,-1.4525000000000001,-4.0075,0.98021875,0.14478125,0.0826875,1.250625,0.945375,-0.32965625,-0.3825625,1.22521875,0.019500378267777622,0.01908125940413359,True
30032,154662,0,154663,5018.0,41976.0,27602.0,-0.001464,0.000366,0.000122,0.29750000000000004,-1.6800000000000002,-4.0600000000000005,0.9795312500000001,0.14446875,0.0805,1.2423125,0.95275,-0.330625,-0.3815,1.23171875,0.01952657401936859,0.01894879314234153,True
30033,154663,0,154664,5018.0,41977.0,27603.0,-0.000549,0.000793,0.000183,0.2625,-1.8550000000000002,-3.99,0.973375,0.14100000000000001,0.07978125,1.2445,0.9517187500000001,-0.32628125,-0.38621875,1.2273125,0.019208906005721692,0.019109153607506285,True
30034,154664,0,154665,5020.0,41976.0,27602.0,0.001769,-0.00061,0.000122,0.35000000000000003,-1.9775000000000003,-3.9725000000000006,0.97275,0.1439375,0.07918750000000001,1.2470937500000001,0.94565625,-0.32715625,-0.38278125,1.22303125,0.019364932964575338,0.01894651579175366,True
30035,154665,0,154666,5021.0,41978.0,27602.0,0.0026839999999999998,-0.001098,-0.00042699999999999997,0.3325,-2.31,-4.1475,0.97290625,0.1425625,0.08046875,1.244625,0.9476875,-0.327125,-0.38471875,1.23246875,0.019307151995971578,0.019077009038703796,True
30036,154666,0,154667,5023.0,41978.0,27604.0,0.002806,-0.000305,-0.000915,0.35000000000000003,-2.3625000000000003,-4.0425,0.97346875,0.1411875,0.080375,1.2455,0.9460000000000001,-0.3263125,-0.38559375,1.2309375,0.019217873650188455,0.01910836187861942,True
30037,154667,0,154668,5026.0,41981.0,27605.0,0.002074,0.000549,-0.001586,0.385,-2.2750000000000004,-4.0425,0.973125,0.14371875,0.08053125,1.24034375,0.93559375,-0.32706250000000003,-0.38253125,1.22953125,0.01935216181567339,0.018991567989890303,True
30038,154668,0,154669,5025.0,41979.0,27604.0,-0.000244,0.001098,0.0018909999999999999,0.43750000000000006,-2.0825,-4.095000000000001,0.9685312500000001,0.14478125,0.07940625,1.2493125,0.9500937500000001,-0.32690625,-0.3825,1.229125,0.01938953910343614,0.018944171024300217,True
30039,154669,0,154670,5026.0,41983.0,27604.0,-0.001464,-0.000183,0.00183,0.47250000000000003,-2.1,-3.9550000000000005,0.976125,0.14415625,0.08465625,1.24390625,0.952875,-0.3276875,-0.3811875,1.22553125,0.019395339158314987,0.019106688302200213,True
30040,154670,0,154671,5030.0,41980.0,27605.0,-0.002379,0.001281,-0.000488,0.4025,-2.2575000000000003,-3.9725000000000006,0.97609375,0.14328125,0.082625,1.2449375,0.945125,-0.32815625,-0.38334375,1.2255625,0.019378266694583562,0.019110125123835812,True
30041,154671,0,154672,5032.0,41983.0,27607.0,-0.0011589999999999999,6.1e-05,-0.000366,0.42000000000000004,-2.2575000000000003,-3.9550000000000005,0.974125,0.1426875,0.0825,1.2444375,0.94515625,-0.33059375,-0.38465625000000003,1.2242187500000001,0.019452104410727748,0.019157795181139782,True
30042,154672,0,154673,5033.0,41983.0,27608.0,-0.000244,-0.000244,-0.000122,0.385,-2.3625000000000003,-3.99,0.9763437500000001,0.14425,0.08209375000000001,1.2471875000000001,0.94503125,-0.32928125,-0.38196875,1.2250625,0.019463429483762493,0.019033020046832768,True
30043,154673,0,154674,5034.0,41983.0,27606.0,0.0015249999999999999,-0.000366,0.000366,0.385,-2.6425,-3.9200000000000004,0.9763437500000001,0.14453125,0.0825625,1.24809375,0.94765625,-0.32534375,-0.38153125,1.22609375,0.019316273793664275,0.019034643281479705,True
30044,154674,0,154675,5038.0,41983.0,27605.0,0.002928,0.000183,-0.0006709999999999999,0.42000000000000004,-2.5725000000000002,-3.9200000000000004,0.97671875,0.1449375,0.08159375,1.2452812500000001,0.9344687500000001,-0.32606250000000003,-0.3825,1.23571875,0.019361949760673354,0.019033887009125398,True
30045,154675,0,154676,5039.0,41985.0,27608.0,0.001952,0.000244,0.000732,0.36750000000000005,-2.45,-3.9025000000000003,0.97309375,0.14221875,0.08334375000000001,1.2443125,0.9422812500000001,-0.32859375,-0.38221875,1.22284375,0.019352228280765306,0.019094345136248112,True
30046,154676,0,154677,5038.0,41985.0,27607.0,0.001464,-0.000305,0.0006709999999999999,0.385,-2.2225,-3.8325000000000005,0.9893125,0.14575,0.082125,1.22690625,0.942625,-0.332625,-0.3791875,1.2230625,0.019659818864590235,0.01892239025603294,True
30047,154677,0,154678,5042.0,41986.0,27608.0,-0.00061,0.000183,-0.000915,0.31500000000000006,-2.0650000000000004,-3.8675,1.000625,0.14665625000000002,0.08621875,1.25396875,0.94178125,-0.3319375,-0.38375000000000004,1.22321875,0.019669364595400595,0.019273850412672378,True
30048,154678,0,154679,5042.0,41985.0,27608.0,-0.001952,0.0,-0.002379,0.42000000000000004,-1.8725000000000003,-3.8850000000000002,0.9826875,0.14646875,0.0775,1.2529375,0.9449062500000001,-0.3291875,-0.38146875,1.22971875,0.01955084813251573,0.01882449144906416,True
30049,154679,0,154680,5043.0,41989.0,27609.0,-0.0023179999999999997,0.00183,-0.004026,0.4025,-1.9075000000000002,-3.9550000000000005,0.9605312500000001,0.14,0.0743125,1.2337500000000001,0.95440625,-0.32540625,-0.38234375,1.2358125,0.01913251705714062,0.018728972681307555,True
30050,154680,0,154681,5047.0,41989.0,27609.0,-0.000244,-0.001281,0.0006709999999999999,0.45500000000000007,-1.8900000000000001,-3.7450000000000006,0.9646875,0.133375,0.07828125,1.2225,0.9460000000000001,-0.3234375,-0.38296875,1.2365625,0.01878075415943984,0.01891689255435723,True
30051,154681,0,154682,5047.0,41990.0,27610.0,0.000488,-0.001281,0.001403,0.47250000000000003,-2.1,-3.7625,0.97928125,0.13428125,0.088625,1.22809375,0.94246875,-0.3276875,-0.3858125,1.22865625,0.01898942305963113,0.019455472316126435,True
30052,154682,0,154683,5049.0,41989.0,27611.0,0.0023179999999999997,-0.0008539999999999999,0.002806,0.36750000000000005,-2.2925000000000004,-3.8150000000000004,0.9973125,0.14075000000000001,0.08750000000000001,1.24865625,0.9425625,-0.327625,-0.3849375,1.22265625,0.019252804168101077,0.01937415258907266,True
30053,154683,0,154684,5051.0,41988.0,27610.0,0.002623,-0.0008539999999999999,0.002745,0.31500000000000006,-2.3625000000000003,-3.7975000000000003,0.9930625000000001,0.1516875,0.0848125,1.26796875,0.9416875,-0.33003125,-0.380625,1.22315625,0.019799347771080233,0.01909046630264811,True
30054,154684,0,154685,5050.0,41992.0,27610.0,0.000793,0.0015249999999999999,-0.0006709999999999999,0.385,-2.3625000000000003,-3.7275000000000005,0.96703125,0.145,0.08103125,1.24459375,0.95334375,-0.3278125,-0.38159375,1.23178125,0.019435060180606045,0.01897435437336823,True
30055,154685,0,154686,5050.0,41992.0,27611.0,-0.000183,0.001281,-0.001037,0.43750000000000006,-2.2750000000000004,-3.6925000000000003,0.96659375,0.13196875,0.093125,1.241625,0.9460000000000001,-0.32706250000000003,-0.38456250000000003,1.2249375,0.018869160631292823,0.019589750687550783,True
30056,154686,0,154687,5051.0,41989.0,27608.0,-0.00244,-0.001098,-0.000915,0.29750000000000004,-2.1175,-3.6925000000000003,0.99271875,0.14790625000000002,0.079375,1.2532812500000001,0.945375,-0.33053125,-0.38171875,1.22546875,0.019664079468055182,0.018911453894118926,True
30057,154687,0,154688,5048.0,41992.0,27608.0,-0.0025009999999999998,-0.000122,-0.00061,0.36750000000000005,-2.3275,-3.6750000000000003,0.96,0.14178125,0.081375,1.23371875,0.94303125,-0.32659375,-0.381375,1.23290625,0.019253620330630956,0.018979651475767877,True
30058,154688,0,154689,5048.0,41987.0,27605.0,-0.001037,-0.000183,0.000732,0.4025,-2.31,-3.7625,0.970125,0.14365625,0.08209375000000001,1.24540625,0.9360625,-0.32837500000000003,-0.384375,1.22515625,0.019402498111772776,0.01912982186338588,True
30059,154689,0,154690,5046.0,41990.0,27606.0,-0.000305,-0.001281,0.000732,0.43750000000000006,-2.415,-3.6750000000000003,0.97209375,0.13971875,0.084,1.2450625,0.94546875,-0.32334375,-0.38434375,1.22509375,0.01903778134944954,0.019206739980443394,True
30060,154690,0,154691,5044.0,41989.0,27605.0,0.000488,0.00042699999999999997,-0.000122,0.36750000000000005,-2.7825,-3.8150000000000004,0.98059375,0.1449375,0.0813125,1.2525,0.9515625,-0.32853125,-0.37875000000000003,1.22709375,0.019461460502265215,0.01887145567348613,True
30061,154691,0,154692,5043.0,41989.0,27603.0,0.001403,-6.1e-05,0.0017079999999999999,0.3325,-2.87,-3.7975000000000003,0.979125,0.14459375,0.0828125,1.23884375,0.95296875,-0.3258125,-0.38278125,1.23075,0.019337740517403067,0.019095186280277194,True
30062,154692,0,154693,5040.0,41988.0,27602.0,0.0026839999999999998,-0.001098,-0.000732,0.45500000000000007,-3.0625000000000004,-3.7100000000000004,0.9734375000000001,0.14490625000000001,0.07940625,1.24825,0.9495625,-0.3266875,-0.3751875,1.2309375,0.019385859665439452,0.018649856539565083,True
30063,154693,0,154694,5039.0,41991.0,27602.0,0.002745,0.000488,-6.1e-05,0.28,-3.0275000000000003,-3.7100000000000004,0.97128125,0.14521875,0.07928125,1.244125,0.93878125,-0.32728125,-0.383625,1.2313125,0.01942263893545441,0.018984308116615146,True
30064,154694,0,154695,5037.0,41992.0,27603.0,0.003111,0.00042699999999999997,0.000976,0.47250000000000003,-2.8875,-3.5875000000000004,0.971875,0.14246875,0.08328125,1.24378125,0.9455625,-0.32975,-0.38040625,1.224625,0.019409108190589712,0.01901885863776368,True
30065,154695,0,154696,5038.0,41993.0,27601.0,0.0059169999999999995,-0.000976,-0.002257,0.36750000000000005,-2.6950000000000003,-3.6575,0.972875,0.140875,0.0820625,1.2441875,0.93790625,-0.33065625,-0.3853125,1.21396875,0.01938012872135333,0.0191662501762075,True
30066,154696,0,154697,5037.0,41994.0,27599.0,0.003904,0.000366,-0.0025009999999999998,0.2625,-2.3975000000000004,-3.6750000000000003,0.98075,0.1431875,0.08275,1.2431875000000001,0.946625,-0.3289375,-0.38215625000000003,1.2255,0.019405902949933593,0.019067478906833763,True
30067,154697,0,154698,5036.0,41993.0,27599.0,0.0015249999999999999,0.00122,-0.002074,0.35000000000000003,-2.0125,-3.6750000000000003,0.974,0.1445625,0.08778125,1.243625,0.9533125,-0.32815625,-0.38290625,1.22571875,0.019430932009078986,0.019303994986241642,True
30068,154698,0,154699,5036.0,41995.0,27601.0,-0.003294,0.00183,-0.001098,0.5075000000000001,-1.4000000000000001,-3.6925000000000003,0.974,0.14275000000000002,0.08471875,1.236,0.9452812500000001,-0.32809375,-0.3856875,1.2251875,0.019353910538099598,0.019290259911679753,True
30069,154699,0,154700,5036.0,41993.0,27599.0,-0.0077469999999999995,-0.001464,0.002989,0.43750000000000006,-0.6825000000000001,-3.7100000000000004,0.9725312500000001,0.1439375,0.07890625,1.25096875,0.94265625,-0.32703125,-0.38378125,1.23040625,0.0193598941506683,0.01897521533908938,True
30070,154700,0,154701,5036.0,41997.0,27602.0,-0.008418,-0.0015249999999999999,0.0026839999999999998,0.42000000000000004,-0.6825000000000001,-3.6925000000000003,0.980875,0.1445,0.082375,1.24428125,0.9466875,-0.32965625,-0.3774375,1.2261250000000001,0.019488818301738233,0.018862216342468315,True
30071,154701,0,154702,5035.0,41996.0,27602.0,-0.0064659999999999995,-0.00061,0.0017079999999999999,0.35000000000000003,-1.225,-3.6925000000000003,0.9775,0.14521875,0.081875,1.2452812500000001,0.9476875,-0.32459375,-0.37915625000000003,1.22484375,0.01931429995619146,0.018910878016953517,True
30072,154702,0,154703,5036.0,41994.0,27602.0,-0.0008539999999999999,0.000915,-0.001037,0.28,-1.8725000000000003,-3.8150000000000004,0.97975,0.1443125,0.0824375,1.24471875,0.945875,-0.3286875,-0.3844375,1.22521875,0.019442068134583917,0.01914643304771742,True
30073,154703,0,154704,5034.0,41995.0,27601.0,0.003355,0.000976,-6.1e-05,0.2625,-2.4850000000000003,-3.9375000000000004,0.9791562500000001,0.14350000000000002,0.08215625,1.244125,0.94665625,-0.32775,-0.3823125,1.22590625,0.01937088304508226,0.01904941338111387,True
30074,154704,0,154705,5038.0,41995.0,27602.0,0.007625,-0.000305,-0.002806,0.22750000000000004,-2.8175000000000003,-3.9375000000000004,0.97909375,0.142875,0.08653125,1.24484375,0.94734375,-0.324625,-0.3846875,1.22525,0.01921920687369281,0.019324371083287415,True
30075,154705,0,154706,5038.0,41995.0,27604.0,0.0064659999999999995,-0.000122,-0.0011589999999999999,0.31500000000000006,-2.5725000000000002,-3.8850000000000002,0.97309375,0.14409375,0.08121875,1.249625,0.9450625,-0.3266875,-0.3821875,1.2255625,0.019352460132519074,0.019005934147623138,True
30076,154706,0,154707,5041.0,41997.0,27602.0,0.002928,-0.000183,0.000488,0.31500000000000006,-2.1350000000000002,-3.9200000000000004,0.97140625,0.14300000000000002,0.084375,1.24834375,0.95146875,-0.32646875000000003,-0.38325000000000004,1.23084375,0.019298680578125425,0.019178124327150815,True
30077,154707,0,154708,5040.0,41998.0,27603.0,-0.000183,-0.000976,0.000732,0.35000000000000003,-1.7500000000000002,-3.8325000000000005,0.9734375000000001,0.14465625000000001,0.08096875,1.2493125,0.9452812500000001,-0.32634375,-0.3820625,1.2320625,0.019361725906713787,0.018990651426637924,True
30078,154708,0,154709,5038.0,41999.0,27604.0,-0.002623,-0.00042699999999999997,0.001098,0.29750000000000004,-1.435,-3.7800000000000002,0.9715,0.14484375,0.08196875,1.25121875,0.95275,-0.3264375,-0.38275000000000003,1.2330625,0.019373212785472594,0.019059324727522534,True
30079,154709,0,154710,5041.0,41999.0,27604.0,-0.0030499999999999998,0.0013419999999999999,-0.000183,0.3325,-1.2600000000000002,-3.6750000000000003,0.9746250000000001,0.1446875,0.0813125,1.25253125,0.9580000000000001,-0.326125,-0.37896875,1.2359375000000001,0.01935419225215689,0.01888025923984172,True
30080,154710,0,154711,5042.0,41998.0,27603.0,-0.001403,0.000488,0.000549,0.29750000000000004,-1.2950000000000002,-3.7100000000000004,0.97296875,0.144375,0.0810625,1.2469375,0.94471875,-0.326125,-0.39096875000000003,1.2330625,0.01934134598091558,0.019352706111765244,True
30081,154711,0,154712,5041.0,42001.0,27603.0,-0.00183,0.000305,-0.00042699999999999997,0.28,-1.3650000000000002,-3.7625,0.9732500000000001,0.14234375,0.08003125,1.2446875,0.93865625,-0.32875,-0.389125,1.21275,0.019363664388840362,0.01923628871474479,True
30082,154712,0,154713,5043.0,41997.0,27604.0,-0.000915,-0.000915,-0.000305,0.24500000000000002,-1.2425000000000002,-3.8500000000000005,0.9732500000000001,0.14128125,0.0835625,1.24415625,0.93834375,-0.33375,-0.385375,1.21953125,0.019521497919556173,0.019230276343915154,True
30083,154713,0,154714,5044.0,41999.0,27605.0,-0.0011589999999999999,-0.00042699999999999997,0.000244,0.28,-1.2075,-3.7800000000000002,0.980375,0.1419375,0.0824375,1.243875,0.95153125,-0.33059375,-0.37459375,1.21925,0.019421279022424187,0.018750312505208422,True
30084,154714,0,154715,5046.0,41999.0,27605.0,0.000366,0.000488,0.000305,0.17500000000000002,-1.3650000000000002,-3.8150000000000004,0.98075,0.14275000000000002,0.0823125,1.251125,0.9550000000000001,-0.331125,-0.38046875,1.23103125,0.01947608258968708,0.018981638734899223,True
30085,154715,0,154716,5045.0,42001.0,27604.0,0.001098,-0.000549,-0.00042699999999999997,0.31500000000000006,-1.4525000000000001,-3.9725000000000006,0.9790625000000001,0.14509375,0.081375,1.239625,0.95834375,-0.32396875,-0.3844375,1.2410625,0.019283962449589978,0.019102860174650325,True
30086,154716,0,154717,5044.0,42001.0,27604.0,0.00061,-0.000122,-6.1e-05,0.2625,-1.5050000000000001,-4.0425,0.97371875,0.15184375,0.08046875,1.24471875,0.93209375,-0.3223125,-0.38606250000000003,1.2220312500000001,0.019494702652142967,0.01913106103127555,True
30087,154717,0,154718,5046.0,42003.0,27606.0,0.000366,0.000488,-0.000244,0.31500000000000006,-1.54,-3.9550000000000005,0.97259375,0.14340625,0.0808125,1.2443125,0.922875,-0.32871875,-0.38584375,1.21128125,0.019406077436774184,0.019136358568688033,True
30088,154718,0,154719,5046.0,42001.0,27606.0,0.0008539999999999999,-0.000183,0.000976,0.35000000000000003,-1.5750000000000002,-4.0075,0.97246875,0.14284375,0.08378125,1.24453125,0.93990625,-0.3354375,-0.38296875,1.2196875,0.019653694329514314,0.01914245983684821,True
30089,154719,0,154720,5047.0,42002.0,27607.0,-0.0008539999999999999,-6.1e-05,0.000183,0.29750000000000004,-1.4525000000000001,-4.0425,0.9810625000000001,0.14159375,0.08253125,1.2441875,0.9531875,-0.33187500000000003,-0.37853125,1.21990625,0.019458786057383576,0.018912644706600194,True
30090,154720,0,154721,5049.0,42003.0,27605.0,-0.000122,-0.000366,-0.000488,0.31500000000000006,-1.4000000000000001,-3.9725000000000006,0.98075,0.145,0.0813125,1.24859375,0.9559062500000001,-0.32559375,-0.38034375,1.22959375,0.019345622344778327,0.01893559232527228,True
30091,154721,0,154722,5047.0,42002.0,27608.0,0.000488,-0.000183,0.000244,0.4025,-1.5050000000000001,-4.0075,0.9653125,0.14484375,0.08084375,1.25009375,0.94946875,-0.32653125,-0.3829375,1.2320625,0.019376991941668625,0.01902072914717515,True
30092,154722,0,154723,5048.0,42004.0,27607.0,0.0008539999999999999,0.0,-0.001098,0.2625,-1.5225000000000002,-3.9550000000000005,0.97378125,0.14071875,0.07931250000000001,1.23503125,0.9446875,-0.32696875000000003,-0.3844375,1.2206875,0.019225062719743908,0.019018277538696556,True
30093,154723,0,154724,5048.0,42005.0,27607.0,0.0018909999999999999,0.00042699999999999997,-0.0013419999999999999,0.35000000000000003,-1.4175000000000002,-3.99,0.9730625,0.1428125,0.08065625,1.24459375,0.9460937500000001,-0.32371875,-0.385375,1.22678125,0.019180095560017936,0.01911109630259941,True
30094,154724,0,154725,5050.0,42004.0,27606.0,0.00183,6.1e-05,-6.1e-05,0.36750000000000005,-1.3125000000000002,-4.0075,0.97321875,0.1418125,0.08334375000000001,1.2445625,0.94059375,-0.32903125,-0.38359375,1.22546875,0.019353164750446034,0.01914965877415014,True
30095,154725,0,154726,5050.0,42007.0,27607.0,-0.0017079999999999999,0.0015249999999999999,0.0,0.36750000000000005,-1.05,-3.9725000000000006,0.97984375,0.14396875,0.08275,1.25021875,0.94496875,-0.32206250000000003,-0.381625,1.2245,0.019160844192387054,0.01904610541750191,True
30096,154726,0,154727,5052.0,42004.0,27607.0,-0.003721,0.001769,0.0011589999999999999,0.35000000000000003,-0.7875000000000001,-3.9375000000000004,0.97271875,0.14528125,0.08065625,1.24465625,0.95178125,-0.32596875000000003,-0.38421875,1.225375,0.019372301462814302,0.019064584548151662,True
30097,154727,0,154728,5053.0,42004.0,27607.0,-0.0048189999999999995,0.000366,0.001769,0.31500000000000006,-0.7000000000000001,-3.8150000000000004,0.97659375,0.14409375,0.08275,1.24953125,0.945875,-0.3293125,-0.3815625,1.2251875,0.01945826664851298,0.01904359082811038,True
30098,154728,0,154729,5053.0,42005.0,27609.0,-0.00488,-0.001586,0.000915,0.3325,-0.8575,-3.8850000000000002,0.981,0.145125,0.08234375000000001,1.2519375,0.95384375,-0.32753125,-0.382,1.22471875,0.019428862104534345,0.019044530801410876,True
30099,154729,0,154730,5054.0,42006.0,27607.0,0.000244,-0.0008539999999999999,-0.000366,0.3325,-1.3650000000000002,-3.9200000000000004,0.98075,0.1505,0.0821875,1.23728125,0.95225,-0.32815625,-0.37840625,1.21809375,0.019674990783569966,0.01889351359874069,True
30100,154730,0,154731,5057.0,42005.0,27610.0,0.0011589999999999999,-0.000183,-0.000793,0.4025,-1.5750000000000002,-3.9025000000000003,0.982125,0.14546875,0.0834375,1.243125,0.945375,-0.3289375,-0.38325000000000004,1.22571875,0.01949966988899536,0.019139675802036234,True
30101,154731,0,154732,5060.0,42006.0,27610.0,0.002562,0.00042699999999999997,-0.000488,0.21000000000000002,-1.7500000000000002,-3.9725000000000006,0.9821875,0.141625,0.0835,1.24259375,0.94203125,-0.32825,-0.3835,1.2254375,0.01931396627377637,0.01915229560973609,True
30102,154732,0,154733,5058.0,42008.0,27611.0,0.002013,-0.000488,-0.000183,0.36750000000000005,-1.7850000000000001,-3.9025000000000003,0.97009375,0.14415625,0.0766875,1.2457500000000001,0.9455625,-0.32640625,-0.382875,1.23290625,0.01934369159028576,0.018847756878546933,True
30103,154733,0,154734,5061.0,42009.0,27611.0,0.002257,-6.1e-05,0.000122,0.43750000000000006,-1.7850000000000001,-3.7975000000000003,0.972125,0.14575,0.08359375000000001,1.25209375,0.9480937500000001,-0.32384375,-0.38190625,1.2255,0.019305902258971712,0.019092026489930417,True
30104,154734,0,154735,5064.0,42007.0,27609.0,0.000793,0.000183,0.000122,0.385,-1.9775000000000003,-3.8150000000000004,0.9860625000000001,0.14503125,0.0833125,1.2421875,0.9511875000000001,-0.32971875,-0.38171875,1.22484375,0.01951317254746317,0.019072947841300154,True
30105,154735,0,154736,5063.0,42007.0,27612.0,0.000366,0.000244,0.000793,0.36750000000000005,-2.0300000000000002,-3.7450000000000006,0.97965625,0.1393125,0.07765625,1.24840625,0.945875,-0.32740625,-0.38096875,1.2315625000000001,0.019184895635966124,0.01881077838631822,True
