frame_seq,absolute_seq_u64,segment_id,sample_seq,PPG_G,PPG_R,PPG_IR,ACC_X,ACC_Y,ACC_Z,GYRO_X,GYRO_Y,GYRO_Z,Uh1,Uh2,Uh3,Uh4,Uc1,Uc2,Uc3,Uc4,UD1,UD2,parser_valid
50414,43972,0,43973,5140.0,45639.0,30782.0,-0.000366,0.00042699999999999997,-0.000793,0.43750000000000006,-1.3475000000000001,-3.8500000000000005,0.9274375,0.05384375,0.54659375,1.22153125,0.906875,-0.382125,-0.011625,1.1996875,0.017880670778285323,0.023247853904098538,True
50415,43973,0,43974,5142.0,45641.0,30781.0,0.001098,0.000183,0.000488,0.49000000000000005,-1.5050000000000001,-3.7800000000000002,0.93384375,0.05159375,0.5528125,1.22815625,0.9093125,-0.37421875,-0.01015625,1.21109375,0.01746979069841982,0.023447108970813133,True
50416,43974,0,43975,5142.0,45640.0,30783.0,0.0015249999999999999,-0.000549,-0.000122,0.45500000000000007,-1.54,-3.6750000000000003,0.942125,0.051375000000000004,0.55559375,1.214375,0.90925,-0.379125,-0.004625,1.202875,0.017658550091522975,0.023337950499122562,True
50417,43975,0,43976,5143.0,45641.0,30783.0,0.001281,0.000366,0.001586,0.4025,-1.4000000000000001,-3.7800000000000002,0.93803125,0.0505,0.554875,1.210875,0.9140312500000001,-0.38315625000000003,-0.010625,1.211,0.017785074481487605,0.02355207330088242,True
50418,43976,0,43977,5142.0,45640.0,30784.0,0.000488,0.000183,0.000122,0.45500000000000007,-1.3825,-3.6575,0.9333125,0.0475625,0.55134375,1.22453125,0.91453125,-0.38225000000000003,-0.00921875,1.2034375,0.017628090106532417,0.023347802601865173,True
50419,43977,0,43978,5145.0,45643.0,30784.0,0.000305,-0.00061,-0.000793,0.4025,-1.4000000000000001,-3.6400000000000006,0.94275,0.05025,0.55371875,1.21909375,0.9090625,-0.380375,-0.01209375,1.2120312500000001,0.017662771799039186,0.023563646964355204,True
50420,43978,0,43979,5145.0,45641.0,30784.0,-0.000793,-0.000122,-0.0013419999999999999,0.4025,-1.5225000000000002,-3.7625,0.94696875,0.0471875,0.55153125,1.22396875,0.9146562500000001,-0.3779375,-0.00915625,1.2029375,0.017438924027104424,0.023353069727304557,True
50421,43979,0,43980,5145.0,45641.0,30783.0,-0.000366,-0.000793,0.000366,0.42000000000000004,-1.4875,-3.7975000000000003,0.93996875,0.04975,0.55421875,1.2079375,0.90809375,-0.3808125,-0.00771875,1.1993125,0.017659891359239975,0.023406534617121836,True
50422,43980,0,43981,5144.0,45642.0,30787.0,-0.000488,-0.000244,-0.0006709999999999999,0.36750000000000005,-1.3650000000000002,-3.7800000000000002,0.94040625,0.04925,0.55296875,1.22596875,0.9178437500000001,-0.38065625000000003,-0.0135,1.20559375,0.017633087706570655,0.023589595435900636,True
50423,43981,0,43982,5148.0,45644.0,30784.0,-0.0017079999999999999,-0.0015249999999999999,0.00042699999999999997,0.3325,-1.5050000000000001,-3.7625,0.94725,0.046906250000000003,0.5513125,1.20815625,0.9106562500000001,-0.3796875,-0.00934375,1.20284375,0.01749791706723066,0.023351585775850288,True
50424,43982,0,43983,5148.0,45644.0,30787.0,-0.000183,-0.00042699999999999997,0.001403,0.36750000000000005,-1.5750000000000002,-3.7100000000000004,0.9390937500000001,0.0496875,0.55390625,1.2190625,0.90834375,-0.37990625,-0.01,1.2034375,0.01762081222112985,0.023486307788421493,True
50425,43983,0,43984,5147.0,45644.0,30788.0,0.000305,0.00061,0.0006709999999999999,0.42000000000000004,-1.7675,-3.8150000000000004,0.93940625,0.04984375,0.55275,1.22578125,0.9061250000000001,-0.38215625000000003,-0.0125625,1.20978125,0.0177178751366586,0.02354236454355923,True
50426,43984,0,43985,5150.0,45644.0,30785.0,0.001403,0.00122,0.001037,0.5075000000000001,-1.715,-3.8150000000000004,0.945375,0.0468125,0.56046875,1.21875,0.912625,-0.37915625000000003,-0.00859375,1.20359375,0.01747266171281051,0.023702450294490904,True
50427,43985,0,43986,5150.0,45643.0,30790.0,0.000915,-0.000305,-0.000244,0.49000000000000005,-1.6275000000000002,-3.8325000000000005,0.940125,0.04990625,0.5529375,1.2184375,0.90934375,-0.38271875,-0.0124375,1.20703125,0.01774309930060609,0.023545089914341264,True
50428,43986,0,43987,5152.0,45645.0,30789.0,-0.000244,0.00042699999999999997,-0.000366,0.56,-1.3125000000000002,-3.8500000000000005,0.9474375,0.04775,0.55028125,1.2276875,0.9143125,-0.37865625,-0.0100625,1.20253125,0.017490966098674943,0.023337871361226153,True
50429,43987,0,43988,5152.0,45645.0,30789.0,-0.000793,-0.000122,-0.00061,0.5075000000000001,-1.2950000000000002,-3.99,0.9480000000000001,0.04684375,0.551,1.2258437500000001,0.9091250000000001,-0.37959375,-0.00828125,1.20553125,0.01749157530567957,0.02329534730854588,True
50430,43988,0,43989,5154.0,45646.0,30789.0,-0.001281,0.00061,-0.000244,0.56,-1.2425000000000002,-4.112500000000001,0.9430625,0.04909375,0.5533125,1.21990625,0.9058437500000001,-0.381625,-0.01253125,1.2091875,0.017665711370755642,0.02356451904669567,True
50431,43989,0,43990,5153.0,45642.0,30789.0,-0.0021349999999999997,0.000305,-0.0006709999999999999,0.6125,-1.1725,-4.2175,0.939125,0.0499375,0.5521875,1.22509375,0.91040625,-0.37978125,-0.00959375,1.20340625,0.017626029765956164,0.023398198897055474,True
50432,43990,0,43991,5155.0,45645.0,30790.0,-0.0044529999999999995,-0.000244,-0.000366,0.5950000000000001,-1.2950000000000002,-4.62,0.94578125,0.045875,0.55009375,1.2211875,0.9065625,-0.37915625000000003,-0.0037187500000000003,1.2101875,0.01743420673141631,0.023071945883385257,True
50433,43991,0,43992,5155.0,45646.0,30789.0,-0.0028669999999999998,-0.0006709999999999999,-0.00122,0.4025,-1.3475000000000001,-4.812500000000001,0.9390000000000001,0.04984375,0.55371875,1.2194375,0.9129375000000001,-0.3824375,-0.0111875,1.2086875,0.017729205703900602,0.023526793499904997,True
50434,43992,0,43993,5155.0,45647.0,30789.0,-0.002196,-0.000793,-0.002562,0.17500000000000002,-1.8025000000000002,-4.952500000000001,0.93834375,0.046906250000000003,0.55121875,1.2195,0.91590625,-0.38046875,-0.00690625,1.20309375,0.017529400455026118,0.023248518330011805,True
50435,43993,0,43994,5158.0,45646.0,30791.0,0.0013419999999999999,-0.001464,-0.002257,-0.07,-2.1700000000000004,-4.970000000000001,0.93990625,0.0498125,0.55178125,1.2202187500000001,0.90828125,-0.381375,-0.0104375,1.203625,0.017685118251124066,0.023415597904036526,True
50436,43994,0,43995,5160.0,45649.0,30793.0,0.00549,-0.0021349999999999997,-0.001769,-0.22750000000000004,-2.45,-4.970000000000001,0.94021875,0.05,0.55259375,1.219,0.908625,-0.3814375,-0.00428125,1.20328125,0.017695326618867323,0.02319898663910214,True
50437,43995,0,43996,5159.0,45648.0,30793.0,0.00976,-0.002196,0.0026839999999999998,-0.5425000000000001,-2.5375,-4.62,0.93959375,0.047343750000000004,0.5530625,1.21996875,0.9095625,-0.38175000000000003,-0.00934375,1.20153125,0.017598972592205237,0.023424474065435463,True
50438,43996,0,43997,5162.0,45650.0,30792.0,0.007442,-0.000488,0.00366,-0.24500000000000002,-2.2750000000000004,-4.340000000000001,0.94053125,0.0486875,0.5525,1.22009375,0.913375,-0.38078125,-0.008906250000000001,1.20371875,0.017615052840031533,0.023383249705512928,True
50439,43997,0,43998,5161.0,45650.0,30793.0,0.007259,0.00183,0.0037819999999999998,0.07,-2.0300000000000002,-4.0425,0.9396875,0.04828125,0.5542812500000001,1.21309375,0.9150312500000001,-0.37428125,-0.0095625,1.204,0.0173364086376906,0.023484132624240865,True
50440,43998,0,43999,5162.0,45649.0,30793.0,0.004514,0.002989,0.003904,0.43750000000000006,-1.5575,-3.9725000000000006,0.94078125,0.049625,0.55253125,1.22471875,0.9171875,-0.384125,-0.01128125,1.20303125,0.0177882126178405,0.023481150136459298,True
50441,43999,0,44000,5164.0,45654.0,30796.0,0.0025009999999999998,0.003477,0.00244,0.6475000000000001,-1.0850000000000002,-3.6575,0.94534375,0.05034375,0.55559375,1.220375,0.90934375,-0.37725000000000003,-0.006125,1.2024062500000001,0.017540688551825986,0.023398976302922692,True
50442,44000,0,44001,5165.0,45653.0,30795.0,-0.0066489999999999995,0.000549,-0.000549,0.7000000000000001,-0.21000000000000002,-2.9400000000000004,0.9401875000000001,0.054625,0.552625,1.229125,0.91540625,-0.38475,-0.00696875,1.19271875,0.01801843365218015,0.023309637956687057,True
50443,44001,0,44002,5166.0,45650.0,30795.0,-0.009211,-6.1e-05,-0.002562,0.7350000000000001,-0.12250000000000001,-2.7475,0.9324687500000001,0.0505,0.5545625,1.22178125,0.9065625,-0.37934375000000004,-0.012125,1.20928125,0.017631473365643816,0.02360005622159638,True
50444,44002,0,44003,5166.0,45650.0,30793.0,-0.00915,-6.1e-05,-0.004331,0.8400000000000001,-0.17500000000000002,-2.8175000000000003,0.96121875,0.0538125,0.55540625,1.20590625,0.91015625,-0.3784375,-0.008,1.2083125000000001,0.017730832831267383,0.023467437937354216,True
50445,44003,0,44004,5168.0,45651.0,30792.0,-0.008723,-6.1e-05,-0.002623,0.7525000000000001,-0.21000000000000002,-3.0275000000000003,0.9733437500000001,0.0503125,0.56525,1.21484375,0.91825,-0.37634375000000003,-0.00725,1.19925,0.017502881251418193,0.02384696289662498,True
50446,44004,0,44005,5168.0,45649.0,30796.0,-0.008113,-0.00061,-0.002623,0.805,-0.4025,-3.1325000000000003,0.9530000000000001,0.04534375,0.55825,1.22275,0.9224687500000001,-0.38315625000000003,-0.00825,1.2105625,0.017573606780295313,0.02359605552258078,True
50447,44005,0,44006,5171.0,45651.0,30795.0,-0.0040869999999999995,-0.00042699999999999997,-0.000488,0.56,-0.9100000000000001,-3.325,0.95796875,0.05659375,0.55634375,1.2235,0.91890625,-0.378625,-0.01053125,1.21334375,0.017852473221931096,0.023609431798807035,True
50448,44006,0,44007,5171.0,45652.0,30794.0,-6.1e-05,-0.000732,0.00061,0.3325,-1.3125000000000002,-3.535,0.96184375,0.04525,0.560125,1.20865625,0.9116562500000001,-0.378625,-0.007875,1.2011875,0.017387157807300452,0.02365890358892655,True
50449,44007,0,44008,5172.0,45652.0,30794.0,0.004941,-0.000183,0.001403,0.21000000000000002,-1.5575,-3.8325000000000005,0.93175,0.040875,0.55209375,1.2090625,0.90871875,-0.38475,-0.00715625,1.2011875,0.017454556638882908,0.023295137257250118,True
50450,44008,0,44009,5172.0,45652.0,30793.0,0.0071979999999999995,-0.0008539999999999999,0.0011589999999999999,0.17500000000000002,-1.7675,-4.077500000000001,0.9285625000000001,0.0455625,0.549,1.22353125,0.9005625,-0.384375,-0.00953125,1.20015625,0.017631680123029608,0.02326289689641484,True
50451,44009,0,44010,5173.0,45651.0,30794.0,0.007686,0.000244,0.001586,0.1925,-1.6275000000000002,-4.2700000000000005,0.933875,0.043687500000000004,0.558875,1.216375,0.90725,-0.378875,-0.00553125,1.20553125,0.017333141910773158,0.023511508415378225,True
50452,44010,0,44011,5175.0,45652.0,30795.0,0.002379,-0.000122,0.000244,0.45500000000000007,-1.2950000000000002,-4.445,0.9559062500000001,0.051500000000000004,0.54384375,1.2161875,0.91478125,-0.378875,-0.012718750000000001,1.20228125,0.01765360378606478,0.023177821128646664,True
50453,44011,0,44012,5173.0,45652.0,30793.0,0.0,0.000549,-0.0008539999999999999,0.3325,-1.12,-4.585000000000001,0.9315,0.03759375,0.556875,1.20884375,0.90715625,-0.38184375,-0.00634375,1.2024062500000001,0.017202862273284807,0.02346124657154424,True
50454,44012,0,44013,5175.0,45650.0,30793.0,-0.003294,-0.000244,-0.001586,0.36750000000000005,-0.9625000000000001,-4.585000000000001,0.9364375,0.0391875,0.547875,1.2180625,0.91334375,-0.37934375000000004,-0.010875000000000001,1.1940625,0.017167453492262275,0.02327070546158772,True
50455,44013,0,44014,5175.0,45651.0,30794.0,-0.003111,0.0,-0.000183,0.43750000000000006,-0.9625000000000001,-4.48,0.9273750000000001,0.0493125,0.5491875,1.22303125,0.909,-0.38228125,-0.01171875,1.20303125,0.017701122613373185,0.023359687652513422,True
50456,44014,0,44015,5175.0,45653.0,30794.0,-0.0034159999999999998,0.0008539999999999999,0.00042699999999999997,0.22750000000000004,-1.0675000000000001,-4.6025,0.9283750000000001,0.045625,0.55153125,1.2159375000000001,0.9048125,-0.38165625000000003,-0.0093125,1.20353125,0.01752470158789972,0.023359425639530494,True
50457,44015,0,44016,5175.0,45653.0,30791.0,-0.0011589999999999999,-0.00061,0.000183,0.21000000000000002,-1.4000000000000001,-4.550000000000001,0.9339375,0.046375,0.5543750000000001,1.2201875,0.9139375000000001,-0.3813125,-0.00915625,1.19515625,0.017541611018684903,0.023471514122867188,True
50458,44016,0,44017,5173.0,45653.0,30791.0,0.001403,-0.001586,-0.000122,0.10500000000000001,-1.61,-4.445,0.9400937500000001,0.04653125,0.55225,1.21990625,0.9165,-0.3811875,-0.01040625,1.20353125,0.017542982678755908,0.023433849645921753,True
50459,44017,0,44018,5173.0,45652.0,30792.0,0.0026839999999999998,0.0006709999999999999,0.000549,0.2625,-1.9600000000000002,-4.3925,0.931,0.047218750000000004,0.551,1.21996875,0.91859375,-0.37828125,-0.0094375,1.20365625,0.017454060671319886,0.023342383593951337,True
50460,44018,0,44019,5172.0,45655.0,30792.0,0.003538,0.00061,0.000488,0.2625,-2.1,-4.2875000000000005,0.939875,0.0468125,0.5513750000000001,1.22009375,0.9154375,-0.3785,-0.01009375,1.2035625,0.01744621285148799,0.023384696280080126,True
50461,44019,0,44020,5173.0,45655.0,30793.0,0.003111,0.00122,0.000915,0.29750000000000004,-1.995,-4.2525,0.93915625,0.0475,0.55365625,1.2204375,0.91546875,-0.379375,-0.01109375,1.20625,0.01750967775014741,0.02352037795029641,True
50462,44020,0,44021,5172.0,45654.0,30793.0,-6.1e-05,0.00061,0.001647,0.47250000000000003,-1.6975000000000002,-4.2175,0.9363125,0.047125,0.55375,1.2197500000000001,0.9163125,-0.37959375,-0.00990625,1.2109375,0.017503111593071562,0.023475987125105912,True
50463,44021,0,44022,5173.0,45655.0,30791.0,-0.001952,0.000305,-0.000122,0.4025,-1.6800000000000002,-4.165,0.94565625,0.04684375,0.55534375,1.219875,0.91290625,-0.3795625,-0.01053125,1.21071875,0.017490315915226127,0.023567783407541225,True
50464,44022,0,44023,5173.0,45653.0,30792.0,-0.002013,-0.0006709999999999999,-0.001098,0.47250000000000003,-1.6275000000000002,-4.1825,0.94053125,0.0469375,0.5513125,1.2258125,0.91671875,-0.37878125,-0.01053125,1.20325,0.01746267566185246,0.023399888330250918,True
50465,44023,0,44024,5172.0,45657.0,30793.0,-0.0018909999999999999,6.1e-05,-0.001952,0.47250000000000003,-1.6800000000000002,-4.165,0.94015625,0.055781250000000004,0.55234375,1.22075,0.90925,-0.38071875,-0.01171875,1.20903125,0.01790349187306055,0.023491133886448676,True
50466,44024,0,44025,5173.0,45657.0,30791.0,0.0,0.000366,-0.002257,0.36750000000000005,-1.7850000000000001,-4.2175,0.94425,0.047625,0.55203125,1.2193125,0.9081875,-0.37903125,-0.00996875,1.1934375,0.01750095176566952,0.023406944251020734,True
50467,44025,0,44026,5172.0,45656.0,30790.0,-0.001037,-0.0015249999999999999,-0.000488,0.3325,-1.6800000000000002,-4.235,0.93965625,0.04925,0.55296875,1.224375,0.9150625,-0.38303125,-0.01034375,1.200625,0.01772877398088066,0.023461242615487335,True
50468,44026,0,44027,5171.0,45656.0,30788.0,-0.000976,-0.001464,0.000732,0.31500000000000006,-1.6275000000000002,-4.2875000000000005,0.93365625,0.04953125,0.55584375,1.2279375000000001,0.90971875,-0.381625,-0.010937500000000001,1.20315625,0.01768365521166042,0.02360512787141277,True
50469,44027,0,44028,5172.0,45657.0,30790.0,-0.001769,-0.000732,-0.001037,0.47250000000000003,-1.6450000000000002,-4.41,0.9440937500000001,0.0501875,0.55240625,1.22121875,0.90865625,-0.379875,-0.012812500000000001,1.20865625,0.0176400617312435,0.023538215275699173,True
50470,44028,0,44029,5175.0,45656.0,30793.0,-0.000488,-0.000122,-0.000793,0.6300000000000001,-1.6625,-4.550000000000001,0.9485625,0.047843750000000004,0.55415625,1.21965625,0.9096875,-0.3793125,-0.0110625,1.20434375,0.017521259059294636,0.023539930813140816,True
50471,44029,0,44030,5174.0,45656.0,30794.0,0.000488,0.00061,-0.0011589999999999999,0.49000000000000005,-1.6800000000000002,-4.742500000000001,0.94203125,0.04725,0.55425,1.21971875,0.9178437500000001,-0.37990625,-0.008968750000000001,1.2028125,0.017520832345284346,0.023458681456278708,True
50472,44030,0,44031,5173.0,45656.0,30792.0,0.000732,-6.1e-05,0.002013,0.29750000000000004,-1.5225000000000002,-4.9,0.94021875,0.049875,0.55340625,1.21459375,0.9085,-0.38221875,-0.012843750000000001,1.2085625,0.017721674734790083,0.023581130410678663,True
50473,44031,0,44032,5176.0,45656.0,30791.0,0.001464,-0.000549,0.001586,0.31500000000000006,-1.5050000000000001,-4.865,0.927,0.04684375,0.55165625,1.2265,0.90696875,-0.3776875,-0.01028125,1.20403125,0.017414746579223317,0.023404036552049968,True
50474,44032,0,44033,5174.0,45657.0,30794.0,0.0018909999999999999,-0.000305,0.001403,0.385,-1.4875,-4.987500000000001,0.93615625,0.04953125,0.55315625,1.220875,0.909625,-0.379,-0.01165625,1.2090625,0.017577884654825876,0.023522429861538602,True
50475,44033,0,44034,5177.0,45656.0,30793.0,0.001586,0.0,0.000793,0.36750000000000005,-1.3825,-5.022500000000001,0.94640625,0.04775,0.551125,1.2185625,0.9094375,-0.3796875,-0.0091875,1.2026875000000001,0.01753252579632122,0.02333742031045407,True
50476,44034,0,44035,5175.0,45657.0,30793.0,0.001281,0.001098,0.001098,0.47250000000000003,-1.2600000000000002,-4.9,0.941625,0.050375,0.5542812500000001,1.21940625,0.9099375000000001,-0.38015625000000003,-0.0105,1.2029375,0.01765908493716073,0.023522261094104664,True
50477,44035,0,44036,5176.0,45657.0,30796.0,-0.000244,0.000488,-0.001098,0.6125,-1.2950000000000002,-4.6725,0.94053125,0.050625,0.55321875,1.21990625,0.90946875,-0.3800625,-0.0098125,1.202875,0.017665561767940503,0.023450047766928626,True
50478,44036,0,44037,5177.0,45659.0,30795.0,0.000488,0.000732,-0.00122,0.665,-1.2775,-4.4625,0.93990625,0.05025,0.55421875,1.219625,0.90853125,-0.38115625000000003,-0.00928125,1.2035625,0.01769424901659453,0.023470090342666963,True
50479,44037,0,44038,5177.0,45658.0,30794.0,-0.000244,0.000122,-0.0008539999999999999,0.5775,-1.2775,-4.41,0.94090625,0.050375,0.5528125,1.21940625,0.90709375,-0.38134375,-0.0120625,1.2171875,0.017706930119468906,0.02352463475388672,True
50480,44038,0,44039,5178.0,45654.0,30793.0,0.000183,-0.000366,-0.001586,0.5425000000000001,-1.2075,-4.41,0.9412812500000001,0.05,0.55359375,1.2198125,0.9195625000000001,-0.38559375,-0.01903125,1.2200312500000001,0.017862749394814303,0.023840470252104774,True
50481,44039,0,44040,5178.0,45657.0,30794.0,0.000122,-0.0015249999999999999,-0.000183,0.4025,-1.3125000000000002,-4.357500000000001,0.942625,0.047156250000000004,0.55115625,1.2203125000000001,0.91578125,-0.3769375,-0.008125,1.2041250000000001,0.017397335083621557,0.023295498919636583,True
50482,44040,0,44041,5179.0,45657.0,30795.0,-0.001281,-0.000244,-0.000549,0.45500000000000007,-1.0850000000000002,-4.305000000000001,0.9395,0.046968750000000004,0.55096875,1.2200625,0.9224687500000001,-0.37728125,-0.008,1.20584375,0.01740349941608029,0.02328260371542819,True
50483,44041,0,44042,5179.0,45656.0,30794.0,-0.0015249999999999999,0.000122,0.000366,0.5950000000000001,-1.12,-4.445,0.94015625,0.05071875,0.55121875,1.21990625,0.9243125,-0.38290625,-0.00678125,1.1989375,0.017783975197788408,0.023243432519717735,True
50484,44042,0,44043,5179.0,45653.0,30792.0,-0.002196,0.00042699999999999997,0.001037,0.6475000000000001,-1.1025,-4.41,0.94003125,0.050375,0.55175,1.22071875,0.92528125,-0.3725,-0.0075625,1.20315625,0.017350497486921735,0.023297346409074226,True
50485,44043,0,44044,5180.0,45656.0,30793.0,-0.0018909999999999999,0.000305,0.000488,0.56,-1.0325000000000002,-4.4975000000000005,0.93696875,0.04934375,0.54859375,1.2215625,0.9233125,-0.38346875,-0.0084375,1.19728125,0.017750243184739663,0.02320147864682989,True
50486,44044,0,44045,5179.0,45656.0,30794.0,-0.001586,-0.0006709999999999999,-0.000915,0.525,-1.0325000000000002,-4.550000000000001,0.9402812500000001,0.05215625,0.551625,1.22628125,0.92625,-0.38396875,-0.0073125,1.19784375,0.01788572666211279,0.023281968775138828,True
50487,44045,0,44046,5181.0,45656.0,30795.0,0.000549,-0.000366,-0.0023179999999999997,0.3325,-1.3125000000000002,-4.62,0.940625,0.05675,0.5498125,1.225875,0.92278125,-0.38246875,-0.00771875,1.19409375,0.018013711183368173,0.023222999894565163,True
50488,44046,0,44047,5181.0,45656.0,30793.0,0.0017079999999999999,-0.000732,-0.000549,0.28,-1.5575,-4.4975000000000005,0.9410625,0.055843750000000004,0.5500625,1.2251875,0.92125,-0.38734375,-0.00759375,1.19709375,0.018172848365250932,0.023228327495336758,True
50489,44047,0,44048,5184.0,45657.0,30796.0,0.001952,-0.00061,-0.000183,0.31500000000000006,-1.715,-4.48,0.94015625,0.05053125,0.55203125,1.22459375,0.91040625,-0.38259375,-0.01309375,1.19871875,0.017763696694491328,0.02353403546762899,True
50490,44048,0,44049,5184.0,45658.0,30796.0,0.0032329999999999998,0.000305,0.000976,0.3325,-1.5750000000000002,-4.3925,0.94640625,0.0469375,0.55021875,1.221,0.9019375000000001,-0.3751875,-0.009125,1.19884375,0.017317815503983303,0.023297131819672728,True
50491,44049,0,44050,5184.0,45658.0,30796.0,0.001403,0.000793,0.0021349999999999997,0.29750000000000004,-1.5750000000000002,-4.3925,0.94115625,0.04940625,0.551875,1.21915625,0.909875,-0.3869375,-0.015375,1.21046875,0.017892519304648236,0.023620284921638743,True
50492,44050,0,44051,5185.0,45659.0,30799.0,0.000122,0.001464,0.000976,0.43750000000000006,-1.435,-4.2175,0.94065625,0.05028125,0.55278125,1.2194375,0.9146875,-0.3820625,-0.01371875,1.20721875,0.01773204174175175,0.023590681888868214,True
50493,44051,0,44052,5186.0,45660.0,30798.0,-0.000305,0.000305,0.002745,0.43750000000000006,-1.4175000000000002,-4.165,0.94015625,0.05396875,0.5533125,1.22034375,0.9115625,-0.38040625,-0.011375,1.209125,0.01781656119860595,0.023517499518457396,True
50494,44052,0,44053,5187.0,45663.0,30800.0,-0.001281,0.000305,-0.000366,0.5950000000000001,-1.33,-4.095000000000001,0.94015625,0.04996875,0.55203125,1.22059375,0.916125,-0.3809375,-0.01403125,1.20903125,0.017673899947448696,0.02357215638253157,True
50495,44053,0,44054,5187.0,45663.0,30799.0,-0.000183,0.001098,-0.0006709999999999999,0.56,-1.2950000000000002,-4.077500000000001,0.94384375,0.04878125,0.5495625000000001,1.224625,0.9147500000000001,-0.379875,-0.01034375,1.2035625,0.017582380959705497,0.023319376674896627,True
50496,44054,0,44055,5187.0,45662.0,30800.0,-0.00122,-0.000488,-0.0015249999999999999,0.5075000000000001,-1.3475000000000001,-3.99,0.94696875,0.0473125,0.55159375,1.22496875,0.9093125,-0.3795625,-0.010625,1.19621875,0.017509543085525017,0.023415415050628628,True
50497,44055,0,44056,5188.0,45661.0,30800.0,-0.001464,-0.001098,-0.001403,0.45500000000000007,-1.2775,-3.9725000000000006,0.9403750000000001,0.05025,0.5525625,1.22025,0.90928125,-0.38125000000000003,-0.01590625,1.20865625,0.01769802614714176,0.023670510039570127,True
50498,44056,0,44057,5190.0,45660.0,30797.0,-0.001098,-0.000488,-0.000366,0.4025,-1.2950000000000002,-3.9725000000000006,0.9430625,0.04628125,0.5503750000000001,1.22559375,0.9071875,-0.37903125,-0.0101875,1.2038125,0.0174458326763907,0.023346860577411154,True
50499,44057,0,44058,5191.0,45659.0,30797.0,-0.001281,-0.0008539999999999999,-0.000244,0.43750000000000006,-1.3825,-4.0075,0.94671875,0.048625,0.5523125,1.21990625,0.9081250000000001,-0.37903125,-0.010937500000000001,1.20309375,0.01754197062280725,0.02345805947810243,True
50500,44058,0,44059,5193.0,45660.0,30798.0,-0.000793,-0.000488,-0.000366,0.45500000000000007,-1.4700000000000002,-4.0075,0.9410625,0.05009375,0.5525,1.2102187500000001,0.909375,-0.38203125,-0.013625,1.21,0.017723092697619274,0.023575157853093814,True
50501,44059,0,44060,5192.0,45660.0,30797.0,0.001037,0.000244,0.000793,0.45500000000000007,-1.715,-4.095000000000001,0.94359375,0.0475,0.54953125,1.22515625,0.91746875,-0.37915625000000003,-0.010812500000000001,1.20346875,0.017500862032499585,0.02333714238116682,True
50502,44060,0,44061,5196.0,45662.0,30798.0,0.000183,0.000366,-0.000244,0.42000000000000004,-1.6975000000000002,-4.025,0.939125,0.05084375,0.55275,1.220375,0.90865625,-0.37965625000000003,-0.0064062500000000005,1.19875,0.017658165299192848,0.023291959828431207,True
50503,44061,0,44062,5194.0,45662.0,30801.0,0.00042699999999999997,0.000183,0.000122,0.385,-1.8375000000000001,-4.0425,0.94165625,0.05025,0.5496875,1.23140625,0.91790625,-0.38221875,-0.01434375,1.20375,0.01773705479531062,0.023487264772746496,True
50504,44062,0,44063,5195.0,45664.0,30803.0,0.00122,-0.000305,0.000549,0.21000000000000002,-1.7850000000000001,-3.9200000000000004,0.9500000000000001,0.0446875,0.54903125,1.21615625,0.91,-0.3798125,-0.010937500000000001,1.20340625,0.01741194687202783,0.023321403006442375,True
50505,44063,0,44064,5198.0,45666.0,30801.0,0.002623,0.000122,0.000793,0.29750000000000004,-1.7325000000000002,-3.8150000000000004,0.93821875,0.05103125,0.54975,1.23053125,0.9145625000000001,-0.37925000000000003,-0.01203125,1.204625,0.01764948675615534,0.02339582370816713,True
50506,44064,0,44065,5198.0,45662.0,30803.0,0.0011589999999999999,0.00042699999999999997,0.000915,0.47250000000000003,-1.6450000000000002,-3.99,0.9500937500000001,0.05215625,0.5535,1.21746875,0.9098437500000001,-0.3791875,-0.01346875,1.20915625,0.017693114259857923,0.023610447782559527,True
50507,44065,0,44066,5200.0,45665.0,30803.0,-6.1e-05,0.00042699999999999997,-0.000305,0.31500000000000006,-1.5225000000000002,-3.9025000000000003,0.9443125,0.04571875,0.55125,1.2178437500000001,0.91703125,-0.38215625000000003,-0.0110625,1.203375,0.017548694037263418,0.023418892854075075,True
50508,44066,0,44067,5199.0,45665.0,30803.0,-0.0006709999999999999,-6.1e-05,-0.000488,0.385,-1.5750000000000002,-3.8675,0.9380937500000001,0.04484375,0.54984375,1.21790625,0.9158437500000001,-0.3804375,-0.010750000000000001,1.20271875,0.0174435446451689,0.023347615130722695,True
50509,44067,0,44068,5202.0,45665.0,30802.0,-0.000976,0.000793,-0.000549,0.29750000000000004,-1.5225000000000002,-3.7450000000000006,0.93803125,0.05075,0.5519375,1.2319375000000001,0.9110625,-0.38246875,-0.01046875,1.20934375,0.017767632738173816,0.023423376521959822,True
50510,44068,0,44069,5202.0,45666.0,30804.0,-0.00061,-0.0006709999999999999,-0.000793,0.385,-1.5925000000000002,-3.7275000000000005,0.9485,0.049125,0.55259375,1.21740625,0.9103125,-0.37915625000000003,-0.01121875,1.206375,0.017567517333582864,0.02348121125671724,True
50511,44069,0,44070,5204.0,45666.0,30803.0,-0.001403,0.000183,-0.000793,0.4025,-1.3650000000000002,-3.7100000000000004,0.94253125,0.04534375,0.548125,1.2278437500000001,0.9130312500000001,-0.38075000000000003,-0.01034375,1.20378125,0.01747664653466362,0.023259506644922563,True
50512,44070,0,44071,5205.0,45668.0,30805.0,0.000183,-0.000732,0.001098,0.31500000000000006,-1.2950000000000002,-3.6925000000000003,0.9429375,0.0501875,0.55721875,1.2173125,0.9101875,-0.37846875,-0.010125,1.20778125,0.017583395183505938,0.023629354282828603,True
50513,44071,0,44072,5206.0,45668.0,30806.0,-6.1e-05,-6.1e-05,0.002745,0.45500000000000007,-1.2775,-3.6225000000000005,0.9295625000000001,0.04465625,0.54796875,1.2100312500000001,0.9141875,-0.38090625,-0.010843750000000001,1.20353125,0.017454744940008128,0.0232733387388771,True
50514,44072,0,44073,5205.0,45668.0,30805.0,-0.000366,0.000366,0.000793,0.43750000000000006,-1.4000000000000001,-3.5175000000000005,0.93725,0.0478125,0.549625,1.2240312500000001,0.91190625,-0.38040625,-0.0103125,1.20328125,0.017564053101042972,0.02332070854971171,True
50515,44073,0,44074,5206.0,45668.0,30805.0,0.000793,-0.000183,-0.0017079999999999999,0.5950000000000001,-1.4000000000000001,-3.5875000000000004,0.93971875,0.05075,0.55190625,1.22378125,0.90525,-0.37953125,-0.0131875,1.2034375,0.01764928314608182,0.023532642220030143,True
50516,44074,0,44075,5207.0,45668.0,30805.0,0.002074,-0.000244,-0.002196,0.525,-1.2775,-3.7275000000000005,0.9390625,0.051937500000000004,0.55028125,1.22678125,0.909875,-0.38121875,-0.01209375,1.20359375,0.017765980217867496,0.023420489935410155,True
50517,44075,0,44076,5207.0,45669.0,30806.0,0.000244,0.0008539999999999999,-0.0018909999999999999,0.5425000000000001,-1.3125000000000002,-3.7800000000000002,0.93775,0.0501875,0.55171875,1.22653125,0.9091875,-0.38121875,-0.01153125,1.20359375,0.017694203658297436,0.023457479414187715,True
50518,44076,0,44077,5208.0,45669.0,30805.0,-0.0018909999999999999,-6.1e-05,-0.000549,0.4025,-1.1375000000000002,-3.7625,0.9439375,0.05059375,0.551,1.2261250000000001,0.909875,-0.381125,-0.0164375,1.2044062500000001,0.017707088987895348,0.02362704710055353,True
50519,44077,0,44078,5210.0,45671.0,30806.0,-0.0025009999999999998,0.00042699999999999997,0.00122,0.385,-1.0675000000000001,-3.7275000000000005,0.94315625,0.05090625,0.5512812500000001,1.22653125,0.909625,-0.38409375,-0.019,1.20046875,0.017839498341003547,0.023742922269869692,True
50520,44078,0,44079,5211.0,45668.0,30801.0,-0.0017079999999999999,0.0017079999999999999,0.003477,0.43750000000000006,-0.9450000000000001,-3.7800000000000002,0.9411875000000001,0.0500625,0.55140625,1.2271875,0.90390625,-0.38709375,-0.012125,1.195375,0.017925721468963478,0.023468612211538963,True
50521,44079,0,44080,5212.0,45668.0,30804.0,0.0015249999999999999,0.002257,0.003538,0.42000000000000004,-1.2075,-3.5175000000000005,0.93978125,0.05459375,0.5508125,1.22640625,0.9088437500000001,-0.38675,-0.00990625,1.19203125,0.01809768624355439,0.02335364179108363,True
50522,44080,0,44081,5211.0,45669.0,30801.0,0.0017079999999999999,0.0008539999999999999,0.0017079999999999999,0.4025,-1.33,-3.3775000000000004,0.9406875,0.05003125,0.54934375,1.21090625,0.92028125,-0.38503125,-0.00665625,1.19825,0.017841375536477938,0.02316024331793396,True
50523,44081,0,44082,5210.0,45668.0,30802.0,0.000915,-0.000305,0.000488,0.385,-1.3125000000000002,-3.325,0.94059375,0.05015625,0.55021875,1.2260625,0.93071875,-0.38653125,-0.0073437500000000005,1.18475,0.017906913267954006,0.023224664327972558,True
50524,44082,0,44083,5211.0,45669.0,30800.0,0.001647,-0.002623,-0.00061,0.10500000000000001,-1.33,-3.43,0.94084375,0.047031250000000004,0.54896875,1.21978125,0.9168437500000001,-0.3785625,-0.00965625,1.21346875,0.017457704899540325,0.023266680463199053,True
50525,44083,0,44084,5211.0,45668.0,30798.0,0.0008539999999999999,-0.005978,-0.002562,-0.08750000000000001,-1.4525000000000001,-3.5175000000000005,0.941875,0.047281250000000004,0.5503125,1.22040625,0.91778125,-0.37546875,-0.012375,1.21521875,0.01734325621943168,0.023433229740914843,True
50526,44084,0,44085,5209.0,45667.0,30798.0,-0.002379,-0.00488,-0.004209,0.08750000000000001,-0.9800000000000001,-3.8675,0.94746875,0.0500625,0.5500625,1.22109375,0.9080312500000001,-0.37771875,-0.01828125,1.21978125,0.017548042718312187,0.023662965059167172,True
50527,44085,0,44086,5210.0,45667.0,30796.0,-0.0051849999999999995,-0.001037,-0.003172,0.5950000000000001,-0.9100000000000001,-3.9200000000000004,0.9470625,0.049625,0.54965625,1.2225,0.89359375,-0.3795,-0.0193125,1.2139375000000001,0.017601878627535428,0.023687969836771967,True
50528,44086,0,44087,5209.0,45667.0,30797.0,-0.006161,0.0040869999999999995,-0.002196,1.1900000000000002,-0.6825000000000001,-3.9025000000000003,0.94796875,0.0499375,0.54996875,1.2169375,0.89678125,-0.38065625000000003,-0.02240625,1.22134375,0.017661286291258054,0.023826713862188556,True
50529,44087,0,44088,5209.0,45668.0,30798.0,-0.0048189999999999995,0.0068319999999999995,0.000305,1.61,-0.77,-4.1475,0.94778125,0.0493125,0.5500625,1.224375,0.8978125,-0.376125,-0.0180625,1.2121250000000001,0.01745304062889405,0.0236540728462173,True
50530,44088,0,44089,5208.0,45666.0,30798.0,-0.001952,0.008539999999999999,0.003172,1.4525000000000001,-1.0325000000000002,-4.2875000000000005,0.94665625,0.05375,0.5499375,1.22528125,0.89746875,-0.37796875,-0.021562500000000002,1.2025625,0.017709381549683052,0.023791125160988174,True
50531,44089,0,44090,5208.0,45667.0,30798.0,0.002562,0.002379,0.003294,0.525,-1.4700000000000002,-4.322500000000001,0.94565625,0.055968750000000005,0.549625,1.2145625,0.90146875,-0.37690625,-0.0120625,1.21053125,0.017757585624713964,0.023391888972469566,True
50532,44090,0,44091,5209.0,45670.0,30799.0,0.004758,-0.002623,0.00183,-0.08750000000000001,-1.7325000000000002,-4.4275,0.94240625,0.0476875,0.5496875,1.21909375,0.91059375,-0.3790625,-0.0126875,1.202625,0.017504774845218105,0.0234199108283902,True
50533,44091,0,44092,5209.0,45668.0,30798.0,0.006222,-0.0050019999999999995,-0.000915,-0.45500000000000007,-1.9775000000000003,-4.357500000000001,0.94034375,0.04725,0.5505625000000001,1.21965625,0.9020312500000001,-0.3828125,-0.01415625,1.20303125,0.01763793655879526,0.023516077105561434,True
50534,44092,0,44093,5209.0,45670.0,30797.0,0.007808,-0.007625,-0.0034159999999999998,-0.5425000000000001,-2.0825,-4.2700000000000005,0.94471875,0.0474375,0.54959375,1.2194375,0.9168125,-0.37953125,-0.0140625,1.2083125000000001,0.01751341096847381,0.023471924002862903,True
50535,44093,0,44094,5207.0,45667.0,30796.0,0.00732,-0.006527,-0.004148,-0.36750000000000005,-2.0125,-4.165,0.9396875,0.0580625,0.54953125,1.2265625,0.91725,-0.37984375000000004,-0.01421875,1.21,0.017961815280296868,0.023475675218457812,True
50536,44094,0,44095,5207.0,45668.0,30797.0,0.00061,-0.0008539999999999999,-0.000732,0.36750000000000005,-1.3825,-4.0075,0.9450937500000001,0.05071875,0.5494375,1.21721875,0.9093125,-0.3791875,-0.0161875,1.2100312500000001,0.017634150030635763,0.023551823119302345,True
50537,44095,0,44096,5209.0,45669.0,30799.0,-0.0048189999999999995,0.002013,0.0008539999999999999,0.8575,-1.0325000000000002,-3.8150000000000004,0.94525,0.050625,0.5493125,1.221,0.909875,-0.38015625000000003,-0.014968750000000001,1.2064062500000001,0.017669339178250757,0.023497063680334787,True
50538,44096,0,44097,5209.0,45669.0,30799.0,-0.0070149999999999995,0.004148,0.002928,1.1725,-0.805,-3.7100000000000004,0.9450000000000001,0.0503125,0.5512812500000001,1.2248125,0.9146562500000001,-0.37834375000000003,-0.015,1.2095625,0.01758348534239534,0.02358031438684156,True
50539,44097,0,44098,5208.0,45669.0,30800.0,-0.0070149999999999995,0.005612,0.003477,1.1900000000000002,-0.9625000000000001,-3.5000000000000004,0.94365625,0.0498125,0.54940625,1.22196875,0.910375,-0.3796875,-0.014875000000000001,1.20996875,0.01761712491187592,0.023497155408887197,True
50540,44098,0,44099,5211.0,45671.0,30801.0,-0.005856,0.0050019999999999995,0.002562,1.05,-1.2775,-3.4825000000000004,0.94846875,0.0481875,0.5493125,1.22309375,0.91528125,-0.374875,-0.007,1.19778125,0.017356499264098792,0.023172928729120672,True
50541,44099,0,44100,5211.0,45671.0,30800.0,0.000915,0.0011589999999999999,0.000183,0.49000000000000005,-1.61,-3.3075,0.94059375,0.0498125,0.5524375,1.2216875,0.9095,-0.376375,-0.0171875,1.2095625,0.01748362912861326,0.0237173898900527,True
50542,44100,0,44101,5212.0,45672.0,30798.0,0.0023179999999999997,-0.001403,-0.001037,0.10500000000000001,-1.8025000000000002,-3.3775000000000004,0.95903125,0.05640625,0.54996875,1.2162187500000001,0.911375,-0.37396875,-0.013875,1.2035,0.017657157289987912,0.023479915257325193,True
50543,44101,0,44102,5212.0,45669.0,30799.0,0.0032329999999999998,-0.0040869999999999995,-0.000793,-0.0175,-1.7675,-3.6225000000000005,0.94046875,0.04653125,0.5503125,1.2278437500000001,0.911375,-0.3801875,-0.01690625,1.20475,0.017502685325943453,0.023617477792336385,True
50544,44102,0,44103,5212.0,45670.0,30800.0,0.003172,-0.0050019999999999995,-0.001464,-0.052500000000000005,-1.5575,-3.5875000000000004,0.948625,0.05325,0.5515625000000001,1.2166875,0.90859375,-0.37925000000000003,-0.012812500000000001,1.203625,0.017740496528810365,0.023503077783995525,True
50545,44103,0,44104,5214.0,45670.0,30798.0,0.002013,-0.0037819999999999998,-0.0017079999999999999,-0.0175,-1.3825,-3.7275000000000005,0.934,0.05240625,0.54978125,1.2200625,0.90290625,-0.37915625000000003,-0.0156875,1.2074375,0.017702109768462558,0.023545807297833968,True
50546,44104,0,44105,5212.0,45671.0,30801.0,-0.001769,0.0,-0.0021349999999999997,0.47250000000000003,-1.0150000000000001,-3.9375000000000004,0.95621875,0.04234375,0.5518125,1.21215625,0.9161875,-0.3811875,-0.00903125,1.20390625,0.017371231405361204,0.023359699279828297,True
50547,44105,0,44106,5214.0,45669.0,30800.0,-0.0025009999999999998,6.1e-05,-0.002257,0.5950000000000001,-0.9800000000000001,-3.8325000000000005,0.93375,0.05071875,0.5456875,1.2333125,0.90921875,-0.379625,-0.01740625,1.21125,0.01765177889323564,0.023445235681933803,True
50548,44106,0,44107,5215.0,45671.0,30797.0,-0.0034159999999999998,0.002928,-0.000244,0.6300000000000001,-1.0850000000000002,-3.8150000000000004,0.95340625,0.04521875,0.5505625000000001,1.215,0.918125,-0.38178125,-0.01503125,1.19778125,0.017513076490258482,0.0235516557989072,True
50549,44107,0,44108,5212.0,45671.0,30798.0,-0.0028669999999999998,0.002562,0.0,0.6125,-1.0850000000000002,-3.8150000000000004,0.94734375,0.0454375,0.5514687500000001,1.21503125,0.9184687500000001,-0.38084375,-0.014843750000000001,1.20321875,0.017484269796856394,0.02358176908812909,True
50550,44108,0,44109,5214.0,45669.0,30798.0,0.000976,0.001586,0.0025009999999999998,0.47250000000000003,-1.3650000000000002,-3.7450000000000006,0.9566250000000001,0.048125,0.5500625,1.22425,0.91815625,-0.379,-0.01575,1.2064375,0.017520201813035808,0.023560059544257415,True
50551,44109,0,44110,5214.0,45671.0,30798.0,0.002928,0.000915,0.002013,0.35000000000000003,-1.6800000000000002,-3.6400000000000006,0.9540625,0.05253125,0.5500625,1.2142187500000001,0.9154375,-0.37953125,-0.01590625,1.203625,0.017722346486871033,0.02356641236472182,True
50552,44110,0,44111,5215.0,45669.0,30800.0,0.004697,0.001281,0.002074,0.29750000000000004,-1.7325000000000002,-3.6575,0.94828125,0.04940625,0.542375,1.2291875,0.9159375000000001,-0.38121875,-0.0156875,1.1971875,0.017662160551346517,0.023237415127091408,True
50553,44111,0,44112,5215.0,45673.0,30800.0,0.003538,0.000183,0.002013,0.35000000000000003,-1.7850000000000001,-3.6225000000000005,0.94734375,0.0486875,0.5505625000000001,1.21559375,0.90890625,-0.37934375000000004,-0.01528125,1.20484375,0.0175571276400744,0.023561820663665977,True
50554,44112,0,44113,5218.0,45672.0,30799.0,0.0021349999999999997,-0.0011589999999999999,0.001464,0.24500000000000002,-1.6450000000000002,-3.6750000000000003,0.93896875,0.0485625,0.545375,1.2238437500000001,0.9148125,-0.38071875,-0.01909375,1.2085000000000001,0.017607407492857444,0.023500834622455315,True
50555,44113,0,44114,5215.0,45672.0,30801.0,-0.001464,-0.001952,-0.001464,0.28,-1.3825,-3.6225000000000005,0.94565625,0.04878125,0.5480625,1.21759375,0.90953125,-0.37946875,-0.014375,1.20315625,0.01756601033400287,0.023420867709444865,True
50556,44114,0,44115,5216.0,45670.0,30800.0,-0.002806,-0.001586,-0.002623,0.28,-1.4175000000000002,-3.7100000000000004,0.94021875,0.04665625,0.5446875,1.22553125,0.90790625,-0.3819375,-0.01503125,1.2039375,0.017578330270102614,0.023307017349810864,True
50557,44115,0,44116,5218.0,45671.0,30801.0,-0.00488,-0.000305,-0.0037819999999999998,0.385,-1.4175000000000002,-3.6050000000000004,0.9409375,0.051125000000000004,0.5475,1.227875,0.89846875,-0.38053125,-0.0164375,1.208,0.017704956695724174,0.02348131357950154,True
50558,44116,0,44117,5218.0,45670.0,30801.0,-0.003721,-0.0017079999999999999,-0.002013,0.4025,-1.3125000000000002,-3.535,0.945875,0.0504375,0.54790625,1.22359375,0.9090312500000001,-0.3794375,-0.01575,1.21090625,0.01763268738255343,0.023470274715551256,True
50559,44117,0,44118,5218.0,45672.0,30799.0,-0.0021349999999999997,0.000183,-0.001403,0.31500000000000006,-1.3650000000000002,-3.5525,0.9459062500000001,0.04659375,0.5479375,1.22015625,0.89828125,-0.37990625,-0.016125,1.20409375,0.017493914686402864,0.023486823956820675,True
50560,44118,0,44119,5217.0,45671.0,30801.0,0.0015249999999999999,0.000915,0.002257,0.35000000000000003,-1.8025000000000002,-3.4825000000000004,0.9401875000000001,0.049625,0.54775,1.226625,0.9166875,-0.38071875,-0.01840625,1.195375,0.01765098701202154,0.023571765924310647,True
50561,44119,0,44120,5220.0,45673.0,30804.0,0.0032329999999999998,0.0021349999999999997,0.0030499999999999998,0.5075000000000001,-1.9075000000000002,-3.4825000000000004,0.94584375,0.05084375,0.5479375,1.2196875,0.9096875,-0.3803125,-0.015375,1.21109375,0.017684607200994656,0.023456327456889598,True
50562,44120,0,44121,5220.0,45672.0,30804.0,0.0040869999999999995,0.002074,0.0028669999999999998,0.525,-1.995,-3.535,0.9489062500000001,0.047718750000000004,0.54553125,1.226,0.91625,-0.379,-0.0155625,1.2035625,0.017503537880963125,0.02336375631426497,True
50563,44121,0,44122,5220.0,45673.0,30805.0,0.002562,0.0023179999999999997,0.002013,0.56,-1.6975000000000002,-3.6050000000000004,0.93953125,0.0505,0.54753125,1.219125,0.90934375,-0.3793125,-0.017125,1.2111875,0.017630214141600587,0.023510567980139174,True
50564,44122,0,44123,5220.0,45671.0,30805.0,0.000183,0.001037,0.0006709999999999999,0.45500000000000007,-1.54,-3.8150000000000004,0.93753125,0.046968750000000004,0.5461875,1.22696875,0.91753125,-0.37953125,-0.014625,1.20296875,0.01749418377352928,0.023352956791954906,True
50565,44123,0,44124,5221.0,45674.0,30803.0,-0.0023179999999999997,-0.0013419999999999999,-0.0008539999999999999,0.35000000000000003,-1.12,-4.0600000000000005,0.94565625,0.04965625,0.54803125,1.2203125000000001,0.90828125,-0.37903125,-0.0151875,1.20334375,0.017584271319230536,0.023452606813917233,True
50566,44124,0,44125,5223.0,45672.0,30804.0,-0.003355,-0.002074,-0.000305,0.31500000000000006,-1.0150000000000001,-4.2700000000000005,0.94078125,0.049125,0.54521875,1.2226875,0.9116562500000001,-0.382875,-0.01878125,1.203125,0.01771735285523139,0.023481624405901107,True
50567,44125,0,44126,5222.0,45671.0,30802.0,-0.003721,-0.002745,-0.001952,0.22750000000000004,-0.8400000000000001,-4.3925,0.9402812500000001,0.049875,0.545,1.2268125,0.90928125,-0.37853125,-0.018000000000000002,1.20321875,0.017573095179800872,0.02344075276875677,True
50568,44126,0,44127,5224.0,45672.0,30801.0,-0.003477,-0.001952,-0.0030499999999999998,0.36750000000000005,-0.8400000000000001,-4.4625,0.9440937500000001,0.04984375,0.54671875,1.21915625,0.9088437500000001,-0.37875000000000003,-0.01753125,1.21190625,0.01758062862123776,0.023493255577631444,True
50569,44127,0,44128,5225.0,45671.0,30803.0,-0.002562,-0.000122,-0.0025009999999999998,0.45500000000000007,-0.9275000000000001,-4.567500000000001,0.94821875,0.0478125,0.5459375,1.2188125,0.91515625,-0.37903125,-0.01646875,1.203625,0.017508642801382847,0.023417524693341938,True
50570,44128,0,44129,5224.0,45674.0,30804.0,0.001647,0.001464,-0.0013419999999999999,0.5425000000000001,-1.4700000000000002,-4.760000000000001,0.94053125,0.0463125,0.5529375,1.21946875,0.91071875,-0.381,-0.01509375,1.2034375,0.017526455026455025,0.023653093171872377,True
50571,44129,0,44130,5227.0,45674.0,30806.0,0.005612,0.000915,0.000732,0.45500000000000007,-1.7850000000000001,-4.7250000000000005,0.9399375,0.05340625,0.5446562500000001,1.22559375,0.912375,-0.3815625,-0.01546875,1.203875,0.01784006869945271,0.023323508936297574,True
50572,44130,0,44131,5228.0,45673.0,30805.0,0.0060999999999999995,0.00122,0.002562,0.24500000000000002,-1.8375000000000001,-4.795000000000001,0.9410625,0.05053125,0.545,1.22159375,0.91034375,-0.38306250000000003,-0.0116875,1.2035,0.017782579608283413,0.023184022364109144,True
50573,44131,0,44132,5227.0,45674.0,30805.0,0.0062829999999999995,0.001098,0.0021349999999999997,0.1925,-1.7850000000000001,-4.6725,0.9402812500000001,0.0503125,0.54503125,1.2224375,0.91021875,-0.38196875,-0.017843750000000002,1.20353125,0.01772954655271634,0.023435700800576654,True
50574,44132,0,44133,5229.0,45675.0,30806.0,0.004697,-0.000366,0.002562,0.4025,-1.7325000000000002,-4.4975000000000005,0.9393125,0.049875,0.54715625,1.22178125,0.90771875,-0.38121875,-0.017937500000000002,1.21225,0.01768138641551707,0.023527988196322024,True
50575,44133,0,44134,5230.0,45676.0,30807.0,-0.00061,-0.000244,0.000183,0.47250000000000003,-1.4525000000000001,-4.4625,0.9445625,0.0495,0.547625,1.2106875,0.9138437500000001,-0.37890625,-0.01671875,1.2029375,0.017572824867809644,0.02349795389930192,True
50576,44134,0,44135,5231.0,45674.0,30808.0,-0.0026839999999999998,-0.000549,-0.001464,0.3325,-1.4000000000000001,-4.340000000000001,0.94071875,0.04803125,0.54709375,1.2225625,0.91553125,-0.38321875,-0.01553125,1.2044375,0.017686344219833568,0.023427547537596117,True
50577,44135,0,44136,5231.0,45673.0,30806.0,-0.003965,-0.00042699999999999997,-0.0018909999999999999,0.31500000000000006,-1.3475000000000001,-4.1825,0.9410625,0.050375,0.54725,1.2233125,0.9084375,-0.38284375,-0.0181875,1.20490625,0.017767359477911596,0.023542055369498636,True
50578,44136,0,44137,5230.0,45676.0,30809.0,-0.004209,-0.00183,-0.0013419999999999999,0.31500000000000006,-1.435,-3.9550000000000005,0.9440625,0.0505,0.54753125,1.221,0.90184375,-0.3795,-0.01640625,1.20425,0.01763776943743719,0.02348134413324225,True
50579,44137,0,44138,5231.0,45677.0,30806.0,-0.002989,-0.0026839999999999998,-0.0018909999999999999,0.2625,-1.5225000000000002,-3.7275000000000005,0.9394687500000001,0.05059375,0.544125,1.22040625,0.91259375,-0.38384375,-0.014375,1.2011875,0.01781661269052382,0.023256903417224056,True
50580,44138,0,44139,5232.0,45676.0,30808.0,0.001464,-0.000732,0.001403,0.21000000000000002,-1.6800000000000002,-3.6400000000000006,0.9404375,0.05284375,0.5464687500000001,1.2161250000000001,0.91159375,-0.38506250000000003,-0.01375,1.2145625,0.01795797119650606,0.023329082296600908,True
50581,44139,0,44140,5234.0,45678.0,30810.0,0.002928,0.0006709999999999999,0.002562,0.3325,-1.7500000000000002,-3.4650000000000003,0.9575625,0.0528125,0.5510625,1.23140625,0.8993125000000001,-0.3785,-0.01603125,1.21325,0.01769233135754866,0.023613133414789343,True
50582,44140,0,44141,5233.0,45677.0,30807.0,0.002379,0.001037,0.00042699999999999997,0.6125,-1.6975000000000002,-3.4125000000000005,0.96865625,0.039875,0.546375,1.20540625,0.9215625000000001,-0.3799375,-0.01403125,1.197875,0.01721958885251449,0.02333661700386103,True
50583,44141,0,44142,5235.0,45675.0,30810.0,0.0013419999999999999,0.002074,0.0,0.7000000000000001,-1.715,-3.3075,0.92803125,0.055,0.5493750000000001,1.21884375,0.90625,-0.38009375,-0.01690625,1.2081875,0.01784627058704399,0.02357844278964948,True
50584,44142,0,44143,5236.0,45675.0,30810.0,0.001586,0.0023179999999999997,-0.000488,0.7175,-1.6275000000000002,-3.4125000000000005,0.9460625,0.047531250000000004,0.5395625000000001,1.2424375,0.923125,-0.38403125,-0.0203125,1.20953125,0.017698570657794743,0.02330839784036948,True
50585,44143,0,44144,5236.0,45678.0,30808.0,-0.0013419999999999999,0.000976,0.000183,0.3325,-1.3125000000000002,-3.3950000000000005,0.95315625,0.04884375,0.5524375,1.20771875,0.91071875,-0.3791875,-0.014968750000000001,1.19234375,0.017557240166432946,0.023627190853621242,True
50586,44144,0,44145,5237.0,45676.0,30811.0,-0.003538,-0.000915,0.00061,0.24500000000000002,-0.9975,-3.43,0.93396875,0.043000000000000003,0.5368437500000001,1.24046875,0.91090625,-0.38203125,-0.01875,1.20771875,0.017432150982088498,0.023131667967733544,True
50587,44145,0,44146,5238.0,45679.0,30809.0,-0.004697,-0.0018909999999999999,0.000793,0.1925,-0.8225000000000001,-3.3950000000000005,0.9576250000000001,0.04540625,0.5515625000000001,1.2096875,0.906875,-0.378,-0.01628125,1.19990625,0.017368375174337515,0.023644116426226484,True
50588,44146,0,44147,5237.0,45676.0,30807.0,-0.0040869999999999995,-0.002196,-6.1e-05,0.14,-0.8400000000000001,-3.3950000000000005,0.9275625000000001,0.054125,0.55096875,1.20171875,0.8971250000000001,-0.3789375,-0.01646875,1.20184375,0.01776379713020717,0.023627016357265263,True
50589,44147,0,44148,5237.0,45677.0,30808.0,-0.004148,-0.001037,-0.000976,0.2625,-1.0675000000000001,-3.5175000000000005,0.9282812500000001,0.05153125,0.55171875,1.2129375,0.91021875,-0.38015625000000003,-0.0163125,1.20690625,0.017706510802202098,0.023651892854075745,True
50590,44148,0,44149,5239.0,45678.0,30806.0,0.0017079999999999999,-0.00042699999999999997,-0.001464,0.36750000000000005,-1.54,-3.5700000000000003,0.93284375,0.0501875,0.5455,1.2144375,0.9155625000000001,-0.37865625,-0.0213125,1.20896875,0.017590951100924606,0.02359623355301672,True
50591,44149,0,44150,5240.0,45675.0,30806.0,0.00244,-0.000122,0.000122,0.29750000000000004,-1.5575,-3.5175000000000005,0.940125,0.04346875,0.5360625,1.23603125,0.9140625,-0.38203125,-0.019375,1.20759375,0.017451376205581723,0.023124560901355676,True
50592,44150,0,44151,5239.0,45677.0,30805.0,0.003172,0.001037,0.0006709999999999999,0.1925,-1.4875,-3.5525,0.948625,0.0489375,0.54690625,1.212875,0.9071875,-0.38053125,-0.01528125,1.19503125,0.01761523346625189,0.02340957385206555,True
50593,44151,0,44152,5238.0,45677.0,30807.0,0.002928,0.001769,0.000366,0.29750000000000004,-1.6450000000000002,-3.6400000000000006,0.93184375,0.050875000000000004,0.545625,1.22546875,0.911375,-0.3821875,-0.02078125,1.2090625,0.017761429322122962,0.023579842974507752,True
50594,44152,0,44153,5238.0,45674.0,30804.0,0.000976,0.000305,0.0015249999999999999,0.43750000000000006,-1.4525000000000001,-3.7800000000000002,0.94421875,0.0495,0.545,1.22303125,0.9076875,-0.3801875,-0.017812500000000002,1.203125,0.017624454282806477,0.023433129057860703,True
50595,44153,0,44154,5240.0,45677.0,30804.0,-0.001098,0.000549,-0.000122,0.42000000000000004,-1.225,-3.8500000000000005,0.9394687500000001,0.05190625,0.5431875,1.220625,0.90309375,-0.38234375,-0.016875,1.203125,0.01781001877639429,0.0233195409477711,True
50596,44154,0,44155,5236.0,45677.0,30804.0,-0.00183,0.000488,-0.000122,0.45500000000000007,-1.1025,-3.8850000000000002,0.9405625,0.048,0.542625,1.22046875,0.9158437500000001,-0.3780625,-0.01546875,1.20296875,0.017477291314680978,0.02323892803466516,True
50597,44155,0,44156,5237.0,45678.0,30803.0,-0.0028669999999999998,-0.0006709999999999999,-0.00061,0.385,-1.12,-3.8675,0.9414375,0.04621875,0.543125,1.21828125,0.9183125,-0.3813125,-0.017718750000000002,1.20409375,0.017535202421936884,0.023351249793446764,True
50598,44156,0,44157,5236.0,45674.0,30801.0,-0.0023179999999999997,-0.000122,-0.001586,0.385,-1.1375000000000002,-3.9200000000000004,0.93971875,0.0505,0.54496875,1.22215625,0.9090312500000001,-0.380875,-0.02084375,1.20965625,0.017693171389459975,0.02355506350604358,True
50599,44157,0,44158,5236.0,45675.0,30802.0,-0.001769,-0.000732,-0.00042699999999999997,0.35000000000000003,-1.3825,-3.99,0.9361875000000001,0.05053125,0.5455625000000001,1.2255,0.90996875,-0.38,-0.02096875,1.20871875,0.01765919811320755,0.02358486270459013,True
50600,44158,0,44159,5236.0,45678.0,30803.0,0.001098,-0.001037,-0.000549,0.36750000000000005,-1.6625,-3.9725000000000006,0.9464375,0.05046875,0.545,1.222375,0.91034375,-0.37875000000000003,-0.01903125,1.200875,0.017606265702712405,0.023482681051093596,True
50601,44159,0,44160,5234.0,45678.0,30803.0,0.0018909999999999999,-0.000122,-0.0006709999999999999,0.385,-1.8200000000000003,-3.9725000000000006,0.9474375,0.050812500000000003,0.54421875,1.22684375,0.9036875,-0.37971875,-0.0165625,1.2093125,0.01765940183374757,0.023349771641965833,True
50602,44160,0,44161,5235.0,45677.0,30804.0,0.0025009999999999998,-0.001098,-0.0018909999999999999,0.2625,-1.8025000000000002,-3.9550000000000005,0.9463125,0.05025,0.5454687500000001,1.2202187500000001,0.9094375,-0.37609375,-0.022,1.21190625,0.017490240822527196,0.023622876946132715,True
50603,44161,0,44162,5236.0,45681.0,30803.0,0.0035989999999999998,0.000244,0.000305,0.29750000000000004,-1.7325000000000002,-4.0600000000000005,0.9385,0.04946875,0.54490625,1.2203125000000001,0.910375,-0.37934375000000004,-0.017843750000000002,1.2045625,0.017589173211440528,0.023430496336707997,True
50604,44162,0,44163,5234.0,45677.0,30803.0,0.000732,0.0006709999999999999,0.000915,0.29750000000000004,-1.54,-4.077500000000001,0.9334687500000001,0.04940625,0.544125,1.22415625,0.9168437500000001,-0.38175000000000003,-0.017781250000000002,1.2031875,0.01768356455135501,0.023395427085922016,True
50605,44163,0,44164,5236.0,45678.0,30803.0,-0.001647,0.0008539999999999999,0.00122,0.45500000000000007,-1.1900000000000002,-4.0075,0.94015625,0.055281250000000004,0.54475,1.22146875,0.8990625,-0.38215625000000003,-0.018375,1.20703125,0.01794088658586133,0.023445591135953202,True
50606,44164,0,44165,5236.0,45680.0,30803.0,-0.0048189999999999995,0.0008539999999999999,-0.0015249999999999999,0.665,-1.33,-4.0600000000000005,0.946125,0.047718750000000004,0.545125,1.2201875,0.909375,-0.3790625,-0.01825,1.19490625,0.01750605668286055,0.02345612190729966,True
50607,44165,0,44166,5235.0,45675.0,30802.0,-0.001037,0.000976,-0.0042699999999999995,0.525,-1.6275000000000002,-4.112500000000001,0.94084375,0.04990625,0.5444687500000001,1.2260625,0.9156875,-0.38040625,-0.01921875,1.20690625,0.017649931489554238,0.023468186283119637,True
50608,44166,0,44167,5235.0,45676.0,30803.0,0.000976,0.000488,-0.00244,0.5425000000000001,-1.7850000000000001,-4.0425,0.947625,0.04996875,0.5450625,1.2126875,0.9100312500000001,-0.3790625,-0.01840625,1.2036875,0.017598348993116533,0.023459872571686555,True
50609,44167,0,44168,5235.0,45677.0,30804.0,0.002623,-0.000122,0.0018909999999999999,0.42000000000000004,-1.6625,-4.095000000000001,0.94121875,0.051687500000000004,0.54425,1.22359375,0.9165625000000001,-0.38084375,-0.0168125,1.20809375,0.017740618595285487,0.023361239131962246,True
50610,44168,0,44169,5236.0,45675.0,30804.0,-0.002562,-0.0008539999999999999,-0.000793,0.17500000000000002,-1.3125000000000002,-4.112500000000001,0.9455,0.047,0.5430625,1.2206875,0.909,-0.3795625,-0.018000000000000002,1.20346875,0.017496724971992422,0.023360084103588974,True
50611,44169,0,44170,5236.0,45675.0,30804.0,-0.001769,-0.002074,0.001037,0.2625,-1.3650000000000002,-3.9375000000000004,0.9326875,0.0495625,0.544,1.22709375,0.91509375,-0.38165625000000003,-0.018625,1.20434375,0.01768619594905494,0.02342452992209171,True
50612,44170,0,44171,5236.0,45677.0,30803.0,-0.001647,-0.000732,0.000549,0.42000000000000004,-1.3650000000000002,-3.99,0.9401875000000001,0.05040625,0.54496875,1.2235,0.9104375,-0.38190625,-0.020375,1.20825,0.0177308736883524,0.023536008492789976,True
50613,44171,0,44172,5236.0,45680.0,30805.0,0.0015249999999999999,0.000305,0.000488,0.49000000000000005,-1.6450000000000002,-4.0600000000000005,0.94765625,0.048375,0.5446875,1.21596875,0.90921875,-0.37928125,-0.018125,1.20578125,0.017541790736755214,0.02343282416924718,True
50614,44172,0,44173,5236.0,45678.0,30806.0,0.004697,0.001464,-0.000976,0.47250000000000003,-1.8200000000000003,-4.112500000000001,0.94059375,0.04909375,0.54384375,1.2237500000000001,0.914625,-0.38178125,-0.01115625,1.20446875,0.017672006634051808,0.023114255482802912,True
50615,44173,0,44174,5237.0,45677.0,30804.0,0.0034159999999999998,0.000976,-0.000122,0.42000000000000004,-1.7850000000000001,-4.0600000000000005,0.94678125,0.0483125,0.54384375,1.2190625,0.91034375,-0.3790625,-0.0198125,1.216,0.017530411598066988,0.02346630515954277,True
50616,44174,0,44175,5237.0,45677.0,30805.0,0.003111,0.001037,-0.000366,0.4025,-1.7850000000000001,-3.9725000000000006,0.94165625,0.04665625,0.541875,1.220875,0.904625,-0.37903125,-0.01853125,1.20196875,0.01746121474781735,0.023332244764133946,True
50617,44175,0,44176,5237.0,45676.0,30804.0,0.002562,0.000244,-6.1e-05,0.42000000000000004,-1.6275000000000002,-3.9550000000000005,0.94684375,0.047218750000000004,0.54271875,1.22165625,0.906,-0.3780625,-0.021875000000000002,1.20346875,0.01744524405907976,0.02350331728892936,True
50618,44176,0,44177,5238.0,45677.0,30804.0,-0.00061,-0.00042699999999999997,0.001098,0.2625,-1.4000000000000001,-3.9025000000000003,0.942125,0.05090625,0.54734375,1.2277500000000001,0.920125,-0.3854375,-0.01515625,1.19853125,0.017893619911473806,0.023422708315712082,True
50619,44177,0,44178,5238.0,45676.0,30805.0,-0.004941,-0.00183,0.000122,0.35000000000000003,-1.155,-3.7975000000000003,0.945875,0.0501875,0.544,1.21990625,0.9021250000000001,-0.3803125,-0.02090625,1.21878125,0.017657689990643065,0.023517274665688356,True
50620,44178,0,44179,5238.0,45674.0,30804.0,-0.005429,-0.00042699999999999997,-0.000976,0.42000000000000004,-1.2600000000000002,-3.7100000000000004,0.9412812500000001,0.0496875,0.5421875,1.226,0.9079375000000001,-0.3765625,-0.0175625,1.197,0.01748605858598808,0.02330586211652411,True
50621,44179,0,44180,5240.0,45677.0,30804.0,-0.002928,-0.000366,0.000549,0.385,-1.3650000000000002,-3.6925000000000003,0.9421875000000001,0.051687500000000004,0.5436562500000001,1.21946875,0.90690625,-0.38659375,-0.02521875,1.21625,0.01797222090518484,0.023678244344809557,True
50622,44180,0,44181,5239.0,45677.0,30804.0,-0.002013,0.000122,0.000183,0.35000000000000003,-1.4700000000000002,-3.6400000000000006,0.940625,0.0460625,0.54121875,1.22315625,0.91396875,-0.37703125,-0.017718750000000002,1.195625,0.017356245953862818,0.023271881306379274,True
50623,44181,0,44182,5239.0,45675.0,30804.0,0.000366,0.000305,-0.000793,0.28,-1.5750000000000002,-3.7625,0.9405625,0.0504375,0.54321875,1.2251875,0.9134375,-0.387625,-0.02084375,1.20559375,0.017962491222495016,0.02348221011179093,True
50624,44182,0,44183,5240.0,45675.0,30803.0,0.0032329999999999998,0.000488,-0.00042699999999999997,0.36750000000000005,-1.8375000000000001,-3.9375000000000004,0.94671875,0.051937500000000004,0.54309375,1.225375,0.9031250000000001,-0.37909375,-0.021500000000000002,1.1983125000000001,0.017680363938876936,0.023503684199571218,True
50625,44183,0,44184,5239.0,45678.0,30805.0,0.0034159999999999998,0.00042699999999999997,6.1e-05,0.4025,-1.8725000000000003,-3.9025000000000003,0.93978125,0.0491875,0.54303125,1.2240625,0.91140625,-0.38571875,-0.01634375,1.1987812500000001,0.017834465100603197,0.023291430445152583,True
50626,44184,0,44185,5240.0,45678.0,30807.0,0.003172,0.000305,0.0008539999999999999,0.4025,-1.8025000000000002,-3.99,0.9410000000000001,0.05021875,0.5419375,1.2266875,0.91815625,-0.385875,-0.0225625,1.1973125,0.017883047050802976,0.02349874206800378,True
50627,44185,0,44186,5240.0,45678.0,30808.0,0.001464,6.1e-05,0.000732,0.28,-1.6800000000000002,-3.99,0.93959375,0.050625,0.54140625,1.2253125,0.91634375,-0.3823125,-0.020875,1.198625,0.01775621159805904,0.02340802531131776,True
50628,44186,0,44187,5240.0,45679.0,30806.0,-0.000915,0.000244,0.0006709999999999999,0.385,-1.4525000000000001,-3.9725000000000006,0.9404375,0.05009375,0.5430625,1.21253125,0.905375,-0.382125,-0.01925,1.202,0.01772686958171201,0.023410909999271416,True
50629,44187,0,44188,5240.0,45678.0,30808.0,-0.002623,-0.000366,-0.000122,0.35000000000000003,-1.435,-3.9550000000000005,0.94053125,0.0483125,0.54140625,1.21959375,0.9103125,-0.381125,-0.019625,1.2041875,0.01761352275582033,0.023357202704038883,True
50630,44188,0,44189,5240.0,45678.0,30807.0,-0.001769,0.000305,0.000122,0.3325,-1.3475000000000001,-3.9375000000000004,0.94140625,0.048625,0.5438125,1.21909375,0.91628125,-0.37865625,-0.01903125,1.209375,0.017526858150764567,0.023433241088772056,True
50631,44189,0,44190,5241.0,45679.0,30806.0,0.001037,-0.000305,0.00061,0.385,-1.3125000000000002,-3.8850000000000002,0.94646875,0.0481875,0.54359375,1.2246875,0.9125625,-0.37953125,-0.01434375,1.20965625,0.017544174480385057,0.02323351018076436,True
50632,44190,0,44191,5243.0,45680.0,30809.0,-0.00061,-0.0006709999999999999,-0.0008539999999999999,0.42000000000000004,-1.3825,-3.8675,0.9413750000000001,0.05003125,0.5448125,1.226375,0.9004375,-0.37540625,-0.02203125,1.20359375,0.017453555261258465,0.02359682843223343,True
50633,44191,0,44192,5242.0,45678.0,30807.0,0.000915,-0.000366,-0.001403,0.36750000000000005,-1.435,-3.7800000000000002,0.931875,0.05090625,0.54640625,1.2268125,0.9023125000000001,-0.38265625000000003,-0.021843750000000002,1.2034375,0.017781594242833983,0.023655553083846866,True
50634,44192,0,44193,5244.0,45679.0,30807.0,0.00122,0.000732,-0.00042699999999999997,0.385,-1.4525000000000001,-3.9025000000000003,0.9406875,0.05046875,0.5421875,1.2249375,0.9097500000000001,-0.37871875,-0.0189375,1.203125,0.017605006415687862,0.023361774433194645,True
50635,44193,0,44194,5245.0,45677.0,30808.0,0.000244,0.000732,0.0006709999999999999,0.49000000000000005,-1.61,-3.8850000000000002,0.9411875000000001,0.050375,0.54678125,1.221375,0.9103125,-0.38178125,-0.01646875,1.20340625,0.01772455611708025,0.02345265683573902,True
50636,44194,0,44195,5244.0,45679.0,30806.0,-0.000549,0.000183,0.000244,0.47250000000000003,-1.6275000000000002,-3.8500000000000005,0.9401875000000001,0.04965625,0.5425,1.2205625,0.91196875,-0.3821875,-0.019375,1.203375,0.01771144406136652,0.023392573703520596,True
50637,44195,0,44196,5245.0,45680.0,30808.0,-0.000183,0.000793,-0.000549,0.31500000000000006,-1.6800000000000002,-3.9725000000000006,0.94096875,0.047343750000000004,0.54378125,1.213625,0.91625,-0.37853125,-0.018375,1.20425,0.017469264068154227,0.023405257433111108,True
50638,44196,0,44197,5246.0,45677.0,30809.0,0.000732,-0.000366,0.000488,0.36750000000000005,-1.6975000000000002,-3.8675,0.9438125,0.04821875,0.54440625,1.2165,0.9177500000000001,-0.3738125,-0.0168125,1.21171875,0.017314946112759338,0.023367744991139017,True
50639,44197,0,44198,5248.0,45678.0,30808.0,0.0,-0.001037,0.000488,0.2625,-1.8725000000000003,-3.7100000000000004,0.94925,0.04515625,0.54621875,1.21896875,0.91634375,-0.37921875,-0.0195625,1.20790625,0.01740724361809174,0.02355501895590313,True
50640,44198,0,44199,5247.0,45678.0,30809.0,0.0,-0.000122,0.000244,0.21000000000000002,-1.7325000000000002,-3.6750000000000003,0.94465625,0.0450625,0.54196875,1.21771875,0.91528125,-0.379,-0.0191875,1.192375,0.017394581402026335,0.023362832318953336,True
50641,44199,0,44200,5248.0,45676.0,30807.0,0.000244,-0.00061,0.000122,0.15750000000000003,-1.6625,-3.7450000000000006,0.93740625,0.0506875,0.544375,1.2285,0.914875,-0.378125,-0.021625000000000002,1.2100312500000001,0.017590052557364438,0.02356210289686897,True
50642,44200,0,44201,5250.0,45678.0,30805.0,6.1e-05,0.000244,0.00061,0.35000000000000003,-1.61,-3.7100000000000004,0.951375,0.05171875,0.54503125,1.23071875,0.91090625,-0.37959375,-0.02253125,1.21028125,0.01769153762047409,0.023626257120593817,True
50643,44201,0,44202,5249.0,45678.0,30808.0,0.00061,0.0006709999999999999,0.001098,0.525,-1.4175000000000002,-3.8325000000000005,0.9496875,0.05325,0.5425625000000001,1.2251875,0.9091250000000001,-0.37946875,-0.021625000000000002,1.20396875,0.017749310062386,0.02348665004969481,True
50644,44202,0,44203,5252.0,45679.0,30809.0,-0.001952,0.000793,-0.0023179999999999997,0.6475000000000001,-1.5575,-4.0075,0.9376875,0.04846875,0.542125,1.2196875,0.9086875,-0.3809375,-0.01875,1.20428125,0.01761237647239775,0.023351548269581055,True
50645,44203,0,44204,5252.0,45680.0,30808.0,-0.000549,0.00061,-0.0017079999999999999,0.385,-1.4875,-4.0425,0.9379375,0.045125,0.5404375,1.2193125,0.9113125,-0.37953125,-0.0185625,1.20378125,0.017418556806747462,0.023273665940665683,True
50646,44204,0,44205,5252.0,45682.0,30809.0,-0.0008539999999999999,-0.001281,-0.000183,0.17500000000000002,-1.4700000000000002,-4.0425,0.936625,0.05084375,0.54478125,1.2149375,0.9089375000000001,-0.38096875,-0.020375,1.2075625,0.017711047679350313,0.023528202619651026,True
50647,44205,0,44206,5252.0,45682.0,30812.0,-0.00042699999999999997,-0.000488,0.0008539999999999999,0.15750000000000003,-1.4000000000000001,-4.025,0.9525625,0.04446875,0.5415625000000001,1.21825,0.91253125,-0.37940625,-0.01975,1.20378125,0.017386600627322498,0.023368790266343326,True
50648,44206,0,44207,5251.0,45680.0,30809.0,-0.0008539999999999999,-0.001037,0.000915,0.1925,-1.5050000000000001,-4.0425,0.93796875,0.04953125,0.54159375,1.2316562500000001,0.9098125,-0.38228125,-0.018875,1.2035,0.017710094292346008,0.02333451296116075,True
50649,44207,0,44208,5254.0,45681.0,30809.0,0.002074,0.00061,0.001769,0.4025,-1.5050000000000001,-4.0075,0.9460000000000001,0.05025,0.5445625000000001,1.2181250000000001,0.90040625,-0.3793125,-0.0183125,1.20528125,0.017619959545618853,0.023435243421035513,True
50650,44208,0,44209,5252.0,45679.0,30808.0,0.003172,-0.00042699999999999997,0.001952,0.385,-1.4875,-3.9375000000000004,0.93984375,0.04640625,0.5436875,1.22109375,0.91390625,-0.38109375,-0.01975,1.2038125,0.0175340780189568,0.02345725913050719,True
50651,44209,0,44210,5255.0,45680.0,30810.0,0.002623,0.000793,-0.000488,0.43750000000000006,-1.4700000000000002,-3.7625,0.9395625,0.0505,0.54221875,1.22515625,0.90971875,-0.3811875,-0.020375,1.20328125,0.017705761870704616,0.02342152235341871,True
50652,44210,0,44211,5253.0,45682.0,30811.0,0.00244,0.0011589999999999999,0.00042699999999999997,0.525,-1.4175000000000002,-3.6050000000000004,0.94575,0.05821875,0.54428125,1.22084375,0.909375,-0.3795,-0.02009375,1.2070625,0.017954377653356304,0.023495953257884353,True
50653,44211,0,44212,5255.0,45679.0,30811.0,0.000244,0.001037,-0.003355,0.6300000000000001,-1.1900000000000002,-3.6400000000000006,0.9409375,0.04896875,0.541625,1.22209375,0.918375,-0.38071875,-0.02021875,1.20315625,0.017624070250184892,0.023390451013273972,True
50654,44212,0,44213,5256.0,45683.0,30811.0,-0.000976,0.001037,-0.001952,0.6825000000000001,-1.0850000000000002,-3.7275000000000005,0.94046875,0.0546875,0.5445625000000001,1.22109375,0.9119375000000001,-0.38034375,-0.01821875,1.2125625,0.01784352404793308,0.023431431608557568,True
50655,44213,0,44214,5255.0,45680.0,30812.0,-0.0030499999999999998,-0.00122,0.000793,0.5775,-0.9800000000000001,-3.6400000000000006,0.9473125,0.05078125,0.54428125,1.22796875,0.91246875,-0.374625,-0.03103125,1.19971875,0.017452832607681143,0.023940399977633087,True
50656,44214,0,44215,5256.0,45681.0,30811.0,-0.002257,-0.0013419999999999999,0.004758,0.35000000000000003,-0.9100000000000001,-3.6925000000000003,0.92734375,0.0499375,0.54059375,1.22053125,0.907,-0.38996875000000003,-0.015,1.2105625,0.018036359722683123,0.023135280033312514,True
50657,44215,0,44216,5258.0,45680.0,30810.0,-0.005063,-0.002257,0.003965,0.08750000000000001,-0.9625000000000001,-3.8850000000000002,0.9400937500000001,0.04665625,0.542,1.2205625,0.92621875,-0.3696875,-0.01828125,1.21796875,0.01708449277406614,0.02332728325429198,True
50658,44216,0,44217,5256.0,45682.0,30808.0,-0.003538,-0.002013,0.0008539999999999999,0.15750000000000003,-1.0150000000000001,-3.8150000000000004,0.94046875,0.05103125,0.54171875,1.22,0.926125,-0.37409375,-0.01615625,1.22146875,0.017441674113524732,0.023229154332304946,True
50659,44217,0,44218,5258.0,45682.0,30808.0,0.0008539999999999999,0.000549,-0.004026,0.4025,-1.4700000000000002,-3.8325000000000005,0.9420625,0.04725,0.54278125,1.21990625,0.9178437500000001,-0.37540625,-0.01671875,1.22696875,0.01733945459883361,0.023296271477551447,True
50660,44218,0,44219,5256.0,45680.0,30806.0,0.0026839999999999998,0.000183,-0.002623,0.5075000000000001,-1.6625,-3.7275000000000005,0.94159375,0.047718750000000004,0.54171875,1.2202187500000001,0.91725,-0.3745625,-0.01865625,1.21425,0.017324669929973103,0.023330822264463695,True
50661,44219,0,44220,5258.0,45679.0,30808.0,0.0042699999999999995,0.001037,-0.0011589999999999999,0.4025,-1.61,-3.7100000000000004,0.94078125,0.05034375,0.54221875,1.21665625,0.9323125,-0.39009375,-0.02065625,1.19215625,0.018058048669862128,0.023432956791095166,True
50662,44220,0,44221,5257.0,45681.0,30806.0,0.002989,0.0008539999999999999,0.00061,0.22750000000000004,-1.6625,-3.8325000000000005,0.94884375,0.051125000000000004,0.54240625,1.2260625,0.88465625,-0.3775625,-0.0266875,1.209625,0.017585330772918746,0.023685901354483424,True
50663,44221,0,44222,5257.0,45682.0,30805.0,0.0017079999999999999,-0.000122,0.000976,0.10500000000000001,-1.5925000000000002,-3.7275000000000005,0.9469062500000001,0.05053125,0.54134375,1.22196875,0.897,-0.37928125,-0.03328125,1.21359375,0.017630236740469946,0.023909552508565596,True
50664,44222,0,44223,5255.0,45682.0,30806.0,0.000488,6.1e-05,0.001098,0.35000000000000003,-1.435,-3.7450000000000006,0.9466875,0.0505625,0.54153125,1.21978125,0.8978125,-0.38059375,-0.02675,1.21525,0.017684403194651484,0.02365202326573507,True
50665,44223,0,44224,5255.0,45680.0,30805.0,-0.001098,0.00183,0.001586,0.45500000000000007,-1.4525000000000001,-3.7625,0.94775,0.051750000000000004,0.54240625,1.21971875,0.9158437500000001,-0.375625,-0.01815625,1.20778125,0.017532883772210968,0.023339114550060432,True
50666,44224,0,44225,5255.0,45679.0,30802.0,-0.0018909999999999999,-0.00061,0.0015249999999999999,0.43750000000000006,-1.3650000000000002,-3.7975000000000003,0.94059375,0.04821875,0.54025,1.2164375,0.93121875,-0.3795625,-0.016625,1.1929375,0.017546715614769545,0.023187063128145606,True
50667,44225,0,44226,5254.0,45682.0,30807.0,-0.0026839999999999998,0.00042699999999999997,-0.000183,0.42000000000000004,-1.33,-3.8325000000000005,0.940875,0.05003125,0.54021875,1.22590625,0.9085625,-0.387375,-0.021875000000000002,1.20403125,0.017935765944469217,0.02339924547938077,True
50668,44226,0,44227,5255.0,45678.0,30803.0,-0.002013,-6.1e-05,-0.000122,0.4025,-1.4700000000000002,-3.6575,0.9412812500000001,0.05046875,0.541125,1.2265,0.9053125,-0.379125,-0.024,1.209,0.017621376895192095,0.023523351648351648,True
50669,44227,0,44228,5253.0,45676.0,30805.0,0.000915,-0.0015249999999999999,-0.00061,0.17500000000000002,-1.5575,-3.7275000000000005,0.94659375,0.05153125,0.54190625,1.22115625,0.909625,-0.37846875,-0.021500000000000002,1.2035625,0.01763851554458276,0.023454249318319007,True
50670,44228,0,44229,5255.0,45679.0,30804.0,0.000915,-0.000976,-0.0013419999999999999,0.28,-1.6450000000000002,-3.7625,0.9410000000000001,0.04675,0.53890625,1.22334375,0.91715625,-0.38128125,-0.0209375,1.204,0.017555732433052508,0.023306490431524586,True
50671,44229,0,44230,5253.0,45678.0,30804.0,0.001952,-0.000366,-0.001769,0.31500000000000006,-1.5750000000000002,-3.7800000000000002,0.94103125,0.0504375,0.53915625,1.22540625,0.90959375,-0.38203125,-0.02434375,1.20353125,0.01773719119484764,0.023455375341938322,True
50672,44230,0,44231,5253.0,45678.0,30806.0,0.000915,0.000366,-0.002074,0.36750000000000005,-1.5925000000000002,-3.8500000000000005,0.94553125,0.05003125,0.5483125,1.22009375,0.90940625,-0.37390625,-0.02221875,1.204625,0.017393088151391407,0.023750147974986695,True
50673,44231,0,44232,5254.0,45680.0,30802.0,0.0008539999999999999,0.0006709999999999999,-6.1e-05,0.4025,-1.5050000000000001,-3.9025000000000003,0.94071875,0.05034375,0.54109375,1.2203125000000001,0.91703125,-0.38134375,-0.02515625,1.20303125,0.017705648401762107,0.023569045466665803,True
50674,44232,0,44233,5252.0,45678.0,30805.0,-0.000732,0.000122,0.001769,0.4025,-1.3825,-3.7625,0.9448125,0.050812500000000003,0.5414375,1.21965625,0.91096875,-0.37915625000000003,-0.023,1.2079375,0.01763673630009242,0.023495712442242852,True
50675,44233,0,44234,5251.0,45679.0,30803.0,0.000122,6.1e-05,0.0011589999999999999,0.45500000000000007,-1.4525000000000001,-3.7275000000000005,0.9434375,0.0476875,0.5437500000000001,1.2273125,0.91659375,-0.379375,-0.02215625,1.20384375,0.017517368677416875,0.023557679173783583,True
50676,44234,0,44235,5251.0,45680.0,30805.0,0.000305,0.0006709999999999999,0.0,0.385,-1.5750000000000002,-3.5875000000000004,0.94084375,0.05025,0.54096875,1.22059375,0.91034375,-0.3779375,-0.0228125,1.202,0.017564549913215585,0.023468578044306843,True
50677,44235,0,44236,5252.0,45677.0,30806.0,0.00122,0.000732,-0.000244,0.3325,-1.5925000000000002,-3.5875000000000004,0.94659375,0.04528125,0.54153125,1.22015625,0.91746875,-0.3733125,-0.01871875,1.2029375,0.017174265910716895,0.023325557280194222,True
50678,44236,0,44237,5252.0,45679.0,30804.0,6.1e-05,0.00061,-0.000183,0.4025,-1.6975000000000002,-3.6225000000000005,0.94121875,0.05309375,0.541875,1.21265625,0.91009375,-0.37934375000000004,-0.0233125,1.2109375,0.017737864662579362,0.0235266264800077,True
50679,44237,0,44238,5252.0,45680.0,30804.0,-0.001769,-0.000366,0.00042699999999999997,0.3325,-1.4175000000000002,-3.7275000000000005,0.9400625,0.043750000000000004,0.5366875,1.2069375,0.90778125,-0.380875,-0.022125,1.20309375,0.017416315042015514,0.023262409133246953,True
50680,44238,0,44239,5250.0,45679.0,30806.0,-0.0013419999999999999,-0.001281,0.0,0.21000000000000002,-1.3650000000000002,-3.535,0.93465625,0.0486875,0.5358125,1.23390625,0.90965625,-0.382125,-0.025468750000000002,1.2100625,0.017669194132997022,0.02336192712160923,True
50681,44239,0,44240,5251.0,45678.0,30805.0,-0.00042699999999999997,-0.0017079999999999999,0.000732,0.22750000000000004,-1.3650000000000002,-3.5175000000000005,0.9553125,0.051125000000000004,0.54434375,1.21478125,0.913125,-0.37290625,-0.0229375,1.204375,0.017397648259529983,0.023614150018081675,True
50682,44240,0,44241,5251.0,45678.0,30805.0,-0.0008539999999999999,-0.000549,0.000732,0.28,-1.2775,-3.5875000000000004,0.9354375,0.04584375,0.5365625,1.22809375,0.90959375,-0.38165625000000003,-0.0245,1.20509375,0.017533673496852784,0.023353763866053406,True
50683,44241,0,44242,5252.0,45679.0,30806.0,0.000122,0.000976,6.1e-05,0.56,-1.2775,-3.5525,0.9332812500000001,0.05225,0.5424375,1.22078125,0.9061250000000001,-0.37934375000000004,-0.0236875,1.2101250000000001,0.017703255445503944,0.023565283223068896,True
50684,44242,0,44243,5251.0,45681.0,30804.0,0.000244,0.0008539999999999999,-0.001403,0.6300000000000001,-1.3825,-3.535,0.95421875,0.0423125,0.54059375,1.21390625,0.91740625,-0.38134375,-0.02040625,1.2048125,0.017376246951114005,0.023355142047191642,True
50685,44243,0,44244,5253.0,45679.0,30802.0,0.000183,0.000915,-0.0015249999999999999,0.5425000000000001,-1.4000000000000001,-3.5525,0.9338125,0.05040625,0.53496875,1.23590625,0.90971875,-0.381875,-0.021375,1.21103125,0.01772961472405219,0.023160362385583676,True
50686,44244,0,44245,5252.0,45676.0,30802.0,0.0008539999999999999,0.0,-0.000793,0.525,-1.3825,-3.5175000000000005,0.93984375,0.052625,0.5463125,1.2155,0.9016875,-0.37903125,-0.0224375,1.20284375,0.01770604605135817,0.023675782276465492,True
50687,44245,0,44246,5252.0,45678.0,30803.0,0.001403,-0.000122,-0.000305,0.3325,-1.3475000000000001,-3.6225000000000005,0.94103125,0.05234375,0.5373125,1.2061250000000001,0.91546875,-0.38228125,-0.02259375,1.20359375,0.017825444450567975,0.023307485271027405,True
50688,44246,0,44247,5251.0,45679.0,30803.0,-0.001403,-0.000915,0.000183,0.4025,-1.2775,-3.5525,0.9385,0.04290625,0.53740625,1.21496875,0.90953125,-0.37884375000000003,-0.02415625,1.20346875,0.017299836051494443,0.023374910409184504,True
50689,44247,0,44248,5252.0,45678.0,30803.0,-0.000244,-0.000793,0.001647,0.45500000000000007,-1.3125000000000002,-3.5175000000000005,0.9339375,0.051312500000000004,0.5346875,1.22121875,0.90978125,-0.3801875,-0.026125,1.20090625,0.01769879743541759,0.0233417790009833,True
50690,44248,0,44249,5255.0,45677.0,30803.0,-0.001098,0.0,0.000488,0.49000000000000005,-1.3475000000000001,-3.4825000000000004,0.9365,0.0494375,0.53871875,1.21809375,0.9105,-0.3825,-0.025531250000000002,1.2041250000000001,0.017715062032195222,0.023485432814310817,True
50691,44249,0,44250,5252.0,45676.0,30804.0,-0.000549,0.0015249999999999999,0.000183,0.49000000000000005,-1.3650000000000002,-3.5875000000000004,0.93040625,0.0505,0.53678125,1.2257500000000001,0.90865625,-0.38296875,-0.024375,1.205875,0.017777521451320402,0.023357787663570856,True
50692,44250,0,44251,5253.0,45676.0,30802.0,-0.000122,0.000183,0.0,0.47250000000000003,-1.4175000000000002,-3.6575,0.94559375,0.05103125,0.5405625000000001,1.22125,0.9104375,-0.37971875,-0.02484375,1.21140625,0.017668374455714342,0.023534232142508736,True
50693,44251,0,44252,5253.0,45677.0,30803.0,6.1e-05,0.000122,0.0,0.4025,-1.2600000000000002,-3.6225000000000005,0.94146875,0.047718750000000004,0.5398125,1.225375,0.9158125,-0.38009375,-0.02284375,1.203375,0.017547615049675516,0.023421717089593112,True
50694,44252,0,44253,5254.0,45678.0,30805.0,0.000183,-0.0008539999999999999,0.00061,0.47250000000000003,-1.225,-3.6750000000000003,0.94884375,0.05209375,0.54034375,1.2188125,0.91046875,-0.3788125,-0.02109375,1.20378125,0.017675440508023103,0.023372686766188575,True
50695,44253,0,44254,5253.0,45677.0,30805.0,0.000488,-0.00061,0.000488,0.42000000000000004,-1.2950000000000002,-3.6575,0.94075,0.051375000000000004,0.5387500000000001,1.22675,0.91046875,-0.38325000000000004,-0.025843750000000002,1.20428125,0.017824736243117714,0.02349943485335453,True
50696,44254,0,44255,5256.0,45677.0,30806.0,-0.000122,0.0,-0.000915,0.4025,-1.2950000000000002,-3.6575,0.94446875,0.0503125,0.5389375,1.22625,0.910625,-0.37925000000000003,-0.02221875,1.209375,0.017620004717126245,0.023359884273803807,True
50697,44255,0,44256,5254.0,45679.0,30807.0,-0.0006709999999999999,0.000488,-0.00122,0.43750000000000006,-1.2950000000000002,-3.7275000000000005,0.946125,0.054875,0.5395625000000001,1.22040625,0.9097500000000001,-0.37928125,-0.02390625,1.21096875,0.017808410574040204,0.023454501700779826,True
50698,44256,0,44257,5254.0,45678.0,30808.0,0.0015249999999999999,0.000122,0.0008539999999999999,0.45500000000000007,-1.3475000000000001,-3.5875000000000004,0.94271875,0.04903125,0.53740625,1.2196875,0.9190625,-0.3810625,-0.0236875,1.2029375,0.017640484289804845,0.023355854508180725,True
50699,44257,0,44258,5253.0,45676.0,30810.0,-0.000488,-0.000305,-0.0023179999999999997,0.4025,-1.33,-3.6750000000000003,0.94053125,0.05009375,0.5388125,1.22340625,0.89609375,-0.37934375000000004,-0.02628125,1.2091875,0.01761480966853343,0.023519817491522956,True
50700,44258,0,44259,5254.0,45676.0,30808.0,-0.000305,0.00042699999999999997,-0.001281,0.43750000000000006,-1.5225000000000002,-3.6750000000000003,0.94621875,0.05075,0.54,1.220375,0.907625,-0.379875,-0.023875,1.20403125,0.017663134039858697,0.02347144247129158,True
50701,44259,0,44260,5255.0,45678.0,30806.0,0.000183,-0.000122,0.000122,0.385,-1.5050000000000001,-3.6925000000000003,0.94084375,0.04984375,0.5351875,1.2276562500000001,0.9074375,-0.38140625,-0.0265625,1.2064062500000001,0.01768765901269538,0.023380373284775966,True
50702,44260,0,44261,5255.0,45677.0,30809.0,0.0015249999999999999,-0.000366,0.0023179999999999997,0.385,-1.435,-3.5875000000000004,0.9471875000000001,0.051250000000000004,0.53909375,1.2200625,0.91046875,-0.3788125,-0.02409375,1.20253125,0.0176408305367622,0.023442611648982602,True
50703,44261,0,44262,5256.0,45677.0,30809.0,-0.0021349999999999997,-6.1e-05,0.001098,0.36750000000000005,-1.4700000000000002,-3.8325000000000005,0.9415625,0.05053125,0.53834375,1.2284375,0.912,-0.3821875,-0.022875,1.20940625,0.017747330915242943,0.023361847822127867,True
50704,44262,0,44263,5257.0,45680.0,30810.0,-0.0013419999999999999,-0.000183,-0.00042699999999999997,0.35000000000000003,-1.4175000000000002,-3.6750000000000003,0.94725,0.047468750000000004,0.5389375,1.219375,0.9095,-0.377125,-0.02321875,1.2030625,0.01741771230200444,0.02340053828132418,True
50705,44263,0,44264,5257.0,45681.0,30810.0,-0.000244,-0.000244,-0.000488,0.42000000000000004,-1.4525000000000001,-3.6575,0.94125,0.04878125,0.535875,1.22578125,0.91453125,-0.38209375,-0.02353125,1.2042187500000001,0.017671780135781,0.02328576278726717,True
50706,44264,0,44265,5257.0,45681.0,30812.0,0.00061,0.001037,0.000183,0.43750000000000006,-1.54,-3.6750000000000003,0.9420625,0.0538125,0.53915625,1.21671875,0.90990625,-0.37778125,-0.025125,1.21,0.017704390140099398,0.023487130660090217,True
50707,44265,0,44266,5258.0,45681.0,30810.0,0.000915,0.001403,-0.000793,0.49000000000000005,-1.715,-3.7100000000000004,0.9453125,0.04871875,0.537,1.21871875,0.9128437500000001,-0.37840625,-0.02378125,1.20353125,0.01752062852755192,0.023342755420735443,True
50708,44266,0,44267,5258.0,45680.0,30811.0,0.000549,0.000244,0.003111,0.47250000000000003,-1.7325000000000002,-3.7450000000000006,0.9360937500000001,0.047656250000000004,0.5375,1.220375,0.91321875,-0.3800625,-0.022875,1.20334375,0.017543792186750957,0.02332672504852146,True
50709,44267,0,44268,5259.0,45680.0,30812.0,0.0013419999999999999,-0.001403,-0.000305,0.1925,-1.7850000000000001,-3.7100000000000004,0.94040625,0.05003125,0.53778125,1.22146875,0.913,-0.3761875,-0.02365625,1.1964062500000001,0.017485045600342548,0.02337019370230125,True
50710,44268,0,44269,5260.0,45679.0,30812.0,0.002196,-0.002379,-0.000366,0.0,-1.9075000000000002,-3.6750000000000003,0.94084375,0.0500625,0.53928125,1.2236875,0.9098125,-0.3820625,-0.026875,1.2062187500000001,0.017723069982287187,0.023563457586556723,True
50711,44269,0,44270,5260.0,45680.0,30809.0,0.003477,-0.0015249999999999999,-0.000122,0.10500000000000001,-1.8200000000000003,-3.7625,0.9442812500000001,0.0501875,0.5396875,1.2208125,0.91028125,-0.37375,-0.0253125,1.20990625,0.01739319965126417,0.023516863724457278,True
50712,44270,0,44271,5259.0,45680.0,30808.0,0.0008539999999999999,-0.000732,-0.000915,0.28,-1.61,-3.8150000000000004,0.944875,0.04909375,0.54028125,1.21978125,0.91671875,-0.37871875,-0.02359375,1.20346875,0.017548604764144955,0.02347171725712353,True
50713,44271,0,44272,5259.0,45679.0,30810.0,-0.0011589999999999999,0.000732,0.000976,0.5775,-1.2600000000000002,-3.6575,0.94075,0.05090625,0.53815625,1.22075,0.90496875,-0.3824375,-0.02375,1.20296875,0.01777278215108723,0.023389614444039756,True
50714,44272,0,44273,5260.0,45680.0,30811.0,-0.002989,0.0008539999999999999,0.00122,0.525,-1.3650000000000002,-3.6750000000000003,0.94125,0.05021875,0.53878125,1.2229375,0.90896875,-0.38090625,-0.02890625,1.20225,0.017682894785750632,0.02362519101342784,True
50715,44273,0,44274,5259.0,45679.0,30812.0,-0.0030499999999999998,0.000915,0.000122,0.5075000000000001,-1.4700000000000002,-3.6925000000000003,0.94540625,0.0505625,0.54328125,1.2199375000000001,0.9080312500000001,-0.37721875,-0.025687500000000002,1.213375,0.017548402645400227,0.023681684447115197,True
50716,44274,0,44275,5261.0,45679.0,30813.0,-0.001281,0.000305,-0.000976,0.4025,-1.6975000000000002,-3.6925000000000003,0.9478125000000001,0.051562500000000004,0.5406875,1.22084375,0.91309375,-0.37765625,-0.02403125,1.21325,0.017607055641372417,0.023506410898462345,True
50717,44275,0,44276,5261.0,45680.0,30812.0,0.000122,-0.000366,-0.0013419999999999999,0.1925,-1.7675,-3.7100000000000004,0.94178125,0.04515625,0.529125,1.238125,0.9203125,-0.382125,-0.0266875,1.20071875,0.01752436467289049,0.023133130607371488,True
50718,44276,0,44277,5263.0,45681.0,30810.0,0.001037,-0.000732,-0.000305,0.15750000000000003,-1.8025000000000002,-3.6925000000000003,0.9416875,0.053875,0.545625,1.2433750000000001,0.90590625,-0.37921875,-0.024625,1.2133125,0.017764874028213067,0.023736062477562086,True
50719,44277,0,44278,5263.0,45678.0,30812.0,0.002013,-0.000732,0.000122,0.21000000000000002,-1.7500000000000002,-3.7100000000000004,0.9573125,0.0493125,0.54771875,1.2084062500000001,0.90571875,-0.378375,-0.022625,1.20153125,0.01754372471503946,0.023741941190856538,True
50720,44278,0,44279,5262.0,45680.0,30812.0,0.002013,0.000183,0.001586,0.29750000000000004,-1.6975000000000002,-3.6400000000000006,0.92934375,0.04584375,0.5357500000000001,1.2338125,0.90896875,-0.38584375,-0.027,1.2046875000000001,0.017702381120193966,0.023421567403337912,True
50721,44279,0,44280,5264.0,45680.0,30814.0,0.002989,0.00061,0.0025009999999999998,0.36750000000000005,-1.5575,-3.535,0.92071875,0.0520625,0.5284375,1.2354375,0.90746875,-0.3800625,-0.02646875,1.2053125,0.01772452388093755,0.023095622406018364,True
50722,44280,0,44281,5264.0,45679.0,30814.0,0.0006709999999999999,0.001403,0.001586,0.5775,-1.435,-3.4475000000000002,0.92815625,0.05678125,0.53371875,1.22959375,0.9075,-0.3795,-0.02853125,1.20534375,0.017895414179946268,0.023399266236882457,True
50723,44281,0,44282,5264.0,45681.0,30815.0,-0.002074,0.0008539999999999999,-0.000488,0.6475000000000001,-1.2425000000000002,-3.6400000000000006,0.9286562500000001,0.0501875,0.53540625,1.22896875,0.9070625,-0.38053125,-0.02746875,1.2007812500000001,0.017666503883093196,0.023426312852867618,True
50724,44282,0,44283,5265.0,45678.0,30815.0,-0.0021349999999999997,-0.000183,-0.0021349999999999997,0.6125,-1.12,-3.7275000000000005,0.929,0.05146875,0.52871875,1.22578125,0.89490625,-0.38125000000000003,-0.0243125,1.20090625,0.017748013329915407,0.0230196493656166,True
50725,44283,0,44284,5266.0,45680.0,30813.0,-0.00122,-0.00061,-0.00183,0.385,-0.9450000000000001,-3.7625,0.91553125,0.04340625,0.5396562500000001,1.20884375,0.9065625,-0.38403125,-0.0245,1.2033125,0.017529402567510243,0.02348253865845283,True
50726,44284,0,44285,5268.0,45681.0,30817.0,-0.001769,-0.0017079999999999999,-0.002013,0.45500000000000007,-0.8925000000000001,-3.8150000000000004,0.94875,0.047031250000000004,0.54353125,1.219625,0.91596875,-0.38046875,-0.0239375,1.20559375,0.01753452750985356,0.023620971791156218,True
50727,44285,0,44286,5267.0,45679.0,30812.0,-0.001586,-0.000976,-0.000732,0.45500000000000007,-0.9100000000000001,-3.8500000000000005,0.9586250000000001,0.053875,0.53540625,1.23053125,0.9120312500000001,-0.37878125,-0.02721875,1.2064062500000001,0.017747246901442214,0.023416151734166068,True
50728,44286,0,44287,5269.0,45679.0,30813.0,-0.000366,-0.000488,0.0011589999999999999,0.22750000000000004,-1.05,-3.9200000000000004,0.92909375,0.05328125,0.5377500000000001,1.22846875,0.9093125,-0.37953125,-0.02740625,1.2114375,0.01775310999878228,0.02352131745389705,True
50729,44287,0,44288,5267.0,45679.0,30812.0,0.002013,0.000732,-0.000793,0.36750000000000005,-1.2425000000000002,-3.9200000000000004,0.9350937500000001,0.04803125,0.54203125,1.21678125,0.9106562500000001,-0.379125,-0.0245625,1.21140625,0.0175213938154056,0.023583936231929302,True
50730,44288,0,44289,5268.0,45682.0,30813.0,0.002196,0.000305,6.1e-05,0.29750000000000004,-1.3825,-3.8850000000000002,0.9454375,0.0501875,0.5360625,1.2198437500000001,0.91521875,-0.37865625,-0.025,1.1960625,0.017590951100924606,0.02335327783558793,True
50731,44289,0,44290,5268.0,45681.0,30812.0,0.0021349999999999997,0.000793,0.000915,0.1925,-1.4175000000000002,-3.8500000000000005,0.93821875,0.050625,0.53821875,1.22390625,0.91228125,-0.3799375,-0.01871875,1.20784375,0.01766052517566954,0.023187644012027074,True
50732,44290,0,44291,5267.0,45681.0,30810.0,0.002013,-0.000244,0.001464,0.12250000000000001,-1.2775,-3.8500000000000005,0.946875,0.047406250000000004,0.5365,1.226625,0.90978125,-0.378625,-0.02428125,1.20346875,0.017475606191899664,0.023342269604839896,True
50733,44291,0,44292,5268.0,45683.0,30811.0,-0.0006709999999999999,-0.00042699999999999997,0.00183,0.21000000000000002,-1.3125000000000002,-3.8500000000000005,0.9323125,0.0505,0.5383125,1.21653125,0.9098125,-0.380625,-0.0279375,1.20978125,0.01768309877207824,0.023566317333728704,True
50734,44292,0,44293,5267.0,45681.0,30812.0,-0.002074,0.000366,-0.000183,0.36750000000000005,-1.2075,-3.8325000000000005,0.938125,0.04659375,0.5364375,1.22553125,0.9166875,-0.37525000000000003,-0.0243125,1.20390625,0.01730623275658711,0.0233409384763872,True
50735,44293,0,44294,5265.0,45683.0,30809.0,-0.001403,0.001098,-0.00122,0.5950000000000001,-1.2950000000000002,-3.7625,0.93003125,0.05184375,0.53825,1.22034375,0.9100312500000001,-0.3825625,-0.027125,1.21153125,0.01781626726067041,0.023530697076741387,True
50736,44294,0,44295,5265.0,45682.0,30812.0,-0.0011589999999999999,-6.1e-05,-0.001281,0.56,-1.1725,-3.8150000000000004,0.9419062500000001,0.04809375,0.535375,1.2240625,0.9179375000000001,-0.3785625,-0.0249375,1.20371875,0.017501288273252372,0.023322121025288828,True
50737,44295,0,44296,5265.0,45683.0,30812.0,-0.001098,0.00061,-0.000732,0.43750000000000006,-1.2775,-3.8850000000000002,0.9408125,0.0496875,0.53978125,1.22053125,0.9040312500000001,-0.3806875,-0.02725,1.2110625,0.017652291388419627,0.023599506809976172,True
50738,44296,0,44297,5264.0,45685.0,30809.0,-0.000549,-0.0006709999999999999,0.000366,0.24500000000000002,-1.2075,-3.9725000000000006,0.946625,0.0475,0.5364375,1.22109375,0.9138125,-0.37753125,-0.025468750000000002,1.20375,0.017435368891179248,0.023387941182208983,True
50739,44297,0,44298,5264.0,45683.0,30810.0,-0.00061,-0.000793,0.000183,0.36750000000000005,-1.2950000000000002,-3.9375000000000004,0.94115625,0.05059375,0.54078125,1.2239375000000001,0.91390625,-0.3829375,-0.0285625,1.201375,0.017780107503454,0.023694457377548075,True
50740,44298,0,44299,5263.0,45683.0,30810.0,0.001037,-0.000305,0.0006709999999999999,0.385,-1.3650000000000002,-3.99,0.94853125,0.04821875,0.5386875,1.2199375000000001,0.9101875,-0.3799375,-0.025687500000000002,1.21190625,0.017561827219614485,0.023490482842582545,True
50741,44299,0,44300,5264.0,45683.0,30812.0,0.0023179999999999997,-0.0006709999999999999,-0.000976,0.35000000000000003,-1.3825,-4.0425,0.94090625,0.047093750000000004,0.53746875,1.2203125000000001,0.9177500000000001,-0.37903125,-0.02496875,1.203125,0.017479160497815102,0.023410540336290763,True
50742,44300,0,44301,5263.0,45684.0,30813.0,0.000549,0.000366,-0.00244,0.385,-1.6275000000000002,-4.0425,0.94071875,0.04940625,0.54203125,1.221,0.91659375,-0.37878125,-0.0236875,1.20415625,0.01756394200386863,0.023548372829941277,True
50743,44301,0,44302,5262.0,45682.0,30813.0,0.0011589999999999999,-0.000244,0.00061,0.36750000000000005,-1.5575,-3.9550000000000005,0.94015625,0.05028125,0.53559375,1.220625,0.90525,-0.381,-0.02534375,1.2053125,0.017689235470243224,0.023347740862188493,True
50744,44302,0,44303,5263.0,45683.0,30811.0,0.000366,0.000122,0.0030499999999999998,0.36750000000000005,-1.4525000000000001,-4.0425,0.94365625,0.04675,0.538875,1.22015625,0.9125625,-0.378625,-0.02325,1.208375,0.017448687118325992,0.023399207018201116,True
50745,44303,0,44304,5259.0,45683.0,30810.0,-0.0008539999999999999,-0.000366,0.004331,0.28,-1.4175000000000002,-4.077500000000001,0.9415625,0.04809375,0.536125,1.2205,0.916,-0.37915625000000003,-0.024875,1.20390625,0.017525216854049244,0.02335079787095666,True
50746,44304,0,44305,5261.0,45683.0,30810.0,-0.0015249999999999999,-0.0008539999999999999,0.0011589999999999999,0.3325,-1.4175000000000002,-4.0075,0.94134375,0.04996875,0.5415625000000001,1.22646875,0.91296875,-0.38203125,-0.02671875,1.2039375,0.017717965971354416,0.023652054028392874,True
50747,44305,0,44306,5259.0,45685.0,30811.0,0.000549,0.00061,-0.001586,0.5950000000000001,-1.5750000000000002,-3.9375000000000004,0.940875,0.0506875,0.5357500000000001,1.22559375,0.90971875,-0.38084375,-0.0245625,1.203625,0.017699602787536833,0.023322485060862198,True
50748,44306,0,44307,5258.0,45684.0,30811.0,0.002562,0.000915,-0.002928,0.5950000000000001,-1.715,-4.0425,0.93925,0.05025,0.53821875,1.20953125,0.910375,-0.38096875,-0.025968750000000002,1.2085000000000001,0.017686694668356852,0.02348240380525759,True
50749,44307,0,44308,5258.0,45681.0,30811.0,0.0015249999999999999,0.00122,-0.001403,0.4025,-1.5750000000000002,-4.0425,0.9479375,0.047781250000000004,0.537125,1.2214375,0.9100312500000001,-0.3789375,-0.0241875,1.2035,0.01750358275458067,0.02336447382455702,True
50750,44308,0,44309,5260.0,45679.0,30810.0,-0.002257,0.0008539999999999999,0.000122,0.42000000000000004,-1.435,-4.0600000000000005,0.94071875,0.0475,0.53678125,1.2135,0.91703125,-0.3795625,-0.0245,1.2040625,0.017517233953644577,0.023362869154404876,True
50751,44309,0,44310,5258.0,45681.0,30809.0,-0.003538,0.000244,0.00122,0.4025,-1.2950000000000002,-3.8325000000000005,0.94065625,0.0481875,0.53634375,1.22078125,0.916,-0.3815,-0.02396875,1.20371875,0.017623505526731333,0.02332306147376253,True
50752,44310,0,44311,5260.0,45680.0,30811.0,0.0,-0.0008539999999999999,0.0017079999999999999,0.43750000000000006,-1.4175000000000002,-3.7975000000000003,0.94221875,0.047093750000000004,0.53746875,1.22040625,0.918875,-0.37809375,-0.0240625,1.2085000000000001,0.01744137603047818,0.02337370084680724,True
50753,44311,0,44312,5261.0,45683.0,30812.0,0.0013419999999999999,-6.1e-05,-6.1e-05,0.4025,-1.5050000000000001,-3.8325000000000005,0.94134375,0.05296875,0.5398437500000001,1.22053125,0.92221875,-0.37940625,-0.02065625,1.21515625,0.01773525554995828,0.023334083555689705,True
50754,44312,0,44313,5260.0,45683.0,30812.0,0.001403,-0.000549,-0.0017079999999999999,0.36750000000000005,-1.5225000000000002,-3.8150000000000004,0.94684375,0.0501875,0.5398437500000001,1.22084375,0.9069375000000001,-0.3758125,-0.02671875,1.217875,0.01747634053223867,0.023580519083572327,True
50755,44313,0,44314,5259.0,45680.0,30813.0,0.002257,0.000793,-0.0013419999999999999,0.35000000000000003,-1.5050000000000001,-3.8500000000000005,0.9415625,0.04803125,0.539,1.22434375,0.91596875,-0.377625,-0.031625,1.2100625,0.017460940103886248,0.023744753007755408,True
50756,44314,0,44315,5259.0,45679.0,30813.0,0.000793,-0.000488,-0.0011589999999999999,0.36750000000000005,-1.6800000000000002,-3.7625,0.9475625,0.05084375,0.5386562500000001,1.22821875,0.90359375,-0.3875,-0.025656250000000002,1.197875,0.01797411583803178,0.02348791201072812,True
50757,44315,0,44316,5259.0,45680.0,30812.0,0.001464,-0.0008539999999999999,-0.0011589999999999999,0.2625,-1.435,-3.8675,0.9460625,0.051062500000000004,0.5398437500000001,1.2235625,0.903625,-0.3861875,-0.029437500000000002,1.20884375,0.017930232021713115,0.023690993598997068,True
50758,44316,0,44317,5259.0,45681.0,30811.0,-0.00042699999999999997,-0.000915,0.0008539999999999999,0.29750000000000004,-1.4175000000000002,-3.7625,0.93425,0.0489375,0.5408125,1.22046875,0.90290625,-0.37721875,-0.023375,1.2186875,0.0174817420465573,0.023484939147809167,True
50759,44317,0,44318,5258.0,45679.0,30812.0,-0.002074,0.000793,0.00183,0.29750000000000004,-1.33,-3.7275000000000005,0.94265625,0.05109375,0.53921875,1.22709375,0.9033125000000001,-0.37825000000000003,-0.02834375,1.198625,0.01761175433019187,0.02362054188607985,True
50760,44318,0,44319,5258.0,45680.0,30810.0,-0.002196,0.001037,0.0008539999999999999,0.47250000000000003,-1.4175000000000002,-3.6400000000000006,0.93965625,0.05009375,0.5365,1.21946875,0.90175,-0.3833125,-0.02090625,1.2009375,0.017774707599715996,0.023205046645565258,True
50761,44319,0,44320,5259.0,45680.0,30810.0,-0.002013,6.1e-05,0.00122,0.47250000000000003,-1.4000000000000001,-3.6575,0.9414375,0.0491875,0.54034375,1.21996875,0.92959375,-0.37653125,-0.02221875,1.2210625,0.017464287499887828,0.023418423828981242,True
50762,44320,0,44321,5259.0,45679.0,30812.0,-0.000488,0.00061,0.000122,0.385,-1.4700000000000002,-3.6575,0.9420000000000001,0.047,0.5400625,1.2201875,0.91953125,-0.37675000000000003,-0.025562500000000002,1.2198437500000001,0.017383367347985273,0.023542632976855382,True
50763,44321,0,44322,5258.0,45680.0,30813.0,0.000183,-0.000366,-0.0006709999999999999,0.42000000000000004,-1.6625,-3.6050000000000004,0.94565625,0.048,0.53996875,1.225625,0.90471875,-0.37515625,-0.029968750000000002,1.20915625,0.017360145127274827,0.023717779491494347,True
50764,44322,0,44323,5259.0,45679.0,30814.0,0.0013419999999999999,-0.00042699999999999997,-0.0015249999999999999,0.31500000000000006,-1.8025000000000002,-3.5700000000000003,0.9459062500000001,0.05003125,0.537875,1.21890625,0.9038125,-0.38278125,-0.0185625,1.19871875,0.017750743672853155,0.023166977624077212,True
50765,44323,0,44324,5257.0,45681.0,30814.0,0.001586,-0.00042699999999999997,-0.0015249999999999999,0.42000000000000004,-1.8200000000000003,-3.6225000000000005,0.9416875,0.05028125,0.53878125,1.226375,0.9108437500000001,-0.38053125,-0.02228125,1.1989375,0.01767034916435629,0.023355920870337825,True
50766,44324,0,44325,5258.0,45680.0,30812.0,6.1e-05,-0.000488,-0.0006709999999999999,0.35000000000000003,-1.7500000000000002,-3.5875000000000004,0.9413125,0.05334375,0.5378437500000001,1.22475,0.90796875,-0.38284375,-0.024625,1.2034375,0.01788911516934935,0.023412176048533538,True
50767,44325,0,44326,5257.0,45681.0,30814.0,0.003294,-0.00122,0.0011589999999999999,0.36750000000000005,-2.3275,-3.6925000000000003,0.94159375,0.05040625,0.5383125,1.2200625,0.9166562500000001,-0.38153125,-0.0225,1.204375,0.01771576590375143,0.02334530128004995,True
50768,44326,0,44327,5258.0,45683.0,30816.0,0.0035989999999999998,-0.000244,0.000549,0.12250000000000001,-2.1350000000000002,-3.9375000000000004,0.9340937500000001,0.047531250000000004,0.53946875,1.2200312500000001,0.9170625,-0.38025000000000003,-0.0225,1.20434375,0.017546220813978528,0.023393433239671142,True
50769,44327,0,44328,5258.0,45681.0,30814.0,0.001403,-0.0008539999999999999,0.0006709999999999999,0.07,-1.8200000000000003,-3.8850000000000002,0.93353125,0.0495625,0.53946875,1.22303125,0.91646875,-0.3819375,-0.021718750000000002,1.20196875,0.01769752711407779,0.02336167140413298,True
50770,44328,0,44329,5260.0,45682.0,30815.0,-0.002196,0.000793,0.000488,0.42000000000000004,-1.54,-3.8150000000000004,0.94046875,0.05071875,0.5385,1.22028125,0.91115625,-0.38146875,-0.021656250000000002,1.20390625,0.017726065005825378,0.023318802174600264,True
50771,44329,0,44330,5260.0,45682.0,30814.0,-0.002989,0.000915,6.1e-05,0.6125,-1.5050000000000001,-3.7450000000000006,0.9399375,0.047843750000000004,0.53928125,1.2204375,0.9157500000000001,-0.3799375,-0.021625000000000002,1.203625,0.017546445719969543,0.023350054378086415,True
50772,44330,0,44331,5260.0,45680.0,30816.0,-0.000366,0.00042699999999999997,-0.00061,0.36750000000000005,-1.6275000000000002,-3.8325000000000005,0.942875,0.04921875,0.541625,1.22065625,0.9176875,-0.371125,-0.0233125,1.21165625,0.017247613723207277,0.023516219921794715,True
50773,44331,0,44332,5259.0,45682.0,30816.0,0.000122,0.000183,6.1e-05,0.24500000000000002,-1.6800000000000002,-3.9725000000000006,0.9455,0.05153125,0.5415,1.22721875,0.899,-0.37875000000000003,-0.0240625,1.2100312500000001,0.0176498487412193,0.023541501359314227,True
50774,44332,0,44333,5260.0,45683.0,30818.0,0.000183,-0.001281,-0.001403,0.17500000000000002,-1.6625,-3.9200000000000004,0.9469375,0.05296875,0.542125,1.221125,0.9110312500000001,-0.3790625,-0.02365625,1.209,0.017721405406791176,0.023551005064018932,True
50775,44333,0,44334,5260.0,45682.0,30816.0,0.000366,-0.00183,0.0,0.15750000000000003,-1.7850000000000001,-3.9375000000000004,0.9486875,0.0469375,0.54340625,1.22075,0.9121875,-0.37790625,-0.021593750000000002,1.2035625,0.01742740929607111,0.023520504337893898,True
50776,44334,0,44335,5259.0,45680.0,30816.0,0.001281,-6.1e-05,0.000793,0.12250000000000001,-1.8025000000000002,-4.130000000000001,0.94153125,0.052625,0.5386875,1.2320312500000001,0.91796875,-0.38140625,-0.021625000000000002,1.2040625,0.017801731596183052,0.023325337066081083,True
50777,44335,0,44336,5261.0,45681.0,30817.0,-0.000305,0.000732,0.000488,0.2625,-1.7850000000000001,-4.077500000000001,0.93925,0.051625000000000004,0.54271875,1.217625,0.9095625,-0.37909375,-0.01534375,1.21275,0.01766754557888355,0.023237747742003486,True
50778,44336,0,44337,5262.0,45682.0,30816.0,-0.000305,6.1e-05,0.000122,0.43750000000000006,-1.6800000000000002,-4.130000000000001,0.93840625,0.05109375,0.537125,1.2295625000000001,0.91615625,-0.38109375,-0.02328125,1.2043125000000001,0.01772633764635764,0.023327631399228613,True
50779,44337,0,44338,5261.0,45682.0,30818.0,-0.0017079999999999999,0.000305,-0.000122,0.42000000000000004,-1.61,-4.165,0.9381875000000001,0.051375000000000004,0.543125,1.22646875,0.9101250000000001,-0.382,-0.02259375,1.211875,0.01777438274136658,0.023549444988636998,True
50780,44338,0,44339,5262.0,45682.0,30817.0,-0.001037,0.000244,-0.00042699999999999997,0.31500000000000006,-1.7500000000000002,-4.165,0.9490625,0.0459375,0.54090625,1.2234375,0.91453125,-0.3785625,-0.0205625,1.203375,0.01741283966189557,0.023374504656166986,True
50781,44339,0,44340,5262.0,45681.0,30818.0,0.00042699999999999997,-6.1e-05,-0.000183,0.28,-1.8025000000000002,-3.99,0.9383750000000001,0.051000000000000004,0.54190625,1.2317500000000001,0.9089375000000001,-0.38275000000000003,-0.02209375,1.20628125,0.01778921573653505,0.02347838643332245,True
50782,44340,0,44341,5262.0,45685.0,30819.0,0.002623,-0.001037,-0.00042699999999999997,0.3325,-2.0125,-3.99,0.94584375,0.05165625,0.5426875,1.22940625,0.9108437500000001,-0.37840625,-0.02321875,1.20903125,0.017641124509523667,0.023556637263688902,True
50783,44341,0,44342,5262.0,45683.0,30819.0,0.002928,-0.000244,0.000244,0.2625,-1.995,-3.8675,0.95121875,0.05871875,0.54440625,1.21896875,0.91009375,-0.379,-0.02059375,1.208,0.017954745887854298,0.023521483518699447,True
50784,44342,0,44343,5261.0,45683.0,30822.0,0.001464,0.00042699999999999997,0.000122,0.35000000000000003,-1.9075000000000002,-3.99,0.9440937500000001,0.0453125,0.53759375,1.22475,0.91540625,-0.37971875,-0.0205625,1.20359375,0.01743380448144013,0.023236601973829714,True
50785,44343,0,44344,5263.0,45686.0,30822.0,0.0,0.001098,-0.00042699999999999997,0.43750000000000006,-1.8900000000000001,-3.9725000000000006,0.94503125,0.051062500000000004,0.54440625,1.2189375,0.910875,-0.3786875,-0.02046875,1.2062187500000001,0.017628102415275636,0.023516402026917148,True
50786,44344,0,44345,5262.0,45684.0,30822.0,0.000122,0.000915,-0.000732,0.47250000000000003,-1.8725000000000003,-4.0075,0.9496875,0.0465625,0.5416875,1.2178125,0.912,-0.37828125,-0.01975,1.20446875,0.01742714121816935,0.023373994317176492,True
50787,44345,0,44346,5263.0,45683.0,30822.0,-0.000915,-0.000305,-0.000488,0.28,-1.8725000000000003,-4.077500000000001,0.93825,0.05115625,0.54371875,1.22740625,0.90978125,-0.3793125,-0.02040625,1.2085937500000001,0.017657132456052646,0.023485239763586428,True
50788,44346,0,44347,5263.0,45685.0,30823.0,-0.001769,0.000183,0.001037,0.17500000000000002,-1.9250000000000003,-4.077500000000001,0.9480937500000001,0.0486875,0.5443125,1.221,0.90990625,-0.37959375,-0.01984375,1.20525,0.017567202078582624,0.02348709075178726,True
50789,44347,0,44348,5262.0,45681.0,30822.0,-0.001586,-0.0008539999999999999,-0.000183,0.24500000000000002,-2.0125,-3.9200000000000004,0.93875,0.0464375,0.54221875,1.2208125,0.91390625,-0.3791875,-0.01953125,1.204,0.017458539174039334,0.02338721743372906,True
50790,44348,0,44349,5263.0,45685.0,30823.0,-0.000549,-0.0008539999999999999,0.001647,0.1925,-2.0825,-3.8850000000000002,0.94125,0.0474375,0.5436875,1.21078125,0.915125,-0.37953125,-0.01553125,1.20425,0.01751341096847381,0.0232857122409066,True
50791,44349,0,44350,5262.0,45682.0,30823.0,0.002074,-6.1e-05,0.001037,0.28,-1.9425000000000001,-3.8850000000000002,0.941125,0.0503125,0.5413125,1.22509375,0.91215625,-0.381,-0.016375,1.1976875,0.01769051720602108,0.023221135579370326,True
50792,44350,0,44351,5264.0,45682.0,30821.0,0.001647,0.0008539999999999999,-0.000366,0.5950000000000001,-1.7500000000000002,-3.8675,0.94134375,0.05046875,0.54059375,1.22659375,0.9105,-0.3878125,-0.0161875,1.19653125,0.01797132276623826,0.023183581906995022,True
50793,44351,0,44352,5262.0,45683.0,30821.0,0.0006709999999999999,0.000732,-0.001403,0.6825000000000001,-1.5225000000000002,-3.9375000000000004,0.94159375,0.05078125,0.544375,1.2271875,0.9024375,-0.3920625,-0.014375,1.19446875,0.018155240049913778,0.023267313848476176,True
50794,44352,0,44353,5263.0,45686.0,30825.0,0.000366,0.0017079999999999999,-0.001769,0.6825000000000001,-1.3825,-3.8675,0.9394687500000001,0.050875000000000004,0.54415625,1.22609375,0.9066875,-0.3913125,-0.0201875,1.18634375,0.018128893227865452,0.02349456056494147,True
50795,44353,0,44354,5264.0,45684.0,30825.0,0.000183,0.000488,-0.001586,0.6125,-1.4175000000000002,-3.99,0.9453125,0.05159375,0.5446875,1.21478125,0.9009375000000001,-0.39287500000000003,-0.02646875,1.20871875,0.01822125313231835,0.023771959830759568,True
50796,44354,0,44355,5264.0,45684.0,30824.0,-0.00122,0.000549,-0.00042699999999999997,0.49000000000000005,-1.2075,-4.077500000000001,0.94853125,0.055875,0.54459375,1.2270625,0.89765625,-0.383375,-0.02671875,1.20721875,0.0180143232837948,0.023778215658349103,True
50797,44355,0,44356,5264.0,45683.0,30822.0,-0.003294,-0.001464,0.000488,0.42000000000000004,-1.0675000000000001,-4.0075,0.94765625,0.055843750000000004,0.5443125,1.2196875,0.89678125,-0.381625,-0.0284375,1.2237500000000001,0.017942559201857958,0.023836339753677285,True
50798,44356,0,44357,5265.0,45685.0,30821.0,-0.002196,-0.0013419999999999999,0.001037,0.35000000000000003,-1.1900000000000002,-4.0600000000000005,0.9439062500000001,0.047125,0.5426875,1.2208125,0.91371875,-0.3756875,-0.016625,1.2091875,0.017345664609459733,0.023288555323656007,True
50799,44357,0,44358,5264.0,45682.0,30823.0,-0.00061,0.0,-0.000244,0.35000000000000003,-1.4000000000000001,-4.130000000000001,0.94046875,0.04971875,0.54096875,1.22053125,0.9322812500000001,-0.3838125,-0.01265625,1.205375,0.017779469473856887,0.02305555013306785,True
50800,44358,0,44359,5263.0,45685.0,30821.0,0.00122,-0.000793,-0.000976,0.28,-1.5750000000000002,-4.112500000000001,0.9301875000000001,0.0499375,0.54271875,1.2261875,0.93196875,-0.3826875,-0.0126875,1.19346875,0.017743122040997327,0.02312969966397972,True
50801,44359,0,44360,5265.0,45683.0,30820.0,0.00366,0.000122,0.0006709999999999999,0.1925,-1.8550000000000002,-4.130000000000001,0.9305,0.05046875,0.54228125,1.22590625,0.905,-0.38559375,-0.014781250000000001,1.1936875,0.01788197180968784,0.023196651020920712,True
50802,44360,0,44361,5263.0,45684.0,30819.0,0.001769,0.000366,0.000183,0.3325,-1.5925000000000002,-3.9550000000000005,0.9410000000000001,0.0505625,0.543875,1.22678125,0.90828125,-0.39,-0.01875,1.19340625,0.018063243132431326,0.02342440801457195,True
50803,44361,0,44362,5262.0,45684.0,30820.0,0.0013419999999999999,0.000122,0.0013419999999999999,0.22750000000000004,-1.5575,-4.0425,0.94265625,0.050937500000000004,0.5435,1.22715625,0.9001875,-0.38303125,-0.0214375,1.2064062500000001,0.017797981946973882,0.02351805548689582,True
50804,44362,0,44363,5261.0,45685.0,30820.0,-0.000488,0.0006709999999999999,0.00042699999999999997,0.385,-1.4175000000000002,-3.9550000000000005,0.9435625,0.050375,0.54421875,1.2260312500000001,0.8981250000000001,-0.380375,-0.01875,1.2028125,0.017667898873581722,0.02343871975019516,True
50805,44363,0,44364,5259.0,45685.0,30819.0,-0.001281,0.000488,0.000488,0.43750000000000006,-1.4525000000000001,-3.9725000000000006,0.9324375,0.05084375,0.5415,1.2208125,0.90071875,-0.3836875,-0.01940625,1.2042187500000001,0.01782057164241463,0.02335221129789584,True
50806,44364,0,44365,5259.0,45681.0,30816.0,-0.001952,0.00061,-0.0006709999999999999,0.5075000000000001,-1.3125000000000002,-3.8500000000000005,0.94078125,0.0504375,0.54334375,1.22653125,0.9114375,-0.38203125,-0.021531250000000002,1.2102187500000001,0.01773719119484764,0.023515361869364596,True
50807,44365,0,44366,5258.0,45683.0,30817.0,-0.0023179999999999997,0.0006709999999999999,0.0,0.5950000000000001,-1.4525000000000001,-3.9025000000000003,0.9338125,0.05121875,0.543625,1.2196875,0.91021875,-0.3791875,-0.01928125,1.20878125,0.017654659327756513,0.02343559926465327,True
50808,44366,0,44367,5258.0,45683.0,30820.0,-0.001098,-0.001281,-0.000305,0.45500000000000007,-1.54,-3.9200000000000004,0.9410000000000001,0.04846875,0.5434687500000001,1.2206875,0.9188125,-0.380875,-0.017843750000000002,1.2041250000000001,0.017609858136756782,0.023370645002218405,True
50809,44367,0,44368,5257.0,45683.0,30821.0,-0.000488,-0.00122,6.1e-05,0.3325,-1.61,-3.9725000000000006,0.9408125,0.0486875,0.5427500000000001,1.221125,0.9170625,-0.382125,-0.01915625,1.20296875,0.017669194132997022,0.02339408779190568,True
50810,44368,0,44369,5256.0,45686.0,30820.0,0.00042699999999999997,-0.000305,0.0006709999999999999,0.36750000000000005,-1.6975000000000002,-3.9725000000000006,0.9403750000000001,0.050812500000000003,0.544125,1.22409375,0.9105,-0.38103125,-0.01846875,1.2026875000000001,0.01771228401177657,0.0234233812261658,True
50811,44369,0,44370,5255.0,45685.0,30818.0,0.002379,0.000305,-0.001098,0.36750000000000005,-1.715,-4.112500000000001,0.94115625,0.05065625,0.5425,1.225125,0.9105,-0.38259375,-0.01965625,1.20446875,0.017768823302483968,0.02340400895620644,True
50812,44370,0,44371,5253.0,45683.0,30820.0,0.0018909999999999999,0.000305,-0.00122,0.29750000000000004,-1.8375000000000001,-4.095000000000001,0.94165625,0.050875000000000004,0.54215625,1.2276562500000001,0.90971875,-0.37493750000000003,-0.0214375,1.20359375,0.01746927556224503,0.02346211587045946,True
50813,44371,0,44372,5254.0,45684.0,30818.0,0.000732,-0.000488,-0.00042699999999999997,0.4025,-1.6975000000000002,-4.1475,0.941875,0.05078125,0.54540625,1.22134375,0.9106562500000001,-0.37890625,-0.01871875,1.2126875,0.017625380547989105,0.02348688978257843,True
50814,44372,0,44373,5253.0,45681.0,30818.0,-0.00061,-0.000366,-0.000305,0.28,-1.6975000000000002,-4.112500000000001,0.94275,0.047031250000000004,0.5446562500000001,1.221375,0.91721875,-0.38125000000000003,-0.01,1.204625,0.01756600871571392,0.023101051645147856,True
50815,44373,0,44374,5252.0,45684.0,30818.0,-0.000976,-0.0011589999999999999,0.000976,0.3325,-1.54,-4.112500000000001,0.9306562500000001,0.053875,0.5367500000000001,1.2296562500000001,0.91096875,-0.38165625000000003,-0.01928125,1.2085937500000001,0.01786307072555828,0.023149370883027574,True
50816,44374,0,44375,5251.0,45683.0,30820.0,-0.000122,-0.000183,-0.000183,0.47250000000000003,-1.6625,-4.0425,0.9393125,0.0533125,0.54521875,1.2374375,0.91090625,-0.3791875,-0.0181875,1.2120312500000001,0.017740542009449658,0.02345748404204106,True
50817,44375,0,44376,5250.0,45682.0,30819.0,0.0021349999999999997,0.001037,0.000305,0.42000000000000004,-1.6800000000000002,-4.0425,0.95321875,0.05296875,0.54628125,1.23328125,0.916,-0.37884375000000003,-0.0185625,1.2116875,0.01771259147595956,0.023516967345568664,True
50818,44376,0,44377,5250.0,45679.0,30819.0,0.0026839999999999998,0.000732,0.000183,0.385,-1.6800000000000002,-4.077500000000001,0.9450937500000001,0.05234375,0.5475,1.2346875,0.9100312500000001,-0.37840625,-0.0185,1.21096875,0.017669325696793654,0.023565168515935632,True
50819,44377,0,44378,5249.0,45680.0,30820.0,0.001586,0.000549,0.00061,0.42000000000000004,-1.5225000000000002,-4.025,0.949375,0.0525625,0.5483750000000001,1.2199375000000001,0.913625,-0.3789375,-0.01715625,1.20778125,0.01769970491946173,0.0235469696792267,True
50820,44378,0,44379,5249.0,45682.0,30818.0,-0.000488,0.000244,0.000305,0.5075000000000001,-1.5225000000000002,-4.0075,0.95878125,0.05028125,0.54890625,1.2139375000000001,0.9166875,-0.37821875,-0.01690625,1.20365625,0.01757716609216988,0.023558925288306023,True
50821,44379,0,44380,5247.0,45682.0,30820.0,-0.0018909999999999999,-0.000305,-0.000488,0.36750000000000005,-1.2775,-3.9025000000000003,0.93896875,0.04396875,0.549,1.21503125,0.9175625000000001,-0.38290625,-0.0173125,1.20478125,0.01750714191422526,0.023579345107825864,True
50822,44380,0,44381,5249.0,45679.0,30817.0,-0.00122,0.000244,-0.00042699999999999997,0.3325,-1.3125000000000002,-4.0425,0.9230625,0.0423125,0.539625,1.2203125000000001,0.9115625,-0.380375,-0.0194375,1.2044062500000001,0.0173372025655881,0.02327542016752058,True
50823,44381,0,44382,5248.0,45681.0,30817.0,-0.00122,-0.0008539999999999999,-0.000915,0.4025,-1.5225000000000002,-3.99,0.9345625000000001,0.045375,0.54225,1.2146875,0.9094375,-0.38209375,-0.01625,1.20496875,0.017532077203172923,0.023255087701035758,True
50824,44382,0,44383,5249.0,45681.0,30818.0,0.000183,-0.000488,-0.00061,0.4025,-1.5575,-3.9200000000000004,0.93775,0.042875,0.54775,1.2156875,0.9105,-0.382625,-0.0163125,1.2040625,0.017450951240893874,0.02348664059064021,True
50825,44383,0,44384,5246.0,45680.0,30816.0,0.00061,-0.000488,-0.0018909999999999999,0.4025,-1.5750000000000002,-3.9025000000000003,0.9432812500000001,0.0451875,0.5481875,1.21415625,0.9148125,-0.38134375,-0.014937500000000001,1.20478125,0.017494164980139785,0.023448947139670887,True
50826,44384,0,44385,5248.0,45679.0,30817.0,0.001098,0.001281,0.000915,0.42000000000000004,-1.435,-3.8675,0.95359375,0.05246875,0.5453125,1.2280625,0.91540625,-0.37721875,-0.01803125,1.21209375,0.01762660065558135,0.02345503443376526,True
50827,44385,0,44386,5247.0,45680.0,30819.0,0.000488,-0.000366,0.0011589999999999999,0.35000000000000003,-1.4525000000000001,-3.9025000000000003,0.93671875,0.05153125,0.542,1.2211875,0.9026875,-0.37853125,-0.01953125,1.195,0.017641034055322753,0.023378110261831193,True
50828,44386,0,44387,5247.0,45680.0,30818.0,0.000183,0.000488,0.0013419999999999999,0.2625,-1.4000000000000001,-3.8675,0.93875,0.0493125,0.5454375,1.22071875,0.91021875,-0.3774375,-0.01575,1.203,0.017505941713520955,0.023367477592829707,True
50829,44387,0,44388,5246.0,45680.0,30818.0,0.000183,0.000793,0.000549,0.385,-1.3825,-3.9375000000000004,0.9410937500000001,0.0479375,0.5465625000000001,1.21884375,0.91921875,-0.378625,-0.0164375,1.20996875,0.01749739782288788,0.023442277814934045,True
50830,44388,0,44389,5247.0,45678.0,30817.0,-0.001403,-0.000244,-0.00061,0.3325,-1.3125000000000002,-3.7975000000000003,0.939875,0.050937500000000004,0.54603125,1.22046875,0.904375,-0.37959375,-0.0175625,1.21271875,0.017659492377718557,0.023465901254550708,True
50831,44389,0,44390,5245.0,45677.0,30818.0,-0.00042699999999999997,0.000122,-0.00122,0.45500000000000007,-1.4000000000000001,-3.9550000000000005,0.9490625,0.0506875,0.5464687500000001,1.2215,0.9156562500000001,-0.37875000000000003,-0.01703125,1.210375,0.01761523868122853,0.023462516833757302,True
50832,44390,0,44391,5247.0,45679.0,30819.0,-0.000793,-0.001037,6.1e-05,0.36750000000000005,-1.2075,-4.0075,0.94915625,0.0506875,0.5460625,1.22034375,0.90828125,-0.37878125,-0.0175,1.2089375,0.017616497953522596,0.02346466118455293,True
50833,44391,0,44392,5244.0,45678.0,30820.0,0.00042699999999999997,0.000183,0.00042699999999999997,0.45500000000000007,-1.1900000000000002,-4.0075,0.9484375,0.0485625,0.546375,1.221125,0.9151875,-0.37940625,-0.017968750000000002,1.2104375,0.017554518990797817,0.02349673096314608,True
50834,44392,0,44393,5245.0,45680.0,30820.0,-0.0006709999999999999,0.000122,0.000366,0.42000000000000004,-1.2075,-4.0600000000000005,0.940625,0.04653125,0.54828125,1.2213125,0.9186875,-0.37978125,-0.016,1.2041875,0.017486313582079412,0.023496054713524322,True
50835,44393,0,44394,5244.0,45679.0,30822.0,-0.000122,0.001281,0.001464,0.5425000000000001,-1.225,-4.0600000000000005,0.94084375,0.047218750000000004,0.54703125,1.2198125,0.9174375,-0.38228125,-0.016375,1.20428125,0.017615250828919054,0.02345925436290864,True
50836,44394,0,44395,5245.0,45678.0,30823.0,0.000122,-6.1e-05,-0.000122,0.5075000000000001,-1.4000000000000001,-4.2525,0.9436875,0.0484375,0.55125,1.220625,0.917625,-0.37815625,-0.01684375,1.2089375,0.017499016153036596,0.02365397201703492,True
50837,44395,0,44396,5246.0,45678.0,30823.0,0.000305,0.000488,-6.1e-05,0.5425000000000001,-1.2950000000000002,-4.2525,0.94875,0.051125000000000004,0.5458125,1.21571875,0.9173125,-0.37925000000000003,-0.019875,1.21340625,0.01765333223950696,0.023550809485894494,True
50838,44396,0,44397,5246.0,45679.0,30823.0,0.000488,-0.000732,-0.000488,0.42000000000000004,-1.435,-4.235,0.9470625,0.05140625,0.54634375,1.22821875,0.90978125,-0.37884375000000003,-0.01415625,1.208375,0.01764849901874448,0.023340399477912117,True
50839,44397,0,44398,5245.0,45678.0,30823.0,-0.000366,-0.001464,0.0,0.42000000000000004,-1.3650000000000002,-4.305000000000001,0.9408125,0.05021875,0.543375,1.22703125,0.90925,-0.379875,-0.0096875,1.20453125,0.017641343526166562,0.023034972862516434,True
50840,44398,0,44399,5245.0,45679.0,30824.0,-0.0008539999999999999,0.000366,-0.0008539999999999999,0.47250000000000003,-1.4525000000000001,-4.322500000000001,0.93471875,0.050625,0.5445625000000001,1.2270625,0.90853125,-0.374,-0.019625,1.19703125,0.017421227537540003,0.023488605671404112,True
50841,44399,0,44400,5246.0,45680.0,30824.0,0.000305,-0.0006709999999999999,-6.1e-05,0.43750000000000006,-1.5750000000000002,-4.2525,0.931625,0.05134375,0.5465625000000001,1.2221250000000001,0.911,-0.37875000000000003,-0.01803125,1.2108125,0.01764215761677691,0.02350707866615837,True
50842,44400,0,44401,5245.0,45680.0,30824.0,-6.1e-05,-0.00061,0.000366,0.3325,-1.5050000000000001,-4.2875000000000005,0.94771875,0.047625,0.54684375,1.2088125,0.9030312500000001,-0.37875000000000003,-0.016625,1.20471875,0.01748961698200277,0.023461612528821178,True
50843,44401,0,44402,5244.0,45680.0,30826.0,0.00061,-0.0006709999999999999,0.001037,0.36750000000000005,-1.435,-4.2700000000000005,0.94165625,0.05075,0.546375,1.22075,0.9108125,-0.379875,-0.01940625,1.21071875,0.017663134039858697,0.023555172184991043,True
50844,44402,0,44403,5246.0,45680.0,30826.0,0.000488,-0.000976,0.000732,0.24500000000000002,-1.4700000000000002,-4.375,0.947375,0.047531250000000004,0.5435625000000001,1.2250625,0.917125,-0.3795,-0.016875,1.2043125000000001,0.017515997046699074,0.02333515496916231,True
50845,44403,0,44404,5246.0,45677.0,30824.0,-0.000976,-0.00122,0.000305,0.4025,-1.3825,-4.48,0.9460000000000001,0.04884375,0.54584375,1.2256562500000001,0.90965625,-0.37875000000000003,-0.0119375,1.20134375,0.01753960929087833,0.023229331244094736,True
50846,44404,0,44405,5244.0,45681.0,30824.0,6.1e-05,0.001281,0.000732,0.7350000000000001,-1.33,-4.532500000000001,0.9424375,0.05040625,0.545875,1.22146875,0.90053125,-0.3785625,-0.015625,1.20378125,0.01759614620427271,0.02338061158100195,True
50847,44405,0,44406,5245.0,45678.0,30823.0,0.0011589999999999999,0.001586,0.000366,0.77,-1.1725,-4.532500000000001,0.9405625,0.04890625,0.54634375,1.2243125,0.91759375,-0.3810625,-0.01115625,1.19171875,0.017635357359836144,0.02321837375074347,True
50848,44406,0,44407,5246.0,45678.0,30825.0,0.004941,0.000976,-0.00244,0.665,-1.12,-4.655,0.9433750000000001,0.04996875,0.5463125,1.22103125,0.909625,-0.37225,-0.01665625,1.205625,0.01732374934608007,0.023440763116222726,True
50849,44407,0,44408,5245.0,45679.0,30825.0,0.002989,0.002623,-0.0037819999999999998,0.525,-0.8750000000000001,-4.742500000000001,0.94071875,0.05096875,0.546625,1.222375,0.9176562500000001,-0.38125000000000003,-0.01971875,1.2055625,0.01772750576775186,0.023578283988025465,True
50850,44408,0,44409,5246.0,45679.0,30827.0,-0.000732,0.0015249999999999999,-0.000732,0.7875000000000001,-0.7000000000000001,-4.7075000000000005,0.93040625,0.05028125,0.546875,1.221375,0.9176875,-0.37853125,-0.0170625,1.20428125,0.017589759432287373,0.023480702521384535,True
50851,44409,0,44410,5246.0,45681.0,30825.0,-0.002196,0.0,0.001586,0.5075000000000001,-1.2425000000000002,-4.6025,0.935125,0.05034375,0.546875,1.2134375,0.9096875,-0.38140625,-0.0206875,1.21309375,0.017708166443434738,0.023628070595398235,True
50852,44410,0,44411,5246.0,45676.0,30824.0,0.001037,-0.002074,0.00042699999999999997,0.07,-1.61,-4.567500000000001,0.9452812500000001,0.0485,0.5446562500000001,1.22125,0.91253125,-0.3774375,-0.014906250000000001,1.201625,0.017472611713187654,0.023300632289580563,True
50853,44411,0,44412,5246.0,45679.0,30826.0,0.001647,-0.003294,-6.1e-05,-0.31500000000000006,-1.7675,-4.357500000000001,0.94153125,0.05084375,0.546125,1.2338437500000001,0.90696875,-0.384625,-0.018000000000000002,1.208625,0.017858332863433413,0.02348759263885419,True
50854,44412,0,44413,5245.0,45678.0,30827.0,0.000305,-0.004941,0.000244,-0.385,-1.8375000000000001,-4.095000000000001,0.9458125000000001,0.051500000000000004,0.54703125,1.2191875,0.90253125,-0.3786875,-0.01596875,1.1966875000000001,0.017646048418316202,0.023442735367483352,True
50855,44413,0,44414,5247.0,45678.0,30824.0,-0.000244,-0.005124,0.0015249999999999999,-0.24500000000000002,-1.8375000000000001,-3.9375000000000004,0.93825,0.03621875,0.538,1.2225625,0.92021875,-0.3805,-0.01575,1.2015625,0.01709229712270052,0.02305778499526353,True
50856,44414,0,44415,5246.0,45677.0,30825.0,0.000244,0.0011589999999999999,0.003111,0.6300000000000001,-1.4875,-3.7975000000000003,0.93175,0.05396875,0.54625,1.24171875,0.9011250000000001,-0.378375,-0.0173125,1.2158125,0.017734723910022718,0.023464844370076794,True
50857,44415,0,44416,5246.0,45678.0,30824.0,-0.001037,0.00488,0.001403,1.0850000000000002,-1.4000000000000001,-3.7450000000000006,0.9599375,0.0530625,0.5524375,1.2099375,0.9178125,-0.378,-0.01528125,1.199375,0.017682439084420378,0.02363989595166619,True
50858,44416,0,44417,5247.0,45675.0,30825.0,-0.00183,0.005429,-0.002562,1.2775,-1.435,-3.5175000000000005,0.9376875,0.0384375,0.54628125,1.2100312500000001,0.91525,-0.38525,-0.0150625,1.2019375,0.01737474497903446,0.023374652887120324,True
50859,44417,0,44418,5248.0,45676.0,30826.0,-0.0011589999999999999,0.004758,-0.003538,1.0325000000000002,-1.6275000000000002,-3.5000000000000004,0.92971875,0.04596875,0.53890625,1.2141875,0.90821875,-0.3851875,-0.0169375,1.20121875,0.017681071757188662,0.023143822979095483,True
50860,44418,0,44419,5247.0,45678.0,30827.0,0.002013,0.0025009999999999998,-0.0032329999999999998,0.6475000000000001,-1.5750000000000002,-3.6225000000000005,0.93190625,0.04303125,0.55234375,1.21334375,0.9091250000000001,-0.383625,-0.0145625,1.20290625,0.01749765467603771,0.023606769850585452,True
50861,44419,0,44420,5248.0,45677.0,30828.0,0.002196,0.000122,0.000488,0.15750000000000003,-1.4875,-3.8150000000000004,0.956875,0.047093750000000004,0.5503750000000001,1.2222187500000001,0.91359375,-0.37846875,-0.01265625,1.21284375,0.017456490166143025,0.023447270645037453,True
50862,44420,0,44421,5248.0,45677.0,30826.0,0.000122,-0.0015249999999999999,0.002013,0.15750000000000003,-1.1725,-3.7625,0.9546875,0.05403125,0.5483750000000001,1.24228125,0.9156562500000001,-0.37815625,-0.01665625,1.21171875,0.017728473620723474,0.023526641016065677,True
