frame_seq,absolute_seq_u64,segment_id,sample_seq,PPG_G,PPG_R,PPG_IR,ACC_X,ACC_Y,ACC_Z,GYRO_X,GYRO_Y,GYRO_Z,Uh1,Uh2,Uh3,Uh4,Uc1,Uc2,Uc3,Uc4,UD1,UD2,parser_valid
21377,49571,0,49572,4426.0,43911.0,28120.0,-0.0064659999999999995,-0.00061,0.0021349999999999997,0.385,-0.7000000000000001,-4.0075,0.89525,-0.00478125,0.113,1.1358125000000001,0.87009375,-0.4210625,-0.4050625,1.1260937500000001,0.017045992573009466,0.02122766536656073,True
21378,49572,0,49573,4426.0,43913.0,28121.0,0.0008539999999999999,-0.002074,0.001647,0.35000000000000003,-1.4525000000000001,-4.3925,0.89771875,-0.0022500000000000003,0.10734375,1.13940625,0.87625,-0.42309375,-0.4055625,1.12503125,0.017231385765777523,0.021015956915559724,True
21379,49573,0,49574,4426.0,43914.0,28126.0,0.007686,0.0011589999999999999,-0.002379,0.15750000000000003,-2.5900000000000003,-4.8825,0.9066875,-0.0060625,0.110875,1.1346875,0.8735,-0.42159375,-0.404875,1.11965625,0.01701491124018063,0.021133072797955323,True
21380,49574,0,49575,4428.0,43911.0,28124.0,0.007869,0.00183,-0.002623,0.17500000000000002,-2.765,-5.005000000000001,0.89790625,-0.0049375,0.10765625000000001,1.1411875,0.8593125,-0.41981250000000003,-0.4059375,1.12640625,0.01698927868508409,0.021043803377764122,True
21381,49575,0,49576,4428.0,43912.0,28128.0,0.006161,0.0025009999999999998,-0.0008539999999999999,0.17500000000000002,-2.9575000000000005,-5.022500000000001,0.90496875,-0.00615625,0.108375,1.13096875,0.875125,-0.4211875,-0.40525,1.12215625,0.016994720260839077,0.02104567664744266,True
21382,49576,0,49577,4429.0,43912.0,28127.0,0.005795,0.00122,0.001403,0.15750000000000003,-2.6775,-4.795000000000001,0.89971875,-0.00803125,0.10834375,1.13490625,0.8786875000000001,-0.42121875000000003,-0.405125,1.12584375,0.01691920064390726,0.021039382096998068,True
21383,49577,0,49578,4430.0,43913.0,28129.0,0.004392,0.000976,0.00122,0.1925,-2.6950000000000003,-4.4625,0.9043125,-0.005625,0.111875,1.1401875000000001,0.86675,-0.42131250000000003,-0.40871875,1.11584375,0.01702150529378796,0.02132818831385814,True
21384,49578,0,49579,4430.0,43913.0,28128.0,0.0032329999999999998,-0.000488,0.0013419999999999999,0.2625,-2.31,-3.8325000000000005,0.90565625,0.0035,0.10859375,1.1361875000000001,0.8749375,-0.421,-0.40534375,1.12640625,0.017382580565906393,0.021058400375942258,True
21385,49579,0,49580,4432.0,43915.0,28131.0,0.001281,-0.0008539999999999999,0.0006709999999999999,0.3325,-2.0475000000000003,-3.4650000000000003,0.9042187500000001,-0.00578125,0.1095,1.1350625,0.8755625,-0.41559375,-0.40015625,1.1194375,0.016784867253125883,0.02088741747299262,True
21386,49580,0,49581,4433.0,43915.0,28131.0,0.000244,-0.000915,-0.001098,0.36750000000000005,-1.715,-3.2550000000000003,0.8985,-0.0058125,0.1061875,1.14203125,0.8716875000000001,-0.42240625,-0.40796875,1.11884375,0.017057850309078366,0.02106509784842297,True
21387,49581,0,49582,4433.0,43917.0,28131.0,-0.0046359999999999995,-0.000793,-0.002806,0.5425000000000001,-1.5225000000000002,-3.1500000000000004,0.90515625,-0.0046875,0.10915625,1.13603125,0.870375,-0.42190625,-0.405625,1.1193125,0.017083791319524862,0.021092729647366127,True
21388,49582,0,49583,4434.0,43915.0,28133.0,-0.006344,-0.000793,-0.0018909999999999999,0.56,-1.2775,-3.0625000000000004,0.8981875,-0.0049375,0.1075,1.1420000000000001,0.87334375,-0.424375,-0.40950000000000003,1.12459375,0.017172906164436143,0.02118027817038448,True
21389,49583,0,49584,4434.0,43914.0,28129.0,-0.005246,-0.000549,0.000915,0.56,-1.7500000000000002,-3.115,0.89884375,-0.00853125,0.10796875,1.14003125,0.87503125,-0.42096875,-0.40490625,1.1185,0.016888662535142058,0.021015241556193234,True
21390,49584,0,49585,4435.0,43917.0,28132.0,-0.002806,0.000549,0.0017079999999999999,0.5075000000000001,-2.0825,-3.22,0.902375,-0.00453125,0.1088125,1.13365625,0.8703125,-0.421,-0.40428125,1.11359375,0.017053714016625036,0.021024743353177017,True
21391,49585,0,49586,4438.0,43918.0,28131.0,-0.001952,0.002257,0.0030499999999999998,0.43750000000000006,-2.3625000000000003,-3.325,0.89796875,-0.00525,0.11584375000000001,1.13509375,0.875,-0.42478125,-0.40134375,1.1273125,0.01717645884750759,0.02119504176895996,True
21392,49586,0,49587,4436.0,43918.0,28130.0,6.1e-05,0.002623,0.001647,0.47250000000000003,-2.66,-3.4825000000000004,0.901,-0.006125,0.10771875,1.13534375,0.8765625,-0.41781250000000003,-0.40484375,1.1078125,0.016860130283988382,0.021002490540428066,True
21393,49587,0,49588,4439.0,43919.0,28133.0,0.00183,0.000793,-6.1e-05,0.2625,-3.0275000000000003,-3.5700000000000003,0.898,-0.00634375,0.1085625,1.135375,0.87725,-0.42296875,-0.405375,1.11990625,0.017058736972752342,0.02105837341159478,True
21394,49588,0,49589,4440.0,43918.0,28132.0,0.007686,-0.000976,-0.002074,0.17500000000000002,-3.3600000000000003,-3.3950000000000005,0.89846875,0.00021875,0.1058125,1.1390625,0.87153125,-0.42228125,-0.40459375000000003,1.119375,0.017299776203338908,0.020914351422055534,True
21395,49589,0,49590,4439.0,43918.0,28134.0,0.007076,-0.002196,-0.001464,0.14,-3.1850000000000005,-3.2725000000000004,0.90109375,-0.00459375,0.1091875,1.13571875,0.8715625,-0.42131250000000003,-0.40503125,1.119375,0.017063732753921396,0.02107019428627038,True
21396,49590,0,49591,4441.0,43916.0,28134.0,0.006405,-0.002196,-0.0006709999999999999,0.22750000000000004,-2.8175000000000003,-3.0975,0.89875,-0.0048125,0.10740625000000001,1.1389375,0.88103125,-0.42403125,-0.40128125000000003,1.11928125,0.01716419151731965,0.020846753692493097,True
21397,49591,0,49592,4444.0,43918.0,28135.0,0.005124,-0.002806,-0.0006709999999999999,0.385,-2.3975000000000004,-3.0100000000000002,0.8999375000000001,-0.00453125,0.1083125,1.13478125,0.864125,-0.42121875000000003,-0.40750000000000003,1.131625,0.017062518634537845,0.021133360647342007,True
21398,49592,0,49593,4444.0,43918.0,28138.0,0.000915,-0.0017079999999999999,-0.002928,0.36750000000000005,-2.1875,-2.8175000000000003,0.90346875,-0.00675,0.1066875,1.13553125,0.8776875000000001,-0.419625,-0.39971875,1.11721875,0.01690750779342435,0.020754593738913488,True
21399,49593,0,49594,4445.0,43922.0,28138.0,-0.00488,0.0021349999999999997,0.002257,0.805,-1.6450000000000002,-2.3975000000000004,0.898625,-0.0045000000000000005,0.10934375,1.13559375,0.8758750000000001,-0.4265625,-0.405875,1.11696875,0.01727883323738246,0.021110439597023255,True
21400,49594,0,49595,4445.0,43921.0,28138.0,-0.00549,0.000183,0.003111,0.665,-1.5925000000000002,-2.0125,0.8979375,-0.00375,0.11378125,1.13459375,0.8671562500000001,-0.4200625,-0.404375,1.12303125,0.017047970290821328,0.02123210489922401,True
21401,49595,0,49596,4448.0,43921.0,28136.0,-0.002379,0.0006709999999999999,0.0034159999999999998,0.5950000000000001,-1.61,-1.9600000000000002,0.9219375,-0.00778125,0.11340625,1.1284687500000001,0.878,-0.41996875,-0.400125,1.11684375,0.016879116604111132,0.021046254885989314,True
21402,49596,0,49597,4449.0,43922.0,28136.0,-0.0015249999999999999,0.00122,-0.001281,0.665,-1.4875,-1.9775000000000003,0.8912187500000001,-0.006125,0.10253125,1.154125,0.8711875,-0.42462500000000003,-0.40790625,1.1305,0.0171343469961156,0.020912793369976174,True
21403,49597,0,49598,4450.0,43924.0,28135.0,-0.0018909999999999999,0.001586,0.000244,0.6825000000000001,-1.3475000000000001,-1.9775000000000003,0.9165625000000001,-0.008906250000000001,0.11709375,1.11590625,0.87465625,-0.4201875,-0.404375,1.11740625,0.016841854715488977,0.021367838758419338,True
21404,49598,0,49599,4450.0,43926.0,28136.0,-0.0032329999999999998,0.000549,-0.0008539999999999999,0.8225000000000001,-0.9800000000000001,-2.1175,0.88075,-0.00715625,0.09634375,1.15340625,0.867125,-0.42284375,-0.40828125,1.1239375,0.017020438088828214,0.02067433568268966,True
21405,49599,0,49600,4451.0,43924.0,28134.0,-0.0046359999999999995,-0.000976,-0.000305,0.6300000000000001,-0.805,-2.4675000000000002,0.8938125,-0.00128125,0.11296875,1.1246875,0.86709375,-0.42090625,-0.40471875,1.12059375,0.017183023254921177,0.021212598485692447,True
21406,49600,0,49601,4452.0,43924.0,28135.0,-0.005246,-0.002196,0.0025009999999999998,0.525,-0.6300000000000001,-2.5900000000000003,0.9170625,-0.0118125,0.10903125,1.14075,0.88196875,-0.42521875000000003,-0.40459375000000003,1.11759375,0.01692538577571593,0.02104624257472018,True
21407,49601,0,49602,4453.0,43924.0,28135.0,-0.003294,-0.0021349999999999997,0.0021349999999999997,0.525,-0.7000000000000001,-2.87,0.8863125000000001,0.0064687500000000005,0.10878125,1.1548125,0.867125,-0.421125,-0.4064375,1.126875,0.01750917494587166,0.021109953060539872,True
21408,49602,0,49603,4457.0,43922.0,28134.0,-0.000976,-0.0011589999999999999,-6.1e-05,0.42000000000000004,-0.8750000000000001,-3.1850000000000005,0.9173125,-0.00975,0.1154375,1.1235625,0.8647812500000001,-0.42028125,-0.404125,1.11696875,0.016811077882241836,0.02128994585956268,True
21409,49603,0,49604,4456.0,43925.0,28134.0,0.002928,0.001037,-0.0021349999999999997,0.4025,-1.4700000000000002,-3.6400000000000006,0.88590625,-0.0031875000000000002,0.10515625,1.1524375,0.8679687500000001,-0.423,-0.40750000000000003,1.12528125,0.017189227367645252,0.021004045887534573,True
21410,49604,0,49605,4456.0,43926.0,28136.0,0.0042699999999999995,0.000244,-0.0018909999999999999,0.29750000000000004,-1.6800000000000002,-3.7800000000000002,0.9168125,-0.01425,0.105,1.14721875,0.87528125,-0.42131250000000003,-0.4020625,1.11946875,0.016668330172671927,0.02077949353666314,True
21411,49605,0,49606,4457.0,43925.0,28137.0,0.0050019999999999995,-0.000366,-0.001037,0.28,-1.8375000000000001,-3.6925000000000003,0.9059375000000001,-0.00565625,0.1154375,1.1244687500000001,0.8706875000000001,-0.42128125,-0.40528125,1.1190625,0.017018967831591555,0.021336314245507824,True
21412,49606,0,49607,4457.0,43923.0,28137.0,0.003172,0.000183,0.001586,0.385,-1.9775000000000003,-3.6050000000000004,0.88490625,-0.0008125000000000001,0.1131875,1.12475,0.8718125,-0.42184375,-0.40565625,1.1195,0.01723994528463888,0.02125915995395535,True
21413,49607,0,49608,4460.0,43925.0,28137.0,0.002623,0.000915,0.003172,0.35000000000000003,-1.8900000000000001,-3.5700000000000003,0.88465625,-0.0027187500000000002,0.110875,1.1293125,0.8734375,-0.4224375,-0.4083125,1.12540625,0.017185784588454777,0.02127092972936986,True
21414,49608,0,49609,4461.0,43923.0,28137.0,0.000793,0.0006709999999999999,-0.00061,0.36750000000000005,-1.9075000000000002,-3.3075,0.8931875,-0.00303125,0.108625,1.13434375,0.8785625,-0.42540625,-0.40825,1.12653125,0.0172924452382445,0.021176241639609558,True
21415,49609,0,49610,4461.0,43924.0,28134.0,0.000183,-0.000244,-0.00122,0.385,-1.9775000000000003,-3.2550000000000003,0.898625,-0.00525,0.10534375,1.140125,0.8773125,-0.42328125,-0.40325,1.11971875,0.01711609696178723,0.020841230164015036,True
21416,49610,0,49611,4458.0,43922.0,28131.0,0.0025009999999999998,-0.0026839999999999998,-0.000732,0.28,-2.1,-3.0625000000000004,0.90478125,-0.0086875,0.10959375,1.13496875,0.8709375,-0.42078125,-0.40575,1.1143750000000001,0.016874716078135295,0.02111566946313881,True
21417,49611,0,49612,4457.0,43920.0,28128.0,0.0040869999999999995,-0.002623,-0.000305,0.22750000000000004,-2.205,-3.0975,0.8984062500000001,-0.0050625,0.1076875,1.13440625,0.876375,-0.42390625,-0.40790625,1.12559375,0.01714892555321694,0.021124046639600644,True
21418,49612,0,49613,4455.0,43919.0,28126.0,0.0055509999999999995,-0.002257,0.000244,0.35000000000000003,-2.2225,-2.9575000000000005,0.90253125,-0.00503125,0.1055625,1.1414375,0.87646875,-0.42281250000000004,-0.404875,1.119625,0.017106189141811577,0.020915390879895922,True
21419,49613,0,49614,4453.0,43918.0,28121.0,-0.004392,0.0025009999999999998,0.0023179999999999997,0.7350000000000001,-1.12,-2.7125000000000004,0.90359375,-0.0074375000000000005,0.10771875,1.1338125000000001,0.87021875,-0.4214375,-0.4049375,1.1189375,0.01695231904346335,0.021006251296484577,True
21420,49614,0,49615,4449.0,43918.0,28116.0,-0.011285,0.002074,0.0021349999999999997,0.805,-0.6125,-2.4850000000000003,0.9003125000000001,-0.00396875,0.1089375,1.13596875,0.87071875,-0.42090625,-0.3995625,1.10784375,0.017072974103899193,0.020840537612098576,True
21421,49615,0,49616,4448.0,43920.0,28114.0,-0.012199999999999999,-0.001037,0.000549,0.7525000000000001,-0.665,-2.6250000000000004,0.89753125,-0.00496875,0.108625,1.13584375,0.87834375,-0.42253125,-0.405375,1.1280937500000001,0.017097429243743932,0.02106093432286945,True
21422,49616,0,49617,4444.0,43917.0,28111.0,-0.008052,-0.002196,-0.000488,0.5950000000000001,-1.0150000000000001,-2.87,0.9056875,-0.0073437500000000005,0.1061875,1.135,0.86571875,-0.4215,-0.4049375,1.11909375,0.016958673709641093,0.020943507845492332,True
21423,49617,0,49618,4441.0,43916.0,28107.0,-0.003721,0.000122,-0.001403,0.525,-1.5225000000000002,-3.2550000000000003,0.8986875,-0.00490625,0.1084375,1.13403125,0.870625,-0.42490625,-0.406125,1.127125,0.017195562418995978,0.021083334613749623,True
21424,49618,0,49619,4438.0,43915.0,28106.0,0.00915,0.00183,-0.0011589999999999999,0.1925,-1.8375000000000001,-3.7100000000000004,0.9011875,-0.008906250000000001,0.10625,1.14178125,0.87715625,-0.42159375,-0.40021875,1.11959375,0.01689846716085022,0.020756729896120298,True
21425,49619,0,49620,4436.0,43915.0,28107.0,0.008601,-0.0046359999999999995,-0.000366,-0.15750000000000003,-1.3125000000000002,-3.8675,0.9065625,-0.0044687500000000005,0.10784375,1.13603125,0.87071875,-0.42131250000000003,-0.40528125,1.12390625,0.01706885123393757,0.02102516233038699,True
21426,49620,0,49621,4435.0,43914.0,28107.0,-0.001403,0.0025009999999999998,-0.00488,0.3325,-1.9075000000000002,-4.095000000000001,0.8844375,-0.0061875,0.10521875,1.14096875,0.86571875,-0.4220625,-0.405,1.11953125,0.01702866004867525,0.020906320426142187,True
21427,49621,0,49622,4431.0,43911.0,28107.0,-0.003843,0.0057339999999999995,0.002623,0.6475000000000001,-1.2075,-4.4275,0.90496875,-0.0069375,0.10934375,1.13509375,0.87003125,-0.421375,-0.404875,1.1171875,0.016970277062614204,0.02107032918627938,True
21428,49622,0,49623,4430.0,43911.0,28104.0,0.0048189999999999995,-0.006405,0.002196,0.36750000000000005,-1.54,-4.375,0.89765625,-0.00509375,0.11371875000000001,1.135875,0.8709687500000001,-0.4235625,-0.4089375,1.118,0.017133812890727962,0.021412494910931706,True
21429,49623,0,49624,4430.0,43910.0,28103.0,0.0070149999999999995,-0.006405,-0.000976,-0.08750000000000001,-1.8900000000000001,-4.48,0.8979375,-0.0048125,0.108125,1.13671875,0.87703125,-0.42290625,-0.40853125,1.127,0.01711891884283837,0.021167035603586352,True
21430,49624,0,49625,4428.0,43911.0,28103.0,0.0057339999999999995,0.000122,-0.0026839999999999998,0.15750000000000003,-1.33,-4.550000000000001,0.9072187500000001,-0.008125,0.10678125000000001,1.13784375,0.8709375,-0.4211875,-0.40465625,1.1134375,0.016914103787950524,0.020956554141179515,True
21431,49625,0,49626,4426.0,43909.0,28106.0,0.004758,0.003172,0.0011589999999999999,0.47250000000000003,-0.47250000000000003,-4.357500000000001,0.89184375,-0.00525,0.10846875,1.13528125,0.87046875,-0.422,-0.404,1.12496875,0.01706453197936287,0.020999375102442226,True
21432,49626,0,49627,4423.0,43907.0,28101.0,-0.008357,0.003843,-0.005307,0.56,-0.525,-4.340000000000001,0.89846875,-0.00584375,0.10415625,1.13965625,0.8746875000000001,-0.42234375,-0.40471875,1.11940625,0.017054055264454297,0.02085150028618953,True
21433,49627,0,49628,4422.0,43908.0,28102.0,-0.009455,-0.000122,0.00061,0.56,-0.6300000000000001,-4.550000000000001,0.9052187500000001,-0.007,0.10840625,1.13615625,0.8696875000000001,-0.4210625,-0.40509375000000003,1.11915625,0.01695513862265411,0.021040689507697552,True
21434,49628,0,49629,4424.0,43907.0,28101.0,-0.005063,-0.002928,0.001403,0.21000000000000002,-1.2075,-4.515000000000001,0.89825,-0.005125,0.10865625,1.14109375,0.87546875,-0.42384375,-0.40728125,1.12059375,0.017143851487340114,0.021138671477389556,True
21435,49629,0,49630,4420.0,43907.0,28099.0,0.0,-0.001037,6.1e-05,0.1925,-1.9250000000000003,-4.742500000000001,0.89003125,-0.00421875,0.1086875,1.1349375,0.871375,-0.42178125,-0.40634375,1.12415625,0.01709795431076511,0.021102351719519644,True
21436,49630,0,49631,4419.0,43906.0,28099.0,0.006527,0.000488,-0.0015249999999999999,0.15750000000000003,-2.415,-4.9175,0.89796875,-0.00715625,0.10625,1.1365,0.87896875,-0.42440625,-0.3994375,1.1105,0.01708332213807654,0.020725375328836983,True
21437,49631,0,49632,4418.0,43903.0,28102.0,0.009699,0.00366,-0.00042699999999999997,0.052500000000000005,-2.5900000000000003,-4.952500000000001,0.8980312500000001,-0.00484375,0.1146875,1.127625,0.87075,-0.4251875,-0.4099375,1.12525,0.01720943800329066,0.02149227133416462,True
21438,49632,0,49633,4418.0,43905.0,28102.0,0.0050019999999999995,0.000244,0.001586,0.12250000000000001,-2.1700000000000004,-4.655,0.9041250000000001,-0.00846875,0.10628125000000001,1.13928125,0.85553125,-0.42028125,-0.404125,1.118125,0.01686354451794039,0.020914753141118562,True
21439,49633,0,49634,4417.0,43905.0,28105.0,0.000122,-0.002623,0.00042699999999999997,0.17500000000000002,-1.7325000000000002,-4.532500000000001,0.8980312500000001,-0.00478125,0.10809375,1.13515625,0.88071875,-0.42915625,-0.41034375,1.13290625,0.01737166014483206,0.021238435038425055,True
21440,49634,0,49635,4419.0,43906.0,28103.0,-0.0028669999999999998,-0.0018909999999999999,-0.0015249999999999999,0.15750000000000003,-1.5225000000000002,-4.515000000000001,0.89775,-0.006625,0.10559375,1.1421875000000001,0.87090625,-0.41740625000000003,-0.4018125,1.1134375,0.016823295881396087,0.020793793493823466,True
21441,49635,0,49636,4417.0,43905.0,28105.0,-0.003538,-0.0008539999999999999,-0.000976,0.2625,-1.5750000000000002,-4.357500000000001,0.89446875,-0.00421875,0.10909375,1.13490625,0.87371875,-0.42890625,-0.40940625,1.1339375,0.017384630144871918,0.02124181123823936,True
21442,49636,0,49637,4418.0,43904.0,28102.0,-0.0011589999999999999,-6.1e-05,-0.000793,0.31500000000000006,-1.7675,-4.165,0.8981250000000001,-0.005125,0.10553125000000001,1.14078125,0.88253125,-0.42125,-0.40084375,1.11390625,0.017039463581921484,0.020752356155716953,True
21443,49637,0,49638,4419.0,43904.0,28103.0,0.004026,-6.1e-05,0.001586,0.21000000000000002,-1.8025000000000002,-3.8850000000000002,0.9026875,-0.0005625000000000001,0.10684375,1.14078125,0.863125,-0.41978125,-0.40390625,1.11409375,0.017167178760047246,0.020929026475013608,True
21444,49638,0,49639,4417.0,43906.0,28106.0,0.001647,-0.000183,0.000488,0.31500000000000006,-1.4700000000000002,-3.7450000000000006,0.9001250000000001,-0.0045000000000000005,0.10915625,1.13146875,0.868125,-0.42446875,-0.41171875,1.1321875000000001,0.017194590977541734,0.021337088360482606,True
21445,49639,0,49640,4416.0,43906.0,28103.0,-0.001281,-6.1e-05,0.000976,0.47250000000000003,-1.05,-3.6400000000000006,0.89728125,-0.005,0.10996875,1.1359062500000001,0.8888125,-0.4278125,-0.412375,1.13528125,0.01730865176732464,0.021396678938448224,True
21446,49640,0,49641,4417.0,43904.0,28102.0,-0.004026,-0.000793,-0.00244,0.42000000000000004,-0.8400000000000001,-3.7975000000000003,0.88703125,-0.0054375000000000005,0.1044375,1.14240625,0.88446875,-0.41450000000000004,-0.4015,1.1138125,0.016754899752196444,0.020733868819539786,True
21447,49641,0,49642,4415.0,43903.0,28103.0,-0.003477,-0.000732,-0.003294,0.4025,-0.665,-3.7275000000000005,0.9026875,-0.00490625,0.1083125,1.13446875,0.862125,-0.42978125,-0.4101875,1.1282812500000001,0.017391682539114016,0.021241131392374598,True
21448,49642,0,49643,4416.0,43905.0,28102.0,-0.002562,0.000244,0.0008539999999999999,0.36750000000000005,-0.7000000000000001,-3.7625,0.88875,-0.00475,0.10865625,1.1349375,0.8785625,-0.4264375,-0.4100625,1.131125,0.01726356944192128,0.021250201633035558,True
21449,49643,0,49644,4416.0,43905.0,28104.0,-0.001037,0.000183,0.00183,0.35000000000000003,-0.8575,-3.8675,0.8985625,-0.00528125,0.107125,1.14003125,0.8723125,-0.42271875000000003,-0.40659375000000003,1.11775,0.01709217979673127,0.02104835911402016,True
21450,49644,0,49645,4415.0,43902.0,28102.0,-6.1e-05,-0.000244,0.002074,0.29750000000000004,-0.8750000000000001,-3.9375000000000004,0.90465625,-0.00709375,0.1050625,1.14278125,0.86646875,-0.41796875,-0.40271875,1.1158125,0.01682674772036474,0.020808388409590636,True
21451,49645,0,49646,4416.0,43906.0,28101.0,0.00042699999999999997,-0.00061,0.0015249999999999999,0.4025,-0.9275000000000001,-4.025,0.9058437500000001,-0.0076875,0.10475,1.1418125000000001,0.86875,-0.419625,-0.40325,1.1193125,0.016869116540487415,0.020816899388401134,True
21452,49646,0,49647,4414.0,43905.0,28102.0,0.002745,0.001037,0.000793,0.385,-0.9450000000000001,-3.9200000000000004,0.90453125,-0.007625,0.10796875,1.1394375,0.8704375,-0.42065625,-0.405,1.11953125,0.01691319208508166,0.021019002253636548,True
21453,49647,0,49648,4416.0,43907.0,28102.0,0.0025009999999999998,-0.001403,-0.00122,0.24500000000000002,-0.9100000000000001,-3.9025000000000003,0.89825,-0.0045625,0.10965625,1.13575,0.86859375,-0.42131250000000003,-0.40521875,1.11984375,0.01706501237392544,0.02109692214907928,True
21454,49648,0,49649,4416.0,43907.0,28103.0,6.1e-05,-0.0008539999999999999,-0.000915,0.31500000000000006,-0.665,-3.7975000000000003,0.8995,-0.006875,0.10790625000000001,1.139875,0.87003125,-0.42065625,-0.40540625,1.118875,0.01694390379046427,0.021032737367360974,True
21455,49649,0,49650,4416.0,43907.0,28102.0,-0.002745,0.000366,-0.0015249999999999999,0.35000000000000003,-0.5775,-3.7450000000000006,0.8910625,-0.0069375,0.1066875,1.1315625,0.87040625,-0.42109375,-0.40525,1.11984375,0.016958955820723633,0.02097653168887842,True
21456,49650,0,49651,4416.0,43908.0,28104.0,-0.0035989999999999998,0.001281,0.00061,0.42000000000000004,-0.525,-3.6925000000000003,0.904875,-0.00678125,0.10603125000000001,1.141375,0.87075,-0.42125,-0.4045,1.11925,0.016971643548139428,0.020919553770820956,True
21457,49651,0,49652,4416.0,43908.0,28105.0,-0.003355,0.0032329999999999998,0.000915,0.6300000000000001,-0.5950000000000001,-3.7450000000000006,0.89315625,-0.00471875,0.1088125,1.134875,0.8651562500000001,-0.42109375,-0.4055625,1.118625,0.01704980965481941,0.02107613786816018,True
21458,49652,0,49653,4418.0,43909.0,28102.0,-0.002074,0.001281,0.001769,0.45500000000000007,-0.9975,-3.9725000000000006,0.899625,-0.00478125,0.109,1.1403125,0.87103125,-0.42140625,-0.40625,1.1191875,0.01705982840361619,0.021111395646606912,True
21459,49653,0,49654,4418.0,43909.0,28103.0,-0.0018909999999999999,-0.001037,0.00061,0.36750000000000005,-1.2425000000000002,-3.9550000000000005,0.90315625,-0.00621875,0.1061875,1.14084375,0.86990625,-0.42081250000000003,-0.405125,1.11896875,0.01697706618074235,0.02095102975297197,True
21460,49654,0,49655,4421.0,43908.0,28105.0,-0.000732,-0.002562,-0.001098,0.24500000000000002,-1.4525000000000001,-4.1475,0.903375,-0.008,0.107,1.1440937500000001,0.86759375,-0.4215625,-0.4048125,1.11975,0.016934317777578728,0.020971785790200193,True
21461,49655,0,49656,4419.0,43907.0,28107.0,-0.0008539999999999999,-0.0025009999999999998,-0.000793,0.28,-1.7675,-4.322500000000001,0.9072187500000001,-0.00996875,0.1043125,1.1408125,0.8718125,-0.4204375,-0.404625,1.1193125,0.016808410987722885,0.020854141376890654,True
21462,49656,0,49657,4421.0,43907.0,28106.0,0.000183,-0.001586,-0.0015249999999999999,0.29750000000000004,-1.9600000000000002,-4.4275,0.9049375000000001,-0.0098125,0.10290625,1.14015625,0.87021875,-0.4216875,-0.40478125,1.122875,0.01686513268176083,0.020802788388033594,True
21463,49657,0,49658,4422.0,43910.0,28107.0,0.006527,-0.0015249999999999999,-0.001281,0.07,-2.8000000000000003,-4.4275,0.90753125,0.0005625000000000001,0.10725,1.13290625,0.8746875000000001,-0.42381250000000004,-0.40800000000000003,1.11621875,0.01737546093592063,0.021109882005899704,True
21464,49658,0,49659,4422.0,43910.0,28111.0,0.007503,-0.00122,-0.000732,0.10500000000000001,-2.7825,-4.357500000000001,0.894375,-0.00490625,0.110125,1.132625,0.877125,-0.423875,-0.40625,1.1166875,0.017154065438019152,0.021157490396927017,True
21465,49659,0,49660,4423.0,43909.0,28111.0,0.006405,0.0,0.001281,0.24500000000000002,-2.45,-4.2,0.89334375,-0.00484375,0.11025,1.142375,0.8707812500000001,-0.421375,-0.40496875,1.11978125,0.01705601138347042,0.021111223508532458,True
21466,49660,0,49661,4425.0,43910.0,28110.0,0.001769,0.001464,0.00122,0.3325,-1.995,-3.9375000000000004,0.909375,-0.0066875,0.10421875,1.137,0.87015625,-0.42075,-0.40468750000000003,1.1181875000000001,0.01695535558899706,0.02085280747807158,True
21467,49661,0,49662,4425.0,43911.0,28113.0,-0.000366,0.000366,0.0018909999999999999,0.385,-1.4700000000000002,-3.9375000000000004,0.90140625,-0.00378125,0.1121875,1.13334375,0.8703125,-0.42134375,-0.405375,1.12403125,0.01709826061475426,0.021206906265525523,True
21468,49662,0,49663,4428.0,43911.0,28112.0,-0.0044529999999999995,0.001769,-0.00122,0.5425000000000001,-1.05,-4.0600000000000005,0.89559375,-0.0044375000000000005,0.10925,1.13265625,0.8786875000000001,-0.4225625,-0.40728125,1.1188125,0.017120439347836656,0.021162998234389583,True
21469,49663,0,49664,4426.0,43910.0,28113.0,-0.0059169999999999995,0.000915,6.1e-05,0.525,-0.9450000000000001,-4.1475,0.896,-0.0034375,0.11078125,1.14621875,0.86259375,-0.4216875,-0.4053125,1.11971875,0.01712617115422511,0.021146779005595605,True
21470,49664,0,49665,4428.0,43912.0,28112.0,-0.003843,0.000549,0.000305,0.4025,-0.9975,-4.340000000000001,0.90978125,-0.00903125,0.10284375,1.13484375,0.8703125,-0.42096875,-0.40540625,1.123875,0.01686818832688609,0.02082530381972232,True
21471,49665,0,49666,4428.0,43910.0,28113.0,-0.002257,0.000366,0.0015249999999999999,0.385,-1.2425000000000002,-4.4625,0.89490625,-0.0039375,0.10890625,1.131125,0.87490625,-0.42315625,-0.407875,1.122,0.017164806452892426,0.021172726015681414,True
21472,49666,0,49667,4429.0,43911.0,28113.0,0.001281,0.000244,-0.000122,0.29750000000000004,-1.4875,-4.655,0.89446875,-0.003625,0.10928125,1.13265625,0.87315625,-0.42359375,-0.40575,1.11971875,0.01719520699119064,0.021102865103510445,True
21473,49667,0,49668,4429.0,43914.0,28114.0,0.0068319999999999995,-0.0006709999999999999,-0.0023179999999999997,0.08750000000000001,-1.5925000000000002,-4.6375,0.895375,-0.00378125,0.10990625,1.13346875,0.87090625,-0.42184375,-0.40509375000000003,1.11928125,0.01711838402864239,0.021102152086590532,True
21474,49668,0,49669,4431.0,43913.0,28118.0,0.0055509999999999995,-0.001281,-0.00061,0.15750000000000003,-1.2075,-4.4975000000000005,0.88765625,-0.00359375,0.10890625,1.13503125,0.87059375,-0.42109375,-0.4055625,1.121125,0.01709587638760037,0.02107997920556021,True
21475,49669,0,49670,4430.0,43912.0,28118.0,0.0023179999999999997,-0.000793,-0.000183,0.28,-0.8400000000000001,-4.445,0.8965625,-0.0050625,0.10853125,1.13803125,0.8698125,-0.42225,-0.4053125,1.11921875,0.017082271289500354,0.02105458596360936,True
21476,49670,0,49671,4433.0,43913.0,28119.0,-0.0023179999999999997,-0.0017079999999999999,0.000976,0.5075000000000001,-0.35000000000000003,-4.2875000000000005,0.906,-0.007625,0.11040625,1.14128125,0.86165625,-0.42071875000000003,-0.405,1.11971875,0.01691570810134325,0.021118879328006556,True
21477,49671,0,49672,4434.0,43914.0,28118.0,-0.004331,-0.001098,0.0023179999999999997,0.47250000000000003,-0.035,-4.1825,0.900625,-0.0056875,0.10846875,1.1359062500000001,0.8705625,-0.421125,-0.400125,1.13153125,0.01701139894251391,0.020843899365269643,True
21478,49672,0,49673,4434.0,43917.0,28122.0,-0.006161,0.001403,0.0,0.525,0.0175,-4.357500000000001,0.89796875,-0.00490625,0.1074375,1.1356875,0.8816875000000001,-0.42562500000000003,-0.4035,1.119875,0.01722448248509506,0.020937058208863484,True
21479,49673,0,49674,4435.0,43916.0,28121.0,-0.003294,0.001586,-0.000366,0.47250000000000003,-0.12250000000000001,-4.4275,0.8923125000000001,-0.00571875,0.10603125000000001,1.1411875,0.88028125,-0.41903125,-0.4019375,1.1128437500000001,0.016925835254009106,0.02081673842497138,True
21480,49674,0,49675,4436.0,43914.0,28123.0,-6.1e-05,0.0028669999999999998,-0.000122,0.4025,-0.385,-4.585000000000001,0.9040312500000001,-0.0078125,0.106875,1.1399375,0.86353125,-0.419875,-0.40203125,1.1030312500000001,0.016874062623170673,0.020855077382133914,True
21481,49675,0,49676,4437.0,43915.0,28122.0,0.002257,0.001403,0.000122,0.31500000000000006,-0.56,-4.7250000000000005,0.9072187500000001,-0.0061875,0.10559375,1.1430625,0.8570625000000001,-0.4175,-0.39925,1.10871875,0.016844988225657827,0.020690953615377525,True
21482,49676,0,49677,4439.0,43916.0,28123.0,0.004392,0.00042699999999999997,0.0,0.22750000000000004,-0.6825000000000001,-4.69,0.89675,-0.0073437500000000005,0.10590625000000001,1.1420625,0.85828125,-0.41803125,-0.39987500000000004,1.10784375,0.016819025899149836,0.020728845946956696,True
21483,49677,0,49678,4439.0,43921.0,28125.0,0.000793,-0.000793,-0.000915,0.29750000000000004,-0.4025,-4.865,0.9028437500000001,-0.0080625,0.10478125,1.1360000000000001,0.8470625,-0.41681250000000003,-0.40068750000000003,1.1087500000000001,0.01674051434846379,0.020715348696629964,True
21484,49678,0,49679,4441.0,43918.0,28125.0,-0.000488,-0.0015249999999999999,-0.000549,0.24500000000000002,-0.24500000000000002,-4.987500000000001,0.887,-0.0048125,0.1076875,1.13596875,0.860375,-0.42615625,-0.40553125,1.1259375,0.01724969519099019,0.02102878829978348,True
21485,49679,0,49680,4442.0,43919.0,28127.0,-0.003477,-0.001769,-0.000122,0.22750000000000004,-0.035,-5.197500000000001,0.8990312500000001,-0.00621875,0.10678125000000001,1.13978125,0.85421875,-0.415875,-0.39887500000000004,1.1024375,0.016778274380909963,0.02072457234196249,True
21486,49680,0,49681,4444.0,43917.0,28127.0,-0.004758,-0.002074,0.000122,0.3325,-0.035,-5.32,0.90609375,-0.0073437500000000005,0.10521875,1.1408125,0.8573437500000001,-0.41753125,-0.400625,1.1094375,0.016798893213252262,0.020730770215926845,True
21487,49681,0,49682,4445.0,43920.0,28127.0,-0.003843,-0.002562,0.0,0.22750000000000004,-0.07,-5.390000000000001,0.906,-0.008843750000000001,0.1056875,1.1416875,0.8583125,-0.41715625,-0.39909375,1.10390625,0.016722360942421376,0.020688524548170977,True
21488,49682,0,49683,4445.0,43922.0,28130.0,0.000122,0.0008539999999999999,-0.000183,0.24500000000000002,-0.42000000000000004,-5.7225,0.89403125,-0.00790625,0.11118750000000001,1.1415625,0.85353125,-0.4165,-0.39975,1.107625,0.016734329244568222,0.020940276027418315,True
21489,49683,0,49684,4446.0,43923.0,28132.0,0.002745,0.000793,0.000549,0.28,-0.385,-5.880000000000001,0.90546875,-0.00259375,0.10446875,1.14265625,0.858,-0.41684375,-0.3994375,1.10990625,0.016965747262071902,0.020652371596681277,True
21490,49684,0,49685,4449.0,43922.0,28133.0,0.0026839999999999998,0.000366,-0.001464,0.21000000000000002,-0.43750000000000006,-6.0200000000000005,0.90628125,-0.00665625,0.10684375,1.14325,0.85765625,-0.417375,-0.400125,1.1124687500000001,0.01682075775958718,0.020777301345792285,True
21491,49685,0,49686,4450.0,43924.0,28137.0,0.00549,0.000244,-0.000793,0.17500000000000002,-0.49000000000000005,-5.95,0.9049375000000001,-0.008375,0.10584375,1.14321875,0.85684375,-0.41865625,-0.4014375,1.11540625,0.016801958543480457,0.020788990402717054,True
21492,49686,0,49687,4452.0,43927.0,28142.0,0.0060999999999999995,0.003294,0.000244,0.12250000000000001,-0.385,-5.897500000000001,0.90534375,-0.0078125,0.10553125000000001,1.138875,0.8589687500000001,-0.41896875,-0.40578125,1.120125,0.0168375763206626,0.020950466398202267,True
21493,49687,0,49688,4454.0,43925.0,28143.0,0.001952,0.0046359999999999995,0.000549,0.49000000000000005,0.42000000000000004,-5.670000000000001,0.898625,-0.00471875,0.10875,1.135875,0.87115625,-0.42196875,-0.40475,1.11909375,0.017085027184796476,0.021040985873651642,True
21494,49688,0,49689,4456.0,43928.0,28144.0,-0.0057339999999999995,0.002928,0.00061,0.49000000000000005,0.6300000000000001,-5.460000000000001,0.89784375,-0.00040625000000000004,0.10809375,1.135,0.8701875,-0.42134375,-0.40546875,1.12090625,0.017236459398349037,0.021042927110342842,True
21495,49689,0,49690,4455.0,43927.0,28143.0,-0.022387,0.004514,-0.00549,0.7350000000000001,0.1925,-5.232500000000001,0.8979375,-0.0059375,0.108,1.1358125000000001,0.87534375,-0.4226875,-0.40650000000000003,1.12665625,0.017064051611846567,0.021080449880154877,True
21496,49690,0,49691,4456.0,43930.0,28146.0,0.000549,-0.004026,0.016531,0.31500000000000006,0.8750000000000001,-4.812500000000001,0.89771875,-0.00565625,0.1075625,1.134625,0.87825,-0.42334375,-0.398,1.12509375,0.017101978511848935,0.020721473071563246,True
21497,49691,0,49692,4459.0,43928.0,28143.0,0.015738,-0.009943,0.007076,0.035,-0.5425000000000001,-4.6375,0.8949375,-0.00596875,0.1071875,1.13715625,0.8789375,-0.42228125,-0.4045,1.12034375,0.017046421492668707,0.020966932328054258,True
21498,49692,0,49693,4460.0,43930.0,28148.0,0.0044529999999999995,6.1e-05,-0.012993,0.14,-0.9275000000000001,-4.9175,0.9016875,-0.00425,0.10796875,1.1353125,0.870375,-0.42128125,-0.40521875,1.1206562500000001,0.017076550805457842,0.02102777710197742,True
21499,49693,0,49694,4463.0,43931.0,28151.0,0.008052,0.000732,0.002989,0.28,0.10500000000000001,-4.812500000000001,0.89815625,0.00328125,0.10790625000000001,1.1410625,0.8728750000000001,-0.425375,-0.4025,1.12565625,0.017549628204275268,0.02091614588669194,True
21500,49694,0,49695,4464.0,43933.0,28153.0,-0.002745,0.001098,-0.000366,0.525,0.28,-4.567500000000001,0.9024375,-0.00628125,0.10875,1.1356875,0.87646875,-0.4209375,-0.403375,1.11925,0.016979538561940958,0.020985826755520492,True
21501,49695,0,49696,4464.0,43934.0,28152.0,0.00042699999999999997,-6.1e-05,0.0037819999999999998,0.47250000000000003,0.7875000000000001,-4.6025,0.8975625,-0.00484375,0.10765625000000001,1.1448125,0.8714375,-0.42446875,-0.4081875,1.1270625,0.017180516976443964,0.021134045696756466,True
21502,49696,0,49697,4466.0,43933.0,28153.0,-0.0021349999999999997,0.003721,0.002379,0.5425000000000001,1.225,-4.83,0.9001250000000001,-0.00034375,0.11159375,1.1355625,0.87059375,-0.42078125,-0.4035,1.1191875,0.017216382051659384,0.02110737189337595,True
21503,49697,0,49698,4465.0,43934.0,28150.0,-0.004697,0.004026,0.001403,0.5950000000000001,1.1375000000000002,-4.8825,0.89578125,-0.0043125,0.10796875,1.1299062500000001,0.8698750000000001,-0.421,-0.40603125,1.1258125,0.017062671471274722,0.021060368018663417,True
21504,49698,0,49699,4465.0,43933.0,28148.0,-0.002745,0.0025009999999999998,0.000122,0.5075000000000001,1.4875,-4.8475,0.9041875,-0.0094375,0.09959375000000001,1.14884375,0.88015625,-0.42190625,-0.40903125,1.12571875,0.016889293807685467,0.020837574207292636,True
21505,49699,0,49700,4466.0,43933.0,28144.0,-0.0034159999999999998,0.000183,-0.000366,0.42000000000000004,1.1725,-4.952500000000001,0.91678125,-0.0114375,0.10446875,1.14846875,0.87825,-0.42390625,-0.40468750000000003,1.12275,0.01688791079436771,0.020863051411742106,True
21506,49700,0,49701,4464.0,43930.0,28142.0,-0.0026839999999999998,-0.0015249999999999999,-0.0025009999999999998,0.36750000000000005,1.3125000000000002,-4.952500000000001,0.9129375000000001,-0.01221875,0.10159375,1.14959375,0.87571875,-0.4239375,-0.401375,1.12421875,0.016857181607183528,0.020612311806199442,True
21507,49701,0,49702,4462.0,43933.0,28139.0,0.000244,-0.002623,0.000183,0.22750000000000004,0.9275000000000001,-4.970000000000001,0.91190625,-0.013125,0.10165625,1.14965625,0.873375,-0.42165625,-0.40768750000000004,1.12275,0.01672823684921042,0.020868169096314428,True
21508,49702,0,49703,4460.0,43928.0,28137.0,0.0015249999999999999,-0.002379,-0.001098,0.22750000000000004,0.8575,-5.1625000000000005,0.9100312500000001,-0.008937500000000001,0.11215625,1.1301875000000001,0.8700625000000001,-0.42140625,-0.4044375,1.1201875000000001,0.0168896395964094,0.021168025282287287,True
21509,49703,0,49704,4457.0,43929.0,28136.0,0.003294,-0.0011589999999999999,-0.001037,0.28,0.9625000000000001,-5.1275,0.89190625,-0.00459375,0.10928125,1.1433125,0.87103125,-0.42159375,-0.4093125,1.12496875,0.017075052687746884,0.021245733569923365,True
21510,49704,0,49705,4455.0,43926.0,28133.0,0.0011589999999999999,-0.0008539999999999999,-0.002074,0.43750000000000006,1.0150000000000001,-4.8825,0.9156562500000001,-0.00984375,0.105375,1.13003125,0.87815625,-0.421125,-0.40490625,1.1194375,0.016841208175299053,0.02090896169699484,True
21511,49705,0,49706,4451.0,43929.0,28134.0,0.000122,-0.001464,0.001403,0.45500000000000007,1.0850000000000002,-4.69,0.8914062500000001,-0.00353125,0.1089375,1.15275,0.8701875,-0.42096875,-0.40375,1.125375,0.017093404617701743,0.02100855401321518,True
21512,49706,0,49707,4452.0,43928.0,28133.0,-0.0017079999999999999,0.003294,0.00042699999999999997,0.5775,1.2425000000000002,-4.777500000000001,0.91090625,-0.00275,0.109625,1.146125,0.874625,-0.421375,-0.406,1.1262812500000001,0.01714174570432664,0.021126976972875522,True
21513,49707,0,49708,4451.0,43930.0,28133.0,-0.002013,0.003904,-0.000183,0.7000000000000001,0.9975,-4.48,0.91603125,-0.010125,0.11234375,1.12975,0.877125,-0.42140625,-0.40565625,1.11978125,0.016841014222921745,0.02122458805015743,True
21514,49708,0,49709,4448.0,43929.0,28135.0,-0.001403,0.002745,0.001098,0.77,1.0150000000000001,-4.1475,0.89115625,-0.00609375,0.1026875,1.14575,0.872125,-0.42515625,-0.40684375,1.12315625,0.017157003857447176,0.02087657278504108,True
21515,49709,0,49710,4448.0,43927.0,28132.0,-0.0042699999999999995,0.002257,0.000732,0.6825000000000001,1.2950000000000002,-4.2700000000000005,0.9011875,-0.0061875,0.11115625,1.13103125,0.86659375,-0.421625,-0.40278125000000004,1.1167500000000001,0.017011050656948506,0.02106061168744854,True
21516,49710,0,49711,4447.0,43929.0,28133.0,-0.0037819999999999998,0.001037,0.00183,0.6475000000000001,1.2600000000000002,-4.69,0.893375,-0.00534375,0.10859375,1.132875,0.8707812500000001,-0.42125,-0.4078125,1.12615625,0.017030506218969135,0.02115741629857244,True
21517,49711,0,49712,4445.0,43928.0,28132.0,-0.001403,-0.003477,-0.000793,0.36750000000000005,0.45500000000000007,-4.0600000000000005,0.89771875,-0.00521875,0.1126875,1.13303125,0.8776875000000001,-0.42362500000000003,-0.40846875,1.1259375,0.01713121004764854,0.02135145204469248,True
21518,49712,0,49713,4445.0,43927.0,28134.0,-0.0006709999999999999,-0.002806,-0.001403,0.36750000000000005,0.10500000000000001,-3.9025000000000003,0.89765625,-0.004625,0.10859375,1.13490625,0.8787812500000001,-0.42353125,-0.407125,1.12515625,0.01715174786610761,0.02112984425654394,True
21519,49713,0,49714,4443.0,43927.0,28136.0,0.004209,-0.0015249999999999999,0.0013419999999999999,0.36750000000000005,0.0175,-4.2875000000000005,0.8970312500000001,-0.005125,0.1050625,1.14290625,0.8761875,-0.4246875,-0.407125,1.11878125,0.01717780421960363,0.020985163143958988,True
21520,49714,0,49715,4441.0,43930.0,28135.0,0.0028669999999999998,-0.000793,-0.000183,0.4025,-0.15750000000000003,-4.567500000000001,0.90525,-0.0085,0.10596875,1.1359062500000001,0.8711875,-0.42128125,-0.4049375,1.12,0.016902522262217508,0.020934544495350583,True
21521,49715,0,49716,4441.0,43926.0,28134.0,0.001037,-0.001464,0.000549,0.43750000000000006,-0.035,-4.2175,0.8978125,-0.0048125,0.10734375,1.1356875,0.87053125,-0.42196875,-0.4081875,1.12603125,0.017081188427939497,0.02112124261582307,True
21522,49716,0,49717,4440.0,43926.0,28134.0,-0.001464,0.002257,-0.0013419999999999999,0.49000000000000005,-0.24500000000000002,-3.7975000000000003,0.89790625,-0.00803125,0.106625,1.140875,0.8781875,-0.42231250000000004,-0.407125,1.12553125,0.016963227786066536,0.021049181335368258,True
21523,49717,0,49718,4442.0,43928.0,28138.0,-0.0006709999999999999,0.0034159999999999998,-0.0006709999999999999,0.49000000000000005,-0.56,-3.7625,0.8920625,-0.00753125,0.1049375,1.1409375,0.87734375,-0.422875,-0.40471875,1.11953125,0.0170063413910115,0.02088351253791851,True
21524,49718,0,49719,4440.0,43927.0,28138.0,-0.000183,0.001281,0.00122,0.47250000000000003,-0.7350000000000001,-3.5700000000000003,0.90415625,-0.00490625,0.10853125,1.13515625,0.87034375,-0.41696875,-0.40528125,1.121375,0.01687607107249953,0.021053332462620155,True
21525,49719,0,49720,4441.0,43928.0,28141.0,0.00061,-0.000549,0.0011589999999999999,0.525,-1.1025,-3.2550000000000003,0.8991875,-0.0009375,0.1039375,1.13315625,0.8663125,-0.4165,-0.40671875,1.12075,0.017019740749083613,0.020922773570289946,True
21526,49720,0,49721,4441.0,43930.0,28141.0,0.001037,0.000366,0.000305,0.45500000000000007,-1.4000000000000001,-2.9575000000000005,0.90571875,-0.0061875,0.106875,1.13521875,0.8640625000000001,-0.42053125,-0.40559375000000003,1.11890625,0.016967024417210416,0.020998003787553825,True
21527,49721,0,49722,4441.0,43931.0,28140.0,0.002623,0.0011589999999999999,-0.000244,0.525,-1.6975000000000002,-2.7475,0.89753125,-0.0044375000000000005,0.108625,1.1360000000000001,0.8703125,-0.42175,-0.4074375,1.12625,0.017087739412613757,0.021143657542910844,True
21528,49722,0,49723,4441.0,43930.0,28141.0,0.0021349999999999997,-0.000366,0.000122,0.49000000000000005,-1.5925000000000002,-2.6250000000000004,0.898,-0.00409375,0.10825,1.12875,0.87528125,-0.4226875,-0.40490625,1.1255,0.017139544941563046,0.021026765878274987,True
21529,49723,0,49724,4441.0,43929.0,28140.0,0.000915,-0.002928,0.000366,0.47250000000000003,-1.225,-2.31,0.89796875,-0.00396875,0.1079375,1.13625,0.8688125,-0.42253125,-0.40625,1.12084375,0.017138375040465965,0.02106786171574904,True
21530,49724,0,49725,4440.0,43931.0,28141.0,-0.002989,-0.003172,-0.000549,0.49000000000000005,-0.8575,-2.3800000000000003,0.898,-0.005,0.1083125,1.13465625,0.87184375,-0.42234375,-0.40865625,1.11553125,0.017088603545677306,0.02117973003941993,True
21531,49725,0,49726,4441.0,43930.0,28137.0,-0.0032329999999999998,-0.002989,-6.1e-05,0.525,-0.5950000000000001,-2.415,0.89909375,-0.00515625,0.10775,1.13378125,0.8780625,-0.42284375,-0.40840625,1.1265,0.01710232863443677,0.021146659258016898,True
21532,49726,0,49727,4440.0,43931.0,28138.0,-0.004331,0.000366,0.0,0.6125,-0.1925,-2.7825,0.89759375,-0.00625,0.10428125,1.14146875,0.87765625,-0.424375,-0.40650000000000003,1.1226875,0.01711916886307224,0.020928082682891855,True
21533,49727,0,49728,4440.0,43929.0,28138.0,-0.0053679999999999995,0.0013419999999999999,-0.000244,0.6825000000000001,-0.22750000000000004,-2.9575000000000005,0.906375,-0.00859375,0.10815625,1.135625,0.8725937500000001,-0.4206875,-0.406,1.11971875,0.016874780859465977,0.021066797099073997,True
21534,49728,0,49729,4441.0,43929.0,28137.0,-0.004331,0.002379,-0.0006709999999999999,0.6125,-0.4025,-2.9050000000000002,0.897625,-0.00475,0.10765625000000001,1.13565625,0.8705,-0.4164375,-0.40584375,1.11796875,0.016861079754161516,0.02104004292004861,True
21535,49729,0,49730,4440.0,43931.0,28135.0,-0.001769,0.002379,0.001037,0.525,-0.6825000000000001,-3.0975,0.89828125,-0.0045625,0.10740625000000001,1.13584375,0.8708750000000001,-0.42109375,-0.40584375,1.11975,0.017056207812150097,0.02102979947169415,True
21536,49730,0,49731,4441.0,43929.0,28135.0,0.001769,0.000488,0.001098,0.42000000000000004,-1.1900000000000002,-3.2900000000000005,0.89790625,-0.0049375,0.10884375,1.1360937500000001,0.870375,-0.42121875000000003,-0.40575,1.11946875,0.017045883510625366,0.02108493900003073,True
21537,49731,0,49732,4440.0,43931.0,28136.0,0.003721,-0.0013419999999999999,-0.000183,0.3325,-1.2600000000000002,-3.3600000000000003,0.90140625,-0.006,0.10740625000000001,1.1379375,0.8698750000000001,-0.42075,-0.40540625,1.1201875000000001,0.01698350787752219,0.021012250103396662,True
21538,49732,0,49733,4440.0,43931.0,28137.0,0.003904,-0.00122,-0.000488,0.31500000000000006,-1.155,-3.535,0.90159375,-0.0065625,0.10534375,1.13571875,0.8699375,-0.42084375,-0.40171875,1.12653125,0.01696424801047261,0.02077978625993302,True
21539,49733,0,49734,4441.0,43930.0,28136.0,0.002074,-0.000488,-0.001037,0.385,-0.9975,-3.6400000000000006,0.89796875,-0.0054687500000000005,0.1084375,1.13553125,0.86665625,-0.42328125,-0.40618750000000003,1.1204687500000001,0.017107140343806178,0.021085841449017793,True
21540,49734,0,49735,4441.0,43931.0,28138.0,0.001281,0.00061,-0.001769,0.49000000000000005,-0.7525000000000001,-3.6225000000000005,0.8896875,-0.0046875,0.10675,1.13884375,0.86109375,-0.41721875,-0.405375,1.11496875,0.016895095802014717,0.020984106984629408,True
21541,49735,0,49736,4441.0,43929.0,28135.0,-0.00244,0.000305,-0.000244,0.47250000000000003,-0.56,-3.7450000000000006,0.90253125,-0.0064375000000000005,0.10709375,1.1400000000000001,0.86334375,-0.42125,-0.4034375,1.1193125,0.016985719404207403,0.02092046458618791,True
21542,49736,0,49737,4441.0,43931.0,28136.0,-0.006344,-0.000122,0.001281,0.45500000000000007,-0.6125,-3.8500000000000005,0.8979375,-0.0048125,0.10753125000000001,1.1355625,0.86909375,-0.420125,-0.4073125,1.114,0.017006976827514193,0.02109383202267763,True
21543,49737,0,49738,4441.0,43932.0,28137.0,-0.0037819999999999998,0.00042699999999999997,0.000488,0.35000000000000003,-0.9625000000000001,-3.9725000000000006,0.89771875,-0.004875,0.1080625,1.13546875,0.8725937500000001,-0.41875,-0.40640625,1.12284375,0.016949065779370363,0.021079250452942042,True
21544,49738,0,49739,4443.0,43932.0,28137.0,-0.0006709999999999999,0.0017079999999999999,0.000244,0.29750000000000004,-1.2775,-4.077500000000001,0.88871875,-0.00153125,0.1088125,1.1323125,0.88053125,-0.424875,-0.40700000000000003,1.1283125,0.017332483789579273,0.021133793583807924,True
21545,49739,0,49740,4442.0,43934.0,28137.0,0.002013,0.001098,-0.000122,0.31500000000000006,-1.7500000000000002,-4.305000000000001,0.91134375,-0.01575,0.09740625,1.16778125,0.87921875,-0.4249375,-0.40621875,1.1218125,0.016752857607107492,0.020635109648027717,True
21546,49740,0,49741,4442.0,43933.0,28139.0,0.0026839999999999998,-0.000122,-0.002562,0.2625,-2.1,-4.357500000000001,0.92159375,-0.0073750000000000005,0.10221875,1.12659375,0.875375,-0.4209375,-0.4044375,1.11740625,0.016934751174069382,0.020760824747548475,True
21547,49741,0,49742,4445.0,43934.0,28138.0,0.0030499999999999998,0.000244,-0.00061,0.052500000000000005,-2.31,-4.62,0.87996875,-0.00046875,0.11265625,1.132625,0.8683125,-0.4205,-0.405625,1.12684375,0.017199944718576603,0.021236139209710878,True
21548,49742,0,49743,4446.0,43935.0,28141.0,0.000244,0.0,-0.000488,0.14,-2.205,-4.62,0.90009375,-0.01209375,0.10387500000000001,1.1460000000000001,0.87284375,-0.42559375,-0.40775,1.123375,0.016928964111670775,0.02096157982607983,True
21549,49743,0,49744,4446.0,43936.0,28143.0,0.000976,0.000122,0.0018909999999999999,0.17500000000000002,-2.31,-4.742500000000001,0.909,-0.0076875,0.11778125,1.12571875,0.8669375,-0.42021875000000003,-0.40465625,1.11884375,0.016893020256012244,0.021407287799843525,True
21550,49744,0,49745,4448.0,43934.0,28143.0,0.000549,0.00061,0.000488,0.1925,-2.415,-4.742500000000001,0.88665625,-0.0100625,0.1045,1.156125,0.87825,-0.41978125,-0.40750000000000003,1.12140625,0.016778149886170664,0.020977158660247876,True
21551,49745,0,49746,4448.0,43936.0,28143.0,0.0021349999999999997,0.0023179999999999997,0.0032329999999999998,0.29750000000000004,-2.5200000000000005,-4.62,0.899,-0.010843750000000001,0.1136875,1.1242812500000001,0.86784375,-0.4201875,-0.40528125,1.11696875,0.016762514620332052,0.021264608454368866,True
21552,49746,0,49747,4449.0,43938.0,28146.0,-0.0026839999999999998,-0.000244,-0.002196,0.21000000000000002,-2.415,-4.865,0.8859375,-0.00253125,0.11115625,1.125375,0.85778125,-0.42184375,-0.4080625,1.12696875,0.017169567715377757,0.021272427911883624,True
21553,49747,0,49748,4451.0,43936.0,28144.0,0.001098,-0.001464,0.003965,0.3325,-1.8025000000000002,-4.9175,0.88825,-0.0023125,0.1080625,1.131125,0.87515625,-0.42265625,-0.40778125,1.1264375,0.017211221649979208,0.021134397457777936,True
21554,49748,0,49749,4451.0,43935.0,28146.0,-0.000244,-0.002562,-0.0023179999999999997,0.21000000000000002,-1.8200000000000003,-4.987500000000001,0.9118125,-0.018125,0.10021875,1.1525,0.8748750000000001,-0.42190625,-0.40815625,1.12415625,0.01653356809524236,0.020828078728806074,True
21555,49749,0,49750,4451.0,43934.0,28149.0,-0.000244,-0.0008539999999999999,0.000366,0.28,-1.4700000000000002,-5.1450000000000005,0.91834375,-0.0078125,0.11553125,1.1246875,0.87065625,-0.41953125,-0.40553125,1.1203750000000001,0.016860223309978568,0.02135018060711135,True
21556,49750,0,49751,4451.0,43937.0,28150.0,-0.007137,0.005246,0.003538,0.525,-1.0850000000000002,-5.617500000000001,0.88525,-0.00178125,0.1129375,1.1246875,0.87040625,-0.42125,-0.405875,1.1200625,0.0171763832727645,0.021257688978575853,True
21557,49751,0,49752,4452.0,43935.0,28148.0,-0.006771,0.001464,0.0032329999999999998,0.28,-0.8225000000000001,-6.0200000000000005,0.88434375,-0.002625,0.11009375,1.13596875,0.8628125,-0.421125,-0.4078125,1.12553125,0.01713680266572486,0.02121887203124,True
21558,49752,0,49753,4454.0,43938.0,28150.0,-0.0032329999999999998,-0.005124,0.0,0.0,-1.2950000000000002,-6.300000000000001,0.90665625,-0.00575,0.10765625000000001,1.1401875000000001,0.875625,-0.42075,-0.40568750000000003,1.11996875,0.016993745073349508,0.021033775426322246,True
21559,49753,0,49754,4453.0,43935.0,28151.0,0.000366,-0.0070149999999999995,-0.002562,-0.21000000000000002,-1.6450000000000002,-6.720000000000001,0.90546875,-0.0069375,0.105875,1.1399375,0.87071875,-0.42053125,-0.40525,1.11909375,0.016936312554625528,0.020943239671791933,True
21560,49754,0,49755,4456.0,43938.0,28156.0,0.002989,-0.005612,-0.004209,-0.22750000000000004,-1.8200000000000003,-7.3500000000000005,0.90228125,-0.00790625,0.10646875,1.14084375,0.870125,-0.41815625,-0.4054375,1.1195625,0.016801022804496142,0.0209750900798234,True
21561,49755,0,49756,4457.0,43938.0,28158.0,0.0057339999999999995,-0.001037,0.001464,-0.17500000000000002,-2.0125,-8.102500000000001,0.90059375,-0.0036875000000000002,0.10775,1.1229375,0.87021875,-0.4219375,-0.406375,1.11965625,0.017125995838782243,0.02106519300797435,True
21562,49756,0,49757,4457.0,43939.0,28162.0,0.009882,0.000976,0.003904,-0.22750000000000004,-2.2575000000000003,-8.260000000000002,0.89759375,-0.0051875,0.10968750000000001,1.13521875,0.8743125,-0.42281250000000004,-0.4068125,1.1262812500000001,0.017099791434749788,0.021162124304433448,True
21563,49757,0,49758,4460.0,43942.0,28164.0,0.011467999999999999,0.0011589999999999999,0.005063,0.0175,-2.4675000000000002,-7.98,0.8930625,-0.00865625,0.10596875,1.1373125,0.87371875,-0.41575,-0.40528125,1.11975,0.016673407534071247,0.020948334697023823,True
21564,49758,0,49759,4461.0,43942.0,28170.0,0.005795,0.005612,-0.013176,0.28,-2.31,-7.5425,0.88825,-0.00409375,0.1086875,1.1345625,0.8700625000000001,-0.42496875,-0.40725,1.12478125,0.017231342414716497,0.021138698542441284,True
21565,49759,0,49760,4460.0,43943.0,28169.0,0.002806,0.0035989999999999998,-0.001769,0.525,-1.12,-7.490000000000001,0.89828125,-0.00571875,0.104125,1.14015625,0.87725,-0.4241875,-0.405125,1.12040625,0.017133374446949363,0.02086651881520787,True
21566,49760,0,49761,4462.0,43944.0,28169.0,-0.015921,0.003965,-0.003355,-0.0175,0.5425000000000001,-8.732500000000002,0.9031250000000001,-0.00846875,0.10784375,1.135125,0.86990625,-0.42153125,-0.40615625,1.119875,0.016913865710201936,0.021060260154648482,True
21567,49761,0,49762,4464.0,43946.0,28172.0,-0.009211,-0.007442,-0.0048189999999999995,0.31500000000000006,1.1375000000000002,-7.822500000000001,0.8926875,-0.00534375,0.1075625,1.1358125000000001,0.87509375,-0.4231875,-0.40671875,1.12659375,0.01710848553244739,0.021071298246512552,True
21568,49762,0,49763,4465.0,43947.0,28173.0,0.005612,-0.00732,0.011224,0.9800000000000001,0.36750000000000005,-8.155000000000001,0.898875,-0.00653125,0.10596875,1.14196875,0.875375,-0.42115625,-0.404625,1.11171875,0.0169781068412762,0.020922007611262207,True
21569,49763,0,49764,4465.0,43950.0,28178.0,-0.000793,0.009089,0.0,1.2950000000000002,-0.9975,-8.8375,0.90415625,-0.00234375,0.10840625,1.136125,0.87071875,-0.41671875,-0.40653125,1.127125,0.016970953560252647,0.021098348418520145,True
21570,49764,0,49765,4467.0,43951.0,28181.0,0.009333,0.003721,0.007686,0.6300000000000001,0.6300000000000001,-8.137500000000001,0.89378125,-0.00565625,0.10778125000000001,1.1435,0.8743125,-0.4246875,-0.40790625,1.119875,0.017156053685436098,0.021127887608139273,True
21571,49765,0,49766,4468.0,43951.0,28182.0,-0.008479,-0.004209,-0.0046359999999999995,-0.12250000000000001,0.7350000000000001,-8.540000000000001,0.90571875,-0.0069375,0.10628125000000001,1.140875,0.870625,-0.42078125,-0.4059375,1.11953125,0.01694637635722649,0.020987464628228276,True
21572,49766,0,49767,4469.0,43952.0,28184.0,-0.002745,-0.0066489999999999995,-0.00183,0.5950000000000001,1.33,-7.192500000000001,0.90415625,-0.00771875,0.10525,1.1299062500000001,0.8699687500000001,-0.4211875,-0.4053125,1.11959375,0.01693073893314975,0.020920137777379413,True
21573,49767,0,49768,4471.0,43954.0,28186.0,-0.002074,0.0035989999999999998,-0.004941,1.2600000000000002,1.3825,-7.875000000000001,0.8979375,-0.004375,0.108875,1.13575,0.8707812500000001,-0.42078125,-0.40759375000000003,1.11321875,0.017051307480181452,0.02116016659774174,True
21574,49768,0,49769,4470.0,43955.0,28187.0,-0.002196,0.0060999999999999995,0.0017079999999999999,0.7525000000000001,1.5050000000000001,-9.467500000000001,0.898875,-0.005625,0.10528125,1.14284375,0.87665625,-0.41896875,-0.40259375000000003,1.11728125,0.01692715831826436,0.020812336803336738,True
21575,49769,0,49770,4472.0,43958.0,28189.0,-0.005612,0.003904,0.001403,0.7525000000000001,1.5575,-9.38,0.90478125,-0.00671875,0.10575,1.1358125000000001,0.87053125,-0.42090625,-0.40090625,1.1190625,0.0169603656702953,0.02076382921228592,True
21576,49770,0,49771,4473.0,43958.0,28194.0,-0.0026839999999999998,-0.000915,0.002196,0.6300000000000001,1.155,-8.8025,0.89796875,-0.00475,0.11125,1.1362812500000001,0.87184375,-0.42365625,-0.40653125,1.12459375,0.017151660083653528,0.02121486436135819,True
21577,49771,0,49772,4474.0,43959.0,28197.0,0.00061,0.0026839999999999998,-0.0017079999999999999,0.7350000000000001,0.7350000000000001,-9.31,0.9050312500000001,-0.00625,0.10896875,1.13521875,0.86203125,-0.42128125,-0.40525,1.11871875,0.01699465502040357,0.021070005429159707,True
21578,49772,0,49773,4477.0,43963.0,28200.0,0.0042699999999999995,0.002074,-0.004392,0.56,0.2625,-9.485000000000001,0.89871875,-0.00084375,0.1053125,1.139,0.8756875000000001,-0.42371875000000003,-0.4055,1.12034375,0.017314111922452434,0.020930220646985312,True
21579,49773,0,49774,4478.0,43961.0,28202.0,0.008662,-0.001403,-0.002379,0.5425000000000001,0.24500000000000002,-9.170000000000002,0.8892187500000001,-0.00575,0.1071875,1.13796875,0.8708750000000001,-0.41846875,-0.406875,1.12034375,0.016901909543365616,0.021062200711889578,True
21580,49774,0,49775,4478.0,43966.0,28206.0,0.0070149999999999995,-0.0030499999999999998,-0.001098,0.5425000000000001,0.31500000000000006,-8.96,0.90440625,-0.00846875,0.1054375,1.1300625,0.86971875,-0.42078125,-0.4054375,1.11959375,0.016883673613021694,0.020932835152002498,True
21581,49775,0,49776,4480.0,43966.0,28207.0,-0.004575,0.001952,-0.0011589999999999999,0.6475000000000001,0.4025,-8.855,0.89759375,-0.00503125,0.10865625,1.1355625,0.87040625,-0.42478125,-0.40971875,1.13440625,0.01718541491543553,0.021236418383558803,True
21582,49776,0,49777,4479.0,43966.0,28210.0,-0.008235,0.0018909999999999999,0.008052,0.8575,0.43750000000000006,-8.3825,0.8974062500000001,-0.0056875,0.1076875,1.138125,0.87796875,-0.4195625,-0.40353125,1.1173125,0.016948501841505145,0.020948556369275454,True
21583,49777,0,49778,4483.0,43967.0,28209.0,-0.001769,-0.00061,0.006161,0.8400000000000001,0.29750000000000004,-7.525,0.9048125,-0.00771875,0.105,1.13478125,0.86109375,-0.41584375,-0.4029375,1.11525,0.016715580431251736,0.02081460479911486,True
21584,49778,0,49779,4483.0,43969.0,28212.0,0.000915,-0.000305,-0.00549,0.6475000000000001,-0.6300000000000001,-6.8950000000000005,0.90575,-0.0075,0.10609375,1.1406875,0.85628125,-0.41946875,-0.40359375000000003,1.1135625,0.016870504195550938,0.02088575581209223,True
21585,49779,0,49780,4485.0,43968.0,28211.0,0.0055509999999999995,0.0,-0.0015249999999999999,0.6475000000000001,-0.7525000000000001,-6.527500000000001,0.90075,-0.0045625,0.1083125,1.1350625,0.85496875,-0.4200625,-0.41271875,1.136875,0.017014698467704575,0.021342614697512953,True
21586,49780,0,49781,4487.0,43969.0,28213.0,-0.006405,0.004331,0.00061,0.9975,-1.1025,-5.880000000000001,0.8929375,-0.00434375,0.1071875,1.1342812500000001,0.88665625,-0.427875,-0.4081875,1.1175625,0.01733803083567441,0.021114841075356376,True
21587,49781,0,49782,4486.0,43968.0,28209.0,-0.001098,0.0013419999999999999,0.008845,1.0325000000000002,-1.1725,-5.0575,0.8985,-0.008843750000000001,0.1095,1.140875,0.8608125,-0.4165625,-0.40218750000000003,1.11384375,0.01669845007871194,0.020968919282338933,True
21588,49782,0,49783,4487.0,43968.0,28206.0,0.000122,-0.0021349999999999997,-0.001647,0.7350000000000001,-1.715,-4.41,0.8955625,-0.0075625,0.105625,1.14071875,0.863125,-0.42053125,-0.40434375,1.114625,0.016910719335804784,0.020896638533867563,True
21589,49783,0,49784,4485.0,43965.0,28205.0,0.004209,-0.001464,-0.001281,0.56,-2.2575000000000003,-4.2700000000000005,0.9022187500000001,-0.0045625,0.1084375,1.1283125,0.8730625,-0.4246875,-0.4086875,1.125,0.017200834196957483,0.021186104332729893,True
21590,49784,0,49785,4482.0,43965.0,28202.0,0.005429,0.000793,-0.0021349999999999997,0.5075000000000001,-2.0475000000000003,-4.1475,0.90275,-0.00903125,0.10740625000000001,1.13884375,0.8651562500000001,-0.41825,-0.40275,1.118125,0.016758725543394797,0.020905686859063015,True
21591,49785,0,49786,4483.0,43962.0,28199.0,-0.000549,-6.1e-05,-0.002379,0.7000000000000001,-1.8375000000000001,-3.1500000000000004,0.88415625,-0.004125,0.11215625,1.13465625,0.87984375,-0.4281875,-0.40946875,1.13721875,0.017359556455017387,0.02136978093798129,True
21592,49786,0,49787,4480.0,43963.0,28194.0,-0.0008539999999999999,-0.0025009999999999998,0.003538,0.665,-1.2425000000000002,-2.9050000000000002,0.89575,-0.00465625,0.10834375,1.13559375,0.8861875,-0.4280625,-0.41134375,1.1340937500000001,0.017332780690240992,0.0212887707175071,True
21593,49787,0,49788,4481.0,43962.0,28191.0,-0.0032329999999999998,-0.00061,-0.0021349999999999997,0.5950000000000001,-0.9625000000000001,-2.8875,0.89753125,-0.00590625,0.1066875,1.14165625,0.88434375,-0.4243125,-0.40796875,1.115,0.017130727835225658,0.021085582961507195,True
21594,49788,0,49789,4478.0,43962.0,28190.0,-0.006527,-0.00244,0.000915,0.6475000000000001,-0.5075000000000001,-2.6775,0.90571875,-0.0045625,0.11068750000000001,1.1353125,0.8641562500000001,-0.41990625000000004,-0.4065625,1.1262812500000001,0.017008408867253536,0.02119307051126106,True
21595,49789,0,49790,4477.0,43960.0,28185.0,-0.004392,-0.0023179999999999997,0.000122,0.6125,-0.5950000000000001,-2.4850000000000003,0.897625,-0.0048125,0.1089375,1.1362812500000001,0.87321875,-0.4226875,-0.40903125,1.12584375,0.017110115338453233,0.02122037309448731,True
21596,49790,0,49791,4476.0,43959.0,28184.0,0.000305,-0.0006709999999999999,0.0037819999999999998,0.665,-0.5425000000000001,-3.1500000000000004,0.8981250000000001,-0.00778125,0.105875,1.14115625,0.8764375,-0.42353125,-0.40368750000000003,1.12021875,0.017022517986624068,0.020880553399972853,True
21597,49791,0,49792,4474.0,43959.0,28183.0,-0.0017079999999999999,-6.1e-05,-0.000976,0.6300000000000001,-0.5950000000000001,-3.3600000000000003,0.90140625,-0.00759375,0.1070625,1.1356875,0.87,-0.42125,-0.40528125,1.119,0.016938373342887853,0.020993150816485673,True
21598,49792,0,49793,4470.0,43958.0,28182.0,0.000732,0.002074,0.001952,0.6125,-0.8225000000000001,-3.6400000000000006,0.8971875,-0.00475,0.1073125,1.13921875,0.87728125,-0.42365625,-0.40850000000000003,1.12559375,0.017151660083653528,0.021132494827621525,True
21599,49793,0,49794,4472.0,43960.0,28183.0,0.0011589999999999999,0.0025009999999999998,-0.000366,0.56,-0.7175,-4.095000000000001,0.90509375,-0.0066875,0.1066875,1.13540625,0.8720625,-0.4205,-0.405,1.12,0.016945291865440918,0.020966502765826678,True
21600,49794,0,49795,4470.0,43959.0,28181.0,0.00244,0.002013,-0.001281,0.49000000000000005,-0.7875000000000001,-4.2875000000000005,0.89034375,-0.00490625,0.11221875,1.136375,0.86921875,-0.42159375,-0.40628125,1.12253125,0.017062256635073214,0.021244531056938465,True
21601,49795,0,49796,4470.0,43959.0,28182.0,-0.000488,0.001281,-0.00042699999999999997,0.5075000000000001,-0.43750000000000006,-4.970000000000001,0.89896875,-0.0051875,0.1088125,1.1362812500000001,0.8709687500000001,-0.42115625,-0.40540625,1.12715625,0.01703313085349921,0.02106987053329629,True
21602,49796,0,49797,4470.0,43958.0,28183.0,-0.002379,-0.001098,0.0030499999999999998,0.49000000000000005,-0.22750000000000004,-4.952500000000001,0.89728125,-0.0046875,0.1086875,1.13796875,0.8791875,-0.4243125,-0.4049375,1.12528125,0.017180626885608345,0.021045946132826607,True
21603,49797,0,49798,4470.0,43958.0,28184.0,-0.003843,-0.00183,0.000305,0.49000000000000005,-0.21000000000000002,-5.075,0.90396875,-0.00828125,0.10553125000000001,1.14046875,0.87065625,-0.42081250000000003,-0.40175,1.11984375,0.01689260953131678,0.0207887241693731,True
21604,49798,0,49799,4470.0,43957.0,28185.0,-0.002745,-0.002806,0.000183,0.36750000000000005,-0.36750000000000005,-5.1625000000000005,0.903875,-0.00665625,0.10746875,1.1359375,0.86940625,-0.421375,-0.40584375,1.12059375,0.01698179361317698,0.02103236033378277,True
21605,49799,0,49800,4469.0,43962.0,28186.0,-0.001403,-0.001098,-0.000244,0.3325,-0.665,-5.355,0.88925,-0.004125,0.10746875,1.13521875,0.8708125,-0.42290625,-0.4070625,1.11925,0.017147068645853726,0.021081244414398497,True
21606,49800,0,49801,4471.0,43961.0,28189.0,0.002928,0.000366,-0.000183,0.36750000000000005,-1.4875,-5.7225,0.9058437500000001,-0.00940625,0.10334375,1.1459062500000001,0.87059375,-0.41990625000000004,-0.4049375,1.11925,0.016810056344913282,0.020826984293649597,True
21607,49801,0,49802,4472.0,43962.0,28190.0,0.0025009999999999998,0.001037,-0.000488,0.35000000000000003,-1.7850000000000001,-5.845000000000001,0.8998125,-0.00453125,0.10815625,1.1331875,0.8709687500000001,-0.42503125,-0.40296875,1.1280625,0.0172159452201315,0.020945197497742974,True
21608,49802,0,49803,4472.0,43962.0,28190.0,0.00366,0.0032329999999999998,-0.000793,0.4025,-1.9600000000000002,-6.0025,0.89471875,0.00378125,0.10956250000000001,1.12309375,0.87275,-0.42125,-0.40215625,1.12559375,0.01740415621640989,0.02097022676018641,True
21609,49803,0,49804,4473.0,43963.0,28191.0,0.0046359999999999995,0.00042699999999999997,-0.001281,0.31500000000000006,-2.1175,-6.072500000000001,0.8953125000000001,-0.0030625,0.10934375,1.133875,0.86790625,-0.422875,-0.408625,1.11621875,0.017189315344733162,0.021220726280157115,True
21610,49804,0,49805,4474.0,43964.0,28193.0,0.003843,0.000244,-0.000915,0.35000000000000003,-2.1,-5.95,0.89534375,-0.0038125,0.10896875,1.13375,0.8795625,-0.42471875000000003,-0.40928125,1.1260000000000001,0.017232798228229342,0.021231678011821836,True
21611,49805,0,49806,4473.0,43964.0,28194.0,0.001952,0.000305,0.000793,0.42000000000000004,-1.435,-6.0200000000000005,0.89528125,-0.0048125,0.10878125,1.12559375,0.87834375,-0.42359375,-0.4078125,1.126625,0.017146585972836206,0.02116509826515588,True
21612,49806,0,49807,4473.0,43964.0,28195.0,-0.001281,-0.000976,-0.0023179999999999997,0.35000000000000003,-1.3825,-5.880000000000001,0.8952187500000001,-0.00334375,0.10990625,1.13315625,0.87646875,-0.42028125,-0.40596875,1.1202812500000001,0.017073411060734612,0.021137247420264765,True
21613,49807,0,49808,4476.0,43965.0,28197.0,-0.0035989999999999998,-0.0017079999999999999,-6.1e-05,0.385,-1.435,-5.775,0.8949375,-0.00340625,0.11221875,1.13240625,0.8703125,-0.41671875,-0.4083125,1.12546875,0.016927438294713534,0.02132598269544443,True
21614,49808,0,49809,4476.0,43966.0,28197.0,-6.1e-05,-0.001098,0.003172,0.5425000000000001,-1.2950000000000002,-5.897500000000001,0.89415625,-0.00634375,0.10284375,1.14634375,0.8767812500000001,-0.423,-0.4039375,1.12278125,0.017059994677148593,0.020766372229891177,True
21615,49809,0,49810,4475.0,43965.0,28197.0,-0.004026,0.001098,-0.0015249999999999999,0.525,-1.4525000000000001,-6.055000000000001,0.90959375,-0.0085,0.10959375,1.13303125,0.87009375,-0.42125,-0.40559375000000003,1.119625,0.01690126426779956,0.02110940242951475,True
21616,49810,0,49811,4477.0,43967.0,28195.0,-0.003111,-6.1e-05,0.000366,0.5075000000000001,-1.4000000000000001,-6.1775,0.89484375,-0.00678125,0.10546875,1.14271875,0.8748125,-0.42281250000000004,-0.40515625,1.12103125,0.01703453482271954,0.020922832649350482,True
21617,49811,0,49812,4477.0,43967.0,28198.0,0.0,0.001098,0.0008539999999999999,0.5775,-1.7500000000000002,-6.4575000000000005,0.9089375000000001,-0.0084375,0.10640625000000001,1.14128125,0.870625,-0.4210625,-0.405,1.11971875,0.01689627549988867,0.020954978488014753,True
21618,49812,0,49813,4477.0,43965.0,28196.0,0.00366,0.0008539999999999999,-0.000122,0.45500000000000007,-2.0475000000000003,-6.4225,0.9021875,-0.0060625,0.1091875,1.1346875,0.8705,-0.42021875000000003,-0.40509375000000003,1.120125,0.016959563476473774,0.021072701267537644,True
21619,49813,0,49814,4479.0,43967.0,28200.0,0.003965,0.001586,-0.000244,0.43750000000000006,-2.2225,-6.44,0.8961875,-0.00553125,0.10825,1.1363125,0.87128125,-0.4231875,-0.405125,1.1244687500000001,0.017100808401851724,0.021035540690736064,True
21620,49814,0,49815,4478.0,43968.0,28200.0,0.004575,0.000122,0.00042699999999999997,0.525,-2.1875,-6.352500000000001,0.9050312500000001,-0.0083125,0.1083125,1.13640625,0.8716875000000001,-0.42065625,-0.401875,1.11984375,0.016885039688480936,0.020907717132392492,True
21621,49815,0,49816,4477.0,43967.0,28199.0,-0.001403,0.000122,-0.001952,0.385,-1.6975000000000002,-6.3875,0.89084375,-0.004875,0.106875,1.14334375,0.8709687500000001,-0.42375,-0.4084375,1.11728125,0.017150314755105176,0.021112064219596195,True
21622,49816,0,49817,4478.0,43966.0,28201.0,-0.003477,0.001037,0.00122,0.43750000000000006,-1.8375000000000001,-6.370000000000001,0.9031875,-0.005,0.10828125,1.1361875000000001,0.87103125,-0.42090625,-0.40703125,1.1194375,0.017030745941297734,0.02111328062481995,True
21623,49817,0,49818,4479.0,43969.0,28200.0,-0.004026,-0.000244,0.003477,0.5425000000000001,-1.715,-6.055000000000001,0.8982187500000001,-0.00496875,0.10821875,1.130625,0.89459375,-0.42462500000000003,-0.4149375,1.11959375,0.017181686515146087,0.021427712030800815,True
21624,49818,0,49819,4479.0,43967.0,28200.0,0.002745,-0.0017079999999999999,0.00244,0.42000000000000004,-1.8550000000000002,-5.845000000000001,0.9028437500000001,-0.0081875,0.10540625,1.135125,0.86721875,-0.41946875,-0.39675,1.1048437500000001,0.0168423504299208,0.020582915757221758,True
21625,49819,0,49820,4481.0,43969.0,28202.0,-0.000183,0.0008539999999999999,-0.000549,0.385,-2.3800000000000003,-5.9675,0.8974375,-0.0041875,0.10825,1.14090625,0.8721875,-0.4255625,-0.41309375,1.13396875,0.017251393903415735,0.021355087369866833,True
21626,49820,0,49821,4482.0,43968.0,28200.0,-0.0011589999999999999,0.002074,-0.000122,0.525,-2.3625000000000003,-5.932500000000001,0.90334375,-0.008,0.10753125000000001,1.13515625,0.8559375,-0.41609375,-0.3998125,1.10928125,0.016714129384435214,0.020792936421130285,True
21627,49821,0,49822,4482.0,43972.0,28206.0,0.005429,-0.000915,0.001952,0.385,-2.2225,-5.5475,0.8970625,-0.0049375,0.108625,1.13596875,0.8618750000000001,-0.42625,-0.40503125,1.1371875,0.017248349623867766,0.021047145760159598,True
21628,49822,0,49823,4484.0,43972.0,28206.0,0.000244,-0.000793,-0.0046359999999999995,0.525,-2.2575000000000003,-5.407500000000001,0.897875,-0.0046875,0.113875,1.1424375,0.889125,-0.42840625,-0.408875,1.11703125,0.017345329272146028,0.021416390554665057,True
21629,49823,0,49824,4485.0,43972.0,28203.0,0.0006709999999999999,0.0015249999999999999,0.00042699999999999997,0.43750000000000006,-2.4325,-5.495,0.90653125,-0.0054375000000000005,0.1074375,1.13584375,0.85740625,-0.4165,-0.398625,1.1306875,0.01683543914975529,0.020741435224321043,True
21630,49824,0,49825,4485.0,43970.0,28202.0,0.000915,0.000549,0.001952,0.385,-2.4325,-5.1625000000000005,0.89825,-0.0058125,0.107125,1.1418125000000001,0.8871875,-0.42521875000000003,-0.40275,1.10959375,0.017171033524520637,0.020894161518681294,True
21631,49825,0,49826,4486.0,43974.0,28204.0,0.005795,-0.0026839999999999998,0.0032329999999999998,0.3325,-2.1350000000000002,-4.795000000000001,0.898375,-0.0045000000000000005,0.11615625,1.13534375,0.8600625000000001,-0.4250625,-0.40553125,1.1440000000000001,0.017218482040731727,0.021375789555902414,True
21632,49826,0,49827,4487.0,43974.0,28206.0,0.002013,-0.001952,-0.0050019999999999995,0.31500000000000006,-2.1700000000000004,-4.532500000000001,0.89778125,-0.00415625,0.10640625000000001,1.142125,0.88296875,-0.4260625,-0.40590625,1.1087500000000001,0.017272790078220752,0.020991332784456633,True
21633,49827,0,49828,4490.0,43974.0,28205.0,-0.000244,0.001403,-0.002074,0.5075000000000001,-2.1175,-4.4625,0.8982187500000001,-0.0049375,0.10840625,1.14053125,0.8675,-0.4308125,-0.4120625,1.117125,0.017431880335539395,0.021320146546405083,True
21634,49828,0,49829,4490.0,43974.0,28207.0,-0.003477,0.002013,0.00122,0.5775,-1.9600000000000002,-4.357500000000001,0.89990625,-0.007625,0.10796875,1.13553125,0.8586875,-0.41734375,-0.40628125,1.1323125,0.016779824791548017,0.02107039555647176,True
21635,49829,0,49830,4490.0,43976.0,28206.0,-0.001769,-0.001586,0.0011589999999999999,0.36750000000000005,-2.1350000000000002,-3.7800000000000002,0.89915625,-0.007,0.1058125,1.13584375,0.8785937500000001,-0.41803125,-0.40053125,1.12278125,0.01683310361067705,0.020751341223359632,True
21636,49830,0,49831,4493.0,43976.0,28210.0,0.0015249999999999999,-0.000244,-0.000305,0.36750000000000005,-2.2750000000000004,-3.7975000000000003,0.897875,-0.0046875,0.1085625,1.14040625,0.8727812500000001,-0.42459375,-0.40390625,1.11803125,0.017191944083000357,0.02099945577360182,True
21637,49831,0,49832,4494.0,43975.0,28207.0,0.001952,0.0015249999999999999,-0.001464,0.49000000000000005,-2.3800000000000003,-3.7100000000000004,0.90334375,-0.0056875,0.10865625,1.1361875000000001,0.8718750000000001,-0.42296875,-0.40850000000000003,1.11096875,0.0170856071705042,0.02118754737079296,True
21638,49832,0,49833,4497.0,43977.0,28209.0,0.0015249999999999999,0.00244,-0.000488,0.525,-2.3975000000000004,-3.5000000000000004,0.89775,-0.00571875,0.10909375,1.13875,0.87059375,-0.42121875000000003,-0.40446875,1.1129375,0.017013892887716753,0.021043789367469843,True
21639,49833,0,49834,4496.0,43978.0,28209.0,0.000976,0.000915,0.0006709999999999999,0.5075000000000001,-2.31,-3.2900000000000005,0.899625,-0.00353125,0.1089375,1.1356875,0.8698125,-0.41709375,-0.4055,1.11946875,0.016937417050299036,0.02107875274016103,True
21640,49834,0,49835,4499.0,43977.0,28207.0,0.001403,-0.000366,0.000488,0.36750000000000005,-2.24,-2.9050000000000002,0.8981875,-6.25e-05,0.1083125,1.1351875,0.87021875,-0.4209375,-0.40315625,1.11840625,0.0172341868529822,0.020959122859363737,True
21641,49835,0,49836,4499.0,43978.0,28207.0,0.00061,-0.000488,0.000305,0.43750000000000006,-2.1350000000000002,-2.5025000000000004,0.899375,-0.00771875,0.10621875,1.1415,0.8771875,-0.42421875000000003,-0.4081875,1.1235625,0.017052746057640022,0.021075151524462845,True
21642,49836,0,49837,4502.0,43980.0,28208.0,-0.000305,-0.000122,0.000244,0.4025,-1.8725000000000003,-2.3800000000000003,0.9025625,-0.00375,0.10653125000000001,1.137375,0.8748125,-0.4206875,-0.40396875,1.12071875,0.017073127036247446,0.020918728639168577,True
21643,49837,0,49838,4501.0,43981.0,28208.0,-0.002196,-0.000488,-0.000183,0.5950000000000001,-1.7325000000000002,-2.31,0.9041875,-0.0066875,0.1068125,1.135,0.8705625,-0.4205625,-0.40518750000000003,1.12090625,0.016947807815647163,0.020979146339277253,True
21644,49838,0,49839,4504.0,43977.0,28205.0,-0.0021349999999999997,-0.000305,-6.1e-05,0.6475000000000001,-1.715,-2.1,0.89775,-0.00146875,0.10840625,1.1360625,0.87009375,-0.422,-0.40653125,1.12365625,0.01721936164114323,0.021098348418520145,True
21645,49839,0,49840,4505.0,43978.0,28207.0,-0.002013,-0.001281,-0.000549,0.47250000000000003,-1.8375000000000001,-1.8200000000000003,0.89759375,-0.008375,0.105125,1.139375,0.877,-0.42409375,-0.404875,1.1205,0.017020846474600514,0.020897464133702796,True
21646,49840,0,49841,4506.0,43979.0,28206.0,0.000549,-0.000122,-0.001098,0.4025,-1.9600000000000002,-1.8025000000000002,0.89790625,-0.0045625,0.10825,1.1350625,0.8700625000000001,-0.4210625,-0.40565625,1.1159375,0.01705495000473464,0.02105685029469347,True
21647,49841,0,49842,4508.0,43981.0,28204.0,0.00061,-0.000366,-0.0008539999999999999,0.49000000000000005,-2.1350000000000002,-1.7850000000000001,0.8925625,-0.00565625,0.1045,1.1440625,0.87828125,-0.424,-0.40634375,1.12146875,0.017128388060923684,0.020930777474606373,True
21648,49842,0,49843,4509.0,43981.0,28204.0,0.000549,0.0006709999999999999,-6.1e-05,0.5075000000000001,-2.1,-1.8725000000000003,0.90846875,-0.0105,0.10934375,1.1298125,0.87059375,-0.42096875,-0.40496875,1.12096875,0.016808045340134182,0.02107408967692286,True
21649,49843,0,49844,4510.0,43980.0,28205.0,0.001952,6.1e-05,0.0,0.49000000000000005,-2.0475000000000003,-1.9775000000000003,0.8915000000000001,-0.0020625,0.11143750000000001,1.13065625,0.8704375,-0.42103125,-0.406125,1.12059375,0.01715606297338488,0.021206254577488235,True
21650,49844,0,49845,4510.0,43982.0,28205.0,-0.001281,0.0,0.001281,0.43750000000000006,-1.9250000000000003,-1.9075000000000002,0.89265625,-0.002875,0.11093750000000001,1.1304687500000001,0.86971875,-0.42071875000000003,-0.40559375000000003,1.113125,0.017110215070963053,0.021164461528414974,True
21651,49845,0,49846,4513.0,43981.0,28204.0,-0.0051849999999999995,0.001647,-0.003477,0.5950000000000001,-2.1875,-1.995,0.891,-0.003125,0.11075,1.1299062500000001,0.8703125,-0.4216875,-0.405875,1.1202812500000001,0.017138967157777282,0.02116805892023949,True
21652,49846,0,49847,4512.0,43981.0,28204.0,-0.0018909999999999999,-0.000366,0.000732,0.45500000000000007,-1.995,-2.0300000000000002,0.87990625,-0.0016875,0.10346875,1.14071875,0.86940625,-0.42121875000000003,-0.40468750000000003,1.11140625,0.017178964501925197,0.020822075677059994,True
21653,49847,0,49848,4514.0,43982.0,28202.0,0.000366,-0.0021349999999999997,0.001281,0.385,-1.8375000000000001,-2.1,0.9145,-0.00765625,0.10965625,1.1300937500000001,0.87571875,-0.4229375,-0.40218750000000003,1.12196875,0.01700373880087111,0.020975322396813812,True
21654,49848,0,49849,4515.0,43982.0,28202.0,0.0021349999999999997,-0.001647,0.000183,0.36750000000000005,-1.8025000000000002,-2.3625000000000003,0.89075,-0.00296875,0.10978125,1.12984375,0.870375,-0.42212500000000003,-0.40290625,1.12040625,0.017162972100093665,0.021009280400771935,True
21655,49849,0,49850,4519.0,43980.0,28202.0,0.000183,0.00122,-0.0006709999999999999,0.3325,-1.61,-2.555,0.891625,0.00065625,0.11153125,1.1308125,0.8706875000000001,-0.42081250000000003,-0.4050625,1.1201875000000001,0.01725858834549424,0.02116748318099984,True
21656,49850,0,49851,4519.0,43984.0,28200.0,0.00042699999999999997,0.000366,-6.1e-05,0.47250000000000003,-1.4525000000000001,-2.6775,0.90746875,-0.007875,0.10128125,1.14328125,0.87,-0.42140625,-0.40721875,1.1285,0.016933146509529932,0.020834000186932405,True
21657,49851,0,49852,4519.0,43985.0,28200.0,-0.001281,0.001098,0.0,0.4025,-1.3825,-2.87,0.8892187500000001,-0.005875,0.11093750000000001,1.12928125,0.8775625,-0.4241875,-0.40684375,1.1201875000000001,0.017126977100057065,0.021214592730778636,True
21658,49852,0,49853,4523.0,43984.0,28200.0,-0.001647,-0.00042699999999999997,-0.000305,0.36750000000000005,-1.4175000000000002,-3.0450000000000004,0.89365625,-0.0080625,0.1048125,1.13759375,0.87065625,-0.420875,-0.405125,1.12534375,0.01690408308465606,0.020894689127795903,True
21659,49853,0,49854,4523.0,43985.0,28203.0,-0.000915,0.000244,-0.000122,0.31500000000000006,-1.3475000000000001,-3.1500000000000004,0.89559375,-0.00521875,0.11018750000000001,1.132125,0.87653125,-0.41981250000000003,-0.40621875,1.1206562500000001,0.01697776139763563,0.02115879789858886,True
21660,49854,0,49855,4526.0,43986.0,28202.0,-0.00042699999999999997,0.001403,0.000732,0.385,-1.7675,-3.2725000000000004,0.9022187500000001,-0.00709375,0.1063125,1.14134375,0.87003125,-0.42109375,-0.405375,1.12259375,0.01695255766339294,0.020966180605706732,True
21661,49855,0,49856,4526.0,43985.0,28202.0,0.001647,0.00122,0.000305,0.47250000000000003,-1.9075000000000002,-3.2375000000000003,0.9061250000000001,-0.00759375,0.10525,1.1420625,0.8724375,-0.421125,-0.4055,1.11034375,0.01693334152296424,0.02092765974882711,True
21662,49856,0,49857,4528.0,43985.0,28203.0,0.0030499999999999998,-0.000488,0.000732,0.36750000000000005,-1.8900000000000001,-3.2375000000000003,0.9065625,-0.0055,0.1075625,1.13534375,0.86253125,-0.42271875000000003,-0.40771875,1.1259375,0.017083222972462883,0.02111140558762789,True
21663,49857,0,49858,4528.0,43986.0,28204.0,0.000793,-0.00244,-0.0011589999999999999,0.2625,-1.9775000000000003,-3.1675000000000004,0.89796875,-0.00515625,0.1088125,1.13565625,0.87925,-0.42340625,-0.40765625,1.12134375,0.017124965933038108,0.021160112413497304,True
21664,49858,0,49859,4528.0,43988.0,28204.0,-0.000244,0.000549,-0.001769,0.2625,-2.0125,-3.1675000000000004,0.89596875,-0.0059375,0.10515625,1.13796875,0.87815625,-0.41784375,-0.40650000000000003,1.1221875000000001,0.016869067318853657,0.02096393378813021,True
21665,49859,0,49860,4531.0,43990.0,28205.0,-6.1e-05,0.000366,-0.000732,0.4025,-1.9250000000000003,-3.2025,0.90440625,-0.0054687500000000005,0.10815625,1.1366875,0.87,-0.42053125,-0.40575,1.12040625,0.01699645661885427,0.021056769408848323,True
21666,49860,0,49861,4532.0,43989.0,28207.0,-0.001586,0.00042699999999999997,0.000122,0.43750000000000006,-2.0475000000000003,-3.2725000000000004,0.8984375,-0.0043125,0.10875,1.13503125,0.8715,-0.4226875,-0.40621875,1.12484375,0.017130588105833972,0.02109989897554286,True
21667,49861,0,49862,4535.0,43990.0,28207.0,0.000183,0.000488,0.002013,0.43750000000000006,-2.1175,-3.2550000000000003,0.8978125,-0.00509375,0.10784375,1.13559375,0.8670625000000001,-0.42453125,-0.40521875,1.11759375,0.01717279630494444,0.021022655246636542,True
21668,49862,0,49863,4534.0,43987.0,28205.0,0.001037,0.000305,0.000366,0.42000000000000004,-2.1,-3.3075,0.89196875,-0.00509375,0.1075625,1.13559375,0.87746875,-0.4246875,-0.40834375,1.12575,0.017179083662789953,0.021136471006968673,True
21669,49863,0,49864,4536.0,43990.0,28205.0,0.0017079999999999999,-0.000122,0.0,0.36750000000000005,-2.1875,-3.3775000000000004,0.8978125,-0.0044375000000000005,0.1088125,1.13575,0.87315625,-0.42396875,-0.40796875,1.12575,0.01717703024820649,0.02117264469211515,True
21670,49864,0,49865,4534.0,43986.0,28199.0,-0.0011589999999999999,0.001464,6.1e-05,0.525,-1.9775000000000003,-3.4475000000000002,0.89775,-0.00525,0.1075,1.1359062500000001,0.863125,-0.4214375,-0.4055625,1.11971875,0.017041891985269092,0.02102235914455977,True
21671,49865,0,49866,4536.0,43984.0,28198.0,-0.0018909999999999999,-0.0015249999999999999,0.000305,0.45500000000000007,-1.9600000000000002,-3.5525,0.89746875,-0.005,0.108625,1.13634375,0.8705,-0.42153125,-0.40515625,1.12,0.017055902258381116,0.021052159827905217,True
21672,49866,0,49867,4534.0,43985.0,28196.0,-0.001586,-0.001952,0.000549,0.35000000000000003,-1.8725000000000003,-3.5700000000000003,0.89815625,-0.00459375,0.10959375,1.13584375,0.8708750000000001,-0.42153125,-0.40825,1.1255,0.01707253716942913,0.02121593108887364,True
21673,49867,0,49868,4530.0,43983.0,28191.0,-0.000915,-0.001281,0.000244,0.4025,-1.8375000000000001,-3.6575,0.8978125,-0.00609375,0.1074375,1.128625,0.87775,-0.4225625,-0.4088125,1.12440625,0.017052622958790665,0.021150148127853412,True
21674,49868,0,49869,4529.0,43980.0,28188.0,-0.0008539999999999999,-0.00122,-0.000305,0.47250000000000003,-1.9775000000000003,-3.7975000000000003,0.9045,-0.00846875,0.10596875,1.1363125,0.8759375,-0.42090625,-0.4055625,1.1196875,0.016888705758001915,0.020959617300359293,True
21675,49869,0,49870,4527.0,43980.0,28185.0,0.00183,0.000488,-0.000305,0.4025,-2.2575000000000003,-4.0600000000000005,0.8983125000000001,-0.0051875,0.107875,1.1351875,0.86371875,-0.42171875000000003,-0.4086875,1.1259375,0.017055771310117148,0.021163059259126493,True
21676,49870,0,49871,4524.0,43977.0,28182.0,0.002562,0.000183,-0.000244,0.35000000000000003,-2.2575000000000003,-4.095000000000001,0.9031875,-0.00665625,0.10475,1.14259375,0.8711875,-0.41671875,-0.39787500000000003,1.11934375,0.01679433277659391,0.02060117940599335,True
21677,49871,0,49872,4523.0,43977.0,28183.0,0.001647,0.000488,-0.000244,0.28,-2.2750000000000004,-4.2175,0.9012187500000001,-0.00425,0.10771875,1.136375,0.87046875,-0.421375,-0.40565625,1.111875,0.01708032410132517,0.021035082799709597,True
21678,49872,0,49873,4520.0,43977.0,28181.0,0.0011589999999999999,0.000305,-0.000366,0.2625,-2.345,-4.2175,0.89728125,-0.0046875,0.10815625,1.135875,0.8714375,-0.418625,-0.406,1.120125,0.01695171206404947,0.021066797099073997,True
21679,49873,0,49874,4519.0,43976.0,28182.0,0.001403,0.001098,-0.000122,0.42000000000000004,-2.3975000000000004,-4.2175,0.8916875,-0.00265625,0.10846875,1.13625,0.87071875,-0.42181250000000003,-0.40621875,1.11978125,0.017163191716421538,0.021088375273207775,True
21680,49874,0,49875,4516.0,43974.0,28180.0,0.0011589999999999999,0.001647,0.0,0.42000000000000004,-2.5375,-4.2,0.8999375000000001,-0.00678125,0.108375,1.139375,0.8695625,-0.4215,-0.40515625,1.1209375,0.01698170669287308,0.02104191609098999,True
21681,49875,0,49876,4517.0,43976.0,28179.0,0.002989,0.000305,0.000793,0.43750000000000006,-2.3275,-4.095000000000001,0.9021875,-0.00578125,0.10815625,1.13603125,0.8700625000000001,-0.42196875,-0.407375,1.1284375,0.017041521273750707,0.02112194572337255,True
21682,49876,0,49877,4515.0,43973.0,28180.0,0.001464,0.0,0.0006709999999999999,0.45500000000000007,-2.1875,-4.0600000000000005,0.89778125,-0.0040625,0.10840625,1.13565625,0.8785937500000001,-0.42362500000000003,-0.408625,1.12921875,0.017178551504946543,0.021182317725803892,True
21683,49877,0,49878,4515.0,43974.0,28180.0,0.0011589999999999999,-0.00122,-0.000366,0.4025,-1.9075000000000002,-3.9725000000000006,0.897875,-0.0044062500000000004,0.11031250000000001,1.14075,0.878125,-0.420375,-0.40603125,1.1199375,0.017033675772792186,0.021156399609215445,True
21684,49878,0,49879,4514.0,43976.0,28180.0,-0.001098,-0.0021349999999999997,-0.000244,0.42000000000000004,-1.8375000000000001,-3.9550000000000005,0.90159375,-0.006125,0.10609375,1.13525,0.8623125,-0.42075,-0.4043125,1.11359375,0.01697838927960853,0.02091459245164149,True
21685,49879,0,49880,4513.0,43972.0,28180.0,-0.000488,-0.0011589999999999999,0.000366,0.36750000000000005,-1.3125000000000002,-4.077500000000001,0.8980312500000001,-0.0045625,0.10815625,1.12559375,0.8827812500000001,-0.42471875000000003,-0.407125,1.12975,0.017202091631044882,0.021111919162949345,True
21686,49880,0,49881,4511.0,43975.0,28180.0,0.000732,-0.00042699999999999997,-0.000488,0.3325,-0.9800000000000001,-4.0600000000000005,0.89853125,-0.0043125,0.10859375,1.13675,0.87115625,-0.42090625,-0.4059375,1.11765625,0.017058898049698706,0.02108221616153856,True
21687,49881,0,49882,4512.0,43972.0,28179.0,0.000732,-0.000793,-0.000183,0.24500000000000002,-0.7525000000000001,-4.0600000000000005,0.89884375,-0.00390625,0.10865625,1.13503125,0.86740625,-0.415375,-0.40634375,1.13084375,0.016852853990569468,0.021101071314706857,True
21688,49882,0,49883,4513.0,43973.0,28181.0,-0.001281,0.0015249999999999999,-0.000549,0.36750000000000005,-0.49000000000000005,-4.025,0.9014375,-0.01359375,0.09728125,1.1575312500000001,0.87665625,-0.4248125,-0.40765625,1.12740625,0.016836106725486633,0.02068766844419976,True
21689,49883,0,49884,4511.0,43974.0,28180.0,-0.0030499999999999998,0.00183,0.00042699999999999997,0.47250000000000003,-0.22750000000000004,-4.2525,0.89715625,-0.0005625000000000001,0.11396875000000001,1.12215625,0.8674375,-0.420125,-0.404125,1.1171875,0.017181013610700194,0.021229761362064815,True
21690,49884,0,49885,4510.0,43973.0,28180.0,-0.0017079999999999999,0.000793,0.00042699999999999997,0.3325,-0.42000000000000004,-4.1825,0.8855625,-0.0043125,0.10496875,1.1564375,0.86846875,-0.42303125,-0.4063125,1.1325625,0.017144421825198295,0.02094872996484004,True
21691,49885,0,49886,4511.0,43973.0,28183.0,-0.00042699999999999997,0.0,-0.0006709999999999999,0.31500000000000006,-0.5425000000000001,-4.357500000000001,0.92203125,-0.0125,0.10290625,1.14453125,0.88009375,-0.421125,-0.4030625,1.11765625,0.016732439639860982,0.020733821830764068,True
21692,49886,0,49887,4511.0,43975.0,28183.0,-0.0008539999999999999,-0.0011589999999999999,0.000183,0.3325,-0.6475000000000001,-4.3925,0.89375,-0.00071875,0.11721875,1.1243125,0.8608750000000001,-0.41990625000000004,-0.4044375,1.1196875,0.01716581119143322,0.021375467064135366,True
21693,49887,0,49888,4511.0,43975.0,28182.0,0.0013419999999999999,-0.001037,-0.000305,0.385,-0.7350000000000001,-4.445,0.8904062500000001,-0.008906250000000001,0.1044375,1.14128125,0.874125,-0.4250625,-0.4100625,1.121875,0.01703808332117881,0.02107737331684423,True
21694,49888,0,49889,4510.0,43974.0,28184.0,0.0008539999999999999,-0.000549,-0.000244,0.35000000000000003,-0.7175,-4.48,0.9045625,-0.0111875,0.0995625,1.15578125,0.87490625,-0.425875,-0.40646875,1.12546875,0.016977385661721432,0.020733488944401267,True
21695,49889,0,49890,4510.0,43972.0,28186.0,0.000366,-0.000305,-0.000366,0.24500000000000002,-0.7875000000000001,-4.357500000000001,0.91871875,-0.0091875,0.11021875,1.15484375,0.8675625,-0.41928125,-0.40471875,1.11721875,0.016793850146592664,0.02109991535960643,True
21696,49890,0,49891,4512.0,43974.0,28186.0,0.000549,-0.0006709999999999999,-0.000549,0.3325,-0.6475000000000001,-4.48,0.9014375,-0.000625,0.1129375,1.128875,0.8678750000000001,-0.4209375,-0.40484375,1.1123750000000001,0.017211153339219677,0.021216331286693854,True
21697,49891,0,49892,4510.0,43974.0,28185.0,-0.0011589999999999999,0.0008539999999999999,0.000976,0.385,-0.7000000000000001,-4.41,0.905625,-0.00996875,0.1066875,1.129375,0.8783125,-0.423375,-0.4048125,1.12021875,0.016926663493477045,0.02095898093869806,True
21698,49892,0,49893,4510.0,43973.0,28188.0,-0.001403,0.000366,0.000305,0.31500000000000006,-0.7175,-4.340000000000001,0.885625,-0.00128125,0.11271875,1.12534375,0.86140625,-0.4164375,-0.4055,1.1234375,0.017003145933963543,0.021233687078732254,True
21699,49893,0,49894,4509.0,43972.0,28186.0,-0.002806,0.000976,0.009943,0.29750000000000004,-1.4175000000000002,-4.4625,0.88828125,-0.0039375,0.1080625,1.1403125,0.8768750000000001,-0.4229375,-0.407375,1.1255625,0.017156003449625992,0.021118104671231545,True
21700,49894,0,49895,4509.0,43972.0,28184.0,-0.013725,0.002562,-0.016042999999999998,0.24500000000000002,-3.2725000000000004,-4.62,0.90115625,-0.00309375,0.1125,1.13275,0.8701875,-0.420125,-0.40515625,1.1196875,0.01707735935012618,0.021210937750091235,True
21701,49895,0,49896,4510.0,43971.0,28186.0,0.006893,-0.0021349999999999997,0.005673,0.28,-3.2725000000000004,-4.48,0.88725,-0.00528125,0.1081875,1.135125,0.870625,-0.42240625,-0.4089375,1.127625,0.017079602874921464,0.021185887341470724,True
21702,49896,0,49897,4509.0,43972.0,28185.0,0.010369999999999999,-0.0017079999999999999,0.000488,0.31500000000000006,-2.5200000000000005,-4.567500000000001,0.90165625,-0.0074062500000000005,0.10884375,1.1400000000000001,0.8699687500000001,-0.4205625,-0.4053125,1.1206875,0.0169183756516665,0.021067390552774113,True
21703,49897,0,49898,4510.0,43975.0,28184.0,0.004758,0.001586,-0.001403,0.21000000000000002,-2.7825,-4.987500000000001,0.8978125,-0.00390625,0.10803125,1.13615625,0.870625,-0.42171875000000003,-0.40521875,1.1263750000000001,0.017108234857548674,0.02103033802964786,True
21704,49898,0,49899,4510.0,43972.0,28187.0,0.0008539999999999999,-0.0006709999999999999,0.000732,0.4025,-2.1525000000000003,-4.41,0.89846875,-0.00515625,0.10534375,1.140875,0.87565625,-0.423875,-0.40409375000000003,1.11971875,0.01714382955202645,0.020875083714182174,True
21705,49899,0,49900,4510.0,43974.0,28188.0,0.0030499999999999998,-0.0018909999999999999,0.000305,0.29750000000000004,-2.0475000000000003,-4.69,0.8895937500000001,-0.00475,0.10778125000000001,1.12290625,0.87075,-0.4216875,-0.40725,1.1259375,0.017072427939305995,0.02110156818158539,True
21706,49900,0,49901,4511.0,43975.0,28191.0,-0.00122,-0.0013419999999999999,-0.0050019999999999995,0.21000000000000002,-2.205,-4.8825,0.898,-0.0030625,0.10690625000000001,1.1413125,0.87609375,-0.41496875,-0.40709375000000003,1.11978125,0.01687105374648493,0.021059451209753312,True
21707,49901,0,49902,4512.0,43976.0,28191.0,-0.001647,-0.000366,0.001464,0.24500000000000002,-1.8025000000000002,-4.760000000000001,0.90509375,-0.00609375,0.10671875,1.1356875,0.87059375,-0.42103125,-0.40553125,1.1146562500000001,0.016990990091788203,0.020989094429157324,True
21708,49902,0,49903,4510.0,43976.0,28191.0,-0.0055509999999999995,0.0008539999999999999,0.003843,0.49000000000000005,-1.61,-4.7250000000000005,0.89925,-0.00490625,0.1074375,1.1388125,0.860125,-0.424,-0.40915625,1.12371875,0.017159095561742548,0.021163933103996578,True
21709,49903,0,49904,4510.0,43977.0,28190.0,-0.002196,0.001037,-0.004392,0.1925,-2.0825,-4.9350000000000005,0.90353125,-0.0068125,0.10840625,1.1302812500000001,0.8708750000000001,-0.42109375,-0.405,1.1245,0.01696407434658818,0.021036928908010656,True
21710,49904,0,49905,4511.0,43976.0,28191.0,0.0028669999999999998,0.0008539999999999999,-0.00042699999999999997,0.17500000000000002,-2.0650000000000004,-5.0575,0.89484375,-0.00484375,0.1065625,1.1423125,0.8783125,-0.42371875000000003,-0.40825,1.12025,0.017150336698828882,0.021091741521821517,True
21711,49905,0,49906,4511.0,43975.0,28193.0,0.003538,0.0008539999999999999,-0.000488,0.24500000000000002,-2.205,-5.0925,0.904625,-0.0083125,0.10553125000000001,1.1433125,0.86903125,-0.42078125,-0.405375,1.1209375,0.016890071852226265,0.020934169214773386,True
21712,49906,0,49907,4510.0,43977.0,28195.0,0.003111,-0.000732,-0.0011589999999999999,0.22750000000000004,-1.9250000000000003,-5.022500000000001,0.90596875,-0.00703125,0.10509375,1.1434375,0.8706875000000001,-0.42181250000000003,-0.40584375,1.12015625,0.016984048583617618,0.020935047574415454,True
21713,49907,0,49908,4511.0,43978.0,28196.0,0.0017079999999999999,-0.0021349999999999997,0.00042699999999999997,0.10500000000000001,-1.7500000000000002,-4.9,0.9053125,-0.00553125,0.10675,1.135,0.86959375,-0.42,-0.40496875,1.12015625,0.016972512285012283,0.020967810089902287,True
21714,49908,0,49909,4511.0,43979.0,28195.0,-0.00042699999999999997,0.001098,0.001952,0.3325,-1.4700000000000002,-5.1275,0.90259375,-0.0038125,0.10703125000000001,1.13528125,0.870125,-0.42196875,-0.40746875,1.12059375,0.017122135167747275,0.021079613181928174,True
21715,49909,0,49910,4513.0,43977.0,28198.0,-0.00061,-6.1e-05,0.001037,0.29750000000000004,-1.5925000000000002,-5.040000000000001,0.8970312500000001,-0.00496875,0.10715625000000001,1.1326875,0.8750625,-0.4230625,-0.40503125,1.124875,0.01711880932213149,0.02098696349753701,True
21716,49910,0,49911,4514.0,43978.0,28199.0,0.0013419999999999999,-0.001769,0.000183,0.14,-1.54,-4.8825,0.89784375,-0.00015625,0.1078125,1.135125,0.8748750000000001,-0.4225625,-0.4070625,1.1260625,0.017295738315747988,0.021095328452573923,True
21717,49911,0,49912,4514.0,43979.0,28199.0,0.002074,-6.1e-05,-0.0017079999999999999,0.1925,-1.6450000000000002,-4.9350000000000005,0.8974375,-0.002125,0.1080625,1.13578125,0.87525,-0.42134375,-0.40775,1.1235,0.01716608038818503,0.02113314418576067,True
21718,49912,0,49913,4516.0,43979.0,28201.0,0.000305,0.000976,0.0,0.35000000000000003,-1.5225000000000002,-5.005000000000001,0.8969375,-0.00453125,0.10725,1.1360937500000001,0.8758125,-0.42375,-0.40803125,1.12509375,0.017164389170377197,0.021111135294863245,True
21719,49913,0,49914,4517.0,43978.0,28201.0,-0.000183,0.000244,0.000244,0.36750000000000005,-1.2600000000000002,-4.812500000000001,0.8982187500000001,-0.0059375,0.1071875,1.1359062500000001,0.8758750000000001,-0.4225,-0.40740625,1.121125,0.017056505271778075,0.021083508207677744,True
21720,49914,0,49915,4517.0,43978.0,28201.0,-0.0008539999999999999,0.000244,0.000732,0.31500000000000006,-1.3125000000000002,-4.742500000000001,0.90253125,-0.0040625,0.10490625,1.13575,0.8733125,-0.4206875,-0.404875,1.11228125,0.017060330508713153,0.020888500760606228,True
21721,49915,0,49916,4517.0,43978.0,28203.0,-0.000366,0.000305,0.000549,0.1925,-1.2600000000000002,-4.7075000000000005,0.89796875,-0.00384375,0.10821875,1.1340000000000001,0.8697812500000001,-0.42128125,-0.40575,1.1248125,0.017093185886796994,0.021059330280773995,True
21722,49916,0,49917,4518.0,43979.0,28205.0,-0.000793,6.1e-05,-0.00042699999999999997,0.29750000000000004,-1.155,-4.777500000000001,0.898,-0.004875,0.1085625,1.13521875,0.8629687500000001,-0.4236875,-0.408625,1.12825,0.017147799651465404,0.02118871915152943,True
21723,49917,0,49918,4519.0,43978.0,28202.0,-0.0015249999999999999,0.000244,-6.1e-05,0.3325,-1.225,-4.7075000000000005,0.8973125000000001,0.00140625,0.107375,1.135875,0.882875,-0.42509375,-0.39628125000000003,1.1204687500000001,0.017461550173169756,0.02064479601783571,True
21724,49918,0,49919,4520.0,43978.0,28206.0,0.000183,-0.000305,-0.000366,0.35000000000000003,-1.3825,-4.585000000000001,0.9030312500000001,-0.00784375,0.10375000000000001,1.14303125,0.87234375,-0.42115625,-0.3985625,1.1185,0.016924362457244425,0.02058779077660825,True
21725,49919,0,49920,4521.0,43981.0,28205.0,-0.000305,0.0,-0.000305,0.28,-1.3825,-4.585000000000001,0.9040625,-0.00571875,0.11156250000000001,1.13540625,0.86821875,-0.42131250000000003,-0.40778125,1.131,0.01701766643377583,0.021277794350930607,True
21726,49920,0,49921,4521.0,43981.0,28207.0,0.000915,0.000122,0.000183,0.21000000000000002,-1.4525000000000001,-4.532500000000001,0.89734375,-0.00484375,0.11034375,1.1406875,0.88615625,-0.4264375,-0.40184375,1.1148437500000001,0.01725973138735438,0.020989704927522126,True
21727,49921,0,49922,4523.0,43979.0,28210.0,0.00122,-0.000244,0.00042699999999999997,0.28,-1.5575,-4.4275,0.9043125,-0.00709375,0.10775,1.141375,0.858875,-0.41934375,-0.40303125,1.1139375,0.016882108062383945,0.020931057489015834,True
21728,49922,0,49923,4522.0,43980.0,28211.0,0.001586,0.0,0.000183,0.31500000000000006,-1.6800000000000002,-4.4625,0.90359375,-0.0011875,0.1064375,1.13571875,0.86628125,-0.41859375,-0.40446875,1.10559375,0.017093787393059848,0.020934946596614608,True
21729,49923,0,49924,4524.0,43984.0,28210.0,0.00061,0.000976,-6.1e-05,0.385,-1.4000000000000001,-4.2175,0.8991250000000001,-0.00490625,0.1085,1.1359062500000001,0.8666875,-0.42381250000000004,-0.41325,1.13415625,0.01715155035684949,0.021371591246556687,True
21730,49924,0,49925,4526.0,43987.0,28213.0,-0.00042699999999999997,0.000305,0.000305,0.31500000000000006,-1.3125000000000002,-4.112500000000001,0.89046875,-0.00434375,0.10815625,1.1356875,0.8866875000000001,-0.4274375,-0.4049375,1.1255625,0.017320431174985097,0.021024177996768072,True
21731,49925,0,49926,4525.0,43985.0,28214.0,-0.0008539999999999999,0.000183,0.0,0.36750000000000005,-1.2600000000000002,-4.025,0.89128125,-0.00534375,0.10784375,1.144625,0.864375,-0.419,-0.40159375,1.112125,0.01693993406773414,0.020877222415031805,True
21732,49926,0,49927,4527.0,43985.0,28213.0,-0.0023179999999999997,-0.00042699999999999997,-6.1e-05,0.47250000000000003,-1.2425000000000002,-4.0425,0.90478125,-0.00840625,0.108875,1.1360937500000001,0.86403125,-0.42021875000000003,-0.40778125,1.12740625,0.016863587677731183,0.02116768602225981,True
21733,49927,0,49928,4530.0,43984.0,28215.0,-0.001952,-0.00061,-0.000366,0.43750000000000006,-1.3475000000000001,-3.99,0.898,-0.00471875,0.107875,1.13603125,0.87915625,-0.42678125,-0.404875,1.1159375,0.01727867849964882,0.02101014653834531,True
21734,49928,0,49929,4529.0,43986.0,28215.0,-6.1e-05,0.000183,0.00042699999999999997,0.31500000000000006,-1.61,-4.077500000000001,0.9067500000000001,-0.009000000000000001,0.11031250000000001,1.13659375,0.85675,-0.41871875000000003,-0.40084375,1.10934375,0.016778879932019364,0.020948302248769573,True
21735,49929,0,49930,4532.0,43986.0,28217.0,0.000244,-0.001037,0.000549,0.42000000000000004,-1.715,-3.9550000000000005,0.9062187500000001,-0.0079375,0.1061875,1.1404375,0.8640625000000001,-0.41875,-0.40346875,1.11471875,0.01682364985922703,0.020884582237924682,True
21736,49930,0,49931,4532.0,43988.0,28218.0,0.000305,-0.000549,-0.000122,0.42000000000000004,-1.8025000000000002,-4.0075,0.902,-0.00553125,0.10884375,1.13765625,0.867125,-0.42078125,-0.40559375000000003,1.11984375,0.01700396051006763,0.021078671769663458,True
21737,49931,0,49932,4534.0,43987.0,28219.0,0.001098,0.00042699999999999997,-0.00042699999999999997,0.28,-1.7675,-4.112500000000001,0.8971875,-0.00425,0.10853125,1.13475,0.87009375,-0.42028125,-0.40990625,1.12525,0.017036300513533196,0.021238815695984084,True
21738,49932,0,49933,4532.0,43988.0,28220.0,-0.00042699999999999997,0.000305,-0.000549,0.35000000000000003,-1.7675,-4.095000000000001,0.9021875,-0.00778125,0.10625,1.1281875000000001,0.86921875,-0.42096875,-0.3985625,1.1204375,0.016919373847526013,0.02069025582962111,True
21739,49933,0,49934,4534.0,43987.0,28219.0,0.000915,-0.000732,-6.1e-05,0.385,-1.9425000000000001,-4.0425,0.89778125,-0.004375,0.10853125,1.1364375,0.8585625,-0.42090625,-0.40668750000000004,1.1264375,0.017056338767116798,0.0211097368293014,True
21740,49934,0,49935,4536.0,43988.0,28220.0,0.001769,0.000976,0.0008539999999999999,0.29750000000000004,-2.0125,-3.9725000000000006,0.89784375,-0.0053750000000000004,0.10596875,1.14146875,0.877,-0.42378125,-0.40753125,1.12153125,0.017131100451532252,0.021038588243126804,True
21741,49935,0,49936,4536.0,43988.0,28221.0,0.00244,0.000244,0.0,0.385,-1.8200000000000003,-3.8675,0.8951875,-0.005625,0.10521875,1.1420937500000001,0.87065625,-0.42096875,-0.4055625,1.10996875,0.017007668870629877,0.02092888660115906,True
21742,49936,0,49937,4538.0,43990.0,28224.0,0.00183,0.000244,-0.000244,0.43750000000000006,-1.8200000000000003,-3.8500000000000005,0.89659375,-0.004125,0.10828125,1.136375,0.87046875,-0.42412500000000003,-0.40734375,1.1273125,0.01719611245029249,0.021125813823964355,True
21743,49937,0,49938,4540.0,43990.0,28224.0,-0.001403,-0.00061,0.000244,0.35000000000000003,-1.54,-3.7800000000000002,0.90290625,-0.0079375,0.1073125,1.13575,0.873125,-0.4175625,-0.40125,1.12025,0.016775835016292064,0.02084165770196199,True
21744,49938,0,49939,4543.0,43989.0,28224.0,-0.003355,0.000732,-0.000183,0.385,-1.2600000000000002,-3.6400000000000006,0.89225,-0.0034375,0.1080625,1.13603125,0.8775000000000001,-0.424875,-0.40828125,1.129875,0.01725443835434163,0.021154449373611668,True
21745,49939,0,49940,4543.0,43990.0,28222.0,-0.00366,0.0,-0.000488,0.28,-1.2425000000000002,-3.7275000000000005,0.8975,-0.00584375,0.10728125000000001,1.1263750000000001,0.87890625,-0.42262500000000003,-0.40309375000000003,1.1135,0.017065374831739016,0.020914356402044313,True
21746,49940,0,49941,4544.0,43990.0,28226.0,-0.0028669999999999998,0.000183,0.000976,0.3325,-1.3650000000000002,-3.8675,0.9036875,-0.0080625,0.1055,1.14346875,0.87046875,-0.42021875000000003,-0.404625,1.1201875000000001,0.01687766412821343,0.020902800186440074,True
21747,49941,0,49942,4548.0,43992.0,28225.0,-0.0017079999999999999,-0.000915,0.000976,0.3325,-1.5050000000000001,-3.8850000000000002,0.90846875,-0.0020625,0.1086875,1.1359062500000001,0.8704375,-0.42021875000000003,-0.40546875,1.120125,0.01712336217299446,0.021067255673997247,True
21748,49942,0,49943,4546.0,43992.0,28224.0,0.001037,6.1e-05,-0.000122,0.36750000000000005,-1.8900000000000001,-3.9200000000000004,0.8981250000000001,-0.003875,0.10871875,1.1363125,0.87009375,-0.421125,-0.40496875,1.1205625000000001,0.017085617472577534,0.02104848013788176,True
21749,49943,0,49944,4549.0,43992.0,28224.0,0.001769,0.000488,-0.0008539999999999999,0.42000000000000004,-1.9425000000000001,-3.9725000000000006,0.896875,-0.00353125,0.10928125,1.13434375,0.86934375,-0.4215,-0.40496875,1.120125,0.017114786151546792,0.02107152872301875,True
21750,49944,0,49945,4550.0,43992.0,28222.0,0.002379,0.0008539999999999999,-0.000244,0.29750000000000004,-1.995,-3.9375000000000004,0.892375,0.00203125,0.10943750000000001,1.1380000000000001,0.8705,-0.42009375,-0.4050625,1.1205625000000001,0.017285969674051722,0.02108169155477475,True
21751,49945,0,49946,4550.0,43988.0,28222.0,0.001464,-0.0008539999999999999,-0.00042699999999999997,0.3325,-1.9425000000000001,-3.8850000000000002,0.903375,-0.0050625,0.10925,1.1343750000000001,0.8704375,-0.42075,-0.40568750000000003,1.11996875,0.017021897361874632,0.021099077827658002,True
21752,49946,0,49947,4549.0,43989.0,28220.0,0.000976,-0.0006709999999999999,-0.000244,0.28,-1.9075000000000002,-3.8675,0.89428125,0.0013125,0.10928125,1.1334375,0.87046875,-0.42262500000000003,-0.404375,1.1203125,0.017358392064735058,0.021047711732015258,True
21753,49947,0,49948,4547.0,43987.0,28217.0,0.000732,-0.0006709999999999999,0.000366,0.4025,-1.9075000000000002,-3.7975000000000003,0.89396875,-0.00334375,0.1085625,1.1435,0.87040625,-0.42115625,-0.405875,1.11778125,0.017108628916781943,0.021078428861903125,True
21754,49948,0,49949,4545.0,43986.0,28212.0,-6.1e-05,0.0013419999999999999,-0.0008539999999999999,0.35000000000000003,-1.8725000000000003,-3.7625,0.909625,-0.0095,0.105,1.14721875,0.86990625,-0.42096875,-0.40540625,1.1202812500000001,0.01684899375664612,0.020913655145568415,True
21755,49949,0,49950,4545.0,43984.0,28210.0,6.1e-05,0.00042699999999999997,0.000793,0.385,-1.8375000000000001,-3.6400000000000006,0.90428125,-0.00015625,0.10953125,1.1340625,0.87053125,-0.41831250000000003,-0.40525,1.12534375,0.017124698932409848,0.021093053748681125,True
21756,49950,0,49951,4542.0,43984.0,28207.0,-0.000305,6.1e-05,6.1e-05,0.3325,-1.8025000000000002,-3.6575,0.89728125,0.00234375,0.10759375,1.14765625,0.87675,-0.42309375,-0.4055,1.1101875,0.017419476187368766,0.021023693429759686,True
21757,49951,0,49952,4540.0,43983.0,28206.0,-0.000549,-0.000122,0.000305,0.2625,-1.7675,-3.7275000000000005,0.90390625,-0.00903125,0.1086875,1.13346875,0.8703125,-0.41984375,-0.4044375,1.11996875,0.01682289633814713,0.02102588924657657,True
21758,49952,0,49953,4536.0,43981.0,28203.0,-0.0015249999999999999,0.000244,0.000488,0.43750000000000006,-1.7850000000000001,-3.7975000000000003,0.89528125,-0.0065625,0.10559375,1.141875,0.86990625,-0.4215,-0.4054375,1.1193125,0.016990663964129963,0.020939237413793544,True
21759,49953,0,49954,4536.0,43981.0,28200.0,-0.001464,-0.0006709999999999999,0.000244,0.35000000000000003,-1.8200000000000003,-3.8150000000000004,0.9035,-0.00046875,0.10990625,1.13375,0.87090625,-0.4205,-0.4059375,1.12,0.017199944718576603,0.021135994058822778,True
21760,49954,0,49955,4533.0,43979.0,28199.0,-0.001586,-0.0006709999999999999,0.000183,0.4025,-1.9250000000000003,-3.8500000000000005,0.89346875,-0.0059375,0.10809375,1.1394375,0.8735937500000001,-0.42328125,-0.40575,1.11684375,0.017087947590989645,0.021054208536922654,True
21761,49955,0,49956,4529.0,43979.0,28198.0,0.00042699999999999997,0.000183,0.000488,0.43750000000000006,-1.8725000000000003,-3.9725000000000006,0.9054375,-0.008125,0.10565625000000001,1.13625,0.8714375,-0.42090625,-0.40503125,1.1206562500000001,0.0169027818122024,0.020925500761241597,True
21762,49956,0,49957,4529.0,43981.0,28200.0,0.000549,0.000244,-0.000305,0.42000000000000004,-1.995,-4.130000000000001,0.8981250000000001,-0.004125,0.1084375,1.13565625,0.871125,-0.42325,-0.40653125,1.123625,0.01716090200935584,0.021099628813496387,True
21763,49957,0,49958,4528.0,43980.0,28200.0,0.000915,6.1e-05,-0.001098,0.28,-2.0825,-4.2,0.8925000000000001,-0.00696875,0.10696875,1.13675,0.8760625,-0.42109375,-0.40571875,1.121375,0.016957676189257493,0.021006859304235816,True
21764,49958,0,49959,4526.0,43978.0,28200.0,0.00061,-0.000122,-0.000366,0.24500000000000002,-2.1700000000000004,-4.235,0.89746875,-0.0045625,0.108,1.1271875,0.86384375,-0.42,-0.41481250000000003,1.12478125,0.017012182637182634,0.021413742169840544,True
21765,49959,0,49960,4526.0,43979.0,28198.0,0.0008539999999999999,0.0,0.00042699999999999997,0.35000000000000003,-2.1350000000000002,-4.375,0.89796875,-0.00878125,0.10684375,1.1426875,0.8691875,-0.41915625,-0.404625,1.11190625,0.016805453710137915,0.020957861470930206,True
21766,49960,0,49961,4525.0,43977.0,28198.0,0.001647,0.000915,0.000549,0.2625,-2.0475000000000003,-4.4975000000000005,0.90496875,-0.0075625,0.10865625,1.13184375,0.8513125,-0.424875,-0.4083125,1.1319375,0.01708555315022083,0.021180028320269988,True
21767,49961,0,49962,4525.0,43976.0,28199.0,0.000305,0.000244,0.00061,0.21000000000000002,-2.0475000000000003,-4.4625,0.89734375,-0.00403125,0.107125,1.1417187500000001,0.89471875,-0.428375,-0.40975,1.1094375,0.017370936462208397,0.021174940341461914,True
21768,49962,0,49963,4523.0,43978.0,28198.0,0.0011589999999999999,-6.1e-05,-0.000305,0.28,-2.1175,-4.4975000000000005,0.9055,-0.00478125,0.1085,1.13484375,0.8599687500000001,-0.43012500000000004,-0.41084375,1.13303125,0.017410625201467453,0.021275124912468458,True
21769,49963,0,49964,4523.0,43977.0,28200.0,0.00061,6.1e-05,-0.00061,0.28,-2.0825,-4.3925,0.8984062500000001,-0.004875,0.1069375,1.1428125,0.8795937500000001,-0.42334375,-0.40484375,1.10415625,0.017133966351351868,0.020970478452663723,True
21770,49964,0,49965,4523.0,43979.0,28202.0,0.0,0.000244,-0.000122,0.29750000000000004,-2.1,-4.322500000000001,0.90015625,-0.00790625,0.11128125,1.1400625,0.85740625,-0.4166875,-0.40040625,1.10928125,0.016741879913071748,0.020970450030929302,True
21771,49965,0,49966,4521.0,43977.0,28202.0,0.0008539999999999999,0.000976,-0.0006709999999999999,0.35000000000000003,-1.995,-4.375,0.9050625,-0.00234375,0.11156250000000001,1.13584375,0.85684375,-0.41590625000000003,-0.4,1.13090625,0.016938240824052972,0.0209656762295082,True
21772,49966,0,49967,4524.0,43977.0,28201.0,-0.000244,-0.000488,0.0,0.43750000000000006,-2.0300000000000002,-4.322500000000001,0.89771875,-0.00384375,0.1084375,1.13525,0.88734375,-0.42921875,-0.4123125,1.131625,0.017412550288780724,0.021331449038267065,True
21773,49967,0,49968,4524.0,43976.0,28201.0,0.0006709999999999999,-0.0008539999999999999,0.000366,0.29750000000000004,-1.9425000000000001,-4.2875000000000005,0.89715625,-0.004125,0.1084375,1.13584375,0.8789375,-0.42846875,-0.417375,1.1455,0.017370869797150097,0.021534358218276945,True
21774,49968,0,49969,4524.0,43977.0,28201.0,0.000976,-0.000732,-6.1e-05,0.22750000000000004,-1.995,-4.2525,0.89825,-0.00403125,0.108375,1.1360000000000001,0.89609375,-0.42653125000000003,-0.41265625,1.1320625,0.0172967661955686,0.021342669337753854,True
21775,49969,0,49970,4525.0,43978.0,28204.0,0.00061,0.000122,-0.000305,0.3325,-1.8200000000000003,-4.130000000000001,0.89746875,-0.0043125,0.10778125000000001,1.13546875,0.8901875,-0.43009375,-0.4108125,1.136625,0.0174285557131765,0.02124442805826312,True
21776,49970,0,49971,4522.0,43978.0,28203.0,0.000488,-0.000732,-0.00042699999999999997,0.28,-1.7850000000000001,-4.095000000000001,0.88865625,-0.00465625,0.1070625,1.142625,0.88275,-0.42471875000000003,-0.40315625,1.1150625,0.017198253306396825,0.02090789997707776,True
21777,49971,0,49972,4523.0,43977.0,28203.0,0.000366,-0.000305,-0.000244,0.29750000000000004,-1.5575,-4.112500000000001,0.9063125,-0.008,0.105375,1.13675,0.8688125,-0.418125,-0.402,1.11678125,0.016795925158053702,0.020792353085812638,True
21778,49972,0,49973,4525.0,43979.0,28204.0,-0.00183,0.000793,0.0,0.35000000000000003,-1.435,-4.0600000000000005,0.8980312500000001,-0.0036875000000000002,0.10721875,1.13725,0.8664375,-0.42221875000000003,-0.40659375000000003,1.128625,0.017137314765883014,0.021052200289112446,True
21779,49973,0,49974,4525.0,43978.0,28203.0,-0.0023179999999999997,0.0006709999999999999,-0.00061,0.3325,-1.4175000000000002,-3.9725000000000006,0.90590625,-0.0070625,0.10575,1.13571875,0.87634375,-0.42159375,-0.40471875,1.1205625000000001,0.01697396387162488,0.020916805279716653,True
21780,49974,0,49975,4524.0,43978.0,28204.0,-0.0006709999999999999,0.000488,-0.000488,0.36750000000000005,-1.4000000000000001,-3.99,0.89771875,-0.0045000000000000005,0.108,1.14040625,0.8705,-0.4214375,-0.407875,1.1279375,0.017072602708173915,0.021135596605603723,True
21781,49975,0,49976,4523.0,43976.0,28201.0,0.0006709999999999999,-0.000488,0.00042699999999999997,0.35000000000000003,-1.435,-3.9375000000000004,0.90196875,-0.00365625,0.108,1.1240937500000001,0.86634375,-0.420125,-0.40578125,1.1106562500000001,0.01705432506999862,0.021051620709744742,True
21782,49976,0,49977,4522.0,43976.0,28201.0,0.0017079999999999999,-0.00061,0.000122,0.31500000000000006,-1.5575,-3.9550000000000005,0.88825,-0.0054062500000000005,0.10703125000000001,1.1263125,0.879375,-0.42231250000000004,-0.40165625,1.12759375,0.017070711465181687,0.0208464333235577,True
21783,49977,0,49978,4523.0,43977.0,28203.0,0.002013,0.0006709999999999999,-0.000366,0.47250000000000003,-1.5050000000000001,-3.8675,0.898,-0.00471875,0.108,1.135125,0.86740625,-0.42375,-0.40865625,1.1278125,0.017156712216592457,0.021166927204360135,True
21784,49978,0,49979,4523.0,43979.0,28203.0,-0.000183,0.00042699999999999997,0.000122,0.45500000000000007,-1.33,-3.7100000000000004,0.8975625,-0.0059375,0.11184375,1.1260000000000001,0.8783125,-0.42425,-0.4088125,1.1279375,0.017126933273283726,0.021330666946620204,True
21785,49979,0,49980,4524.0,43978.0,28204.0,-0.0018909999999999999,6.1e-05,0.0008539999999999999,0.5075000000000001,-1.3475000000000001,-3.6400000000000006,0.89975,-0.0085625,0.1058125,1.1420937500000001,0.87896875,-0.4225,-0.4048125,1.1202812500000001,0.01694902241785239,0.02092312735449207,True
21786,49980,0,49981,4523.0,43978.0,28201.0,-0.002806,6.1e-05,-0.000305,0.47250000000000003,-1.3650000000000002,-3.5525,0.89234375,-0.0039375,0.108875,1.135875,0.85865625,-0.42128125,-0.40646875,1.11803125,0.017089347021872574,0.0211150476244131,True
21787,49981,0,49982,4523.0,43978.0,28201.0,-0.00183,0.000549,0.00122,0.5425000000000001,-1.3475000000000001,-3.5700000000000003,0.88434375,-0.0048125,0.10765625000000001,1.12421875,0.8719687500000001,-0.42203125,-0.40728125,1.127,0.017083703879053877,0.021097700097178994,True
21788,49982,0,49983,4524.0,43978.0,28202.0,-0.00042699999999999997,-0.000122,-6.1e-05,0.28,-1.6800000000000002,-3.535,0.90178125,-0.0033125,0.10634375,1.1534375000000001,0.8768750000000001,-0.4240625,-0.40725,1.121,0.017226863876556163,0.021042671747124316,True
21789,49983,0,49984,4523.0,43981.0,28203.0,0.002379,-0.000976,-0.000732,0.24500000000000002,-1.7325000000000002,-3.6050000000000004,0.90271875,-0.0114375,0.10178125,1.1508125,0.87809375,-0.42284375,-0.40796875,1.11290625,0.0168451411396349,0.020884572789368228,True
21790,49984,0,49985,4523.0,43978.0,28202.0,0.0006709999999999999,-0.000793,0.000183,0.385,-1.8725000000000003,-3.5175000000000005,0.8954375,-0.002875,0.11043750000000001,1.1304375,0.8698125,-0.4205625,-0.40521875,1.1196875,0.01710392625067502,0.021128933744959777,True
21791,49985,0,49986,4522.0,43979.0,28202.0,0.001647,-0.000366,-0.001403,0.42000000000000004,-1.7325000000000002,-3.535,0.89190625,-0.0024375,0.11321875,1.1315625,0.87059375,-0.42159375,-0.40618750000000003,1.1193125,0.017163345451195217,0.021281744639550935,True
21792,49986,0,49987,4523.0,43980.0,28202.0,0.00042699999999999997,-0.00122,0.0,0.35000000000000003,-1.6975000000000002,-3.6050000000000004,0.8919375,0.002375,0.11046875,1.1301875000000001,0.861,-0.4214375,-0.405625,1.1125625000000001,0.01735411766813481,0.02114650823324541,True
21793,49987,0,49988,4524.0,43979.0,28203.0,-0.000793,0.000122,0.0,0.35000000000000003,-1.54,-3.5175000000000005,0.89165625,-0.0018437500000000001,0.1141875,1.1299062500000001,0.87090625,-0.4211875,-0.406,1.1213125,0.01717130872526162,0.0213139187085143,True
21794,49988,0,49989,4526.0,43978.0,28205.0,-0.000122,0.000732,0.000183,0.5075000000000001,-1.4525000000000001,-3.535,0.89115625,-0.0045000000000000005,0.1105,1.1306875,0.86971875,-0.42203125,-0.4055625,1.1203125,0.017096499702497107,0.021145281941360703,True
21795,49989,0,49990,4524.0,43980.0,28204.0,-0.001098,0.000793,-0.00042699999999999997,0.43750000000000006,-1.5925000000000002,-3.43,0.89146875,-0.0032187500000000003,0.11003125,1.128875,0.8703125,-0.42128125,-0.4078125,1.122625,0.01711877831962645,0.021216311375712185,True
21796,49990,0,49991,4526.0,43981.0,28205.0,-0.0008539999999999999,0.0006709999999999999,0.000976,0.36750000000000005,-1.4700000000000002,-3.6225000000000005,0.89715625,-0.01265625,0.10053125,1.1475625,0.8768750000000001,-0.42334375,-0.407375,1.120875,0.016815367469902642,0.02080954014923768,True
21797,49991,0,49992,4526.0,43979.0,28205.0,-0.000915,0.0006709999999999999,0.000488,0.385,-1.4875,-3.7275000000000005,0.89046875,-0.0023125,0.110625,1.13078125,0.867,-0.4209375,-0.40453125,1.119625,0.017142052797932104,0.02110904096959453,True
21798,49992,0,49993,4527.0,43982.0,28205.0,0.0006709999999999999,-6.1e-05,0.000122,0.43750000000000006,-1.3650000000000002,-3.6225000000000005,0.89115625,-0.01375,0.1041875,1.14103125,0.87015625,-0.423375,-0.40625,1.12140625,0.01677184254837835,0.020914212548015364,True
21799,49993,0,49994,4528.0,43979.0,28206.0,-0.0015249999999999999,0.000488,0.000183,0.47250000000000003,-1.5225000000000002,-3.7275000000000005,0.8991250000000001,-0.0026875000000000002,0.1115,1.13103125,0.87065625,-0.420875,-0.4055625,1.120125,0.017124181668347265,0.021186256206961015,True
21800,49994,0,49995,4529.0,43980.0,28209.0,0.0,-0.000244,0.000122,0.45500000000000007,-1.5750000000000002,-3.7625,0.8911875,-0.00665625,0.10321875,1.13715625,0.86446875,-0.42303125,-0.408625,1.1206875,0.01704845707880753,0.020969790391716044,True
21801,49995,0,49996,4530.0,43982.0,28208.0,-0.000549,-0.0008539999999999999,0.000366,0.36750000000000005,-1.5050000000000001,-3.8150000000000004,0.8951250000000001,0.0025,0.10959375,1.1390625,0.86965625,-0.42203125,-0.40571875,1.125875,0.017383126147625418,0.021114416062833638,True
21802,49996,0,49997,4531.0,43982.0,28208.0,0.000366,-0.001403,-0.000244,0.29750000000000004,-1.5750000000000002,-3.8150000000000004,0.90246875,-0.007125,0.1070625,1.139875,0.87871875,-0.42225,-0.4049375,1.11990625,0.016997819611215183,0.020979361246059328,True
21803,49997,0,49998,4532.0,43983.0,28213.0,-0.000305,-0.0008539999999999999,-0.0006709999999999999,0.29750000000000004,-1.5925000000000002,-3.9375000000000004,0.89775,-0.00471875,0.10759375,1.14253125,0.87,-0.42134375,-0.4081875,1.12715625,0.01705987206375571,0.021131485080569785,True
21804,49998,0,49999,4533.0,43985.0,28211.0,-0.001098,0.0,6.1e-05,0.31500000000000006,-1.8200000000000003,-4.112500000000001,0.90496875,-0.00428125,0.10734375,1.14384375,0.87009375,-0.4215,-0.40540625,1.12753125,0.01708407550723747,0.021009689195401124,True
21805,49999,0,50000,4532.0,43981.0,28213.0,0.0008539999999999999,0.001281,0.000976,0.35000000000000003,-1.8550000000000002,-4.1825,0.89884375,-0.0080625,0.109,1.13684375,0.8709687500000001,-0.42131250000000003,-0.405375,1.1201875000000001,0.016921694933472557,0.02107629979051746,True
21806,50000,0,50001,4533.0,43985.0,28213.0,0.000732,0.000915,0.000122,0.385,-2.1350000000000002,-4.2700000000000005,0.89859375,-0.0044687500000000005,0.10446875,1.14365625,0.87015625,-0.421625,-0.4078125,1.12121875,0.017081428856597382,0.02098841303373664,True
21807,50001,0,50002,4534.0,43982.0,28214.0,0.002257,0.000488,-0.00122,0.31500000000000006,-2.1700000000000004,-4.3925,0.90509375,-0.00428125,0.10809375,1.1358125000000001,0.86984375,-0.421125,-0.405625,1.1204687500000001,0.017068982284804652,0.02104919460165433,True
21808,50002,0,50003,4535.0,43983.0,28217.0,0.00042699999999999997,0.000122,-0.000183,0.3325,-2.1,-4.357500000000001,0.8978125,-0.00609375,0.10553125000000001,1.135125,0.8755000000000001,-0.42440625,-0.40715625,1.1210625,0.017126823707331675,0.021005622070371266,True
21809,50003,0,50004,4537.0,43984.0,28219.0,0.00042699999999999997,-0.000305,0.000183,0.28,-2.0475000000000003,-4.357500000000001,0.90296875,-0.0046875,0.1079375,1.13615625,0.8695625,-0.42153125,-0.40534375,1.1200625,0.017068698343802664,0.0210315107731273,True
21810,50004,0,50005,4538.0,43984.0,28219.0,-0.00042699999999999997,-0.0008539999999999999,0.00061,0.29750000000000004,-2.1350000000000002,-4.235,0.89815625,-0.000625,0.11334375000000001,1.13934375,0.86625,-0.42353125,-0.4090625,1.12803125,0.01731552434703725,0.021402143158918942,True
21811,50005,0,50006,4538.0,43987.0,28221.0,-6.1e-05,0.000122,-0.000366,0.28,-2.1700000000000004,-4.2700000000000005,0.90175,-0.0083125,0.10596875,1.1435,0.8726875000000001,-0.42425,-0.40596875,1.12034375,0.017029693849350543,0.020975913934987725,True
21812,50006,0,50007,4539.0,43985.0,28219.0,0.0006709999999999999,-0.000122,0.000732,0.17500000000000002,-2.1525000000000003,-4.2,0.9015625,-0.00403125,0.10775,1.13578125,0.87040625,-0.420875,-0.4030625,1.12034375,0.017069157022424463,0.02093231126216228,True
21813,50007,0,50008,4541.0,43986.0,28221.0,0.000183,-0.0008539999999999999,0.000488,0.28,-2.1700000000000004,-4.235,0.89825,-0.00840625,0.107625,1.13625,0.8777812500000001,-0.42428125,-0.40471875,1.1201875000000001,0.017027113131527667,0.020993634683866207,True
21814,50008,0,50009,4542.0,43987.0,28223.0,-0.000244,0.0,-0.0008539999999999999,0.1925,-2.1875,-4.41,0.8844375,-0.00509375,0.105375,1.14040625,0.87028125,-0.42262500000000003,-0.40718750000000004,1.1208125,0.01709608406139799,0.02100047373340333,True
21815,50009,0,50010,4542.0,43985.0,28223.0,-0.00122,-0.000244,-0.000366,0.1925,-2.2225,-4.375,0.8986875,-0.005125,0.10784375,1.1398125000000001,0.8707812500000001,-0.4165625,-0.4083125,1.1280000000000001,0.016850754482740968,0.02114674048031792,True
21816,50010,0,50011,4544.0,43986.0,28226.0,-6.1e-05,-0.000915,0.0006709999999999999,0.22750000000000004,-2.3625000000000003,-4.340000000000001,0.9042187500000001,-0.00471875,0.10790625000000001,1.135375,0.8730625,-0.4201875,-0.40540625,1.12590625,0.01701333169534427,0.021032737367360974,True
21817,50011,0,50012,4542.0,43988.0,28226.0,0.0030499999999999998,0.0015249999999999999,-0.0008539999999999999,0.31500000000000006,-2.4675000000000002,-4.375,0.90153125,-0.0004375,0.10675,1.137,0.87771875,-0.42084375,-0.40465625,1.11978125,0.017215058345393986,0.020955273647831035,True
21818,50012,0,50013,4547.0,43988.0,28227.0,0.004148,0.0006709999999999999,0.00061,0.2625,-2.345,-4.375,0.89409375,-0.00690625,0.10615625000000001,1.13625,0.87328125,-0.42240625,-0.4010625,1.11965625,0.01701306561469552,0.020786748527856117,True
21819,50013,0,50014,4547.0,43990.0,28229.0,0.001464,-0.000366,0.000366,0.24500000000000002,-2.0125,-4.130000000000001,0.89878125,-0.0015625,0.10678125000000001,1.1375,0.8719687500000001,-0.42171875000000003,-0.40465625,1.1199375,0.01720420476138683,0.020956554141179515,True
21820,50014,0,50015,4548.0,43991.0,28228.0,0.000122,-0.000549,-0.000915,0.24500000000000002,-1.7675,-4.1475,0.89746875,-0.0038125,0.10796875,1.13621875,0.87034375,-0.421,-0.4063125,1.12678125,0.01708314565333115,0.021071648984253562,True
21821,50015,0,50016,4549.0,43990.0,28230.0,-0.00183,0.00042699999999999997,-0.001403,0.2625,-1.5750000000000002,-4.112500000000001,0.9002187500000001,-0.00521875,0.10865625,1.13671875,0.87628125,-0.42053125,-0.405375,1.12,0.017006693906382566,0.021062214778506783,True
21822,50016,0,50017,4550.0,43991.0,28228.0,-0.001403,0.000244,0.000732,0.4025,-1.5575,-4.0425,0.89471875,-0.0037187500000000003,0.1085625,1.13578125,0.8705,-0.42153125,-0.40846875,1.12803125,0.017108366208609463,0.021182453323705528,True
21823,50017,0,50018,4551.0,43989.0,28231.0,-0.002257,-0.000122,-0.000183,0.385,-1.4875,-3.9025000000000003,0.90065625,-0.00671875,0.108,1.13684375,0.86565625,-0.42071875000000003,-0.405,1.12021875,0.016952817983704925,0.021020282728948986,True
21824,50018,0,50019,4552.0,43990.0,28232.0,-0.001403,-0.000793,0.0006709999999999999,0.3325,-1.5050000000000001,-4.025,0.89334375,-0.005,0.109,1.134625,0.87225,-0.42440625,-0.411375,1.1346875,0.017171604734506084,0.021316906565074685,True
21825,50019,0,50020,4553.0,43992.0,28229.0,-0.000366,-0.0006709999999999999,0.000366,0.42000000000000004,-1.54,-3.9725000000000006,0.899625,-0.0073750000000000005,0.106875,1.140125,0.8737812500000001,-0.4211875,-0.4035,1.119125,0.016944814825241402,0.020914008236523448,True
21826,50020,0,50021,4553.0,43989.0,28229.0,0.000122,-0.000305,0.00042699999999999997,0.31500000000000006,-1.715,-3.9200000000000004,0.8981250000000001,-0.0044687500000000005,0.108,1.1348125,0.8671562500000001,-0.4211875,-0.40278125000000004,1.13109375,0.01706382009474355,0.02093127192212978,True
