frame_seq,absolute_seq_u64,segment_id,sample_seq,PPG_G,PPG_R,PPG_IR,ACC_X,ACC_Y,ACC_Z,GYRO_X,GYRO_Y,GYRO_Z,Uh1,Uh2,Uh3,Uh4,Uc1,Uc2,Uc3,Uc4,UD1,UD2,parser_valid
17439,111169,0,111170,4306.0,42157.0,27395.0,-0.003172,-0.000183,0.000488,0.35000000000000003,-1.2075,-3.8500000000000005,0.696375,-0.2525625,0.30693750000000003,0.96509375,0.67671875,-0.67590625,-0.26321875,0.94246875,0.017156158145154244,0.02349878867576051,True
17440,111170,0,111171,4307.0,42160.0,27398.0,-0.001037,0.002013,0.0015249999999999999,0.7525000000000001,-1.54,-3.8500000000000005,0.68940625,-0.2494375,0.310875,0.97578125,0.66178125,-0.68765625,-0.280375,0.9764375000000001,0.01775052056632553,0.024350941861482785,True
17441,111171,0,111172,4307.0,42160.0,27400.0,0.000915,0.0021349999999999997,0.001037,0.6125,-1.715,-3.8325000000000005,0.6980000000000001,-0.2516875,0.31025,0.97609375,0.6629375000000001,-0.67484375,-0.26490625,0.9455625,0.017149298057865105,0.023703213359829077,True
17442,111172,0,111173,4311.0,42162.0,27401.0,0.002379,0.002562,-0.0015249999999999999,0.47250000000000003,-2.0125,-3.8325000000000005,0.69125,-0.24946875000000002,0.31028125,0.979125,0.67840625,-0.6838125,-0.27940625,0.95265625,0.017596299194056836,0.024287558514739214,True
17443,111173,0,111174,4309.0,42164.0,27404.0,0.003843,0.000793,-0.001647,0.35000000000000003,-2.0475000000000003,-3.8325000000000005,0.70053125,-0.25221875,0.30746875,0.976375,0.65253125,-0.67475,-0.26440625,0.9618125000000001,0.017124033678152767,0.023568472853111748,True
17444,111174,0,111175,4312.0,42162.0,27408.0,0.0017079999999999999,-0.001464,0.001037,0.2625,-1.8025000000000002,-3.7800000000000002,0.69053125,-0.24971875000000002,0.31093750000000003,0.97384375,0.66815625,-0.6805625,-0.27159375,0.95825,0.017456804317162542,0.024000535605536822,True
17445,111175,0,111176,4312.0,42164.0,27408.0,0.0015249999999999999,-0.003355,-0.000915,0.08750000000000001,-1.5575,-3.6225000000000005,0.6883125,-0.24790625,0.3075625,0.97621875,0.665625,-0.67665625,-0.26721875,0.958875,0.017374720288531795,0.02368550166054773,True
17446,111176,0,111177,4312.0,42167.0,27407.0,-0.000732,-0.0028669999999999998,-0.0011589999999999999,0.0175,-1.2950000000000002,-3.5875000000000004,0.69765625,-0.25059375,0.3096875,0.97440625,0.6655625000000001,-0.681,-0.27415625,0.95996875,0.017438768688464813,0.02405207184080806,True
17447,111177,0,111178,4313.0,42167.0,27411.0,-0.001037,-0.002745,0.000183,0.12250000000000001,-1.1375000000000002,-3.6400000000000006,0.6910000000000001,-0.24875,0.30846875,0.9803125,0.663,-0.6784375,-0.26728125,0.9505625,0.017411454837851868,0.02372536066437191,True
17448,111178,0,111179,4315.0,42173.0,27413.0,-0.0025009999999999998,-0.000305,0.0,0.385,-1.225,-3.7450000000000006,0.69853125,-0.25003125,0.30978125,0.97496875,0.6614375,-0.6793750000000001,-0.2740625,0.9575625,0.017396864790943857,0.02405216473344748,True
17449,111179,0,111180,4315.0,42172.0,27413.0,-0.0025009999999999998,0.000244,0.000488,0.6825000000000001,-1.2075,-3.7275000000000005,0.696875,-0.2515625,0.30828125,0.98021875,0.6514375,-0.67778125,-0.27,0.96434375,0.017271356192121202,0.023826998351874747,True
17450,111180,0,111181,4317.0,42176.0,27412.0,-0.000183,0.0040869999999999995,-0.000244,1.05,-1.2600000000000002,-3.7450000000000006,0.693375,-0.24996875000000002,0.3095,0.9740625,0.6604375,-0.682,-0.27465625,0.95915625,0.01750389960294952,0.024064449934280734,True
17451,111181,0,111182,4318.0,42175.0,27416.0,-0.00061,0.004514,-0.000976,0.9800000000000001,-1.2425000000000002,-3.6925000000000003,0.6966875,-0.25134375000000003,0.309625,0.97471875,0.6625625,-0.6775,-0.27378125000000003,0.9651875,0.017269020362678553,0.02403441985372592,True
17452,111182,0,111183,4318.0,42176.0,27417.0,-0.000366,0.0035989999999999998,-6.1e-05,0.7875000000000001,-1.1375000000000002,-3.5700000000000003,0.6894375,-0.25134375000000003,0.308125,0.97528125,0.66325,-0.6795,-0.269625,0.9636250000000001,0.017348659818878013,0.02380547701087264,True
17453,111183,0,111184,4320.0,42177.0,27419.0,0.000305,0.00042699999999999997,0.001647,0.45500000000000007,-1.0675000000000001,-3.4650000000000003,0.6910625,-0.25003125,0.308375,0.9805625,0.672625,-0.67825,-0.26796875000000003,0.95246875,0.017352071155774824,0.02374915494317999,True
17454,111184,0,111185,4318.0,42179.0,27422.0,0.001037,-0.001403,0.0023179999999999997,-0.052500000000000005,-1.05,-3.4475000000000002,0.6946875,-0.24990625,0.3086875,0.97509375,0.66196875,-0.68121875,-0.2733125,0.9586250000000001,0.017475332331390644,0.02397694999394912,True
17455,111185,0,111186,4321.0,42184.0,27426.0,0.001647,-0.0030499999999999998,-0.00244,-0.4025,-1.1900000000000002,-3.43,0.69146875,-0.2523125,0.307,0.9818125,0.66309375,-0.6781875,-0.2703125,0.9585,0.017257142567702756,0.023786776540269106,True
17456,111186,0,111187,4318.0,42186.0,27431.0,0.001647,-0.003843,-0.0023179999999999997,-0.2625,-1.0850000000000002,-3.6050000000000004,0.68940625,-0.24984375,0.308625,0.97371875,0.6721875,-0.68159375,-0.272875,0.9606250000000001,0.017492792579490535,0.02395678303456018,True
17457,111187,0,111188,4316.0,42191.0,27437.0,-0.001403,-0.0026839999999999998,-0.000976,-0.12250000000000001,-0.805,-3.7275000000000005,0.6919062500000001,-0.23996875,0.30378125,0.98359375,0.663375,-0.6766875,-0.26825,0.964875,0.01769762452922419,0.023571178391519787,True
17458,111188,0,111189,4312.0,42192.0,27436.0,-0.0025009999999999998,-0.000244,0.0006709999999999999,0.07,-0.525,-3.6925000000000003,0.6880937500000001,-0.248375,0.30759375,0.98965625,0.66403125,-0.67884375,-0.2725625,0.96246875,0.01744282488923331,0.023901730606317315,True
17459,111189,0,111190,4310.0,42194.0,27438.0,-0.003111,0.0008539999999999999,0.0021349999999999997,0.35000000000000003,-0.36750000000000005,-3.5875000000000004,0.7029062500000001,-0.24790625,0.3105,0.9753437500000001,0.665875,-0.6812812500000001,-0.27296875,0.95834375,0.01755885343270014,0.02403779924942226,True
17460,111190,0,111191,4306.0,42196.0,27439.0,-0.0026839999999999998,0.0025009999999999998,0.0011589999999999999,0.6300000000000001,-0.6125,-3.6225000000000005,0.7096250000000001,-0.2574375,0.30853125,0.9575625,0.66334375,-0.680875,-0.27571875,0.94665625,0.01715650275770207,0.024067258564692343,True
17461,111191,0,111192,4302.0,42197.0,27439.0,-0.001647,0.001281,0.00042699999999999997,0.525,-0.77,-3.6750000000000003,0.69296875,-0.25659375,0.3085,0.9719375,0.66346875,-0.68009375,-0.27615625,0.96478125,0.017159578253222802,0.02408355935672477,True
17462,111192,0,111193,4300.0,42196.0,27439.0,-6.1e-05,0.0008539999999999999,0.000549,0.49000000000000005,-0.9100000000000001,-3.6575,0.681,-0.24853125,0.31090625,0.9851875,0.6635625,-0.673,-0.2725625,0.9589375,0.017203775381996515,0.02403820157018856,True
17463,111193,0,111194,4295.0,42195.0,27438.0,0.0017079999999999999,-0.000549,-0.00061,0.4025,-1.1900000000000002,-3.6575,0.70740625,-0.25540625,0.30559375,0.9688125,0.6649375,-0.68121875,-0.2765,0.9605,0.017252490823614616,0.023977663584124568,True
17464,111194,0,111195,4294.0,42194.0,27437.0,0.0040869999999999995,-0.00042699999999999997,0.000305,0.1925,-1.3475000000000001,-3.6925000000000003,0.68496875,-0.24834375,0.30893750000000003,0.9624375000000001,0.66259375,-0.6783125,-0.27425,0.958375,0.017422939676284593,0.02402494412803691,True
17465,111195,0,111196,4293.0,42192.0,27437.0,0.005246,-0.000244,0.0015249999999999999,0.17500000000000002,-1.1375000000000002,-3.6750000000000003,0.6835625,-0.24815625,0.30828125,0.96503125,0.6630625,-0.67825,-0.27228125000000003,0.95746875,0.01742804899050784,0.023918744761578604,True
17466,111196,0,111197,4291.0,42193.0,27435.0,0.004575,-0.00122,-0.002196,0.07,-1.0150000000000001,-3.7275000000000005,0.684125,-0.24684375,0.31040625,0.96896875,0.6628125,-0.67840625,-0.27421875,0.958375,0.01748745423947302,0.024084194264748476,True
17467,111197,0,111198,4290.0,42194.0,27433.0,0.000488,6.1e-05,-0.002562,-0.10500000000000001,-0.7875000000000001,-3.8500000000000005,0.682875,-0.24465625,0.30746875,0.969,0.662875,-0.67896875,-0.27453125,0.95725,0.01759848656561065,0.023975746184594197,True
17468,111198,0,111199,4288.0,42195.0,27432.0,-0.002806,-0.00061,-0.00061,0.14,-0.2625,-3.8150000000000004,0.68534375,-0.2466875,0.3075,0.95878125,0.6635,-0.67915625,-0.2704375,0.95821875,0.017523644067045447,0.023812405524210267,True
17469,111199,0,111200,4285.0,42191.0,27430.0,-0.007076,-0.000183,0.0046359999999999995,0.35000000000000003,0.12250000000000001,-3.5700000000000003,0.6845,-0.2518125,0.2986875,0.9745,0.66296875,-0.678125,-0.2754375,0.96615625,0.017274914524502975,0.023650449142265717,True
17470,111200,0,111201,4284.0,42191.0,27431.0,-0.0059169999999999995,6.1e-05,0.00244,0.49000000000000005,-0.17500000000000002,-3.5000000000000004,0.68565625,-0.2485625,0.30993750000000003,0.97640625,0.671875,-0.67490625,-0.2755,0.95796875,0.017278434441873516,0.024116393071203477,True
17471,111201,0,111202,4285.0,42191.0,27428.0,-0.002745,-0.000244,-0.000549,0.4025,-0.7350000000000001,-3.6225000000000005,0.69396875,-0.2474375,0.305125,0.9751875,0.662875,-0.67790625,-0.27815625,0.96521875,0.017443487532496808,0.024024940114634942,True
17472,111202,0,111203,4283.0,42193.0,27426.0,0.002379,0.000549,-0.001769,0.29750000000000004,-0.9800000000000001,-3.7800000000000002,0.6969375,-0.252375,0.30434375,0.97409375,0.66309375,-0.6774687500000001,-0.277125,0.95896875,0.017225986761709507,0.0239513018942729,True
17473,111203,0,111204,4282.0,42192.0,27429.0,0.003355,0.000793,-0.0013419999999999999,0.28,-1.1725,-3.9725000000000006,0.6903125,-0.24928125,0.30509375,0.9815,0.66625,-0.675,-0.27584375,0.9573125,0.017253039513677813,0.02393068212098704,True
17474,111204,0,111205,4283.0,42193.0,27430.0,0.002989,-0.001037,6.1e-05,0.15750000000000003,-1.225,-3.7625,0.697875,-0.25209375,0.30128125,0.97646875,0.662625,-0.67859375,-0.27728125,0.96378125,0.0172821840790665,0.02383143705599242,True
17475,111205,0,111206,4282.0,42194.0,27431.0,0.0026839999999999998,-0.001769,-0.0008539999999999999,0.12250000000000001,-1.4000000000000001,-3.7800000000000002,0.6910625,-0.2495,0.3045,0.980125,0.6730625,-0.68178125,-0.27665625,0.95809375,0.01751418366533007,0.02393889191391422,True
17476,111206,0,111207,4284.0,42195.0,27432.0,0.003904,-0.0008539999999999999,-0.0025009999999999998,0.17500000000000002,-1.5050000000000001,-3.9375000000000004,0.697125,-0.25221875,0.30171875,0.9748125,0.6638437500000001,-0.6778125,-0.2780625,0.96659375,0.017246007927161293,0.023880869818174326,True
17477,111207,0,111208,4282.0,42198.0,27433.0,0.004697,0.000793,-0.001769,0.17500000000000002,-1.2600000000000002,-4.0425,0.6900937500000001,-0.25084375000000003,0.3034375,0.97484375,0.6704687500000001,-0.681625,-0.2798125,0.9665625,0.01745352058464546,0.024022014173297263,True
17478,111208,0,111209,4283.0,42199.0,27435.0,0.000183,0.0013419999999999999,-0.00061,0.385,-0.6475000000000001,-3.9550000000000005,0.69121875,-0.2455,0.300875,0.977875,0.66428125,-0.678125,-0.27768750000000003,0.9520937500000001,0.017530707863745724,0.02383103827331166,True
17479,111209,0,111210,4283.0,42201.0,27438.0,-0.0015249999999999999,-0.001647,0.0026839999999999998,0.5425000000000001,1.2075,-3.6575,0.6958125000000001,-0.249875,0.3025625,0.9753437500000001,0.6680625,-0.68184375,-0.27978125,0.96540625,0.017501478186774437,0.02398471979643556,True
17480,111210,0,111211,4284.0,42202.0,27436.0,-0.009577,0.000976,0.001647,0.6125,0.9275000000000001,-3.7450000000000006,0.69075,-0.2503125,0.30359375,0.9765312500000001,0.66259375,-0.6808125,-0.27309375,0.9516875,0.017442699668011336,0.02375830233836591,True
17481,111211,0,111212,4285.0,42200.0,27436.0,-0.009882,0.002562,0.0023179999999999997,0.5775,0.7000000000000001,-3.6050000000000004,0.69640625,-0.2520625,0.29953125,0.9815,0.66346875,-0.678625,-0.27809375000000003,0.95878125,0.01728469475102442,0.0237920244459061,True
17482,111212,0,111213,4286.0,42201.0,27437.0,-0.005612,-6.1e-05,0.003904,0.5950000000000001,0.43750000000000006,-3.43,0.6900000000000001,-0.2469375,0.302375,0.975375,0.65928125,-0.6812812500000001,-0.28075,0.95396875,0.017598103826153677,0.024015938552145216,True
17483,111213,0,111214,4285.0,42202.0,27436.0,-6.1e-05,-0.001647,0.001647,0.35000000000000003,-0.14,-3.3950000000000005,0.68803125,-0.2495625,0.29975,0.9833437500000001,0.6626875,-0.6759375,-0.27821875,0.95803125,0.01727897876220508,0.023806060730876315,True
17484,111214,0,111215,4285.0,42204.0,27438.0,0.005063,-0.000976,-0.004392,-0.17500000000000002,-1.2950000000000002,-4.0075,0.6978125000000001,-0.25075000000000003,0.30175,0.9755312500000001,0.6630625,-0.6810625,-0.28075,0.96509375,0.01743492606932947,0.02399019799635514,True
17485,111215,0,111216,4284.0,42205.0,27442.0,0.005978,-0.001403,-0.0018909999999999999,-0.10500000000000001,-1.225,-4.077500000000001,0.6843750000000001,-0.24971875000000002,0.30071875,0.978125,0.6636562500000001,-0.6723125,-0.2789375,0.95809375,0.01712825865025826,0.023874860668841046,True
17486,111216,0,111217,4285.0,42209.0,27441.0,0.0035989999999999998,-0.0008539999999999999,-0.0008539999999999999,0.17500000000000002,-1.05,-3.9200000000000004,0.6879375,-0.25378125,0.30109375,0.97490625,0.65575,-0.67484375,-0.2818125,0.963875,0.01706444443037253,0.024005878885688618,True
17487,111217,0,111218,4285.0,42211.0,27446.0,-0.000183,-0.00042699999999999997,0.00042699999999999997,0.3325,-0.8225000000000001,-3.7625,0.69159375,-0.24865625,0.29721875000000003,0.98175,0.654875,-0.67521875,-0.27121875,0.95903125,0.017287080788290884,0.023420228949154027,True
17488,111218,0,111219,4284.0,42210.0,27445.0,-0.0015249999999999999,0.0011589999999999999,0.002013,0.6475000000000001,-0.49000000000000005,-3.7975000000000003,0.69240625,-0.24971875000000002,0.3076875,0.97475,0.6716875,-0.680125,-0.2820625,0.95803125,0.01743938695610334,0.024287475579967726,True
17489,111219,0,111220,4283.0,42214.0,27443.0,-0.0026839999999999998,0.0017079999999999999,0.0008539999999999999,0.6475000000000001,-0.6125,-3.8325000000000005,0.6969062500000001,-0.25325000000000003,0.3055625,0.9744375000000001,0.6634375,-0.6784687500000001,-0.28175,0.95921875,0.017230353888954313,0.024187404120378474,True
17490,111220,0,111221,4284.0,42212.0,27443.0,-0.001769,0.000793,0.000122,0.42000000000000004,-0.6825000000000001,-3.7625,0.69084375,-0.25271875,0.29712500000000003,0.97859375,0.6628125,-0.67878125,-0.28109375000000003,0.96028125,0.017264324995789653,0.02381353805365543,True
17491,111221,0,111222,4286.0,42214.0,27444.0,-0.0018909999999999999,-0.00042699999999999997,0.001952,0.1925,-0.5775,-3.7100000000000004,0.6908125,-0.2495,0.30053125,0.97946875,0.669,-0.6822812500000001,-0.27678125,0.9579062500000001,0.017534086319513115,0.02378043835609385,True
17492,111222,0,111223,4286.0,42215.0,27443.0,-0.001037,-0.0006709999999999999,0.0021349999999999997,0.14,-0.7525000000000001,-3.7625,0.6882812500000001,-0.2508125,0.3009375,0.97740625,0.66315625,-0.67771875,-0.27934375,0.96375,0.017299259073531668,0.023900203233458487,True
17493,111223,0,111224,4284.0,42216.0,27442.0,-0.0015249999999999999,-0.002562,0.001037,0.22750000000000004,-1.0675000000000001,-3.8325000000000005,0.6908125,-0.24728125,0.29934375,0.97446875,0.66759375,-0.6801875000000001,-0.28275,0.951875,0.017540638619540475,0.023971492108595612,True
17494,111224,0,111225,4285.0,42217.0,27443.0,0.0013419999999999999,0.001647,-0.00183,0.35000000000000003,-1.5050000000000001,-3.8150000000000004,0.6914375,-0.2490625,0.2981875,0.97840625,0.67040625,-0.6793750000000001,-0.28140625,0.9586875,0.017436118216121767,0.023869859267314882,True
17495,111225,0,111226,4287.0,42217.0,27440.0,0.0017079999999999999,0.001769,-0.00244,0.49000000000000005,-1.5050000000000001,-3.9375000000000004,0.69021875,-0.24959375,0.29821875000000003,0.97840625,0.67028125,-0.67871875,-0.2805625,0.95840625,0.017388463491444427,0.02383722576443606,True
17496,111226,0,111227,4286.0,42219.0,27443.0,0.003721,0.00061,0.0015249999999999999,0.56,-1.225,-3.9375000000000004,0.6914375,-0.24984375,0.29921875000000003,0.97684375,0.66646875,-0.6826875,-0.2833125,0.9586875,0.017536329866834798,0.023988953319280474,True
17497,111227,0,111228,4287.0,42220.0,27441.0,-0.000183,0.001281,6.1e-05,0.5425000000000001,-0.8575,-3.8675,0.6858125,-0.2515,0.29828125,0.97896875,0.66371875,-0.67809375,-0.2810625,0.9520937500000001,0.017286333147186462,0.023859901106057447,True
17498,111228,0,111229,4287.0,42222.0,27442.0,-0.000732,0.000305,-0.0013419999999999999,0.42000000000000004,-0.9275000000000001,-3.8500000000000005,0.69559375,-0.2495625,0.29946875,0.97565625,0.66140625,-0.67915625,-0.28653125,0.96378125,0.017407148998458973,0.024128600085695652,True
17499,111229,0,111230,4290.0,42221.0,27442.0,0.001586,-0.00122,0.0006709999999999999,0.22750000000000004,-0.5775,-3.7975000000000003,0.6898125,-0.25090625,0.30015625,0.9750625,0.66025,-0.6773750000000001,-0.28009375000000003,0.96490625,0.017281771258085596,0.023898177905511592,True
17500,111230,0,111231,4288.0,42220.0,27441.0,0.003538,-0.001769,-0.000244,0.385,-0.3325,-3.6925000000000003,0.69146875,-0.25003125,0.30112500000000003,0.9759375,0.67278125,-0.68303125,-0.2823125,0.9559062500000001,0.01754241590566394,0.024027262642303943,True
17501,111231,0,111232,4289.0,42219.0,27438.0,-0.0053679999999999995,0.001403,0.0060999999999999995,0.5075000000000001,-0.12250000000000001,-3.7275000000000005,0.71284375,-0.25734375,0.2964375,0.9700625,0.65971875,-0.67471875,-0.284625,0.9628125000000001,0.016915086418158264,0.02392717614540064,True
17502,111232,0,111233,4289.0,42216.0,27434.0,-0.008967,-0.00042699999999999997,-0.0042699999999999995,1.2950000000000002,-0.08750000000000001,-3.5000000000000004,0.68803125,-0.2485,0.288125,0.9889687500000001,0.65153125,-0.6780625,-0.2805625,0.9696875,0.01740665418932301,0.02342151257821972,True
17503,111233,0,111234,4291.0,42216.0,27434.0,0.002379,-0.001464,0.001098,1.155,-0.12250000000000001,-3.3775000000000004,0.691125,-0.246,0.3036875,0.967375,0.6654375,-0.67984375,-0.28075,0.9557187500000001,0.017578869396205152,0.024069993719304385,True
17504,111234,0,111235,4292.0,42214.0,27431.0,-0.000793,0.0028669999999999998,0.0013419999999999999,0.15750000000000003,-1.4175000000000002,-4.62,0.70009375,-0.259125,0.2886875,0.97271875,0.66021875,-0.676625,-0.28175,0.969875,0.016918845263483154,0.02349243773615987,True
17505,111235,0,111236,4292.0,42214.0,27427.0,-0.005307,0.000305,0.00244,0.31500000000000006,-1.5225000000000002,-4.1475,0.67753125,-0.24509375,0.30834375,0.9843125,0.6595,-0.6778125,-0.2800625,0.95615625,0.0175347288176373,0.024234132428612984,True
17506,111236,0,111237,4293.0,42210.0,27425.0,-0.0059169999999999995,-0.00183,6.1e-05,0.35000000000000003,-1.9075000000000002,-3.7100000000000004,0.7054375,-0.25384375,0.30303125000000003,0.96425,0.664125,-0.682125,-0.28646875,0.95115625,0.01735187914330715,0.02427277534944227,True
17507,111237,0,111238,4293.0,42208.0,27424.0,0.000549,-0.001586,-0.000732,0.5075000000000001,-2.1175,-3.7450000000000006,0.69671875,-0.2551875,0.29409375,0.993,0.66,-0.6764687500000001,-0.27809375000000003,0.966375,0.017072185419560893,0.02356805710909655,True
17508,111238,0,111239,4293.0,42211.0,27423.0,0.004209,0.001586,-0.0006709999999999999,0.49000000000000005,-2.2750000000000004,-4.130000000000001,0.70675,-0.2495,0.30428125,0.96440625,0.6696875,-0.6823125,-0.2818125,0.947875,0.017535330208626118,0.024137149975933636,True
17509,111239,0,111240,4295.0,42213.0,27425.0,0.005673,6.1e-05,-0.0025009999999999998,0.12250000000000001,-2.24,-3.99,0.67590625,-0.2514375,0.2965625,0.997125,0.6608437500000001,-0.67534375,-0.27940625,0.95809375,0.017179345272545596,0.02372252204478847,True
17510,111240,0,111241,4294.0,42213.0,27425.0,0.0011589999999999999,-0.0006709999999999999,0.006527,0.36750000000000005,-2.0125,-3.7625,0.70309375,-0.25021875,0.30109375,0.9631875,0.67140625,-0.68334375,-0.28121875,0.966,0.01754725795608628,0.023982012846863382,True
17511,111241,0,111242,4294.0,42212.0,27425.0,0.002196,-0.004331,-0.001647,0.36750000000000005,-1.6450000000000002,-3.6050000000000004,0.66115625,-0.24525,0.29928125,0.9800625000000001,0.6601875,-0.6760625,-0.2785625,0.9576250000000001,0.0174587213823113,0.023800575095827853,True
17512,111242,0,111243,4296.0,42210.0,27427.0,0.002745,-0.0028669999999999998,-0.005673,-0.035,-1.6975000000000002,-3.6750000000000003,0.71175,-0.26275,0.29712500000000003,0.95978125,0.66215625,-0.68009375,-0.28340625,0.9649375,0.016910136332038854,0.023906499937585982,True
17513,111243,0,111244,4298.0,42209.0,27429.0,0.002074,-0.0018909999999999999,0.000305,-0.10500000000000001,-1.4700000000000002,-4.0425,0.67815625,-0.252875,0.29990625,0.99034375,0.66371875,-0.67825,-0.28150000000000003,0.957875,0.01723683810642975,0.02394441241274221,True
17514,111244,0,111245,4296.0,42208.0,27428.0,-0.004941,-0.000305,0.002379,0.8225000000000001,-0.9100000000000001,-3.9025000000000003,0.7009062500000001,-0.2484375,0.304875,0.9731562500000001,0.66984375,-0.68021875,-0.282375,0.9520000000000001,0.017495033345277782,0.024184207681497386,True
17515,111245,0,111246,4296.0,42209.0,27427.0,-0.00671,0.001586,0.00042699999999999997,0.9625000000000001,-1.1725,-3.7625,0.69228125,-0.25084375000000003,0.29603125,0.97609375,0.66346875,-0.6780625,-0.28040625,0.9601875,0.017311681174322337,0.023740850711672094,True
17516,111246,0,111247,4299.0,42205.0,27425.0,-0.005978,0.004148,0.0006709999999999999,1.2075,-1.54,-4.0075,0.6796875,-0.24871875000000002,0.30190625,0.97590625,0.67125,-0.680125,-0.28403125,0.9580000000000001,0.017479905389458116,0.024128510376546314,True
17517,111247,0,111248,4297.0,42205.0,27423.0,-0.002562,0.005124,0.0011589999999999999,1.2425000000000002,-1.8025000000000002,-3.99,0.69825,-0.250125,0.3000625,0.98175,0.6634375,-0.6784687500000001,-0.27790625,0.95759375,0.01735698249106319,0.023806367157382033,True
17518,111248,0,111249,4299.0,42204.0,27422.0,-6.1e-05,0.002013,0.002379,0.7350000000000001,-2.1,-3.8150000000000004,0.698375,-0.253125,0.30384375,0.98046875,0.6626562500000001,-0.67796875,-0.27996875,0.95834375,0.017215507252800133,0.024045026828957518,True
17519,111249,0,111250,4300.0,42201.0,27420.0,0.0034159999999999998,-0.004575,-0.0035989999999999998,-0.14,-2.9575000000000005,-3.7800000000000002,0.6978125000000001,-0.25053125,0.3060625,0.97459375,0.6633125,-0.67890625,-0.28150000000000003,0.96365625,0.01735794105543069,0.024197949055865576,True
17520,111250,0,111251,4300.0,42203.0,27421.0,0.002806,-0.0046359999999999995,-0.00042699999999999997,0.0,-3.08,-4.025,0.6905,-0.24603125,0.3029375,0.97803125,0.6711875,-0.681875,-0.28159375000000003,0.9518125000000001,0.01765845382492213,0.024073018271298607,True
17521,111251,0,111252,4301.0,42200.0,27420.0,0.0025009999999999998,-0.0040869999999999995,0.001098,0.43750000000000006,-3.3425000000000002,-4.2875000000000005,0.69715625,-0.25325000000000003,0.30234375,0.96709375,0.6634375,-0.6778125,-0.28003125,0.95675,0.017204219377223974,0.023985759903006717,True
17522,111252,0,111253,4302.0,42197.0,27413.0,0.001281,-0.00122,-0.000183,1.0850000000000002,-3.8325000000000005,-4.375,0.6905,-0.24928125,0.3015625,0.98275,0.6636562500000001,-0.68140625,-0.27959375000000003,0.95784375,0.017508119092687437,0.02393599563419384,True
17523,111253,0,111254,4303.0,42192.0,27407.0,-0.000244,0.001586,-0.00061,1.6275000000000002,-4.305000000000001,-4.3925,0.68815625,-0.24940625,0.30265625,0.979875,0.6625625,-0.6789375,-0.28271875,0.95775,0.01740477076859569,0.024106649919502936,True
17524,111254,0,111255,4303.0,42189.0,27399.0,-0.000366,0.0071979999999999995,-0.003904,2.0825,-5.215000000000001,-4.69,0.695875,-0.24971875000000002,0.3035625,0.97478125,0.66315625,-0.6765,-0.27959375000000003,0.96015625,0.01729504792008591,0.02401836933536007,True
17525,111255,0,111256,4303.0,42184.0,27396.0,0.0021349999999999997,0.006588,-0.0023179999999999997,1.6975000000000002,-5.075,-4.4625,0.6984375,-0.25009375,0.3036875,0.981375,0.663,-0.6765,-0.274125,0.9577187500000001,0.017279851275505034,0.02380363864814901,True
17526,111256,0,111257,4306.0,42180.0,27393.0,0.005612,0.002989,0.0017079999999999999,0.9450000000000001,-4.4625,-4.1475,0.687125,-0.250875,0.30015625,0.9683437500000001,0.66940625,-0.67909375,-0.27678125,0.963875,0.01735147790830042,0.023764991497791745,True
17527,111257,0,111258,4306.0,42177.0,27390.0,0.00488,-0.001098,0.001037,0.45500000000000007,-4.2175,-3.9375000000000004,0.6879375,-0.2514375,0.30471875,0.97459375,0.6700625,-0.6782812500000001,-0.2778125,0.965125,0.017296332174672822,0.023994387879880032,True
17528,111258,0,111259,4303.0,42174.0,27388.0,-0.003355,-0.0044529999999999995,0.002928,0.1925,-3.9200000000000004,-3.9025000000000003,0.697375,-0.24659375,0.31109375,0.97584375,0.66234375,-0.6784375,-0.27803125,0.95296875,0.01749882868394727,0.024265764959833798,True
17529,111259,0,111260,4305.0,42171.0,27387.0,-0.002928,-0.003111,-0.002379,0.43750000000000006,-3.7450000000000006,-3.7275000000000005,0.6973125,-0.251,0.30471875,0.980125,0.66215625,-0.67840625,-0.27921875,0.9580000000000001,0.017319037772141384,0.02405091803046587,True
17530,111260,0,111261,4303.0,42173.0,27389.0,-0.0023179999999999997,-0.001098,-0.000122,0.49000000000000005,-3.5875000000000004,-3.6225000000000005,0.69925,-0.25065625,0.3038125,0.97546875,0.66228125,-0.6785,-0.2793125,0.9649375,0.017336699961504953,0.024017360458620893,True
17531,111261,0,111262,4299.0,42175.0,27391.0,-6.1e-05,0.000366,-0.000244,0.525,-3.5000000000000004,-3.7100000000000004,0.700375,-0.2505625,0.3045,0.9809375,0.66309375,-0.6784375,-0.27868750000000003,0.95846875,0.01733801015562675,0.024020553005593897,True
17532,111262,0,111263,4297.0,42174.0,27391.0,0.0021349999999999997,-0.000244,-0.00061,0.5950000000000001,-3.7450000000000006,-3.6750000000000003,0.69803125,-0.25003125,0.3050625,0.982,0.6626875,-0.680625,-0.27975,0.95828125,0.017446630707285575,0.0240864300497328,True
17533,111263,0,111264,4292.0,42175.0,27394.0,0.002257,0.000488,0.000488,0.5950000000000001,-4.4275,-3.8325000000000005,0.6898125,-0.24971875000000002,0.30171875,0.97440625,0.66753125,-0.68178125,-0.27559375,0.95834375,0.017505320852805144,0.023781601634357556,True
17534,111264,0,111265,4288.0,42171.0,27392.0,0.000976,0.0,-0.000793,0.6825000000000001,-4.777500000000001,-3.7800000000000002,0.69075,-0.25346875,0.30112500000000003,0.9655,0.658,-0.67953125,-0.27571875,0.96328125,0.017263800340616274,0.02376216976067908,True
17535,111265,0,111266,4285.0,42169.0,27390.0,-0.00366,0.001281,0.0006709999999999999,0.8400000000000001,-4.9350000000000005,-3.7975000000000003,0.690375,-0.25315625,0.30362500000000003,0.97478125,0.66803125,-0.67765625,-0.27534375,0.96203125,0.01720179565269696,0.023850074213676173,True
17536,111266,0,111267,4282.0,42164.0,27385.0,-0.0008539999999999999,0.002745,0.001647,0.9625000000000001,-5.022500000000001,-3.6400000000000006,0.69071875,-0.25275000000000003,0.30321875,0.9743125,0.668625,-0.67815625,-0.2755,0.96309375,0.017238169889616448,0.02383962225288871,True
17537,111267,0,111268,4276.0,42162.0,27382.0,0.0073809999999999995,-0.001037,0.000244,0.45500000000000007,-4.8825,-3.325,0.685,-0.25171875,0.3043125,0.97446875,0.6654375,-0.67803125,-0.275125,0.963875,0.017274980150614728,0.02386959902369195,True
17538,111268,0,111269,4277.0,42161.0,27378.0,0.007686,-0.001952,-0.005124,-0.07,-4.165,-4.305000000000001,0.6984375,-0.25290625,0.30490625,0.9745625,0.66290625,-0.6788125,-0.27509375,0.9653125,0.017257971792605502,0.023892801649839153,True
17539,111269,0,111270,4272.0,42155.0,27374.0,-0.000549,-0.0006709999999999999,-0.0032329999999999998,0.1925,-3.2375000000000003,-4.4625,0.6905,-0.25003125,0.30734375,0.9745625,0.6706875,-0.6814375,-0.27609375,0.9584375,0.01747897584976564,0.02403341764982268,True
17540,111270,0,111271,4272.0,42152.0,27372.0,-0.007137,0.001464,0.003904,0.56,-2.2925000000000004,-3.9550000000000005,0.69321875,-0.25046875,0.30496875,0.97371875,0.66321875,-0.6780625,-0.2798125,0.965375,0.017326876856722444,0.02408508097004456,True
17541,111271,0,111272,4270.0,42150.0,27368.0,-0.008296,0.000976,0.0046359999999999995,0.7350000000000001,-1.7850000000000001,-3.6050000000000004,0.6884375,-0.25278125,0.30515625,0.97559375,0.6618437500000001,-0.6785625000000001,-0.27546875,0.96728125,0.01725308149532616,0.02391817871694032,True
17542,111272,0,111273,4266.0,42149.0,27366.0,-0.00244,0.002623,0.004209,0.8575,-1.8550000000000002,-3.7100000000000004,0.69584375,-0.2526875,0.304375,0.9741562500000001,0.67953125,-0.6780625,-0.27396875,0.9722500000000001,0.017236969069188476,0.023825677455401678,True
17543,111273,0,111274,4266.0,42147.0,27366.0,0.001647,0.000549,-0.000488,0.2625,-2.5025000000000004,-3.9725000000000006,0.6970000000000001,-0.24484375,0.30496875,0.975875,0.667,-0.67625,-0.2758125,0.974,0.017482650321665568,0.023924276478902613,True
17544,111274,0,111275,4264.0,42148.0,27365.0,0.0055509999999999995,-0.0032329999999999998,-0.000732,0.0,-2.5200000000000005,-3.8850000000000002,0.69746875,-0.24953125,0.304625,0.9780625000000001,0.65615625,-0.6751875,-0.28015625,0.97184375,0.017250375503732245,0.024084739981852465,True
17545,111275,0,111276,4264.0,42146.0,27368.0,0.006588,-0.002928,-0.002379,-0.2625,-2.5375,-4.025,0.6924375,-0.24556250000000002,0.30534375,0.98065625,0.6560625,-0.67865625,-0.28075,0.95759375,0.01754932463148191,0.024138206192148102,True
17546,111276,0,111277,4264.0,42144.0,27367.0,0.0068319999999999995,-0.003843,-0.0013419999999999999,-0.35000000000000003,-1.995,-3.9200000000000004,0.68625,-0.24809375,0.30553125000000003,0.98203125,0.65459375,-0.673875,-0.28284375,0.95259375,0.017256359205840188,0.024230069840975692,True
17547,111277,0,111278,4263.0,42145.0,27366.0,0.003843,-0.0034159999999999998,-0.002196,-0.08750000000000001,-1.435,-3.9200000000000004,0.68965625,-0.2494375,0.3030625,0.97478125,0.65653125,-0.684625,-0.27646875,0.952625,0.017629901203684482,0.023872139559012268,True
17548,111278,0,111279,4263.0,42145.0,27364.0,-0.008052,-0.000305,0.0006709999999999999,0.805,-0.1925,-4.025,0.69115625,-0.25146875,0.30284375,0.9744375000000001,0.68,-0.67953125,-0.27375,0.9591875,0.017344839156943063,0.023753797826870593,True
17549,111279,0,111280,4261.0,42143.0,27360.0,-0.008296,0.003843,0.002623,1.0850000000000002,-0.052500000000000005,-4.0425,0.69046875,-0.250125,0.30515625,0.96525,0.6782812500000001,-0.68390625,-0.28450000000000003,0.9674375000000001,0.01757344423555328,0.024281177294158823,True
17550,111280,0,111281,4262.0,42140.0,27357.0,-0.006527,0.005307,0.002806,1.2075,-0.29750000000000004,-3.9025000000000003,0.6945,-0.25196875,0.30196875,0.980625,0.65315625,-0.67959375,-0.26928125,0.9528125000000001,0.017327068035712705,0.023537985905536452,True
17551,111281,0,111282,4261.0,42136.0,27353.0,-0.002196,0.004575,0.002623,1.05,-0.805,-4.025,0.69678125,-0.253125,0.30478125,0.97496875,0.655625,-0.6764375,-0.272375,0.96109375,0.017154522406242798,0.02377831794375293,True
17552,111282,0,111283,4261.0,42136.0,27355.0,0.0,0.0037819999999999998,0.0011589999999999999,0.47250000000000003,-1.435,-4.095000000000001,0.6908125,-0.2475,0.30178125,0.9819375,0.68171875,-0.6829375,-0.27478125000000003,0.95265625,0.01764123496241077,0.023751501365228578,True
17553,111283,0,111284,4262.0,42137.0,27355.0,0.00549,-0.002562,-0.002745,-0.29750000000000004,-2.31,-4.025,0.69075,-0.2498125,0.3046875,0.974875,0.65934375,-0.67965625,-0.27878125,0.9651875,0.01741692613729172,0.024032044442099002,True
17554,111284,0,111285,4264.0,42141.0,27358.0,0.0064659999999999995,-0.003904,-0.0028669999999999998,-0.35000000000000003,-2.2575000000000003,-3.9725000000000006,0.6985,-0.25265625,0.30365625,0.97428125,0.65840625,-0.67684375,-0.27425,0.96259375,0.017189698338143423,0.02380737818882149,True
17555,111285,0,111286,4262.0,42139.0,27357.0,0.0046359999999999995,-0.003477,-0.002074,-0.2625,-1.8550000000000002,-3.9200000000000004,0.69103125,-0.24915625,0.3014375,0.976375,0.6693125,-0.67965625,-0.2754375,0.94934375,0.017443516864218883,0.023763732373515412,True
17556,111286,0,111287,4263.0,42140.0,27358.0,0.000915,-0.0026839999999999998,-0.001403,0.052500000000000005,-1.4000000000000001,-3.9375000000000004,0.69021875,-0.249,0.3020625,0.98259375,0.67025,-0.6803750000000001,-0.27718750000000003,0.95475,0.017478462138439958,0.0238598478509918,True
17557,111287,0,111288,4263.0,42138.0,27356.0,-0.0021349999999999997,-0.0006709999999999999,-0.000305,0.42000000000000004,-0.9450000000000001,-3.8675,0.6905625,-0.25,0.3043125,0.9735,0.66153125,-0.68159375,-0.27978125,0.95321875,0.017486461951023727,0.024056796228343284,True
17558,111288,0,111289,4264.0,42140.0,27354.0,-0.004758,0.00042699999999999997,0.003538,0.6125,-0.6125,-3.6925000000000003,0.697125,-0.25359375,0.303875,0.97459375,0.6629375000000001,-0.6783125,-0.2795,0.9640625,0.017210202277809714,0.02402747173541465,True
17559,111289,0,111290,4264.0,42137.0,27353.0,-0.0035989999999999998,0.001098,0.002806,0.56,-0.9975,-3.7450000000000006,0.6909375,-0.25196875,0.30603125000000003,0.9743437500000001,0.6670625,-0.6783750000000001,-0.27278125000000003,0.95840625,0.017278538396470595,0.02384615483650025,True
17560,111290,0,111291,4264.0,42136.0,27351.0,0.000244,0.0011589999999999999,0.0006709999999999999,0.47250000000000003,-1.2600000000000002,-3.9200000000000004,0.6911875000000001,-0.24896875000000002,0.307875,0.979,0.66503125,-0.6828125,-0.2779375,0.95621875,0.017576755080078495,0.024129417912868423,True
17561,111291,0,111292,4264.0,42138.0,27348.0,0.001464,0.000488,-0.002806,0.56,-1.4875,-4.025,0.6950000000000001,-0.25184375000000003,0.30325,0.9745625,0.66325,-0.67753125,-0.27934375,0.96546875,0.017250003482418848,0.023995448806148234,True
17562,111292,0,111293,4264.0,42140.0,27350.0,0.002379,0.0011589999999999999,-0.0017079999999999999,0.47250000000000003,-1.61,-4.112500000000001,0.6910937500000001,-0.2505625,0.2999375,0.97428125,0.66959375,-0.6785,-0.27696875,0.962875,0.017340498814757785,0.023763520723731207,True
17563,111293,0,111294,4263.0,42142.0,27351.0,-0.000244,0.000305,0.000244,0.5950000000000001,-1.6275000000000002,-3.8850000000000002,0.690625,-0.24996875000000002,0.30384375,0.9826875,0.6709375,-0.68184375,-0.27821875,0.9580000000000001,0.017497679848167743,0.023974678949624344,True
17564,111294,0,111295,4265.0,42146.0,27350.0,0.000366,-0.00061,0.0023179999999999997,0.45500000000000007,-1.7500000000000002,-3.7625,0.6903125,-0.25009375,0.3033125,0.98184375,0.6686562500000001,-0.6820625,-0.27896875,0.95709375,0.01750132307622185,0.023982948204915002,True
17565,111295,0,111296,4265.0,42145.0,27349.0,0.00244,-6.1e-05,0.000915,0.4025,-1.715,-3.8325000000000005,0.70134375,-0.25365625,0.30228125,0.9751875,0.6607500000000001,-0.67878125,-0.2765625,0.96525,0.017226336896194985,0.023843727875394218,True
17566,111296,0,111297,4266.0,42144.0,27347.0,0.001952,-6.1e-05,-0.0015249999999999999,0.035,-1.6975000000000002,-3.8150000000000004,0.69053125,-0.24525,0.29840625,0.9743125,0.6708125,-0.6788125,-0.277125,0.95878125,0.01756820754645306,0.023706730100866557,True
17567,111297,0,111298,4268.0,42145.0,27348.0,0.000976,-0.001952,-0.001769,0.052500000000000005,-1.5750000000000002,-3.7800000000000002,0.68953125,-0.24946875000000002,0.29975,0.98653125,0.6721875,-0.6794687500000001,-0.27809375000000003,0.95784375,0.017423389634349404,0.023801034626122573,True
17568,111298,0,111299,4269.0,42146.0,27348.0,-0.002928,-0.0023179999999999997,-0.000366,0.08750000000000001,-0.8225000000000001,-3.6575,0.7030625,-0.25009375,0.30371875,0.97190625,0.66271875,-0.67953125,-0.2798125,0.9639062500000001,0.017400553343167733,0.024033597870659014,True
17569,111299,0,111300,4268.0,42144.0,27345.0,-0.0050019999999999995,-0.001952,0.001586,0.47250000000000003,-0.525,-3.7100000000000004,0.7018125000000001,-0.2545625,0.30765625,0.9725,0.66246875,-0.6786875,-0.27621875,0.96528125,0.017185881542525306,0.024051315652278013,True
17570,111300,0,111301,4269.0,42140.0,27339.0,-0.0026839999999999998,-0.000732,0.0028669999999999998,0.7000000000000001,-0.5775,-3.8675,0.69696875,-0.254625,0.30125,0.969125,0.6625,-0.67775,-0.27684375,0.9585625,0.01714601209591636,0.023812558006021688,True
17571,111301,0,111302,4271.0,42142.0,27338.0,-0.002562,0.0018909999999999999,0.000976,0.9100000000000001,-0.77,-4.0600000000000005,0.6876875,-0.2518125,0.29796875,0.97271875,0.665625,-0.67525,-0.27721875,0.964875,0.017160413774936427,0.023692479188951576,True
17572,111302,0,111303,4270.0,42138.0,27334.0,-0.001098,0.0037819999999999998,0.0011589999999999999,1.05,-1.1900000000000002,-4.165,0.68903125,-0.25134375000000003,0.2999375,0.97390625,0.6693125,-0.67896875,-0.27821875,0.96275,0.01732750684730293,0.023813783702727367,True
17573,111303,0,111304,4270.0,42138.0,27335.0,0.001952,0.003111,-0.0017079999999999999,0.5950000000000001,-1.9075000000000002,-4.41,0.6880625,-0.24784375,0.30015625,0.9839375,0.67171875,-0.67875,-0.2721875,0.95796875,0.017460618953553154,0.023580229429259313,True
17574,111304,0,111305,4271.0,42135.0,27337.0,0.0048189999999999995,0.001464,-0.004331,0.385,-2.2750000000000004,-4.235,0.6886875,-0.24896875000000002,0.30659375,0.9869687500000001,0.66778125,-0.67934375,-0.27859375000000003,0.95809375,0.017438672776702177,0.02410302285320788,True
17575,111305,0,111306,4271.0,42139.0,27340.0,0.0051849999999999995,-0.001403,-0.002989,0.08750000000000001,-2.0300000000000002,-4.130000000000001,0.70315625,-0.248875,0.304375,0.9842500000000001,0.662625,-0.68078125,-0.2780625,0.95784375,0.017499699285248516,0.02399027929020283,True
17576,111306,0,111307,4273.0,42140.0,27341.0,0.005246,-0.002379,0.002013,-0.035,-1.6450000000000002,-4.1475,0.702875,-0.24975,0.3035625,0.97175,0.66290625,-0.68021875,-0.27946875,0.9576875,0.017441853103510273,0.02401334460829173,True
17577,111307,0,111308,4271.0,42139.0,27341.0,0.000305,-0.003843,-0.001586,-0.035,-1.3825,-3.9725000000000006,0.7007187500000001,-0.25465625000000003,0.30134375,0.9725,0.66321875,-0.6782812500000001,-0.27915625,0.96234375,0.017165903723542337,0.023909397592842628,True
17578,111308,0,111309,4272.0,42136.0,27339.0,-0.0053679999999999995,-0.0008539999999999999,0.00122,0.5950000000000001,-0.6300000000000001,-3.7800000000000002,0.6888125,-0.25253125,0.29853125,0.973,0.6626562500000001,-0.67815625,-0.27775,0.9626250000000001,0.017247034004009114,0.023737012284911083,True
17579,111309,0,111310,4273.0,42133.0,27336.0,-0.0051849999999999995,0.0018909999999999999,0.00366,0.9275000000000001,-0.4025,-3.6925000000000003,0.68790625,-0.2503125,0.3025,0.97259375,0.66628125,-0.671625,-0.27818750000000003,0.96159375,0.01707680381815142,0.023918074609152764,True
17580,111310,0,111311,4274.0,42131.0,27335.0,-0.0053679999999999995,0.001037,0.003965,1.0675000000000001,-0.47250000000000003,-3.6050000000000004,0.69034375,-0.2526875,0.3033125,0.9755,0.6558125,-0.67775,-0.27784375,0.9618125000000001,0.01722452411585335,0.023937720993035063,True
17581,111311,0,111312,4275.0,42131.0,27334.0,-0.002562,0.000244,0.002928,1.0325000000000002,-0.8750000000000001,-3.5700000000000003,0.69840625,-0.2536875,0.3030625,0.97503125,0.66309375,-0.6793125,-0.27953125,0.950125,0.017246225963547402,0.023995263499990347,True
17582,111312,0,111313,4274.0,42128.0,27332.0,0.003721,6.1e-05,0.000122,0.7350000000000001,-1.3825,-3.6575,0.69759375,-0.2498125,0.30234375,0.9742500000000001,0.662625,-0.67865625,-0.2795,0.95765625,0.017377111041043815,0.023964404126938364,True
17583,111313,0,111314,4277.0,42127.0,27330.0,0.004026,0.000976,-0.0032329999999999998,0.31500000000000006,-1.8550000000000002,-4.165,0.69046875,-0.24990625,0.30062500000000003,0.97384375,0.6629375000000001,-0.68225,-0.2775,0.9576875,0.017516383230864286,0.023813201524044897,True
17584,111314,0,111315,4277.0,42124.0,27331.0,0.0013419999999999999,0.000915,-0.003538,0.45500000000000007,-1.6800000000000002,-4.235,0.69075,-0.24556250000000002,0.30162500000000003,0.9717187500000001,0.689375,-0.67978125,-0.27725,0.97875,0.017594108537732682,0.023844339865511953,True
17585,111315,0,111316,4277.0,42124.0,27331.0,0.000366,0.001403,-0.00042699999999999997,0.6475000000000001,-1.6275000000000002,-4.0075,0.6902812500000001,-0.2515625,0.30303125000000003,0.9745312500000001,0.6860937500000001,-0.66840625,-0.27440625,0.9791875,0.016897879245847104,0.023787914482975257,True
17586,111316,0,111317,4276.0,42123.0,27329.0,-0.000793,0.0015249999999999999,0.000732,0.77,-1.4175000000000002,-3.9200000000000004,0.6974375,-0.248375,0.3030625,0.97703125,0.66940625,-0.67403125,-0.274125,0.9803125,0.017251183873733644,0.02377789106713424,True
17587,111317,0,111318,4279.0,42121.0,27331.0,-0.000549,0.00061,0.0008539999999999999,0.7175,-1.1375000000000002,-3.8500000000000005,0.6944375,-0.25203125,0.3026875,0.97075,0.65334375,-0.67415625,-0.27234375,0.9687187500000001,0.017107981149304754,0.023690800357917638,True
17588,111318,0,111319,4280.0,42120.0,27331.0,-0.002745,-0.000732,0.0015249999999999999,0.36750000000000005,-1.0325000000000002,-3.6225000000000005,0.69021875,-0.251125,0.30493750000000003,0.974125,0.68396875,-0.67865625,-0.27471875,0.94634375,0.01732392743223205,0.023879009926737048,True
17589,111319,0,111320,4280.0,42119.0,27328.0,-0.0021349999999999997,-0.003721,0.000366,0.4025,-1.1900000000000002,-3.535,0.67853125,-0.24946875000000002,0.30490625,0.98259375,0.67128125,-0.6885,-0.28490625,0.96175,0.01778282398687648,0.02428720514414175,True
17590,111320,0,111321,4281.0,42119.0,27327.0,-0.000976,-0.003294,-0.0018909999999999999,0.35000000000000003,-1.4525000000000001,-3.6050000000000004,0.69653125,-0.2525625,0.30021875,0.9750625,0.6524375,-0.675625,-0.272,0.94725,0.017144955801524784,0.023575261618325644,True
17591,111321,0,111322,4281.0,42118.0,27323.0,0.001647,-0.0018909999999999999,0.0006709999999999999,0.47250000000000003,-1.5225000000000002,-3.7100000000000004,0.6902812500000001,-0.24965625,0.30265625,0.9743437500000001,0.67121875,-0.68840625,-0.282375,0.9474375,0.017771499527232542,0.024092834823611776,True
17592,111322,0,111323,4284.0,42117.0,27324.0,0.0023179999999999997,0.00244,0.000549,0.7175,-1.5575,-3.7975000000000003,0.69096875,-0.249375,0.30162500000000003,0.98171875,0.6508125,-0.68596875,-0.2801875,0.9485625,0.017685907100566996,0.02396243851082287,True
17593,111323,0,111324,4283.0,42116.0,27320.0,0.0018909999999999999,0.003843,-0.000549,1.0850000000000002,-1.6975000000000002,-3.8675,0.68984375,-0.24965625,0.30340625,0.9804375000000001,0.653375,-0.68290625,-0.27734375,0.946375,0.01755263321149632,0.02392148028962188,True
17594,111324,0,111325,4286.0,42116.0,27320.0,0.000244,0.002074,0.00061,0.9800000000000001,-1.5750000000000002,-3.9725000000000006,0.68453125,-0.25034375000000003,0.30434375,0.9801562500000001,0.65753125,-0.68871875,-0.2818125,0.9481875000000001,0.017756085459072275,0.024139723918879617,True
17595,111325,0,111326,4284.0,42116.0,27320.0,-0.000244,0.000915,-0.000915,0.5425000000000001,-1.5225000000000002,-3.8850000000000002,0.69021875,-0.25009375,0.30203125000000003,0.981375,0.65415625,-0.68171875,-0.27909375000000003,0.94753125,0.017487639510518287,0.023935201452896078,True
17596,111326,0,111327,4285.0,42118.0,27320.0,-0.001281,0.000122,0.000122,0.28,-1.4175000000000002,-3.9550000000000005,0.6960625,-0.25034375000000003,0.30334375,0.9753437500000001,0.65040625,-0.681875,-0.28359375000000003,0.9735625,0.017483730470233723,0.024170125148795164,True
17597,111327,0,111328,4286.0,42118.0,27320.0,-0.002623,-0.0011589999999999999,-0.001403,0.29750000000000004,-1.4525000000000001,-3.8500000000000005,0.68934375,-0.25253125,0.30296875,0.97378125,0.65625,-0.6743125,-0.27368750000000003,0.9625312500000001,0.017093941320553512,0.02375643379276429,True
17598,111328,0,111329,4288.0,42120.0,27324.0,-0.001098,-0.0015249999999999999,0.001037,0.31500000000000006,-1.54,-3.6225000000000005,0.6914375,-0.24996875000000002,0.3023125,0.9815625,0.67221875,-0.679125,-0.27484375,0.9555625,0.017389443507417706,0.02377589969039451,True
17599,111329,0,111330,4290.0,42122.0,27324.0,0.000732,-0.00122,0.001037,0.3325,-1.6625,-3.5875000000000004,0.6970000000000001,-0.25034375000000003,0.3046875,0.9702500000000001,0.6646875,-0.682,-0.2775625,0.958875,0.017488706344704646,0.023983050192950793,True
17600,111330,0,111331,4290.0,42123.0,27325.0,0.0026839999999999998,-0.000305,0.000549,0.42000000000000004,-1.8200000000000003,-3.6050000000000004,0.69340625,-0.2506875,0.3038125,0.97628125,0.6647500000000001,-0.68196875,-0.278125,0.9565,0.01747353520978751,0.023969622860084954,True
17601,111331,0,111332,4290.0,42124.0,27328.0,0.003355,-0.00042699999999999997,-0.0018909999999999999,0.5075000000000001,-1.8200000000000003,-3.6050000000000004,0.69521875,-0.253,0.30309375,0.97165625,0.66215625,-0.67825,-0.27828125,0.95709375,0.01723177291744755,0.02394629974063753,True
17602,111332,0,111333,4292.0,42126.0,27329.0,0.0037819999999999998,0.001647,-0.000915,0.5950000000000001,-1.7325000000000002,-3.6225000000000005,0.6900625,-0.24809375,0.30046875,0.9765625,0.6691875,-0.6783125,-0.27809375000000003,0.9575,0.017433070028592918,0.023830639503976712,True
17603,111333,0,111334,4293.0,42125.0,27328.0,0.00244,0.0021349999999999997,-0.000366,0.6125,-1.1900000000000002,-3.6925000000000003,0.69503125,-0.25015625,0.30371875,0.97571875,0.66296875,-0.67734375,-0.27909375000000003,0.9645,0.017310919048975845,0.024004705694585488,True
17604,111334,0,111335,4293.0,42126.0,27331.0,-0.001769,0.00042699999999999997,0.0011589999999999999,0.56,-0.9450000000000001,-3.7100000000000004,0.69103125,-0.24475,0.304375,0.97971875,0.65540625,-0.67509375,-0.27675,0.95875,0.01744040992752054,0.023937512228778563,True
17605,111335,0,111336,4294.0,42128.0,27332.0,-0.004209,0.000244,0.002013,0.525,-0.77,-3.7275000000000005,0.696125,-0.25215625,0.3026875,0.975375,0.6630625,-0.67225,-0.28046875,0.9595,0.01702697362421344,0.024017503780687927,True
17606,111336,0,111337,4294.0,42128.0,27332.0,-0.006771,0.0,0.001464,0.525,-0.8925000000000001,-3.7975000000000003,0.69025,-0.2500625,0.3095625,0.975375,0.6715,-0.67971875,-0.27740625,0.9583125,0.017409284698594873,0.024177572511478652,True
17607,111337,0,111338,4293.0,42128.0,27334.0,-0.00183,-0.000976,-6.1e-05,0.42000000000000004,-1.4700000000000002,-3.7800000000000002,0.69125,-0.25071875,0.30328125,0.974375,0.6620625,-0.67790625,-0.27625,0.9576250000000001,0.01731052446963567,0.023872354667627826,True
17608,111338,0,111339,4291.0,42127.0,27333.0,0.0006709999999999999,-0.000549,-0.000793,0.36750000000000005,-1.6975000000000002,-3.7975000000000003,0.69825,-0.2545625,0.3051875,0.9835625,0.6624375,-0.677875,-0.27675,0.95825,0.017153523145732767,0.023970980464848055,True
17609,111339,0,111340,4289.0,42128.0,27338.0,0.003477,-0.000549,-0.000549,0.22750000000000004,-1.8550000000000002,-3.8325000000000005,0.6983125,-0.251125,0.30209375,0.974125,0.663375,-0.6753125,-0.28003125,0.96321875,0.01719076506123276,0.0239754633758966,True
17610,111340,0,111341,4284.0,42129.0,27339.0,0.006405,-0.000549,-0.000305,0.0175,-1.9425000000000001,-3.7625,0.690625,-0.2496875,0.30459375,0.9726250000000001,0.67096875,-0.6794687500000001,-0.27678125,0.9585,0.01741452599136681,0.023947779321033345,True
17611,111341,0,111342,4281.0,42131.0,27340.0,0.005612,-0.0015249999999999999,-0.0017079999999999999,0.07,-1.9775000000000003,-3.7800000000000002,0.6890937500000001,-0.24825,0.30340625,0.9875625,0.662625,-0.67871875,-0.2768125,0.95796875,0.01744291323875961,0.02390012074278697,True
17612,111342,0,111343,4279.0,42131.0,27336.0,-0.000366,-0.000366,-0.000915,0.29750000000000004,-1.61,-3.9025000000000003,0.7035625,-0.25740625,0.2983125,0.97659375,0.66403125,-0.6819375,-0.27975,0.96496875,0.017200077992256483,0.02380842059741142,True
17613,111343,0,111344,4276.0,42130.0,27334.0,-0.001464,0.000976,0.0025009999999999998,0.49000000000000005,-1.1900000000000002,-3.9200000000000004,0.68359375,-0.2485,0.3055,0.9795,0.65834375,-0.679875,-0.27871875,0.95178125,0.017478816241978536,0.02406299755830402,True
17614,111344,0,111345,4273.0,42129.0,27332.0,-0.00183,0.000366,0.0006709999999999999,0.7875000000000001,-1.1025,-3.8850000000000002,0.70740625,-0.25090625,0.305,0.9694375000000001,0.66725,-0.68134375,-0.279625,0.9580000000000001,0.017439791948118708,0.02407883153055288,True
17615,111345,0,111346,4270.0,42124.0,27328.0,-0.004209,0.001769,0.000915,0.8750000000000001,-1.225,-3.9725000000000006,0.683,-0.24775,0.3005,0.9893125,0.6555,-0.67903125,-0.27746875,0.96028125,0.017475615052758603,0.023806796167742977,True
17616,111346,0,111347,4268.0,42121.0,27325.0,-0.004148,0.001952,0.0006709999999999999,0.805,-1.3475000000000001,-4.0425,0.6850937500000001,-0.24834375,0.30396875,0.9899687500000001,0.66996875,-0.67475,-0.27640625,0.9565625,0.017281076809288847,0.023906956986271394,True
17617,111347,0,111348,4267.0,42119.0,27322.0,-0.0021349999999999997,0.0021349999999999997,0.000122,0.5775,-1.61,-4.112500000000001,0.70278125,-0.24896875000000002,0.30528125,0.9611875,0.6691875,-0.6823125,-0.2731875,0.95846875,0.017556853718629483,0.02383159401706101,True
17618,111348,0,111349,4263.0,42115.0,27319.0,0.000183,0.0008539999999999999,-0.00183,0.28,-1.9075000000000002,-4.025,0.68325,-0.256125,0.30025,0.96928125,0.66253125,-0.67771875,-0.27946875,0.95534375,0.017083983907548183,0.023876912463333864,True
17619,111349,0,111350,4261.0,42113.0,27317.0,0.0017079999999999999,-0.0008539999999999999,-0.001464,0.15750000000000003,-2.0300000000000002,-3.99,0.6893125,-0.24896875000000002,0.30893750000000003,0.98840625,0.65040625,-0.6814375,-0.2779375,0.9610625,0.0175220243958643,0.024173181927006775,True
17620,111350,0,111351,4261.0,42116.0,27317.0,0.004148,-0.001586,0.001403,-0.0175,-2.1350000000000002,-3.9375000000000004,0.68490625,-0.25740625,0.30321875,0.9692500000000001,0.66715625,-0.67859375,-0.2790625,0.95840625,0.017066916545842487,0.023982855598316453,True
17621,111351,0,111352,4262.0,42114.0,27314.0,0.0057339999999999995,-0.002196,-0.0018909999999999999,-0.14,-2.1,-3.9025000000000003,0.70178125,-0.24734375,0.30128125,0.97328125,0.662375,-0.68103125,-0.27740625,0.96646875,0.017571692835970945,0.02383646317241983,True
17622,111352,0,111353,4260.0,42114.0,27316.0,0.0028669999999999998,-0.0025009999999999998,-0.000244,0.052500000000000005,-1.4700000000000002,-3.8325000000000005,0.68790625,-0.256125,0.30528125,0.98384375,0.662625,-0.67975,-0.28109375000000003,0.9585625,0.017164882140216168,0.024149447551142546,True
17623,111353,0,111354,4260.0,42111.0,27313.0,-6.1e-05,-0.0028669999999999998,0.0013419999999999999,0.31500000000000006,-1.225,-3.8325000000000005,0.68934375,-0.24840625,0.3025,0.979375,0.6687500000000001,-0.68009375,-0.27846875,0.95921875,0.017491323346371,0.023929381872569707,True
17624,111354,0,111355,4260.0,42114.0,27311.0,-0.001098,-0.000488,0.0008539999999999999,0.36750000000000005,-1.2075,-3.8850000000000002,0.685875,-0.25203125,0.30121875,0.97328125,0.6681875,-0.678625,-0.27925,0.96309375,0.017285961029028157,0.023908018163658267,True
17625,111355,0,111356,4259.0,42116.0,27311.0,-0.0034159999999999998,6.1e-05,-0.0013419999999999999,0.6300000000000001,-1.05,-4.0600000000000005,0.695625,-0.25025000000000003,0.3040625,0.9729375,0.662875,-0.680875,-0.27975,0.95840625,0.0174477201476852,0.02404524346420371,True
17626,111356,0,111357,4260.0,42110.0,27308.0,-0.005429,0.0021349999999999997,-0.0008539999999999999,0.9275000000000001,-0.9800000000000001,-3.9025000000000003,0.68990625,-0.25084375000000003,0.3025,0.97390625,0.66803125,-0.67821875,-0.2809375,0.95965625,0.017317903059757906,0.024028623277004856,True
17627,111357,0,111358,4259.0,42111.0,27306.0,-0.002623,0.0035989999999999998,0.0026839999999999998,0.9625000000000001,-1.435,-3.9025000000000003,0.6984375,-0.2494375,0.29962500000000003,0.97759375,0.662875,-0.68078125,-0.27790625,0.9586250000000001,0.017476908272504543,0.023788346657776554,True
17628,111358,0,111359,4260.0,42107.0,27305.0,-0.00061,0.001952,0.00122,0.8225000000000001,-1.9250000000000003,-3.9725000000000006,0.68975,-0.24984375,0.3003125,0.9748125,0.6618437500000001,-0.67921875,-0.27768750000000003,0.9647187500000001,0.0173982411821687,0.0238078688507709,True
17629,111359,0,111360,4259.0,42108.0,27302.0,0.003294,0.00122,0.001281,0.525,-2.205,-3.99,0.695875,-0.2525,0.30234375,0.97996875,0.6628125,-0.67984375,-0.28150000000000003,0.9580000000000001,0.017315496578052685,0.02404479747956263,True
17630,111360,0,111361,4259.0,42106.0,27302.0,0.004209,-0.000122,-0.000793,0.21000000000000002,-2.2750000000000004,-4.077500000000001,0.6908125,-0.25025000000000003,0.30178125,0.97459375,0.665375,-0.68259375,-0.2778125,0.96375,0.01751613928337657,0.023873392629587202,True
17631,111361,0,111362,4259.0,42108.0,27304.0,0.002562,-0.000976,-0.001586,0.035,-2.24,-4.0600000000000005,0.69075,-0.25284375,0.3015625,0.97496875,0.66884375,-0.6783750000000001,-0.2806875,0.94853125,0.01724308225318726,0.023979963499797936,True
17632,111362,0,111363,4260.0,42108.0,27303.0,0.0042699999999999995,-0.0023179999999999997,-0.001952,0.08750000000000001,-1.9600000000000002,-3.9025000000000003,0.69803125,-0.2500625,0.30178125,0.9820625000000001,0.661,-0.68109375,-0.27871875,0.9581875,0.017464025474965023,0.023909828437713585,True
17633,111363,0,111364,4260.0,42109.0,27303.0,0.0015249999999999999,-0.002013,-0.00244,0.2625,-1.6800000000000002,-4.025,0.6825625,-0.2519375,0.30190625,0.97546875,0.66096875,-0.678625,-0.27865625,0.94796875,0.017289759863039374,0.0239124642658096,True
17634,111364,0,111365,4261.0,42108.0,27302.0,0.000732,-0.000915,-0.0015249999999999999,0.525,-1.2775,-4.0425,0.697625,-0.24975,0.29921875000000003,0.97640625,0.6628437500000001,-0.68,-0.27878125,0.9609062500000001,0.017433144246353324,0.02380679631519807,True
17635,111365,0,111366,4260.0,42107.0,27302.0,-0.00366,0.000366,-0.000183,0.8225000000000001,-0.9625000000000001,-4.0600000000000005,0.68975,-0.2493125,0.3016875,0.9749375,0.666625,-0.6789375,-0.2801875,0.95846875,0.017408569554503713,0.023965012626035113,True
17636,111366,0,111367,4260.0,42107.0,27297.0,-0.0050019999999999995,0.001647,0.001647,0.9800000000000001,-0.8400000000000001,-3.99,0.69884375,-0.25096875,0.30265625,0.9810625000000001,0.66215625,-0.68153125,-0.28259375000000003,0.9474375,0.01744472397756926,0.024101626293525587,True
17637,111367,0,111368,4259.0,42102.0,27294.0,-0.001586,0.001586,0.00183,1.0150000000000001,-1.1900000000000002,-3.99,0.6900625,-0.25021875,0.298375,0.974125,0.66884375,-0.67871875,-0.27821875,0.96440625,0.0173631380275769,0.023749425603968578,True
17638,111368,0,111369,4261.0,42105.0,27291.0,0.000549,0.001952,0.001037,0.7175,-1.4000000000000001,-4.0425,0.69534375,-0.2534375,0.3025625,0.97865625,0.6618437500000001,-0.67825,-0.28096875,0.9579062500000001,0.01721404475600985,0.02403245340036114,True
17639,111369,0,111370,4260.0,42101.0,27287.0,0.001037,0.0006709999999999999,-0.000732,0.5425000000000001,-1.5750000000000002,-4.0075,0.6955,-0.24990625,0.30012500000000003,0.97675,0.66225,-0.68003125,-0.27840625,0.9586250000000001,0.017428057348995454,0.023829045615380955,True
17640,111370,0,111371,4261.0,42102.0,27284.0,0.000549,-0.000305,-0.0023179999999999997,0.43750000000000006,-1.6800000000000002,-3.99,0.68546875,-0.25346875,0.30221875,0.964875,0.66334375,-0.67778125,-0.280125,0.9597187500000001,0.017194110592904294,0.02398438022868498,True
17641,111371,0,111372,4261.0,42099.0,27283.0,0.002013,-0.000793,-6.1e-05,0.43750000000000006,-1.6450000000000002,-3.9200000000000004,0.69071875,-0.25028125,0.3035625,0.9810625000000001,0.6623125,-0.679625,-0.27828125,0.9577187500000001,0.01739668856394698,0.023965607120561717,True
17642,111372,0,111373,4259.0,42099.0,27279.0,0.003111,0.00061,-0.0025009999999999998,0.5425000000000001,-1.5575,-3.9725000000000006,0.69021875,-0.2500625,0.30003125,0.975,0.6684375,-0.67903125,-0.27853125,0.94715625,0.017381912022985096,0.023830210075001967,True
17643,111373,0,111374,4261.0,42097.0,27278.0,-0.00061,-0.0013419999999999999,-0.004026,0.5075000000000001,-1.5050000000000001,-4.130000000000001,0.69046875,-0.25203125,0.3028125,0.9746250000000001,0.66590625,-0.67853125,-0.27734375,0.96384375,0.017282227847331882,0.023897023330651645,True
17644,111374,0,111375,4262.0,42094.0,27274.0,-0.0017079999999999999,6.1e-05,-0.00061,0.7175,-0.9450000000000001,-3.9025000000000003,0.6959062500000001,-0.25309375,0.30253125000000003,0.9741875,0.66225,-0.6778125,-0.27871875,0.96334375,0.017210550975699325,0.023940719688925104,True
17645,111375,0,111376,4263.0,42094.0,27270.0,-0.004697,0.000488,0.0046359999999999995,0.7525000000000001,-0.9100000000000001,-3.9025000000000003,0.69615625,-0.2508125,0.30234375,0.9749375,0.6626875,-0.68121875,-0.28078125,0.95975,0.017438614128404823,0.02401590764300469,True
17646,111376,0,111377,4262.0,42090.0,27269.0,-0.0060999999999999995,0.0008539999999999999,-6.1e-05,0.6300000000000001,-1.0325000000000002,-3.7975000000000003,0.69459375,-0.25278125,0.30312500000000003,0.9775312500000001,0.66271875,-0.67853125,-0.2795,0.95746875,0.01725183705979261,0.02399658147820178,True
17647,111377,0,111378,4264.0,42091.0,27269.0,0.001464,-0.00042699999999999997,0.000732,0.43750000000000006,-1.5050000000000001,-3.8675,0.694625,-0.250625,0.30303125000000003,0.9754375000000001,0.662,-0.67978125,-0.2808125,0.94903125,0.01738898111181597,0.02404547829690625,True
17648,111378,0,111379,4262.0,42090.0,27264.0,0.000793,0.0011589999999999999,-0.000915,0.24500000000000002,-1.8725000000000003,-4.025,0.69471875,-0.2496875,0.30278125,0.9744375000000001,0.66321875,-0.6803750000000001,-0.274625,0.9549062500000001,0.017450605997680346,0.023786412766417606,True
17649,111379,0,111380,4264.0,42089.0,27266.0,0.000732,0.000793,-0.002196,0.17500000000000002,-2.0650000000000004,-4.095000000000001,0.693875,-0.249875,0.3030625,0.97478125,0.66278125,-0.67490625,-0.282375,0.95196875,0.01722524275041572,0.02410956506519647,True
17650,111380,0,111381,4265.0,42089.0,27269.0,0.0021349999999999997,-0.001403,0.000183,0.21000000000000002,-2.2225,-3.9550000000000005,0.69428125,-0.2518125,0.30428125,0.97378125,0.66171875,-0.67871875,-0.28225,0.96221875,0.017298558094714703,0.024154732366234593,True
17651,111381,0,111382,4266.0,42090.0,27269.0,0.00366,-0.00183,-0.000793,0.10500000000000001,-2.0650000000000004,-3.8850000000000002,0.6960937500000001,-0.2511875,0.3095625,0.97575,0.6604375,-0.6774375,-0.281875,0.9576250000000001,0.01727286311635882,0.024357159403876352,True
17652,111382,0,111383,4266.0,42090.0,27268.0,0.000976,-0.001464,0.000244,0.14,-1.8550000000000002,-3.9025000000000003,0.6939375,-0.25009375,0.30325,0.9762500000000001,0.6548125,-0.683,-0.281125,0.95365625,0.01753863995462464,0.02406704796421089,True
17653,111383,0,111384,4266.0,42089.0,27269.0,0.000244,-0.000549,0.002745,0.36750000000000005,-1.6800000000000002,-3.8150000000000004,0.6913125,-0.24990625,0.30440625,0.992375,0.6658437500000001,-0.6850625,-0.27684375,0.9498125000000001,0.017628322796428002,0.02394256872868822,True
17654,111384,0,111385,4268.0,42089.0,27270.0,-0.000244,0.000732,-0.0006709999999999999,0.42000000000000004,-1.5925000000000002,-3.8850000000000002,0.713,-0.24959375,0.31215625,0.99471875,0.66778125,-0.6821875000000001,-0.27709375,0.9559062500000001,0.017526556347568466,0.02427185090884283,True
17655,111385,0,111386,4269.0,42088.0,27269.0,0.000244,0.0011589999999999999,-0.001403,0.5075000000000001,-1.5050000000000001,-3.99,0.705875,-0.24578125,0.3076875,0.9825,0.66953125,-0.68284375,-0.27718750000000003,0.95346875,0.017707137168909072,0.02409154684825003,True
17656,111386,0,111387,4270.0,42089.0,27268.0,-0.000488,0.002013,0.002379,0.6475000000000001,-1.435,-4.1475,0.71515625,-0.25078125,0.31059375,0.96303125,0.66309375,-0.6829375,-0.271125,0.9556250000000001,0.017508299002094056,0.023967523137061016,True
17657,111387,0,111388,4272.0,42085.0,27268.0,-0.001098,0.00122,0.0015249999999999999,0.42000000000000004,-1.155,-3.9725000000000006,0.69646875,-0.25365625,0.29896875,0.96459375,0.6594375,-0.677625,-0.28059375000000003,0.9695,0.01718028983745397,0.023869370986860646,True
17658,111388,0,111389,4269.0,42086.0,27270.0,-0.0025009999999999998,-0.00061,-0.002928,0.3325,-1.3125000000000002,-3.9025000000000003,0.6769375,-0.25509375,0.30384375,0.9744375000000001,0.659125,-0.67296875,-0.27153125,0.96984375,0.016936551261185383,0.02370575610057565,True
17659,111389,0,111390,4272.0,42087.0,27268.0,-0.002196,-0.000183,-0.0021349999999999997,0.385,-1.3650000000000002,-3.8850000000000002,0.67721875,-0.245,0.30046875,0.9967812500000001,0.6637500000000001,-0.67803125,-0.27615625,0.9558125000000001,0.017547236471710036,0.023752730624313722,True
17660,111390,0,111391,4273.0,42085.0,27268.0,-0.000549,0.000244,-0.000244,0.29750000000000004,-1.3475000000000001,-3.9375000000000004,0.6956875,-0.24746875000000002,0.30965625,0.963,0.67575,-0.6855625,-0.27796875,0.9560625,0.01774696241983548,0.024204043017396176,True
17661,111391,0,111392,4273.0,42087.0,27268.0,0.0013419999999999999,-0.002745,0.001769,0.12250000000000001,-1.7325000000000002,-3.7625,0.699125,-0.25615625000000003,0.29253125,0.976125,0.658875,-0.6773125,-0.2753125,0.96665625,0.017066536317518366,0.023391820393661257,True
17662,111392,0,111393,4273.0,42083.0,27268.0,0.003721,-0.001037,-0.002928,0.07,-1.8025000000000002,-3.8150000000000004,0.67703125,-0.25334375,0.29540625,1.00096875,0.666875,-0.67778125,-0.27415625,0.946875,0.017199175878098848,0.023463740372026316,True
17663,111393,0,111394,4274.0,42085.0,27270.0,0.002379,-0.000976,-0.002745,0.17500000000000002,-1.5925000000000002,-3.9550000000000005,0.690875,-0.24759375,0.30940625,0.97959375,0.6703125,-0.6820625,-0.27740625,0.9566875,0.017602611208038226,0.024171136486213392,True
17664,111394,0,111395,4274.0,42087.0,27267.0,0.000122,0.000183,-0.001647,0.43750000000000006,-1.4525000000000001,-3.9550000000000005,0.71034375,-0.26053125,0.29234375,0.97959375,0.65571875,-0.6809375,-0.27875,0.96440625,0.017033641854163766,0.02352237038562529,True
17665,111395,0,111396,4277.0,42085.0,27267.0,-0.0018909999999999999,0.0013419999999999999,0.0008539999999999999,0.7350000000000001,-1.33,-3.9200000000000004,0.6785625000000001,-0.24540625,0.29753125,0.99521875,0.6689375,-0.67384375,-0.276625,0.9585312500000001,0.01736403554877825,0.02365057951836386,True
17666,111396,0,111397,4278.0,42085.0,27266.0,-0.00183,0.002745,0.001281,0.7875000000000001,-1.05,-3.8325000000000005,0.69203125,-0.24721875000000001,0.30828125,0.97875,0.67028125,-0.6815,-0.2770625,0.958125,0.017595415594676173,0.0241109792422374,True
17667,111397,0,111398,4279.0,42086.0,27267.0,-0.0023179999999999997,0.002562,-0.00183,0.7350000000000001,-1.2075,-3.9200000000000004,0.698875,-0.24996875000000002,0.30771875,0.977125,0.662875,-0.68203125,-0.27753125,0.9580000000000001,0.017505143544456047,0.024106652112743137,True
17668,111398,0,111399,4278.0,42086.0,27268.0,-0.001098,0.001586,-0.0015249999999999999,0.6825000000000001,-1.4700000000000002,-3.9550000000000005,0.69071875,-0.253625,0.303875,0.965,0.66228125,-0.6785625000000001,-0.2764375,0.9649375,0.017218891902638173,0.023904351699049746,True
17669,111399,0,111400,4281.0,42085.0,27264.0,-0.002196,0.0008539999999999999,-6.1e-05,0.5075000000000001,-1.715,-3.9200000000000004,0.68865625,-0.25003125,0.302875,0.9811875,0.66903125,-0.68209375,-0.277375,0.94928125,0.017505099217930007,0.02390085419037272,True
17670,111400,0,111401,4282.0,42089.0,27269.0,0.000122,-0.00061,0.0030499999999999998,0.22750000000000004,-2.0125,-3.7100000000000004,0.6910000000000001,-0.2515625,0.30515625,0.9746250000000001,0.66334375,-0.68134375,-0.27875,0.9560000000000001,0.0174132030392389,0.024050095247901977,True
17671,111401,0,111402,4282.0,42088.0,27267.0,0.004514,-0.0026839999999999998,-0.0015249999999999999,-0.22750000000000004,-2.1175,-3.7450000000000006,0.6965,-0.25359375,0.30596875,0.97509375,0.662625,-0.67825,-0.27690625,0.9651875,0.017207713269782095,0.024009443130753122,True
17672,111402,0,111403,4284.0,42090.0,27270.0,0.004758,-0.003477,-0.002562,-0.21000000000000002,-1.9600000000000002,-3.7625,0.69075,-0.25328125,0.30362500000000003,0.97496875,0.66703125,-0.67925,-0.27590625,0.9627187500000001,0.017260198344763313,0.023872692703284768,True
17673,111403,0,111404,4283.0,42093.0,27273.0,0.0037819999999999998,-0.001281,-0.0023179999999999997,0.035,-1.3825,-3.7275000000000005,0.69021875,-0.250875,0.30178125,0.98340625,0.67171875,-0.6782812500000001,-0.27684375,0.95775,0.017319125496229607,0.02383444099894575,True
17674,111404,0,111405,4286.0,42094.0,27272.0,6.1e-05,0.000305,-6.1e-05,0.56,-0.9450000000000001,-3.6925000000000003,0.6910937500000001,-0.2505625,0.30478125,0.9834375000000001,0.6618125,-0.6794375,-0.28003125,0.958375,0.017377827189132656,0.02408615104233031,True
17675,111405,0,111406,4285.0,42093.0,27272.0,-0.004209,0.0021349999999999997,0.00183,0.77,-0.5775,-3.6750000000000003,0.6980937500000001,-0.25125000000000003,0.3050625,0.97521875,0.6555625,-0.67815625,-0.27453125,0.9647187500000001,0.017298952388308992,0.023876619656661754,True
17676,111406,0,111407,4286.0,42096.0,27271.0,-0.004331,0.00244,0.002013,0.7350000000000001,-0.4025,-3.6575,0.69403125,-0.25246875,0.30415625,0.980875,0.65540625,-0.67959375,-0.2760625,0.95821875,0.017306808382937827,0.023900859128205,True
17677,111407,0,111408,4289.0,42096.0,27272.0,-0.0021349999999999997,0.0006709999999999999,-0.000122,0.42000000000000004,-0.56,-3.7100000000000004,0.69125,-0.249875,0.3045625,0.9803125,0.66,-0.682625,-0.27678125,0.958875,0.017532576052992743,0.023946492082841504,True
17678,111408,0,111409,4290.0,42098.0,27273.0,-0.001098,-0.00042699999999999997,-0.0006709999999999999,0.14,-0.8750000000000001,-3.7800000000000002,0.6936875,-0.25040625,0.30403125000000003,0.981875,0.6616562500000001,-0.681,-0.27621875,0.9580625,0.017446365625379847,0.02390199256216539,True
17679,111409,0,111410,4290.0,42100.0,27279.0,0.001037,-0.0023179999999999997,-0.001403,-0.08750000000000001,-1.2425000000000002,-3.6925000000000003,0.69796875,-0.25109375,0.30525,0.9782500000000001,0.66196875,-0.67834375,-0.27690625,0.9599062500000001,0.017312750171899198,0.023979836804782325,True
17680,111410,0,111411,4293.0,42103.0,27278.0,0.0050019999999999995,-0.0026839999999999998,0.000488,-0.35000000000000003,-1.33,-3.6750000000000003,0.6974375,-0.24631250000000002,0.3068125,0.9685625,0.662,-0.67825,-0.27918750000000003,0.96596875,0.0175027605279953,0.024135898287370616,True
17681,111411,0,111412,4293.0,42105.0,27282.0,0.0034159999999999998,-0.001769,-0.002013,0.17500000000000002,-1.3125000000000002,-3.7800000000000002,0.6910625,-0.25328125,0.3039375,0.9775312500000001,0.66378125,-0.67953125,-0.27653125,0.9581875,0.017271397729646913,0.023910695643554927,True
17682,111412,0,111413,4293.0,42106.0,27281.0,-0.000915,0.001037,-0.0028669999999999998,0.525,-0.9275000000000001,-3.8150000000000004,0.69034375,-0.25084375000000003,0.30565625,0.97578125,0.67084375,-0.67953125,-0.2768125,0.9580625,0.017370163787045187,0.023992801773297056,True
17683,111413,0,111414,4293.0,42106.0,27281.0,-0.004026,0.002562,0.000488,1.0325000000000002,-0.385,-3.7275000000000005,0.6904375,-0.253,0.305,0.975125,0.6633125,-0.6785625000000001,-0.27728125,0.9639062500000001,0.017244217526851496,0.023984615245992585,True
17684,111414,0,111415,4296.0,42107.0,27282.0,-0.004758,0.0030499999999999998,0.0030499999999999998,1.155,-0.07,-3.535,0.68996875,-0.24646875000000001,0.30678125,0.97484375,0.668625,-0.67496875,-0.2724375,0.9583125,0.01736577680569504,0.02386322964061603,True
17685,111415,0,111416,4295.0,42105.0,27282.0,-0.004941,0.003965,0.003111,1.0325000000000002,-0.31500000000000006,-3.4650000000000003,0.695875,-0.2504375,0.310125,0.97521875,0.66203125,-0.67953125,-0.27718750000000003,0.96409375,0.017386624796611568,0.024191949747061927,True
17686,111416,0,111417,4297.0,42107.0,27280.0,-0.002623,0.001098,-0.002623,0.47250000000000003,-0.8400000000000001,-3.6925000000000003,0.6889375,-0.25221875,0.304375,0.9765,0.66234375,-0.67953125,-0.2755,0.95834375,0.01731444960082052,0.023887252579761487,True
17687,111417,0,111418,4298.0,42107.0,27284.0,-0.0006709999999999999,-0.0006709999999999999,6.1e-05,0.12250000000000001,-1.225,-3.6050000000000004,0.683125,-0.24996875000000002,0.30409375,0.98178125,0.6673125,-0.68040625,-0.27540625,0.95925,0.017440454409051714,0.023871897097499657,True
17688,111418,0,111419,4296.0,42109.0,27287.0,0.001647,-0.0034159999999999998,0.001586,-0.08750000000000001,-1.5050000000000001,-3.5875000000000004,0.69515625,-0.25059375,0.30521875,0.98078125,0.66259375,-0.681125,-0.27821875,0.95828125,0.01744374496705478,0.024031314076532077,True
17689,111419,0,111420,4295.0,42110.0,27291.0,0.0059169999999999995,-0.0037819999999999998,0.001281,-0.17500000000000002,-1.8725000000000003,-3.6750000000000003,0.69821875,-0.24725,0.306,0.9751562500000001,0.66246875,-0.67940625,-0.27734375,0.96221875,0.017510804175039665,0.0240283185840708,True
17690,111420,0,111421,4293.0,42115.0,27294.0,0.006954,-0.00183,-0.002928,-0.035,-1.9425000000000001,-3.8500000000000005,0.6901875000000001,-0.2521875,0.30296875,0.975,0.663625,-0.67890625,-0.2763125,0.9588125000000001,0.017290829086074266,0.02386199510325137,True
17691,111421,0,111422,4290.0,42117.0,27297.0,0.002074,0.000732,-0.001403,0.24500000000000002,-1.4175000000000002,-3.8850000000000002,0.6896875,-0.24878125,0.30593750000000003,0.9726875,0.6704375,-0.682625,-0.2783125,0.95840625,0.017576888600786992,0.024064687362435097,True
17692,111422,0,111423,4286.0,42118.0,27297.0,-0.0030499999999999998,0.001037,0.001098,0.525,-1.2075,-3.8500000000000005,0.69534375,-0.24656250000000002,0.30312500000000003,0.97984375,0.6617500000000001,-0.6793750000000001,-0.27575,0.958375,0.0175374173778712,0.02384581320865473,True
17693,111423,0,111424,4283.0,42118.0,27295.0,-0.004514,0.000305,0.001281,0.7525000000000001,-1.0150000000000001,-3.6225000000000005,0.68990625,-0.25021875,0.305875,0.9675,0.66628125,-0.685,-0.271,0.97771875,0.017613176017824594,0.023768077129084093,True
17694,111424,0,111425,4281.0,42114.0,27294.0,-0.003477,0.002196,0.002074,0.6300000000000001,-0.8575,-3.5875000000000004,0.69003125,-0.25165625,0.3025625,0.97465625,0.66621875,-0.682875,-0.274625,0.95275,0.017470361536085242,0.023777401298681233,True
17695,111425,0,111426,4278.0,42115.0,27289.0,-0.004331,0.0006709999999999999,0.0037819999999999998,0.5075000000000001,-0.9975,-3.6575,0.6940000000000001,-0.25028125,0.30528125,0.97490625,0.6554375,-0.675875,-0.2688125,0.9603125,0.017247362048964827,0.02365561767803843,True
17696,111426,0,111427,4277.0,42112.0,27286.0,-0.000732,-0.002074,-0.00061,0.10500000000000001,-1.3825,-3.5700000000000003,0.6901875000000001,-0.249875,0.30234375,0.9728125,0.6775,-0.67765625,-0.27521875,0.9516875,0.01733476006255659,0.023792267577403395,True
17697,111427,0,111428,4274.0,42108.0,27284.0,0.0015249999999999999,-0.0013419999999999999,-0.0025009999999999998,0.0,-1.6800000000000002,-3.6575,0.6925,-0.25059375,0.30543750000000003,0.97346875,0.6553125,-0.67934375,-0.28134375,0.9753125,0.017372828238190086,0.024165929861274665,True
17698,111428,0,111429,4273.0,42108.0,27281.0,0.002196,-0.00061,-0.0008539999999999999,0.35000000000000003,-1.5750000000000002,-3.7625,0.69078125,-0.2525,0.3028125,0.9743125,0.6733125,-0.67890625,-0.2728125,0.95115625,0.01727816645034664,0.02371480437217566,True
17699,111429,0,111430,4270.0,42107.0,27279.0,0.001952,0.001281,-0.0006709999999999999,0.42000000000000004,-1.5925000000000002,-3.8675,0.6895,-0.25009375,0.30296875,0.96996875,0.66803125,-0.6839375,-0.27325,0.95303125,0.017575953998425087,0.023738838021278567,True
17700,111430,0,111431,4270.0,42105.0,27279.0,0.001586,0.0011589999999999999,-0.000366,0.45500000000000007,-1.7500000000000002,-3.8850000000000002,0.69021875,-0.25009375,0.30534375,0.97384375,0.65625,-0.68290625,-0.28200000000000003,0.96696875,0.0175349083943468,0.024188442055843837,True
17701,111431,0,111432,4268.0,42105.0,27278.0,0.002928,0.000122,-0.002074,0.36750000000000005,-1.61,-3.8500000000000005,0.6898125,-0.2475,0.304625,0.9751875,0.6745,-0.68221875,-0.27728125,0.955375,0.017612628524329887,0.023969168705824502,True
17702,111432,0,111433,4268.0,42105.0,27279.0,0.0013419999999999999,0.00061,-0.0018909999999999999,0.31500000000000006,-1.4700000000000002,-3.9375000000000004,0.69515625,-0.2511875,0.30534375,0.9667187500000001,0.644875,-0.67509375,-0.27828125,0.97640625,0.017179519328067397,0.024038975164273627,True
17703,111433,0,111434,4269.0,42106.0,27279.0,0.000976,-0.000244,0.000915,0.15750000000000003,-1.1025,-3.8850000000000002,0.6824687500000001,-0.2504375,0.30275,0.98309375,0.68109375,-0.6839375,-0.27509375,0.952875,0.017562027938208807,0.023803976040257312,True
17704,111434,0,111435,4267.0,42107.0,27277.0,-0.00122,-0.001586,0.002379,0.17500000000000002,-0.6300000000000001,-3.7975000000000003,0.6961875,-0.24431250000000002,0.30515625,0.9745625,0.65540625,-0.676125,-0.27734375,0.9704375000000001,0.017499202164035072,0.02399356395816573,True
17705,111435,0,111436,4268.0,42104.0,27276.0,-0.003294,-0.0018909999999999999,0.001037,0.4025,-0.5075000000000001,-3.6575,0.69596875,-0.25203125,0.30603125000000003,0.976375,0.6593125,-0.67678125,-0.27425,0.96940625,0.017212536582338914,0.023905218492847363,True
17706,111436,0,111437,4267.0,42107.0,27275.0,-0.0034159999999999998,0.000488,0.000976,0.805,-0.7175,-3.6050000000000004,0.69953125,-0.253875,0.30575,0.97478125,0.6546875,-0.67765625,-0.2753125,0.96490625,0.017172670115299136,0.023936355093266054,True
17707,111437,0,111438,4266.0,42106.0,27274.0,-0.001098,0.0011589999999999999,-0.000183,0.665,-0.7525000000000001,-3.6400000000000006,0.69090625,-0.2515625,0.3041875,0.97409375,0.66221875,-0.67853125,-0.2749375,0.9663125,0.017301222089543922,0.023856910033239014,True
17708,111438,0,111439,4267.0,42104.0,27274.0,0.0011589999999999999,0.00061,-0.000305,0.47250000000000003,-0.7875000000000001,-3.6925000000000003,0.68965625,-0.25290625,0.3036875,0.9745625,0.66934375,-0.67940625,-0.27459375,0.9635,0.017281615111789814,0.02382248930530506,True
17709,111439,0,111440,4266.0,42107.0,27275.0,0.000976,-0.000732,0.000305,0.2625,-0.7875000000000001,-3.8150000000000004,0.6759375,-0.2500625,0.304375,0.9753437500000001,0.6705,-0.68096875,-0.2743125,0.95803125,0.017459049292787583,0.023839501118723756,True
17710,111440,0,111441,4268.0,42108.0,27274.0,-0.00042699999999999997,-0.000488,-0.0015249999999999999,0.31500000000000006,-0.9625000000000001,-3.9200000000000004,0.6901875000000001,-0.25065625,0.30859375,0.9754375000000001,0.6575,-0.67971875,-0.27478125000000003,0.9595,0.017385226482777485,0.024032142411170028,True
17711,111441,0,111442,4268.0,42108.0,27276.0,-0.001647,0.0006709999999999999,0.001952,0.42000000000000004,-0.8575,-3.8150000000000004,0.68496875,-0.249625,0.30593750000000003,0.9811562500000001,0.6684375,-0.67890625,-0.27534375,0.95859375,0.017394662699040806,0.02394533548057378,True
17712,111442,0,111443,4269.0,42111.0,27276.0,0.000305,0.0017079999999999999,0.003904,0.45500000000000007,-0.9275000000000001,-3.6925000000000003,0.68953125,-0.25034375000000003,0.303875,0.9801562500000001,0.66934375,-0.68290625,-0.27515625,0.957875,0.017524779927404213,0.023852833079086772,True
17713,111443,0,111444,4269.0,42112.0,27279.0,0.00244,0.00061,-0.000488,0.5425000000000001,-1.0150000000000001,-3.7275000000000005,0.6901875000000001,-0.24990625,0.30540625,0.98075,0.6703125,-0.68178125,-0.27521875,0.9585625,0.017497724156355206,0.023918425039939132,True
17714,111444,0,111445,4271.0,42113.0,27279.0,0.002257,0.0008539999999999999,-0.0032329999999999998,0.36750000000000005,-0.9625000000000001,-3.7975000000000003,0.68884375,-0.250625,0.306125,0.98028125,0.66796875,-0.68334375,-0.27565625,0.95646875,0.0175307994890279,0.023965623998321358,True
17715,111445,0,111446,4270.0,42115.0,27282.0,-0.002623,-0.001586,-0.000366,0.31500000000000006,-0.8225000000000001,-3.7625,0.69625,-0.24621875000000001,0.30703125000000003,0.97175,0.662375,-0.6813750000000001,-0.27809375000000003,0.96128125,0.017630956541116533,0.024100944910470993,True
17716,111446,0,111447,4271.0,42118.0,27281.0,-0.001647,-0.001403,-0.000183,0.28,-0.8925000000000001,-3.6750000000000003,0.697875,-0.25078125,0.307125,0.98403125,0.66146875,-0.6756562500000001,-0.2783125,0.95803125,0.017218387048976665,0.02411359932861891,True
17717,111447,0,111448,4271.0,42119.0,27280.0,-0.000915,-0.002745,-0.000549,0.22750000000000004,-0.9450000000000001,-3.5525,0.69734375,-0.2506875,0.30578125,0.9772500000000001,0.6605,-0.68071875,-0.27618750000000003,0.95959375,0.01742377336559536,0.02397282316261563,True
17718,111448,0,111449,4272.0,42118.0,27282.0,0.0011589999999999999,-0.0015249999999999999,0.0021349999999999997,0.3325,-1.0150000000000001,-3.7450000000000006,0.6999062500000001,-0.25203125,0.30590625,0.96709375,0.66153125,-0.6731875,-0.27540625,0.9611875,0.017069389595487004,0.023946561141484503,True
17719,111449,0,111450,4274.0,42121.0,27284.0,0.002623,0.000244,0.002013,0.31500000000000006,-0.9625000000000001,-3.8500000000000005,0.69903125,-0.2540625,0.30521875,0.9733125,0.66190625,-0.679,-0.27675,0.965875,0.017218586652619636,0.02397226770469688,True
17720,111450,0,111451,4272.0,42123.0,27282.0,0.0032329999999999998,0.00244,-0.001403,0.42000000000000004,-0.47250000000000003,-3.8850000000000002,0.694625,-0.2556875,0.30490625,0.97246875,0.6617500000000001,-0.678625,-0.278,0.964875,0.017137806502590804,0.024009648653101574,True
17721,111451,0,111452,4275.0,42125.0,27284.0,-0.001403,0.0011589999999999999,-0.000305,0.5775,-0.45500000000000007,-3.8675,0.68753125,-0.255,0.305,0.97271875,0.65965625,-0.67884375,-0.2735625,0.96509375,0.01717437633195437,0.023835088071641728,True
17722,111452,0,111453,4272.0,42125.0,27281.0,-0.005795,-0.000305,0.002989,0.8750000000000001,-0.5425000000000001,-3.9025000000000003,0.68759375,-0.248875,0.3070625,0.97278125,0.6639375000000001,-0.6788125,-0.276125,0.9606875,0.01742132041401911,0.024023088528338028,True
17723,111453,0,111454,4276.0,42124.0,27279.0,-0.007259,0.000915,0.002013,0.8575,-0.6825000000000001,-3.9550000000000005,0.69203125,-0.25265625,0.30693750000000003,0.97303125,0.66228125,-0.678875,-0.2783125,0.96403125,0.017270590738029994,0.024105876386589887,True
17724,111454,0,111455,4275.0,42122.0,27277.0,-0.0055509999999999995,0.000366,0.0008539999999999999,0.77,-0.9975,-3.8675,0.68946875,-0.25540625,0.3063125,0.9720625,0.66246875,-0.679,-0.26884375,0.954875,0.017164137525831683,0.02369936763056543,True
17725,111455,0,111456,4275.0,42120.0,27274.0,-0.000122,0.000244,0.000305,0.49000000000000005,-1.61,-3.8850000000000002,0.68965625,-0.25609375,0.30459375,0.9725625,0.6623125,-0.674875,-0.27534375,0.96475,0.01697197047604091,0.023889980960619762,True
17726,111456,0,111457,4277.0,42119.0,27272.0,0.0023179999999999997,-0.000366,0.000183,0.385,-1.8375000000000001,-4.0425,0.67896875,-0.25440625,0.307875,0.9733437500000001,0.66246875,-0.67915625,-0.27534375,0.9635,0.01721088013290568,0.02402514897446097,True
17727,111457,0,111458,4275.0,42122.0,27274.0,0.004758,-0.000976,-0.00183,0.17500000000000002,-2.0300000000000002,-3.9550000000000005,0.692125,-0.25621875,0.3073125,0.96646875,0.662125,-0.67890625,-0.2689375,0.95515625,0.017127481085187884,0.02374434397880006,True
17728,111458,0,111459,4276.0,42122.0,27276.0,0.00488,-0.000122,-0.0028669999999999998,0.12250000000000001,-2.0475000000000003,-4.112500000000001,0.6874375,-0.24871875000000002,0.303,0.9848125,0.66496875,-0.679125,-0.27346875,0.95759375,0.01744009360137363,0.023748923400162988,True
17729,111459,0,111460,4277.0,42123.0,27278.0,0.0035989999999999998,-0.00122,-0.00122,0.22750000000000004,-1.8200000000000003,-4.130000000000001,0.70253125,-0.2524375,0.3065,0.974125,0.6495,-0.6814375,-0.27396875,0.9613125,0.017381483554189257,0.023913219794352743,True
17730,111460,0,111461,4278.0,42126.0,27279.0,0.0023179999999999997,0.001037,-0.000244,0.43750000000000006,-1.2775,-3.99,0.68978125,-0.24990625,0.3076875,0.9713437500000001,0.66571875,-0.6803750000000001,-0.276375,0.9607187500000001,0.017441742680165923,0.024058884409225014,True
17731,111461,0,111462,4276.0,42123.0,27281.0,-0.000732,0.001769,0.000305,0.47250000000000003,-0.9625000000000001,-3.9725000000000006,0.6873750000000001,-0.2495625,0.30734375,0.974125,0.66625,-0.680125,-0.27409375,0.9600625,0.017445717961315024,0.023953005454632064,True
17732,111462,0,111463,4278.0,42124.0,27283.0,-0.0032329999999999998,0.00061,0.0028669999999999998,0.6300000000000001,-0.8925000000000001,-3.99,0.6873750000000001,-0.2495625,0.30809375,0.976375,0.66228125,-0.6795,-0.27378125000000003,0.958125,0.017420835106059684,0.023971337386918243,True
17733,111463,0,111464,4279.0,42126.0,27282.0,-0.0035989999999999998,0.000549,0.001769,0.665,-0.8925000000000001,-3.8850000000000002,0.6973125,-0.25253125,0.30771875,0.97440625,0.6593125,-0.67909375,-0.27596875,0.9630625,0.017284366448828782,0.02404383965109528,True
17734,111464,0,111465,4279.0,42125.0,27281.0,-0.0034159999999999998,-0.000732,0.00042699999999999997,0.56,-0.8225000000000001,-3.8500000000000005,0.6893125,-0.25003125,0.30884375000000003,0.9819375,0.6666875,-0.6808125,-0.273125,0.95859375,0.017454095159954722,0.02397584777402992,True
17735,111465,0,111466,4279.0,42125.0,27280.0,-0.003538,-0.0006709999999999999,-0.000244,0.1925,-1.1900000000000002,-3.7975000000000003,0.69675,-0.25084375000000003,0.3070625,0.97378125,0.662625,-0.6785625000000001,-0.27815625,0.9556875,0.017331590930387455,0.024104744362537827,True
17736,111466,0,111467,4281.0,42124.0,27281.0,-0.000549,-0.0011589999999999999,0.002928,0.07,-1.3650000000000002,-3.6575,0.69021875,-0.25221875,0.30496875,0.96721875,0.6660625,-0.6796875,-0.27253125,0.9528125000000001,0.017320671098448877,0.023792326974550707,True
17737,111467,0,111468,4281.0,42125.0,27282.0,0.000793,-0.00244,0.00061,0.07,-1.7325000000000002,-3.7100000000000004,0.69796875,-0.25284375,0.30634375,0.97909375,0.652,-0.6766875,-0.27,0.9460000000000001,0.01717587702968642,0.02374716728471364,True
17738,111468,0,111469,4282.0,42125.0,27286.0,0.0034159999999999998,-0.0015249999999999999,-0.001281,0.14,-2.205,-3.8325000000000005,0.68940625,-0.25096875,0.3040625,0.974875,0.6543125,-0.68590625,-0.2750625,0.9470000000000001,0.0176188589389948,0.023856787186438758,True
17739,111469,0,111470,4284.0,42126.0,27285.0,0.0032329999999999998,-0.000366,-0.00244,0.21000000000000002,-2.3275,-3.9375000000000004,0.689625,-0.2503125,0.30465625,0.97403125,0.6728125,-0.68975,-0.27225,0.94775,0.017798377869358742,0.023768140572052444,True
17740,111470,0,111471,4285.0,42128.0,27288.0,0.004575,0.00061,0.0,0.6300000000000001,-2.3625000000000003,-3.9375000000000004,0.6903125,-0.25109375,0.30840625,0.98140625,0.657,-0.68371875,-0.2848125,0.95775,0.01752673510752913,0.024427561464598502,True
17741,111471,0,111472,4285.0,42128.0,27287.0,0.0030499999999999998,0.001403,0.000549,0.5775,-2.0300000000000002,-3.9550000000000005,0.6969375,-0.25384375,0.31325000000000003,0.97471875,0.65078125,-0.676875,-0.2645,0.95634375,0.017142820960919892,0.0238105050588308,True
17742,111472,0,111473,4285.0,42130.0,27289.0,0.000732,0.000549,0.00042699999999999997,0.5775,-1.6975000000000002,-3.99,0.68975,-0.25284375,0.30746875,0.9808125,0.6846875,-0.6832812500000001,-0.2676875,0.94596875,0.017438423021655602,0.023700496802589864,True
17743,111473,0,111474,4287.0,42128.0,27290.0,-0.0042699999999999995,-6.1e-05,-0.0008539999999999999,0.6475000000000001,-1.435,-4.0425,0.6894375,-0.25034375000000003,0.307625,0.982625,0.6659375,-0.68725,-0.27921875,0.949875,0.017697647571114646,0.02417061916376531,True
17744,111474,0,111475,4286.0,42131.0,27287.0,-0.00488,-0.0006709999999999999,-0.00061,0.6300000000000001,-1.435,-3.9550000000000005,0.69003125,-0.2508125,0.30934375000000003,0.9834375000000001,0.6495,-0.683875,-0.28434375,0.95584375,0.017544348284051835,0.024447335538972513,True
17745,111475,0,111476,4288.0,42127.0,27285.0,-0.002806,0.000244,0.001647,0.525,-1.6800000000000002,-3.8325000000000005,0.69859375,-0.25075000000000003,0.30834375,0.97528125,0.64865625,-0.674,-0.27471875,0.98378125,0.017153684039880036,0.024019330810990343,True
17746,111476,0,111477,4287.0,42127.0,27285.0,-0.001464,0.000488,-0.0008539999999999999,0.47250000000000003,-1.8725000000000003,-3.8850000000000002,0.69521875,-0.2493125,0.30521875,0.9755312500000001,0.6665,-0.671625,-0.26615625,0.94765625,0.017117336211133236,0.023546168338877318,True
17747,111477,0,111478,4287.0,42129.0,27288.0,0.00061,-0.000183,-0.001647,0.35000000000000003,-2.1525000000000003,-3.9200000000000004,0.6805625,-0.25065625,0.3061875,0.972375,0.6658125,-0.69071875,-0.2705,0.947875,0.017822992698420335,0.023760841350610826,True
17748,111478,0,111479,4289.0,42130.0,27290.0,0.0021349999999999997,0.000183,-0.001586,0.31500000000000006,-2.345,-3.9375000000000004,0.6902812500000001,-0.24946875000000002,0.3076875,0.9689375,0.67184375,-0.68678125,-0.26865625,0.9597187500000001,0.017714439787487483,0.02374848215998774,True
17749,111479,0,111480,4289.0,42133.0,27290.0,0.0032329999999999998,-0.000183,-0.000305,0.22750000000000004,-2.555,-3.9550000000000005,0.69046875,-0.25025000000000003,0.30725,0.9811875,0.66671875,-0.6819375,-0.2700625,0.9515625,0.017490016737948547,0.023787021562058194,True
17750,111480,0,111481,4291.0,42134.0,27293.0,0.0046359999999999995,0.000183,0.001647,0.12250000000000001,-2.4325,-3.7975000000000003,0.69859375,-0.25215625,0.30853125,0.97490625,0.65821875,-0.6730625,-0.27146875,0.962875,0.01705934356547753,0.023896370095031844,True
17751,111481,0,111482,4293.0,42135.0,27294.0,0.004331,-0.00042699999999999997,0.00122,0.12250000000000001,-2.2575000000000003,-3.7975000000000003,0.69096875,-0.25121875,0.30634375,0.975,0.66296875,-0.6785,-0.27259375,0.96609375,0.017313906841987966,0.02385148888342434,True
17752,111482,0,111483,4293.0,42137.0,27294.0,0.004026,-0.000183,-0.00042699999999999997,0.28,-1.995,-3.9725000000000006,0.6900000000000001,-0.25065625,0.3085625,0.9694375000000001,0.65725,-0.6792812500000001,-0.27134375,0.95665625,0.017367807257352767,0.023892630584163684,True
17753,111483,0,111484,4293.0,42138.0,27296.0,-0.001769,0.0011589999999999999,-0.002013,0.4025,-1.6275000000000002,-3.9550000000000005,0.68975,-0.24759375,0.30846875,0.978625,0.66534375,-0.67540625,-0.27090625,0.95946875,0.017337607156923705,0.02387117291922299,True
17754,111484,0,111485,4295.0,42136.0,27294.0,-0.004758,0.000366,-0.0008539999999999999,0.665,-1.2425000000000002,-3.7800000000000002,0.6915625,-0.250625,0.30965625,0.972375,0.6661875,-0.680125,-0.26634375,0.95809375,0.017402667125875577,0.023736579599058883,True
17755,111485,0,111486,4294.0,42138.0,27295.0,-0.0048189999999999995,-0.000488,0.002562,0.49000000000000005,-1.0850000000000002,-3.535,0.695125,-0.25075000000000003,0.30996875,0.9749375,0.6615625,-0.6805,-0.27368750000000003,0.965,0.017412532161017808,0.024044811897656667,True
17756,111486,0,111487,4297.0,42138.0,27295.0,-0.0028669999999999998,-0.0015249999999999999,0.0015249999999999999,0.24500000000000002,-1.2950000000000002,-3.5525,0.69021875,-0.2511875,0.30990625,0.974875,0.66834375,-0.68209375,-0.27421875,0.95865625,0.01745825351627635,0.024063596279488914,True
17757,111487,0,111488,4297.0,42140.0,27294.0,-0.000366,-0.0026839999999999998,0.000305,0.052500000000000005,-1.6275000000000002,-3.4650000000000003,0.6896875,-0.2529375,0.30846875,0.9789375,0.661875,-0.6795,-0.27040625,0.9605,0.01728408193034705,0.023851063473649108,True
17758,111488,0,111489,4298.0,42141.0,27296.0,0.002562,-0.002928,0.000122,-0.12250000000000001,-1.9075000000000002,-3.6750000000000003,0.6936875,-0.2524375,0.3123125,0.97559375,0.669125,-0.68090625,-0.26559375,0.967,0.017360332949686565,0.02381587097987248,True
17759,111489,0,111490,4298.0,42140.0,27297.0,0.005246,-0.001769,-0.00061,0.10500000000000001,-2.0475000000000003,-3.7975000000000003,0.69046875,-0.25059375,0.3101875,0.979,0.6581875,-0.6793125,-0.270625,0.9591875,0.017371583993678913,0.023930677516545207,True
17760,111490,0,111491,4299.0,42142.0,27299.0,0.00366,0.002257,-0.0023179999999999997,0.7525000000000001,-1.5750000000000002,-3.9025000000000003,0.699375,-0.25553125,0.309375,0.9745,0.6616875,-0.67940625,-0.27215625,0.967,0.017175251126635187,0.023958779929162663,True
17761,111491,0,111492,4301.0,42143.0,27300.0,0.0011589999999999999,0.004026,0.000244,1.0325000000000002,-1.1025,-3.8850000000000002,0.69103125,-0.24978125,0.30578125,0.9853125,0.6638437500000001,-0.67965625,-0.26940625,0.95896875,0.01741819236238349,0.0237001059718962,True
17762,111492,0,111493,4302.0,42144.0,27299.0,-0.0035989999999999998,0.0037819999999999998,0.002257,1.1900000000000002,-0.7175,-3.7975000000000003,0.69115625,-0.24409375,0.31146875,0.9702500000000001,0.6698125,-0.68278125,-0.26653125,0.9586250000000001,0.01777301737420697,0.02381881423617148,True
17763,111493,0,111494,4302.0,42145.0,27300.0,-0.012383,0.0040869999999999995,-0.0059169999999999995,1.225,-0.5950000000000001,-3.5875000000000004,0.683625,-0.2479375,0.313625,0.9819375,0.65725,-0.67553125,-0.27025,0.95140625,0.017328654271627893,0.024057230560047792,True
17764,111494,0,111495,4303.0,42145.0,27299.0,-0.005124,0.001952,0.0028669999999999998,1.0325000000000002,-0.665,-3.4125000000000005,0.6970937500000001,-0.25325000000000003,0.3080625,0.9900625000000001,0.6626562500000001,-0.6788125,-0.2695,0.9586250000000001,0.017244042840391938,0.023797873874616286,True
17765,111495,0,111496,4306.0,42147.0,27302.0,0.00793,-0.000488,0.001586,0.0175,-1.3125000000000002,-4.0600000000000005,0.7069062500000001,-0.2565625,0.315125,0.9695625,0.66853125,-0.68253125,-0.27228125000000003,0.9603125,0.017257903805955883,0.02420070218986936,True
17766,111496,0,111497,4305.0,42146.0,27304.0,0.0021349999999999997,-0.0040869999999999995,-6.1e-05,-0.35000000000000003,-1.4525000000000001,-3.8850000000000002,0.6829375,-0.24809375,0.31121875,0.992125,0.66196875,-0.6794687500000001,-0.2670625,0.9559375,0.017479103961668543,0.023829882582615838,True
17767,111497,0,111498,4306.0,42149.0,27307.0,-0.0046359999999999995,-0.007137,-0.0015249999999999999,-0.4025,-1.5575,-3.4825000000000004,0.69815625,-0.24953125,0.31328125,0.96975,0.6619375000000001,-0.678875,-0.27275,0.95859375,0.017397217255648807,0.02414358694420698,True
17768,111498,0,111499,4305.0,42149.0,27307.0,-0.0021349999999999997,-0.006588,-0.0008539999999999999,-0.17500000000000002,-1.435,-3.43,0.69453125,-0.25928125,0.30853125,0.9693437500000001,0.65015625,-0.67909375,-0.2705625,0.9663437500000001,0.017010855595133028,0.023859922900427214,True
17769,111499,0,111500,4303.0,42151.0,27309.0,0.001952,-0.002013,0.000183,0.08750000000000001,-1.5925000000000002,-3.7450000000000006,0.68321875,-0.25846875,0.30678125,0.9706875,0.6618437500000001,-0.67859375,-0.27140625,0.9663437500000001,0.017023863039197683,0.023821755280454757,True
17770,111500,0,111501,4302.0,42152.0,27311.0,0.003355,0.003477,0.0006709999999999999,0.5775,-1.2425000000000002,-3.8675,0.68384375,-0.25228125,0.3031875,0.9695312500000001,0.6535625,-0.6794375,-0.2708125,0.96521875,0.017308184191799348,0.023649805707987734,True
17771,111501,0,111502,4300.0,42153.0,27311.0,-0.002196,0.0028669999999999998,-0.001281,0.7000000000000001,-1.1025,-3.7625,0.67340625,-0.2505,0.30696875,0.9921875,0.657,-0.6795625000000001,-0.26884375,0.962375,0.017385336551245592,0.023726408473827686,True
17772,111502,0,111503,4297.0,42156.0,27310.0,-0.0053679999999999995,0.002196,-0.000366,0.77,-1.0150000000000001,-3.6400000000000006,0.69425,-0.24971875000000002,0.3134375,0.9736250000000001,0.67009375,-0.6823125,-0.26446875000000003,0.958125,0.017526467586860026,0.023816975181045332,True
17773,111503,0,111504,4294.0,42153.0,27306.0,-0.004148,0.003355,0.001403,0.6300000000000001,-0.9975,-3.6400000000000006,0.69328125,-0.25378125,0.30793750000000003,0.97228125,0.66209375,-0.6794375,-0.271125,0.965875,0.0172474048486721,0.02385808239214293,True
17774,111504,0,111505,4293.0,42146.0,27304.0,-0.0017079999999999999,0.0018909999999999999,0.0032329999999999998,0.42000000000000004,-1.1375000000000002,-3.6750000000000003,0.6838125,-0.2495625,0.314125,0.9769375,0.67053125,-0.68003125,-0.26953125,0.95878125,0.017441985613369106,0.02404892966360856,True
17775,111505,0,111506,4289.0,42149.0,27304.0,0.003355,-0.001098,-0.000305,0.0175,-1.4700000000000002,-3.7275000000000005,0.6945625,-0.2459375,0.31178125,0.9746875,0.66209375,-0.6813125,-0.27240625,0.9580000000000001,0.017639864168487795,0.024067968127387457,True
17776,111506,0,111507,4287.0,42146.0,27301.0,0.0021349999999999997,-0.0032329999999999998,-0.000305,-0.14,-1.4875,-3.7100000000000004,0.6905,-0.25434375,0.3096875,0.9758125,0.66125,-0.6789375,-0.26846875,0.95759375,0.01720470137743977,0.023823351030336427,True
17777,111507,0,111508,4289.0,42144.0,27299.0,0.0011589999999999999,-0.003904,-0.001952,-0.035,-1.61,-3.8325000000000005,0.6946875,-0.25175000000000003,0.3115625,0.97475,0.660625,-0.6795,-0.27103125,0.96584375,0.01733219878846816,0.024003666922887756,True
17778,111508,0,111509,4286.0,42145.0,27296.0,0.001281,-0.002806,-0.001098,0.15750000000000003,-1.4875,-3.8500000000000005,0.68921875,-0.25078125,0.3180625,0.97784375,0.66871875,-0.6801875000000001,-0.26978125000000003,0.95834375,0.01739882446192923,0.02422122160660183,True
17779,111509,0,111510,4287.0,42140.0,27295.0,-0.001952,0.0011589999999999999,-0.000976,0.49000000000000005,-1.4700000000000002,-3.9550000000000005,0.6951875000000001,-0.2535625,0.3108125,0.9748125,0.6621875,-0.67684375,-0.27053125,0.96721875,0.017152973625324346,0.023952658638240563,True
17780,111510,0,111511,4288.0,42138.0,27292.0,-0.0017079999999999999,0.001769,0.0025009999999999998,0.6825000000000001,-1.1025,-3.9375000000000004,0.68975,-0.25084375000000003,0.31084375000000003,0.97209375,0.66221875,-0.68065625,-0.270125,0.95809375,0.017414954272133666,0.02393760847956078,True
17781,111511,0,111512,4288.0,42136.0,27293.0,-0.001464,0.002257,0.0023179999999999997,0.7175,-1.2075,-3.9375000000000004,0.691125,-0.2536875,0.30903125,0.978625,0.66246875,-0.67940625,-0.26853125,0.958125,0.017249959163827128,0.02379882383693904,True
17782,111512,0,111513,4285.0,42134.0,27291.0,-0.00183,0.000793,0.000793,0.5775,-1.2950000000000002,-3.9025000000000003,0.69034375,-0.25190625,0.3120625,0.9748125,0.67028125,-0.68090625,-0.2695,0.95825,0.017381857686040197,0.023962689795834276,True
17783,111513,0,111514,4287.0,42134.0,27291.0,0.000122,0.000793,-0.0006709999999999999,0.35000000000000003,-1.6275000000000002,-3.9200000000000004,0.6834375,-0.25328125,0.30871875,0.98065625,0.66178125,-0.67940625,-0.26896875,0.9587187500000001,0.017266420256767723,0.023803545422588255,True
17784,111514,0,111515,4286.0,42135.0,27291.0,0.002745,-0.00042699999999999997,-0.002379,0.21000000000000002,-1.9600000000000002,-3.9375000000000004,0.698375,-0.2508125,0.314375,0.97584375,0.66196875,-0.68196875,-0.2719375,0.962375,0.01746847078396046,0.024155982603366544,True
17785,111515,0,111516,4288.0,42135.0,27288.0,0.003538,-0.000732,-0.002379,0.43750000000000006,-1.8375000000000001,-3.9550000000000005,0.69034375,-0.2508125,0.31021875,0.98184375,0.6633125,-0.67940625,-0.26840625,0.95884375,0.017366453052329815,0.023842727620401523,True
17786,111516,0,111517,4288.0,42132.0,27286.0,0.001037,6.1e-05,-0.000305,0.5950000000000001,-1.5575,-3.9025000000000003,0.6910000000000001,-0.2505,0.3120625,0.975375,0.6687500000000001,-0.68271875,-0.26875,0.95840625,0.017510986304942605,0.02393252639711563,True
17787,111517,0,111518,4287.0,42134.0,27287.0,-0.001769,0.000488,0.001098,0.56,-1.2425000000000002,-3.8850000000000002,0.6890937500000001,-0.251625,0.308625,0.98240625,0.66246875,-0.67934375,-0.26828125,0.95865625,0.017331042281057415,0.023772027530791863,True
17788,111518,0,111519,4289.0,42133.0,27284.0,-0.0032329999999999998,0.000793,0.0018909999999999999,0.6475000000000001,-1.12,-3.7275000000000005,0.6899375,-0.2514375,0.31193750000000003,0.9688125,0.6644375,-0.6776875,-0.27228125000000003,0.96778125,0.017272688131738437,0.024069379552035308,True
17789,111519,0,111520,4288.0,42134.0,27284.0,-0.0013419999999999999,0.00061,0.0011589999999999999,0.525,-1.33,-3.535,0.6826875,-0.25115625,0.30915625,0.98046875,0.65290625,-0.67225,-0.2679375,0.9584375,0.017067504990424465,0.023780090500068247,True
17790,111520,0,111521,4289.0,42132.0,27285.0,0.001403,-0.000244,0.000122,0.21000000000000002,-1.3650000000000002,-3.7100000000000004,0.69778125,-0.25103125,0.311125,0.97496875,0.66521875,-0.67921875,-0.26384375,0.9655625,0.01735012377569691,0.02369652376285188,True
17791,111521,0,111522,4289.0,42135.0,27286.0,0.002196,0.000183,-0.001769,0.15750000000000003,-1.3475000000000001,-3.7450000000000006,0.6892812500000001,-0.24628125,0.3125,0.97509375,0.6605625,-0.6828125,-0.26996875,0.9583125,0.017685636513262014,0.023999567366562842,True
17792,111522,0,111523,4290.0,42135.0,27289.0,0.001464,-0.000915,-0.001464,0.31500000000000006,-1.2950000000000002,-3.6225000000000005,0.6949062500000001,-0.2534375,0.308875,0.97671875,0.6558125,-0.679,-0.2685625,0.96303125,0.017243911827869853,0.023793642495306428,True
17793,111523,0,111524,4291.0,42139.0,27287.0,0.001464,-0.001586,-0.0011589999999999999,0.36750000000000005,-1.1725,-3.5700000000000003,0.68953125,-0.25059375,0.31225,0.9795312500000001,0.6687500000000001,-0.6835,-0.26925,0.9576250000000001,0.017538284684100715,0.023960361362629665,True
17794,111524,0,111525,4291.0,42138.0,27288.0,-0.000976,-0.000183,-0.000122,0.42000000000000004,-1.155,-3.7275000000000005,0.68825,-0.253375,0.311875,0.97375,0.6616875,-0.67875,-0.27090625,0.9644375000000001,0.01723648888213544,0.024011515845231368,True
17795,111525,0,111526,4289.0,42139.0,27287.0,-0.001403,0.00042699999999999997,-0.00061,0.47250000000000003,-1.05,-3.7625,0.6820625,-0.251125,0.309875,0.97490625,0.6520312500000001,-0.67921875,-0.26775,0.9665312500000001,0.017346325033080718,0.02380216542530725,True
17796,111526,0,111527,4291.0,42142.0,27287.0,-0.001464,0.000976,0.001403,0.7175,-1.05,-3.7625,0.6896875,-0.253375,0.31275000000000003,0.97546875,0.662,-0.67934375,-0.27090625,0.96321875,0.01726013277804439,0.024047567239068382,True
17797,111527,0,111528,4290.0,42140.0,27288.0,-0.004148,0.0013419999999999999,0.0011589999999999999,0.7350000000000001,-1.1900000000000002,-3.7450000000000006,0.68953125,-0.25159375,0.30996875,0.975,0.66378125,-0.67934375,-0.26809375,0.95365625,0.017332308522182645,0.02381985606100603,True
17798,111528,0,111529,4291.0,42138.0,27286.0,-0.0015249999999999999,0.0018909999999999999,0.00122,0.7175,-1.2950000000000002,-3.7450000000000006,0.68915625,-0.2503125,0.3106875,0.9775312500000001,0.669375,-0.68271875,-0.26834375,0.955375,0.017518582712854516,0.023859528938805313,True
17799,111529,0,111530,4293.0,42140.0,27286.0,0.000915,-0.00042699999999999997,-0.0011589999999999999,0.35000000000000003,-1.5575,-3.8500000000000005,0.68971875,-0.250375,0.31215625,0.975125,0.67403125,-0.67403125,-0.2684375,0.95284375,0.017170126993334336,0.02392382080634569,True
17800,111530,0,111531,4292.0,42141.0,27285.0,0.001037,-0.0008539999999999999,-0.0018909999999999999,0.14,-1.6275000000000002,-3.8850000000000002,0.6850937500000001,-0.25271875,0.31271875,0.97540625,0.6716562500000001,-0.6795,-0.26790625,0.97228125,0.017292945562106202,0.02392563223290019,True
17801,111531,0,111532,4291.0,42139.0,27282.0,0.0026839999999999998,-0.002806,0.000549,0.08750000000000001,-1.6800000000000002,-3.8675,0.6938125,-0.25346875,0.31221875,0.9745625,0.6606562500000001,-0.67875,-0.2714375,0.95875,0.017232690067365646,0.024047040889110912,True
17802,111532,0,111533,4293.0,42138.0,27283.0,0.001098,-0.0011589999999999999,-0.00061,0.15750000000000003,-1.7850000000000001,-3.8675,0.69721875,-0.2508125,0.3130625,0.97603125,0.6594375,-0.68125,-0.2705625,0.95721875,0.017439858191947332,0.02404662026271538,True
17803,111533,0,111534,4292.0,42141.0,27282.0,0.001281,-0.001037,-0.0017079999999999999,0.21000000000000002,-1.8200000000000003,-3.9375000000000004,0.705125,-0.24975,0.3125625,0.9734375000000001,0.659375,-0.6776875,-0.26809375,0.9599062500000001,0.017341069741644146,0.023926735077822094,True
17804,111534,0,111535,4293.0,42142.0,27282.0,-0.001464,0.001586,0.002013,0.6475000000000001,-1.33,-4.0600000000000005,0.67721875,-0.2520625,0.298,0.98246875,0.6575625,-0.67840625,-0.26578125,0.971,0.017275983938387432,0.023233591541586985,True
17805,111535,0,111536,4293.0,42141.0,27279.0,-0.002623,0.001281,-0.000122,0.7000000000000001,-1.155,-3.9375000000000004,0.68978125,-0.25153125,0.31790625,0.958125,0.67459375,-0.6840937500000001,-0.26896875,0.95653125,0.01752393684698269,0.02418211527838405,True
17806,111536,0,111537,4294.0,42141.0,27281.0,-0.002196,0.001769,0.0015249999999999999,0.8400000000000001,-1.2425000000000002,-3.8150000000000004,0.7059062500000001,-0.25440625,0.3176875,0.9675625,0.65865625,-0.6804375,-0.26984375,0.95565625,0.017261900239815442,0.024208283170343858,True
17807,111537,0,111538,4294.0,42139.0,27281.0,-0.00042699999999999997,0.002989,0.0015249999999999999,0.6300000000000001,-1.4175000000000002,-3.8150000000000004,0.71246875,-0.2601875,0.31228125,0.9590000000000001,0.6550312500000001,-0.6800625,-0.268125,0.96903125,0.017012720287884198,0.023916402688712046,True
17808,111538,0,111539,4295.0,42139.0,27281.0,0.00042699999999999997,0.001952,0.000488,0.42000000000000004,-1.54,-3.9375000000000004,0.6764375,-0.253875,0.30362500000000003,0.96646875,0.6618437500000001,-0.6785625000000001,-0.267625,0.97090625,0.01720876165295284,0.023539592358131464,True
17809,111539,0,111540,4296.0,42140.0,27281.0,0.0023179999999999997,-0.002989,-0.000976,-0.12250000000000001,-1.7500000000000002,-3.7450000000000006,0.67675,-0.25640625,0.310375,0.99440625,0.6551875,-0.6784375,-0.2659375,0.9665625,0.017101214369831964,0.023749855120990072,True
17810,111540,0,111541,4296.0,42142.0,27281.0,0.00244,-0.002745,-0.001647,-0.12250000000000001,-1.8025000000000002,-3.9375000000000004,0.6879375,-0.24703125,0.318625,0.964875,0.67459375,-0.68453125,-0.2688125,0.95628125,0.017723650312379338,0.02420544886569955,True
17811,111541,0,111542,4298.0,42143.0,27283.0,0.001952,-0.0023179999999999997,-0.001037,0.052500000000000005,-1.54,-4.025,0.69325,-0.259625,0.31009375,0.959375,0.65878125,-0.67765625,-0.27034375,0.9619375,0.016939665816116552,0.023915503874970868,True
17812,111542,0,111543,4299.0,42145.0,27285.0,-0.00061,-0.000244,-0.000915,0.28,-1.3825,-4.0600000000000005,0.6880625,-0.2554375,0.3053125,0.981375,0.65896875,-0.6779375,-0.26603125,0.9653437500000001,0.01712055555696257,0.023545001822248952,True
17813,111543,0,111544,4300.0,42144.0,27285.0,-0.0026839999999999998,0.001403,0.001647,0.5075000000000001,-1.1375000000000002,-4.025,0.6772812500000001,-0.2500625,0.31159375,0.973375,0.669125,-0.6796875,-0.25953125,0.965375,0.01740804051915163,0.02354229329966959,True
17814,111544,0,111545,4301.0,42144.0,27286.0,-0.0018909999999999999,0.0021349999999999997,0.001464,0.5425000000000001,-1.2950000000000002,-3.99,0.6764687500000001,-0.26078125,0.3100625,0.9641875,0.662375,-0.679,-0.27078125000000003,0.96275,0.016946341018679853,0.023931811012469988,True
17815,111545,0,111546,4302.0,42144.0,27286.0,-0.000122,0.0013419999999999999,-0.00042699999999999997,0.22750000000000004,-1.2950000000000002,-4.077500000000001,0.706,-0.25625,0.31778125,0.97290625,0.661125,-0.679125,-0.26603125,0.95840625,0.017134926785289186,0.02405883739229092,True
17816,111546,0,111547,4301.0,42144.0,27287.0,0.001647,-0.000244,-0.000549,0.15750000000000003,-1.4525000000000001,-4.077500000000001,0.68921875,-0.26009375,0.31453125,0.9676250000000001,0.66146875,-0.67975,-0.27021875,0.96021875,0.0170040721644263,0.02409331395086828,True
17817,111547,0,111548,4302.0,42144.0,27288.0,0.001281,-0.0011589999999999999,-0.001464,0.0,-1.6975000000000002,-4.1475,0.68803125,-0.25328125,0.314875,0.9795,0.65221875,-0.67940625,-0.27028125000000003,0.9603125,0.017266420256767723,0.024109990484762103,True
17818,111548,0,111549,4304.0,42147.0,27292.0,0.001464,-0.001464,-0.00042699999999999997,0.0175,-1.6800000000000002,-4.095000000000001,0.6963125,-0.25090625,0.31325000000000003,0.9824375000000001,0.66178125,-0.68115625,-0.26515625,0.9580625,0.0174323275474584,0.023836906057425448,True
17819,111549,0,111550,4303.0,42147.0,27292.0,0.0021349999999999997,-0.0013419999999999999,0.00061,0.07,-1.4875,-3.9725000000000006,0.69046875,-0.25084375000000003,0.3115625,0.98165625,0.661875,-0.68309375,-0.26825,0.95840625,0.017511986316545106,0.02389181337756122,True
17820,111550,0,111551,4305.0,42149.0,27296.0,0.0,0.0011589999999999999,-0.0023179999999999997,0.35000000000000003,-1.4000000000000001,-3.9725000000000006,0.68934375,-0.25065625,0.31390625,0.9823125,0.66815625,-0.6804687500000001,-0.2691875,0.9578125000000001,0.017415086575290433,0.024026092756504518,True
17821,111551,0,111552,4307.0,42150.0,27293.0,-0.00061,0.0011589999999999999,-0.00061,0.6300000000000001,-1.3475000000000001,-4.0075,0.69184375,-0.25003125,0.31278125,0.980875,0.66140625,-0.6822812500000001,-0.270625,0.9581875,0.017512562782259038,0.02403754538665568,True
17822,111552,0,111553,4306.0,42148.0,27295.0,-0.002989,0.002257,-0.000976,0.6475000000000001,-1.2075,-4.0075,0.69728125,-0.2511875,0.31484375000000003,0.9784375000000001,0.6620625,-0.67515625,-0.2659375,0.9521875,0.01718200872588193,0.023934012440277656,True
17823,111553,0,111554,4307.0,42150.0,27296.0,-0.003111,0.002013,0.000305,0.5775,-1.2775,-3.9725000000000006,0.6820625,-0.24990625,0.31390625,0.9810625000000001,0.6614375,-0.678625,-0.27121875,0.9583125,0.017372067933282345,0.024107771679162178,True
17824,111554,0,111555,4308.0,42151.0,27297.0,0.000549,-0.00061,0.0013419999999999999,0.17500000000000002,-1.3475000000000001,-3.99,0.69528125,-0.25234375,0.313125,0.9752500000000001,0.66190625,-0.6785,-0.2685625,0.964375,0.01726832060295399,0.023968766176406198,True
17825,111555,0,111556,4308.0,42151.0,27295.0,0.000488,-0.0018909999999999999,0.000122,-0.0175,-1.5050000000000001,-4.077500000000001,0.69384375,-0.254375,0.313,0.9758125,0.66009375,-0.6794687500000001,-0.26759375,0.9654375000000001,0.017224590784597014,0.02392465260384541,True
17826,111556,0,111557,4309.0,42154.0,27297.0,-0.000549,-0.00183,-0.002989,-0.10500000000000001,-1.5925000000000002,-4.095000000000001,0.6885,-0.2525625,0.30953125,0.97540625,0.66559375,-0.6796875,-0.26821875,0.9645625,0.01730674264007597,0.02380685644676744,True
17827,111557,0,111558,4310.0,42154.0,27302.0,-0.000244,-0.002379,-0.000183,-0.14,-1.61,-4.130000000000001,0.6890000000000001,-0.24871875000000002,0.312875,0.97475,0.668875,-0.68015625,-0.2669375,0.9645,0.017481149455850793,0.02389310558862238,True
17828,111558,0,111559,4311.0,42155.0,27304.0,0.0013419999999999999,-0.000793,0.0030499999999999998,0.0175,-1.5225000000000002,-4.165,0.6935625,-0.24525,0.311625,0.97471875,0.6617500000000001,-0.67953125,-0.26671875,0.9658125000000001,0.017596819226459177,0.023832795688539472,True
17829,111559,0,111560,4313.0,42158.0,27305.0,6.1e-05,0.001464,-0.00061,0.31500000000000006,-1.9425000000000001,-4.1475,0.6895625,-0.2519375,0.30840625,0.9743437500000001,0.66596875,-0.6794687500000001,-0.26815625,0.96359375,0.01732335709211731,0.02375798532284462,True
17830,111560,0,111561,4313.0,42159.0,27307.0,-0.000305,0.0018909999999999999,-0.002989,0.47250000000000003,-2.0300000000000002,-4.2,0.69015625,-0.25359375,0.31175,0.96965625,0.6705,-0.67615625,-0.26737500000000003,0.9644375000000001,0.017124324214797433,0.023864344619061603,True
17831,111561,0,111562,4313.0,42160.0,27308.0,-0.0006709999999999999,0.00244,-0.001464,0.56,-2.1875,-4.0600000000000005,0.68915625,-0.2510625,0.31115625,0.9806875,0.66878125,-0.6810625,-0.2678125,0.954875,0.01742226453986736,0.023857475823171125,True
17832,111562,0,111563,4314.0,42164.0,27309.0,0.000793,0.00061,-0.00042699999999999997,0.45500000000000007,-2.3625000000000003,-3.9725000000000006,0.69659375,-0.25034375000000003,0.31246875,0.98271875,0.66240625,-0.68178125,-0.26837500000000003,0.9500937500000001,0.01747999853130535,0.02393418389158731,True
17833,111563,0,111564,4315.0,42165.0,27311.0,0.002562,-0.0008539999999999999,0.001769,0.08750000000000001,-2.5025000000000004,-3.9025000000000003,0.6900000000000001,-0.250125,0.31728125,0.980375,0.66671875,-0.68109375,-0.26790625,0.9575,0.017461493172278887,0.024113637739143646,True
17834,111564,0,111565,4315.0,42164.0,27314.0,0.004392,-0.0040869999999999995,-0.001037,-0.6475000000000001,-2.1525000000000003,-3.99,0.6848125,-0.25059375,0.30975,0.98159375,0.66328125,-0.681875,-0.26846875,0.95825,0.01747360158010686,0.023825926388536565,True
17835,111565,0,111566,4318.0,42168.0,27316.0,0.0026839999999999998,-0.005124,-0.00183,-0.5075000000000001,-1.8550000000000002,-4.0075,0.68675,-0.25128125,0.31275000000000003,0.98221875,0.6614375,-0.6816875,-0.27084375,0.95846875,0.017438282937501742,0.024045054057916713,True
17836,111566,0,111567,4318.0,42168.0,27319.0,-0.000549,-0.0017079999999999999,-0.0008539999999999999,0.08750000000000001,-1.0675000000000001,-3.99,0.6893125,-0.2505,0.31234375000000003,0.9809687500000001,0.66128125,-0.682,-0.26925,0.95796875,0.01748237582043595,0.02396422427557506,True
17837,111567,0,111568,4318.0,42171.0,27319.0,-0.005307,0.003477,-0.001098,0.665,-0.9450000000000001,-3.99,0.6969062500000001,-0.2496875,0.31290625,0.9819375,0.66115625,-0.68184375,-0.27015625,0.9579375,0.017509074863987825,0.024023846158798424,True
17838,111568,0,111569,4319.0,42171.0,27319.0,-0.0050019999999999995,0.004697,0.002745,1.1725,-0.7350000000000001,-3.9375000000000004,0.6969375,-0.250125,0.3126875,0.9707187500000001,0.66196875,-0.679875,-0.268625,0.9590000000000001,0.017412973120811998,0.02395325239893072,True
17839,111569,0,111570,4322.0,42171.0,27323.0,-0.001098,0.002989,0.000915,0.8750000000000001,-1.0150000000000001,-3.6575,0.6980000000000001,-0.251,0.3133125,0.98053125,0.65925,-0.67853125,-0.2703125,0.95865625,0.01732401518019838,0.024046867958539886,True
17840,111570,0,111571,4323.0,42173.0,27325.0,0.002562,0.0017079999999999999,0.000793,0.4025,-1.0850000000000002,-3.8325000000000005,0.695125,-0.25171875,0.3123125,0.9753125,0.66221875,-0.67896875,-0.2720625,0.9676875,0.017312311722911842,0.024076033917595586,True
17841,111571,0,111572,4322.0,42175.0,27330.0,0.0023179999999999997,-0.0013419999999999999,-0.001952,-0.08750000000000001,-1.2075,-3.8675,0.6895,-0.24640625,0.309875,0.980625,0.6671875,-0.68009375,-0.266625,0.9598125000000001,0.017572360315689647,0.023756908923263948,True
17842,111572,0,111573,4322.0,42176.0,27332.0,0.002989,-0.003172,-0.0062829999999999995,-0.36750000000000005,-1.435,-3.9375000000000004,0.68903125,-0.25090625,0.3126875,0.979625,0.65821875,-0.67784375,-0.2775,0.9609375,0.01730043776616423,0.024310060755843892,True
17843,111573,0,111574,4322.0,42182.0,27336.0,-0.000366,-0.0030499999999999998,0.002257,-0.36750000000000005,-1.0675000000000001,-3.9375000000000004,0.69415625,-0.25534375,0.311625,0.9723125,0.6587500000000001,-0.6782812500000001,-0.26484375,0.9741875,0.01713804521941738,0.023757365014971506,True
17844,111574,0,111575,4320.0,42183.0,27340.0,-0.0040869999999999995,-0.001403,0.005124,0.31500000000000006,-0.12250000000000001,-3.7450000000000006,0.6920000000000001,-0.25309375,0.311,0.982,0.66859375,-0.67528125,-0.2655625,0.953375,0.017109734058249084,0.023760524817835974,True
17845,111575,0,111576,4318.0,42185.0,27341.0,-0.00366,-0.000183,0.004331,0.4025,-0.24500000000000002,-3.8675,0.69575,-0.2538125,0.30859375,0.9825625,0.65409375,-0.67784375,-0.26665625,0.9525625,0.01718267018365411,0.02370536731858144,True
17846,111576,0,111577,4317.0,42185.0,27344.0,-0.001281,0.000549,-6.1e-05,0.3325,-0.2625,-3.8500000000000005,0.69278125,-0.25125000000000003,0.3125,0.97496875,0.64815625,-0.677625,-0.2725,0.9745,0.017277797194827298,0.024101349263569882,True
17847,111577,0,111578,4313.0,42189.0,27347.0,-0.002257,0.001037,-0.00042699999999999997,0.21000000000000002,-0.7875000000000001,-3.8675,0.69540625,-0.2529375,0.30971875,0.97503125,0.6593125,-0.67890625,-0.26640625,0.95040625,0.017260438760327963,0.02374166961784875,True
17848,111578,0,111579,4310.0,42188.0,27347.0,0.001952,0.001403,0.000366,0.17500000000000002,-1.4525000000000001,-3.7975000000000003,0.68990625,-0.2511875,0.309,0.9756875,0.6795625000000001,-0.6879375,-0.26740625,0.95375,0.017690825732202212,0.023752280901466343,True
17849,111579,0,111580,4306.0,42188.0,27346.0,0.0060999999999999995,-0.001281,0.001647,0.14,-1.435,-3.7100000000000004,0.680125,-0.25015625,0.3090625,0.97490625,0.657375,-0.685125,-0.26175,0.95475,0.01762068249603759,0.02352725998742877,True
17850,111580,0,111581,4306.0,42187.0,27341.0,0.005612,-0.001403,-0.000488,0.07,-1.6625,-3.8150000000000004,0.690375,-0.25234375,0.30840625,0.97528125,0.67965625,-0.6832812500000001,-0.26678125,0.9466875,0.017458679647787915,0.023702669673177194,True
17851,111581,0,111582,4303.0,42184.0,27340.0,0.001647,-0.0008539999999999999,-0.002806,0.21000000000000002,-1.7850000000000001,-3.7975000000000003,0.69003125,-0.25275000000000003,0.308875,0.97496875,0.67040625,-0.6822812500000001,-0.26815625,0.95315625,0.017402412915135227,0.023777300758066448,True
17852,111582,0,111583,4301.0,42183.0,27341.0,-0.001769,-6.1e-05,-0.004209,0.43750000000000006,-1.8200000000000003,-3.8850000000000002,0.6910625,-0.25540625,0.3075625,0.9772500000000001,0.65509375,-0.6772812500000001,-0.26659375,0.950375,0.01709568390966894,0.02366035612229261,True
17853,111583,0,111584,4300.0,42180.0,27337.0,-0.005612,0.001769,0.000366,0.7875000000000001,-1.4000000000000001,-3.8675,0.68903125,-0.25159375,0.3100625,0.97478125,0.66121875,-0.67940625,-0.2658125,0.9685625,0.01733479710436713,0.023731947982372322,True
17854,111584,0,111585,4299.0,42177.0,27331.0,-0.004514,0.0035989999999999998,0.005246,0.8925000000000001,-1.4175000000000002,-3.7625,0.68978125,-0.25409375,0.308875,0.982625,0.66853125,-0.67959375,-0.26590625,0.9553125,0.01724096451141948,0.02368678276748885,True
17855,111585,0,111586,4298.0,42174.0,27327.0,-0.00244,0.002745,0.004758,0.7000000000000001,-1.5225000000000002,-3.6750000000000003,0.6910625,-0.25071875,0.31228125,0.9751562500000001,0.65728125,-0.67984375,-0.27037500000000003,0.9615,0.017387670859950237,0.024006891117257154,True
17856,111586,0,111587,4295.0,42169.0,27325.0,0.001647,0.000244,0.0053679999999999995,0.56,-1.9600000000000002,-3.6225000000000005,0.69646875,-0.254,0.3175,0.97146875,0.65890625,-0.6795625000000001,-0.26546875000000003,0.96528125,0.017243518802247816,0.024024623468277325,True
17857,111587,0,111588,4299.0,42170.0,27324.0,0.0050019999999999995,-0.000793,-0.000732,0.2625,-2.3625000000000003,-3.5175000000000005,0.68975,-0.24996875000000002,0.31271875,0.98128125,0.66984375,-0.68284375,-0.26990625,0.9585312500000001,0.017537484918041503,0.024006067184540524,True
17858,111588,0,111589,4297.0,42171.0,27326.0,0.0075639999999999995,-0.006344,0.000488,-0.31500000000000006,-1.9425000000000001,-3.8500000000000005,0.6918125,-0.250125,0.31203125,0.97496875,0.66121875,-0.67203125,-0.268125,0.96525,0.017100588343329046,0.023906101109995102,True
17859,111589,0,111590,4296.0,42171.0,27327.0,0.007625,-0.0071979999999999995,0.000793,-0.4025,-1.4700000000000002,-3.99,0.6894375,-0.24309375,0.30921875,0.97959375,0.6701875,-0.68178125,-0.268,0.9588125000000001,0.01777373746070292,0.023785180072523487,True
17860,111590,0,111591,4297.0,42173.0,27327.0,0.005612,-0.00793,0.001037,-0.1925,-0.8400000000000001,-4.322500000000001,0.6964375,-0.24528125,0.3184375,0.97478125,0.66125,-0.681875,-0.2700625,0.961375,0.017688840495302727,0.024247980407961455,True
17861,111591,0,111592,4300.0,42170.0,27327.0,0.000793,-0.004148,-0.0071979999999999995,0.385,-0.36750000000000005,-4.9350000000000005,0.69453125,-0.2544375,0.31434375000000003,0.9755,0.6611875,-0.67915625,-0.2689375,0.96740625,0.017209613882160177,0.02403406618027674,True
17862,111592,0,111593,4298.0,42172.0,27327.0,-0.006344,0.0023179999999999997,-0.006771,1.3650000000000002,0.28,-5.460000000000001,0.68940625,-0.2533125,0.310125,0.9755625,0.667125,-0.6799375,-0.26803125,0.96465625,0.017286307957627523,0.023823780513715958,True
17863,111593,0,111594,4299.0,42169.0,27323.0,-0.015006,0.011467999999999999,-0.001281,3.0100000000000002,1.9775000000000003,-5.565,0.688875,-0.2531875,0.30984375000000003,0.9756875,0.66978125,-0.67634375,-0.26784375,0.96459375,0.01714825560411477,0.02380464889881286,True
17864,111594,0,111595,4297.0,42166.0,27321.0,-0.016531,0.012383,0.002745,2.7300000000000004,1.7675,-5.1625000000000005,0.6885,-0.25340625,0.3101875,0.975375,0.66984375,-0.67978125,-0.2678125,0.96078125,0.01727628764942963,0.023817556691605395,True
17865,111595,0,111596,4301.0,42165.0,27319.0,-0.011895,0.008905999999999999,0.0051849999999999995,1.9775000000000003,1.2775,-4.7250000000000005,0.690375,-0.25196875,0.30921875,0.9753437500000001,0.6703125,-0.68025,-0.26796875000000003,0.9636250000000001,0.01735319739467793,0.023783922995203294,True
17866,111596,0,111597,4300.0,42164.0,27317.0,-0.002989,0.0026839999999999998,0.0035989999999999998,0.9450000000000001,0.24500000000000002,-4.48,0.68940625,-0.2510625,0.31121875,0.9738125,0.66396875,-0.67978125,-0.26425,0.96559375,0.017371254050316996,0.023716733465901477,True
17867,111597,0,111598,4302.0,42165.0,27320.0,0.00549,-0.0021349999999999997,0.0008539999999999999,-0.15750000000000003,-1.0675000000000001,-4.515000000000001,0.688375,-0.25075000000000003,0.30834375,0.980625,0.66890625,-0.67978125,-0.26809375,0.9585,0.01738391623710198,0.02375289571312127,True
17868,111598,0,111599,4301.0,42169.0,27325.0,0.011773,-0.005856,-0.002623,-0.9800000000000001,-2.6775,-4.322500000000001,0.68771875,-0.2499375,0.30834375,0.98665625,0.66825,-0.6814687500000001,-0.2689375,0.95809375,0.01748401824749591,0.023786836568349973,True
17869,111599,0,111600,4302.0,42172.0,27328.0,0.012261,-0.0062829999999999995,-0.00183,-0.6475000000000001,-2.6950000000000003,-4.0075,0.68925,-0.25003125,0.31328125,0.97240625,0.6708125,-0.68209375,-0.26934375,0.9579062500000001,0.017505099217930007,0.024006623582477377,True
17870,111600,0,111601,4302.0,42175.0,27330.0,0.010309,-0.0050019999999999995,-6.1e-05,-0.07,-2.45,-3.8850000000000002,0.68646875,-0.24975,0.3110625,0.98440625,0.66171875,-0.672875,-0.2684375,0.9583125,0.01714939989766089,0.023878751979809165,True
17871,111601,0,111602,4302.0,42175.0,27333.0,0.004758,-0.0006709999999999999,0.001769,0.56,-1.9075000000000002,-4.0425,0.7015,-0.2559375,0.30809375,0.9725625,0.656625,-0.67975,-0.26875,0.96421875,0.01717247946190703,0.02376899304661344,True
17872,111602,0,111603,4302.0,42177.0,27333.0,-0.001464,0.000793,0.0025009999999999998,0.9450000000000001,-1.33,-4.112500000000001,0.6854375,-0.249625,0.31296875,0.984625,0.6694687500000001,-0.68396875,-0.26896875,0.9586250000000001,0.017596187809142322,0.02397866617220808,True
17873,111603,0,111604,4301.0,42176.0,27330.0,-0.009089,0.003294,6.1e-05,1.3475000000000001,-0.21000000000000002,-4.2,0.6885625,-0.24534375,0.3135,0.97796875,0.65740625,-0.68184375,-0.26890625,0.95925,0.017685064552764623,0.023998042763052,True
17874,111604,0,111605,4303.0,42182.0,27334.0,-0.009577,0.002623,0.0018909999999999999,1.1375000000000002,0.3325,-4.2700000000000005,0.6900000000000001,-0.24846875000000002,0.3131875,0.9750625,0.656625,-0.6806875,-0.26746875000000003,0.95740625,0.017512427479988147,0.023927351302347927,True
17875,111605,0,111606,4302.0,42179.0,27333.0,-0.008418,0.001769,0.0025009999999999998,0.77,0.28,-4.357500000000001,0.70009375,-0.25715625000000003,0.3098125,0.973125,0.6618125,-0.67921875,-0.2691875,0.9621875,0.017101939258105565,0.023857411790155724,True
17876,111606,0,111607,4301.0,42180.0,27333.0,-0.0055509999999999995,-0.000305,0.0015249999999999999,0.4025,-0.17500000000000002,-4.41,0.679125,-0.2534375,0.30525,0.97328125,0.661875,-0.68065625,-0.26865625,0.9641875,0.017309861847778055,0.023648043966175508,True
17877,111607,0,111608,4304.0,42182.0,27337.0,0.000183,-0.00183,0.001098,0.035,-0.5950000000000001,-4.3925,0.6865625,-0.25025000000000003,0.3155625,0.98690625,0.66690625,-0.6805,-0.2688125,0.9585,0.017432791069872975,0.02407925810131831,True
17878,111608,0,111609,4301.0,42186.0,27340.0,0.005612,-0.002257,-0.002257,-0.29750000000000004,-1.6625,-4.532500000000001,0.6910000000000001,-0.24653125,0.31290625,0.98021875,0.66203125,-0.68,-0.2713125,0.95284375,0.017563563614262565,0.02407034024220981,True
17879,111609,0,111610,4303.0,42189.0,27345.0,0.005429,-0.001098,-0.005673,-0.10500000000000001,-2.1875,-4.445,0.69784375,-0.25321875,0.311375,0.973125,0.66125,-0.67871875,-0.2710625,0.96259375,0.017241575801012765,0.02399719830971553,True
