frame_seq,absolute_seq_u64,segment_id,sample_seq,PPG_G,PPG_R,PPG_IR,ACC_X,ACC_Y,ACC_Z,GYRO_X,GYRO_Y,GYRO_Z,Uh1,Uh2,Uh3,Uh4,Uc1,Uc2,Uc3,Uc4,UD1,UD2,parser_valid
49093,173723,0,173724,5039.0,43377.0,27811.0,0.00183,0.000549,0.000366,0.22750000000000004,-1.8725000000000003,-3.8325000000000005,0.9919375,0.13225,0.09346875,1.2335625000000001,0.9685,-0.327375,-0.38865625,1.23634375,0.01889332490661241,0.019768411800055608,True
49094,173724,0,173725,5041.0,43379.0,27813.0,-0.000366,-0.0015249999999999999,0.0018909999999999999,0.22750000000000004,-1.8025000000000002,-3.7625,0.99690625,0.13784375000000001,0.09275,1.25003125,0.9726875,-0.3226875,-0.3868125,1.22846875,0.01893422550448013,0.01966482909564339,True
49095,173725,0,173726,5039.0,43379.0,27813.0,-6.1e-05,0.000183,0.000183,0.31500000000000006,-1.7500000000000002,-3.8850000000000002,1.0129375,0.1265,0.09090625000000001,1.2466875,0.9676875,-0.32406250000000003,-0.3883125,1.2338437500000001,0.018523324383005513,0.019649524746740882,True
49096,173726,0,173727,5040.0,43378.0,27813.0,0.001403,0.000915,0.000488,0.35000000000000003,-1.8025000000000002,-3.8500000000000005,0.99265625,0.13,0.09009375,1.25778125,0.97246875,-0.323875,-0.38725,1.22371875,0.018659650240761393,0.01957349639668269,True
49097,173727,0,173728,5041.0,43380.0,27813.0,0.0008539999999999999,-0.000549,0.000732,0.24500000000000002,-1.715,-3.6750000000000003,0.99221875,0.134,0.0934375,1.263875,0.9756250000000001,-0.32206250000000003,-0.38684375,1.2182187500000001,0.018750979691792177,0.019694276755268914,True
49098,173728,0,173729,5041.0,43378.0,27814.0,-0.000122,-0.001403,-0.0008539999999999999,0.12250000000000001,-1.4875,-3.7100000000000004,1.00228125,0.13725,0.09590625,1.2535,0.9741562500000001,-0.32609375,-0.38696875000000003,1.217,0.019047190838027583,0.019800533840434762,True
49099,173729,0,173730,5043.0,43381.0,27814.0,-0.00122,0.0006709999999999999,-0.002257,0.4025,-1.33,-3.6750000000000003,1.012375,0.12959375,0.09734375,1.24265625,0.96809375,-0.32775,-0.3895,1.2345,0.018799262159468096,0.01996120256667828,True
49100,173730,0,173731,5043.0,43382.0,27814.0,-0.00244,0.000549,-0.0008539999999999999,0.36750000000000005,-1.1900000000000002,-3.6050000000000004,0.9923125,0.13378125,0.09381250000000001,1.2440625,0.97271875,-0.32275,-0.3859375,1.2285625,0.018769721762547407,0.01967322355353367,True
49101,173731,0,173732,5043.0,43381.0,27815.0,-0.0015249999999999999,-0.000183,0.0,0.3325,-1.33,-3.6925000000000003,0.9799375,0.13053125000000002,0.09128125000000001,1.2550000000000001,0.95928125,-0.323625,-0.38428125,1.2200312500000001,0.018671404858445238,0.01950283033255286,True
49102,173732,0,173733,5045.0,43382.0,27814.0,-0.000915,-0.0006709999999999999,0.001037,0.47250000000000003,-1.4175000000000002,-3.6575,1.011125,0.1224375,0.0898125,1.26053125,0.96803125,-0.3238125,-0.38678125,1.22025,0.01834621936836588,0.01954311826207077,True
49103,173733,0,173734,5047.0,43384.0,27816.0,0.000549,-0.00042699999999999997,0.000915,0.36750000000000005,-1.5925000000000002,-3.6575,1.01240625,0.12746875,0.0923125,1.24625,0.9689375,-0.32434375,-0.38796875000000003,1.22234375,0.018574499055087557,0.019693368272009126,True
49104,173734,0,173735,5047.0,43383.0,27817.0,0.0021349999999999997,0.00122,0.002196,0.35000000000000003,-1.7675,-3.6225000000000005,0.9906875,0.13434375,0.096125,1.24684375,0.97409375,-0.32440625,-0.38659375,1.2278437500000001,0.018859658701843956,0.019794431110330857,True
49105,173735,0,173736,5047.0,43383.0,27818.0,0.001281,-0.000122,0.00122,0.29750000000000004,-1.8375000000000001,-3.6400000000000006,1.00778125,0.132,0.09665625,1.25134375,0.96021875,-0.32409375,-0.38890625,1.235875,0.018750698574330236,0.019909154392686222,True
49106,173736,0,173737,5049.0,43382.0,27816.0,0.000915,0.001037,0.00042699999999999997,0.2625,-1.6275000000000002,-3.5700000000000003,0.9967812500000001,0.1363125,0.09428125,1.2534687500000001,0.97384375,-0.32371875,-0.387,1.22684375,0.018912866684910174,0.019735156025751426,True
49107,173737,0,173738,5049.0,43381.0,27817.0,-0.00042699999999999997,-0.000305,0.000732,0.2625,-1.7675,-3.7100000000000004,1.0063125,0.12890625,0.095375,1.247125,0.96821875,-0.327,-0.38746875000000003,1.228,0.018740751017388087,0.019798846487501905,True
49108,173738,0,173739,5051.0,43382.0,27818.0,-0.000122,-0.0015249999999999999,-0.000366,0.3325,-1.6625,-3.6225000000000005,0.9997812500000001,0.1305,0.09115625000000001,1.24228125,0.967375,-0.3241875,-0.39009375,1.235625,0.01869281348040916,0.019731371471255622,True
49109,173739,0,173740,5052.0,43384.0,27818.0,-0.0017079999999999999,-0.000183,-0.002257,0.15750000000000003,-1.4700000000000002,-3.7100000000000004,0.99834375,0.136875,0.09184375,1.248875,0.96709375,-0.32353125,-0.386875,1.23128125,0.01892842964567491,0.019630180168635793,True
49110,173740,0,173741,5051.0,43383.0,27818.0,-0.000915,-0.000549,-0.00122,0.21000000000000002,-1.5225000000000002,-3.7450000000000006,0.99784375,0.12821875,0.093875,1.24921875,0.96796875,-0.3241875,-0.38403125,1.234,0.01859902823064491,0.019599148520612234,True
49111,173741,0,173742,5052.0,43384.0,27822.0,-0.000305,0.0,-0.000488,0.24500000000000002,-1.4875,-3.8325000000000005,0.99834375,0.131625,0.091375,1.255625,0.96696875,-0.323,-0.38740625,1.23190625,0.018691156518521563,0.019632315347188675,True
49112,173742,0,173743,5053.0,43385.0,27820.0,-6.1e-05,0.000549,-0.001098,0.28,-1.5750000000000002,-3.7625,0.99634375,0.133,0.09153125000000001,1.25484375,0.97303125,-0.32334375,-0.38659375,1.23209375,0.01876155493629448,0.019606059169292554,True
49113,173743,0,173744,5053.0,43382.0,27822.0,0.000244,0.0006709999999999999,-0.000305,0.31500000000000006,-1.6275000000000002,-3.7625,0.9986875000000001,0.132125,0.09234375,1.24640625,0.9699375,-0.32259375,-0.38725,1.23475,0.01869532314990049,0.019665757721760345,True
49114,173744,0,173745,5054.0,43384.0,27821.0,0.000732,-0.000244,0.001647,0.31500000000000006,-1.8025000000000002,-3.7975000000000003,0.99815625,0.13178125000000002,0.09021875,1.25503125,0.97546875,-0.3233125,-0.38728125,1.23309375,0.018710188014070865,0.01957987834334752,True
49115,173745,0,173746,5056.0,43386.0,27821.0,0.00061,-0.00042699999999999997,0.000366,0.36750000000000005,-1.5925000000000002,-3.7625,0.99775,0.13215625,0.09021875,1.25484375,0.9732500000000001,-0.32328125,-0.3874375,1.2339375000000001,0.01872434460297169,0.019586159882521482,True
49116,173746,0,173747,5056.0,43386.0,27823.0,0.001464,-0.00042699999999999997,0.001281,0.31500000000000006,-1.61,-3.7800000000000002,0.99259375,0.1320625,0.09121875,1.256125,0.97578125,-0.32340625,-0.386875,1.230375,0.018725533147726788,0.019604551628693716,True
49117,173747,0,173748,5057.0,43385.0,27822.0,0.000244,-0.000305,0.0008539999999999999,0.28,-1.6275000000000002,-3.8500000000000005,1.00025,0.1321875,0.0921875,1.25675,0.9726875,-0.3235,-0.3873125,1.2275625000000001,0.018734454334285774,0.019661863110172557,True
49118,173748,0,173749,5060.0,43387.0,27824.0,6.1e-05,0.0,-0.000122,0.35000000000000003,-1.6800000000000002,-3.7450000000000006,0.997125,0.13490625,0.0901875,1.2480625,0.97440625,-0.32346875,-0.38696875000000003,1.2246875,0.0188449684011455,0.019566033601449546,True
49119,173749,0,173750,5061.0,43388.0,27822.0,0.000244,6.1e-05,-0.001281,0.24500000000000002,-1.54,-3.7275000000000005,0.9977812500000001,0.1281875,0.09146875,1.2492812500000001,0.9669375,-0.32175,-0.38475,1.23284375,0.01849938840749535,0.01952936774008345,True
49120,173750,0,173751,5062.0,43391.0,27826.0,-0.000732,-0.000305,-0.000732,0.42000000000000004,-1.5750000000000002,-3.7450000000000006,0.99940625,0.12971875,0.0913125,1.241,0.9598125000000001,-0.31825000000000003,-0.3893125,1.2314375,0.018421093211888194,0.019706377537292208,True
49121,173751,0,173752,5062.0,43390.0,27826.0,-0.000732,6.1e-05,-6.1e-05,0.31500000000000006,-1.5225000000000002,-3.7275000000000005,0.9989375,0.13246875,0.09096875,1.2432812500000001,0.96640625,-0.3238125,-0.38665625000000003,1.2275,0.018758623879377462,0.01958550590550929,True
49122,173752,0,173753,5062.0,43388.0,27825.0,-0.000915,0.00061,-0.000183,0.2625,-1.5225000000000002,-3.7275000000000005,1.00325,0.129125,0.09378125,1.24803125,0.97378125,-0.32603125,-0.38806250000000003,1.2275,0.018710666171655108,0.019757360798956458,True
49123,173753,0,173754,5066.0,43390.0,27824.0,-0.001037,0.000244,-0.000244,0.28,-1.5575,-3.6925000000000003,0.99803125,0.132125,0.0904375,1.25246875,0.96815625,-0.32359375,-0.38696875000000003,1.22875,0.018735666887217273,0.019576284978017205,True
49124,173754,0,173755,5066.0,43387.0,27823.0,0.0,0.00042699999999999997,-6.1e-05,0.3325,-1.7675,-3.7100000000000004,0.99875,0.13625,0.0930625,1.2529375,0.97265625,-0.3219375,-0.38628125,1.2276875,0.01883844574471092,0.01965628728242442,True
49125,173755,0,173756,5069.0,43389.0,27825.0,0.000244,0.000732,0.000305,0.28,-1.8200000000000003,-3.7100000000000004,1.0005,0.13278125,0.09418750000000001,1.2514687500000001,0.97365625,-0.32484375,-0.386625,1.2281250000000001,0.018813070484779575,0.01971623789679794,True
49126,173756,0,173757,5068.0,43390.0,27826.0,0.0,-0.00061,0.000244,0.28,-1.8200000000000003,-3.7450000000000006,0.99884375,0.13203125,0.09315625,1.2513125,0.9740625,-0.32371875,-0.38609375,1.23171875,0.018736855358517084,0.019652594011699803,True
49127,173757,0,173758,5071.0,43390.0,27826.0,0.001098,-0.00122,-6.1e-05,0.36750000000000005,-1.7325000000000002,-3.7100000000000004,0.9984375,0.133,0.09159375,1.251625,0.978625,-0.32325,-0.387875,1.23915625,0.018757772912748088,0.019660128239955305,True
49128,173758,0,173759,5072.0,43393.0,27828.0,0.001281,0.000183,-0.000366,0.22750000000000004,-1.6450000000000002,-3.6750000000000003,0.9990625000000001,0.13215625,0.09275,1.2500625,0.9710625,-0.32240625,-0.38856250000000003,1.23678125,0.0186890431533681,0.019735172993488242,True
49129,173759,0,173760,5074.0,43393.0,27827.0,0.000549,6.1e-05,0.0008539999999999999,0.3325,-1.6275000000000002,-3.7450000000000006,0.99903125,0.132625,0.09275,1.2490937500000001,0.9679375,-0.322875,-0.3901875,1.23459375,0.01872722694171639,0.019800483288617606,True
49130,173760,0,173761,5073.0,43392.0,27827.0,-0.000793,-0.000305,0.000549,0.35000000000000003,-1.5575,-3.6225000000000005,1.00065625,0.13443750000000002,0.1001875,1.2481875,0.9651875,-0.3251875,-0.38965625,1.22509375,0.018895023933525695,0.020084077650745893,True
49131,173761,0,173762,5076.0,43393.0,27827.0,-0.000183,0.0,0.000244,0.29750000000000004,-1.5575,-3.6400000000000006,1.00534375,0.1325,0.08575,1.237875,0.9744375000000001,-0.32371875,-0.386875,1.2310625,0.01875612667162582,0.01938030190420052,True
49132,173762,0,173763,5076.0,43392.0,27827.0,-0.000488,6.1e-05,-0.000732,0.2625,-1.5750000000000002,-3.7275000000000005,0.99440625,0.11862500000000001,0.0964375,1.24621875,0.96434375,-0.3228125,-0.38871875,1.2250625,0.018149114128968434,0.01989265016228046,True
49133,173763,0,173764,5079.0,43391.0,27827.0,-0.000732,-6.1e-05,0.0,0.28,-1.5925000000000002,-3.8150000000000004,1.0204375,0.140125,0.09525,1.26865625,0.9647187500000001,-0.32834375,-0.38884375,1.2254375,0.01925608889836572,0.01984898320569215,True
49134,173764,0,173765,5080.0,43391.0,27830.0,-0.000122,0.000244,0.00061,0.3325,-1.5925000000000002,-3.6400000000000006,1.00996875,0.13590625,0.09593750000000001,1.27025,0.9563125,-0.32703125,-0.3855,1.225375,0.019029757278747277,0.019742777470217958,True
49135,173765,0,173766,5081.0,43393.0,27827.0,0.001403,-0.000305,-0.000366,0.35000000000000003,-1.7325000000000002,-3.6750000000000003,1.00671875,0.13518750000000002,0.09506250000000001,1.2695,0.9755625,-0.3266875,-0.38540625,1.2258437500000001,0.018986349867814927,0.019703126742044743,True
49136,173766,0,173767,5083.0,43392.0,27828.0,0.000549,0.000244,-0.00061,0.31500000000000006,-1.7325000000000002,-3.6400000000000006,1.01040625,0.1361875,0.0975625,1.25446875,0.97165625,-0.32084375,-0.3876875,1.22115625,0.018791751416930177,0.019897335489475993,True
49137,173767,0,173768,5084.0,43395.0,27829.0,-0.000366,0.0,-0.000305,0.385,-1.7500000000000002,-3.7100000000000004,1.02084375,0.137125,0.09753125,1.2508125,0.96859375,-0.326375,-0.3858125,1.2258437500000001,0.01905339369305949,0.019820694922508732,True
49138,173768,0,173769,5086.0,43394.0,27831.0,-0.000976,-0.00042699999999999997,0.000244,0.45500000000000007,-1.6800000000000002,-3.7625,1.01840625,0.1266875,0.09940625,1.24140625,0.9654375000000001,-0.32915625,-0.39046875000000003,1.2295625000000001,0.01873652112370317,0.0200846898442655,True
49139,173769,0,173770,5086.0,43394.0,27831.0,-0.000793,-0.001098,0.000305,0.24500000000000002,-1.6975000000000002,-3.7100000000000004,0.99740625,0.11884375,0.09125,1.2361875,0.95815625,-0.3225,-0.38965625,1.232875,0.018145492856408676,0.019717631321679654,True
49140,173770,0,173771,5089.0,43393.0,27832.0,-0.000183,0.00042699999999999997,-0.00042699999999999997,0.22750000000000004,-1.6275000000000002,-3.7800000000000002,0.994125,0.11865625,0.08603125,1.25353125,0.966,-0.3224375,-0.386,1.23534375,0.018135260908780218,0.019356649306979414,True
49141,173771,0,173772,5090.0,43394.0,27832.0,-0.000976,0.000488,0.000122,0.31500000000000006,-1.715,-3.7450000000000006,0.985,0.1325625,0.08275,1.264625,0.97578125,-0.323375,-0.387375,1.2295625000000001,0.01874482879123477,0.019277392503293203,True
49142,173772,0,173773,5092.0,43394.0,27831.0,0.001647,-0.000244,0.000244,0.3325,-1.8900000000000001,-3.6925000000000003,0.99590625,0.1353125,0.0945,1.262375,0.972875,-0.32475,-0.3869375,1.2245,0.018913349571938045,0.019741613722510258,True
49143,173773,0,173774,5093.0,43394.0,27831.0,0.000244,0.0008539999999999999,0.000549,0.31500000000000006,-1.8375000000000001,-3.6925000000000003,1.00065625,0.12896875,0.09565625,1.251125,0.9679375,-0.3268125,-0.38884375,1.23465625,0.018735757099291164,0.019865640411919898,True
49144,173774,0,173775,5093.0,43393.0,27832.0,-0.000732,-0.00061,0.001403,0.28,-1.6800000000000002,-3.6575,0.9947812500000001,0.13090625,0.09353125,1.25584375,0.9550625,-0.3234375,-0.38759375,1.23075,0.018679257403481725,0.019728268599685034,True
49145,173775,0,173776,5094.0,43395.0,27833.0,-0.00122,-0.001037,-0.001098,0.17500000000000002,-1.5750000000000002,-3.8150000000000004,1.0035,0.1325,0.09303125,1.24628125,0.97621875,-0.32665625,-0.38675,1.22790625,0.018874614138554287,0.01967384952894502,True
49146,173776,0,173777,5096.0,43395.0,27833.0,-0.000122,-0.000732,0.000549,0.14,-1.54,-3.6750000000000003,1.00440625,0.13115625,0.093625,1.24821875,0.96959375,-0.32546875000000003,-0.38921875,1.22815625,0.018771477939145575,0.0197974258605557,True
49147,173777,0,173778,5097.0,43397.0,27833.0,0.000488,6.1e-05,0.000366,0.3325,-1.61,-3.6925000000000003,1.0001875,0.13,0.095875,1.24846875,0.9674375000000001,-0.32665625,-0.388375,1.22771875,0.01877184621293771,0.01985577144848724,True
49148,173778,0,173779,5099.0,43395.0,27832.0,0.001647,0.001464,-0.000976,0.4025,-1.7325000000000002,-3.8325000000000005,0.99784375,0.12890625,0.09040625000000001,1.24859375,0.96715625,-0.3253125,-0.388125,1.233,0.01867267892241878,0.019621485866584663,True
49149,173779,0,173780,5101.0,43398.0,27833.0,0.0011589999999999999,0.000732,0.000122,0.2625,-1.715,-3.7800000000000002,0.99809375,0.130125,0.09171875,1.2481875,0.9606875,-0.32396875,-0.39006250000000003,1.2303125,0.01866857150932658,0.0197531781642626,True
49150,173780,0,173781,5103.0,43399.0,27834.0,0.00042699999999999997,-0.0011589999999999999,0.000122,0.24500000000000002,-1.6450000000000002,-3.6575,0.99875,0.131875,0.091125,1.25265625,0.9673437500000001,-0.32375,-0.38609375,1.2336562500000001,0.01873169227606763,0.019569298588462944,True
49151,173781,0,173782,5105.0,43402.0,27834.0,0.000244,-0.0013419999999999999,0.0015249999999999999,0.28,-1.54,-3.6225000000000005,0.99853125,0.13428125,0.09075,1.2529375,0.9671875,-0.318875,-0.39015625,1.233375,0.0186339314627013,0.019717227108784922,True
49152,173782,0,173783,5104.0,43402.0,27838.0,-0.0013419999999999999,0.000732,0.0,0.31500000000000006,-1.5575,-3.6225000000000005,0.9984375,0.1325,0.09325,1.2539375,0.97328125,-0.32325,-0.38734375,1.23265625,0.018737216449282064,0.019706686998250886,True
49153,173783,0,173784,5106.0,43401.0,27836.0,-0.001037,0.003111,-0.0023179999999999997,0.525,-1.6625,-3.8325000000000005,0.994,0.1320625,0.09434375,1.2489375,0.97571875,-0.3254375,-0.38725,1.2280625,0.018807472630245604,0.019747767788496035,True
49154,173784,0,173785,5109.0,43399.0,27835.0,-0.00042699999999999997,-0.000122,-0.0015249999999999999,0.35000000000000003,-1.5925000000000002,-3.6925000000000003,0.9989687500000001,0.132,0.09034375,1.25428125,0.9669375,-0.3194375,-0.38821875,1.2334687500000001,0.01856282654563865,0.01962269179662824,True
49155,173785,0,173786,5111.0,43401.0,27837.0,-0.001403,-0.002257,-0.000549,0.21000000000000002,-1.4525000000000001,-3.5875000000000004,0.987625,0.1323125,0.093625,1.248875,0.97240625,-0.3235,-0.38103125,1.21690625,0.018739593397331798,0.01946825977674755,True
49156,173786,0,173787,5110.0,43404.0,27834.0,-0.000244,-0.0030499999999999998,0.0015249999999999999,0.24500000000000002,-1.4700000000000002,-3.5000000000000004,0.989375,0.12940625,0.0901875,1.2545,0.9679375,-0.32353125,-0.38925,1.23259375,0.01862137102317329,0.019657738552846027,True
49157,173787,0,173788,5113.0,43402.0,27835.0,-0.00042699999999999997,-0.0018909999999999999,0.000305,0.385,-1.4525000000000001,-3.6225000000000005,1.004375,0.1321875,0.0936875,1.24853125,0.9752500000000001,-0.32575,-0.38659375,1.22796875,0.01882521607761323,0.019694478651820738,True
49158,173788,0,173789,5115.0,43404.0,27838.0,0.000183,0.00183,0.000976,0.36750000000000005,-1.435,-3.7275000000000005,1.0065,0.13246875,0.09334375,1.24896875,0.9684375000000001,-0.3264375,-0.387375,1.22659375,0.018864506979289507,0.019711787348986928,True
49159,173789,0,173790,5116.0,43405.0,27838.0,0.000549,0.0006709999999999999,0.003904,0.31500000000000006,-1.4700000000000002,-3.7100000000000004,0.9971875,0.13134375,0.09184375,1.2530625,0.96815625,-0.32306250000000003,-0.3874375,1.23421875,0.0186821149680473,0.01965279254944272,True
49160,173790,0,173791,5116.0,43403.0,27838.0,0.000366,-0.001281,0.004392,0.28,-1.4525000000000001,-3.6575,0.9985625,0.1326875,0.0974375,1.249,0.96715625,-0.3223125,-0.38640625,1.22290625,0.01870710278884872,0.019840715562589303,True
49161,173791,0,173792,5117.0,43403.0,27837.0,-0.001098,-0.002013,0.003843,0.24500000000000002,-1.3650000000000002,-3.8325000000000005,1.00559375,0.13059375,0.0905625,1.24803125,0.9665312500000001,-0.32415625,-0.38815625,1.229875,0.018695406957846685,0.019629148882462154,True
49162,173792,0,173793,5114.0,43401.0,27835.0,-0.0006709999999999999,0.0017079999999999999,-0.001464,0.1925,-1.3650000000000002,-3.7275000000000005,0.99834375,0.13225,0.09321875,1.2493750000000001,0.96784375,-0.3226875,-0.38021875,1.22778125,0.01870424475091414,0.019418919282666404,True
49163,173793,0,173794,5116.0,43404.0,27837.0,0.0021349999999999997,0.0034159999999999998,-0.003477,0.385,-1.6275000000000002,-3.6575,1.0030937500000001,0.12875,0.0995,1.25375,0.9681875,-0.32425,-0.39025,1.23471875,0.018623390238136837,0.020079744980063756,True
49164,173794,0,173795,5114.0,43402.0,27835.0,0.003538,-0.001403,-0.00244,0.31500000000000006,-1.6975000000000002,-3.7100000000000004,0.99884375,0.132625,0.0925625,1.247125,0.97309375,-0.3238125,-0.3869375,1.22778125,0.018765047625654903,0.019662165452304127,True
49165,173795,0,173796,5114.0,43404.0,27836.0,0.002379,-0.003538,-0.0011589999999999999,0.12250000000000001,-1.61,-3.6050000000000004,0.9988750000000001,0.131875,0.0975625,1.2476562500000001,0.968,-0.3219375,-0.387625,1.22809375,0.018658566982996314,0.019894823706695507,True
49166,173796,0,173797,5112.0,43403.0,27837.0,0.00061,-0.003721,-0.000732,0.12250000000000001,-1.2775,-3.6225000000000005,1.00215625,0.13625,0.0933125,1.2491875000000001,0.96696875,-0.33096875000000003,-0.38978125,1.2243125,0.019202636557576442,0.01980721946819429,True
49167,173797,0,173798,5108.0,43403.0,27837.0,-0.0015249999999999999,-0.001037,-6.1e-05,0.28,-0.9450000000000001,-3.6575,0.99803125,0.13434375,0.09196875,1.25603125,0.9590000000000001,-0.3243125,-0.39428125,1.240125,0.018855877221606983,0.019932950473791886,True
49168,173798,0,173799,5110.0,43401.0,27834.0,-0.0021349999999999997,0.001647,-0.000305,0.42000000000000004,-0.9450000000000001,-3.4825000000000004,1.0003125,0.12875,0.09431250000000001,1.248375,0.9825,-0.33084375,-0.38453125,1.22315625,0.01888934698370253,0.01963719314883283,True
49169,173799,0,173800,5108.0,43400.0,27833.0,-0.001464,0.0013419999999999999,0.000122,0.45500000000000007,-1.1725,-3.3950000000000005,0.99853125,0.1318125,0.09546875,1.25084375,0.9570625,-0.324125,-0.38406250000000003,1.239125,0.01874425082094423,0.019665765292391293,True
49170,173800,0,173801,5109.0,43401.0,27838.0,0.002074,-0.001403,-0.000244,0.36750000000000005,-1.4175000000000002,-3.5000000000000004,1.00546875,0.12946875,0.09406250000000001,1.2490625,0.9826875,-0.32696875000000003,-0.384125,1.221,0.018762612995094182,0.019610607311109172,True
49171,173801,0,173802,5107.0,43401.0,27834.0,0.0021349999999999997,-0.000732,-0.00042699999999999997,0.21000000000000002,-1.4525000000000001,-3.4475000000000002,0.99871875,0.13184375,0.0934375,1.248375,0.96175,-0.32134375,-0.38475,1.2220312500000001,0.018633324895956867,0.019610104676078287,True
49172,173802,0,173803,5105.0,43401.0,27835.0,0.001403,-0.000732,-0.000183,0.3325,-1.4525000000000001,-3.5175000000000005,0.996375,0.13240625,0.09090625000000001,1.25396875,0.96025,-0.32484375,-0.39253125,1.2433125,0.01879765414731595,0.01981907884201235,True
49173,173803,0,173804,5103.0,43400.0,27835.0,-0.00061,0.00061,-0.0028669999999999998,0.36750000000000005,-1.1375000000000002,-3.5175000000000005,1.00540625,0.13275,0.09440625,1.2488125,0.9756875,-0.32559375,-0.38384375,1.22196875,0.01884203751450055,0.019613396677872,True
49174,173804,0,173805,5105.0,43401.0,27835.0,-0.00122,0.00042699999999999997,-0.0006709999999999999,0.49000000000000005,-1.1375000000000002,-3.3950000000000005,0.99403125,0.1310625,0.09415625,1.248375,0.96309375,-0.33115625,-0.390625,1.22115625,0.01899699074103805,0.01987572069186419,True
49175,173805,0,173806,5105.0,43401.0,27835.0,-0.001769,-0.0008539999999999999,0.000976,0.385,-1.0675000000000001,-3.3950000000000005,0.99840625,0.1303125,0.09196875,1.24809375,0.96109375,-0.33171875,-0.3924375,1.2276875,0.018988845578366716,0.01985887019286203,True
49176,173806,0,173807,5102.0,43401.0,27834.0,-0.002562,-0.000305,0.001952,0.36750000000000005,-1.05,-3.3775000000000004,0.99809375,0.13240625,0.09471875,1.2538125,0.96075,-0.32159375,-0.38625,1.23634375,0.018666539893176202,0.019722948382797683,True
49177,173807,0,173808,5101.0,43400.0,27834.0,-0.0017079999999999999,0.00061,0.00183,0.385,-1.3475000000000001,-3.3775000000000004,1.00296875,0.13375,0.09393750000000001,1.241875,0.9715,-0.32425,-0.38028125,1.21990625,0.01882894642178073,0.019450913840462773,True
49178,173808,0,173809,5102.0,43398.0,27833.0,0.001281,0.001952,0.001952,0.36750000000000005,-1.7500000000000002,-3.2900000000000005,1.003625,0.129,0.09275,1.24815625,0.97378125,-0.32365625000000003,-0.38784375,1.233625,0.01860971250981234,0.019706282971408657,True
49179,173809,0,173810,5102.0,43400.0,27834.0,0.000549,0.000915,-6.1e-05,0.385,-1.8725000000000003,-3.2900000000000005,0.99821875,0.13215625,0.09825,1.25440625,0.9671875,-0.32334375,-0.3873125,1.234125,0.018726866037898266,0.019910455487868947,True
49180,173810,0,173811,5101.0,43401.0,27833.0,0.0008539999999999999,0.000305,0.000183,0.4025,-1.9425000000000001,-3.2550000000000003,0.9981875,0.13303125,0.092875,1.25265625,0.97484375,-0.32284375,-0.38671875,1.23209375,0.01874266860757184,0.01966618612846388,True
49181,173811,0,173812,5102.0,43401.0,27834.0,0.000366,-0.000793,-0.000244,0.45500000000000007,-1.8900000000000001,-3.2375000000000003,1.00496875,0.13209375,0.09396875,1.2534687500000001,0.97509375,-0.323875,-0.38715625000000004,1.22759375,0.018745728219701836,0.01972862252030718,True
49182,173812,0,173813,5104.0,43399.0,27834.0,-0.000305,-0.001403,-0.0011589999999999999,0.3325,-1.9775000000000003,-3.2550000000000003,1.0050625,0.12903125000000001,0.09396875,1.2488125,0.973125,-0.319125,-0.3888125,1.227875,0.018428140403900225,0.019795192980388038,True
49183,173813,0,173814,5103.0,43399.0,27837.0,-0.000732,-0.000366,-0.000244,0.45500000000000007,-1.8550000000000002,-3.22,1.00421875,0.12909375,0.09375,1.24890625,0.9675312500000001,-0.3204375,-0.3859375,1.22815625,0.018483682705132256,0.019670660601012364,True
49184,173814,0,173815,5104.0,43402.0,27835.0,-0.000122,-0.0017079999999999999,-0.000488,0.45500000000000007,-1.7675,-3.2900000000000005,1.00434375,0.1319375,0.09456250000000001,1.2476562500000001,0.9678125000000001,-0.32740625,-0.385875,1.2276875,0.018881739601812258,0.019701466525191325,True
49185,173815,0,173816,5107.0,43401.0,27837.0,0.00042699999999999997,-0.00122,-0.001769,0.43750000000000006,-1.8375000000000001,-3.3075,1.0050000000000001,0.13290625,0.09396875,1.25053125,0.97228125,-0.32456250000000003,-0.38606250000000003,1.2275625000000001,0.01880686446056327,0.019684655938202407,True
49186,173816,0,173817,5104.0,43402.0,27835.0,-0.000793,-0.001098,-0.001769,0.5075000000000001,-1.7500000000000002,-3.3075,1.00703125,0.131875,0.09365625,1.2550000000000001,0.9710625,-0.325125,-0.38728125,1.2293125,0.018787159367115277,0.01972083296492921,True
49187,173817,0,173818,5105.0,43399.0,27837.0,-0.000183,0.001586,-0.0011589999999999999,0.35000000000000003,-1.6625,-3.3425000000000002,1.0055625,0.13246875,0.09325,1.2481875,0.9741875,-0.32475,-0.386625,1.22859375,0.01879644189560016,0.019677794692787545,True
49188,173818,0,173819,5107.0,43402.0,27837.0,0.000915,0.004209,0.000732,0.5425000000000001,-1.7325000000000002,-3.5700000000000003,0.99325,0.13040625,0.10015625,1.24715625,0.9586875,-0.32306250000000003,-0.38684375,1.2280625,0.018643571301927956,0.01996978391268858,True
49189,173819,0,173820,5106.0,43402.0,27838.0,0.00042699999999999997,0.002806,0.001098,0.5425000000000001,-1.6450000000000002,-3.5700000000000003,0.99665625,0.1288125,0.09546875,1.24603125,0.9671875,-0.3239375,-0.3896875,1.22746875,0.018613351559549105,0.019891860033057002,True
49190,173820,0,173821,5106.0,43402.0,27838.0,0.0006709999999999999,0.00042699999999999997,0.0021349999999999997,0.36750000000000005,-1.7850000000000001,-3.4825000000000004,1.00559375,0.12846875,0.09825,1.24628125,0.96740625,-0.32706250000000003,-0.38671875,1.2268125,0.018725287938073085,0.019886592984142238,True
49191,173821,0,173822,5107.0,43403.0,27838.0,-0.000549,-0.000976,0.0018909999999999999,0.28,-1.6450000000000002,-3.5000000000000004,1.002125,0.12759375,0.09584375,1.24653125,0.9680625,-0.32696875000000003,-0.389875,1.22675,0.018685538040985893,0.01991476996089566,True
49192,173822,0,173823,5106.0,43402.0,27837.0,0.00061,-0.0025009999999999998,0.002257,0.15750000000000003,-1.6625,-3.3775000000000004,1.00659375,0.12890625,0.09581250000000001,1.246,0.9670625,-0.32756250000000003,-0.38940625,1.22778125,0.018763439617100974,0.019894652006954866,True
49193,173823,0,173824,5109.0,43401.0,27838.0,0.0006709999999999999,-0.004758,-0.001037,0.17500000000000002,-1.9425000000000001,-3.4650000000000003,1.008625,0.1279375,0.094875,1.2441875,0.96790625,-0.326125,-0.38859375,1.2281250000000001,0.0186656321136227,0.01982355993772704,True
49194,173824,0,173825,5108.0,43402.0,27838.0,0.00061,-0.004148,-0.0018909999999999999,0.28,-1.9075000000000002,-3.43,1.00496875,0.12603125,0.0955,1.245625,0.96790625,-0.3243125,-0.39003125,1.2268125,0.01851414094437407,0.01990695481376228,True
49195,173825,0,173826,5106.0,43403.0,27837.0,-0.000183,-0.0021349999999999997,-0.002745,0.29750000000000004,-2.0125,-3.43,1.00115625,0.1275625,0.0985,1.2457500000000001,0.96721875,-0.32396875,-0.38834375,1.23228125,0.018563222747110298,0.01996214892616478,True
49196,173826,0,173827,5108.0,43405.0,27837.0,0.000915,0.0017079999999999999,-0.00042699999999999997,0.45500000000000007,-1.9600000000000002,-3.6050000000000004,0.9843437500000001,0.13071875,0.08890625,1.24459375,0.968375,-0.3231875,-0.38678125,1.23259375,0.018661462441959962,0.019505956736295408,True
49197,173827,0,173828,5109.0,43403.0,27838.0,-0.000366,0.005612,-6.1e-05,0.5425000000000001,-1.715,-3.5525,0.9949375,0.13334375,0.0928125,1.25771875,0.9722500000000001,-0.3229375,-0.387,1.22703125,0.018759298707238796,0.019674929265592323,True
49198,173828,0,173829,5107.0,43400.0,27836.0,-0.002562,0.004575,0.00122,0.47250000000000003,-1.4875,-3.43,1.004125,0.13303125,0.09515625,1.24921875,0.9665625,-0.32440625,-0.38656250000000003,1.22834375,0.018805700550244674,0.019753450286402605,True
49199,173829,0,173830,5108.0,43401.0,27838.0,-0.001647,0.001403,0.000488,0.36750000000000005,-1.4700000000000002,-3.3950000000000005,1.00646875,0.13325,0.09556250000000001,1.24915625,0.967125,-0.324625,-0.38628125,1.2183125000000001,0.0188235173204109,0.019758803938177333,True
49200,173830,0,173831,5109.0,43400.0,27838.0,-0.0017079999999999999,-0.0013419999999999999,0.000305,0.24500000000000002,-1.5750000000000002,-3.4650000000000003,1.00315625,0.1324375,0.09434375,1.2476562500000001,0.9705625,-0.32315625000000003,-0.38656250000000003,1.22796875,0.018730864749512105,0.019720132757538093,True
49201,173831,0,173832,5108.0,43402.0,27837.0,-0.000183,-0.003111,-0.000732,0.24500000000000002,-1.6975000000000002,-3.535,0.9989375,0.1289375,0.09271875,1.24875,0.96821875,-0.32334375,-0.389625,1.23540625,0.01859453431438677,0.019776595581112874,True
49202,173832,0,173833,5109.0,43402.0,27840.0,0.002257,-0.0026839999999999998,-0.001281,0.1925,-1.9250000000000003,-3.535,0.99828125,0.13053125000000002,0.0913125,1.24821875,0.96803125,-0.32296875,-0.3899375,1.23659375,0.01864492795518639,0.019731497876942082,True
49203,173833,0,173834,5112.0,43403.0,27841.0,0.00244,-0.0040869999999999995,-0.0006709999999999999,0.10500000000000001,-2.0475000000000003,-3.7275000000000005,0.9988125,0.13071875,0.09184375,1.25428125,0.9684375000000001,-0.3200625,-0.39225,1.247625,0.018535365606071122,0.019846211399112423,True
49204,173834,0,173835,5110.0,43403.0,27839.0,0.002562,-0.002257,-0.000915,0.17500000000000002,-2.0650000000000004,-3.7625,0.9989375,0.132875,0.0914375,1.2480625,0.9604375,-0.3225,-0.39096875000000003,1.2550625,0.018722376400452254,0.019778068470527644,True
49205,173835,0,173836,5111.0,43406.0,27840.0,0.00244,-0.000366,-0.000488,0.21000000000000002,-1.8375000000000001,-3.7275000000000005,1.0044375,0.1326875,0.094375,1.2426875,0.9783125,-0.31684375,-0.3855,1.23084375,0.018486414380978203,0.019678702507637737,True
49206,173836,0,173837,5111.0,43408.0,27843.0,-0.001464,0.002074,0.0008539999999999999,0.4025,-1.5925000000000002,-3.7450000000000006,0.99746875,0.1313125,0.09375,1.2474687500000001,0.98690625,-0.3271875,-0.38146875,1.226,0.01884722596888769,0.01949098123959411,True
49207,173837,0,173838,5114.0,43406.0,27841.0,-0.002745,0.0035989999999999998,0.001098,0.43750000000000006,-1.3125000000000002,-3.7975000000000003,0.9898750000000001,0.12875,0.09409375,1.24840625,0.99003125,-0.32953125,-0.38596875,1.2179375000000001,0.018836419217900056,0.019686013088981755,True
49208,173838,0,173839,5113.0,43406.0,27841.0,-0.004209,0.003111,0.000915,0.36750000000000005,-1.2950000000000002,-3.6750000000000003,0.9979687500000001,0.130375,0.0911875,1.25196875,0.966125,-0.33296875,-0.39371875,1.2310625,0.019041809273683465,0.019878324209997706,True
49209,173839,0,173840,5113.0,43403.0,27840.0,-0.0017079999999999999,0.000915,0.000793,0.24500000000000002,-1.4875,-3.5875000000000004,0.9990625000000001,0.13209375,0.09225,1.2554687500000001,0.9546250000000001,-0.31740625,-0.393125,1.23721875,0.01848470167331271,0.01989802454585052,True
49210,173840,0,173841,5114.0,43404.0,27844.0,-0.000793,-0.000732,0.000549,0.35000000000000003,-1.7500000000000002,-3.7275000000000005,0.9995625,0.1311875,0.09171875,1.2490937500000001,0.95440625,-0.32728125,-0.3965625,1.2178437500000001,0.018845868771299713,0.020014346283415953,True
49211,173841,0,173842,5115.0,43405.0,27841.0,0.000732,-0.000793,0.0008539999999999999,0.24500000000000002,-1.9425000000000001,-3.7800000000000002,0.9979375,0.12984375,0.09406250000000001,1.2475,0.9508125000000001,-0.33615625,-0.38321875,1.21690625,0.01914846351300855,0.019574169222428845,True
49212,173842,0,173843,5116.0,43406.0,27839.0,0.004331,-0.00244,-0.001281,0.1925,-2.205,-3.7800000000000002,0.99990625,0.13034375,0.09259375,1.24853125,0.9655,-0.3300625,-0.38190625,1.21734375,0.018923348429540614,0.019461152673409202,True
49213,173843,0,173844,5117.0,43404.0,27843.0,0.0037819999999999998,-0.002379,-0.002074,0.15750000000000003,-2.1175,-3.8150000000000004,1.0036875,0.12984375,0.09309375,1.24871875,0.97221875,-0.3313125,-0.38625,1.21684375,0.01895320073670502,0.019656312471167153,True
49214,173844,0,173845,5118.0,43403.0,27841.0,0.001769,-0.0025009999999999998,-0.0008539999999999999,0.14,-2.0825,-3.7975000000000003,1.0035625,0.132,0.09381250000000001,1.24753125,0.9706875,-0.32778125,-0.38178125,1.2199375000000001,0.018899432105013686,0.01950611176121515,True
49215,173845,0,173846,5120.0,43404.0,27841.0,0.000366,-0.0013419999999999999,-0.000366,0.24500000000000002,-1.8725000000000003,-3.7100000000000004,1.00596875,0.13234375,0.092875,1.2548125,0.980125,-0.32846875000000003,-0.3815,1.22665625,0.01894128663564163,0.019456350101511394,True
49216,173846,0,173847,5120.0,43404.0,27844.0,-0.0011589999999999999,-6.1e-05,-0.000122,0.29750000000000004,-1.61,-3.7275000000000005,1.004625,0.13240625,0.09165625000000001,1.25296875,0.9686250000000001,-0.32371875,-0.38459375,1.23196875,0.01875227240900407,0.019530774425963113,True
49217,173847,0,173848,5122.0,43407.0,27844.0,-0.0037819999999999998,0.003477,0.0011589999999999999,0.385,-1.2425000000000002,-3.7100000000000004,0.99890625,0.130125,0.09396875,1.2486875,0.96621875,-0.324,-0.39121875,1.23340625,0.01866983226443019,0.019891892445923803,True
49218,173848,0,173849,5123.0,43407.0,27845.0,-0.0040869999999999995,0.0015249999999999999,0.000793,0.31500000000000006,-1.2775,-3.7275000000000005,0.99834375,0.1321875,0.09428125,1.248375,0.96809375,-0.32396875,-0.3875,1.232625,0.01875336441550066,0.019755253716043055,True
49219,173849,0,173850,5123.0,43405.0,27842.0,-0.003477,-0.000183,0.000793,0.36750000000000005,-1.2075,-3.7800000000000002,0.9985625,0.12928125000000001,0.09209375,1.2481875,0.9665625,-0.323875,-0.38928125,1.2351875,0.018630101083811686,0.01973715400079697,True
49220,173850,0,173851,5125.0,43404.0,27844.0,-0.001586,0.000122,0.0,0.36750000000000005,-1.4175000000000002,-3.7800000000000002,0.99890625,0.1290625,0.09403125,1.2525,0.96759375,-0.3229375,-0.38734375,1.2368125,0.018583281727381818,0.01973872205741964,True
49221,173851,0,173852,5126.0,43406.0,27843.0,0.000549,0.000488,-0.000183,0.17500000000000002,-1.6450000000000002,-3.8150000000000004,0.9989375,0.13190625,0.0929375,1.25265625,0.9751875,-0.32234375,-0.38628125,1.2281875,0.01867624290936189,0.019651161449636773,True
49222,173852,0,173853,5128.0,43407.0,27841.0,0.003294,0.000366,-0.001037,0.15750000000000003,-1.8550000000000002,-3.9200000000000004,0.9978750000000001,0.13184375,0.09459375,1.2493750000000001,0.9738125,-0.325125,-0.38275000000000003,1.2280312500000001,0.01878587468718044,0.019577108816683928,True
49223,173853,0,173854,5128.0,43403.0,27843.0,0.0046359999999999995,-0.000732,-0.000793,0.31500000000000006,-1.8375000000000001,-3.9025000000000003,1.00378125,0.1303125,0.09431250000000001,1.24896875,0.96609375,-0.32653125,-0.38946875000000003,1.23321875,0.018779650304644235,0.019835661652121885,True
49224,173854,0,173855,5128.0,43407.0,27842.0,0.0025009999999999998,-0.000976,-0.000305,0.28,-1.8200000000000003,-4.025,0.99890625,0.12865625,0.0913125,1.24884375,0.96728125,-0.3195625,-0.38559375,1.23475,0.01843037883596796,0.019556884892335254,True
49225,173855,0,173856,5129.0,43407.0,27844.0,0.000488,-0.000122,-0.000244,0.24500000000000002,-1.6625,-4.025,0.99890625,0.13203125,0.09028125000000001,1.2495625000000001,0.972375,-0.3225,-0.387125,1.23240625,0.018687686298694623,0.019576159551402635,True
49226,173856,0,173857,5132.0,43408.0,27846.0,-0.000793,-0.000183,0.00042699999999999997,0.3325,-1.5925000000000002,-3.9200000000000004,0.9990625000000001,0.12925,0.08546875,1.24596875,0.9746875,-0.32296875,-0.38915625,1.229375,0.01859225140845523,0.019460492816351527,True
49227,173857,0,173858,5132.0,43410.0,27843.0,-0.003172,0.000305,0.000976,0.24500000000000002,-1.3650000000000002,-3.7625,0.99715625,0.12346875,0.0901875,1.246375,0.9734375000000001,-0.3208125,-0.38753125,1.2345,0.018267533208440302,0.019588647374875225,True
49228,173858,0,173859,5133.0,43410.0,27844.0,-0.003355,0.000915,0.000976,0.31500000000000006,-1.4700000000000002,-3.7275000000000005,0.9921875,0.13221875,0.089125,1.2565,0.974875,-0.32290625,-0.38721875,1.23315625,0.018711785315539752,0.019532516392423798,True
49229,173859,0,173860,5134.0,43409.0,27846.0,-0.001586,0.000122,0.0008539999999999999,0.4025,-1.6275000000000002,-3.6925000000000003,0.9909687500000001,0.1234375,0.09353125,1.24271875,0.97565625,-0.322625,-0.3876875,1.2363125,0.018339406211295043,0.019732036914119063,True
49230,173860,0,173861,5136.0,43409.0,27845.0,0.000915,0.000976,-0.000122,0.31500000000000006,-1.8550000000000002,-3.6925000000000003,0.9918125,0.1288125,0.0878125,1.24634375,0.96696875,-0.32409375,-0.381375,1.2323125,0.018619655665485995,0.019243684984952655,True
49231,173861,0,173862,5136.0,43409.0,27845.0,0.001647,-0.000183,-0.001769,0.29750000000000004,-1.9600000000000002,-3.6925000000000003,0.99171875,0.13190625,0.08634375,1.25696875,0.97478125,-0.32325,-0.387,1.22334375,0.01871280564891616,0.019409675236806496,True
49232,173862,0,173863,5136.0,43407.0,27845.0,0.001769,-0.000976,-0.002928,0.21000000000000002,-2.0125,-3.8850000000000002,0.99009375,0.13353125,0.08621875,1.25715625,0.9756875,-0.3224375,-0.3871875,1.22903125,0.01874683612610784,0.019412088827381182,True
49233,173863,0,173864,5139.0,43408.0,27843.0,0.001098,-0.000976,-0.001586,0.21000000000000002,-1.8375000000000001,-3.7975000000000003,0.992375,0.13434375,0.09453125,1.25021875,0.9749375,-0.32709375,-0.38284375,1.2281250000000001,0.01896804874195053,0.01957831518319105,True
49234,173864,0,173865,5139.0,43410.0,27845.0,0.0008539999999999999,-0.000244,0.0006709999999999999,0.24500000000000002,-1.7325000000000002,-3.7625,1.01496875,0.12771875,0.096125,1.24315625,0.968125,-0.32375,-0.3858125,1.23271875,0.018560820186032168,0.019763028195185214,True
49235,173865,0,173866,5140.0,43412.0,27847.0,6.1e-05,0.0011589999999999999,0.0008539999999999999,0.35000000000000003,-1.5925000000000002,-3.8325000000000005,0.9973125,0.123,0.0925,1.2520625,0.958125,-0.32359375,-0.3815625,1.22878125,0.018360516730797645,0.019443483164788968,True
49236,173866,0,173867,5142.0,43411.0,27845.0,-0.0008539999999999999,0.0015249999999999999,0.0011589999999999999,0.31500000000000006,-1.61,-3.9200000000000004,0.99175,0.1328125,0.09146875,1.26071875,0.9755312500000001,-0.32406250000000003,-0.38659375,1.22796875,0.018782841065303136,0.019603496285741012,True
49237,173867,0,173868,5143.0,43413.0,27845.0,-0.001037,-0.000732,0.002806,0.3325,-1.4175000000000002,-3.6925000000000003,1.00628125,0.133625,0.096,1.24571875,0.97040625,-0.3256875,-0.38896875000000003,1.2277500000000001,0.018881789055293915,0.01988475835002249,True
49238,173868,0,173869,5144.0,43413.0,27847.0,-0.000976,-0.000183,0.0017079999999999999,0.31500000000000006,-1.5750000000000002,-3.6400000000000006,1.00703125,0.1308125,0.09393750000000001,1.2413750000000001,0.96809375,-0.3184375,-0.3899375,1.23325,0.0184736375435305,0.01983912422899813,True
49239,173869,0,173870,5146.0,43412.0,27849.0,-0.000488,0.000915,-0.000244,0.35000000000000003,-1.715,-3.6050000000000004,0.9929687500000001,0.13165625,0.0905625,1.2565,0.9745625,-0.3233125,-0.38721875,1.233375,0.01870504891140958,0.019591461203422388,True
49240,173870,0,173871,5147.0,43411.0,27847.0,0.000793,0.001281,-0.002013,0.35000000000000003,-1.8200000000000003,-3.6925000000000003,0.985125,0.13178125000000002,0.09221875,1.2483125,0.97446875,-0.32309375,-0.387,1.2280312500000001,0.018701362773804218,0.019650582277442902,True
49241,173871,0,173872,5148.0,43413.0,27849.0,-0.000244,0.002074,-0.002745,0.385,-1.9600000000000002,-3.5875000000000004,1.00353125,0.132125,0.09325,1.25496875,0.976125,-0.3259375,-0.387375,1.22828125,0.01883020952429891,0.019707943146812647,True
49242,173872,0,173873,5149.0,43411.0,27847.0,0.001464,-0.001769,-0.000305,0.22750000000000004,-1.7675,-3.535,1.00559375,0.13234375,0.0936875,1.2485,0.9709375,-0.3251875,-0.38940625,1.228375,0.018808950599044718,0.019807524014652876,True
49243,173873,0,173874,5149.0,43413.0,27849.0,0.000549,-0.002196,0.001281,0.3325,-1.6975000000000002,-3.5700000000000003,0.99375,0.12871875,0.0928125,1.23971875,0.9669375,-0.324,-0.3909375,1.2354687500000001,0.01861201899358658,0.019833185993773303,True
49244,173874,0,173875,5150.0,43412.0,27851.0,-0.00042699999999999997,-0.0011589999999999999,0.002074,0.29750000000000004,-1.6450000000000002,-3.6575,0.9987812500000001,0.13159375,0.0920625,1.25428125,0.9673125,-0.32306250000000003,-0.38771875,1.2286875,0.018692393279012464,0.019673068027324204,True
49245,173875,0,173876,5151.0,43412.0,27850.0,-0.00061,0.000183,0.001952,0.31500000000000006,-1.5750000000000002,-3.6400000000000006,1.0059375,0.13278125,0.09406250000000001,1.2488125,0.97475,-0.32678125,-0.38956250000000003,1.22778125,0.018891216855908548,0.01982917897768769,True
49246,173876,0,173877,5152.0,43412.0,27850.0,-6.1e-05,0.001586,-0.000244,0.35000000000000003,-1.54,-3.7275000000000005,0.99875,0.13084375,0.09103125000000001,1.253875,0.9676250000000001,-0.3236875,-0.3884375,1.2350625,0.018686773952345838,0.019659674794664482,True
49247,173877,0,173878,5153.0,43412.0,27852.0,-0.002196,-0.0006709999999999999,-0.001098,0.24500000000000002,-1.3125000000000002,-3.5875000000000004,0.9985937500000001,0.13509375,0.0920625,1.254125,0.9728125,-0.31840625,-0.38721875,1.227875,0.01864842602504019,0.01965296883229048,True
49248,173878,0,173879,5153.0,43415.0,27852.0,-0.000793,-0.0006709999999999999,-0.001403,0.31500000000000006,-1.4000000000000001,-3.6400000000000006,1.00659375,0.13284375,0.09446875,1.243,0.97378125,-0.32640625,-0.38606250000000003,1.234125,0.01887866194785759,0.01970515945327377,True
49249,173879,0,173880,5154.0,43414.0,27848.0,-0.001769,-0.00042699999999999997,-0.001464,0.28,-1.4525000000000001,-3.6925000000000003,0.9988125,0.131875,0.09303125,1.247625,0.9679375,-0.32309375,-0.38756250000000003,1.23303125,0.018705217135464112,0.019706510234468903,True
49250,173880,0,173881,5153.0,43412.0,27849.0,-0.00183,-6.1e-05,-0.000732,0.24500000000000002,-1.4875,-3.6050000000000004,0.99825,0.13190625,0.09381250000000001,1.2484375,0.9748125,-0.32556250000000003,-0.38640625,1.2281250000000001,0.018806091328823334,0.01969206717369436,True
49251,173881,0,173882,5153.0,43414.0,27853.0,0.000549,0.00042699999999999997,0.000244,0.17500000000000002,-1.5050000000000001,-3.8500000000000005,0.9999375,0.133375,0.09196875,1.25096875,0.96715625,-0.32346875,-0.39028125,1.2354375,0.018782014797951052,0.019772219723788547,True
49252,173882,0,173883,5151.0,43414.0,27851.0,0.0018909999999999999,0.001098,0.000549,0.385,-1.7325000000000002,-4.0075,0.99815625,0.1381875,0.09925,1.25609375,0.9713125,-0.3226875,-0.386875,1.22796875,0.018948358399950665,0.019933878366949435,True
49253,173883,0,173884,5152.0,43415.0,27849.0,0.0017079999999999999,0.000183,0.002379,0.28,-1.7850000000000001,-4.025,0.99990625,0.1324375,0.0920625,1.2546875,0.9765,-0.32259375,-0.38615625000000003,1.23009375,0.01870817128621408,0.01961025530622523,True
49254,173884,0,173885,5151.0,43413.0,27848.0,0.002379,0.0,0.002562,0.29750000000000004,-1.7325000000000002,-3.9375000000000004,0.991125,0.1321875,0.09275,1.2556875,0.9743125,-0.3228125,-0.38671875,1.22778125,0.01870671823005666,0.01966106038763415,True
49255,173885,0,173886,5147.0,43412.0,27844.0,0.001403,-0.000793,0.002074,0.29750000000000004,-1.7850000000000001,-3.8325000000000005,1.0034687500000001,0.1323125,0.09346875,1.25334375,0.9733125,-0.3221875,-0.387125,1.2276875,0.01868664156955455,0.019706863765203975,True
49256,173886,0,173887,5146.0,43413.0,27847.0,0.000549,6.1e-05,0.0013419999999999999,0.29750000000000004,-1.61,-3.7975000000000003,1.00446875,0.1318125,0.09375,1.24846875,0.9743437500000001,-0.32556250000000003,-0.386875,1.22759375,0.01880223735833447,0.019708347215459138,True
49257,173887,0,173888,5145.0,43412.0,27846.0,-0.000976,-0.0008539999999999999,-0.000976,0.29750000000000004,-1.5050000000000001,-3.7800000000000002,1.0001875,0.1313125,0.093125,1.25240625,0.97190625,-0.32315625000000003,-0.38746875000000003,1.2281875,0.018684612528441905,0.019706585989987174,True
49258,173888,0,173889,5145.0,43411.0,27844.0,-0.001769,-0.0006709999999999999,-0.001952,0.21000000000000002,-1.4525000000000001,-3.6925000000000003,0.9995937500000001,0.132125,0.09253125,1.2496562500000001,0.9746250000000001,-0.316125,-0.38796875000000003,1.22159375,0.01843426944054614,0.019702337858703383,True
49259,173889,0,173890,5143.0,43411.0,27845.0,-0.001403,-6.1e-05,-0.00366,0.31500000000000006,-1.4875,-3.7800000000000002,0.9996875000000001,0.1325,0.09246875,1.2512812500000001,0.96940625,-0.32259375,-0.387625,1.236125,0.018710740913476798,0.01968595752968975,True
49260,173890,0,173891,5144.0,43410.0,27846.0,-0.000976,0.00042699999999999997,-0.003294,0.24500000000000002,-1.4875,-3.7975000000000003,0.9985937500000001,0.13184375,0.09253125,1.2520625,0.975875,-0.32046875,-0.38746875000000003,1.23278125,0.0185980173593488,0.019682239469809674,True
49261,173891,0,173892,5144.0,43412.0,27846.0,-0.001647,-6.1e-05,-0.002013,0.2625,-1.5225000000000002,-3.8325000000000005,0.99846875,0.13265625,0.0915625,1.25196875,0.977125,-0.32309375,-0.38228125,1.23509375,0.01873733681596322,0.01943393832355207,True
49262,173892,0,173893,5142.0,43413.0,27845.0,0.000244,-0.0008539999999999999,0.000976,0.15750000000000003,-1.6800000000000002,-3.8675,1.00371875,0.1333125,0.094,1.2464375,0.98159375,-0.3285625,-0.3906875,1.23034375,0.01898488659163483,0.01987182608116315,True
49263,173893,0,173894,5141.0,43411.0,27846.0,0.002013,-0.000793,0.002257,0.22750000000000004,-1.6275000000000002,-3.9025000000000003,0.9946875000000001,0.1323125,0.09365625,1.2448125,0.96540625,-0.322125,-0.38578125,1.21496875,0.018684119911397543,0.019660534763470003,True
49264,173894,0,173895,5141.0,43411.0,27844.0,0.001098,0.001037,0.0023179999999999997,0.31500000000000006,-1.7500000000000002,-3.9725000000000006,1.01165625,0.13125,0.09384375,1.23753125,0.97,-0.319875,-0.39096875000000003,1.22559375,0.018549643038872528,0.019876721788674345,True
49265,173895,0,173896,5141.0,43411.0,27846.0,0.00244,0.0021349999999999997,0.001769,0.29750000000000004,-1.8025000000000002,-3.9200000000000004,1.0,0.1286875,0.08871875,1.261125,0.96496875,-0.3228125,-0.38656250000000003,1.23040625,0.018562820397517762,0.019489472942322235,True
49266,173896,0,173897,5140.0,43412.0,27846.0,6.1e-05,-0.000183,0.000366,0.21000000000000002,-1.7675,-3.8850000000000002,1.00378125,0.13568750000000002,0.099375,1.238125,0.9791562500000001,-0.3276875,-0.3895,1.23578125,0.0190472275673551,0.020044486356833882,True
49267,173897,0,173898,5142.0,43410.0,27846.0,-0.001403,-0.0015249999999999999,-0.00122,0.21000000000000002,-1.4700000000000002,-3.8150000000000004,0.98603125,0.136,0.0976875,1.23796875,0.97921875,-0.32178125,-0.39028125,1.2290625,0.018821863633034692,0.020006688114758822,True
49268,173898,0,173899,5142.0,43410.0,27845.0,-0.0026839999999999998,-0.001098,-0.000793,0.24500000000000002,-1.5050000000000001,-3.7975000000000003,0.99371875,0.12778125,0.08190625,1.26771875,0.9640625,-0.318125,-0.38656250000000003,1.2290625,0.018336374617697705,0.019210118277227472,True
49269,173899,0,173900,5143.0,43410.0,27844.0,-0.001403,-0.000244,-0.000549,0.12250000000000001,-1.5225000000000002,-3.9025000000000003,1.01240625,0.12784375,0.09971875000000001,1.23078125,0.9761562500000001,-0.32934375,-0.39287500000000003,1.2381875,0.018791608384422617,0.02019416530441779,True
49270,173900,0,173901,5143.0,43411.0,27846.0,-0.000793,0.000183,6.1e-05,0.15750000000000003,-1.6450000000000002,-3.8850000000000002,0.986125,0.13709375000000001,0.0905,1.25878125,0.9673437500000001,-0.32178125,-0.38615625000000003,1.2198125,0.01886683361236135,0.019546182067950953,True
49271,173901,0,173902,5144.0,43411.0,27849.0,0.0023179999999999997,-0.000549,-0.000549,0.24500000000000002,-1.7325000000000002,-3.8675,1.0215,0.13021875,0.0966875,1.238,0.9570000000000001,-0.32853125,-0.38956250000000003,1.2336562500000001,0.018856460971107738,0.01993680698454513,True
49272,173902,0,173903,5143.0,43409.0,27845.0,0.001647,-6.1e-05,-0.000549,0.21000000000000002,-1.6275000000000002,-3.8850000000000002,0.99490625,0.12675,0.093,1.24684375,0.96428125,-0.31971875,-0.390125,1.2318125,0.018358302354956304,0.01980822156508013,True
49273,173903,0,173904,5143.0,43410.0,27843.0,-0.000488,0.000976,-0.000915,0.17500000000000002,-1.6275000000000002,-3.9025000000000003,0.98659375,0.12671875,0.08790625,1.26296875,0.97284375,-0.322,-0.386625,1.23234375,0.018449089301866624,0.019458668429928293,True
49274,173904,0,173905,5144.0,43412.0,27848.0,0.000244,0.000976,-0.000183,0.22750000000000004,-1.4525000000000001,-3.8675,0.9904375,0.13659375,0.094625,1.26115625,0.97203125,-0.32490625,-0.38734375,1.22771875,0.01897232389127913,0.019763068702387893,True
49275,173905,0,173906,5144.0,43410.0,27845.0,-0.000732,0.000122,-0.000549,0.24500000000000002,-1.4525000000000001,-3.9025000000000003,1.01815625,0.1340625,0.09746875,1.2641875,0.9675625,-0.32628125,-0.38828125,1.22828125,0.018923720615949057,0.01991735272447705,True
49276,173906,0,173907,5144.0,43410.0,27846.0,-0.000549,-0.00061,0.0008539999999999999,0.28,-1.61,-3.7450000000000006,0.99425,0.13440625,0.092625,1.2594687500000001,0.97078125,-0.32271875,-0.3856875,1.22125,0.01879415721155761,0.01961447672943402,True
49277,173907,0,173908,5145.0,43411.0,27844.0,0.000305,-0.0006709999999999999,0.001586,0.28,-1.61,-3.7100000000000004,0.990625,0.12975,0.09506250000000001,1.2493125,0.97409375,-0.32521875,-0.3869375,1.2277500000000001,0.018703583086996906,0.019764679349344297,True
49278,173908,0,173909,5146.0,43411.0,27846.0,-0.000244,0.00042699999999999997,0.0,0.35000000000000003,-1.6450000000000002,-3.6400000000000006,0.9892500000000001,0.13609375,0.09290625,1.24953125,0.96765625,-0.31896875,-0.3875,1.2268125,0.018712244942540996,0.019698872373141982,True
49279,173909,0,173910,5142.0,43410.0,27845.0,0.000915,0.000793,0.000122,0.31500000000000006,-1.6275000000000002,-3.6400000000000006,1.00375,0.12878125,0.09021875,1.24859375,0.9686875,-0.32571875,-0.38540625,1.233,0.018683928917824884,0.019504493594401366,True
49280,173910,0,173911,5144.0,43409.0,27844.0,0.0006709999999999999,-0.000488,0.001403,0.24500000000000002,-1.5925000000000002,-3.7100000000000004,0.99834375,0.13190625,0.08990625000000001,1.25640625,0.96778125,-0.32296875,-0.38803125,1.2341875,0.018701458883385688,0.01959721533487866,True
49281,173911,0,173912,5145.0,43409.0,27846.0,-0.00061,-0.0006709999999999999,-0.000366,0.29750000000000004,-1.5575,-3.5875000000000004,0.9925625,0.13275,0.0926875,1.25353125,0.9738125,-0.32259375,-0.387125,1.236,0.018721019422527668,0.019674828418684037,True
49282,173912,0,173913,5145.0,43413.0,27846.0,0.0,0.000549,-0.0008539999999999999,0.22750000000000004,-1.7325000000000002,-3.7100000000000004,0.998125,0.13215625,0.0919375,1.25578125,0.964875,-0.319375,-0.383625,1.235625,0.01856672920253913,0.019503355223023648,True
49283,173913,0,173914,5146.0,43411.0,27844.0,-0.0011589999999999999,-0.00061,-0.001281,0.28,-1.6275000000000002,-3.7625,0.99815625,0.13293750000000001,0.0934375,1.2509375,0.97,-0.32278125,-0.3874375,1.21846875,0.018736292750238012,0.019718143818923162,True
49284,173914,0,173915,5145.0,43413.0,27846.0,-0.000549,0.0006709999999999999,-0.0015249999999999999,0.385,-1.6450000000000002,-3.7100000000000004,1.0059375,0.128625,0.09396875,1.2431875000000001,0.975125,-0.3246875,-0.38659375,1.22921875,0.01863590231118077,0.019706011627802673,True
49285,173915,0,173916,5147.0,43413.0,27844.0,-0.00042699999999999997,-0.000183,-0.000305,0.28,-1.6450000000000002,-3.7450000000000006,0.99834375,0.12865625,0.09734375,1.253625,0.96525,-0.32428125,-0.389125,1.2261250000000001,0.018620796863216667,0.019946133778887105,True
49286,173916,0,173917,5148.0,43412.0,27847.0,0.000305,0.000305,-6.1e-05,0.22750000000000004,-1.5750000000000002,-3.7800000000000002,0.99521875,0.13265625,0.09075,1.2545,0.96765625,-0.322375,-0.38759375,1.22503125,0.018708339543321736,0.019614224958130606,True
49287,173917,0,173918,5147.0,43413.0,27844.0,0.00061,-0.000183,-6.1e-05,0.2625,-1.6800000000000002,-3.7625,0.99884375,0.13675,0.0911875,1.2530000000000001,0.97178125,-0.317875,-0.38809375,1.23603125,0.018695095685786693,0.019652263719873556,True
49288,173918,0,173919,5147.0,43414.0,27846.0,-0.000305,0.001037,-0.000244,0.22750000000000004,-1.715,-3.8675,0.9987812500000001,0.13178125000000002,0.0925,1.25390625,0.96415625,-0.32378125,-0.39065625,1.23425,0.018729098708696865,0.01980907135288744,True
49289,173919,0,173920,5149.0,43414.0,27845.0,0.000305,-0.000183,0.0006709999999999999,0.22750000000000004,-1.6450000000000002,-3.8325000000000005,0.998,0.132,0.09125,1.25575,0.9675,-0.32390625,-0.387625,1.2338437500000001,0.018743134647626756,0.019635983413719048,True
49290,173920,0,173921,5149.0,43412.0,27847.0,0.000366,-0.00061,0.000122,0.24500000000000002,-1.6450000000000002,-3.7800000000000002,0.99834375,0.13209375,0.08990625000000001,1.2559375,0.97290625,-0.32356250000000003,-0.38815625,1.2334687500000001,0.01873312143317822,0.01960224032925818,True
49291,173921,0,173922,5149.0,43415.0,27847.0,0.00042699999999999997,-0.000915,0.00042699999999999997,0.35000000000000003,-1.6625,-3.7975000000000003,0.9915,0.132875,0.0909375,1.25475,0.97475,-0.3204375,-0.3875,1.22665625,0.018639158937827496,0.019618144541260894,True
49292,173922,0,173923,5149.0,43413.0,27847.0,0.001281,0.000366,0.000122,0.31500000000000006,-1.6275000000000002,-3.7800000000000002,1.00103125,0.132625,0.09315625,1.2530625,0.9658125000000001,-0.32275,-0.38706250000000003,1.2273125,0.018722183963573197,0.019691537264891992,True
49293,173923,0,173924,5151.0,43413.0,27847.0,-0.000732,-0.000183,-0.000305,0.35000000000000003,-1.6450000000000002,-3.6750000000000003,1.004375,0.13240625,0.09315625,1.25371875,0.97421875,-0.323125,-0.38690625,1.229625,0.018728319243518254,0.01968525630429239,True
49294,173924,0,173925,5152.0,43412.0,27845.0,0.000305,-0.000549,0.000732,0.4025,-1.6625,-3.7975000000000003,1.00165625,0.1326875,0.09481250000000001,1.25484375,0.97375,-0.32328125,-0.38821875,1.23215625,0.01874618581734321,0.019805925760773325,True
49295,173925,0,173926,5151.0,43413.0,27847.0,-0.000305,-0.000549,-0.000305,0.31500000000000006,-1.5225000000000002,-3.8325000000000005,0.9989687500000001,0.1321875,0.09259375,1.2544375,0.9644375000000001,-0.324,-0.38706250000000003,1.23171875,0.018754625061667488,0.019668471756284712,True
49296,173926,0,173927,5154.0,43414.0,27848.0,-0.001098,0.000488,0.0006709999999999999,0.2625,-1.5750000000000002,-3.7975000000000003,1.00478125,0.13315625,0.09346875,1.2511875000000001,0.97409375,-0.323125,-0.38675,1.227625,0.01875915409718118,0.019691789598860036,True
49297,173927,0,173928,5153.0,43412.0,27848.0,-0.00122,-0.000915,-0.001098,0.29750000000000004,-1.5925000000000002,-3.7800000000000002,1.00371875,0.129875,0.0925625,1.24853125,0.9699375,-0.325625,-0.3869375,1.22884375,0.018725109837876727,0.019662165452304127,True
49298,173928,0,173929,5154.0,43414.0,27848.0,-6.1e-05,0.000122,-0.000366,0.24500000000000002,-1.5925000000000002,-3.7975000000000003,0.998625,0.13003125000000001,0.0933125,1.2481875,0.9655625,-0.32725,-0.39125,1.2279375000000001,0.01879707940683801,0.01986624301747553,True
49299,173929,0,173930,5155.0,43414.0,27848.0,-0.000244,0.0,0.000305,0.21000000000000002,-1.5750000000000002,-3.8675,0.99846875,0.12821875,0.091125,1.23884375,0.968,-0.3253125,-0.39071875,1.2279375000000001,0.01864441618170373,0.01975520914077204,True
49300,173930,0,173931,5156.0,43415.0,27848.0,0.0006709999999999999,-0.000366,-0.000488,0.2625,-1.6275000000000002,-3.7975000000000003,0.99940625,0.129,0.0898125,1.24809375,0.96040625,-0.31909375,-0.39128125,1.2297500000000001,0.01842559408695071,0.019724004863418156,True
49301,173931,0,173932,5157.0,43415.0,27848.0,0.001586,-0.000549,0.00042699999999999997,0.29750000000000004,-1.6975000000000002,-3.7450000000000006,0.9915,0.13053125000000002,0.09096875,1.248,0.96415625,-0.32606250000000003,-0.38896875000000003,1.2220312500000001,0.018769735134899043,0.019678466314817022,True
49302,173932,0,173933,5158.0,43416.0,27849.0,0.001403,0.000122,-0.00042699999999999997,0.22750000000000004,-1.7850000000000001,-3.7975000000000003,1.001625,0.1303125,0.0934375,1.2555,0.972,-0.32790625,-0.38478125,1.23453125,0.018835108343941434,0.01961136108202734,True
49303,173933,0,173934,5159.0,43418.0,27850.0,0.00042699999999999997,-6.1e-05,0.000366,0.31500000000000006,-1.8375000000000001,-3.7450000000000006,1.0036875,0.13184375,0.08909375,1.2535625000000001,0.97796875,-0.32165625000000003,-0.39140625,1.23996875,0.018645934114787106,0.01969956119278691,True
49304,173934,0,173935,5159.0,43417.0,27849.0,-0.000122,0.000366,0.000793,0.35000000000000003,-1.6450000000000002,-3.7450000000000006,0.9987812500000001,0.1393125,0.08953125,1.25365625,0.9586875,-0.32109375,-0.39515625,1.2396562500000001,0.018930326684012722,0.01986818592317891,True
49305,173935,0,173936,5161.0,43417.0,27854.0,-0.000488,0.000366,0.0015249999999999999,0.31500000000000006,-1.5750000000000002,-3.6400000000000006,0.99825,0.1311875,0.09078125000000001,1.248625,0.9556250000000001,-0.31953125,-0.38409375,1.2217500000000001,0.01853320055253943,0.019474785688928874,True
49306,173936,0,173937,5160.0,43418.0,27851.0,-0.002013,0.0006709999999999999,-0.001281,0.35000000000000003,-1.5050000000000001,-3.6225000000000005,0.9988125,0.1286875,0.0899375,1.25253125,0.95959375,-0.32678125,-0.39437500000000003,1.23340625,0.018722935242409023,0.01985344982193641,True
49307,173937,0,173938,5162.0,43418.0,27852.0,-0.000976,-0.000122,-0.000915,0.43750000000000006,-1.5050000000000001,-3.6050000000000004,0.99940625,0.13175,0.09203125,1.25421875,0.960875,-0.32259375,-0.38915625,1.24390625,0.018679905386324188,0.019729567315392472,True
49308,173938,0,173939,5165.0,43418.0,27851.0,0.0006709999999999999,0.000122,6.1e-05,0.385,-1.5925000000000002,-3.6575,1.0070625,0.1309375,0.09334375,1.24853125,0.98165625,-0.324,-0.3843125,1.22253125,0.018703235487584277,0.01958866996967825,True
49309,173939,0,173940,5164.0,43418.0,27853.0,0.000366,6.1e-05,-0.000549,0.35000000000000003,-1.6450000000000002,-3.6925000000000003,0.9987812500000001,0.1308125,0.0905,1.25628125,0.96375,-0.32615625,-0.3941875,1.2393125,0.018785078304345757,0.01986897493511518,True
49310,173940,0,173941,5167.0,43419.0,27854.0,0.000732,0.00061,0.0,0.31500000000000006,-1.715,-3.7450000000000006,1.00596875,0.1295,0.0899375,1.24875,0.981,-0.32706250000000003,-0.38678125,1.22665625,0.018767678999468185,0.019548243989763923,True
49311,173941,0,173942,5167.0,43420.0,27854.0,0.00042699999999999997,6.1e-05,-0.000183,0.35000000000000003,-1.6450000000000002,-3.7450000000000006,0.9980625000000001,0.13275,0.0963125,1.2530000000000001,0.9614375000000001,-0.32103125,-0.38606250000000003,1.22875,0.01865797734214087,0.01978076616509943,True
49312,173942,0,173943,5168.0,43419.0,27854.0,-0.00042699999999999997,0.0,6.1e-05,0.35000000000000003,-1.6625,-3.8675,0.9998750000000001,0.12928125000000001,0.0935,1.24790625,0.976625,-0.3244375,-0.38725,1.2281250000000001,0.018652795157133646,0.019713169791591916,True
49313,173943,0,173944,5168.0,43420.0,27854.0,6.1e-05,-0.000549,0.00042699999999999997,0.31500000000000006,-1.5750000000000002,-3.7625,0.9984375,0.13846875,0.08921875,1.2549062500000001,0.967125,-0.3236875,-0.3871875,1.2338437500000001,0.019000254381659858,0.01953510424275042,True
49314,173944,0,173945,5169.0,43421.0,27854.0,-0.000183,-0.000488,6.1e-05,0.2625,-1.6275000000000002,-3.7975000000000003,0.9989687500000001,0.13140625,0.0931875,1.24859375,0.97409375,-0.323375,-0.38671875,1.22703125,0.01869729221376557,0.0196790004805382,True
49315,173945,0,173946,5171.0,43419.0,27854.0,0.000488,0.00061,-0.00042699999999999997,0.24500000000000002,-1.6450000000000002,-3.7800000000000002,1.0054375,0.13196875,0.09365625,1.24884375,0.9681875,-0.3258125,-0.38875,1.22059375,0.01881874449209045,0.01977986776690072,True
49316,173946,0,173947,5172.0,43417.0,27853.0,-0.000183,-0.0006709999999999999,0.0013419999999999999,0.385,-1.6450000000000002,-3.6925000000000003,0.9907812500000001,0.1361875,0.09071875,1.25534375,0.9676875,-0.32371875,-0.38765625000000004,1.23353125,0.01890772766808118,0.019615456077293203,True
49317,173947,0,173948,5174.0,43422.0,27855.0,-0.000305,6.1e-05,0.000488,0.31500000000000006,-1.61,-3.6925000000000003,1.00003125,0.1320625,0.09259375,1.25296875,0.9753437500000001,-0.32328125,-0.3873125,1.2270625,0.018720490271023776,0.01967852136228623,True
49318,173948,0,173949,5176.0,43421.0,27856.0,6.1e-05,0.000549,0.000488,0.29750000000000004,-1.5050000000000001,-3.7275000000000005,0.99425,0.12915625,0.09203125,1.2385,0.9731562500000001,-0.32606250000000003,-0.38865625,1.22778125,0.018713211396213424,0.01970947046334297,True
49319,173949,0,173950,5175.0,43420.0,27855.0,-0.0006709999999999999,0.000244,-0.001037,0.29750000000000004,-1.6275000000000002,-3.7975000000000003,0.99740625,0.12928125000000001,0.09265625,1.2495625000000001,0.96334375,-0.3233125,-0.39071875,1.234375,0.018607405960845178,0.019817989168523373,True
49320,173950,0,173951,5177.0,43422.0,27856.0,-0.002196,-0.000244,-0.000793,0.2625,-1.6275000000000002,-3.7450000000000006,0.9985937500000001,0.13121875,0.09034375,1.2483125,0.96725,-0.3234375,-0.38903125,1.2281250000000001,0.018692105094109332,0.01965535223954416,True
49321,173951,0,173952,5179.0,43421.0,27856.0,-0.000549,-0.000793,-0.000122,0.24500000000000002,-1.61,-3.8325000000000005,0.99928125,0.13065625,0.09375,1.24875,0.9545,-0.3254375,-0.38965625,1.229375,0.018749662775849354,0.019820133791348532,True
49322,173952,0,173953,5180.0,43424.0,27854.0,0.000915,0.000305,-0.000122,0.3325,-1.7325000000000002,-3.8850000000000002,0.9875,0.12821875,0.0889375,1.24809375,0.968,-0.323625,-0.3905,1.2358125,0.01857633268067568,0.019656731104323404,True
49323,173953,0,173954,5182.0,43422.0,27858.0,0.001586,0.000183,0.0,0.29750000000000004,-1.8025000000000002,-3.8325000000000005,0.9904375,0.12678125,0.093625,1.245625,0.9675625,-0.3234375,-0.38909375,1.228,0.018509667887197274,0.019792402085460844,True
49324,173954,0,173955,5183.0,43423.0,27859.0,0.002013,0.0006709999999999999,0.0018909999999999999,0.29750000000000004,-1.7850000000000001,-3.8150000000000004,1.0064375,0.1299375,0.09671875,1.24609375,0.9678125000000001,-0.32665625,-0.38984375,1.22534375,0.0187692770147973,0.01994938979467632,True
49325,173955,0,173956,5184.0,43423.0,27857.0,0.002013,-0.000732,0.000793,0.28,-1.6800000000000002,-3.8500000000000005,1.00828125,0.1279375,0.0955,1.246875,0.9675625,-0.32640625,-0.389375,1.228875,0.018676977821169127,0.01988058324577813,True
49326,173956,0,173957,5186.0,43425.0,27858.0,-0.000305,0.0008539999999999999,0.000305,0.2625,-1.4175000000000002,-3.7275000000000005,0.99771875,0.129375,0.0923125,1.2488125,0.96709375,-0.32071875,-0.39078125,1.233,0.018506597384174758,0.01980640739008719,True
49327,173957,0,173958,5187.0,43425.0,27858.0,-0.0013419999999999999,0.000488,-0.001403,0.385,-1.4875,-3.5700000000000003,0.99575,0.13396875,0.08725000000000001,1.2565625,0.96803125,-0.32309375,-0.38771875,1.23540625,0.018791297879201738,0.01947573509719928,True
49328,173958,0,173959,5189.0,43425.0,27858.0,-0.002074,0.001098,-0.000976,0.49000000000000005,-1.5575,-3.5525,0.9959375,0.13703125,0.09396875,1.2585625,0.9746250000000001,-0.32209375,-0.38721875,1.2281875,0.0188768699240788,0.01973113477731035,True
49329,173959,0,173960,5190.0,43424.0,27858.0,-0.001769,0.000793,-0.001586,0.42000000000000004,-1.4875,-3.4825000000000004,1.0032812500000001,0.13378125,0.09334375,1.25840625,0.95996875,-0.32621875,-0.3874375,1.22890625,0.018909638391704422,0.019714299626600786,True
49330,173960,0,173961,5190.0,43424.0,27857.0,-0.00061,-0.0018909999999999999,0.00042699999999999997,0.31500000000000006,-1.4000000000000001,-3.535,0.9959375,0.13234375,0.0879375,1.25915625,0.97121875,-0.32325,-0.38809375,1.2315625000000001,0.01873079255444893,0.019519001972017596,True
49331,173961,0,173962,5193.0,43424.0,27857.0,-0.000915,-0.000122,0.0017079999999999999,0.385,-1.435,-3.6225000000000005,0.9965937500000001,0.1325,0.09240625,1.25578125,0.973,-0.32365625000000003,-0.38740625,1.22525,0.018753605350758075,0.019674601516920232,True
49332,173962,0,173963,5193.0,43425.0,27857.0,0.001586,-0.00061,0.002745,0.29750000000000004,-1.4175000000000002,-3.535,1.0055625,0.13609375,0.09381250000000001,1.24628125,0.97140625,-0.32359375,-0.38721875,1.2266875,0.01889883151004362,0.01972472773263659,True
49333,173963,0,173964,5192.0,43425.0,27860.0,0.000732,0.00122,0.000732,0.35000000000000003,-1.5225000000000002,-3.6750000000000003,1.000125,0.1281875,0.094125,1.23740625,0.964375,-0.32340625,-0.38778125,1.2321875,0.018566221579265855,0.019760151407787457,True
49334,173964,0,173965,5194.0,43425.0,27857.0,0.001952,0.000488,-0.0008539999999999999,0.28,-1.5225000000000002,-3.6225000000000005,0.9969687500000001,0.131875,0.0905625,1.2541875,0.9675,-0.32328125,-0.38771875,1.232125,0.018712781607127946,0.019611561659493057,True
49335,173965,0,173966,5192.0,43423.0,27859.0,-0.00061,-0.000793,-0.000793,0.31500000000000006,-1.2775,-3.6225000000000005,1.0035625,0.1328125,0.0930625,1.25403125,0.97203125,-0.32275,-0.3818125,1.227625,0.018729892795839285,0.01947660781986573,True
49336,173966,0,173967,5193.0,43425.0,27859.0,-0.000976,-0.00042699999999999997,-0.000488,0.31500000000000006,-1.225,-3.5700000000000003,1.00340625,0.1298125,0.096375,1.24796875,0.97221875,-0.32628125,-0.38615625000000003,1.22825,0.018749012449241497,0.019787097443862235,True
49337,173967,0,173968,5193.0,43425.0,27858.0,-0.002196,-0.000915,-0.000549,0.2625,-1.2600000000000002,-3.6050000000000004,0.99890625,0.13271875,0.0914375,1.25396875,0.968125,-0.32375,-0.39087500000000003,1.2404375,0.018766380595097384,0.019774300839965765,True
49338,173968,0,173969,5191.0,43423.0,27858.0,-0.001281,-0.000366,-0.000244,0.2625,-1.3475000000000001,-3.6225000000000005,0.9985625,0.13234375,0.09315625,1.254625,0.9671875,-0.320625,-0.38571875,1.2373750000000001,0.0186248811451186,0.019637518373330703,True
49339,173969,0,173970,5191.0,43423.0,27856.0,-0.000549,0.001098,0.000244,0.28,-1.4700000000000002,-3.7100000000000004,1.00421875,0.13165625,0.09353125,1.248125,0.99940625,-0.322125,-0.3845,1.2209375,0.01865713830514398,0.01960389796797146,True
49340,173970,0,173971,5191.0,43423.0,27855.0,0.001647,0.00061,0.001586,0.3325,-1.6625,-3.6750000000000003,1.0033750000000001,0.12915625,0.09434375,1.2493750000000001,0.9848125,-0.3329375,-0.38175000000000003,1.21634375,0.018990463029792435,0.01952664390373948,True
49341,173971,0,173972,5188.0,43425.0,27855.0,0.002379,-6.1e-05,0.000732,0.29750000000000004,-1.6450000000000002,-3.7275000000000005,0.996,0.1288125,0.094125,1.25415625,0.95675,-0.32865625,-0.39225,1.2325,0.018803699854980687,0.019939734956799803,True
49342,173972,0,173973,5187.0,43423.0,27856.0,0.0,-0.0006709999999999999,0.001281,0.2625,-1.6975000000000002,-3.6575,0.99909375,0.13228125,0.09053125000000001,1.250375,0.95440625,-0.32156250000000003,-0.39653125,1.2345625,0.01866013953667656,0.01996441604787566,True
49343,173973,0,173974,5186.0,43423.0,27856.0,-6.1e-05,-0.000244,0.001403,0.35000000000000003,-1.4875,-3.7625,0.998125,0.13403125,0.09146875,1.25278125,0.9599062500000001,-0.32065625000000003,-0.39034375,1.249,0.01869552759292834,0.01975423163111426,True
49344,173974,0,173975,5185.0,43426.0,27854.0,0.000183,-0.000244,0.00122,0.29750000000000004,-1.54,-3.8150000000000004,1.00484375,0.13265625,0.09384375,1.24790625,0.9766875,-0.31853125,-0.38234375,1.22103125,0.018553238078471535,0.019530013393400707,True
49345,173975,0,173976,5183.0,43424.0,27855.0,-0.000976,-0.000244,-0.0015249999999999999,0.1925,-1.33,-3.6750000000000003,1.00625,0.1321875,0.09334375,1.2488125,0.98465625,-0.3318125,-0.386125,1.21790625,0.019069685005997806,0.01966153909241423,True
49346,173976,0,173977,5183.0,43422.0,27855.0,-0.00042699999999999997,0.0,-0.0023179999999999997,0.24500000000000002,-1.3125000000000002,-3.6400000000000006,1.00596875,0.13225,0.09421875,1.2474687500000001,0.98759375,-0.3273125,-0.38303125,1.2258437500000001,0.01889080431716409,0.019573038114364883,True
49347,173977,0,173978,5183.0,43420.0,27856.0,-0.00061,-0.000549,-0.001769,0.24500000000000002,-1.3650000000000002,-3.6225000000000005,1.006125,0.13578125,0.09478125,1.25315625,0.99259375,-0.31575000000000003,-0.38896875000000003,1.244125,0.018569497136629552,0.01983478698745719,True
49348,173978,0,173979,5181.0,43423.0,27854.0,-0.000732,-0.000549,-0.0025009999999999998,0.22750000000000004,-1.3825,-3.6575,0.99871875,0.13228125,0.09071875,1.252125,0.9724375000000001,-0.32009375,-0.38690625,1.24753125,0.01860087402006828,0.01958530512659842,True
49349,173979,0,173980,5179.0,43423.0,27856.0,0.00042699999999999997,-0.000305,0.000366,0.28,-1.3475000000000001,-3.6400000000000006,0.99871875,0.13228125,0.08984375,1.25459375,0.9733437500000001,-0.3190625,-0.388625,1.23396875,0.01855925778388867,0.019618520929326682,True
49350,173980,0,173981,5180.0,43423.0,27854.0,-0.000244,0.000366,0.000549,0.22750000000000004,-1.435,-3.7625,0.9993125,0.13209375,0.09325,1.24340625,0.9691875,-0.32340625,-0.383875,1.22484375,0.018726817918440185,0.019567234494107275,True
49351,173981,0,173982,5179.0,43424.0,27854.0,0.0017079999999999999,0.001952,0.0,0.29750000000000004,-1.6450000000000002,-3.6925000000000003,0.99946875,0.1295,0.09034375,1.24875,0.96278125,-0.32396875,-0.39021875,1.234875,0.018642876689273828,0.019703082818804157,True
49352,173982,0,173983,5180.0,43422.0,27855.0,0.00122,0.0017079999999999999,0.000305,0.3325,-1.6625,-3.6750000000000003,0.9989375,0.12890625,0.089625,1.250375,0.9680625,-0.32346875,-0.387875,1.23325,0.018598293058016243,0.019579401649385198,True
49353,173983,0,173984,5179.0,43424.0,27854.0,0.00122,0.001464,0.000488,0.45500000000000007,-1.6975000000000002,-3.7450000000000006,0.9978125,0.13209375,0.09146875,1.2530000000000001,0.9732500000000001,-0.32240625,-0.38753125,1.22609375,0.018686473506296278,0.01964118446798505,True
49354,173984,0,173985,5180.0,43424.0,27855.0,-0.000915,0.0006709999999999999,0.000183,0.45500000000000007,-1.6625,-3.6575,1.00025,0.133125,0.09340625,1.2485,0.97284375,-0.326,-0.38706250000000003,1.22875,0.01887383869111239,0.019701788602050782,True
49355,173985,0,173986,5179.0,43424.0,27855.0,-0.000915,0.000488,-0.000366,0.28,-1.3475000000000001,-3.6575,1.0033125,0.13253125,0.09253125,1.24865625,0.9685625,-0.3271875,-0.387125,1.22734375,0.018897324238570528,0.01966842134938005,True
49356,173986,0,173987,5178.0,43422.0,27855.0,-0.000488,0.00061,-0.0030499999999999998,0.28,-1.435,-3.7975000000000003,1.00259375,0.13271875,0.09393750000000001,1.25209375,0.9759375,-0.32546875000000003,-0.3873125,1.22725,0.018835711028179058,0.019733621734662234,True
49357,173987,0,173988,5178.0,43423.0,27853.0,0.000549,0.00042699999999999997,-0.003721,0.12250000000000001,-1.6275000000000002,-3.7975000000000003,1.0045,0.1328125,0.09284375,1.25425,0.97396875,-0.32646875000000003,-0.3871875,1.22725,0.018879898053432025,0.01968374786965492,True
49358,173988,0,173989,5180.0,43419.0,27852.0,0.0006709999999999999,-0.0018909999999999999,-0.0015249999999999999,0.035,-1.3650000000000002,-3.9550000000000005,1.0049062500000001,0.13278125,0.09353125,1.2477500000000001,0.97228125,-0.3259375,-0.3869375,1.225125,0.018857186901840885,0.019701889587407193,True
49359,173989,0,173990,5177.0,43411.0,27851.0,-0.0021349999999999997,-0.002562,0.0013419999999999999,0.07,-0.9800000000000001,-3.9725000000000006,1.00584375,0.13415625,0.09346875,1.248375,0.95921875,-0.326,-0.38909375,1.2278437500000001,0.018916231604045056,0.01978599553335187,True
49360,173990,0,173991,5177.0,43408.0,27848.0,-0.0032329999999999998,-0.002196,0.0073809999999999995,0.17500000000000002,-0.6475000000000001,-3.9025000000000003,1.00825,0.12740625,0.09375,1.2460625,0.9683437500000001,-0.32396875,-0.3891875,1.23475,0.01855679904209711,0.01980129514359591,True
49361,173991,0,173992,5178.0,43406.0,27849.0,0.0006709999999999999,-0.000976,0.006771,0.17500000000000002,-0.77,-4.025,0.9965937500000001,0.13309375,0.0896875,1.2635,0.97403125,-0.32278125,-0.3874375,1.227,0.018742716768872805,0.019564376126028002,True
49362,173992,0,173993,5177.0,43405.0,27848.0,0.004392,0.00061,0.001647,0.1925,-1.2075,-4.112500000000001,1.0105625,0.135125,0.09568750000000001,1.2432812500000001,0.96909375,-0.326,-0.3893125,1.2294375,0.018956055249527256,0.019885759387436606,True
49363,173993,0,173994,5179.0,43406.0,27850.0,0.00671,0.002379,-0.002806,0.12250000000000001,-1.54,-4.0600000000000005,1.01340625,0.134375,0.0968125,1.2449375,0.96765625,-0.32353125,-0.389875,1.22809375,0.018825648516804072,0.01995448931165084,True
49364,173994,0,173995,5177.0,43406.0,27852.0,0.0053679999999999995,0.0023179999999999997,-0.0044529999999999995,0.15750000000000003,-1.6275000000000002,-3.9375000000000004,1.014875,0.12821875,0.09553125,1.2453125,0.968,-0.324125,-0.39046875000000003,1.2277500000000001,0.01859650655470649,0.019925816308880902,True
49365,173995,0,173996,5176.0,43406.0,27850.0,-0.001037,-0.000305,-0.003355,0.21000000000000002,-0.8225000000000001,-3.8325000000000005,1.01378125,0.13084375,0.09581250000000001,1.24428125,0.968375,-0.31890625,-0.39003125,1.22896875,0.0184938415970085,0.019919767425472242,True
49366,173996,0,173997,5176.0,43407.0,27852.0,-0.0044529999999999995,-0.000915,-0.00061,0.36750000000000005,-0.6125,-3.6750000000000003,1.0056875,0.12396875,0.0916875,1.242875,0.96809375,-0.323625,-0.38903125,1.235,0.018401605435045147,0.01971044872887274,True
49367,173997,0,173998,5176.0,43407.0,27851.0,-0.003965,-0.0013419999999999999,0.002013,0.42000000000000004,-0.6825000000000001,-3.6225000000000005,0.99575,0.12321875,0.09103125000000001,1.23840625,0.96803125,-0.323375,-0.3823125,1.2340625,0.018360681854389042,0.019413406747206607,True
49368,173998,0,173999,5175.0,43406.0,27850.0,-0.004392,0.000122,0.0034159999999999998,0.43750000000000006,-0.9625000000000001,-3.7275000000000005,1.00028125,0.1300625,0.09571875,1.2476875,0.96721875,-0.32256250000000003,-0.38921875,1.22828125,0.01860926454603622,0.01988327321882748,True
49369,173999,0,174000,5177.0,43407.0,27849.0,-0.0034159999999999998,0.000732,0.0028669999999999998,0.36750000000000005,-1.12,-3.6750000000000003,1.0155,0.12696875,0.09553125,1.25584375,0.9669375,-0.32434375,-0.3889375,1.22790625,0.018553943515947885,0.01986428273064376,True
49370,174000,0,174001,5177.0,43408.0,27849.0,0.0015249999999999999,-0.00061,-0.000183,0.43750000000000006,-1.7500000000000002,-3.6575,1.0072812500000001,0.13396875,0.08603125,1.24659375,0.9677187500000001,-0.32206250000000003,-0.385875,1.234125,0.018749694850097517,0.01935162260939991,True
49371,174001,0,174002,5178.0,43407.0,27853.0,0.001647,-0.001403,-0.0018909999999999999,0.29750000000000004,-1.8200000000000003,-3.6225000000000005,0.9951562500000001,0.132,0.096,1.25809375,0.9677187500000001,-0.32221875,-0.385375,1.22846875,0.018675054059367015,0.01974031566051373,True
49372,174002,0,174003,5178.0,43409.0,27851.0,0.0018909999999999999,-0.000183,-0.0040869999999999995,0.29750000000000004,-1.8550000000000002,-3.5700000000000003,1.00084375,0.1335625,0.09556250000000001,1.24721875,0.97475,-0.32553125,-0.38715625000000004,1.22934375,0.018872917729186284,0.019793974543464862,True
49373,174003,0,174004,5177.0,43411.0,27853.0,0.002562,0.000732,-0.003294,0.3325,-1.7675,-3.7625,0.99565625,0.131375,0.0923125,1.2456875,0.9761562500000001,-0.32256250000000003,-0.38765625000000004,1.2259375000000001,0.018663226787884707,0.019680806760592258,True
49374,174004,0,174005,5179.0,43411.0,27854.0,0.0013419999999999999,0.000549,-0.00183,0.31500000000000006,-1.6800000000000002,-3.6575,0.99925,0.13521875,0.0923125,1.24825,0.9700625,-0.323,-0.38790625,1.231375,0.018838907618303664,0.019690855995479317,True
49375,174005,0,174006,5180.0,43412.0,27853.0,-0.002257,-0.000122,0.002623,0.35000000000000003,-1.3650000000000002,-3.6750000000000003,0.998125,0.1303125,0.09365625,1.2490625,0.96809375,-0.32356250000000003,-0.3896875,1.228,0.018659889972942902,0.019817545837764423,True
49376,174006,0,174007,5179.0,43414.0,27857.0,-0.0011589999999999999,-0.000488,0.002745,0.4025,-1.3125000000000002,-3.6575,1.0049062500000001,0.1390625,0.0934375,1.24815625,0.9675625,-0.3268125,-0.38925,1.2276875,0.01915067993392065,0.019790993983004806,True
49377,174007,0,174008,5182.0,43415.0,27854.0,-0.00122,0.000183,0.000915,0.3325,-1.4175000000000002,-3.7625,1.0050937500000001,0.1325,0.09328125,1.25290625,0.9679375,-0.32703125,-0.3868125,1.2278437500000001,0.01888973813851618,0.019686613410424176,True
49378,174008,0,174009,5182.0,43414.0,27855.0,-0.000366,-6.1e-05,0.000305,0.28,-1.4525000000000001,-3.7275000000000005,1.0068125,0.13796875,0.0926875,1.2519375,0.96409375,-0.3251875,-0.38740625,1.22778125,0.019040192393172718,0.019686134108665203,True
49379,174009,0,174010,5182.0,43416.0,27857.0,-0.00042699999999999997,-0.000488,-0.000488,0.35000000000000003,-1.4875,-3.7800000000000002,1.00371875,0.1324375,0.093125,1.24665625,0.97478125,-0.3235,-0.3866875,1.22753125,0.018744732460377823,0.01967518138738605,True
49380,174010,0,174011,5182.0,43420.0,27859.0,0.00061,-0.000183,-0.001037,0.22750000000000004,-1.7850000000000001,-3.6575,1.006625,0.1320625,0.100625,1.25371875,0.97296875,-0.32425,-0.38756250000000003,1.22828125,0.01875957120980092,0.020017888216585813,True
49381,174011,0,174012,5184.0,43418.0,27859.0,0.0011589999999999999,-0.000244,0.001037,0.35000000000000003,-1.7850000000000001,-3.6925000000000003,1.0052812500000001,0.13215625,0.08934375,1.24878125,0.9753125,-0.32506250000000003,-0.38765625000000004,1.22990625,0.018796200420862226,0.019559075095623428,True
49382,174012,0,174013,5184.0,43419.0,27861.0,0.001037,-6.1e-05,-0.000244,0.28,-1.7325000000000002,-3.7450000000000006,0.9984375,0.13321875,0.09109375,1.248625,0.97246875,-0.32340625,-0.38990625,1.22425,0.018773069664122392,0.01972127301637332,True
49383,174013,0,174014,5185.0,43420.0,27861.0,0.0017079999999999999,0.001281,-0.000732,0.3325,-1.715,-3.5875000000000004,0.9869375,0.1309375,0.09315625,1.2565,0.96740625,-0.32628125,-0.38046875,1.22796875,0.018795258728664086,0.019426410741179866,True
49384,174014,0,174015,5186.0,43420.0,27862.0,0.000122,0.000915,0.000122,0.29750000000000004,-1.6450000000000002,-3.6050000000000004,0.998375,0.1393125,0.08928125,1.247875,0.975375,-0.32356250000000003,-0.3903125,1.23234375,0.019029901561500296,0.019663288447001243,True
49385,174015,0,174016,5185.0,43422.0,27862.0,-0.00122,-0.000244,-0.0013419999999999999,0.42000000000000004,-1.6275000000000002,-3.6225000000000005,1.0050625,0.13034375,0.09418750000000001,1.248625,0.967375,-0.32665625,-0.38940625,1.2274375,0.018785976802709988,0.019828024718723934,True
49386,174016,0,174017,5188.0,43421.0,27860.0,-0.001403,0.00042699999999999997,-0.000732,0.4025,-1.6625,-3.6575,1.0058125,0.12884375,0.09334375,1.24790625,0.967,-0.32371875,-0.3881875,1.22759375,0.0186058104293777,0.019744445953599463,True
49387,174017,0,174018,5188.0,43423.0,27862.0,-0.001403,-0.00042699999999999997,-6.1e-05,0.31500000000000006,-1.54,-3.6575,1.0013125,0.12953125000000001,0.09590625,1.24878125,0.96846875,-0.32440625,-0.39,1.2288125,0.018661812145979926,0.019922355473554733,True
49388,174018,0,174019,5188.0,43421.0,27862.0,-6.1e-05,-0.001037,-0.000183,0.385,-1.5925000000000002,-3.6400000000000006,0.9979375,0.1285,0.09190625000000001,1.247875,0.96796875,-0.32340625,-0.39071875,1.2336562500000001,0.018579069286399803,0.019787239767175783,True
49389,174019,0,174020,5189.0,43425.0,27862.0,-0.001037,-0.000366,-0.000305,0.3325,-1.715,-3.6750000000000003,0.99834375,0.12978125000000001,0.09178125000000001,1.25103125,0.968375,-0.32175,-0.388125,1.2336562500000001,0.01856491617585083,0.019677865764588298,True
49390,174020,0,174021,5190.0,43424.0,27861.0,0.0008539999999999999,0.00042699999999999997,0.000488,0.35000000000000003,-1.7850000000000001,-3.535,0.9986875000000001,0.13209375,0.09259375,1.25115625,0.9694375000000001,-0.32353125,-0.38725,1.22825,0.018731860736709436,0.019676008980102307,True
49391,174021,0,174022,5191.0,43423.0,27862.0,0.001098,-0.000732,0.000244,0.42000000000000004,-1.715,-3.4650000000000003,1.00028125,0.13125,0.09278125,1.248375,0.9671875,-0.32606250000000003,-0.38859375,1.23278125,0.018799281634666525,0.019737710379467862,True
49392,174022,0,174023,5191.0,43424.0,27861.0,0.000976,6.1e-05,0.00042699999999999997,0.31500000000000006,-1.7675,-3.4825000000000004,0.9989375,0.13175,0.09275,1.252,0.95703125,-0.32321875,-0.3874375,1.231125,0.018705121007062443,0.019689953075225718,True
49393,174023,0,174024,5192.0,43423.0,27862.0,0.0006709999999999999,0.000366,-6.1e-05,0.22750000000000004,-1.6800000000000002,-3.4475000000000002,0.99909375,0.13240625,0.0930625,1.25296875,0.97578125,-0.3226875,-0.38725,1.23028125,0.01871066879430984,0.019695230089493483,True
49394,174024,0,174025,5193.0,43424.0,27864.0,-0.000793,0.000793,0.000549,0.42000000000000004,-1.5925000000000002,-3.5000000000000004,0.9989687500000001,0.13221875,0.0923125,1.24196875,0.97678125,-0.32225,-0.38859375,1.24078125,0.018685308719382458,0.01971849032911133,True
49395,174025,0,174026,5192.0,43424.0,27863.0,-0.001037,0.000122,-0.00042699999999999997,0.35000000000000003,-1.5225000000000002,-3.5175000000000005,0.99809375,0.13084375,0.09353125,1.2513125,0.96859375,-0.3278125,-0.386,1.22478125,0.018853164459402175,0.019664202821290905,True
49396,174026,0,174027,5194.0,43424.0,27863.0,-0.001037,0.00042699999999999997,0.000183,0.4025,-1.5225000000000002,-3.5175000000000005,1.00415625,0.13240625,0.093125,1.2486875,0.9699375,-0.32156250000000003,-0.38290625,1.23884375,0.018665279009109716,0.01952315466906247,True
49397,174027,0,174028,5196.0,43427.0,27864.0,-0.0013419999999999999,-0.000305,-0.0006709999999999999,0.43750000000000006,-1.6625,-3.5525,0.99921875,0.12915625,0.09384375,1.2420625,0.96921875,-0.3224375,-0.39087500000000003,1.21796875,0.01856696106218795,0.019872954537301347,True
49398,174028,0,174029,5196.0,43426.0,27863.0,-6.1e-05,0.000488,0.00061,0.29750000000000004,-1.6625,-3.4650000000000003,1.0169062500000001,0.13284375,0.09609375,1.274125,0.96546875,-0.321625,-0.3858125,1.22390625,0.018685788881293908,0.0197617467123558,True
49399,174029,0,174030,5198.0,43427.0,27864.0,0.000732,-0.000244,-0.000488,0.2625,-1.9075000000000002,-3.6050000000000004,0.98953125,0.13178125000000002,0.08646875,1.2368125,0.9781875,-0.31853125,-0.38540625,1.2381875,0.01851725728707403,0.01935071309300004,True
49400,174030,0,174031,5198.0,43427.0,27865.0,0.0015249999999999999,-0.000244,-0.000122,0.31500000000000006,-1.9075000000000002,-3.4650000000000003,1.0091875000000001,0.12759375,0.09759375,1.2508125,0.9653125,-0.3249375,-0.391,1.2256875,0.018603593534412984,0.020031722766594238,True
49401,174031,0,174032,5199.0,43427.0,27865.0,0.0013419999999999999,-0.001098,0.002074,0.24500000000000002,-1.7850000000000001,-3.5000000000000004,1.0169062500000001,0.13721875,0.09546875,1.2620625,0.96428125,-0.32878125,-0.38340625,1.22540625,0.01915426815718523,0.019639380777654886,True
49402,174032,0,174033,5200.0,43428.0,27865.0,0.000488,-0.000732,0.000366,0.385,-1.7325000000000002,-3.4650000000000003,0.9930625000000001,0.134,0.083,1.24571875,0.9763125,-0.32356250000000003,-0.3866875,1.2386875,0.018811491943254613,0.01925999584814461,True
49403,174033,0,174034,5200.0,43429.0,27866.0,0.000488,0.00061,0.00042699999999999997,0.42000000000000004,-1.8025000000000002,-3.5700000000000003,0.990125,0.11965625,0.10228125,1.2385625,0.96865625,-0.32253125,-0.39290625,1.23503125,0.0181801595999594,0.02030047157664946,True
49404,174034,0,174035,5202.0,43431.0,27870.0,-0.0013419999999999999,0.000305,-0.000976,0.43750000000000006,-1.6800000000000002,-3.5875000000000004,1.0145625,0.12515625,0.0985625,1.241125,0.964875,-0.32521875,-0.3928125,1.2262187500000001,0.018514735864399983,0.020144253558297142,True
49405,174035,0,174036,5205.0,43430.0,27868.0,-0.001647,0.000549,-0.0021349999999999997,0.385,-1.5925000000000002,-3.6575,1.0226875,0.1340625,0.09878125,1.23728125,0.9555,-0.32475,-0.389125,1.230625,0.018861961582338972,0.020005073982768958,True
49406,174036,0,174037,5204.0,43430.0,27868.0,-0.0017079999999999999,-0.0011589999999999999,-0.000488,0.36750000000000005,-1.61,-3.6750000000000003,0.995375,0.12940625,0.08428125,1.2575,0.96409375,-0.3221875,-0.3874375,1.23075,0.01856715190605286,0.019342694368770806,True
49407,174037,0,174038,5206.0,43429.0,27868.0,-0.000122,-0.000122,0.000793,0.35000000000000003,-1.6450000000000002,-3.6225000000000005,0.9853437500000001,0.13346875,0.08334375000000001,1.26165625,0.9735625,-0.32234375,-0.38746875000000003,1.22978125,0.018740484251235038,0.01930550910495785,True
49408,174038,0,174039,5206.0,43428.0,27870.0,0.001281,-0.000549,-6.1e-05,0.2625,-1.8550000000000002,-3.6050000000000004,0.9858750000000001,0.133375,0.08615625,1.26196875,0.9769375,-0.323,-0.38825,1.229,0.018763104880154584,0.019452246471149015,True
49409,174039,0,174040,5208.0,43427.0,27869.0,0.002623,0.00061,0.0006709999999999999,0.31500000000000006,-2.0475000000000003,-3.5700000000000003,0.99021875,0.1350625,0.09396875,1.2535,0.97459375,-0.32406250000000003,-0.387125,1.2277500000000001,0.018875342060973573,0.01972736638697673,True
49410,174040,0,174041,5208.0,43432.0,27871.0,0.001586,0.000549,0.00061,0.28,-1.9250000000000003,-3.5700000000000003,0.994625,0.1345,0.09475,1.2456562500000001,0.97584375,-0.32578125,-0.38725,1.22590625,0.01892154028968751,0.019764426083301725,True
49411,174041,0,174042,5210.0,43431.0,27871.0,0.0006709999999999999,0.000122,6.1e-05,0.43750000000000006,-1.8725000000000003,-3.6225000000000005,1.0061875,0.12928125000000001,0.09303125,1.24778125,0.96940625,-0.32475,-0.38684375,1.2278437500000001,0.018665402522122527,0.01967761818295982,True
49412,174042,0,174043,5212.0,43429.0,27871.0,-0.0008539999999999999,-0.000732,-0.000122,0.385,-1.8200000000000003,-3.6925000000000003,1.0059375,0.13025,0.093375,1.2475625000000001,0.9698125,-0.32256250000000003,-0.38753125,1.22734375,0.01861697343772886,0.019719349411392348,True
49413,174043,0,174044,5211.0,43431.0,27871.0,-0.00183,0.00061,0.000122,0.42000000000000004,-1.6975000000000002,-3.6925000000000003,1.002875,0.133125,0.09228125,1.2443125,0.9741562500000001,-0.32284375,-0.388,1.235,0.01874652300884842,0.019693343037559454,True
49414,174044,0,174045,5212.0,43432.0,27872.0,-0.0023179999999999997,0.00042699999999999997,-0.001464,0.3325,-1.6275000000000002,-3.7975000000000003,0.9977812500000001,0.13184375,0.08921875,1.25340625,0.9711875,-0.323,-0.3911875,1.2253125,0.01870015006372569,0.01969589426509062,True
49415,174045,0,174046,5214.0,43433.0,27873.0,-0.00122,-0.001037,-0.00061,0.42000000000000004,-1.5925000000000002,-3.7975000000000003,0.99890625,0.1305625,0.0926875,1.24884375,0.966125,-0.32440625,-0.39040625,1.23371875,0.01870420783652222,0.01980671191157384,True
49416,174046,0,174047,5215.0,43433.0,27873.0,-0.000549,-0.000976,0.000183,0.35000000000000003,-1.6275000000000002,-3.7275000000000005,0.9991875,0.1315,0.09134375,1.24959375,0.9675625,-0.3188125,-0.38971875,1.22853125,0.018517043132759876,0.019723987182099015,True
49417,174047,0,174048,5216.0,43432.0,27871.0,0.0011589999999999999,-0.0015249999999999999,0.001281,0.3325,-1.8200000000000003,-3.7275000000000005,0.9995625,0.13021875,0.092625,1.248625,0.9685625,-0.32459375,-0.3875,1.22759375,0.01869764011988895,0.019687339825730395,True
49418,174048,0,174049,5217.0,43436.0,27874.0,0.0018909999999999999,-0.000549,0.0006709999999999999,0.36750000000000005,-1.8550000000000002,-3.7975000000000003,0.99871875,0.131625,0.0909375,1.254,0.9613125,-0.32359375,-0.38740625,1.22825,0.01871511071426277,0.01961437576002983,True
49419,174049,0,174050,5219.0,43433.0,27872.0,0.0018909999999999999,0.0015249999999999999,-0.000793,0.385,-2.1525000000000003,-3.8850000000000002,0.99728125,0.13290625,0.0929375,1.24825,0.97771875,-0.32575,-0.3874375,1.22796875,0.018854762956948913,0.019697641459870477,True
49420,174050,0,174051,5218.0,43433.0,27870.0,0.000488,0.000976,6.1e-05,0.22750000000000004,-1.8900000000000001,-3.7800000000000002,0.9989687500000001,0.129125,0.090375,1.24190625,0.96728125,-0.32440625,-0.39075,1.23171875,0.018645110813342053,0.0197257156913994,True
49421,174051,0,174052,5216.0,43431.0,27870.0,0.000305,-0.0008539999999999999,-6.1e-05,0.22750000000000004,-1.9425000000000001,-3.7800000000000002,0.99821875,0.1325,0.0933125,1.24778125,0.9676250000000001,-0.3194375,-0.38734375,1.23521875,0.018583386231692242,0.019709249802984385,True
49422,174052,0,174053,5219.0,43433.0,27871.0,-0.000732,-0.000793,-0.000122,0.1925,-1.8200000000000003,-3.7450000000000006,1.0044375,0.13234375,0.093,1.24865625,0.97596875,-0.319,-0.38756250000000003,1.2275,0.018559305481310913,0.019705228843595993,True
49423,174053,0,174054,5217.0,43431.0,27870.0,-0.001403,0.00042699999999999997,-0.000122,0.29750000000000004,-1.7675,-3.7975000000000003,1.00696875,0.13368750000000001,0.09209375,1.25484375,0.9719375,-0.32346875,-0.387125,1.22846875,0.01879486247207237,0.019650481555328888,True
49424,174054,0,174055,5218.0,43432.0,27870.0,-0.000366,0.0006709999999999999,0.000915,0.24500000000000002,-1.8375000000000001,-3.9200000000000004,0.9951562500000001,0.132875,0.0929375,1.2535625000000001,0.9743125,-0.3225,-0.38746875000000003,1.2317500000000001,0.018722376400452254,0.01969889761519428,True
49425,174055,0,174056,5215.0,43434.0,27869.0,0.000549,0.000122,0.00122,0.28,-1.9075000000000002,-3.9375000000000004,1.00021875,0.13278125,0.0968125,1.25640625,0.9733437500000001,-0.32256250000000003,-0.38778125,1.22946875,0.018721043475579516,0.01987035003440504,True
49426,174056,0,174057,5213.0,43433.0,27870.0,0.000305,-0.000244,0.0,0.24500000000000002,-1.8550000000000002,-3.8500000000000005,1.0049062500000001,0.13234375,0.09309375,1.2485625,0.97328125,-0.322875,-0.3875,1.22759375,0.018715663752743045,0.019706560738083037,True
49427,174057,0,174058,5211.0,43432.0,27868.0,-0.000305,-0.001098,0.0,0.24500000000000002,-1.7675,-3.8675,1.005625,0.13,0.09378125,1.249,0.96909375,-0.32396875,-0.38934375,1.22790625,0.01866343254531603,0.019808856070594356,True
49428,174058,0,174059,5210.0,43433.0,27868.0,0.0,-0.000183,0.0,0.42000000000000004,-1.5925000000000002,-3.8850000000000002,1.00678125,0.1333125,0.09271875,1.2555,0.97190625,-0.32656250000000003,-0.38728125,1.2284375,0.01890423277024857,0.01968239079540693,True
49429,174059,0,174060,5209.0,43433.0,27867.0,-0.000122,-0.000732,-0.000183,0.1925,-1.7325000000000002,-3.9725000000000006,1.00025,0.132375,0.0893125,1.2449375,0.9734375000000001,-0.3224375,-0.3828125,1.2329375,0.01869929771635758,0.01936302467157962,True
49430,174060,0,174061,5208.0,43433.0,27868.0,0.000793,0.0008539999999999999,-0.001952,0.28,-1.7850000000000001,-3.99,0.99790625,0.12946875,0.09503125,1.248,0.9688125,-0.323375,-0.38996875000000003,1.2288125,0.01861763632719555,0.019885224330186975,True
49431,174061,0,174062,5207.0,43432.0,27867.0,0.0015249999999999999,0.00122,-0.001952,0.385,-1.7675,-3.8850000000000002,1.00696875,0.13140625,0.0930625,1.25559375,0.970125,-0.32753125,-0.38721875,1.2295625000000001,0.01886494339617794,0.019693973918202542,True
49432,174062,0,174063,5205.0,43432.0,27868.0,0.000305,0.0011589999999999999,-0.0015249999999999999,0.35000000000000003,-1.7325000000000002,-3.9375000000000004,0.9998125,0.13228125,0.09134375,1.24896875,0.9844375,-0.32303125,-0.39065625,1.2310625,0.018719397895770085,0.019761665904335805,True
49433,174063,0,174064,5203.0,43431.0,27869.0,-0.000183,0.000244,0.0,0.31500000000000006,-1.61,-3.8850000000000002,1.001875,0.13378125,0.09034375,1.25384375,0.9660625,-0.33125,-0.392625,1.2276875,0.01911250963267403,0.019799785795911674,True
49434,174064,0,174065,5205.0,43429.0,27864.0,-0.0011589999999999999,-0.00183,0.001037,0.29750000000000004,-1.5925000000000002,-3.8850000000000002,0.99834375,0.13175,0.09059375,1.2548125,0.96184375,-0.3216875,-0.39121875,1.24253125,0.018643340434334587,0.019753522976378536,True
49435,174065,0,174066,5202.0,43432.0,27865.0,0.000183,0.00042699999999999997,0.0013419999999999999,0.35000000000000003,-1.61,-3.8850000000000002,0.9995937500000001,0.13325,0.09353125,1.24875,0.9646250000000001,-0.3211875,-0.38578125,1.22925,0.018684840121396214,0.019655408825583556,True
49436,174066,0,174067,5203.0,43429.0,27868.0,0.000244,0.0023179999999999997,0.0006709999999999999,0.36750000000000005,-1.715,-3.8325000000000005,1.00459375,0.13075,0.091,1.2494375,0.9825,-0.3273125,-0.38928125,1.2225,0.018829145225145606,0.019692308480800353,True
49437,174067,0,174068,5203.0,43429.0,27865.0,-0.000366,0.001769,0.001403,0.31500000000000006,-1.8025000000000002,-3.7100000000000004,0.9978750000000001,0.13840625,0.0919375,1.2550937500000001,0.9611875,-0.321375,-0.38978125,1.23971875,0.01890441021529416,0.019750843398810725,True
49438,174068,0,174069,5204.0,43430.0,27865.0,0.0,-0.00061,0.0013419999999999999,0.22750000000000004,-1.6975000000000002,-3.7625,1.00253125,0.1325625,0.09309375,1.2476875,0.97184375,-0.321375,-0.3844375,1.2318125,0.018664138026735742,0.019583443333478574,True
49439,174069,0,174070,5202.0,43430.0,27864.0,-0.001037,-0.0017079999999999999,-0.0050019999999999995,0.3325,-1.5925000000000002,-3.7975000000000003,1.0056875,0.12934375,0.09253125,1.2534375,0.98528125,-0.32665625,-0.38875,1.2385,0.01874486963246336,0.019733739941571418,True
49440,174070,0,174071,5203.0,43431.0,27864.0,-0.0015249999999999999,0.001403,-0.00366,0.35000000000000003,-1.61,-3.7625,0.99846875,0.133,0.0935625,1.2490625,0.94740625,-0.320375,-0.384625,1.2158125,0.01864177669957803,0.019610205201023186,True
49441,174071,0,174072,5202.0,43431.0,27865.0,0.000732,0.0015249999999999999,0.0028669999999999998,0.4025,-1.5750000000000002,-3.9025000000000003,0.99865625,0.13096875,0.09,1.25378125,0.96409375,-0.32725,-0.3948125,1.23534375,0.018835616438356167,0.019873589928186577,True
49442,174072,0,174073,5204.0,43432.0,27866.0,0.001464,0.000366,0.004392,0.31500000000000006,-1.6275000000000002,-3.8500000000000005,0.996625,0.132125,0.09215625,1.25478125,0.962375,-0.3209375,-0.38975,1.2403125,0.018628496537191463,0.019758556360766306,True
49443,174073,0,174074,5205.0,43432.0,27867.0,0.000915,-6.1e-05,0.002623,0.29750000000000004,-1.8200000000000003,-3.8500000000000005,1.0050937500000001,0.13265625,0.0934375,1.25440625,0.97384375,-0.322875,-0.38478125,1.232875,0.018728511740491206,0.01961136108202734,True
49444,174074,0,174075,5204.0,43432.0,27868.0,0.000122,0.00061,-0.000366,0.45500000000000007,-1.4700000000000002,-3.7800000000000002,1.005125,0.1303125,0.09025,1.24859375,0.9742500000000001,-0.32525,-0.38671875,1.23096875,0.018727967852334507,0.019558545571039563,True
49445,174075,0,174076,5205.0,43431.0,27871.0,-0.0021349999999999997,-0.000488,-0.0008539999999999999,0.28,-1.2600000000000002,-3.7450000000000006,0.9988125,0.13234375,0.0921875,1.25440625,0.9658125000000001,-0.32278125,-0.3879375,1.2331875,0.018711881479425797,0.019686986650675156,True
49446,174076,0,174077,5204.0,43432.0,27868.0,-0.00183,-0.002196,-0.001037,0.22750000000000004,-1.4175000000000002,-3.6225000000000005,1.0,0.13228125,0.09190625000000001,1.2544375,0.97146875,-0.32284375,-0.38759375,1.234375,0.018711833397359223,0.019661636359675706,True
49447,174077,0,174078,5206.0,43433.0,27867.0,-0.00061,-0.00366,-0.0013419999999999999,0.15750000000000003,-1.6275000000000002,-3.7450000000000006,0.99365625,0.13221875,0.09321875,1.2477500000000001,0.9760625,-0.3175,-0.387125,1.2259375000000001,0.018493625989513724,0.019696612454317596,True
49448,174078,0,174079,5207.0,43432.0,27867.0,0.000915,-0.001952,-0.003172,0.21000000000000002,-1.9600000000000002,-3.9725000000000006,1.0023125,0.129875,0.09403125,1.2491875000000001,0.96740625,-0.326375,-0.38859375,1.2277500000000001,0.018755363263124904,0.019788963847085284,True
49449,174079,0,174080,5208.0,43433.0,27868.0,0.0025009999999999998,0.00244,0.000366,0.24500000000000002,-1.9075000000000002,-4.0075,0.99865625,0.13334375,0.09209375,1.25071875,0.968,-0.32334375,-0.3878125,1.23053125,0.018775687450455904,0.01967811791237939,True
49450,174080,0,174081,5205.0,43433.0,27869.0,0.001037,0.0011589999999999999,0.0023179999999999997,0.29750000000000004,-1.6625,-3.9375000000000004,1.00271875,0.13409375,0.0935,1.2475625000000001,0.97584375,-0.326375,-0.387375,1.22815625,0.018928786142612702,0.01971819435261073,True
49451,174081,0,174082,5207.0,43433.0,27868.0,-0.00061,0.000915,0.003477,0.35000000000000003,-1.4525000000000001,-3.8500000000000005,0.9995937500000001,0.1295625,0.09381250000000001,1.24853125,0.9676250000000001,-0.32646875000000003,-0.38865625,1.22315625,0.018746298720401004,0.01978250646753037,True
49452,174082,0,174083,5208.0,43435.0,27870.0,-0.001769,0.0013419999999999999,0.0023179999999999997,0.28,-1.3475000000000001,-3.8325000000000005,0.99853125,0.1313125,0.09121875,1.24975,0.96865625,-0.318875,-0.386375,1.2354687500000001,0.018511855503184255,0.01958445033343414,True
49453,174083,0,174084,5209.0,43433.0,27870.0,-0.0026839999999999998,0.000915,0.002013,0.385,-1.2600000000000002,-3.6925000000000003,0.99853125,0.13584375,0.0924375,1.25575,0.9724375000000001,-0.32306250000000003,-0.3876875,1.22634375,0.018867124565420168,0.019687188463440825,True
49454,174084,0,174085,5211.0,43435.0,27870.0,-0.0021349999999999997,-0.0011589999999999999,-0.00042699999999999997,0.28,-1.4700000000000002,-3.6225000000000005,1.00803125,0.13065625,0.09503125,1.24865625,0.9754375000000001,-0.32653125,-0.3914375,1.22771875,0.018793780967025456,0.01994424272862147,True
49455,174085,0,174086,5211.0,43434.0,27869.0,0.001403,-0.0030499999999999998,-0.002074,0.21000000000000002,-1.7500000000000002,-3.6400000000000006,0.9977812500000001,0.130625,0.08853125,1.2556875,0.9677187500000001,-0.32259375,-0.38925,1.231,0.018633652095595275,0.019589829535553573,True
49456,174086,0,174087,5210.0,43438.0,27872.0,0.002745,-0.0026839999999999998,-0.002379,0.22750000000000004,-2.0475000000000003,-3.7625,0.9965625,0.133,0.09484375,1.2456562500000001,0.9675,-0.3229375,-0.387,1.229125,0.018745165957031303,0.01975822159347193,True
49457,174087,0,174088,5211.0,43436.0,27869.0,0.0032329999999999998,-0.000183,-0.002623,0.31500000000000006,-2.1875,-3.8500000000000005,0.9996875000000001,0.1335625,0.08725000000000001,1.250875,0.9681875,-0.32309375,-0.38884375,1.2315,0.018774595645342194,0.019520964375361174,True
49458,174088,0,174089,5211.0,43437.0,27871.0,0.002013,0.0013419999999999999,0.000122,0.42000000000000004,-2.1350000000000002,-3.9375000000000004,1.0095,0.1290625,0.09465625,1.24675,0.975375,-0.32465625,-0.39009375,1.23496875,0.018652627413799524,0.019874872354682934,True
49459,174089,0,174090,5211.0,43437.0,27871.0,0.000366,0.001098,0.001403,0.31500000000000006,-1.61,-3.8150000000000004,0.99628125,0.1326875,0.09159375,1.24215625,0.9681875,-0.3228125,-0.38721875,1.2275,0.018727275063276504,0.0196337476982692,True
49460,174090,0,174091,5214.0,43436.0,27873.0,-0.0023179999999999997,-0.000122,0.0018909999999999999,0.385,-1.4175000000000002,-3.7625,1.0085,0.12903125000000001,0.09465625,1.24665625,0.9681875,-0.32725,-0.38946875000000003,1.23084375,0.01875597323988531,0.01984975585005311,True
49461,174091,0,174092,5213.0,43436.0,27873.0,-0.0042699999999999995,0.000793,0.00183,0.385,-1.225,-3.7450000000000006,0.9955625,0.133,0.09384375,1.2459375,0.967,-0.3239375,-0.38575,1.2285,0.01878550707507779,0.019666967388741373,True
49462,174092,0,174093,5212.0,43437.0,27876.0,-0.004026,0.0015249999999999999,0.002257,0.385,-1.225,-3.6925000000000003,1.0003125,0.13128125000000002,0.0995625,1.26171875,0.96825,-0.32309375,-0.38775,1.22990625,0.018680806178284784,0.019981855644739675,True
49463,174093,0,174094,5213.0,43437.0,27873.0,0.000183,-0.000549,0.000305,0.35000000000000003,-1.6625,-3.7625,1.0064375,0.12625,0.09103125000000001,1.2481875,0.9720625,-0.325875,-0.38871875,1.23271875,0.01858617624237566,0.019670980050971315,True
49464,174094,0,174095,5213.0,43437.0,27872.0,0.002013,-0.0015249999999999999,-0.001769,0.24500000000000002,-1.8725000000000003,-3.6925000000000003,0.9955,0.13296875,0.09384375,1.2511875000000001,0.972875,-0.3233125,-0.38734375,1.22840625,0.01875900948935306,0.01973103364321914,True
49465,174095,0,174096,5213.0,43437.0,27873.0,0.0028669999999999998,-0.000793,-0.002562,0.2625,-1.995,-3.8850000000000002,1.0045,0.12846875,0.09278125,1.24075,0.96821875,-0.3251875,-0.38915625,1.2306875,0.018649650696423204,0.019760318686711433,True
49466,174096,0,174097,5214.0,43438.0,27874.0,0.002928,-0.001403,-0.002562,0.35000000000000003,-1.9600000000000002,-3.8850000000000002,0.9958750000000001,0.1335625,0.0923125,1.25465625,0.96828125,-0.32296875,-0.38403125,1.227375,0.01876955295598939,0.019535069698534774,True
49467,174097,0,174098,5216.0,43438.0,27874.0,0.0030499999999999998,-0.0008539999999999999,-0.0013419999999999999,0.4025,-1.8725000000000003,-3.8850000000000002,1.00365625,0.13096875,0.09396875,1.24815625,0.96959375,-0.32315625000000003,-0.38878125,1.2305625,0.01867047990533712,0.019793937017660527,True
49468,174098,0,174099,5217.0,43438.0,27875.0,-0.000976,0.00061,0.000366,0.4025,-1.5225000000000002,-3.7100000000000004,0.998625,0.132625,0.09028125000000001,1.25465625,0.968,-0.3231875,-0.38803125,1.23059375,0.018739834160304853,0.01961259172980599,True
49469,174099,0,174100,5216.0,43438.0,27875.0,-0.0017079999999999999,0.0008539999999999999,0.0011589999999999999,0.42000000000000004,-1.3650000000000002,-3.8675,0.99903125,0.13221875,0.0929375,1.254875,0.97359375,-0.32284375,-0.38756250000000003,1.22809375,0.01870926379650817,0.019702666061850175,True
49470,174100,0,174101,5218.0,43440.0,27876.0,-0.0023179999999999997,0.001586,0.000976,0.3325,-1.3125000000000002,-3.7625,1.00596875,0.1328125,0.09315625,1.24646875,0.978,-0.32540625,-0.38665625000000003,1.2279375000000001,0.018837044088420928,0.019675206599920808,True
49471,174101,0,174102,5218.0,43439.0,27876.0,-0.0032329999999999998,0.000915,0.002379,0.3325,-1.2775,-3.6750000000000003,1.00021875,0.133125,0.09125,1.24840625,0.9684375000000001,-0.333125,-0.39125,1.22340625,0.01916112295481982,0.01978168400553477,True
49472,174102,0,174103,5218.0,43439.0,27877.0,-0.002562,0.000183,0.001037,0.4025,-1.3475000000000001,-3.6050000000000004,0.99259375,0.1310625,0.0924375,1.2483125,0.9631875,-0.33025,-0.39228125,1.21590625,0.01896045046803876,0.01987180883296842,True
49473,174103,0,174104,5218.0,43437.0,27878.0,0.001403,-0.000366,-0.0006709999999999999,0.385,-1.8550000000000002,-3.7450000000000006,0.99853125,0.1325,0.0925625,1.24828125,0.954125,-0.32378125,-0.3924375,1.2376875,0.01875864797953649,0.019883211753642906,True
49474,174104,0,174105,5220.0,43440.0,27877.0,0.00244,0.000183,-0.000183,0.31500000000000006,-1.9425000000000001,-3.7100000000000004,1.00078125,0.129125,0.09075,1.2556875,0.97765625,-0.32515625,-0.3938125,1.24,0.01867536822091328,0.019864156125656864,True
49475,174105,0,174106,5221.0,43439.0,27877.0,0.002928,-0.000488,-0.000976,0.2625,-1.9250000000000003,-3.6400000000000006,1.00334375,0.13671875,0.09315625,1.2493750000000001,0.9616250000000001,-0.3185,-0.3816875,1.21725,0.018719030779036534,0.01947542597287411,True
49476,174106,0,174107,5221.0,43438.0,27876.0,0.0028669999999999998,-0.001098,-0.00061,0.2625,-1.9250000000000003,-3.7625,0.999,0.13021875,0.0901875,1.2476562500000001,0.9599062500000001,-0.32453125,-0.3883125,1.20503125,0.01869511873944128,0.01962005366299944,True
49477,174107,0,174108,5223.0,43442.0,27878.0,0.001647,-0.0008539999999999999,-0.00061,0.2625,-1.6975000000000002,-3.6750000000000003,0.99834375,0.13175,0.09165625000000001,1.2548125,0.95465625,-0.32653125,-0.3963125,1.23303125,0.018838742165511162,0.020001742066552065,True
49478,174108,0,174109,5222.0,43442.0,27878.0,-0.001769,0.001647,0.000244,0.4025,-1.3650000000000002,-3.5875000000000004,0.99440625,0.1325,0.09265625,1.2385,0.970375,-0.31934375,-0.3855,1.22334375,0.018579602913832736,0.01960822004879949,True
49479,174109,0,174110,5225.0,43442.0,27879.0,-0.002745,0.000366,-0.000305,0.45500000000000007,-1.2425000000000002,-3.6575,1.00209375,0.13103125000000002,0.09371875,1.24878125,0.9914375,-0.32778125,-0.38115625000000003,1.218375,0.018859611375369466,0.019477132057672614,True
49480,174110,0,174111,5225.0,43440.0,27880.0,-0.003477,0.000366,0.001647,0.36750000000000005,-1.3475000000000001,-3.6750000000000003,1.004875,0.13059375,0.0926875,1.2478125,0.9775625,-0.33409375,-0.38190625,1.21928125,0.01909614982066057,0.019464997737820438,True
49481,174111,0,174112,5226.0,43443.0,27881.0,-0.001281,-0.00042699999999999997,0.000122,0.35000000000000003,-1.5225000000000002,-3.6925000000000003,0.99903125,0.13046875,0.093125,1.2488125,0.96840625,-0.3301875,-0.38359375,1.219125,0.01893352650899217,0.019550799397648266,True
49482,174112,0,174113,5226.0,43442.0,27880.0,-0.000244,0.000488,-0.000366,0.31500000000000006,-1.7675,-3.7800000000000002,1.0049375,0.1291875,0.09365625,1.24934375,0.97684375,-0.33015625,-0.3871875,1.21896875,0.018879605427934723,0.01971706454465075,True
49483,174113,0,174114,5228.0,43441.0,27877.0,0.002989,-0.0011589999999999999,-0.001281,0.22750000000000004,-1.8375000000000001,-3.6750000000000003,1.00384375,0.13518750000000002,0.0931875,1.24984375,0.97271875,-0.3226875,-0.387625,1.22434375,0.018825016766753265,0.019715429444236574,True
49484,174114,0,174115,5230.0,43443.0,27879.0,0.0011589999999999999,-0.002013,-0.005429,0.2625,-1.8375000000000001,-3.8150000000000004,1.005625,0.13075,0.09325,1.2494687500000001,0.9635,-0.326125,-0.38959375,1.218375,0.018781248554794485,0.019797121467019105,True
49485,174115,0,174116,5229.0,43444.0,27879.0,6.1e-05,0.002196,-0.005612,0.47250000000000003,-1.9250000000000003,-3.7800000000000002,0.99925,0.13153125000000002,0.0914375,1.24046875,0.96859375,-0.32371875,-0.39096875000000003,1.2356562500000001,0.018716299291201104,0.019778068470527644,True
49486,174116,0,174117,5230.0,43444.0,27881.0,0.000976,0.002623,0.002928,0.31500000000000006,-1.61,-3.6925000000000003,0.99909375,0.13209375,0.0906875,1.2516562500000001,0.96809375,-0.323875,-0.38790625,1.22790625,0.018745728219701836,0.0196242246092774,True
49487,174117,0,174118,5231.0,43442.0,27881.0,0.002196,-0.000976,0.006039,0.35000000000000003,-1.5750000000000002,-3.7275000000000005,0.99853125,0.1316875,0.092,1.24846875,0.9701875,-0.32306250000000003,-0.38828125,1.23434375,0.018696247645624397,0.019693115930422528,True
49488,174118,0,174119,5232.0,43444.0,27882.0,-0.001647,0.000732,-0.000122,0.28,-1.5575,-3.8675,0.9988750000000001,0.13096875,0.0936875,1.24834375,0.96809375,-0.3225,-0.389125,1.2218125,0.01864400246685168,0.01979622065162239,True
49489,174119,0,174120,5234.0,43443.0,27882.0,-0.002745,0.001281,-0.00061,0.2625,-1.2600000000000002,-3.7100000000000004,1.00215625,0.12990625,0.09275,1.2474375,0.96796875,-0.32315625000000003,-0.3838125,1.22834375,0.018626797252104157,0.019544216065473765,True
49490,174120,0,174121,5235.0,43445.0,27880.0,-0.002928,0.00061,-0.001952,0.36750000000000005,-1.2075,-3.7275000000000005,0.99559375,0.13246875,0.0923125,1.25259375,0.9604375,-0.32571875,-0.38756250000000003,1.23409375,0.01883551745002396,0.019677038244391994,True
49491,174121,0,174122,5236.0,43445.0,27882.0,-0.0028669999999999998,-6.1e-05,-0.000915,0.35000000000000003,-1.2950000000000002,-3.6925000000000003,0.9990625000000001,0.131,0.09321875,1.2399375000000001,0.9735625,-0.32303125,-0.3883125,1.228625,0.018666721484395576,0.01974434475530031,True
49492,174122,0,174123,5238.0,43445.0,27881.0,0.000488,-0.002989,-0.000183,0.1925,-1.6275000000000002,-3.7625,1.00603125,0.132875,0.09378125,1.2569062500000001,0.95884375,-0.32121875,-0.3873125,1.227875,0.018670682364550502,0.019727214714618514,True
49493,174123,0,174124,5236.0,43446.0,27883.0,0.005063,-0.001037,-0.001403,0.1925,-2.1175,-3.9025000000000003,1.0010937500000001,0.13325,0.09275,1.26465625,0.97446875,-0.32678125,-0.38884375,1.2276562500000001,0.018910485742950477,0.01974647732121372,True
49494,174124,0,174125,5238.0,43445.0,27883.0,0.005246,0.0013419999999999999,-0.000915,0.2625,-2.0125,-3.9375000000000004,0.9969375,0.12975,0.0895625,1.24434375,0.9738125,-0.32303125,-0.38753125,1.2341875,0.0186153298635424,0.01956301952457775,True
49495,174125,0,174126,5241.0,43446.0,27882.0,0.002989,0.0023179999999999997,0.00042699999999999997,0.3325,-1.8375000000000001,-3.8150000000000004,1.01303125,0.1345,0.09615625,1.25778125,0.9683437500000001,-0.32528125,-0.383,1.2278437500000001,0.018901374470233517,0.019651242669072717,True
49496,174126,0,174127,5241.0,43444.0,27883.0,-0.00042699999999999997,0.0034159999999999998,0.000244,0.43750000000000006,-1.6275000000000002,-3.6575,0.9919687500000001,0.13493750000000002,0.09315625,1.2433750000000001,0.96896875,-0.3223125,-0.38815625,1.233,0.018799610440002366,0.01973550173560168,True
49497,174127,0,174128,5242.0,43447.0,27886.0,-0.0030499999999999998,0.003111,0.000244,0.42000000000000004,-1.4175000000000002,-3.5875000000000004,0.99165625,0.12396875,0.0921875,1.243125,0.9730625,-0.3234375,-0.38803125,1.23390625,0.01839403867154879,0.01969075507068657,True
49498,174128,0,174129,5243.0,43445.0,27885.0,-0.004941,-0.0025009999999999998,0.000305,0.35000000000000003,-1.1375000000000002,-3.5700000000000003,0.99409375,0.12796875,0.08603125,1.242625,0.9688125,-0.32340625,-0.38325000000000004,1.2333125,0.018557228184272093,0.01924605005485323,True
49499,174129,0,174130,5244.0,43447.0,27884.0,-0.003721,-0.0037819999999999998,0.002074,0.31500000000000006,-1.2950000000000002,-3.5175000000000005,0.9899375,0.1305625,0.095625,1.246875,0.968,-0.3235,-0.38978125,1.228,0.018667646514687445,0.019902033766703017,True
49500,174130,0,174131,5243.0,43448.0,27884.0,-0.000183,-0.0018909999999999999,0.002196,0.31500000000000006,-1.4700000000000002,-3.5700000000000003,1.0158125,0.12903125000000001,0.09518750000000001,1.25046875,0.9683125,-0.32378125,-0.3866875,1.22790625,0.018616040628962657,0.01975975621945375,True
49501,174131,0,174132,5246.0,43450.0,27884.0,0.0028669999999999998,-0.001098,0.0011589999999999999,0.2625,-1.7325000000000002,-3.6225000000000005,1.0149062500000001,0.13453125,0.09418750000000001,1.24840625,0.968,-0.325125,-0.3889375,1.2181875,0.018896357161576765,0.019809186029526707,True
49502,174132,0,174133,5247.0,43449.0,27888.0,0.0037819999999999998,0.00061,-0.0023179999999999997,0.2625,-2.0300000000000002,-3.6575,1.0163125,0.134,0.09518750000000001,1.24984375,0.9680625,-0.32615625,-0.39006250000000003,1.228,0.018916110102680114,0.01989539797202242,True
49503,174133,0,174134,5248.0,43449.0,27887.0,0.001464,0.001098,-0.002196,0.3325,-1.7325000000000002,-3.6750000000000003,1.0072812500000001,0.13390625,0.09171875,1.2593750000000001,0.97275,-0.32578125,-0.38775,1.227125,0.018897132029418378,0.01966022900841611,True
49504,174134,0,174135,5247.0,43450.0,27885.0,-6.1e-05,-0.000305,-0.000732,0.28,-1.5225000000000002,-3.7800000000000002,0.99484375,0.13271875,0.09284375,1.24990625,0.9760625,-0.32256250000000003,-0.38784375,1.23240625,0.018718473845015304,0.019710127099694906,True
49505,174135,0,174136,5246.0,43450.0,27885.0,-0.0028669999999999998,-0.000305,0.000915,0.2625,-1.1900000000000002,-3.7625,0.99434375,0.13084375,0.09284375,1.252125,0.96315625,-0.32346875,-0.38759375,1.2335,0.018677948637568397,0.019700078036604163,True
49506,174136,0,174137,5246.0,43449.0,27884.0,-0.003172,-0.000976,0.001403,0.22750000000000004,-1.155,-3.6575,0.99640625,0.13225,0.09209375,1.2549375,0.97621875,-0.32303125,-0.38806250000000003,1.22721875,0.018718113105248752,0.019688167110445944,True
49507,174137,0,174138,5243.0,43449.0,27884.0,-0.00366,0.000549,0.001403,0.3325,-1.2075,-3.7450000000000006,1.00059375,0.13165625,0.0888125,1.2546875,0.97728125,-0.32306250000000003,-0.38775,1.234625,0.018694962856753754,0.019541060573443635,True
49508,174138,0,174139,5244.0,43450.0,27883.0,0.00061,0.001464,0.002257,0.36750000000000005,-1.6800000000000002,-3.8150000000000004,0.9983125,0.12965625,0.09025,1.25240625,0.9745,-0.3231875,-0.38859375,1.233625,0.018617779844849695,0.01963392210754259,True
49509,174139,0,174140,5241.0,43448.0,27883.0,0.002074,0.0,0.001464,0.22750000000000004,-1.8200000000000003,-3.8325000000000005,0.99965625,0.13209375,0.09315625,1.25446875,0.97521875,-0.3225,-0.3876875,1.22746875,0.018690255935861856,0.019716660302457955,True
49510,174140,0,174141,5239.0,43447.0,27881.0,0.002379,-0.002074,0.000183,0.29750000000000004,-1.8550000000000002,-3.7975000000000003,1.00559375,0.13165625,0.09309375,1.249,0.96825,-0.325375,-0.3908125,1.22846875,0.01878825095193805,0.019839693737139754,True
49511,174141,0,174142,5237.0,43448.0,27884.0,0.0025009999999999998,-0.0015249999999999999,-0.00183,0.2625,-1.8200000000000003,-3.8325000000000005,1.00084375,0.12809375,0.09040625000000001,1.247875,0.968375,-0.32446875000000003,-0.39028125,1.23621875,0.018605236753628997,0.019708157321884103,True
49512,174142,0,174143,5235.0,43446.0,27882.0,0.0021349999999999997,-0.00061,-0.0025009999999999998,0.24500000000000002,-1.7500000000000002,-3.7450000000000006,0.99840625,0.1301875,0.09,1.24996875,0.9676250000000001,-0.32290625,-0.38809375,1.233375,0.018628273502472592,0.019603571927387722,True
49513,174143,0,174144,5236.0,43449.0,27880.0,-0.0011589999999999999,-0.000915,-0.000976,0.24500000000000002,-1.6275000000000002,-3.9025000000000003,0.9984375,0.132125,0.089375,1.24859375,0.9686250000000001,-0.32306250000000003,-0.38196875,1.2353750000000001,0.018714234689813425,0.019331652617264553,True
49514,174144,0,174145,5231.0,43447.0,27882.0,-0.000732,0.0,-0.000793,0.24500000000000002,-1.5225000000000002,-3.9200000000000004,0.9985625,0.13153125000000002,0.0901875,1.2485,0.9719375,-0.32303125,-0.38896875000000003,1.2346875,0.018688562923258177,0.01964643339009568,True
49515,174145,0,174146,5230.0,43446.0,27882.0,-0.002013,0.00183,-0.0008539999999999999,0.35000000000000003,-1.4175000000000002,-3.8500000000000005,0.9985937500000001,0.1280625,0.0900625,1.24803125,0.9670625,-0.323125,-0.39246875000000003,1.232875,0.018549734049387156,0.019781976762807168,True
49516,174146,0,174147,5230.0,43446.0,27881.0,-0.001403,0.001403,-0.00042699999999999997,0.42000000000000004,-1.4525000000000001,-3.8850000000000002,1.005125,0.1290625,0.0928125,1.24240625,0.96859375,-0.326875,-0.3889375,1.227875,0.018742131901446444,0.019752808009779025,True
49517,174147,0,174148,5229.0,43445.0,27881.0,-0.00183,0.00061,0.000549,0.4025,-1.3475000000000001,-3.9025000000000003,1.005125,0.13228125,0.09253125,1.2543125,0.96846875,-0.32656250000000003,-0.38721875,1.22715625,0.01886184083756182,0.01967218996631176,True
49518,174148,0,174149,5229.0,43445.0,27881.0,-6.1e-05,-0.001647,0.000976,0.1925,-1.5575,-3.7625,1.004375,0.13303125,0.09290625,1.24671875,0.9765625,-0.323625,-0.38809375,1.2276875,0.018774185591169078,0.019722738682681994,True
49519,174149,0,174150,5227.0,43444.0,27882.0,0.0006709999999999999,0.000183,0.0008539999999999999,0.22750000000000004,-1.5925000000000002,-3.8325000000000005,1.00721875,0.1315,0.0928125,1.2360625,0.97021875,-0.32540625,-0.388125,1.22796875,0.01878308815500255,0.01972015068809103,True
49520,174150,0,174151,5227.0,43445.0,27880.0,0.0013419999999999999,0.00122,0.0,0.3325,-1.8025000000000002,-3.8150000000000004,1.00559375,0.12978125000000001,0.09321875,1.2489375,0.9681875,-0.32478125,-0.39025,1.22746875,0.018687218410237502,0.01982221379444655,True
49521,174151,0,174152,5225.0,43447.0,27881.0,0.0017079999999999999,0.0011589999999999999,-0.000122,0.28,-1.8550000000000002,-3.7800000000000002,1.002125,0.129,0.09165625000000001,1.249,0.96728125,-0.32415625,-0.38946875000000003,1.234125,0.018629885671779468,0.019726751940835122,True
49522,174152,0,174153,5225.0,43447.0,27881.0,0.000366,-0.000793,-0.001098,0.28,-1.8200000000000003,-3.8150000000000004,0.99871875,0.12990625,0.09228125,1.24934375,0.96715625,-0.323875,-0.38946875000000003,1.234125,0.01865579600289839,0.019752377755255537,True
49523,174153,0,174154,5226.0,43447.0,27881.0,-0.000549,-0.0013419999999999999,-0.00042699999999999997,0.21000000000000002,-1.5925000000000002,-3.7625,0.9988750000000001,0.1323125,0.091625,1.2525625,0.9713437500000001,-0.319875,-0.387625,1.22796875,0.018593331585791458,0.019651360064786957,True
49524,174154,0,174155,5224.0,43447.0,27881.0,-0.001586,-0.001098,0.00061,0.31500000000000006,-1.5750000000000002,-3.8500000000000005,0.99303125,0.13753125,0.0929375,1.24878125,0.97359375,-0.324625,-0.38903125,1.22821875,0.018999522089240842,0.01976170127708537,True
49525,174155,0,174156,5224.0,43447.0,27883.0,-0.00122,-0.0006709999999999999,0.000488,0.29750000000000004,-1.6800000000000002,-3.7800000000000002,0.9987812500000001,0.1315,0.0920625,1.2483125,0.96859375,-0.32356250000000003,-0.390625,1.23421875,0.018708710946433116,0.019789878283151825,True
49526,174156,0,174157,5225.0,43448.0,27883.0,-0.000793,0.000488,0.0011589999999999999,0.29750000000000004,-1.6275000000000002,-3.7450000000000006,0.999,0.13253125,0.0911875,1.24834375,0.9676250000000001,-0.32359375,-0.3913125,1.22596875,0.018752368777742803,0.01978163331719029,True
49527,174157,0,174158,5223.0,43447.0,27881.0,0.0011589999999999999,0.000244,-0.000732,0.31500000000000006,-1.4525000000000001,-3.8675,0.99990625,0.1328125,0.09246875,1.24884375,0.9648125000000001,-0.328625,-0.39265625,1.2269375,0.018966854888017717,0.019888157936879054,True
49528,174158,0,174159,5222.0,43448.0,27882.0,0.000183,0.00042699999999999997,-0.0015249999999999999,0.385,-1.4525000000000001,-3.6750000000000003,0.99853125,0.1320625,0.09518750000000001,1.24078125,0.96625,-0.3244375,-0.392,1.2259375000000001,0.018767134902913995,0.019973249426041326,True
49529,174159,0,174160,5223.0,43448.0,27883.0,-0.000183,0.000976,-0.001037,0.42000000000000004,-1.3650000000000002,-3.6750000000000003,0.999625,0.13015625,0.08984375,1.2490937500000001,0.96303125,-0.32396875,-0.38596875,1.236125,0.018669856250329214,0.01951173254086943,True
49530,174160,0,174161,5225.0,43448.0,27882.0,-0.000244,6.1e-05,-0.000244,0.31500000000000006,-1.3825,-3.7625,0.999125,0.13221875,0.09078125000000001,1.248125,0.96525,-0.32271875,-0.388125,1.23903125,0.018704220719569023,0.019636862202403835,True
49531,174161,0,174162,5223.0,43448.0,27884.0,-0.000915,0.0006709999999999999,-6.1e-05,0.2625,-1.4700000000000002,-3.7275000000000005,0.9899375,0.13471875,0.08759375,1.270125,0.97409375,-0.32190625,-0.38596875,1.22253125,0.018774227451847036,0.019419466368339376,True
49532,174162,0,174163,5224.0,43446.0,27882.0,0.000244,-0.000549,0.000488,0.24500000000000002,-1.5575,-3.6750000000000003,1.023625,0.12934375,0.09903125,1.23853125,0.96703125,-0.326375,-0.3923125,1.2395625000000001,0.01873352482644866,0.020143385339130928,True
49533,174163,0,174164,5225.0,43445.0,27883.0,0.001098,-0.001037,0.0011589999999999999,0.24500000000000002,-1.61,-3.7625,0.98775,0.13396875,0.08865625,1.25875,0.9655625,-0.32278125,-0.387125,1.23271875,0.018778691273227646,0.019509526030641166,True
49534,174164,0,174165,5226.0,43447.0,27882.0,0.000549,-0.000305,0.0011589999999999999,0.24500000000000002,-1.61,-3.7975000000000003,0.983375,0.13493750000000002,0.08959375,1.25634375,0.98090625,-0.325125,-0.38328125,1.225125,0.0189130580007297,0.019393411212857172,True
49535,174165,0,174166,5225.0,43448.0,27883.0,0.000244,-0.000549,0.000244,0.2625,-1.54,-3.7450000000000006,1.01959375,0.12612500000000001,0.098625,1.227,0.96625,-0.32853125,-0.39315625,1.227375,0.01868819146244186,0.020160623945497006,True
49536,174166,0,174167,5224.0,43448.0,27880.0,-0.000976,0.00042699999999999997,0.0011589999999999999,0.29750000000000004,-1.5925000000000002,-3.7100000000000004,0.98690625,0.13265625,0.09796875000000001,1.24875,0.95784375,-0.3229375,-0.386375,1.2260625,0.01873103320682381,0.01986124423986755,True
