frame_seq,absolute_seq_u64,segment_id,sample_seq,PPG_G,PPG_R,PPG_IR,ACC_X,ACC_Y,ACC_Z,GYRO_X,GYRO_Y,GYRO_Z,Uh1,Uh2,Uh3,Uh4,Uc1,Uc2,Uc3,Uc4,UD1,UD2,parser_valid
3118,193284,0,193285,5030.0,42977.0,27788.0,-0.000915,0.000366,-0.000305,0.3325,-1.4175000000000002,-3.9550000000000005,0.99240625,0.14340625,0.06646875000000001,1.2458125,0.95353125,-0.32325,-0.41121875,1.21675,0.01918560430863474,0.019568359322493886,True
3119,193285,0,193286,5030.0,42975.0,27789.0,-0.0011589999999999999,0.000305,0.000244,0.42000000000000004,-1.4175000000000002,-3.9725000000000006,0.99715625,0.14575,0.06265625,1.24578125,0.9573125,-0.32134375,-0.41350000000000003,1.2335625000000001,0.019205096346701648,0.019503809367767837,True
3120,193286,0,193287,5031.0,42978.0,27790.0,-0.000732,0.000549,0.000122,0.29750000000000004,-1.4000000000000001,-3.9375000000000004,0.99665625,0.14300000000000002,0.0621875,1.25403125,0.97784375,-0.33071875,-0.4231875,1.2450625,0.01946998585892577,0.01987353206865402,True
3121,193287,0,193288,5030.0,42978.0,27789.0,6.1e-05,0.000244,0.000244,0.3325,-1.5750000000000002,-3.8675,0.99615625,0.14084375,0.06015625,1.2454687500000001,0.98790625,-0.33534375,-0.418125,1.23553125,0.019567732631678974,0.019587140699787557,True
3122,193288,0,193289,5032.0,42975.0,27790.0,0.0006709999999999999,-0.000183,0.0,0.29750000000000004,-1.6275000000000002,-3.8325000000000005,1.00225,0.14625,0.06378125,1.24540625,0.96790625,-0.32190625,-0.41184375,1.21796875,0.019248337082953766,0.019483370648724557,True
3123,193289,0,193290,5031.0,42976.0,27790.0,6.1e-05,-0.001098,0.000549,0.31500000000000006,-1.6275000000000002,-3.9025000000000003,0.988125,0.14253125,0.066125,1.2464375,0.9626875,-0.3258125,-0.41581250000000003,1.2094375,0.019252954038020312,0.019738745126749314,True
3124,193290,0,193291,5034.0,42978.0,27790.0,-0.000122,-0.000549,0.000305,0.21000000000000002,-1.6450000000000002,-3.9025000000000003,1.00321875,0.1391875,0.0605,1.246125,0.98303125,-0.3358125,-0.41503125,1.23071875,0.019518559324863304,0.019476987153149765,True
3125,193291,0,193292,5034.0,42979.0,27791.0,0.000366,0.000244,-0.000183,0.28,-1.9075000000000002,-3.9550000000000005,0.997125,0.14340625,0.06496875,1.23696875,0.95465625,-0.32156250000000003,-0.40640625,1.21546875,0.019117552583227334,0.019313576737664935,True
3126,193292,0,193293,5034.0,42979.0,27790.0,0.00061,0.000122,0.000366,0.28,-1.8550000000000002,-3.9375000000000004,0.99721875,0.14378125,0.067125,1.24440625,0.9529062500000001,-0.3224375,-0.4120625,1.21553125,0.019168257704434435,0.019629128018167248,True
3127,193293,0,193294,5034.0,42980.0,27790.0,0.0017079999999999999,0.000488,0.000305,0.28,-1.7325000000000002,-3.9025000000000003,0.99715625,0.140875,0.0610625,1.2535,0.9591875,-0.32771875,-0.42231250000000004,1.2425625,0.019261721775700815,0.019792351768490393,True
3128,193294,0,193295,5032.0,42978.0,27792.0,0.0030499999999999998,-0.000549,0.000183,0.35000000000000003,-1.7325000000000002,-3.7625,1.0049062500000001,0.14175000000000001,0.06396875,1.24675,0.97871875,-0.32890625,-0.41240625000000003,1.222625,0.01934555730387592,0.019513643805595775,True
3129,193295,0,193296,5035.0,42978.0,27791.0,0.00061,0.00042699999999999997,-0.000244,0.385,-1.7675,-3.7450000000000006,0.9970625000000001,0.14646875,0.06184375,1.25225,0.95440625,-0.32109375,-0.414625,1.232375,0.019224567151713726,0.01951571035803335,True
3130,193296,0,193297,5035.0,42983.0,27791.0,-0.0021349999999999997,-0.001037,-0.001464,0.36750000000000005,-1.61,-3.8325000000000005,0.9973125,0.14403125,0.06353125,1.24678125,0.9745312500000001,-0.32825,-0.415625,1.22590625,0.019412873922291983,0.019624984001023936,True
3131,193297,0,193298,5036.0,42983.0,27793.0,-0.002013,-0.0006709999999999999,-0.001586,0.31500000000000006,-1.4875,-3.8150000000000004,0.99790625,0.14203125,0.06103125,1.2457500000000001,0.9665,-0.32259375,-0.41928125,1.227875,0.0191026090710412,0.019669395470024324,True
3132,193298,0,193299,5036.0,42981.0,27793.0,-0.00122,0.000122,0.000793,0.42000000000000004,-1.3475000000000001,-3.7800000000000002,1.0006875,0.142125,0.06331250000000001,1.24590625,0.966375,-0.32271875,-0.41734375,1.2248125,0.019111504547574477,0.01968503433138586,True
3133,193299,0,193300,5037.0,42980.0,27792.0,-0.000976,0.000366,0.00122,0.385,-1.4875,-3.7450000000000006,1.0021875,0.14378125,0.064125,1.2505625,0.9660625,-0.32909375,-0.41575,1.22590625,0.01943660560722695,0.019654321493298384,True
3134,193300,0,193301,5037.0,42983.0,27792.0,-0.000183,0.000183,-0.000122,0.36750000000000005,-1.61,-3.8500000000000005,1.001875,0.14340625,0.06368750000000001,1.2506875,0.96859375,-0.32353125,-0.41640625000000003,1.225375,0.01919694534484996,0.019662752375771926,True
3135,193301,0,193302,5038.0,42982.0,27791.0,0.000793,0.000305,0.001037,0.24500000000000002,-1.5750000000000002,-3.8150000000000004,1.0011875000000001,0.14540625000000001,0.06284375,1.249875,0.9733125,-0.32934375,-0.41596875,1.22528125,0.019513473313475627,0.01961062880210313,True
3136,193302,0,193303,5039.0,42983.0,27792.0,0.000915,-0.000976,0.000915,0.21000000000000002,-1.5925000000000002,-3.8675,1.0030625,0.14428125,0.06340625,1.2530000000000001,0.9696250000000001,-0.33087500000000003,-0.4154375,1.2248125,0.01952894213627747,0.0196123354332684,True
3137,193303,0,193304,5039.0,42984.0,27794.0,0.000488,-6.1e-05,-0.000244,0.31500000000000006,-1.6800000000000002,-3.7975000000000003,1.00209375,0.14350000000000002,0.06293750000000001,1.2438125,0.97346875,-0.328625,-0.41559375,1.225625,0.01940615221780927,0.01959941072495933,True
3138,193304,0,193305,5041.0,42987.0,27793.0,0.0006709999999999999,0.0013419999999999999,-0.000976,0.3325,-1.8025000000000002,-3.8150000000000004,0.9984375,0.14209375,0.059000000000000004,1.2368125,0.9716875,-0.326125,-0.4165,1.231375,0.01924756820085402,0.01947453566235947,True
3139,193305,0,193306,5040.0,42986.0,27796.0,0.0013419999999999999,0.000122,-0.001586,0.45500000000000007,-1.5925000000000002,-3.6400000000000006,0.9913125,0.13478125,0.06153125,1.24071875,0.9707187500000001,-0.32625,-0.416875,1.2320625,0.018952006577257076,0.019593262856118975,True
3140,193306,0,193307,5041.0,42983.0,27795.0,-0.0017079999999999999,-0.001098,0.000244,0.31500000000000006,-1.5050000000000001,-3.5525,0.9783437500000001,0.14225000000000002,0.05878125,1.260875,0.97165625,-0.32665625,-0.41653125,1.2236875,0.01927540904845893,0.019466831513997307,True
3141,193307,0,193308,5043.0,42983.0,27793.0,-0.001952,-0.00061,0.000488,0.3325,-1.3125000000000002,-3.6925000000000003,1.00765625,0.1466875,0.06696875000000001,1.24078125,0.968375,-0.32746875000000003,-0.41728125,1.23178125,0.01949057071545925,0.019832265314140986,True
3142,193308,0,193309,5043.0,42983.0,27792.0,-0.002562,-0.001037,0.002928,0.385,-1.0850000000000002,-3.6050000000000004,0.9975937500000001,0.1371875,0.06015625,1.2415,0.965875,-0.3266875,-0.41703125,1.22271875,0.01906856410269586,0.01954322354401705,True
3143,193309,0,193310,5044.0,42983.0,27794.0,-0.0026839999999999998,0.000488,0.000976,0.43750000000000006,-1.2425000000000002,-3.6575,0.98965625,0.14178125,0.0580625,1.2539375,0.9673125,-0.3264375,-0.41078125,1.22728125,0.019247320944548497,0.019206421343028503,True
3144,193310,0,193311,5043.0,42985.0,27793.0,0.000183,-0.0008539999999999999,-0.000549,0.28,-1.5925000000000002,-3.7275000000000005,0.99159375,0.14250000000000002,0.05703125,1.2413125,0.973,-0.326375,-0.41384375,1.23159375,0.019274347287666166,0.019287212813426807,True
3145,193311,0,193312,5044.0,42985.0,27794.0,0.001586,-0.000244,-0.000976,0.15750000000000003,-1.6800000000000002,-3.8675,0.99203125,0.137625,0.0576875,1.24371875,0.9712500000000001,-0.32640625,-0.41503125,1.23115625,0.019075207625458446,0.01936179172410439,True
3146,193312,0,193313,5043.0,42984.0,27793.0,0.002196,-0.000122,-6.1e-05,0.17500000000000002,-1.6625,-3.9200000000000004,0.99090625,0.14103125,0.05621875,1.26003125,0.9735625,-0.32296875,-0.41628125,1.2265,0.01907661867961739,0.01935184130466223,True
3147,193313,0,193314,5043.0,42984.0,27791.0,0.0028669999999999998,0.0,-0.0006709999999999999,0.1925,-1.6625,-3.8675,1.004625,0.14603125,0.06528125,1.24053125,0.9735312500000001,-0.32903125,-0.41828125,1.22509375,0.019526568695578457,0.01980329799010731,True
3148,193314,0,193315,5042.0,42985.0,27793.0,0.000915,0.000244,-0.00061,0.29750000000000004,-1.5575,-3.7975000000000003,0.99365625,0.14184375,0.05828125,1.2554687500000001,0.9669375,-0.321875,-0.41265625,1.2240312500000001,0.019065912887061547,0.01929071114496195,True
3149,193315,0,193316,5042.0,42984.0,27792.0,-0.000732,-0.000488,0.001586,0.31500000000000006,-1.3125000000000002,-4.025,1.0036875,0.1418125,0.061625,1.24515625,0.9653125,-0.326625,-0.41690625000000003,1.232375,0.01925616479885722,0.019598357183355283,True
3150,193316,0,193317,5040.0,42985.0,27790.0,-0.0015249999999999999,0.000488,0.002013,0.1925,-1.225,-4.077500000000001,0.9980625000000001,0.14259375,0.062875,1.2539375,0.96625,-0.32625,-0.4161875,1.22459375,0.019273161708031446,0.019620692214949612,True
3151,193317,0,193318,5040.0,42983.0,27790.0,-0.0025009999999999998,0.000244,0.0006709999999999999,0.24500000000000002,-1.225,-4.0600000000000005,1.002375,0.1480625,0.066375,1.246125,0.97246875,-0.3284375,-0.41400000000000003,1.22509375,0.01958613248384735,0.01967621037109855,True
3152,193318,0,193319,5037.0,42982.0,27792.0,-0.0021349999999999997,0.00061,0.00061,0.29750000000000004,-1.2950000000000002,-4.095000000000001,0.9977812500000001,0.14046875,0.06084375,1.2391875,0.96603125,-0.326875,-0.41753125,1.2285625,0.019211006345862345,0.019591456445868172,True
3153,193319,0,193320,5037.0,42984.0,27792.0,-0.0015249999999999999,0.000915,-0.0008539999999999999,0.28,-1.3125000000000002,-4.0425,0.99609375,0.14465625000000001,0.06340625,1.2464375,0.966,-0.32709375,-0.4180625,1.2294375,0.019391958811356167,0.019717729447207368,True
3154,193320,0,193321,5036.0,42984.0,27790.0,-0.000183,-0.000549,-0.001037,0.15750000000000003,-1.6800000000000002,-4.095000000000001,0.99615625,0.1395625,0.06615625,1.2472812500000001,0.96715625,-0.32678125,-0.41984375,1.22521875,0.01916997342178181,0.01990184724257296,True
3155,193321,0,193322,5036.0,42982.0,27792.0,0.002013,-0.000549,-0.00061,0.12250000000000001,-1.8200000000000003,-4.095000000000001,0.9985625,0.1429375,0.06159375,1.25225,0.96659375,-0.3279375,-0.41009375000000003,1.231125,0.019355319373045906,0.019323461221856224,True
3156,193322,0,193323,5034.0,42984.0,27794.0,0.002745,-0.0006709999999999999,-0.002074,0.2625,-1.8200000000000003,-4.1825,0.9976875000000001,0.14040625,0.06318750000000001,1.24634375,0.9717187500000001,-0.3259375,-0.41831250000000003,1.2310625,0.019170638336138125,0.01971880735001651,True
3157,193323,0,193324,5031.0,42982.0,27794.0,0.00183,-0.000183,-0.001037,0.24500000000000002,-1.8200000000000003,-4.235,0.986125,0.14178125,0.06256250000000001,1.238125,0.965125,-0.32759375,-0.41915625,1.2278125,0.019293934485403022,0.019727084141164787,True
3158,193324,0,193325,5031.0,42982.0,27792.0,0.001769,0.001403,0.0,0.28,-1.6625,-4.305000000000001,0.99925,0.1401875,0.0625,1.245625,0.96065625,-0.327,-0.41784375,1.23028125,0.01920448472890204,0.019671833226469884,True
3159,193325,0,193326,5031.0,42981.0,27792.0,-0.001098,-0.001037,0.001647,0.10500000000000001,-1.4000000000000001,-4.4275,0.9965937500000001,0.14690625000000002,0.06046875,1.2455,0.9666875,-0.328125,-0.41925,1.2329375,0.019526011560693644,0.019645105807917933,True
3160,193326,0,193327,5030.0,42982.0,27792.0,-0.0013419999999999999,-0.0021349999999999997,0.002562,0.14,-1.4875,-4.2700000000000005,0.99790625,0.14053125,0.059687500000000004,1.2445625,0.9664375000000001,-0.32665625,-0.41759375,1.2310625,0.019204756099597535,0.0195466127779278,True
3161,193327,0,193328,5030.0,42983.0,27792.0,-0.000549,-0.000549,0.002257,0.14,-1.4175000000000002,-4.305000000000001,0.99753125,0.14459375,0.06071875,1.25134375,0.9707187500000001,-0.32575,-0.41578125,1.2335625000000001,0.019335220907885677,0.019516066068948748,True
3162,193328,0,193329,5027.0,42982.0,27791.0,0.000366,0.001647,0.001586,0.24500000000000002,-1.6275000000000002,-4.235,0.9971875,0.1428125,0.060125,1.2498125,0.96746875,-0.32628125,-0.416375,1.23209375,0.019283413900346977,0.019515591483174714,True
3163,193329,0,193330,5028.0,42980.0,27793.0,0.00183,0.0030499999999999998,0.000488,0.24500000000000002,-1.8725000000000003,-4.2700000000000005,0.9975937500000001,0.14328125,0.059812500000000005,1.25459375,0.9715312500000001,-0.32534375,-0.4165625,1.2316562500000001,0.019264887058379185,0.019510322143012553,True
3164,193330,0,193331,5028.0,42984.0,27793.0,0.0013419999999999999,-0.0011589999999999999,-0.004148,0.1925,-1.7500000000000002,-4.165,0.9969687500000001,0.14278125,0.05996875,1.2464375,0.9735312500000001,-0.3263125,-0.41828125,1.228,0.019283389128541367,0.01958573558489093,True
3165,193331,0,193332,5029.0,42985.0,27791.0,-0.000183,-0.0006709999999999999,-0.002806,0.22750000000000004,-1.4525000000000001,-4.1825,0.9971875,0.1409375,0.06296875,1.24571875,0.967,-0.327,-0.41859375,1.22471875,0.01923531467094175,0.0197211397564612,True
3166,193332,0,193333,5027.0,42981.0,27790.0,-0.002928,0.000366,0.0,0.3325,-1.33,-4.112500000000001,1.0030000000000001,0.14146875,0.06325,1.2465625,0.96640625,-0.32934375,-0.41821875000000003,1.22571875,0.019351631710164807,0.019717603275218425,True
3167,193333,0,193334,5028.0,42982.0,27791.0,-0.0028669999999999998,0.000305,0.001403,0.28,-1.1725,-4.095000000000001,1.00078125,0.143625,0.063375,1.24628125,0.9666875,-0.32521875,-0.41590625000000003,1.22496875,0.019273978779738618,0.0196298775516473,True
3168,193334,0,193335,5027.0,42982.0,27792.0,-0.001769,-0.000244,0.00061,0.22750000000000004,-1.2775,-4.112500000000001,1.0010000000000001,0.14303125,0.06343750000000001,1.24609375,0.9675,-0.32946875000000003,-0.41934375,1.22528125,0.01942089261607901,0.019770443257714494,True
3169,193335,0,193336,5026.0,42983.0,27790.0,0.001952,0.000244,0.0,0.22750000000000004,-1.715,-4.112500000000001,1.00078125,0.14325000000000002,0.06234375,1.24475,0.9667187500000001,-0.33087500000000003,-0.41575,1.22471875,0.019486557717303635,0.019581366535945034,True
3170,193336,0,193337,5025.0,42985.0,27791.0,0.001464,0.00061,0.0006709999999999999,0.14,-1.7500000000000002,-4.025,1.00203125,0.14375000000000002,0.06325,1.24975,0.9750625,-0.32703125,-0.41540625000000003,1.23065625,0.019352186675059252,0.01960468095836005,True
3171,193337,0,193338,5026.0,42984.0,27792.0,0.002257,0.000183,-0.000305,0.2625,-1.8375000000000001,-4.0600000000000005,1.00278125,0.14390625,0.06296875,1.2436562500000001,0.98084375,-0.3295,-0.4155625,1.22275,0.019458116689615487,0.019599435810663795,True
3172,193338,0,193339,5026.0,42983.0,27789.0,0.001952,-0.000488,0.000366,0.36750000000000005,-1.715,-3.9025000000000003,0.9936875000000001,0.1408125,0.06528125,1.24603125,0.9625312500000001,-0.330625,-0.41540625000000003,1.2161250000000001,0.019376300444398777,0.019687876379284087,True
3173,193339,0,193340,5024.0,42985.0,27791.0,0.001464,-0.0006709999999999999,-0.000366,0.42000000000000004,-1.715,-3.7975000000000003,0.99834375,0.13715625,0.06315625,1.2435625000000001,0.95221875,-0.32496875000000003,-0.42015625,1.2224375,0.0189979689079765,0.019791540031608112,True
3174,193340,0,193341,5024.0,42986.0,27791.0,-0.00061,0.001769,0.001281,0.42000000000000004,-1.4875,-3.6225000000000005,1.01678125,0.14053125,0.06490625,1.241875,0.96284375,-0.33071875,-0.42081250000000003,1.22484375,0.019368519477049977,0.019889540939720986,True
3175,193341,0,193342,5024.0,42984.0,27791.0,-0.000488,0.001098,0.0018909999999999999,0.47250000000000003,-1.3125000000000002,-3.6575,1.027625,0.13840625,0.0668125,1.2494375,0.9637187500000001,-0.3281875,-0.41740625000000003,1.22346875,0.01917914147940532,0.019830883962132548,True
3176,193342,0,193343,5026.0,42984.0,27790.0,-0.003294,-0.000183,0.0008539999999999999,0.5075000000000001,-1.1375000000000002,-3.6400000000000006,1.01209375,0.14921875,0.0600625,1.264875,0.96490625,-0.3306875,-0.41503125,1.22309375,0.019724319339517227,0.019459067864187152,True
3177,193343,0,193344,5023.0,42982.0,27789.0,-0.0040869999999999995,-6.1e-05,-6.1e-05,0.49000000000000005,-1.1725,-3.6225000000000005,0.9723125,0.1468125,0.06603125,1.23925,0.97590625,-0.3289375,-0.41481250000000003,1.22053125,0.01955490246953859,0.019694754977127103,True
3178,193344,0,193345,5024.0,42982.0,27790.0,-0.0032329999999999998,-0.001037,-0.000915,0.31500000000000006,-1.1375000000000002,-3.6750000000000003,0.99425,0.14640625000000002,0.0573125,1.26821875,0.96359375,-0.322,-0.41521875,1.2236562500000001,0.0192585416495354,0.019353963396293552,True
3179,193345,0,193346,5023.0,42980.0,27789.0,-0.00061,-0.000732,-0.000366,0.35000000000000003,-1.715,-3.6925000000000003,1.00684375,0.1400625,0.06984375,1.22553125,0.96565625,-0.3293125,-0.41665625,1.23221875,0.01929257146086639,0.019924923176161766,True
3180,193346,0,193347,5022.0,42978.0,27789.0,0.0017079999999999999,0.000122,0.000366,0.29750000000000004,-1.8200000000000003,-3.7100000000000004,0.985,0.14675,0.06525,1.25865625,0.97490625,-0.32996875000000003,-0.41434375,1.22353125,0.019593890764861753,0.019643933701883755,True
3181,193347,0,193348,5022.0,42980.0,27789.0,0.002196,0.0,0.0006709999999999999,0.24500000000000002,-1.8900000000000001,-3.8675,1.01934375,0.13915625,0.06725,1.23559375,0.96465625,-0.33009375,-0.4156875,1.22496875,0.019286814297622672,0.019779803456281952,True
3182,193348,0,193349,5022.0,42980.0,27790.0,0.00244,0.000122,0.0006709999999999999,0.2625,-1.8900000000000001,-3.9550000000000005,0.99128125,0.137625,0.06384375,1.2669375,0.96540625,-0.3259375,-0.41550000000000004,1.225,0.01905630564084118,0.019632764022854337,True
3183,193349,0,193350,5021.0,42980.0,27792.0,0.0017079999999999999,0.000366,-0.000244,0.31500000000000006,-1.6450000000000002,-3.8850000000000002,1.01659375,0.13784375000000001,0.068125,1.2355,0.96775,-0.32778125,-0.41353125,1.22515625,0.019139641022544958,0.01972906930454807,True
3184,193350,0,193351,5021.0,42978.0,27789.0,-0.000488,-0.0006709999999999999,0.000122,0.35000000000000003,-1.61,-3.9725000000000006,0.98975,0.13809375000000002,0.06565625,1.236,0.9663125,-0.32640625,-0.41765625,1.234,0.01909447680953696,0.019793566387027832,True
3185,193351,0,193352,5021.0,42977.0,27788.0,-0.000366,0.000244,-0.000976,0.22750000000000004,-1.7325000000000002,-4.0425,0.9994375,0.143375,0.06571875,1.246,0.9666250000000001,-0.3273125,-0.41478125,1.22534375,0.01934810924963454,0.01968070060017433,True
3186,193352,0,193353,5022.0,42981.0,27790.0,0.00061,6.1e-05,0.000305,0.24500000000000002,-1.5575,-4.077500000000001,1.00025,0.14284375,0.06309375,1.2455625000000001,0.97178125,-0.3281875,-0.4156875,1.213,0.019361543066042222,0.019609574786702198,True
3187,193353,0,193354,5021.0,42980.0,27789.0,0.000183,0.0,0.000305,0.2625,-1.5750000000000002,-4.1475,1.00475,0.14190625,0.065875,1.253125,0.97209375,-0.3293125,-0.416875,1.2320312500000001,0.019368354531185378,0.019771162362095886,True
3188,193354,0,193355,5022.0,42982.0,27790.0,-0.000183,-0.000305,-0.000549,0.12250000000000001,-1.6625,-4.0600000000000005,0.99771875,0.142625,0.0613125,1.2460625,0.9660625,-0.327,-0.41981250000000003,1.227,0.019304682040531096,0.019702239728499146,True
3189,193355,0,193356,5022.0,42985.0,27792.0,-0.00122,0.000122,-0.000305,0.22750000000000004,-1.54,-4.0600000000000005,1.00371875,0.143375,0.06309375,1.2534375,0.9660625,-0.3273125,-0.416125,1.22553125,0.01934810924963454,0.019627141899052368,True
3190,193356,0,193357,5022.0,42984.0,27790.0,6.1e-05,-0.000366,-0.000549,0.22750000000000004,-1.61,-4.130000000000001,1.00071875,0.14300000000000002,0.060125,1.2476875,0.97384375,-0.325875,-0.4146875,1.2301250000000001,0.01927474345732682,0.019447822135753325,True
3191,193357,0,193358,5023.0,42983.0,27790.0,0.00061,0.000366,-0.000183,0.31500000000000006,-1.8025000000000002,-4.077500000000001,0.997125,0.13921875,0.06259375,1.2463125,0.96621875,-0.32715625,-0.41925,1.2144375,0.019170962491762675,0.01973212731758756,True
3192,193358,0,193359,5023.0,42983.0,27791.0,0.001952,0.000488,-0.0008539999999999999,0.28,-1.8725000000000003,-4.0600000000000005,1.00184375,0.14040625,0.0635,1.24596875,0.96625,-0.32965625,-0.41528125,1.22540625,0.019320556573831575,0.0196099010737384,True
3193,193359,0,193360,5022.0,42988.0,27791.0,0.000732,6.1e-05,-0.000305,0.3325,-1.8550000000000002,-4.025,0.9989687500000001,0.14109375,0.06203125,1.23921875,0.9663125,-0.32778125,-0.41615625,1.2258125,0.01927323314780299,0.01958488040065684,True
3194,193360,0,193361,5022.0,42983.0,27790.0,0.00042699999999999997,6.1e-05,-0.000915,0.1925,-1.6975000000000002,-4.0425,1.0028125,0.14325000000000002,0.0621875,1.24571875,0.97296875,-0.325875,-0.41771875,1.2310625,0.019285020579938028,0.01965401661447182,True
3195,193361,0,193362,5023.0,42985.0,27791.0,6.1e-05,-6.1e-05,-0.000488,0.15750000000000003,-1.7500000000000002,-3.9200000000000004,0.9974375,0.14109375,0.06371875,1.24671875,0.96684375,-0.32709375,-0.41578125,1.2256562500000001,0.019245517151016033,0.019638937418805718,True
3196,193362,0,193363,5025.0,42984.0,27792.0,0.000305,-0.000366,0.000122,0.24500000000000002,-1.7675,-3.8500000000000005,0.99740625,0.14134375,0.06293750000000001,1.2472812500000001,0.96640625,-0.32903125,-0.4136875,1.22459375,0.01933389764543132,0.019522859871127618,True
3197,193363,0,193364,5024.0,42983.0,27790.0,-0.0013419999999999999,-0.0006709999999999999,-0.00042699999999999997,0.35000000000000003,-1.7325000000000002,-3.9025000000000003,1.0041875,0.143375,0.0616875,1.25178125,0.96759375,-0.3269375,-0.41640625000000003,1.23015625,0.01933299249032066,0.019580840239337025,True
3198,193364,0,193365,5024.0,42985.0,27789.0,0.000793,0.00061,0.0013419999999999999,0.31500000000000006,-1.8375000000000001,-3.9025000000000003,0.9973125,0.1430625,0.06521875,1.2470625,0.9705,-0.32656250000000003,-0.4200625,1.2280312500000001,0.019305029224741477,0.019872236199231678,True
3199,193365,0,193366,5025.0,42985.0,27790.0,0.000549,-0.00042699999999999997,0.000366,0.35000000000000003,-2.0125,-3.9200000000000004,0.99403125,0.140875,0.06325,1.24809375,0.96678125,-0.3295,-0.415375,1.2241875,0.01933352514437206,0.019603426119811796,True
3200,193366,0,193367,5025.0,42983.0,27791.0,0.0,0.0,0.000793,0.43750000000000006,-1.995,-3.7450000000000006,1.0052812500000001,0.14325000000000002,0.06259375,1.24196875,0.971375,-0.32759375,-0.41631250000000003,1.23046875,0.0193543083150178,0.01961419235603247,True
3201,193367,0,193368,5026.0,42981.0,27789.0,0.0018909999999999999,0.000183,0.000732,0.35000000000000003,-1.9600000000000002,-3.5875000000000004,0.99715625,0.14740625000000002,0.06259375,1.246625,0.9677187500000001,-0.32678125,-0.41846875,1.22525,0.019492406131616777,0.01970076440604,True
3202,193368,0,193369,5025.0,42982.0,27789.0,0.001586,-6.1e-05,0.00061,0.3325,-2.0825,-3.6575,1.00546875,0.143625,0.06265625,1.2496562500000001,0.96684375,-0.32925,-0.41581250000000003,1.225375,0.019436480779308856,0.019596675310313755,True
3203,193369,0,193370,5026.0,42985.0,27787.0,-0.000366,-0.000488,0.00042699999999999997,0.525,-1.9425000000000001,-3.6050000000000004,1.0049062500000001,0.1434375,0.063125,1.25015625,0.9713125,-0.32659375,-0.41475,1.22925,0.019321704256273036,0.019573208818439672,True
3204,193370,0,193371,5025.0,42982.0,27789.0,-0.000488,-0.0006709999999999999,0.00122,0.43750000000000006,-1.8025000000000002,-3.5000000000000004,0.997,0.14240625,0.06259375,1.246125,0.971125,-0.31984375,-0.41615625,1.22578125,0.019007112247585882,0.01960791842491588,True
3205,193371,0,193372,5027.0,42980.0,27788.0,0.0006709999999999999,0.000549,0.000732,0.49000000000000005,-1.6450000000000002,-3.3950000000000005,0.995,0.15031250000000002,0.06315625,1.2529375,0.96678125,-0.33053125,-0.41640625000000003,1.22553125,0.01976297784291085,0.019640994464531405,True
3206,193372,0,193373,5027.0,42981.0,27788.0,-0.001037,0.001037,0.000488,0.5775,-1.715,-3.3600000000000003,1.00378125,0.14353125,0.06259375,1.253125,0.98246875,-0.32596875000000003,-0.41715625,1.244375,0.019300361881785282,0.019648070196544694,True
3207,193373,0,193374,5028.0,42984.0,27789.0,-0.001098,0.000366,-0.0006709999999999999,0.49000000000000005,-1.61,-3.2725000000000004,0.99675,0.14678125,0.0620625,1.24665625,0.95909375,-0.32703125,-0.4216875,1.21190625,0.01947679086407224,0.019808213498760066,True
3208,193374,0,193375,5028.0,42984.0,27790.0,-6.1e-05,-0.001281,0.001037,0.56,-1.5050000000000001,-3.2025,1.00103125,0.1400625,0.06334375,1.24659375,0.96796875,-0.33037500000000003,-0.4128125,1.21996875,0.01933539865291842,0.019504358623161508,True
3209,193375,0,193376,5029.0,42984.0,27789.0,0.000305,-0.001769,0.002196,0.45500000000000007,-1.5225000000000002,-3.0975,0.9983125,0.1443125,0.06425,1.24640625,0.95353125,-0.3321875,-0.41696875,1.2125000000000001,0.019583113930878596,0.01970837391516914,True
3210,193376,0,193377,5030.0,42985.0,27789.0,0.0008539999999999999,-6.1e-05,0.001098,0.5425000000000001,-1.6625,-3.115,0.9976875000000001,0.14115625,0.06378125,1.2466875,0.967125,-0.3316875,-0.4190625,1.219625,0.01943324933792611,0.019773230442405396,True
3211,193377,0,193378,5030.0,42985.0,27791.0,0.0013419999999999999,0.001037,-0.001098,0.5775,-1.8375000000000001,-3.1850000000000005,1.00375,0.1435625,0.06175,1.2531875000000001,0.97859375,-0.33128125,-0.41396875,1.23790625,0.019515772520199693,0.019485514824376927,True
3212,193378,0,193379,5031.0,42984.0,27787.0,0.00061,0.002013,-0.003477,0.6300000000000001,-1.6975000000000002,-3.115,0.9975,0.14353125,0.06034375,1.25090625,0.9694375000000001,-0.3246875,-0.4201875,1.23903125,0.0192487056616863,0.019677623277872047,True
3213,193379,0,193380,5030.0,42985.0,27789.0,-0.002257,-0.0032329999999999998,-0.001098,0.45500000000000007,-1.5575,-2.8875,0.9971875,0.141875,0.06190625,1.24628125,0.9596250000000001,-0.32453125,-0.42121875000000003,1.223,0.019174316051825256,0.019783001206686295,True
3214,193380,0,193381,5031.0,42983.0,27786.0,-0.001952,-0.002623,-0.000915,0.5425000000000001,-1.4875,-3.0625000000000004,0.9948750000000001,0.14240625,0.059562500000000004,1.24603125,0.95996875,-0.3288125,-0.42325,1.2313125,0.0193687525850265,0.01976856069523917,True
3215,193381,0,193382,5032.0,42983.0,27789.0,-0.001098,0.00042699999999999997,0.0,0.56,-1.3650000000000002,-3.115,0.99671875,0.1429375,0.059500000000000004,1.25478125,0.9603125,-0.327625,-0.42415625,1.23659375,0.019342722522235522,0.019802372906945354,True
3216,193382,0,193383,5032.0,42980.0,27786.0,-0.00061,0.0028669999999999998,6.1e-05,0.5950000000000001,-1.435,-3.115,0.9973125,0.14353125,0.06046875,1.25184375,0.953125,-0.32471875,-0.416875,1.23415625,0.019249965634237805,0.019549747869045484,True
3217,193383,0,193384,5033.0,42982.0,27788.0,-0.000122,0.003355,-0.00061,0.5775,-1.5225000000000002,-3.2375000000000003,0.99603125,0.142125,0.06303125,1.24590625,0.96421875,-0.324875,-0.4184375,1.21559375,0.019198454257216124,0.019717426637146623,True
3218,193384,0,193385,5031.0,42985.0,27788.0,0.000793,0.000183,0.00122,0.42000000000000004,-1.4175000000000002,-3.08,0.99203125,0.13978125,0.06359375,1.248125,0.9657187500000001,-0.32703125,-0.41540625000000003,1.22040625,0.019189045108001,0.019618760183439506,True
3219,193385,0,193386,5030.0,42985.0,27786.0,0.00042699999999999997,-0.0008539999999999999,0.001586,0.5075000000000001,-1.3650000000000002,-2.975,1.00153125,0.1438125,0.06753125,1.2478125,0.9739375,-0.32937500000000003,-0.41581250000000003,1.22521875,0.01944922547332186,0.019796340998277245,True
3220,193386,0,193387,5031.0,42985.0,27786.0,0.0006709999999999999,-0.001769,0.002257,0.5775,-1.3650000000000002,-2.975,1.00178125,0.14378125,0.06065625,1.2477500000000001,0.97290625,-0.32606250000000003,-0.416125,1.23153125,0.019314418434960446,0.019527310332823084,True
3221,193387,0,193388,5031.0,42987.0,27785.0,-0.002257,-0.001281,0.001647,0.5775,-1.4700000000000002,-2.9925,0.99771875,0.14103125,0.062625,1.2531875000000001,0.96615625,-0.3279375,-0.41609375,1.22028125,0.01927696295668303,0.019606688723498203,True
3222,193388,0,193389,5029.0,42983.0,27784.0,-0.0018909999999999999,-0.0006709999999999999,0.001769,0.56,-1.6275000000000002,-2.9225000000000003,0.99784375,0.14275000000000002,0.0620625,1.2474375,0.9726250000000001,-0.3225,-0.4195625,1.2291875,0.019128379072874912,0.019722916821298498,True
3223,193389,0,193390,5029.0,42985.0,27785.0,0.000732,-0.0023179999999999997,-0.000244,0.4025,-1.8900000000000001,-2.8875,1.00065625,0.144125,0.06321875,1.2518125,0.9666250000000001,-0.32971875,-0.41615625,1.2329375,0.01947592386369037,0.019633516229648144,True
3224,193390,0,193391,5026.0,42984.0,27783.0,0.001769,0.000366,-0.0017079999999999999,0.47250000000000003,-1.8725000000000003,-2.9050000000000002,0.998375,0.14103125,0.06296875,1.25046875,0.9669375,-0.32409375,-0.4109375,1.22553125,0.019121986816055585,0.019413684951673817,True
3225,193391,0,193392,5025.0,42984.0,27782.0,-0.000183,0.00061,-0.001281,0.56,-1.9075000000000002,-3.0100000000000002,1.00384375,0.14178125,0.06115625,1.24653125,0.97215625,-0.32628125,-0.4175,1.227625,0.019241021477542936,0.019602999897614416,True
3226,193392,0,193393,5024.0,42985.0,27783.0,0.000183,0.002074,-0.000732,0.6475000000000001,-1.6450000000000002,-3.08,1.00590625,0.14346875,0.062625,1.25515625,0.96584375,-0.32859375,-0.415625,1.232,0.019403608151416483,0.019587866376551903,True
3227,193393,0,193394,5023.0,42982.0,27784.0,-0.00366,0.002928,-0.0006709999999999999,0.665,-1.4175000000000002,-2.8875,0.99171875,0.13775,0.06328125,1.25496875,0.96615625,-0.3264375,-0.41853125,1.2241250000000001,0.01908160617435249,0.019731428359353105,True
3228,193394,0,193395,5022.0,42982.0,27782.0,-0.001769,0.0015249999999999999,0.000549,0.5425000000000001,-1.5225000000000002,-2.975,0.99475,0.14065625,0.0648125,1.24865625,0.97196875,-0.32275,-0.41778125,1.22525,0.019052378945637317,0.019764029543020006,True
3229,193395,0,193396,5021.0,42980.0,27783.0,-0.000793,-0.000244,-0.001037,0.5775,-1.8025000000000002,-2.8875,0.9978750000000001,0.1439375,0.058750000000000004,1.243875,0.9724375000000001,-0.326625,-0.41653125,1.2306875,0.019343517647844696,0.01946555164341782,True
3230,193396,0,193397,5022.0,42982.0,27781.0,0.00244,6.1e-05,-0.000915,0.5775,-1.9600000000000002,-2.9225000000000003,1.00284375,0.1435625,0.06875,1.25453125,0.96625,-0.3256875,-0.4159375,1.2242187500000001,0.019290307827887702,0.01985127542204759,True
3231,193397,0,193398,5020.0,42982.0,27781.0,0.003355,-0.00122,0.000305,0.49000000000000005,-1.9775000000000003,-2.9050000000000002,1.00115625,0.14334375,0.0585,1.24425,0.971875,-0.32659375,-0.41640625000000003,1.2301250000000001,0.01931785044916122,0.019450292771893897,True
3232,193398,0,193399,5019.0,42983.0,27781.0,0.0044529999999999995,-0.0034159999999999998,0.00042699999999999997,0.4025,-2.0300000000000002,-2.8525000000000005,0.996625,0.1400625,0.0640625,1.2572812500000001,0.9673125,-0.32825,-0.4114375,1.22525,0.019249740527987013,0.01947857433631264,True
3233,193399,0,193400,5020.0,42984.0,27783.0,0.002806,-0.000976,0.000305,0.42000000000000004,-2.0825,-2.9050000000000002,0.99425,0.1413125,0.06234375,1.2413750000000001,0.9718125,-0.326,-0.41365625,1.22515625,0.019210412727123243,0.019497284434812995,True
3234,193400,0,193401,5019.0,42985.0,27782.0,-0.000305,0.00183,0.000122,0.6300000000000001,-1.7850000000000001,-2.7475,1.00903125,0.14400000000000002,0.05775,1.2503125,0.9675312500000001,-0.32678125,-0.41778125,1.2289375,0.019352385552445416,0.019474793599438933,True
3235,193401,0,193402,5019.0,42983.0,27780.0,-0.002074,0.0037819999999999998,0.00042699999999999997,0.7000000000000001,-1.61,-2.7300000000000004,0.99253125,0.138625,0.06415625,1.244375,0.9656875,-0.32656250000000003,-0.41759375,1.22478125,0.019122615453786372,0.019729626306850975,True
3236,193402,0,193403,5017.0,42983.0,27779.0,-0.003172,0.0032329999999999998,-0.000549,0.6825000000000001,-1.5225000000000002,-2.5725000000000002,1.00415625,0.13909375000000002,0.0645,1.2555625000000001,0.96596875,-0.328,-0.41590625000000003,1.2254375,0.01919984174613614,0.019675954071948488,True
3237,193403,0,193404,5016.0,42982.0,27778.0,-0.0042699999999999995,0.0013419999999999999,0.0013419999999999999,0.7525000000000001,-1.5225000000000002,-2.5375,0.9944375,0.14228125,0.06225,1.244375,0.9716250000000001,-0.32634375,-0.4180625,1.22534375,0.019264095123213903,0.019670377205398666,True
3238,193404,0,193405,5016.0,42981.0,27780.0,-0.002257,0.0,0.0030499999999999998,0.7000000000000001,-1.5575,-2.5200000000000005,1.0014687500000001,0.14340625,0.06009375,1.2538125,0.968,-0.32846875000000003,-0.4161875,1.2295,0.01939600082722017,0.01950678212968343,True
3239,193405,0,193406,5015.0,42983.0,27780.0,-0.002928,0.000488,-0.00042699999999999997,0.665,-1.5925000000000002,-2.5200000000000005,0.9963125,0.1413125,0.062125,1.2468125,0.96840625,-0.32271875,-0.41909375,1.2315,0.01907809956483586,0.019706658851743834,True
3240,193406,0,193407,5015.0,42980.0,27780.0,-0.004514,0.002013,-0.002989,0.7000000000000001,-1.7850000000000001,-2.5375,0.9988125,0.1404375,0.06384375,1.25375,0.96684375,-0.32837500000000003,-0.41615625,1.22540625,0.019270193755234373,0.01965911403438041,True
3241,193407,0,193408,5015.0,42982.0,27780.0,-0.0028669999999999998,0.001952,0.0025009999999999998,0.7350000000000001,-1.9425000000000001,-2.6250000000000004,0.99828125,0.142375,0.06353125,1.24659375,0.97709375,-0.32584375,-0.42181250000000003,1.22609375,0.019247790736960563,0.019873371396983742,True
3242,193408,0,193409,5014.0,42984.0,27781.0,0.0040869999999999995,-0.0062829999999999995,0.001769,0.3325,-2.4325,-2.6075000000000004,1.004375,0.14328125,0.06415625,1.2513750000000001,0.96146875,-0.3304375,-0.41371875,1.2205625,0.019470210924074013,0.019574035602421283,True
3243,193409,0,193410,5017.0,42984.0,27780.0,0.014518,-0.002989,-0.003721,0.29750000000000004,-3.4650000000000003,-2.87,0.99725,0.14284375,0.060625,1.24715625,0.96040625,-0.32321875,-0.42712500000000003,1.21434375,0.01916121812619886,0.01996755655853892,True
3244,193410,0,193411,5016.0,42986.0,27780.0,0.009455,0.0037819999999999998,-0.000549,0.525,-2.8000000000000003,-3.1325000000000003,1.00471875,0.14328125,0.062375,1.2533125,0.9741875,-0.322125,-0.41865625,1.244125,0.019135098187349996,0.019699333373432455,True
3245,193411,0,193412,5015.0,42989.0,27778.0,0.0011589999999999999,0.005063,-6.1e-05,0.7350000000000001,-1.7850000000000001,-2.975,0.99790625,0.1404375,0.0658125,1.24665625,0.9540625,-0.3315625,-0.4180625,1.2154375,0.019398671992396706,0.019816273301782233,True
3246,193412,0,193413,5016.0,42989.0,27777.0,-0.007686,0.002989,0.0006709999999999999,0.8575,-1.0150000000000001,-2.6950000000000003,0.997125,0.14303125,0.06096875,1.25096875,0.9539375,-0.32546875000000003,-0.42684375,1.234125,0.019259649415800058,0.019970345124920203,True
3247,193413,0,193414,5016.0,42985.0,27777.0,-0.009394,0.000122,0.004575,0.9450000000000001,-0.525,-2.6075000000000004,0.9969687500000001,0.1451875,0.059500000000000004,1.24659375,0.952625,-0.3261875,-0.41928125,1.22540625,0.019377265755268883,0.019606688874186252,True
3248,193414,0,193415,5016.0,42984.0,27776.0,-0.005429,0.0008539999999999999,0.0006709999999999999,0.5950000000000001,-1.1375000000000002,-2.7825,0.99309375,0.140125,0.06253125,1.2465625,0.95434375,-0.32440625,-0.42346875,1.217875,0.019097331512459837,0.019898893354368428,True
3249,193415,0,193416,5015.0,42983.0,27777.0,-0.0015249999999999999,0.000244,6.1e-05,0.525,-1.5750000000000002,-2.8350000000000004,0.99784375,0.14284375,0.05959375,1.24659375,0.9489375,-0.32978125,-0.423375,1.226875,0.01942578090380488,0.01977485707851597,True
3250,193416,0,193417,5016.0,42986.0,27775.0,-0.000305,0.000976,-0.001098,0.4025,-1.8550000000000002,-2.975,0.99690625,0.13840625,0.0605,1.24640625,0.95615625,-0.3355625,-0.42290625,1.21346875,0.019476383584722975,0.019793150129297162,True
3251,193417,0,193418,5015.0,42986.0,27777.0,0.0011589999999999999,0.000183,-0.001098,0.4025,-2.0825,-3.2550000000000003,0.99975,0.14365625,0.0623125,1.2476875,0.9668125000000001,-0.33159375,-0.4114375,1.228,0.019532218270741104,0.01940688662845029,True
3252,193418,0,193419,5016.0,42987.0,27776.0,0.004575,-0.002257,0.0,0.31500000000000006,-1.9075000000000002,-3.22,1.0030000000000001,0.14215625,0.0600625,1.2448125,0.98453125,-0.32246875,-0.41509375,1.2375625000000001,0.01910270724471586,0.01946157794294769,True
3253,193419,0,193420,5017.0,42988.0,27776.0,0.002928,0.000122,-0.0021349999999999997,0.385,-2.1525000000000003,-3.3950000000000005,0.9974375,0.14215625,0.0605625,1.2544375,0.9619375,-0.32506250000000003,-0.414875,1.23103125,0.019207299056271696,0.019473271929510188,True
3254,193420,0,193421,5016.0,42989.0,27775.0,0.0035989999999999998,0.001281,-0.000366,0.49000000000000005,-1.7850000000000001,-3.3425000000000002,0.998125,0.14321875,0.0624375,1.24515625,0.9703437500000001,-0.32534375,-0.41625,1.23103125,0.019262317721614932,0.01960528336661035,True
3255,193421,0,193422,5018.0,42988.0,27776.0,-0.000183,6.1e-05,0.0013419999999999999,0.5075000000000001,-1.7850000000000001,-3.4475000000000002,0.99746875,0.13953125,0.06375,1.24525,0.96615625,-0.327125,-0.41896875,1.22559375,0.019182548287148604,0.019768187385063096,True
3256,193422,0,193423,5018.0,42989.0,27778.0,-0.001037,-0.002562,0.000549,0.42000000000000004,-2.0125,-3.3425000000000002,0.99575,0.14496875,0.06353125,1.24559375,0.96515625,-0.329625,-0.41731250000000003,1.2260625,0.01950682552649291,0.019692738502650527,True
3257,193423,0,193424,5018.0,42993.0,27777.0,-0.00061,-0.00122,-0.000549,0.45500000000000007,-1.8200000000000003,-3.43,1.002875,0.14346875,0.06365625,1.2475625000000001,0.96640625,-0.33065625,-0.415625,1.2253125,0.019486732915393518,0.019630103673364905,True
3258,193424,0,193425,5018.0,42993.0,27774.0,-0.0011589999999999999,0.002928,-0.000976,0.5950000000000001,-1.7325000000000002,-3.4125000000000005,0.9939375,0.14350000000000002,0.06846875,1.252125,0.97209375,-0.3291875,-0.4161875,1.2179375000000001,0.019428823917773664,0.019849792274080465,True
3259,193425,0,193426,5019.0,42993.0,27776.0,-0.0015249999999999999,0.002745,0.0026839999999999998,0.6300000000000001,-1.6800000000000002,-3.4125000000000005,0.999625,0.14246875,0.06740625,1.2466875,0.9744375000000001,-0.32609375,-0.41553125,1.219875,0.01926172384335237,0.019779930039408828,True
3260,193426,0,193427,5019.0,42992.0,27773.0,-0.001647,0.0,-0.001281,0.5950000000000001,-1.8725000000000003,-3.3950000000000005,1.0029375,0.14278125,0.0675,1.24725,0.9705625,-0.33034375,-0.41759375,1.2260625,0.019445882263788402,0.019866566499821464,True
3261,193427,0,193428,5021.0,42994.0,27775.0,0.001281,-0.001464,-0.001403,0.4025,-2.0650000000000004,-3.4125000000000005,1.001875,0.140875,0.06346875,1.2453125,0.9657187500000001,-0.329,-0.41803125,1.225875,0.01931337087426528,0.019719034473755948,True
3262,193428,0,193429,5021.0,42995.0,27775.0,0.001952,-0.001281,0.001647,0.5075000000000001,-2.2225,-3.22,1.0045,0.13990625,0.06353125,1.24628125,0.96496875,-0.3305625,-0.4181875,1.2250625,0.019336534040263146,0.019727866779628914,True
3263,193429,0,193430,5021.0,42995.0,27775.0,0.001647,-0.000915,0.000366,0.5775,-2.3625000000000003,-3.3425000000000002,1.00446875,0.15084375,0.06165625,1.2509375,0.9666250000000001,-0.33015625,-0.41621875,1.22515625,0.019769704520496038,0.019572031398186914,True
3264,193430,0,193431,5022.0,42996.0,27774.0,0.001403,-0.000122,0.0013419999999999999,0.5425000000000001,-2.2750000000000004,-3.3425000000000002,1.00975,0.14440625,0.06318750000000001,1.24465625,0.96690625,-0.32940625,-0.414625,1.22534375,0.01947488956907857,0.01957074908994097,True
3265,193431,0,193432,5021.0,42999.0,27774.0,0.001464,-0.000183,0.002379,0.77,-1.995,-3.22,0.99071875,0.1424375,0.0563125,1.258875,0.9725,-0.326875,-0.41634375,1.2240625,0.019291935359556048,0.019358191170617017,True
3266,193432,0,193433,5023.0,42998.0,27772.0,-0.00061,-0.0008539999999999999,0.0018909999999999999,0.9625000000000001,-1.9600000000000002,-3.1325000000000003,0.991125,0.14359375,0.0658125,1.2599375,0.973,-0.33021875,-0.41571875,1.22525,0.019474239211268906,0.019722182047169922,True
3267,193433,0,193434,5025.0,43000.0,27771.0,0.000915,0.002013,0.0008539999999999999,0.7525000000000001,-1.8900000000000001,-3.0975,1.01446875,0.14509375,0.065375,1.2486875,0.9668125000000001,-0.32965625,-0.4179375,1.226,0.019513222674488056,0.019793338401328943,True
3268,193434,0,193435,5025.0,43001.0,27772.0,0.000915,0.00061,-0.00122,0.77,-1.9600000000000002,-3.115,1.01328125,0.14525,0.0653125,1.25459375,0.95928125,-0.3300625,-0.41725,1.22428125,0.019536016399464652,0.019763179719255855,True
3269,193435,0,193436,5028.0,43002.0,27771.0,6.1e-05,-0.0006709999999999999,-0.00122,0.7525000000000001,-1.7500000000000002,-3.1325000000000003,1.01396875,0.14609375,0.06603125,1.2470625,0.966375,-0.3300625,-0.41681250000000003,1.2245625,0.019570695718516957,0.01977505253808211,True
3270,193436,0,193437,5027.0,43004.0,27771.0,-0.000793,-0.000549,-0.0008539999999999999,0.6825000000000001,-1.6800000000000002,-3.08,1.014875,0.14490625000000001,0.06390625,1.26115625,0.9661875,-0.32971875,-0.416125,1.2251875,0.019508034797977268,0.019660419087795464,True
3271,193437,0,193438,5030.0,43001.0,27768.0,-0.000549,-0.00061,-0.000793,0.6300000000000001,-1.7500000000000002,-3.0975,1.00678125,0.1441875,0.054968750000000004,1.25175,0.96821875,-0.32821875,-0.41625,1.23178125,0.019418036924713198,0.019299390774586596,True
3272,193438,0,193439,5031.0,43004.0,27770.0,-0.0008539999999999999,-6.1e-05,-0.000122,0.6125,-1.6625,-3.0450000000000004,0.99065625,0.13275,0.06403125,1.2305,0.9739375,-0.32721875,-0.4165625,1.225125,0.018907576518585795,0.019683104450104308,True
3273,193439,0,193440,5032.0,43005.0,27769.0,0.000793,0.000183,0.0006709999999999999,0.6825000000000001,-1.6450000000000002,-3.0625000000000004,0.9935625,0.1375,0.06625,1.24040625,0.967,-0.32703125,-0.41084375,1.229625,0.01909527082142421,0.01954433672535387,True
3274,193440,0,193441,5031.0,43005.0,27769.0,0.0013419999999999999,0.000732,0.001464,0.5775,-1.4875,-3.1500000000000004,1.00234375,0.1391875,0.0645,1.24296875,0.965875,-0.3268125,-0.41778125,1.22303125,0.019155818297197792,0.019751231492419075,True
3275,193441,0,193442,5031.0,43005.0,27770.0,0.0008539999999999999,0.000366,0.000366,0.56,-1.5575,-3.1675000000000004,1.000375,0.14225000000000002,0.06565625,1.2466875,0.96675,-0.32784375,-0.41696875,1.2254375,0.01932328055173406,0.019765967059281263,True
3276,193442,0,193443,5033.0,43009.0,27771.0,-0.001098,0.000244,-0.001098,0.5950000000000001,-1.2425000000000002,-3.1675000000000004,0.99646875,0.14075000000000001,0.06615625,1.24621875,0.96621875,-0.32746875000000003,-0.41840625000000004,1.22515625,0.019246505043809786,0.019844149328951392,True
3277,193443,0,193444,5035.0,43006.0,27771.0,-0.0042699999999999995,-0.000732,0.000244,0.5425000000000001,-0.8575,-3.2900000000000005,1.00459375,0.1403125,0.06334375,1.2472812500000001,0.9656875,-0.33,-0.4185,1.2249375,0.019330558980682287,0.019732733378381145,True
3278,193444,0,193445,5037.0,43005.0,27773.0,-0.0037819999999999998,-0.000732,-0.000549,0.5425000000000001,-0.8575,-3.3600000000000003,1.00471875,0.14296875,0.06340625,1.24675,0.96678125,-0.329625,-0.417,1.21575,0.019424621217959587,0.019675072695253305,True
3279,193445,0,193446,5035.0,43008.0,27773.0,-0.002623,-0.000305,-0.001647,0.45500000000000007,-1.12,-3.3425000000000002,1.004375,0.1423125,0.06321875,1.25275,0.9663437500000001,-0.33,-0.41531250000000003,1.224875,0.019412762022194822,0.019599636498611274,True
3280,193446,0,193447,5037.0,43006.0,27775.0,-0.000488,0.001647,-0.00122,0.42000000000000004,-1.4000000000000001,-3.4125000000000005,1.00475,0.142125,0.06259375,1.2545,0.9739375,-0.32915625,-0.41596875,1.22540625,0.01937104785538956,0.019600389601579907,True
3281,193447,0,193448,5037.0,43007.0,27775.0,0.002379,0.0011589999999999999,-0.000915,0.42000000000000004,-1.5750000000000002,-3.4125000000000005,1.0021875,0.145625,0.063,1.25015625,0.9639062500000001,-0.32759375,-0.415875,1.22515625,0.01945193408205446,0.019613263911287225,True
3282,193448,0,193449,5039.0,43010.0,27775.0,0.005978,-0.000915,0.001464,0.36750000000000005,-1.7850000000000001,-3.2900000000000005,1.001875,0.1425625,0.06334375,1.25046875,0.96759375,-0.328625,-0.41546875,1.22509375,0.01936761736431878,0.01961103040464869,True
3283,193449,0,193450,5038.0,43010.0,27778.0,0.0042699999999999995,-0.001098,0.0011589999999999999,0.385,-1.7500000000000002,-3.3950000000000005,1.0013125,0.14240625,0.06293750000000001,1.2463125,0.973125,-0.3294375,-0.4180625,1.21678125,0.019393944064674738,0.019698532592420055,True
3284,193450,0,193451,5040.0,43010.0,27778.0,0.001403,0.000732,0.00061,0.49000000000000005,-1.5575,-3.43,1.00334375,0.14271875,0.06296875,1.2535,0.96684375,-0.3305625,-0.415375,1.225125,0.019452129394871162,0.019591906739093706,True
3285,193451,0,193452,5041.0,43010.0,27777.0,-0.001037,0.0026839999999999998,-0.001037,0.56,-1.4175000000000002,-3.3950000000000005,0.99834375,0.1416875,0.06225,1.25515625,0.97371875,-0.32675,-0.41596875,1.2258437500000001,0.01925606585343295,0.019586310700860476,True
3286,193452,0,193453,5042.0,43011.0,27776.0,-0.002562,0.002257,-0.001464,0.45500000000000007,-1.0675000000000001,-3.2550000000000003,0.99421875,0.14196875,0.06140625,1.25121875,0.9743125,-0.3259375,-0.416375,1.23075,0.019234870187428543,0.019568066512739915,True
3287,193453,0,193454,5043.0,43010.0,27778.0,-0.004514,-0.0013419999999999999,0.000122,0.42000000000000004,-0.8400000000000001,-3.325,0.9978125,0.14300000000000002,0.0601875,1.25153125,0.9716875,-0.32615625,-0.41625,1.2329375,0.019286082239153585,0.01951313162340654,True
3288,193454,0,193455,5043.0,43012.0,27779.0,-0.0051849999999999995,-0.002257,0.0006709999999999999,0.36750000000000005,-0.8575,-3.4475000000000002,0.9973125,0.1421875,0.06409375,1.24903125,0.9742500000000001,-0.329625,-0.415625,1.2238437500000001,0.019392510159938755,0.0196480225265583,True
3289,193455,0,193456,5044.0,43012.0,27778.0,-0.00366,-0.000976,0.0,0.43750000000000006,-0.9275000000000001,-3.6400000000000006,1.00596875,0.14021875,0.06290625,1.24609375,0.965,-0.3276875,-0.41796875,1.21865625,0.01923348653668788,0.01969348904175332,True
3290,193456,0,193457,5045.0,43009.0,27778.0,-0.000305,-0.000366,-0.000976,0.385,-1.1725,-3.6575,1.0034687500000001,0.13934375000000002,0.06315625,1.24646875,0.9660625,-0.32784375,-0.41803125,1.22596875,0.01920381866970845,0.01970623655418575,True
3291,193457,0,193458,5046.0,43011.0,27778.0,0.000305,0.000366,-0.000915,0.28,-1.54,-3.8500000000000005,1.002125,0.14009375,0.07090625,1.2428125,0.96646875,-0.32840625,-0.4190625,1.22640625,0.019257323935882566,0.020065010685811548,True
3292,193458,0,193459,5045.0,43011.0,27780.0,0.004209,-0.000122,-0.000183,0.21000000000000002,-1.7500000000000002,-3.9375000000000004,1.002375,0.141375,0.06334375,1.2453125,0.9659375,-0.32846875000000003,-0.417875,1.2261250000000001,0.0193125081084275,0.019707642454554298,True
3293,193459,0,193460,5045.0,43013.0,27777.0,0.005124,-0.0013419999999999999,0.0013419999999999999,0.14,-1.8375000000000001,-4.0075,1.00140625,0.14259375,0.06384375,1.24671875,0.96621875,-0.3285,-0.41615625,1.22165625,0.019363863370121463,0.01965911403438041,True
3294,193460,0,193461,5043.0,43014.0,27775.0,0.0028669999999999998,0.000732,0.001037,0.2625,-1.6975000000000002,-4.0425,1.00078125,0.14346875,0.06384375,1.24590625,0.96746875,-0.32921875,-0.41403125,1.22540625,0.019428798962153278,0.019573785054444872,True
3295,193461,0,193462,5043.0,43014.0,27778.0,0.001647,0.000244,0.001647,0.2625,-1.5225000000000002,-3.9375000000000004,1.0016875,0.14303125,0.062875,1.24690625,0.96940625,-0.33015625,-0.41584375,1.225375,0.019448600951750977,0.019606889481343443,True
3296,193462,0,193463,5042.0,43015.0,27778.0,-0.000244,0.001464,0.000549,0.28,-1.2950000000000002,-3.99,1.0010000000000001,0.140625,0.06281250000000001,1.24621875,0.9673437500000001,-0.32925,-0.42165625,1.22040625,0.01931317241591911,0.01983766969121924,True
3297,193463,0,193464,5043.0,43014.0,27776.0,-0.0017079999999999999,6.1e-05,6.1e-05,0.31500000000000006,-0.8575,-4.165,0.99734375,0.14075000000000001,0.0609375,1.246125,0.96509375,-0.3283125,-0.41903125,1.22415625,0.01928051935373652,0.0196555197086289,True
3298,193464,0,193465,5040.0,43014.0,27777.0,-0.002806,0.000122,-0.001037,0.3325,-0.8575,-4.130000000000001,1.0011875000000001,0.14084375,0.06328125,1.2469375,0.96325,-0.32896875000000003,-0.40940625,1.22315625,0.019310826727910527,0.019364973287705433,True
3299,193465,0,193466,5041.0,43014.0,27778.0,-0.002745,-0.00042699999999999997,-0.000366,0.17500000000000002,-0.8925000000000001,-4.2,1.00996875,0.143125,0.06146875,1.2625,0.974875,-0.32203125,-0.4144375,1.22178125,0.01912489319739691,0.019492820590275736,True
3300,193466,0,193467,5039.0,43015.0,27776.0,-0.001464,-0.000305,-0.00061,0.22750000000000004,-0.9625000000000001,-4.340000000000001,0.993625,0.14221875,0.055906250000000005,1.254875,0.97796875,-0.32615625,-0.4146875,1.2240625,0.01925396660230693,0.01927502655932008,True
3301,193467,0,193468,5037.0,43014.0,27776.0,-0.000122,-0.0008539999999999999,-0.0008539999999999999,0.1925,-1.1025,-4.2525,0.99046875,0.14440625,0.05090625,1.24653125,0.97990625,-0.32940625,-0.41434375,1.2280625,0.01947488956907857,0.019056420470036185,True
3302,193468,0,193469,5038.0,43013.0,27778.0,0.0008539999999999999,-0.000183,-0.001281,0.31500000000000006,-1.225,-4.305000000000001,0.9841562500000001,0.14309375,0.0553125,1.22890625,0.97559375,-0.32409375,-0.41531250000000003,1.23621875,0.019206779286484208,0.01927581307837039,True
3303,193469,0,193470,5038.0,43015.0,27777.0,0.000793,0.001098,-0.0017079999999999999,0.3325,-1.2775,-4.357500000000001,0.99625,0.13140625,0.0691875,1.2344375,0.96421875,-0.3261875,-0.4185,1.2335625000000001,0.018810746649058758,0.019972049880213772,True
3304,193470,0,193471,5035.0,43017.0,27775.0,0.00183,0.0,-0.000732,0.12250000000000001,-1.1725,-4.322500000000001,0.99546875,0.13421875,0.058687500000000004,1.25515625,0.9633125,-0.32575,-0.41631250000000003,1.22834375,0.018908718127909726,0.01945420710027364,True
3305,193471,0,193472,5034.0,43018.0,27776.0,0.001586,-0.001037,0.001464,0.1925,-1.1900000000000002,-4.2875000000000005,0.97771875,0.15034375,0.06046875,1.26821875,0.9785625,-0.32940625,-0.4125625,1.22296875,0.019718935804280056,0.01937655049526243,True
3306,193472,0,193473,5035.0,43017.0,27778.0,0.000488,-0.0006709999999999999,0.0025009999999999998,0.14,-1.1900000000000002,-4.1825,1.0083125,0.14690625000000002,0.06375,1.26384375,0.96184375,-0.3314375,-0.41159375000000004,1.222875,0.0196594940187977,0.019472049013596258,True
3307,193473,0,193474,5036.0,43017.0,27778.0,-0.000122,0.002196,0.001281,0.385,-1.4175000000000002,-4.1825,1.0074375,0.15325,0.0673125,1.248625,0.96078125,-0.3299375,-0.41775,1.22465625,0.01985979207714775,0.019865159566299105,True
3308,193474,0,193475,5037.0,43016.0,27777.0,0.000183,0.0028669999999999998,0.000305,0.4025,-1.4700000000000002,-4.095000000000001,1.018875,0.14740625000000002,0.06684375000000001,1.25153125,0.96615625,-0.32746875000000003,-0.4179375,1.22534375,0.0195201155072905,0.019853488854249056,True
3309,193475,0,193476,5034.0,43015.0,27778.0,0.000366,0.002074,-0.000122,0.3325,-1.4875,-4.165,1.0138125,0.1378125,0.0684375,1.2376562500000001,0.9659375,-0.32890625,-0.41909375,1.225125,0.019183712790212262,0.019965165578677547,True
3310,193476,0,193477,5035.0,43019.0,27778.0,0.0008539999999999999,-0.000366,-0.000732,0.31500000000000006,-1.4525000000000001,-4.0600000000000005,1.01384375,0.14384375,0.064125,1.25778125,0.966875,-0.3293125,-0.41653125,1.2253125,0.019447990977961255,0.019685689383089584,True
3311,193477,0,193478,5035.0,43019.0,27779.0,-0.001098,-0.0021349999999999997,-0.000305,0.17500000000000002,-1.4000000000000001,-4.095000000000001,0.9918750000000001,0.14428125,0.05946875,1.24953125,0.9740625,-0.326125,-0.416375,1.2344375,0.019337492099543187,0.019488714029007172,True
3312,193478,0,193479,5034.0,43019.0,27779.0,-0.000976,-0.001098,0.0015249999999999999,0.21000000000000002,-1.2775,-4.0425,0.99403125,0.142375,0.06128125,1.247,0.97103125,-0.326625,-0.4199375,1.220875,0.019279287611824493,0.01970597795346528,True
3313,193479,0,193480,5035.0,43019.0,27777.0,-0.00061,0.000183,0.002379,0.35000000000000003,-1.3475000000000001,-4.0600000000000005,0.9979687500000001,0.14065625,0.06378125,1.24678125,0.96665625,-0.3294375,-0.4185,1.2255,0.01932201474037367,0.019750650121833854,True
3314,193480,0,193481,5035.0,43017.0,27777.0,0.000244,0.0,-0.000122,0.385,-1.2775,-4.0075,1.0026875,0.145125,0.06393750000000001,1.2465625,0.9666250000000001,-0.32921875,-0.41565625,1.22496875,0.019496875541883153,0.0196428777129429,True
3315,193481,0,193482,5035.0,43017.0,27780.0,0.000488,0.0011589999999999999,-0.0018909999999999999,0.4025,-1.2775,-3.9725000000000006,1.00484375,0.1423125,0.062625,1.25478125,0.9731875,-0.32590625,-0.4175,1.2309375,0.019247741284047742,0.019663151428278895,True
3316,193482,0,193483,5035.0,43018.0,27781.0,0.0008539999999999999,0.000183,-0.0015249999999999999,0.29750000000000004,-1.3125000000000002,-4.0075,1.000875,0.14296875,0.06134375,1.25071875,0.9725,-0.32578125,-0.41703125,1.23315625,0.019269679159841988,0.01959185763011218,True
3317,193483,0,193484,5035.0,43022.0,27779.0,0.0011589999999999999,-0.000366,-0.001769,0.12250000000000001,-1.05,-4.025,0.9974375,0.14084375,0.06275,1.2469375,0.9665625,-0.32506250000000003,-0.41781250000000003,1.2306875,0.019153342360374203,0.01968081702650473,True
3318,193484,0,193485,5036.0,43022.0,27778.0,-0.000183,-0.001037,-0.0021349999999999997,0.22750000000000004,-0.9625000000000001,-3.9200000000000004,0.9973125,0.1395625,0.06403125,1.23878125,0.9591875,-0.32390625,-0.4194375,1.2255,0.01905404276913787,0.019798521157581947,True
3319,193485,0,193486,5037.0,43022.0,27779.0,0.000793,-0.0008539999999999999,0.0,0.17500000000000002,-0.8750000000000001,-3.9025000000000003,1.0015625,0.14203125,0.0663125,1.246125,0.96603125,-0.32965625,-0.4176875,1.2258125,0.019387347488725823,0.019821696874448083,True
3320,193486,0,193487,5035.0,43024.0,27781.0,0.000305,6.1e-05,0.001403,0.1925,-0.7175,-3.9375000000000004,1.00009375,0.1410625,0.063,1.248375,0.96903125,-0.328625,-0.41534375,1.22246875,0.019305961598734003,0.019591931815418327,True
3321,193487,0,193488,5035.0,43026.0,27781.0,0.001037,0.0008539999999999999,0.001769,0.3325,-0.7175,-3.99,1.0033750000000001,0.14315625,0.06403125,1.25375,0.973875,-0.32759375,-0.4169375,1.23240625,0.019350454666318982,0.019698160344637818,True
3322,193488,0,193489,5035.0,43023.0,27781.0,-0.0017079999999999999,0.000976,0.0021349999999999997,0.35000000000000003,-0.525,-3.9550000000000005,0.99684375,0.1389375,0.0605,1.24653125,0.95996875,-0.32771875,-0.41803125,1.2256875,0.01918208011180662,0.0195974542378391,True
3323,193489,0,193490,5036.0,43024.0,27780.0,-0.0026839999999999998,0.000732,0.00122,0.47250000000000003,-0.5425000000000001,-3.7625,1.00290625,0.14303125,0.06209375,1.2493750000000001,0.9695625,-0.3301875,-0.4175,1.231875,0.019449860384347633,0.019641394491655573,True
3324,193490,0,193491,5036.0,43022.0,27779.0,-0.003477,6.1e-05,0.00061,0.385,-0.5775,-3.7625,0.9970625000000001,0.1410625,0.06346875,1.24659375,0.96675,-0.32265625000000003,-0.41840625000000004,1.22496875,0.019065300485015903,0.019734088910900973,True
3325,193491,0,193492,5036.0,43021.0,27781.0,-0.003538,0.000915,-0.0008539999999999999,0.3325,-0.6475000000000001,-3.6925000000000003,1.004625,0.1433125,0.06309375,1.23990625,0.9701875,-0.329625,-0.41631250000000003,1.231375,0.019438750083488752,0.0196346704687696,True
3326,193492,0,193493,5035.0,43021.0,27782.0,-0.001647,0.0,6.1e-05,0.42000000000000004,-0.8225000000000001,-3.6050000000000004,0.997625,0.1421875,0.06003125,1.2440625,0.9722500000000001,-0.32584375,-0.41690625000000003,1.2305625,0.019240082885100335,0.019533084786284093,True
3327,193493,0,193494,5036.0,43020.0,27783.0,-0.000305,0.000244,0.00183,0.31500000000000006,-1.54,-3.6225000000000005,0.9968125,0.1453125,0.06371875,1.24615625,0.9655625,-0.326875,-0.418125,1.2254375,0.019410117411299232,0.019733036422739256,True
3328,193494,0,193495,5036.0,43023.0,27783.0,0.003172,-0.000915,-0.000549,0.2625,-1.715,-3.6575,1.004,0.14290625,0.0664375,1.2521875,0.96625,-0.32903125,-0.41746875,1.2300312500000001,0.0193981213288137,0.019818034987758505,True
3329,193495,0,193496,5036.0,43021.0,27783.0,0.000976,-0.001952,-0.004148,0.31500000000000006,-1.9075000000000002,-3.6575,0.99734375,0.13928125,0.06371875,1.24625,0.9695,-0.32609375,-0.41725,1.22475,0.019130691708363578,0.019697908241100043,True
3330,193496,0,193497,5036.0,43022.0,27782.0,0.000549,0.000305,-0.003477,0.43750000000000006,-2.1700000000000004,-3.6575,1.00278125,0.14228125,0.0620625,1.24353125,0.9729375,-0.32606250000000003,-0.41675,1.227625,0.01925275617457614,0.019610001331053478,True
3331,193497,0,193498,5036.0,43024.0,27783.0,0.0034159999999999998,0.0006709999999999999,0.0037819999999999998,0.2625,-2.0825,-3.6400000000000006,0.9975625,0.13984375000000002,0.06321875,1.2519375,0.9570000000000001,-0.329125,-0.41659375,1.22534375,0.01927602205175895,0.019651082575758545,True
3332,193498,0,193499,5036.0,43022.0,27786.0,0.002623,-0.0015249999999999999,0.00061,0.31500000000000006,-2.24,-3.535,1.00421875,0.14228125,0.0623125,1.2485625,0.9715312500000001,-0.32615625,-0.41681250000000003,1.2356875,0.01925653585325466,0.01962274969347453,True
3333,193499,0,193500,5037.0,43024.0,27783.0,0.001281,-0.0008539999999999999,-0.000122,0.5075000000000001,-2.2225,-3.5175000000000005,0.9889375,0.1394375,0.06375,1.2394687500000001,0.96728125,-0.3190625,-0.41615625,1.22140625,0.018853522828028425,0.01965527436367057,True
3334,193500,0,193501,5037.0,43022.0,27785.0,0.000732,0.000793,-0.0006709999999999999,0.45500000000000007,-2.0650000000000004,-3.5000000000000004,1.00546875,0.1430625,0.0624375,1.25234375,0.97540625,-0.32409375,-0.41453125,1.240875,0.019205494552083778,0.019536264903713848,True
3335,193501,0,193502,5038.0,43025.0,27785.0,-0.00042699999999999997,0.00061,-0.0006709999999999999,0.5075000000000001,-1.9250000000000003,-3.3425000000000002,0.9977812500000001,0.141125,0.0663125,1.2469375,0.9597187500000001,-0.32559375,-0.42253125,1.2205,0.0191863251025476,0.02001609681633635,True
3336,193502,0,193503,5040.0,43026.0,27786.0,-0.000366,-0.0015249999999999999,0.001098,0.45500000000000007,-1.995,-3.325,1.0004375,0.13946875,0.06378125,1.239125,0.95721875,-0.33275,-0.41300000000000003,1.219125,0.01940671522947468,0.019529809937328474,True
3337,193503,0,193504,5037.0,43027.0,27785.0,0.000305,-0.001647,-0.0017079999999999999,0.42000000000000004,-2.0650000000000004,-3.5000000000000004,1.0030625,0.141125,0.06234375,1.2486875,0.9718125,-0.32765625,-0.41415625,1.2205,0.01926947853844326,0.019517365053318195,True
3338,193504,0,193505,5039.0,43026.0,27786.0,-0.0006709999999999999,-0.000793,-0.001037,0.43750000000000006,-2.2225,-3.4125000000000005,1.0040625,0.14346875,0.06281250000000001,1.24734375,0.98246875,-0.32406250000000003,-0.41371875,1.2218437500000001,0.019220936058686744,0.01951899482744717,True
3339,193505,0,193506,5040.0,43026.0,27789.0,-0.0018909999999999999,0.002257,-0.0018909999999999999,0.56,-2.3800000000000003,-3.43,0.99884375,0.140125,0.063375,1.2464375,0.97140625,-0.32990625,-0.4093125,1.219875,0.01931907361952946,0.019365047663673446,True
3340,193506,0,193507,5040.0,43026.0,27787.0,-0.002196,0.003111,-0.001586,0.5775,-2.205,-3.4650000000000003,0.99721875,0.139375,0.06075,1.24653125,0.96215625,-0.3343125,-0.41809375,1.22134375,0.01946582628952431,0.019610201963451795,True
3341,193507,0,193508,5040.0,43027.0,27786.0,0.000549,-0.0017079999999999999,0.009577,0.43750000000000006,-1.2075,-3.2375000000000003,0.9970625000000001,0.14096875,0.059812500000000005,1.246125,0.960375,-0.32890625,-0.4204375,1.23321875,0.019313445297196623,0.01966590483892846,True
3342,193508,0,193509,5042.0,43027.0,27787.0,-0.002257,-0.0053679999999999995,0.002257,0.22750000000000004,-2.1700000000000004,-3.115,0.99734375,0.1444375,0.06071875,1.246875,0.959375,-0.32937500000000003,-0.42234375,1.21909375,0.019474914583707967,0.019779530783158354,True
3343,193509,0,193510,5041.0,43029.0,27788.0,0.004575,-0.0046359999999999995,-0.000732,0.31500000000000006,-2.8525000000000005,-3.115,1.00390625,0.1405625,0.0635,1.2466875,0.96609375,-0.332,-0.412875,1.22078125,0.01942144090087128,0.01951326912541026,True
3344,193510,0,193511,5041.0,43029.0,27785.0,0.009699,0.0025009999999999998,0.000122,0.36750000000000005,-3.115,-3.3600000000000003,1.004125,0.1425625,0.06425,1.24703125,0.975,-0.323125,-0.414875,1.218,0.019145874553537015,0.01962430690306627,True
3345,193511,0,193512,5043.0,43032.0,27787.0,0.007259,0.005612,-0.001098,0.43750000000000006,-2.975,-3.4650000000000003,0.987,0.13934375000000002,0.06,1.2456562500000001,0.9664375000000001,-0.32721875,-0.4186875,1.23090625,0.019178620655104686,0.019603326345857038,True
3346,193512,0,193513,5043.0,43030.0,27786.0,-0.0023179999999999997,-0.001952,0.000793,0.5075000000000001,-1.54,-2.9400000000000004,0.99734375,0.138875,0.0614375,1.24653125,0.9673437500000001,-0.3276875,-0.41840625000000004,1.23109375,0.01917825111819609,0.0196509037112117,True
3347,193513,0,193514,5045.0,43032.0,27786.0,-0.005978,-0.002562,0.00366,0.47250000000000003,-1.1375000000000002,-3.0275000000000003,0.9895,0.13978125,0.063625,1.2469375,0.9671875,-0.32959375,-0.412625,1.2184062500000001,0.019292348438822576,0.019508348651568606,True
3348,193514,0,193515,5045.0,43031.0,27788.0,-0.005429,-0.002257,-0.000549,0.5775,-1.2775,-2.9575000000000005,0.99853125,0.14175000000000001,0.0643125,1.24621875,0.9665625,-0.32875,-0.41590625000000003,1.21940625,0.019339259107023585,0.019668274651898292,True
3349,193515,0,193516,5045.0,43029.0,27789.0,-0.002806,0.00061,-0.0028669999999999998,0.6475000000000001,-1.6800000000000002,-2.7825,0.9995,0.14221875,0.063125,1.24584375,0.96678125,-0.32875,-0.4189375,1.2186875,0.019358526434773673,0.019741338049618255,True
3350,193516,0,193517,5046.0,43031.0,27787.0,-0.0018909999999999999,0.003538,-0.003904,0.7525000000000001,-1.9425000000000001,-2.8875,0.99546875,0.1435625,0.06378125,1.2521875,0.9665312500000001,-0.32909375,-0.41600000000000004,1.2170625,0.019427614314651568,0.019650280553735258,True
3351,193517,0,193518,5048.0,43030.0,27787.0,-0.000305,-0.000244,-0.001098,0.45500000000000007,-1.7850000000000001,-3.08,1.000875,0.14234375,0.059937500000000005,1.24971875,0.974,-0.32656250000000003,-0.416875,1.231875,0.01927548333226283,0.01952799037550874,True
3352,193518,0,193519,5048.0,43033.0,27790.0,-0.002989,-0.0011589999999999999,0.0,0.5075000000000001,-1.5575,-2.9050000000000002,0.99815625,0.14171875,0.06084375,1.25303125,0.9665312500000001,-0.32653125,-0.41696875,1.23228125,0.019248531374566606,0.0195688705216531,True
3353,193519,0,193520,5051.0,43036.0,27790.0,-0.004148,-0.001403,0.001037,0.49000000000000005,-1.5925000000000002,-2.9050000000000002,0.9979687500000001,0.14246875,0.0623125,1.256625,0.97409375,-0.32634375,-0.416125,1.2297500000000001,0.019271802816648104,0.019595144602184006,True
3354,193520,0,193521,5050.0,43036.0,27790.0,-0.001464,0.000549,0.0008539999999999999,0.6125,-1.9075000000000002,-2.975,0.99703125,0.148,0.05771875,1.2543125,0.97159375,-0.326625,-0.41009375000000003,1.2255625,0.019510515741497227,0.019164715416138046,True
3355,193521,0,193522,5052.0,43035.0,27792.0,0.0013419999999999999,0.001037,0.00122,0.5775,-2.24,-3.0450000000000004,0.99571875,0.1434375,0.0580625,1.254375,0.973,-0.32621875,-0.4166875,1.2343125,0.019306586643269414,0.01944366941666432,True
3356,193522,0,193523,5053.0,43036.0,27790.0,0.004941,-0.000305,0.001647,0.5075000000000001,-2.6075000000000004,-3.08,0.986625,0.1388125,0.060375,1.24425,0.9698125,-0.32696875000000003,-0.4195,1.227,0.01914670318306715,0.019651303261737547,True
3357,193523,0,193524,5054.0,43036.0,27789.0,0.003477,-0.002562,0.000549,0.5075000000000001,-2.555,-2.9400000000000004,1.0014375,0.139875,0.064625,1.2453125,0.96578125,-0.33037500000000003,-0.41796875,1.21978125,0.01932769223655616,0.01976387777955527,True
3358,193524,0,193525,5054.0,43037.0,27789.0,0.0028669999999999998,-0.00122,-0.000732,0.7000000000000001,-2.555,-2.9225000000000003,1.0103125,0.14309375,0.06315625,1.25021875,0.96665625,-0.329625,-0.41784375,1.22525,0.019429758987242918,0.019698709063940178,True
3359,193525,0,193526,5055.0,43039.0,27789.0,-0.000488,-0.000244,-0.0018909999999999999,0.6475000000000001,-2.4850000000000003,-2.9925,1.00678125,0.1435625,0.061875,1.24675,0.9732500000000001,-0.32837500000000003,-0.4160625,1.232,0.019398644586825053,0.0195747164392293,True
3360,193526,0,193527,5055.0,43039.0,27788.0,-0.000549,0.001281,-0.000549,0.7525000000000001,-2.3975000000000004,-2.9575000000000005,0.9951875,0.1429375,0.05840625,1.2550937500000001,0.97328125,-0.32675,-0.41631250000000003,1.230625,0.019307449618218626,0.019442688161859005,True
3361,193527,0,193528,5058.0,43040.0,27787.0,-0.002806,-0.00042699999999999997,0.000488,0.665,-2.1175,-2.7825,0.98471875,0.14265625,0.06078125,1.2510000000000001,0.9711875,-0.32659375,-0.41646875,1.2259375000000001,0.019289589197007906,0.01954623352322395,True
3362,193528,0,193529,5058.0,43040.0,27789.0,-0.0026839999999999998,-0.0018909999999999999,0.003721,0.7175,-1.8725000000000003,-2.6425,0.9955,0.14328125,0.07059375,1.25778125,0.9715625,-0.3261875,-0.41609375,1.2253125,0.019298903702028934,0.019933061569277436,True
3363,193529,0,193530,5059.0,43041.0,27790.0,-0.001586,-0.00183,0.004575,0.7350000000000001,-1.9775000000000003,-2.5200000000000005,0.99834375,0.14321875,0.06153125,1.2545625,0.97128125,-0.326375,-0.41621875,1.2255,0.019303893407875198,0.01956691185034538,True
3364,193530,0,193531,5060.0,43043.0,27788.0,-0.000732,0.00042699999999999997,-0.00122,0.7175,-2.6250000000000004,-2.415,0.99509375,0.14778125,0.05940625,1.25009375,0.9703125,-0.327125,-0.41646875,1.2285625,0.019521675907037926,0.01948991907357611,True
3365,193531,0,193532,5060.0,43043.0,27788.0,0.003355,0.002379,-0.0021349999999999997,0.7175,-3.2025,-2.4850000000000003,0.996375,0.14259375,0.0618125,1.24878125,0.97103125,-0.3269375,-0.4165625,1.2196875,0.019300877884855006,0.01959223375526346,True
3366,193532,0,193533,5060.0,43043.0,27785.0,0.005246,0.001098,-0.0035989999999999998,0.7175,-3.5175000000000005,-2.45,0.9969687500000001,0.14159375,0.0616875,1.24665625,0.9669375,-0.32634375,-0.41628125,1.2325625,0.019235833580621833,0.019575820949392118,True
3367,193533,0,193534,5060.0,43044.0,27786.0,0.002257,-0.000793,-0.0034159999999999998,0.7525000000000001,-3.325,-2.45,0.9978125,0.13946875,0.06296875,1.24640625,0.96759375,-0.32934375,-0.41840625000000004,1.2256562500000001,0.019269426451340266,0.019713612554054384,True
3368,193534,0,193535,5062.0,43043.0,27784.0,-0.000793,-0.00042699999999999997,0.0011589999999999999,0.6475000000000001,-2.6425,-2.5200000000000005,1.00371875,0.1400625,0.06265625,1.24778125,0.9673437500000001,-0.33187500000000003,-0.41465625,1.2189375,0.019395854203590968,0.019550244538052836,True
3369,193535,0,193536,5059.0,43045.0,27784.0,-0.003172,-0.0021349999999999997,0.0028669999999999998,0.5950000000000001,-2.3625000000000003,-2.5900000000000003,1.00465625,0.14290625,0.06234375,1.24559375,0.99325,-0.32475,-0.41581250000000003,1.24778125,0.0192255316087524,0.019583876227751998,True
3370,193536,0,193537,5060.0,43045.0,27784.0,-0.002745,-0.001647,0.002196,0.7000000000000001,-2.345,-2.4850000000000003,0.99746875,0.1385625,0.06315625,1.24703125,0.9535625,-0.33490625,-0.4101875,1.2223125000000001,0.0194563621957656,0.019391237777260005,True
3371,193537,0,193538,5059.0,43046.0,27778.0,-0.001037,0.0026839999999999998,0.0013419999999999999,0.665,-2.3275,-2.7825,1.00403125,0.14521875,0.06275,1.2513125,0.9873437500000001,-0.3213125,-0.4101875,1.24275,0.019181993159291876,0.019374595135739945,True
3372,193538,0,193539,5058.0,43046.0,27782.0,-0.001586,0.000793,0.00244,0.6475000000000001,-2.1875,-2.8525000000000005,0.99715625,0.142625,0.060125,1.236625,0.9539062500000001,-0.32746875000000003,-0.4221875,1.2178125,0.019323578413804356,0.019748947550255275,True
3373,193539,0,193540,5058.0,43045.0,27782.0,-0.002074,-0.0008539999999999999,0.0015249999999999999,0.6125,-2.1525000000000003,-2.8875,0.9973125,0.13965625,0.06403125,1.2476562500000001,0.95184375,-0.33721875,-0.41809375,1.2144375,0.019594473998800706,0.01974457977498755,True
3374,193540,0,193541,5057.0,43048.0,27781.0,-0.000122,-0.001952,-0.000122,0.49000000000000005,-2.1350000000000002,-3.0625000000000004,1.00575,0.1400625,0.06428125,1.2473750000000001,0.970375,-0.3286875,-0.4095625,1.205375,0.019267377247539554,0.019412218060032824,True
3375,193541,0,193542,5057.0,43048.0,27780.0,-0.001098,0.000244,-0.002562,0.5075000000000001,-2.1875,-3.2725000000000004,1.00471875,0.14209375,0.06375,1.25203125,0.97946875,-0.3271875,-0.41271875,1.2120312500000001,0.01929040296992819,0.01951723422857194,True
3376,193542,0,193543,5057.0,43047.0,27779.0,0.002013,0.000732,-0.0042699999999999995,0.5425000000000001,-2.31,-3.4825000000000004,1.0034687500000001,0.14228125,0.06175,1.2526875,0.9831875,-0.32315625000000003,-0.41853125,1.24475,0.01913557168387635,0.01966871983752094,True
3377,193543,0,193544,5057.0,43048.0,27778.0,0.0015249999999999999,0.000122,-0.001403,0.43750000000000006,-2.2575000000000003,-3.6050000000000004,0.99721875,0.14175000000000001,0.0616875,1.2530625,0.9451875000000001,-0.32565625,-0.42565625,1.2396562500000001,0.01921453814837986,0.01995212513481598,True
3378,193544,0,193545,5056.0,43048.0,27779.0,0.0013419999999999999,-0.000549,0.000549,0.47250000000000003,-1.9600000000000002,-3.7625,0.9975625,0.142375,0.06128125,1.25071875,0.96325,-0.32446875000000003,-0.41550000000000004,1.2417500000000001,0.019192351323191796,0.019527810202535276,True
3379,193545,0,193546,5056.0,43050.0,27779.0,-0.00042699999999999997,-0.0011589999999999999,0.002196,0.4025,-1.7325000000000002,-3.7625,0.99671875,0.1425625,0.06084375,1.2463125,0.97103125,-0.32306250000000003,-0.41828125,1.227875,0.019143354172608817,0.019621569392808923,True
3380,193546,0,193547,5057.0,43053.0,27779.0,-0.001098,0.000366,0.006405,0.35000000000000003,-1.6800000000000002,-3.7625,0.98928125,0.13815625,0.06390625,1.247125,0.95778125,-0.32828125,-0.4175,1.22275,0.019172645005491297,0.019715624040135146,True
3381,193547,0,193548,5058.0,43053.0,27779.0,-0.000976,-0.000183,-0.005246,0.6475000000000001,-1.7850000000000001,-3.8500000000000005,1.00296875,0.14178125,0.06359375,1.2455,0.96546875,-0.33034375,-0.4199375,1.2255625,0.01940478132373284,0.019800675165528168,True
3382,193548,0,193549,5058.0,43055.0,27780.0,-0.0011589999999999999,0.0011589999999999999,-0.004209,0.77,-1.8550000000000002,-3.7625,1.00503125,0.14403125,0.06293750000000001,1.2458125,0.967,-0.324,-0.41375,1.22609375,0.019241541276105903,0.01952536992473504,True
3383,193549,0,193550,5059.0,43057.0,27778.0,0.00061,0.0026839999999999998,0.000488,0.8225000000000001,-2.0475000000000003,-3.8150000000000004,0.9979687500000001,0.1428125,0.060625,1.24653125,0.97475,-0.32565625,-0.416125,1.23221875,0.01925821631225262,0.019526030440948347,True
3384,193550,0,193551,5060.0,43057.0,27777.0,0.0032329999999999998,0.000488,0.0015249999999999999,0.77,-1.8200000000000003,-3.8325000000000005,0.99359375,0.139375,0.060875,1.23828125,0.96028125,-0.32721875,-0.4170625,1.23296875,0.019179905224472077,0.019573914757354618,True
3385,193551,0,193552,5061.0,43060.0,27776.0,0.0018909999999999999,-0.0015249999999999999,0.002196,0.8750000000000001,-1.8025000000000002,-3.9200000000000004,0.989125,0.14165625,0.06128125,1.2525625,0.96721875,-0.3269375,-0.417125,1.231,0.019262340358296232,0.01959306224627183,True
3386,193552,0,193553,5062.0,43059.0,27775.0,0.000976,0.000793,0.0011589999999999999,0.9275000000000001,-1.6975000000000002,-3.9375000000000004,0.9970625000000001,0.14234375,0.06275,1.24996875,0.97359375,-0.32290625,-0.4165625,1.225625,0.01912805958375143,0.019630629823506072,True
3387,193553,0,193554,5063.0,43062.0,27775.0,0.000122,0.00122,0.000915,0.805,-1.4700000000000002,-3.8150000000000004,1.003875,0.14075000000000001,0.066625,1.24625,0.967125,-0.32925,-0.41934375,1.225,0.019318310264393682,0.01990097502108344,True
3388,193554,0,193555,5065.0,43064.0,27775.0,-0.0011589999999999999,-0.000183,0.0013419999999999999,0.6125,-1.6450000000000002,-3.7450000000000006,0.9978125,0.140875,0.06128125,1.252,0.9671875,-0.3273125,-0.41709375,1.23178125,0.019245344096270392,0.019591807481183138,True
3389,193555,0,193556,5065.0,43066.0,27776.0,-0.000183,-0.0028669999999999998,0.000793,0.5075000000000001,-1.9250000000000003,-3.7100000000000004,0.99784375,0.14128125,0.0671875,1.25934375,0.9716875,-0.32690625,-0.41528125,1.22534375,0.01924566548613225,0.019760933534197972,True
3390,193556,0,193557,5065.0,43067.0,27774.0,0.001464,-0.0006709999999999999,-0.0011589999999999999,0.5950000000000001,-2.0300000000000002,-3.6575,1.00303125,0.14259375,0.06275,1.261875,0.9715625,-0.3285,-0.41603125,1.22559375,0.019363863370121463,0.01960929870615234,True
3391,193557,0,193558,5068.0,43066.0,27773.0,6.1e-05,0.0,-0.0013419999999999999,0.665,-2.1525000000000003,-3.5000000000000004,1.00009375,0.1436875,0.06306250000000001,1.26178125,0.96809375,-0.32990625,-0.41490625000000003,1.223875,0.01946549835143734,0.019576923421526553,True
3392,193558,0,193559,5067.0,43068.0,27774.0,0.002013,0.00061,-0.0017079999999999999,0.6475000000000001,-2.0300000000000002,-3.4650000000000003,1.0055625,0.14350000000000002,0.06259375,1.2600625,0.97015625,-0.32946875000000003,-0.41571875,1.22609375,0.01944015937462671,0.0195903509905888,True
3393,193559,0,193560,5069.0,43067.0,27773.0,0.000122,0.001098,-6.1e-05,0.5950000000000001,-1.8025000000000002,-3.535,0.9911875,0.14246875,0.056,1.254625,0.9729375,-0.32634375,-0.41603125,1.22684375,0.019271802816648104,0.019332840999701784,True
3394,193560,0,193561,5070.0,43070.0,27773.0,-0.001098,0.001647,0.00042699999999999997,0.6300000000000001,-1.6275000000000002,-3.43,0.9918750000000001,0.14240625,0.059562500000000004,1.24140625,0.9639062500000001,-0.32256250000000003,-0.41634375,1.22728125,0.019116766582468442,0.019491298733046385,True
3395,193561,0,193562,5069.0,43070.0,27772.0,-0.0013419999999999999,0.001647,0.000915,0.665,-1.4175000000000002,-3.3600000000000003,0.98428125,0.13984375000000002,0.05853125,1.25184375,0.97265625,-0.32625,-0.4129375,1.2313125,0.019160115101998866,0.01931224990847578,True
3396,193562,0,193563,5070.0,43073.0,27774.0,-0.001098,0.000366,0.0015249999999999999,0.6125,-1.5575,-3.3775000000000004,0.9916875,0.14046875,0.05665625,1.25603125,0.9653437500000001,-0.32396875,-0.4165625,1.228,0.019093820781199616,0.019381055379929096,True
3397,193563,0,193564,5072.0,43074.0,27773.0,-0.001281,-0.001098,0.000183,0.45500000000000007,-1.61,-3.4825000000000004,0.992375,0.148,0.0585625,1.26228125,0.973375,-0.32884375,-0.41721875,1.21721875,0.0195999347482348,0.019485480917027048,True
3398,193564,0,193565,5073.0,43075.0,27773.0,-0.00042699999999999997,-0.0018909999999999999,-0.0006709999999999999,0.43750000000000006,-1.5750000000000002,-3.3950000000000005,0.9986875000000001,0.14340625,0.06153125,1.258,0.97321875,-0.32325,-0.41596875,1.22503125,0.01918560430863474,0.01955687299935621,True
3399,193565,0,193566,5075.0,43076.0,27773.0,0.000183,-0.0011589999999999999,-0.001281,0.43750000000000006,-1.61,-3.43,1.00365625,0.14259375,0.06246875,1.2555,0.96946875,-0.329625,-0.41559375,1.225125,0.01940920791010959,0.019580211929107808,True
3400,193566,0,193567,5075.0,43075.0,27773.0,0.000549,-0.000793,-0.0011589999999999999,0.49000000000000005,-1.6450000000000002,-3.5000000000000004,0.99084375,0.1404375,0.06240625,1.2435,0.97375,-0.32603125,-0.416125,1.2301875,0.019175702982787216,0.01959898427780821,True
3401,193567,0,193568,5075.0,43076.0,27773.0,-0.000366,0.000122,0.000183,0.47250000000000003,-1.5925000000000002,-3.4475000000000002,0.9855,0.13646875,0.0623125,1.2461875,0.96821875,-0.32675,-0.4184375,1.2318437500000001,0.019041538635452743,0.019687991911849397,True
3402,193568,0,193569,5076.0,43077.0,27773.0,0.0011589999999999999,0.0,0.000122,0.5075000000000001,-1.54,-3.535,0.9973125,0.13975,0.06234375,1.2474687500000001,0.9665625,-0.32321875,-0.418875,1.218625,0.01903402484508758,0.0197068353886082,True
3403,193569,0,193570,5075.0,43080.0,27776.0,-0.000183,0.00183,0.0006709999999999999,0.35000000000000003,-1.3650000000000002,-3.6050000000000004,1.0029375,0.14421875,0.06090625,1.24684375,0.974,-0.329,-0.41600000000000004,1.23371875,0.019450809733240166,0.019532529898427263,True
3404,193570,0,193571,5076.0,43079.0,27775.0,0.000183,0.001037,0.0006709999999999999,0.49000000000000005,-1.1900000000000002,-3.6575,0.9921875,0.13934375000000002,0.06340625,1.2531875000000001,0.9665312500000001,-0.32734375,-0.415625,1.2263125,0.019183660361604418,0.019619864328682967,True
3405,193571,0,193572,5079.0,43080.0,27775.0,-0.0023179999999999997,0.001647,0.002989,0.49000000000000005,-1.155,-3.5875000000000004,0.9979375,0.141375,0.06353125,1.24684375,0.96465625,-0.32709375,-0.41665625,1.23153125,0.019257078334727097,0.019666390642658124,True
3406,193572,0,193573,5080.0,43080.0,27777.0,-0.001098,-0.000122,0.0011589999999999999,0.4025,-1.1900000000000002,-3.6575,1.0056875,0.14150000000000001,0.06203125,1.2492812500000001,0.96740625,-0.32965625,-0.41659375,1.23296875,0.019365511997318088,0.01960244761823094,True
3407,193573,0,193574,5079.0,43081.0,27778.0,0.000122,-0.0017079999999999999,-0.001647,0.35000000000000003,-1.3825,-3.6575,0.9974375,0.1388125,0.060875,1.2469375,0.96896875,-0.3265,-0.416625,1.23090625,0.019127803013174936,0.01955634736578049,True
3408,193574,0,193575,5081.0,43081.0,27778.0,0.000793,-0.000793,-0.0011589999999999999,0.385,-1.5050000000000001,-3.6400000000000006,0.99784375,0.14025,0.06040625,1.25184375,0.9593125,-0.32715625,-0.416875,1.2318437500000001,0.019213353389794584,0.019547188163923514,True
3409,193575,0,193576,5081.0,43084.0,27779.0,0.001037,-0.00122,-0.001769,0.35000000000000003,-1.5050000000000001,-3.7800000000000002,0.998375,0.14165625,0.0610625,1.25209375,0.97321875,-0.32625,-0.416125,1.2256875,0.01923462309233852,0.019543948927194632,True
3410,193576,0,193577,5082.0,43085.0,27782.0,0.0011589999999999999,-0.000549,-0.001586,0.36750000000000005,-1.4700000000000002,-3.7975000000000003,1.0041875,0.14196875,0.06346875,1.2461875,0.966125,-0.32928125,-0.40815625,1.2260312500000001,0.01936966386953992,0.019322434483350213,True
3411,193577,0,193578,5084.0,43085.0,27782.0,6.1e-05,-0.000366,-0.0025009999999999998,0.35000000000000003,-1.435,-3.7975000000000003,1.00671875,0.138125,0.06343750000000001,1.2361875,0.968125,-0.330125,-0.41884375,1.2261250000000001,0.019245688215740776,0.019750372087130454,True
3412,193578,0,193579,5085.0,43086.0,27780.0,-0.001098,0.00042699999999999997,-0.000793,0.385,-1.435,-3.8150000000000004,1.00459375,0.1393125,0.06306250000000001,1.24628125,0.96596875,-0.32809375,-0.41878125,1.2308125,0.019212612989868965,0.019732506101220758,True
3413,193579,0,193580,5086.0,43088.0,27781.0,-0.00061,0.001281,0.001037,0.3325,-1.3475000000000001,-3.8500000000000005,0.99034375,0.1385,0.06184375,1.24609375,0.967375,-0.3271875,-0.4196875,1.231,0.019142677302914694,0.019718976747757317,True
3414,193580,0,193581,5087.0,43086.0,27782.0,-0.00061,0.000976,0.001952,0.29750000000000004,-1.4000000000000001,-3.7450000000000006,0.99665625,0.13784375000000001,0.06293750000000001,1.2473750000000001,0.96434375,-0.32734375,-0.41546875,1.2241250000000001,0.019122001348790905,0.01959439136305749,True
3415,193581,0,193582,5087.0,43090.0,27782.0,0.00042699999999999997,-6.1e-05,0.002562,0.28,-1.5225000000000002,-3.8150000000000004,0.99615625,0.14100000000000001,0.06121875,1.2471875000000001,0.96621875,-0.32665625,-0.41725,1.23221875,0.019224025085650645,0.01959552160869877,True
3416,193582,0,193583,5087.0,43090.0,27782.0,0.00061,0.00061,0.001281,0.3325,-1.4525000000000001,-3.7975000000000003,0.9944375,0.13796875,0.06509375,1.24634375,0.9665312500000001,-0.327375,-0.41990625000000004,1.225,0.019128399590995743,0.01986084610787562,True
3417,193583,0,193584,5090.0,43094.0,27782.0,-6.1e-05,0.00042699999999999997,-0.000183,0.29750000000000004,-1.4175000000000002,-3.8675,1.00234375,0.1421875,0.06903125,1.2511875000000001,0.96709375,-0.3294375,-0.4169375,1.2251875,0.019384952899137102,0.01990293623022953,True
3418,193584,0,193585,5092.0,43093.0,27783.0,-0.000305,0.000183,-0.001647,0.31500000000000006,-1.4525000000000001,-3.9725000000000006,0.9975625,0.1413125,0.06196875,1.24675,0.9721875,-0.32640625,-0.41690625000000003,1.2316562500000001,0.019226791873542766,0.019612435543507892,True
3419,193585,0,193586,5092.0,43094.0,27783.0,-0.001647,-0.000183,-0.002623,0.15750000000000003,-1.1375000000000002,-4.025,1.00025,0.14103125,0.06640625,1.2468125,0.96621875,-0.3293125,-0.41725,1.2251875,0.019332389684254332,0.019807973870931413,True
3420,193586,0,193587,5093.0,43094.0,27784.0,-0.0015249999999999999,0.000976,-0.002074,0.1925,-1.1025,-4.130000000000001,1.002625,0.14009375,0.06371875,1.2459375,0.9661875,-0.32990625,-0.415375,1.2255,0.019317789192056584,0.019622625087675285,True
3421,193587,0,193588,5094.0,43094.0,27784.0,-0.000793,0.0,-0.00183,0.28,-1.155,-4.1825,1.00190625,0.14240625,0.06375,1.249625,0.96709375,-0.32990625,-0.41628125,1.2249375,0.01941283682504942,0.01966029327254739,True
3422,193588,0,193589,5095.0,43096.0,27787.0,-0.002074,-0.000793,-0.002562,0.22750000000000004,-1.05,-4.375,1.0020625,0.13934375000000002,0.06359375,1.24603125,0.97240625,-0.33137500000000003,-0.4191875,1.2245,0.01934616313299187,0.019770569761995562,True
3423,193589,0,193590,5096.0,43094.0,27786.0,-0.001952,0.000549,-0.00061,0.2625,-1.1725,-4.305000000000001,1.0009375,0.13925,0.06384375,1.25115625,0.96596875,-0.33075,-0.41915625,1.22271875,0.019317119283211573,0.0197795531940216,True
3424,193590,0,193591,5096.0,43096.0,27786.0,0.000122,-0.000122,0.000122,0.1925,-1.435,-4.322500000000001,0.9989687500000001,0.14190625,0.06121875,1.24703125,0.9683125,-0.32534375,-0.41565625,1.23609375,0.01920836164956559,0.01953152498204917,True
3425,193591,0,193592,5098.0,43098.0,27788.0,0.003538,-0.001037,-6.1e-05,0.22750000000000004,-1.7325000000000002,-4.340000000000001,0.989125,0.1345,0.062625,1.24640625,0.9636250000000001,-0.3266875,-0.41890625000000004,1.22340625,0.018958088724574607,0.01971960762984624,True
3426,193592,0,193593,5100.0,43097.0,27786.0,0.001952,0.000122,-0.000122,0.385,-1.8725000000000003,-4.340000000000001,1.00721875,0.13784375000000001,0.07178125,1.2359375000000001,0.96396875,-0.32896875000000003,-0.41609375,1.216875,0.01918751693904001,0.019981697522766104,True
3427,193593,0,193594,5100.0,43097.0,27785.0,0.0037819999999999998,0.0011589999999999999,0.001098,0.45500000000000007,-1.9600000000000002,-4.112500000000001,1.0216875,0.14571875,0.0655625,1.2658125,0.9635,-0.33134375,-0.41881250000000003,1.22340625,0.019606911352769,0.019836140680469207,True
3428,193594,0,193595,5103.0,43098.0,27787.0,0.0048189999999999995,0.000122,0.0034159999999999998,0.4025,-2.0125,-4.025,1.00290625,0.14446875,0.05234375,1.2485625,0.96075,-0.3284375,-0.41481250000000003,1.2263125,0.019438414407008258,0.019134132199458833,True
3429,193595,0,193596,5104.0,43099.0,27787.0,0.004331,-0.00183,0.003965,0.4025,-1.9775000000000003,-3.8500000000000005,0.98490625,0.13953125,0.05646875,1.23878125,0.97871875,-0.32584375,-0.40959375000000003,1.23715625,0.01913088831708047,0.01909341485865573,True
3430,193596,0,193597,5106.0,43103.0,27787.0,-0.000793,0.000793,-0.0021349999999999997,0.56,-1.7325000000000002,-3.6925000000000003,0.9856875,0.1314375,0.0635,1.2353125,0.97384375,-0.31803125,-0.41853125,1.2328125,0.0184829415415773,0.019740386719614842,True
3431,193597,0,193598,5107.0,43101.0,27786.0,-0.003294,0.002623,-0.0037819999999999998,0.7000000000000001,-1.54,-3.4650000000000003,0.99928125,0.1360625,0.07284375,1.2413125,0.96359375,-0.32425,-0.42190625,1.22596875,0.018924016156716034,0.020258451364745533,True
3432,193598,0,193599,5108.0,43103.0,27788.0,-0.0044529999999999995,0.0017079999999999999,-0.003111,0.77,-1.3825,-3.3775000000000004,1.02146875,0.138875,0.0698125,1.2350625,0.96396875,-0.32834375,-0.418875,1.2278125,0.019204708499730896,0.020012695097542374,True
3433,193599,0,193600,5110.0,43104.0,27787.0,-0.0040869999999999995,0.000183,0.0,0.665,-1.2950000000000002,-3.2725000000000004,1.0012812500000001,0.1274375,0.05321875,1.24590625,0.963,-0.325125,-0.4174375,1.23096875,0.01860473481636785,0.019275415366579726,True
3434,193600,0,193601,5110.0,43105.0,27789.0,-0.0032329999999999998,-0.002379,0.001098,0.7000000000000001,-1.3650000000000002,-3.22,0.98428125,0.142125,0.05921875,1.267125,0.97175,-0.3268125,-0.4165625,1.225375,0.01927656983421071,0.019486004633125567,True
3435,193601,0,193602,5111.0,43105.0,27788.0,-0.000793,-6.1e-05,0.000976,0.6300000000000001,-1.8375000000000001,-3.115,1.01728125,0.13659375,0.06840625,1.23903125,0.9741875,-0.32796875000000003,-0.40853125,1.22484375,0.019095819497877316,0.019539786934127796,True
3436,193602,0,193603,5114.0,43104.0,27787.0,0.000732,-0.000183,-0.000549,0.6825000000000001,-1.995,-3.2375000000000003,0.99875,0.136875,0.06293750000000001,1.2515625000000001,0.96709375,-0.32740625,-0.4195625,1.2330625,0.019084699997559337,0.019758748749081807,True
3437,193603,0,193604,5113.0,43104.0,27788.0,0.0011589999999999999,0.001464,-0.000915,0.6125,-2.205,-3.1850000000000005,0.99384375,0.138625,0.06559375,1.24615625,0.9741562500000001,-0.32871875,-0.41596875,1.2258437500000001,0.019209550441286596,0.019723260007858585,True
3438,193604,0,193605,5113.0,43107.0,27785.0,0.0015249999999999999,0.001098,0.000793,0.7000000000000001,-2.0650000000000004,-3.1675000000000004,1.00259375,0.14359375,0.0646875,1.2480625,0.975875,-0.327375,-0.41646875,1.22475,0.019359620592028528,0.01970621775517805,True
3439,193605,0,193606,5114.0,43107.0,27786.0,0.002074,0.000732,-0.000244,0.6475000000000001,-2.0125,-3.2725000000000004,1.0030937500000001,0.13971875,0.06271875,1.2465625,0.97340625,-0.328125,-0.4145625,1.2217500000000001,0.019230571612074504,0.019549039635668262,True
3440,193606,0,193607,5114.0,43106.0,27785.0,-0.000488,-0.000244,0.001098,0.6825000000000001,-1.7850000000000001,-3.325,0.99825,0.14128125,0.06334375,1.2428125,0.966125,-0.32690625,-0.4164375,1.22915625,0.01924566548613225,0.019649928454959904,True
3441,193607,0,193608,5114.0,43108.0,27786.0,-0.000122,-0.000793,0.000976,0.6475000000000001,-1.7675,-3.2900000000000005,1.0056875,0.1408125,0.06375,1.25028125,0.9726250000000001,-0.32971875,-0.4166875,1.2249375,0.019339773502313914,0.019676604371497975,True
3442,193608,0,193609,5115.0,43111.0,27785.0,-0.000732,-0.00042699999999999997,0.001464,0.665,-1.5750000000000002,-3.3425000000000002,1.0046875,0.1413125,0.06803125,1.2473125,0.97271875,-0.32971875,-0.4156875,1.2256875,0.019360324500257528,0.019811801326503706,True
3443,193609,0,193610,5113.0,43111.0,27783.0,-0.001586,0.000793,0.0017079999999999999,0.6825000000000001,-1.4700000000000002,-3.5000000000000004,0.9938125,0.1379375,0.0676875,1.23875,0.96690625,-0.32875,-0.41846875,1.22571875,0.019182551507989518,0.01990936675748761,True
3444,193610,0,193611,5111.0,43111.0,27782.0,-0.001464,0.000976,0.0013419999999999999,0.7000000000000001,-1.4875,-3.5175000000000005,0.99275,0.13828125,0.064125,1.24675,0.96578125,-0.32903125,-0.4174375,1.2255,0.01920801922600186,0.019722073620542697,True
3445,193611,0,193612,5113.0,43112.0,27784.0,6.1e-05,0.00042699999999999997,6.1e-05,0.5950000000000001,-1.5225000000000002,-3.5875000000000004,0.9998125,0.138375,0.06346875,1.2484375,0.96415625,-0.331,-0.41559375,1.21690625,0.019291233405943034,0.019621169360257724,True
3446,193612,0,193613,5112.0,43112.0,27783.0,-0.000122,-0.000732,-0.001464,0.49000000000000005,-1.5050000000000001,-3.7275000000000005,1.0026875,0.14059375,0.059937500000000005,1.24771875,0.97340625,-0.32209375,-0.41659375,1.2261875,0.01902334168907642,0.019516696508905956,True
3447,193613,0,193614,5113.0,43111.0,27783.0,0.000366,-0.001586,-0.002074,0.4025,-1.61,-3.6575,0.9970625000000001,0.1409375,0.061125,1.247,0.96759375,-0.327125,-0.41796875,1.2310625,0.019240354131447923,0.019620540713485842,True
3448,193614,0,193615,5114.0,43113.0,27784.0,-0.000122,0.0,-0.001403,0.385,-1.5925000000000002,-3.7275000000000005,0.98909375,0.13671875,0.06368750000000001,1.24696875,0.96725,-0.32659375,-0.41690625000000003,1.22559375,0.019045514746592912,0.01968282734427094,True
3449,193615,0,193616,5115.0,43118.0,27783.0,0.000183,0.00042699999999999997,-0.003111,0.45500000000000007,-1.8200000000000003,-3.7975000000000003,1.0044375,0.140875,0.06268750000000001,1.2488125,0.96328125,-0.323,-0.41681250000000003,1.2251875,0.019071455001438968,0.019638107963518992,True
3450,193616,0,193617,5114.0,43117.0,27782.0,0.001952,0.000122,-0.001403,0.49000000000000005,-2.1175,-3.7100000000000004,1.0048125,0.143875,0.06331250000000001,1.24821875,0.97178125,-0.32840625,-0.41681250000000003,1.2256562500000001,0.019412749242462193,0.01966370508025976,True
3451,193617,0,193618,5115.0,43116.0,27785.0,0.002196,-0.000549,-0.000305,0.45500000000000007,-2.0650000000000004,-3.6925000000000003,0.99703125,0.14178125,0.05971875,1.24646875,0.97175,-0.327125,-0.41909375,1.231375,0.01927503763802751,0.019608119158803755,True
3452,193618,0,193619,5115.0,43116.0,27783.0,0.001769,-0.0017079999999999999,0.001769,0.385,-2.0125,-3.6225000000000005,0.99809375,0.13953125,0.06384375,1.2470625,0.966125,-0.32684375,-0.417375,1.2136875,0.019171208759870464,0.01970804601231705,True
3453,193619,0,193620,5115.0,43119.0,27785.0,0.00122,-0.001769,0.002074,0.42000000000000004,-1.8025000000000002,-3.5700000000000003,1.00259375,0.138625,0.0665625,1.24659375,0.969375,-0.32896875000000003,-0.41659375,1.2239375000000001,0.01921962886322504,0.019788028377217846,True
3454,193620,0,193621,5115.0,43121.0,27783.0,-0.000183,0.00122,0.0018909999999999999,0.5425000000000001,-1.8550000000000002,-3.4650000000000003,1.0013750000000001,0.13934375000000002,0.06356250000000001,1.24865625,0.96615625,-0.32909375,-0.4145625,1.225375,0.01925421081498361,0.01958359892789396,True
3455,193621,0,193622,5117.0,43122.0,27784.0,0.000122,0.002257,-0.000183,0.665,-2.0300000000000002,-3.4125000000000005,1.0035625,0.14115625,0.05984375,1.24671875,0.97121875,-0.326125,-0.416625,1.2305,0.01920902938713009,0.019514111798825597,True
3456,193622,0,193623,5117.0,43122.0,27784.0,0.000183,0.0018909999999999999,-0.00042699999999999997,0.5425000000000001,-1.8550000000000002,-3.5525,0.99375,0.14053125,0.06390625,1.25390625,0.9674375000000001,-0.32915625,-0.41590625000000003,1.225625,0.019305540034911813,0.019651635908456196,True
3457,193623,0,193624,5118.0,43125.0,27785.0,-0.000305,0.000366,-0.000488,0.525,-1.7325000000000002,-3.6575,1.003625,0.1411875,0.06128125,1.24778125,0.97721875,-0.32753125,-0.40996875,1.2370625,0.01926700844336599,0.01930563716924054,True
3458,193624,0,193625,5117.0,43126.0,27784.0,-0.000915,-0.0008539999999999999,-0.000366,0.47250000000000003,-1.4875,-3.6400000000000006,0.99109375,0.13740625,0.06375,1.24684375,0.96646875,-0.33121875,-0.418375,1.22340625,0.01926023537148134,0.019744352357599554,True
3459,193625,0,193626,5119.0,43126.0,27787.0,-0.002074,-0.000549,0.000244,0.4025,-1.05,-3.6750000000000003,1.00515625,0.14196875,0.06325,1.25275,0.97284375,-0.32915625,-0.41140625000000003,1.22696875,0.019364625520048605,0.019444035511063603,True
3460,193626,0,193627,5122.0,43125.0,27786.0,-0.0026839999999999998,-0.000915,6.1e-05,0.5425000000000001,-1.225,-3.8325000000000005,0.99740625,0.1405,0.060125,1.25540625,0.96490625,-0.3256875,-0.41984375,1.23259375,0.019164412105516032,0.01965486572779566,True
3461,193627,0,193628,5122.0,43127.0,27786.0,-0.001403,-0.000122,0.00042699999999999997,0.47250000000000003,-1.2775,-3.8150000000000004,0.984125,0.141125,0.0610625,1.25365625,0.963875,-0.32084375,-0.41746875,1.2400625,0.018994766577537014,0.01959790570019671,True
3462,193628,0,193629,5122.0,43128.0,27787.0,0.001403,0.000244,0.00042699999999999997,0.36750000000000005,-1.33,-3.7625,0.9975625,0.14059375,0.06209375,1.2398437500000001,0.95153125,-0.3235,-0.42315625,1.2320312500000001,0.019080056324130984,0.019868439403690912,True
3463,193629,0,193630,5121.0,43129.0,27786.0,0.000122,0.000183,-0.0006709999999999999,0.43750000000000006,-1.5050000000000001,-3.7800000000000002,0.98728125,0.13928125,0.06375,1.2358437500000001,0.9595625,-0.33575,-0.41659375,1.219875,0.019519893572213717,0.01967284031991563,True
3464,193630,0,193631,5124.0,43130.0,27786.0,0.0023179999999999997,0.000244,-0.000488,0.31500000000000006,-1.6275000000000002,-4.0075,1.00503125,0.14146875,0.06703125,1.2534375,0.97921875,-0.3305625,-0.40728125,1.23078125,0.019400753681712044,0.019433237776124695,True
3465,193631,0,193632,5123.0,43132.0,27787.0,0.0015249999999999999,0.000122,-0.000793,0.35000000000000003,-1.4525000000000001,-3.9725000000000006,0.99965625,0.14184375,0.06103125,1.24690625,0.97203125,-0.3245,-0.419625,1.21996875,0.019171771259429794,0.01968319538076445,True
3466,193632,0,193633,5122.0,43131.0,27786.0,0.0013419999999999999,0.000122,0.000183,0.36750000000000005,-1.4000000000000001,-3.9200000000000004,0.99821875,0.1400625,0.06331250000000001,1.24478125,0.9598125000000001,-0.33125,-0.41853125,1.21971875,0.01937066529668636,0.019732708125104782,True
3467,193633,0,193634,5124.0,43130.0,27786.0,0.000793,0.000183,0.0006709999999999999,0.28,-1.3650000000000002,-3.9025000000000003,1.00475,0.13959375000000002,0.06328125,1.2456562500000001,0.9800625000000001,-0.32753125,-0.41365625,1.22125,0.0192014962471788,0.01953568507379963,True
3468,193634,0,193635,5125.0,43132.0,27785.0,0.000244,0.0006709999999999999,-0.000305,0.3325,-1.1375000000000002,-3.9200000000000004,1.00290625,0.14446875,0.059062500000000004,1.2510000000000001,0.97984375,-0.32459375,-0.4170625,1.23271875,0.019283466964376335,0.01949968387884497,True
3469,193635,0,193636,5127.0,43136.0,27786.0,-0.001952,0.000549,0.00061,0.28,-0.9275000000000001,-3.9025000000000003,0.99765625,0.140875,0.0605,1.25228125,0.96025,-0.327125,-0.418,1.2286875,0.019237784982812395,0.019596199524940617,True
3470,193636,0,193637,5127.0,43133.0,27787.0,-0.0011589999999999999,0.000488,0.000915,0.31500000000000006,-0.8575,-3.7100000000000004,0.997625,0.14040625,0.0615,1.24865625,0.9675312500000001,-0.32656250000000003,-0.41746875,1.23278125,0.019195837882972574,0.019615823200347087,True
3471,193637,0,193638,5126.0,43134.0,27786.0,-0.00122,-0.000244,-0.00061,0.4025,-0.8925000000000001,-3.8675,0.9973125,0.14659375,0.06165625,1.245875,0.96659375,-0.326625,-0.41975,1.22675,0.019452708709079045,0.019713807471411462,True
3472,193638,0,193639,5130.0,43135.0,27787.0,-0.000976,6.1e-05,-0.000183,0.35000000000000003,-0.9625000000000001,-3.9025000000000003,0.99671875,0.14028125,0.067625,1.2396875,0.9667187500000001,-0.3276875,-0.41621875,1.22659375,0.019236055625920057,0.019816489807620193,True
3473,193639,0,193640,5129.0,43137.0,27788.0,-0.0008539999999999999,-0.000183,-0.00042699999999999997,0.31500000000000006,-1.1900000000000002,-3.8850000000000002,0.995625,0.14496875,0.06346875,1.2536875,0.97140625,-0.3293125,-0.41590625000000003,1.21328125,0.019494231495444023,0.0196337172616724,True
3474,193640,0,193641,5130.0,43139.0,27787.0,0.000244,-0.000549,0.000366,0.35000000000000003,-1.4175000000000002,-3.7275000000000005,0.998,0.142875,0.06265625,1.2474375,0.96690625,-0.32603125,-0.41671875,1.23009375,0.01927590428463336,0.019633063922645216,True
3475,193641,0,193642,5131.0,43139.0,27787.0,0.001281,-0.000183,0.00042699999999999997,0.28,-1.4525000000000001,-3.8675,0.9978750000000001,0.138625,0.06409375,1.25096875,0.9670625,-0.3305625,-0.41559375,1.22553125,0.01928387393427505,0.019646767754726423,True
3476,193642,0,193643,5132.0,43138.0,27789.0,0.000915,0.00042699999999999997,0.000305,0.31500000000000006,-1.4175000000000002,-3.8150000000000004,1.0044375,0.141125,0.06256250000000001,1.25253125,0.97409375,-0.32721875,-0.4161875,1.232375,0.01925184110904581,0.01960789332896465,True
3477,193643,0,193644,5134.0,43138.0,27789.0,0.0013419999999999999,0.000183,0.000488,0.35000000000000003,-1.2950000000000002,-3.8325000000000005,0.99771875,0.140375,0.06096875,1.24659375,0.96796875,-0.32715625,-0.41896875,1.21675,0.019218491680465116,0.01965429027382657,True
3478,193644,0,193645,5137.0,43139.0,27788.0,-0.0008539999999999999,-0.0008539999999999999,0.001098,0.42000000000000004,-1.3125000000000002,-3.9375000000000004,1.00103125,0.1375,0.06234375,1.2418437500000001,0.9668125000000001,-0.32965625,-0.4159375,1.22496875,0.01920110359142456,0.01958889557282001,True
3479,193645,0,193646,5137.0,43142.0,27789.0,-0.000915,0.000122,-6.1e-05,0.36750000000000005,-1.225,-3.8675,0.99890625,0.14271875,0.06703125,1.24678125,0.973125,-0.327,-0.41831250000000003,1.2258125,0.01930853578328606,0.01987621994763152,True
3480,193646,0,193647,5138.0,43144.0,27790.0,-0.000488,-0.0006709999999999999,-0.001037,0.1925,-1.3475000000000001,-3.8150000000000004,1.0060625,0.14134375,0.06125,1.245,0.9620625,-0.32671875,-0.41675,1.223,0.019240675440455775,0.019576724994112647,True
3481,193647,0,193648,5138.0,43144.0,27789.0,-0.000244,0.000244,-0.001586,0.385,-1.4875,-3.8150000000000004,0.99865625,0.13684375000000001,0.064375,1.24090625,0.96659375,-0.33115625,-0.4170625,1.2258437500000001,0.01923459761596821,0.019717257143442215,True
3482,193648,0,193649,5141.0,43144.0,27790.0,0.000122,0.0,-0.002196,0.385,-1.54,-3.8675,1.008125,0.1430625,0.06346875,1.255875,0.97090625,-0.32853125,-0.41665625,1.2169375,0.01938439049829611,0.019663830914603633,True
3483,193649,0,193650,5141.0,43143.0,27792.0,-0.000122,0.000732,-0.000976,0.36750000000000005,-1.5750000000000002,-3.8500000000000005,0.9945,0.14075000000000001,0.05871875,1.24421875,0.9726875,-0.32709375,-0.4175625,1.23340625,0.01923138681536918,0.01950568366518976,True
3484,193650,0,193651,5141.0,43147.0,27792.0,-0.00061,-0.000305,0.000122,0.35000000000000003,-1.5050000000000001,-3.8325000000000005,0.9959375,0.13721875,0.06521875,1.2435,0.96625,-0.32771875,-0.41521875,1.2178437500000001,0.019111430248674673,0.01967778805995748,True
3485,193651,0,193652,5143.0,43147.0,27792.0,0.001647,0.000122,0.000488,0.31500000000000006,-1.6450000000000002,-3.7975000000000003,1.0014375,0.13978125,0.06396875,1.2533125,0.9664375000000001,-0.32909375,-0.4156875,1.22115625,0.01927219340013436,0.019645412401350565,True
3486,193652,0,193653,5143.0,43148.0,27791.0,0.00122,-0.00042699999999999997,0.00183,0.42000000000000004,-1.6275000000000002,-3.6925000000000003,1.00134375,0.14128125,0.06396875,1.2439375,0.9706250000000001,-0.3291875,-0.41615625,1.22465625,0.019337626873071695,0.019664233595326864,True
3487,193653,0,193654,5144.0,43147.0,27793.0,-0.00042699999999999997,0.001281,0.00122,0.43750000000000006,-1.6275000000000002,-3.6750000000000003,0.99584375,0.141625,0.06021875,1.25384375,0.9718125,-0.327,-0.4124375,1.2298125,0.019263575451144817,0.019361288687375033,True
3488,193654,0,193655,5144.0,43149.0,27791.0,0.000122,0.00061,0.0011589999999999999,0.45500000000000007,-1.6975000000000002,-3.7100000000000004,0.99503125,0.14046875,0.06090625,1.25053125,0.9714375000000001,-0.32778125,-0.416125,1.228875,0.019247542354484136,0.019537549467820957,True
3489,193655,0,193656,5146.0,43149.0,27791.0,-0.000732,-0.001037,0.000976,0.43750000000000006,-1.7325000000000002,-3.6400000000000006,0.9939687500000001,0.14178125,0.06259375,1.25196875,0.96946875,-0.326625,-0.41615625,1.2250625,0.019254880198136815,0.01960791842491588,True
3490,193656,0,193657,5146.0,43149.0,27789.0,-0.000122,-0.00122,0.000366,0.3325,-1.7675,-3.6400000000000006,1.0045,0.1411875,0.06440625,1.24596875,0.96996875,-0.32978125,-0.41090625000000003,1.225875,0.01935770589799282,0.019471317251894327,True
3491,193657,0,193658,5146.0,43149.0,27791.0,0.000244,-0.0008539999999999999,0.001281,0.35000000000000003,-1.7675,-3.6225000000000005,0.9975937500000001,0.13753125,0.0606875,1.25059375,0.96765625,-0.32915625,-0.41821875000000003,1.2305,0.01918223119636547,0.01961266114056743,True
3492,193658,0,193659,5147.0,43153.0,27791.0,0.0017079999999999999,-0.001098,-0.004026,0.28,-1.8025000000000002,-3.5700000000000003,0.9933125,0.140375,0.06021875,1.24371875,0.96715625,-0.32696875000000003,-0.41631250000000003,1.23478125,0.019210932311490722,0.0195169213205311,True
3493,193659,0,193660,5149.0,43153.0,27793.0,-0.000915,-0.0013419999999999999,-0.006222,0.47250000000000003,-2.0300000000000002,-3.5700000000000003,0.99825,0.14125000000000001,0.0625,1.25303125,0.958875,-0.3268125,-0.41681250000000003,1.2441875,0.019240601291270695,0.01963042882849676,True
3494,193660,0,193661,5151.0,43151.0,27793.0,0.000366,0.003294,0.001647,0.385,-1.9075000000000002,-3.535,0.998625,0.14146875,0.06306250000000001,1.25221875,0.9710625,-0.32256250000000003,-0.4174375,1.24690625,0.019078222124005232,0.019678559635915933,True
3495,193661,0,193662,5152.0,43154.0,27793.0,0.003904,0.0015249999999999999,0.0053679999999999995,0.49000000000000005,-1.8025000000000002,-3.4650000000000003,1.00475,0.14140625,0.06340625,1.2515625000000001,0.9675312500000001,-0.323,-0.41371875,1.2394375,0.019093296468363278,0.019543315169877593,True
3496,193662,0,193663,5152.0,43154.0,27793.0,0.0006709999999999999,0.000793,0.0053679999999999995,0.45500000000000007,-1.8550000000000002,-3.6400000000000006,1.0033750000000001,0.138375,0.06365625,1.2469375,0.9859687500000001,-0.3298125,-0.41625,1.21465625,0.01924336654875577,0.01965519889417908,True
3497,193663,0,193664,5153.0,43154.0,27792.0,-0.000488,0.000122,0.000549,0.4025,-1.715,-3.6750000000000003,0.9986875000000001,0.141125,0.06421875,1.24640625,0.95421875,-0.32328125,-0.4146875,1.21646875,0.01909307569265557,0.01961549784325521,True
3498,193664,0,193665,5154.0,43155.0,27793.0,-0.002562,-0.00042699999999999997,-0.000183,0.45500000000000007,-1.4875,-3.6750000000000003,0.9975,0.1381875,0.059750000000000004,1.2530000000000001,0.96503125,-0.33975,-0.42409375,1.2338437500000001,0.019636089113487198,0.01981010042593699,True
3499,193665,0,193666,5155.0,43154.0,27795.0,-0.002806,-0.001769,-0.000122,0.36750000000000005,-1.4000000000000001,-3.535,0.9976875000000001,0.1410625,0.06384375,1.24578125,0.9601875,-0.3229375,-0.41490625000000003,1.22878125,0.019076643189170715,0.01960892231564477,True
3500,193666,0,193667,5158.0,43156.0,27793.0,-0.000366,-0.001281,-0.0008539999999999999,0.2625,-1.4700000000000002,-3.535,0.99815625,0.1411875,0.06371875,1.24878125,0.97228125,-0.33187500000000003,-0.42003125,1.23615625,0.019442089851275334,0.019809556959514536,True
3501,193667,0,193668,5158.0,43155.0,27795.0,6.1e-05,-0.001586,-0.0025009999999999998,0.35000000000000003,-1.7675,-3.7275000000000005,0.99771875,0.1389375,0.06153125,1.24984375,0.9788125,-0.33715625,-0.42721875000000004,1.2416562500000001,0.01956242319806777,0.020008417863781564,True
3502,193668,0,193669,5158.0,43158.0,27796.0,0.002562,6.1e-05,-0.0028669999999999998,0.36750000000000005,-1.9425000000000001,-3.9375000000000004,1.00184375,0.1398125,0.06209375,1.24890625,0.98871875,-0.32996875000000003,-0.42075,1.24196875,0.019308748598372123,0.019771864090988196,True
3503,193669,0,193670,5159.0,43160.0,27796.0,0.002989,0.000305,-6.1e-05,0.35000000000000003,-1.9250000000000003,-3.8850000000000002,1.0064375,0.13825,0.06028125,1.24609375,0.987,-0.33859375,-0.42375,1.221,0.019592083047115242,0.019818056195301706,True
3504,193670,0,193671,5160.0,43161.0,27796.0,0.00122,0.0015249999999999999,-0.000305,0.45500000000000007,-1.6275000000000002,-3.7800000000000002,0.99828125,0.14078125,0.06184375,1.25390625,0.95321875,-0.32459375,-0.41571875,1.2376562500000001,0.0191318714212853,0.019559633074492228,True
3505,193671,0,193672,5162.0,43161.0,27795.0,-0.001464,0.004331,-0.0015249999999999999,0.45500000000000007,-1.4525000000000001,-3.8325000000000005,1.003625,0.13975,0.0620625,1.246625,0.9798125,-0.32571875,-0.41578125,1.228625,0.019134840568688232,0.019571102194405516,True
3506,193672,0,193673,5163.0,43160.0,27797.0,-0.002379,0.0040869999999999995,-0.0015249999999999999,0.6300000000000001,-1.2950000000000002,-3.7275000000000005,0.99853125,0.14125000000000001,0.0618125,1.25059375,0.970875,-0.32665625,-0.41771875,1.22625,0.0192343018782123,0.019638658914440974,True
3507,193673,0,193674,5164.0,43159.0,27795.0,-0.00244,0.001952,0.000488,0.6300000000000001,-1.0325000000000002,-3.6750000000000003,1.00046875,0.14090625,0.0650625,1.2525,0.97471875,-0.329125,-0.41090625000000003,1.22540625,0.019319693988172612,0.019498200727390037,True
3508,193674,0,193675,5165.0,43162.0,27798.0,-0.003111,-0.002074,0.0021349999999999997,0.385,-1.12,-3.6050000000000004,1.00196875,0.14153125,0.062125,1.24725,0.9723437500000001,-0.32975,-0.41546875,1.2259375000000001,0.019370575118938745,0.01956111327987508,True
3509,193675,0,193676,5167.0,43164.0,27796.0,-0.00122,-0.0044529999999999995,0.002623,0.12250000000000001,-1.2950000000000002,-3.7275000000000005,1.0026875,0.13875,0.06334375,1.2463125,0.96665625,-0.32406250000000003,-0.41846875,1.2255625,0.019026940914989018,0.01973147886269486,True
3510,193676,0,193677,5166.0,43164.0,27797.0,0.0006709999999999999,-0.002928,0.00042699999999999997,0.24500000000000002,-1.4875,-3.8500000000000005,1.0033750000000001,0.1400625,0.06475,1.24678125,0.9668125000000001,-0.3304375,-0.4185625,1.23128125,0.01933791778302384,0.019792831785245345,True
3511,193677,0,193678,5166.0,43166.0,27798.0,0.001952,0.0006709999999999999,-0.001281,0.35000000000000003,-1.6275000000000002,-3.9550000000000005,0.9980625000000001,0.14396875,0.06184375,1.25096875,0.9669375,-0.32740625,-0.41681250000000003,1.23334375,0.01937629499651242,0.01960355185591895,True
3512,193678,0,193679,5168.0,43165.0,27799.0,0.0023179999999999997,0.001647,-0.00244,0.4025,-1.6450000000000002,-3.8500000000000005,0.99765625,0.14090625,0.06315625,1.24646875,0.97040625,-0.32946875000000003,-0.4123125,1.22521875,0.01933354997732945,0.019476596082407188,True
3513,193679,0,193680,5166.0,43163.0,27797.0,0.0025009999999999998,0.001037,-0.002379,0.22750000000000004,-1.715,-3.9025000000000003,0.998,0.14015625,0.06078125,1.2475625000000001,0.9673437500000001,-0.3265,-0.417,1.22921875,0.019183041127987997,0.019567565630503336,True
3514,193680,0,193681,5168.0,43165.0,27797.0,0.0006709999999999999,0.000793,-0.001586,0.28,-1.4875,-3.9550000000000005,0.99821875,0.141375,0.06256250000000001,1.24625,0.9745625,-0.32753125,-0.41496875,1.225375,0.019274715760564484,0.019558953971628573,True
3515,193681,0,193682,5168.0,43163.0,27797.0,-0.0023179999999999997,0.000793,0.000732,0.3325,-1.1375000000000002,-4.0075,1.00884375,0.13246875,0.05896875,1.24684375,0.966875,-0.3265,-0.41871875000000003,1.2326875,0.018867027726964424,0.019562349068785602,True
3516,193682,0,193683,5168.0,43165.0,27795.0,-0.0042699999999999995,0.000732,0.002623,0.36750000000000005,-1.0325000000000002,-3.8850000000000002,0.994125,0.1439375,0.06409375,1.25990625,0.9739375,-0.32840625,-0.41590625000000003,1.22521875,0.019415318255794088,0.019659315328506392,True
3517,193683,0,193684,5166.0,43165.0,27793.0,-0.002806,0.001464,0.0026839999999999998,0.3325,-1.1025,-3.9025000000000003,1.01484375,0.13565625,0.0656875,1.24065625,0.966875,-0.32815625,-0.41965625,1.2285625,0.01906484384734252,0.01987512621108252,True
3518,193684,0,193685,5166.0,43165.0,27795.0,0.0006709999999999999,-0.0006709999999999999,0.0006709999999999999,0.35000000000000003,-1.3650000000000002,-3.9025000000000003,0.9999375,0.13621875,0.0660625,1.240375,0.96740625,-0.32756250000000003,-0.4175,1.2316562500000001,0.019064024601724898,0.019803931606429813,True
3519,193685,0,193686,5164.0,43164.0,27795.0,0.0021349999999999997,-0.0013419999999999999,0.000549,0.07,-1.8375000000000001,-3.9025000000000003,0.99159375,0.139875,0.05621875,1.26146875,0.96790625,-0.32615625,-0.41625,1.2253125,0.019157619691766964,0.0193505861874776,True
3520,193686,0,193687,5166.0,43166.0,27793.0,0.002989,-0.002013,0.0,0.21000000000000002,-2.0475000000000003,-3.8850000000000002,1.0110000000000001,0.13790625,0.065625,1.2405,0.9665,-0.32556250000000003,-0.41653125,1.23159375,0.019052745440110586,0.01974712317090496,True
3521,193687,0,193688,5165.0,43168.0,27793.0,0.004331,-0.001403,-0.000976,0.22750000000000004,-2.0125,-4.0075,0.9916875,0.14125000000000001,0.059750000000000004,1.2614375,0.9723437500000001,-0.3266875,-0.4138125,1.223625,0.019235561767297748,0.01939731862854276,True
3522,193688,0,193689,5166.0,43163.0,27793.0,0.0035989999999999998,-0.000366,-0.0018909999999999999,0.21000000000000002,-1.7675,-3.8850000000000002,1.0129375,0.1429375,0.066,1.2330625,0.9685625,-0.33037500000000003,-0.41909375,1.229875,0.019453563703806458,0.01986534614946552,True
3523,193689,0,193690,5166.0,43166.0,27794.0,-0.001403,0.0013419999999999999,-0.001586,0.35000000000000003,-1.3825,-3.9550000000000005,1.0013125,0.1434375,0.0660625,1.2413125,0.967,-0.32659375,-0.42046875,1.2333125,0.019321704256273036,0.019923092180611807,True
3524,193690,0,193691,5165.0,43167.0,27794.0,-0.002928,0.001952,-0.000976,0.385,-1.12,-3.8500000000000005,0.99165625,0.1380625,0.0576875,1.243,0.9680625,-0.3246875,-0.41665625,1.23128125,0.019023882629530184,0.01942705606956317,True
3525,193691,0,193692,5165.0,43166.0,27793.0,-0.003538,0.0008539999999999999,0.000183,0.31500000000000006,-1.0150000000000001,-3.9200000000000004,0.991375,0.13915625,0.06096875,1.25203125,0.9731562500000001,-0.32678125,-0.41690625000000003,1.22628125,0.0191532737196788,0.01957148031397303,True
3526,193692,0,193693,5166.0,43169.0,27795.0,-0.003843,-0.000183,0.00122,0.28,-1.1025,-3.9025000000000003,0.99021875,0.14071875,0.06296875,1.25253125,0.97509375,-0.32775,-0.41746875,1.2251875,0.019256558867959427,0.019675974807994788,True
3527,193693,0,193694,5165.0,43165.0,27794.0,-0.0026839999999999998,-0.000976,0.0011589999999999999,0.3325,-1.1900000000000002,-3.8850000000000002,1.0040625,0.13825,0.06584375,1.24628125,0.9705312500000001,-0.32915625,-0.41940625000000004,1.224625,0.019211773938933866,0.0198714905281532,True
3528,193694,0,193695,5164.0,43166.0,27796.0,0.0015249999999999999,-0.00061,0.001037,0.17500000000000002,-1.6450000000000002,-3.8850000000000002,0.99803125,0.14140625,0.06109375,1.25459375,0.96628125,-0.32734375,-0.41653125,1.2320625,0.019268441504223,0.019561541936879343,True
3529,193695,0,193696,5164.0,43166.0,27795.0,0.0028669999999999998,0.000366,-0.00122,0.22750000000000004,-2.0300000000000002,-3.7975000000000003,0.99571875,0.140875,0.06253125,1.2525,0.975375,-0.32809375,-0.41621875,1.2248125,0.01927683914815562,0.019607868233077655,True
3530,193696,0,193697,5164.0,43169.0,27796.0,0.0040869999999999995,0.000549,-0.00244,0.29750000000000004,-2.2575000000000003,-3.9200000000000004,1.0056875,0.1405,0.06328125,1.2485,0.9697187500000001,-0.330125,-0.41609375,1.2256875,0.01934330382601816,0.01963356648726826,True
3531,193697,0,193698,5166.0,43168.0,27796.0,0.004148,0.0013419999999999999,-0.0018909999999999999,0.31500000000000006,-2.24,-3.8325000000000005,1.003875,0.14115625,0.063,1.2463125,0.97259375,-0.32196875,-0.41600000000000004,1.22503125,0.01904142731044336,0.019618283093053735,True
3532,193698,0,193699,5167.0,43171.0,27798.0,0.0037819999999999998,-6.1e-05,0.000305,0.35000000000000003,-2.0825,-3.8675,1.0056875,0.14071875,0.06268750000000001,1.24634375,0.96646875,-0.32887500000000003,-0.41665625,1.215,0.01930190976771429,0.01963183431392249,True
3533,193699,0,193700,5167.0,43169.0,27796.0,-0.0017079999999999999,-0.000915,0.002196,0.3325,-1.225,-3.7800000000000002,0.9928750000000001,0.13803125,0.06325,1.2470937500000001,0.9675,-0.329625,-0.4191875,1.2257500000000001,0.01922167933126795,0.019756492717048837,True
3534,193700,0,193701,5168.0,43170.0,27798.0,-0.00366,-0.00061,0.0026839999999999998,0.35000000000000003,-1.1025,-3.7625,1.00553125,0.14303125,0.06306250000000001,1.2475,0.9670625,-0.32953125,-0.41709375,1.22546875,0.019423411620394456,0.019664758423594126,True
3535,193701,0,193702,5167.0,43172.0,27800.0,-0.004026,0.0008539999999999999,0.0011589999999999999,0.36750000000000005,-1.05,-3.6225000000000005,1.0034687500000001,0.140875,0.06346875,1.24640625,0.96821875,-0.32965625,-0.41681250000000003,1.22615625,0.019339823183897223,0.019670104359444954,True
3536,193702,0,193703,5168.0,43171.0,27800.0,-0.0030499999999999998,0.000366,0.001098,0.43750000000000006,-1.0675000000000001,-3.7275000000000005,0.9973125,0.1394375,0.06796875000000001,1.24103125,0.9667187500000001,-0.32859375,-0.41625,1.21965625,0.01923790806856644,0.01983182306865305,True
3537,193703,0,193704,5169.0,43170.0,27799.0,-0.001403,0.000732,-0.00183,0.4025,-1.2950000000000002,-3.7275000000000005,1.002,0.14071875,0.06393750000000001,1.2533750000000001,0.97178125,-0.330125,-0.41681250000000003,1.22478125,0.019352294737491074,0.019689302197000533,True
3538,193704,0,193705,5169.0,43172.0,27800.0,0.001952,-0.0008539999999999999,-0.0018909999999999999,0.2625,-1.6450000000000002,-3.8850000000000002,0.99840625,0.1404375,0.059812500000000005,1.24890625,0.9745312500000001,-0.32721875,-0.41696875,1.23071875,0.01922358058296327,0.01952663554930421,True
3539,193705,0,193706,5170.0,43174.0,27799.0,0.0015249999999999999,-0.000488,-0.004697,0.29750000000000004,-1.5925000000000002,-3.8850000000000002,0.9926875000000001,0.14021875,0.05990625,1.24065625,0.9645625,-0.327125,-0.41596875,1.2321875,0.01921080892213938,0.01949031819595526,True
3540,193706,0,193707,5171.0,43172.0,27800.0,-0.000549,-0.000549,-0.003965,0.28,-1.4875,-3.7450000000000006,0.9978750000000001,0.136625,0.06134375,1.2465,0.96625,-0.32756250000000003,-0.4201875,1.2329375,0.019080723767537337,0.019718573004404653,True
3541,193707,0,193708,5170.0,43173.0,27801.0,-0.000183,0.0006709999999999999,-0.001037,0.4025,-1.4875,-3.8325000000000005,0.99746875,0.141625,0.06121875,1.25153125,0.96703125,-0.32653125,-0.41653125,1.22528125,0.019244677557553547,0.019566661419197294,True
3542,193708,0,193709,5171.0,43176.0,27801.0,0.001952,-0.000244,0.000976,0.4025,-1.5925000000000002,-3.7625,0.998,0.13990625,0.06184375,1.25209375,0.9736250000000001,-0.3274375,-0.4098125,1.22890625,0.01921056214819173,0.01932240364402635,True
3543,193709,0,193710,5173.0,43174.0,27800.0,0.000244,0.000793,0.003294,0.3325,-1.5575,-3.9375000000000004,0.9980625000000001,0.1405,0.06075,1.2500625,0.971875,-0.32121875,-0.4169375,1.23134375,0.018984194614013742,0.019563776169718255,True
3544,193710,0,193711,5172.0,43173.0,27800.0,-0.0011589999999999999,0.001281,0.0035989999999999998,0.36750000000000005,-1.3825,-3.8150000000000004,0.9978750000000001,0.14128125,0.06340625,1.24609375,0.9722500000000001,-0.32656250000000003,-0.41600000000000004,1.2261875,0.019231806795555268,0.019634921772608126,True
3545,193711,0,193712,5173.0,43178.0,27800.0,-0.000305,0.0017079999999999999,0.002623,0.4025,-1.3475000000000001,-3.7975000000000003,1.0015,0.14100000000000001,0.06343750000000001,1.249875,0.9706250000000001,-0.32984375,-0.416125,1.2275,0.01935251844763697,0.019641220709674445,True
3546,193712,0,193713,5174.0,43176.0,27801.0,-0.0028669999999999998,0.000305,0.002623,0.385,-1.33,-3.8500000000000005,0.9991875,0.1415625,0.063125,1.25065625,0.9750625,-0.32646875000000003,-0.4160625,1.2257500000000001,0.019239588565438625,0.019625912245268867,True
3547,193713,0,193714,5175.0,43176.0,27800.0,-0.0011589999999999999,-0.001098,0.000305,0.29750000000000004,-1.2600000000000002,-3.8150000000000004,1.00190625,0.14100000000000001,0.067375,1.2468125,0.97678125,-0.33175,-0.4159375,1.21046875,0.01942934643007593,0.019794959747091428,True
3548,193714,0,193715,5175.0,43177.0,27800.0,-0.000915,-0.00183,-0.003538,0.21000000000000002,-1.4525000000000001,-3.8150000000000004,1.00271875,0.1410625,0.06303125,1.2510625,0.97021875,-0.32984375,-0.415125,1.2222187500000001,0.019355087309181753,0.019584427685707118,True
3549,193715,0,193716,5175.0,43178.0,27800.0,-0.001037,-0.0011589999999999999,-0.002989,0.2625,-1.3825,-3.8325000000000005,0.99471875,0.141125,0.06546875,1.26325,0.9795,-0.3254375,-0.41509375,1.22921875,0.019180025025243637,0.01968300858971717,True
3550,193716,0,193717,5176.0,43173.0,27799.0,0.0011589999999999999,0.00061,-0.00244,0.24500000000000002,-1.4175000000000002,-3.8500000000000005,0.9985625,0.13909375000000002,0.05325,1.24371875,0.97240625,-0.32156250000000003,-0.41609375,1.23478125,0.018940240784283496,0.019222720669640286,True
3551,193717,0,193718,5176.0,43177.0,27800.0,0.00061,0.000122,-0.001037,0.2625,-1.4525000000000001,-3.9375000000000004,0.99571875,0.136875,0.06615625,1.267125,0.95415625,-0.3249375,-0.41971875000000003,1.223,0.01898514641610076,0.01989683030235555,True
3552,193718,0,193719,5177.0,43176.0,27799.0,0.000366,0.0008539999999999999,0.0,0.47250000000000003,-1.5225000000000002,-3.8500000000000005,0.9851875,0.13928125,0.055781250000000004,1.2433750000000001,0.9766875,-0.32609375,-0.41515625,1.229875,0.019130691708363578,0.019288735864633266,True
3553,193719,0,193720,5177.0,43177.0,27801.0,0.000549,0.001403,0.001281,0.35000000000000003,-1.4525000000000001,-3.8850000000000002,0.98478125,0.1364375,0.056375,1.235125,0.97778125,-0.325875,-0.41631250000000003,1.23078125,0.01900496898878252,0.019359495828864412,True
3554,193720,0,193721,5179.0,43179.0,27799.0,0.000488,0.0006709999999999999,0.001952,0.2625,-1.4525000000000001,-3.8150000000000004,1.00359375,0.1330625,0.06559375,1.2355,0.95628125,-0.32628125,-0.42171875000000003,1.2295625000000001,0.018882612812017866,0.019954062406029472,True
3555,193721,0,193722,5180.0,43178.0,27801.0,0.00042699999999999997,-0.000488,0.00244,0.2625,-1.4525000000000001,-3.7100000000000004,1.0175625,0.1383125,0.06884375,1.2435625000000001,0.96334375,-0.33,-0.42134375,1.22315625,0.01924835593916975,0.02007209369877528,True
3556,193722,0,193723,5180.0,43178.0,27801.0,0.000244,-0.001952,0.002623,0.22750000000000004,-1.61,-3.7275000000000005,1.01628125,0.14100000000000001,0.0674375,1.2445,0.96525,-0.33309375,-0.41975,1.22303125,0.019483496626893162,0.01995055231933169,True
3557,193723,0,193724,5180.0,43178.0,27801.0,0.000122,-0.001403,0.000305,0.28,-1.4700000000000002,-3.7975000000000003,1.01796875,0.13021875,0.06284375,1.236,0.9635312500000001,-0.3264375,-0.42115625,1.2301875,0.018772015014528944,0.019818881425812916,True
3558,193724,0,193725,5181.0,43177.0,27800.0,-0.000366,0.000488,-0.002196,0.31500000000000006,-1.5750000000000002,-3.6575,0.99240625,0.130125,0.059437500000000004,1.2449375,0.9656250000000001,-0.32690625,-0.41728125,1.2274375,0.01878706833097612,0.019523825978782956,True
3559,193725,0,193726,5182.0,43178.0,27802.0,-0.000549,-0.000305,-0.002379,0.31500000000000006,-1.5575,-3.6050000000000004,0.98559375,0.13715625,0.06140625,1.2555,0.974125,-0.32615625,-0.41703125,1.23228125,0.019045857275540604,0.019594417318854026,True
3560,193726,0,193727,5183.0,43180.0,27801.0,-0.000183,0.000976,-0.000732,0.43750000000000006,-1.54,-3.4825000000000004,0.98621875,0.13925,0.05475,1.2465,0.97275,-0.32690625,-0.41678125,1.2318125,0.01916216740466125,0.01931176944135501,True
3561,193727,0,193728,5183.0,43178.0,27803.0,-0.000122,0.000122,0.000305,0.385,-1.4700000000000002,-3.4475000000000002,0.9845,0.13796875,0.0651875,1.24703125,0.973375,-0.3274375,-0.41725,1.23234375,0.019130919563558637,0.019758060387635792,True
3562,193728,0,193729,5185.0,43180.0,27799.0,-0.000732,-0.001098,-0.000305,0.31500000000000006,-1.4875,-3.5000000000000004,0.99265625,0.13934375000000002,0.06234375,1.2474375,0.96678125,-0.327,-0.41975,1.22596875,0.01916980104410737,0.019741960912785756,True
3563,193729,0,193730,5186.0,43180.0,27800.0,-0.000366,-0.000122,0.0017079999999999999,0.43750000000000006,-1.4175000000000002,-3.535,1.005875,0.14115625,0.06290625,1.2526875,0.9705312500000001,-0.32940625,-0.4161875,1.2317500000000001,0.019341306366652492,0.019621972103548106,True
3564,193730,0,193731,5185.0,43179.0,27802.0,-0.00042699999999999997,0.0008539999999999999,0.001586,0.42000000000000004,-1.5225000000000002,-3.4475000000000002,0.98871875,0.1396875,0.06346875,1.24071875,0.97228125,-0.32684375,-0.4185,1.2255625,0.019177631705716035,0.01973785244793906,True
3565,193731,0,193732,5185.0,43182.0,27800.0,0.000793,0.000976,0.0011589999999999999,0.385,-1.54,-3.5525,1.00465625,0.13759375000000001,0.06221875,1.24884375,0.96715625,-0.33071875,-0.41659375,1.21365625,0.01924778732646359,0.01961012682205109,True
