frame_seq,absolute_seq_u64,segment_id,sample_seq,PPG_G,PPG_R,PPG_IR,ACC_X,ACC_Y,ACC_Z,GYRO_X,GYRO_Y,GYRO_Z,Uh1,Uh2,Uh3,Uh4,Uc1,Uc2,Uc3,Uc4,UD1,UD2,parser_valid
28074,87168,0,87169,5139.0,45683.0,31359.0,-0.000549,0.001647,-0.001037,0.385,-1.8900000000000001,-3.8850000000000002,0.9685625,0.078625,0.2195,1.2721875,0.9402812500000001,-0.3631875,-0.30609375,1.24659375,0.018134429249046333,0.02162394975539827,True
28075,87169,0,87170,5138.0,45683.0,31362.0,-0.001647,-0.00122,0.001281,0.3325,-1.6625,-3.7800000000000002,0.987375,0.07690625,0.22159375,1.258875,0.94171875,-0.36234375,-0.30834375,1.24284375,0.018029874486111378,0.021800642012066333,True
28076,87170,0,87171,5138.0,45684.0,31360.0,-0.001403,-0.001098,0.000732,0.3325,-1.6450000000000002,-3.8675,0.973375,0.07565625000000001,0.22075,1.268375,0.9393750000000001,-0.361875,-0.31184375000000003,1.24434375,0.017959670591857154,0.021906760979409468,True
28077,87171,0,87172,5138.0,45684.0,31361.0,-0.00061,-0.000976,-0.001037,0.28,-1.6625,-3.8675,0.97378125,0.07775,0.22309375,1.26684375,0.94040625,-0.36296875,-0.309,1.244375,0.018089698120226008,0.021888755193549714,True
28078,87172,0,87173,5138.0,45682.0,31362.0,-0.000366,-0.000122,-0.000183,0.4025,-1.6450000000000002,-3.8325000000000005,0.9828125,0.076875,0.222,1.26125,0.94240625,-0.36265625,-0.3098125,1.242875,0.018041187524451486,0.021876454209591292,True
28079,87173,0,87174,5138.0,45684.0,31359.0,-0.000366,-0.0006709999999999999,0.000122,0.42000000000000004,-1.7325000000000002,-3.7975000000000003,0.97628125,0.078375,0.22278125000000001,1.2609062500000001,0.93990625,-0.36221875000000003,-0.30840625,1.24228125,0.0180851241227772,0.021852008500145913,True
28080,87174,0,87175,5138.0,45685.0,31359.0,0.0015249999999999999,0.000366,6.1e-05,0.31500000000000006,-1.8900000000000001,-3.8850000000000002,0.98059375,0.08059375,0.22215625,1.26275,0.94553125,-0.365,-0.310375,1.2476875,0.018288272111635546,0.02190551359244767,True
28081,87175,0,87176,5138.0,45685.0,31361.0,0.000549,0.000183,0.000305,0.31500000000000006,-1.9250000000000003,-3.8500000000000005,0.97578125,0.07840625,0.2223125,1.2611875000000001,0.9403750000000001,-0.3630625,-0.3050625,1.24203125,0.01812041281755937,0.021698154448275955,True
28082,87176,0,87177,5139.0,45686.0,31363.0,-0.000732,0.00042699999999999997,0.0,0.45500000000000007,-1.9425000000000001,-3.8325000000000005,0.97665625,0.07803125,0.22625,1.2669375,0.93603125,-0.357,-0.307375,1.23628125,0.01786062528225972,0.02195321378799644,True
28083,87177,0,87178,5139.0,45683.0,31360.0,0.000732,-6.1e-05,-0.0011589999999999999,0.42000000000000004,-1.8375000000000001,-3.9025000000000003,0.97946875,0.07821875,0.2233125,1.262375,0.9633125,-0.37228125,-0.304875,1.2316875,0.018484112971575036,0.021731751346180554,True
28084,87178,0,87179,5140.0,45688.0,31362.0,0.001281,0.00061,0.000305,0.2625,-1.7850000000000001,-3.7975000000000003,0.98221875,0.07931250000000001,0.22253125,1.26053125,0.92909375,-0.36953125000000003,-0.3115625,1.233125,0.018418234860385345,0.02196871344653393,True
28085,87179,0,87180,5139.0,45685.0,31361.0,6.1e-05,0.000122,-0.000366,0.385,-1.6275000000000002,-3.7975000000000003,0.98146875,0.07846875,0.22162500000000002,1.2609375,0.92684375,-0.36640625,-0.31978125,1.2386875,0.018257719067619995,0.022261970386760782,True
28086,87180,0,87181,5139.0,45686.0,31362.0,-0.00061,0.000366,-0.000915,0.36750000000000005,-1.5050000000000001,-3.7625,0.9694375000000001,0.07559375,0.22140625,1.26134375,0.9261875,-0.36690625,-0.318875,1.23734375,0.018159876164008305,0.022216539622001433,True
28087,87181,0,87182,5139.0,45688.0,31363.0,-0.001281,0.000244,0.000549,0.36750000000000005,-1.5050000000000001,-3.8500000000000005,0.9793125,0.07584375,0.22246875,1.261625,0.92703125,-0.36662500000000003,-0.318,1.23028125,0.018158803281127362,0.022225049346163338,True
28088,87182,0,87183,5141.0,45689.0,31363.0,-0.0008539999999999999,-0.000732,0.0,0.36750000000000005,-1.6625,-3.8850000000000002,0.98109375,0.074125,0.22278125000000001,1.2610625,0.9286562500000001,-0.37293750000000003,-0.311125,1.23715625,0.018342577705293014,0.021961396274339424,True
28089,87183,0,87184,5142.0,45688.0,31364.0,-0.000244,-0.00042699999999999997,0.000244,0.43750000000000006,-1.6450000000000002,-3.7450000000000006,0.9784375000000001,0.07665625,0.2216875,1.26134375,0.92334375,-0.367,-0.32071875,1.240375,0.018207257766651618,0.02230222945199759,True
28090,87184,0,87185,5143.0,45687.0,31362.0,0.000183,0.0006709999999999999,0.001037,0.385,-1.8900000000000001,-3.8325000000000005,0.97590625,0.0754375,0.2211875,1.26171875,0.9275,-0.36675,-0.31896875,1.2384375,0.01814716775934419,0.022211313956312394,True
28091,87185,0,87186,5145.0,45688.0,31363.0,0.000549,0.000549,-0.0008539999999999999,0.35000000000000003,-1.9600000000000002,-3.8150000000000004,0.96790625,0.0746875,0.22253125,1.2613750000000001,0.9260625,-0.36665625,-0.3144375,1.23525,0.018112610342258185,0.02208435831591827,True
28092,87186,0,87187,5143.0,45688.0,31363.0,0.0013419999999999999,-0.00061,-0.000488,0.29750000000000004,-1.7325000000000002,-3.8325000000000005,0.9775,0.07496875,0.2205625,1.2609062500000001,0.9272812500000001,-0.3649375,-0.3171875,1.2406875,0.01805488932610642,0.022113988305596605,True
28093,87187,0,87188,5145.0,45686.0,31362.0,0.000488,0.000244,0.000183,0.29750000000000004,-1.8375000000000001,-3.8325000000000005,0.9685,0.07790625,0.22059375,1.26246875,0.9269375,-0.3633125,-0.30928125,1.240625,0.01810996554758307,0.021797230224567005,True
28094,87188,0,87189,5144.0,45687.0,31364.0,0.000122,-0.000183,0.000366,0.43750000000000006,-1.7675,-3.8150000000000004,0.977,0.075625,0.22503125000000002,1.26134375,0.9322812500000001,-0.36625,-0.3073125,1.23971875,0.018134715025906734,0.021900559759537384,True
28095,87189,0,87190,5146.0,45688.0,31363.0,0.000732,0.0006709999999999999,-0.000549,0.35000000000000003,-1.4875,-3.8675,0.9755625,0.07831250000000001,0.22,1.26478125,0.9394375,-0.36609375,-0.31215625,1.24803125,0.018238715428073076,0.02188848428448217,True
28096,87190,0,87191,5145.0,45688.0,31365.0,0.000366,0.000122,0.000244,0.35000000000000003,-1.5050000000000001,-3.6750000000000003,0.9814375000000001,0.07559375,0.2194375,1.2652812500000001,0.9458125000000001,-0.3659375,-0.3041875,1.24503125,0.018120839799412602,0.02154464122694906,True
28097,87191,0,87192,5147.0,45688.0,31365.0,-0.0013419999999999999,-0.000244,0.000732,0.36750000000000005,-1.4175000000000002,-3.7450000000000006,0.98090625,0.07715625,0.22225,1.26115625,0.93996875,-0.36290625,-0.309,1.24296875,0.018062808085550136,0.021854045826648565,True
28098,87192,0,87193,5148.0,45689.0,31364.0,0.000793,-0.000915,-0.000183,0.385,-1.3475000000000001,-3.7800000000000002,0.9762500000000001,0.07621875,0.2213125,1.249125,0.92871875,-0.36453125000000003,-0.30971875,1.2435625000000001,0.01808982062809027,0.021844401223276185,True
28099,87193,0,87194,5149.0,45690.0,31364.0,0.00042699999999999997,0.000183,-0.000183,0.3325,-1.2425000000000002,-3.8675,0.9755,0.07771875,0.22584375,1.26159375,0.94003125,-0.36271875000000003,-0.30815625,1.2457500000000001,0.01807833947104118,0.021967935145225177,True
28100,87194,0,87195,5148.0,45689.0,31364.0,-0.001098,0.000488,0.00042699999999999997,0.43750000000000006,-1.155,-3.7975000000000003,0.9794375000000001,0.07784375,0.2200625,1.259625,0.94684375,-0.36371875000000004,-0.31015625,1.24246875,0.018123772669145593,0.021810585853392035,True
28101,87195,0,87196,5149.0,45688.0,31363.0,-0.00183,-0.000549,0.000732,0.36750000000000005,-1.0675000000000001,-3.7450000000000006,0.9765312500000001,0.07859375,0.22040625,1.26703125,0.93978125,-0.3631875,-0.31003125,1.2500625,0.01813314657616127,0.02181969634448742,True
28102,87196,0,87197,5152.0,45691.0,31364.0,-0.002379,0.000976,6.1e-05,0.42000000000000004,-1.12,-3.8500000000000005,0.97703125,0.07821875,0.22284375,1.262,0.9402812500000001,-0.3620625,-0.3086875,1.24284375,0.01807241279345704,0.021865896708738387,True
28103,87197,0,87198,5152.0,45691.0,31364.0,-0.000915,-0.000305,0.00061,0.385,-1.1900000000000002,-3.7800000000000002,0.984,0.07528125000000001,0.22159375,1.2579375,0.9490937500000001,-0.36425,-0.3091875,1.242875,0.01804000738787363,0.021834594430603656,True
28104,87198,0,87199,5153.0,45692.0,31365.0,-6.1e-05,-6.1e-05,-0.000122,0.36750000000000005,-1.3125000000000002,-3.8325000000000005,0.9766875,0.0713125,0.21496875000000001,1.25475,0.9463125,-0.35809375,-0.308875,1.23190625,0.017628893886657285,0.021549485527405116,True
28105,87199,0,87200,5154.0,45688.0,31364.0,0.000488,0.0,-0.000122,0.31500000000000006,-1.5925000000000002,-3.8850000000000002,0.9730625,0.07396875,0.2196875,1.25765625,0.94084375,-0.35996875,-0.3088125,1.240125,0.017813549124524226,0.021741086694382954,True
28106,87200,0,87201,5155.0,45691.0,31363.0,0.0013419999999999999,0.000183,-0.000122,0.3325,-1.4875,-3.9375000000000004,0.9852500000000001,0.0706875,0.22728125000000002,1.256375,0.9469062500000001,-0.36334375,-0.3086875,1.24296875,0.01781492944703044,0.02204844461470822,True
28107,87201,0,87202,5154.0,45691.0,31363.0,0.001586,-6.1e-05,-0.00061,0.31500000000000006,-1.6275000000000002,-3.9025000000000003,0.98375,0.0701875,0.22396875,1.2485625,0.9483125,-0.36203125,-0.3090625,1.2483125,0.017741490664905046,0.021927264780367408,True
28108,87202,0,87203,5154.0,45691.0,31363.0,0.0013419999999999999,0.0,-0.0011589999999999999,0.3325,-1.6275000000000002,-3.9025000000000003,0.99071875,0.07725,0.228625,1.27578125,0.9449375,-0.363375,-0.3076875,1.24825,0.018085548492357894,0.022063493287874464,True
28109,87203,0,87204,5157.0,45691.0,31366.0,-0.001403,0.000732,0.000732,0.36750000000000005,-1.5225000000000002,-3.8500000000000005,0.982875,0.07906250000000001,0.2166875,1.257875,0.93075,-0.36271875000000003,-0.31159375,1.2424375,0.01813349546630546,0.02172960174608051,True
28110,87204,0,87205,5157.0,45693.0,31364.0,-0.0015249999999999999,0.000305,0.001098,0.385,-1.5225000000000002,-3.9550000000000005,0.96978125,0.07375,0.2238125,1.26040625,0.944125,-0.3658125,-0.30578125,1.24821875,0.018040133075800362,0.021788797675450156,True
28111,87205,0,87206,5158.0,45693.0,31364.0,-0.00244,6.1e-05,-0.00061,0.28,-1.4875,-3.8675,0.99303125,0.07953125,0.2254375,1.2775625,0.94125,-0.36212500000000003,-0.31034375000000003,1.25,0.018128806497791142,0.02203922970032047,True
28112,87206,0,87207,5160.0,45694.0,31365.0,-0.000488,-0.0011589999999999999,0.00042699999999999997,0.2625,-1.6625,-3.7975000000000003,0.97215625,0.0819375,0.214875,1.25615625,0.93996875,-0.366375,-0.3095625,1.24278125,0.018398818043307633,0.02157330063015326,True
28113,87207,0,87208,5161.0,45693.0,31365.0,6.1e-05,-0.0013419999999999999,-0.000122,0.2625,-1.8900000000000001,-3.7625,0.9909375,0.07746875,0.22553125000000002,1.2749062500000001,0.94846875,-0.3624375,-0.30909375,1.2494687500000001,0.018056742064499913,0.021992798476907435,True
28114,87208,0,87209,5160.0,45695.0,31365.0,0.0025009999999999998,0.001769,-0.00061,0.35000000000000003,-1.8725000000000003,-3.8850000000000002,0.9705312500000001,0.08,0.2169375,1.25565625,0.93953125,-0.36575,-0.31093750000000003,1.2436562500000001,0.01829412187188985,0.021713477729931232,True
28115,87209,0,87210,5161.0,45694.0,31365.0,0.0021349999999999997,0.000915,-0.00061,0.45500000000000007,-1.7325000000000002,-3.7975000000000003,0.98259375,0.07375,0.2245625,1.25578125,0.947375,-0.3634375,-0.30809375,1.24671875,0.017944409527596423,0.02191271168682242,True
28116,87210,0,87211,5163.0,45695.0,31366.0,0.0015249999999999999,0.000732,-0.000793,0.47250000000000003,-1.61,-3.9375000000000004,0.983125,0.0795,0.22428125000000002,1.26403125,0.94621875,-0.36296875,-0.30965625,1.2511875000000001,0.018161528446733324,0.021964008643684547,True
28117,87211,0,87212,5164.0,45700.0,31367.0,-0.00122,-0.00061,-0.000976,0.29750000000000004,-1.33,-3.8850000000000002,0.9790625000000001,0.079125,0.22237500000000002,1.26178125,0.94025,-0.36296875,-0.30959375,1.24228125,0.01814613623391033,0.02188307856851783,True
28118,87212,0,87213,5164.0,45697.0,31369.0,-0.0013419999999999999,-0.0008539999999999999,0.000305,0.28,-1.225,-3.9375000000000004,0.97428125,0.07671875,0.22037500000000002,1.2613125,0.9403750000000001,-0.36375,-0.31059375,1.2425625,0.01807885690831666,0.02184104409214604,True
28119,87213,0,87214,5165.0,45696.0,31366.0,-0.001464,-6.1e-05,-0.000305,0.42000000000000004,-1.155,-3.7800000000000002,0.9756875,0.0759375,0.22718750000000001,1.2551875000000001,0.94034375,-0.3665625,-0.30896875,1.2434687500000001,0.018160132353506983,0.022055902721089312,True
28120,87214,0,87215,5166.0,45696.0,31367.0,-0.001769,-6.1e-05,-0.000122,0.4025,-1.1725,-3.7275000000000005,0.9825625,0.07428125000000001,0.22209375,1.26296875,0.9452812500000001,-0.3634375,-0.30809375,1.2314687500000001,0.01796621474289086,0.02181115086410262,True
28121,87215,0,87216,5167.0,45696.0,31366.0,-0.001403,0.00042699999999999997,0.0,0.35000000000000003,-1.3125000000000002,-3.6400000000000006,0.9755,0.07584375,0.22209375,1.2515625000000001,0.9463125,-0.3631875,-0.308375,1.2429375,0.018020271362275565,0.02182246859364314,True
28122,87216,0,87217,5167.0,45695.0,31366.0,-0.000732,-0.001098,0.00042699999999999997,0.24500000000000002,-1.435,-3.7975000000000003,0.984,0.076375,0.2229375,1.26475,0.94665625,-0.364375,-0.30815625,1.24028125,0.01808993663904779,0.021848376509427777,True
28123,87217,0,87218,5167.0,45695.0,31366.0,0.000793,-0.000915,-6.1e-05,0.31500000000000006,-1.5225000000000002,-3.8675,0.9829375,0.07775,0.22321875,1.2686875,0.947875,-0.36240625,-0.30943750000000003,1.249625,0.018067026938277084,0.021911500420361434,True
28124,87218,0,87219,5167.0,45697.0,31366.0,0.0006709999999999999,0.000732,0.000244,0.43750000000000006,-1.7325000000000002,-3.7975000000000003,0.9762500000000001,0.07559375,0.22075,1.2606875,0.939125,-0.36628125,-0.313625,1.24265625,0.018134691767952897,0.021978417451120516,True
28125,87219,0,87220,5166.0,45696.0,31366.0,0.000732,0.000549,-6.1e-05,0.42000000000000004,-1.6275000000000002,-3.7975000000000003,0.9756875,0.07896875,0.2205625,1.268125,0.934625,-0.36228125,-0.309875,1.24628125,0.018112014859035422,0.02181983658904046,True
28126,87220,0,87221,5168.0,45695.0,31369.0,0.000976,0.00061,0.000122,0.42000000000000004,-1.6450000000000002,-3.8150000000000004,0.976,0.07809375,0.22184375,1.26615625,0.939875,-0.36221875000000003,-0.31225,1.24371875,0.018073579607768692,0.021968092216886552,True
28127,87221,0,87222,5165.0,45696.0,31368.0,0.001281,0.000305,0.000915,0.3325,-1.715,-3.7450000000000006,0.9764375000000001,0.07846875,0.21884375,1.26859375,0.94034375,-0.36321875000000003,-0.31075,1.24921875,0.018129275303576216,0.021784344374402274,True
28128,87222,0,87223,5163.0,45696.0,31366.0,-0.000122,-0.000549,0.000183,0.28,-1.61,-3.8325000000000005,0.9761562500000001,0.082625,0.22946875,1.26684375,0.9393750000000001,-0.3631875,-0.30815625,1.25159375,0.01829861137833463,0.022117062045789674,True
28129,87223,0,87224,5163.0,45696.0,31368.0,-0.000549,-0.000793,-0.000183,0.3325,-1.4875,-3.9025000000000003,0.9831562500000001,0.07765625,0.22259375,1.2693125,0.94396875,-0.36278125,-0.30984375000000003,1.24453125,0.018078293093076143,0.021902135837462963,True
28130,87224,0,87225,5161.0,45696.0,31363.0,-0.0011589999999999999,-0.000366,-0.000122,0.29750000000000004,-1.3650000000000002,-3.8850000000000002,0.9762500000000001,0.078375,0.2201875,1.26540625,0.93975,-0.36303125,-0.30809375,1.2441875,0.018117870698047888,0.021732730482002523,True
28131,87225,0,87226,5160.0,45696.0,31363.0,-0.000366,0.000732,0.0,0.43750000000000006,-1.4000000000000001,-3.7975000000000003,0.9758125,0.07609375,0.2215,1.26078125,0.933,-0.365,-0.3091875,1.2430625,0.01810358095628976,0.021830737864027745,True
28132,87226,0,87227,5159.0,45694.0,31365.0,0.0006709999999999999,0.001281,0.000488,0.49000000000000005,-1.4875,-3.8325000000000005,0.98040625,0.074125,0.22240625,1.2610937500000001,0.94096875,-0.36212500000000003,-0.3090625,1.2429375,0.01790689441089396,0.021862988340253766,True
28133,87227,0,87228,5156.0,45696.0,31363.0,0.000122,0.000976,0.00042699999999999997,0.525,-1.5050000000000001,-3.8500000000000005,0.9781875,0.07906250000000001,0.22228125,1.261125,0.93653125,-0.365,-0.309125,1.2424375,0.018225425815719273,0.021860361078401627,True
28134,87228,0,87229,5157.0,45695.0,31361.0,-0.0006709999999999999,-0.00042699999999999997,0.000488,0.2625,-1.54,-3.7975000000000003,0.98053125,0.077625,0.226375,1.26146875,0.94721875,-0.36565625,-0.309375,1.2430625,0.018192871369922575,0.022038822470754595,True
28135,87229,0,87230,5157.0,45694.0,31363.0,-0.000732,-0.0006709999999999999,0.000915,0.31500000000000006,-1.5750000000000002,-3.7625,0.9762500000000001,0.07928125,0.2208125,1.2612812500000001,0.9380937500000001,-0.36446875,-0.31071875,1.24321875,0.01821299715389854,0.02186406973261537,True
28136,87230,0,87231,5155.0,45694.0,31361.0,-0.000305,-0.000488,-0.000976,0.31500000000000006,-1.715,-3.8675,0.97321875,0.07659375,0.22575,1.2611875000000001,0.93971875,-0.3649375,-0.310875,1.2424375,0.018121583525506687,0.02207345478103935,True
28137,87231,0,87232,5152.0,45695.0,31360.0,-0.0006709999999999999,0.0008539999999999999,-0.000488,0.35000000000000003,-1.7850000000000001,-3.8850000000000002,0.97578125,0.07821875,0.2209375,1.26153125,0.93921875,-0.36275,-0.30543750000000003,1.24221875,0.01810012211265149,0.021656676618143574,True
28138,87232,0,87233,5150.0,45693.0,31359.0,-0.000915,-6.1e-05,0.000732,0.36750000000000005,-1.8025000000000002,-3.8500000000000005,0.97590625,0.07759375,0.22115625,1.2609062500000001,0.93915625,-0.36275,-0.310125,1.242375,0.018074468194271994,0.021854319959276225,True
28139,87233,0,87234,5150.0,45691.0,31360.0,0.0011589999999999999,-0.00061,-0.0006709999999999999,0.31500000000000006,-1.9775000000000003,-3.7275000000000005,0.97678125,0.079875,0.2230625,1.26178125,0.9303750000000001,-0.36271875000000003,-0.31034375000000003,1.24278125,0.018166845602976885,0.021941534660529022,True
28140,87234,0,87235,5149.0,45689.0,31359.0,0.001464,-0.001098,0.00042699999999999997,0.31500000000000006,-1.9600000000000002,-3.6925000000000003,0.97784375,0.08315625,0.22253125,1.2650625,0.9490625,-0.3683125,-0.3085,1.2431875000000001,0.018526877887010025,0.021845496431289472,True
28141,87235,0,87236,5148.0,45691.0,31359.0,0.00042699999999999997,6.1e-05,0.00061,0.3325,-1.7850000000000001,-3.7975000000000003,0.9804375000000001,0.07803125,0.2224375,1.2573750000000001,0.9519375,-0.36315625,-0.307625,1.2411875,0.01810879901901052,0.02180642905261209,True
28142,87236,0,87237,5149.0,45694.0,31358.0,0.000122,-0.00061,-0.000488,0.3325,-1.7675,-3.8325000000000005,0.9760625,0.0828125,0.2171875,1.25634375,0.9384687500000001,-0.36562500000000003,-0.30809375,1.2494687500000001,0.01840451455688085,0.02160931479869745,True
28143,87237,0,87238,5147.0,45690.0,31358.0,0.0015249999999999999,0.000366,-0.000244,0.49000000000000005,-1.8025000000000002,-3.7625,0.9761875,0.07868750000000001,0.2240625,1.277375,0.936625,-0.36159375,-0.30765625,1.2535,0.018072760531112626,0.02187453798635975,True
28144,87238,0,87239,5149.0,45690.0,31358.0,0.00042699999999999997,0.0013419999999999999,-0.000244,0.4025,-1.61,-3.8325000000000005,1.004375,0.07434375,0.22565625,1.25403125,0.9456875,-0.36159375,-0.30843750000000003,1.2453750000000001,0.017894457336150266,0.02197153766053454,True
28145,87239,0,87240,5147.0,45694.0,31358.0,-0.0008539999999999999,0.000244,6.1e-05,0.385,-1.61,-3.7450000000000006,0.983375,0.06846875,0.2268125,1.250375,0.95234375,-0.36396875,-0.30809375,1.2451875000000001,0.01774905822763379,0.022005273449301224,True
28146,87240,0,87241,5148.0,45690.0,31357.0,-0.000244,-0.000366,0.000244,0.29750000000000004,-1.5750000000000002,-3.7975000000000003,0.996375,0.074,0.22340625,1.25003125,0.95184375,-0.3625,-0.30493750000000003,1.22940625,0.017916880451513597,0.02173812419801532,True
28147,87241,0,87242,5148.0,45690.0,31359.0,-0.001952,-0.000488,0.0,0.2625,-1.5050000000000001,-3.9025000000000003,0.97296875,0.06753125,0.21765625,1.2516875,0.9371875000000001,-0.3585625,-0.308125,1.2406875,0.017492565499298243,0.021629856272336923,True
28148,87242,0,87243,5148.0,45691.0,31357.0,-6.1e-05,-0.001281,6.1e-05,0.31500000000000006,-1.4525000000000001,-3.8150000000000004,0.963125,0.07062500000000001,0.22378125000000001,1.25084375,0.9331875000000001,-0.3659375,-0.30162500000000003,1.2415,0.01791691782842339,0.02162021058262565,True
28149,87243,0,87244,5148.0,45692.0,31359.0,-0.000732,0.00061,0.00061,0.47250000000000003,-1.4700000000000002,-3.8150000000000004,0.99290625,0.06534375,0.22284375,1.25540625,0.9363750000000001,-0.36415625,-0.30815625,1.2455,0.017628355178521727,0.021844519779240765,True
28150,87244,0,87245,5148.0,45691.0,31355.0,-0.001586,0.000488,-0.000305,0.43750000000000006,-1.4525000000000001,-3.7975000000000003,0.9973125,0.07559375,0.2249375,1.25028125,0.9508125000000001,-0.36212500000000003,-0.3078125,1.24784375,0.01796718266571574,0.021916822009384846,True
28151,87245,0,87246,5149.0,45689.0,31357.0,-0.000244,0.000244,-6.1e-05,0.4025,-1.6625,-3.7800000000000002,0.9864375,0.07009375,0.2103125,1.26571875,0.94840625,-0.36609375,-0.30765625,1.2410625,0.01790141269566444,0.021308872590297557,True
28152,87246,0,87247,5147.0,45691.0,31356.0,0.000183,-0.0006709999999999999,0.0,0.42000000000000004,-1.715,-3.9025000000000003,0.962875,0.08175,0.22096875,1.2610000000000001,0.9381875000000001,-0.36028125,-0.31065625,1.24196875,0.018145572518790194,0.021867982276290877,True
28153,87247,0,87248,5147.0,45690.0,31354.0,0.0017079999999999999,0.000122,0.000244,0.3325,-1.8725000000000003,-3.9375000000000004,0.9608125000000001,0.07365625,0.21859375,1.2613750000000001,0.93940625,-0.36434375,-0.31228125,1.2425625,0.017977089984211048,0.021835672043321725,True
28154,87248,0,87249,5146.0,45689.0,31356.0,0.002562,0.000122,-0.00061,0.35000000000000003,-1.7500000000000002,-3.7450000000000006,0.963875,0.079125,0.21628125,1.25515625,0.92959375,-0.3639375,-0.30740625,1.24321875,0.018185176349266207,0.02154435955090848,True
28155,87249,0,87250,5149.0,45690.0,31357.0,0.0028669999999999998,-0.000305,0.000244,0.35000000000000003,-1.54,-3.8325000000000005,0.9695312500000001,0.07740625,0.22225,1.25765625,0.9400937500000001,-0.36412500000000003,-0.30940625,1.24275,0.018122187847911635,0.02187039224785673,True
28156,87250,0,87251,5145.0,45689.0,31356.0,0.0013419999999999999,-0.000732,6.1e-05,0.42000000000000004,-1.2075,-3.7625,0.97946875,0.07818750000000001,0.22362500000000002,1.260375,0.9478125000000001,-0.3635,-0.30521875,1.24890625,0.01812906602089191,0.021758444367014802,True
28157,87251,0,87252,5148.0,45691.0,31357.0,-0.00122,0.000244,0.000305,0.29750000000000004,-1.12,-3.7625,0.97565625,0.07584375,0.222,1.2630000000000001,0.93975,-0.36521875,-0.309625,1.24403125,0.01810213585708111,0.0218689099482201,True
28158,87252,0,87253,5146.0,45692.0,31356.0,-0.002562,6.1e-05,0.000305,0.385,-0.9100000000000001,-3.7275000000000005,0.9819687500000001,0.077875,0.2191875,1.26621875,0.9478125000000001,-0.3630625,-0.30828125,1.2509375,0.01809860726663571,0.021699138025235744,True
28159,87253,0,87254,5147.0,45691.0,31357.0,-0.003355,-0.000183,-0.000305,0.29750000000000004,-0.9275000000000001,-3.7100000000000004,0.9765312500000001,0.07843750000000001,0.2194375,1.2671875000000001,0.9405,-0.36265625,-0.30375,1.24721875,0.01810532256719749,0.021527027722059354,True
28160,87254,0,87255,5149.0,45692.0,31358.0,-0.0018909999999999999,6.1e-05,-0.000305,0.385,-0.9275000000000001,-3.7100000000000004,0.98175,0.07928125,0.22196875,1.26059375,0.94915625,-0.36646875,-0.30978125,1.242375,0.018293582240963824,0.021873911349983864,True
28161,87255,0,87256,5148.0,45693.0,31359.0,-0.00042699999999999997,0.00061,0.00061,0.385,-1.155,-3.6925000000000003,0.978875,0.07490625000000001,0.21878125,1.26209375,0.9400000000000001,-0.363875,-0.31193750000000003,1.2429375,0.018009501772603905,0.02182955389713387,True
28162,87256,0,87257,5148.0,45692.0,31357.0,6.1e-05,0.00061,0.000183,0.42000000000000004,-1.4525000000000001,-3.7800000000000002,0.97540625,0.0765,0.21915625,1.26140625,0.93925,-0.36565625,-0.3096875,1.23634375,0.01814669982467638,0.021754444601560594,True
28163,87257,0,87258,5148.0,45694.0,31358.0,0.0013419999999999999,0.00042699999999999997,-0.00042699999999999997,0.5075000000000001,-1.6975000000000002,-3.9200000000000004,0.98140625,0.07478125000000001,0.22187500000000002,1.26125,0.9431875000000001,-0.36590625,-0.30921875,1.234625,0.018086234736292645,0.02184742156717809,True
28164,87258,0,87259,5148.0,45696.0,31358.0,0.002623,-0.000549,-0.000244,0.47250000000000003,-1.6625,-3.8500000000000005,0.98403125,0.07753125,0.22265625,1.261875,0.94334375,-0.364375,-0.30875,1.24284375,0.01813739322268681,0.021860698308222352,True
28165,87259,0,87260,5149.0,45696.0,31359.0,0.000915,-0.000183,-0.000183,0.385,-1.6275000000000002,-3.7625,0.98346875,0.077625,0.22375,1.26103125,0.94803125,-0.3668125,-0.3046875,1.24096875,0.018239459921153,0.021742205078752814,True
28166,87260,0,87261,5149.0,45694.0,31356.0,0.0,-0.000793,-0.000366,0.28,-1.5925000000000002,-3.8150000000000004,0.98309375,0.077,0.2214375,1.2616875,0.9455625,-0.36640625,-0.30846875,1.243625,0.018197441405623776,0.021799244347713184,True
28167,87261,0,87262,5150.0,45696.0,31359.0,-0.000122,-0.000122,-0.000366,0.29750000000000004,-1.3650000000000002,-3.7800000000000002,0.97596875,0.08503125,0.2193125,1.26653125,0.92621875,-0.3621875,-0.309625,1.25078125,0.018357085134493772,0.02175835702936594,True
28168,87262,0,87263,5148.0,45694.0,31357.0,-0.0011589999999999999,-0.000244,0.00061,0.42000000000000004,-1.2950000000000002,-3.7100000000000004,0.97584375,0.07840625,0.21928125,1.2684375,0.94071875,-0.36303125,-0.30975,1.2428125,0.018119153379159255,0.02176210162589085,True
28169,87263,0,87264,5150.0,45695.0,31355.0,-0.000915,-0.000244,-0.000244,0.4025,-1.1725,-3.8150000000000004,0.9753437500000001,0.07865625,0.22203125,1.26325,0.939625,-0.36296875,-0.3110625,1.24809375,0.01812689596788158,0.02192803173452415,True
28170,87264,0,87265,5151.0,45694.0,31357.0,-0.00122,6.1e-05,6.1e-05,0.45500000000000007,-1.3650000000000002,-3.8325000000000005,0.9765625,0.07478125000000001,0.22009375,1.26628125,0.94034375,-0.36209375,-0.30634375,1.247875,0.01793257199004088,0.021658440504857913,True
28171,87265,0,87266,5153.0,45697.0,31357.0,-0.001098,0.00042699999999999997,-0.000305,0.385,-1.3825,-3.9025000000000003,0.976,0.07921875,0.22021875,1.26440625,0.94003125,-0.36240625,-0.31040625,1.248125,0.018127314497105557,0.021827072511385943,True
28172,87266,0,87267,5152.0,45696.0,31359.0,0.000488,0.0006709999999999999,0.000305,0.45500000000000007,-1.54,-3.7975000000000003,0.97628125,0.074625,0.2189375,1.26178125,0.9399375,-0.3586875,-0.31065625,1.2434375,0.0177888279079076,0.02178442838210096,True
28173,87267,0,87268,5153.0,45695.0,31360.0,0.000915,0.00042699999999999997,-0.000549,0.45500000000000007,-1.5925000000000002,-3.7450000000000006,0.97590625,0.07875,0.224125,1.25684375,0.9404375,-0.3619375,-0.3105,1.24821875,0.018089181125269697,0.02199152629522223,True
28174,87268,0,87269,5154.0,45697.0,31362.0,0.000732,-0.000793,6.1e-05,0.24500000000000002,-1.54,-3.7450000000000006,0.97565625,0.07834375,0.21909375,1.26778125,0.9400000000000001,-0.362875,-0.308125,1.2484375,0.018110290760019087,0.021688992877895764,True
28175,87269,0,87270,5153.0,45697.0,31362.0,0.002074,-6.1e-05,0.00042699999999999997,0.43750000000000006,-1.54,-3.7975000000000003,0.97609375,0.07515625000000001,0.22159375,1.26071875,0.93990625,-0.36234375,-0.31109375,1.24278125,0.017958042316844003,0.021911293069650555,True
28176,87270,0,87271,5154.0,45697.0,31361.0,0.001098,0.000122,-0.000183,0.43750000000000006,-1.5225000000000002,-3.7625,0.9665625,0.08275,0.2200625,1.2645625,0.9404375,-0.363,-0.31046875,1.2483125,0.018296186840701063,0.021823160032650543,True
28177,87271,0,87272,5154.0,45696.0,31361.0,6.1e-05,-0.000732,-0.000488,0.35000000000000003,-1.33,-3.7450000000000006,0.9713125,0.0755,0.22190625,1.2618125,0.9402812500000001,-0.36253125,-0.310875,1.2432812500000001,0.01797971013377356,0.02191534652701723,True
28178,87272,0,87273,5158.0,45698.0,31360.0,0.000122,0.000122,0.00042699999999999997,0.29750000000000004,-1.0850000000000002,-3.6400000000000006,0.9841875,0.0779375,0.2200625,1.26565625,0.9476875,-0.36240625,-0.30840625,1.25475,0.018074723222382846,0.021740164474995147,True
28179,87273,0,87274,5156.0,45695.0,31361.0,-0.000732,0.00042699999999999997,0.000305,0.47250000000000003,-0.9100000000000001,-3.6750000000000003,0.97671875,0.077125,0.22146875,1.26171875,0.93753125,-0.36165625,-0.31640625,1.2376875,0.018011141996965005,0.02211983935742972,True
28180,87274,0,87275,5157.0,45698.0,31361.0,-0.000732,0.000122,0.000183,0.49000000000000005,-0.8575,-3.7625,0.9812500000000001,0.07809375,0.22053125,1.26115625,0.92784375,-0.36840625,-0.30759375,1.2549062500000001,0.01832290529874107,0.021726749485436007,True
28181,87275,0,87276,5157.0,45699.0,31360.0,-0.001037,0.0006709999999999999,0.00042699999999999997,0.49000000000000005,-0.805,-3.7800000000000002,0.97596875,0.0748125,0.2231875,1.26465625,0.9269375,-0.36565625,-0.3045,1.2378125,0.018077442506807095,0.02171151432862227,True
28182,87276,0,87277,5158.0,45698.0,31362.0,-6.1e-05,0.000732,6.1e-05,0.47250000000000003,-0.805,-3.7450000000000006,0.98190625,0.07825,0.22359375,1.266375,0.93815625,-0.37053125000000003,-0.30709375,1.23853125,0.018414914529202152,0.0218326183071557,True
28183,87277,0,87278,5159.0,45696.0,31363.0,-0.000305,-0.000366,0.0011589999999999999,0.43750000000000006,-0.8225000000000001,-3.7275000000000005,0.983875,0.0775,0.222,1.2614375,0.94859375,-0.36571875,-0.31040625,1.23721875,0.018190259624498047,0.021900343602855258,True
28184,87278,0,87279,5161.0,45698.0,31363.0,-0.00122,0.00061,0.0018909999999999999,0.42000000000000004,-0.7875000000000001,-3.7100000000000004,0.9721875,0.0770625,0.22196875,1.26165625,0.9203125,-0.36590625,-0.3161875,1.2380625,0.01817985940908724,0.022131604718050476,True
28185,87279,0,87280,5160.0,45700.0,31362.0,-0.00061,0.000305,-0.001281,0.385,-0.8225000000000001,-3.7800000000000002,0.9839375,0.07540625000000001,0.2223125,1.2614375,0.9372812500000001,-0.36625,-0.30828125,1.23709375,0.018125737444210744,0.021827695037056557,True
28186,87280,0,87281,5163.0,45700.0,31363.0,-0.00122,-0.001281,-0.000793,0.43750000000000006,-0.8925000000000001,-3.7625,0.9833437500000001,0.07740625,0.22290625,1.26125,0.9362812500000001,-0.36875,-0.30909375,1.23809375,0.01830854065144909,0.02188481419633342,True
28187,87281,0,87282,5163.0,45698.0,31363.0,-0.0006709999999999999,-0.0008539999999999999,0.000549,0.42000000000000004,-0.9975,-3.6400000000000006,0.98303125,0.08003125,0.22259375,1.26921875,0.9395625,-0.37240625,-0.30675,1.24578125,0.018563513809802836,0.021777644070062843,True
28188,87282,0,87283,5162.0,45699.0,31365.0,0.001403,-0.000122,-0.001647,0.385,-1.05,-3.5700000000000003,0.97640625,0.078,0.22275,1.2654375,0.9577187500000001,-0.36340625,-0.30478125,1.2371875,0.018117591828934018,0.0217048343111502,True
28189,87283,0,87284,5163.0,45700.0,31366.0,0.001098,0.0006709999999999999,-0.000366,0.385,-1.1900000000000002,-3.6925000000000003,0.98240625,0.07796875,0.22259375,1.26575,0.94815625,-0.36793750000000003,-0.30678125,1.2456875,0.018298891730167976,0.021778901721098923,True
28190,87284,0,87285,5163.0,45701.0,31365.0,0.00042699999999999997,0.00042699999999999997,0.00061,0.385,-1.1900000000000002,-3.6750000000000003,0.97571875,0.08171875,0.2208125,1.26603125,0.9533125,-0.360375,-0.30521875,1.24759375,0.018148068328176392,0.021642728477808904,True
28191,87285,0,87286,5164.0,45700.0,31363.0,-0.000549,0.000976,-0.000976,0.43750000000000006,-1.0325000000000002,-3.7450000000000006,0.9759375,0.07896875,0.21937500000000001,1.2615625,0.950125,-0.36112500000000003,-0.30790625,1.2526875,0.018065411593265912,0.021691759239856376,True
28192,87286,0,87287,5164.0,45701.0,31366.0,-0.0008539999999999999,-0.000244,-0.00061,0.35000000000000003,-1.0325000000000002,-3.6750000000000003,0.9761875,0.076125,0.21996875000000002,1.26165625,0.9354375,-0.3648125,-0.31071875,1.23496875,0.018097307336143054,0.021829362819641027,True
28193,87287,0,87288,5167.0,45702.0,31363.0,0.000549,-0.000915,-6.1e-05,0.45500000000000007,-0.8225000000000001,-3.8500000000000005,0.97584375,0.07553125000000001,0.22084375,1.2530625,0.9398125,-0.3645,-0.311875,1.24309375,0.01806034394303187,0.021911874341242706,True
28194,87288,0,87289,5166.0,45702.0,31367.0,6.1e-05,-0.000366,0.0006709999999999999,0.56,-0.805,-3.6925000000000003,0.97584375,0.07640625,0.22328125000000001,1.2613750000000001,0.94015625,-0.36509375,-0.30865625,1.24309375,0.01812018474174761,0.021882636972169127,True
28195,87289,0,87290,5168.0,45706.0,31366.0,-0.000122,0.000793,0.000122,0.6125,-0.7350000000000001,-3.7975000000000003,0.9830625000000001,0.07846875,0.22278125000000001,1.2666250000000001,0.9465,-0.36303125,-0.3085,1.25034375,0.01812171874138199,0.021855780899685297,True
28196,87290,0,87291,5169.0,45703.0,31366.0,0.000915,0.001464,-0.000732,0.5425000000000001,-0.56,-3.7625,0.9761562500000001,0.07825,0.22653125000000002,1.25396875,0.9312812500000001,-0.36265625,-0.31178125,1.2437500000000001,0.01809762636206797,0.022142042759618858,True
28197,87291,0,87292,5171.0,45707.0,31368.0,-0.00061,-0.000305,0.000244,0.5075000000000001,-0.36750000000000005,-3.6750000000000003,0.9793437500000001,0.079,0.22209375,1.26103125,0.93975,-0.36362500000000003,-0.30940625,1.23725,0.018167452503475984,0.02186396469473622,True
28198,87292,0,87293,5170.0,45706.0,31368.0,-0.00183,0.000732,0.000305,0.5075000000000001,-0.385,-3.7100000000000004,0.98171875,0.07775,0.22240625,1.26165625,0.94559375,-0.36440625,-0.3090625,1.242875,0.018147630829296324,0.021862988340253766,True
28199,87293,0,87294,5171.0,45704.0,31368.0,-0.002806,0.0006709999999999999,0.00122,0.7175,-0.47250000000000003,-3.6400000000000006,0.98065625,0.07709375,0.22053125,1.2670000000000001,0.9450000000000001,-0.36215625,-0.31096875,1.25,0.018030013250571776,0.02186255946711297,True
28200,87294,0,87295,5172.0,45704.0,31367.0,-0.001586,0.000793,0.00042699999999999997,0.5425000000000001,-0.6125,-3.7100000000000004,0.9769375,0.07790625,0.22190625,1.26928125,0.94359375,-0.36259375,-0.30915625,1.25075,0.018080997635976263,0.021846192214096283,True
28201,87295,0,87296,5174.0,45703.0,31368.0,-0.001403,-0.000122,0.001098,0.4025,-0.7175,-3.7625,0.97621875,0.07834375,0.22315625,1.2681875,0.9420625,-0.362875,-0.30878125,1.24984375,0.018110290760019087,0.021882524447826852,True
28202,87296,0,87297,5175.0,45705.0,31366.0,0.000244,-0.0011589999999999999,-0.000549,0.28,-0.8750000000000001,-3.8150000000000004,0.9710625,0.07868750000000001,0.22284375,1.27215625,0.94240625,-0.36059375,-0.307875,1.2504375,0.01803245251360099,0.021833202202989774,True
28203,87297,0,87298,5175.0,45703.0,31364.0,0.002074,-0.0006709999999999999,-0.000793,0.35000000000000003,-1.2075,-3.8150000000000004,0.97546875,0.07896875,0.22534375,1.27165625,0.9429062500000001,-0.3629375,-0.3055625,1.24390625,0.0181384633934229,0.02184299375914464,True
28204,87298,0,87299,5176.0,45704.0,31367.0,0.001403,-0.000305,-6.1e-05,0.47250000000000003,-1.225,-3.7975000000000003,0.97446875,0.0846875,0.21940625,1.2715,0.939875,-0.36265625,-0.31140625,1.24996875,0.018361862738181516,0.02183388712859833,True
28205,87299,0,87300,5176.0,45702.0,31366.0,0.000976,0.000488,0.000732,0.5075000000000001,-1.0850000000000002,-3.7800000000000002,0.97371875,0.07934375,0.2203125,1.26803125,0.93959375,-0.3609375,-0.3096875,1.25034375,0.018073247386312618,0.021802007944363745,True
28206,87300,0,87301,5175.0,45702.0,31364.0,0.000244,0.00042699999999999997,-0.0008539999999999999,0.5775,-1.155,-3.8150000000000004,0.972875,0.08015625,0.2201875,1.2706875,0.93309375,-0.36234375,-0.31225,1.248,0.01816327708617936,0.021899968123065536,True
28207,87301,0,87302,5173.0,45704.0,31365.0,-0.0008539999999999999,0.000549,0.000915,0.4025,-0.9800000000000001,-3.8325000000000005,0.97609375,0.07868750000000001,0.22175,1.27325,0.94015625,-0.3624375,-0.309375,1.24865625,0.018106767847018593,0.021848566653811546,True
28208,87302,0,87303,5173.0,45704.0,31361.0,-0.001281,0.000183,-0.000183,0.4025,-0.9450000000000001,-3.6575,0.97665625,0.07918750000000001,0.22371875,1.2638125,0.9403750000000001,-0.36384375,-0.30875,1.24896875,0.01818396368594344,0.02190440684938551,True
28209,87303,0,87304,5172.0,45703.0,31360.0,-0.001281,-0.00061,0.00061,0.5075000000000001,-0.9975,-3.7625,0.97703125,0.07931250000000001,0.22340625,1.27028125,0.941625,-0.36284375,-0.30815625,1.24834375,0.01814879471941776,0.021867660160362845,True
28210,87304,0,87305,5170.0,45704.0,31362.0,-0.000488,6.1e-05,0.000549,0.43750000000000006,-1.155,-3.8850000000000002,0.98884375,0.07771875,0.2235625,1.2590937500000001,0.94721875,-0.3630625,-0.30928125,1.242875,0.018092193869305224,0.021919354361824253,True
28211,87305,0,87306,5168.0,45703.0,31360.0,0.0,0.000366,-0.000122,0.4025,-1.1375000000000002,-3.8325000000000005,0.98771875,0.07228125,0.2205625,1.25903125,0.9421875000000001,-0.36546875,-0.30871875,1.243125,0.017965999525455467,0.021773309216471966,True
28212,87306,0,87307,5165.0,45703.0,31361.0,0.000488,-0.000366,0.000976,0.42000000000000004,-1.2600000000000002,-3.8325000000000005,0.973375,0.07825,0.21790625,1.25809375,0.9386875,-0.36384375,-0.31121875,1.24284375,0.018145484535870903,0.021764643123866424,True
28213,87307,0,87308,5165.0,45705.0,31361.0,-0.000122,0.001403,-0.000793,0.42000000000000004,-1.4175000000000002,-3.8325000000000005,0.9735312500000001,0.07946875,0.2200625,1.26790625,0.94059375,-0.36312500000000003,-0.30890625,1.246125,0.01816654267463636,0.02176028590344331,True
28214,87308,0,87309,5163.0,45702.0,31360.0,0.000976,0.000366,0.0008539999999999999,0.2625,-1.54,-3.7800000000000002,0.97128125,0.077375,0.2215625,1.2604375,0.94084375,-0.3629375,-0.31090625,1.23684375,0.018073046405015815,0.021902464043272764,True
28215,87309,0,87310,5162.0,45702.0,31360.0,-6.1e-05,-0.001647,0.000366,0.21000000000000002,-1.4875,-3.9375000000000004,0.97496875,0.076125,0.22803125,1.2610000000000001,0.9410937500000001,-0.3629375,-0.30990625,1.2429375,0.018021738963127906,0.02212832474415651,True
28216,87310,0,87311,5161.0,45702.0,31359.0,-0.0011589999999999999,-0.000732,-0.00061,0.29750000000000004,-1.4875,-3.9375000000000004,0.97696875,0.07678125,0.22137500000000002,1.25853125,0.940125,-0.36325,-0.31125,1.2432812500000001,0.0180612705611936,0.021908581418067768,True
28217,87311,0,87312,5160.0,45700.0,31358.0,-0.0011589999999999999,-0.000549,-0.001403,0.31500000000000006,-1.4875,-3.8325000000000005,0.9752500000000001,0.0749375,0.2198125,1.26259375,0.9394687500000001,-0.3619375,-0.31159375,1.24740625,0.01793268700406115,0.02185814124176865,True
28218,87312,0,87313,5158.0,45699.0,31357.0,-0.000122,0.000488,0.0011589999999999999,0.24500000000000002,-1.5575,-3.7800000000000002,0.9761875,0.07818750000000001,0.2221875,1.25603125,0.93996875,-0.355875,-0.30875,1.2423125,0.017821675468444473,0.021841415128297428,True
28219,87313,0,87314,5158.0,45702.0,31356.0,0.0015249999999999999,0.000366,-0.0006709999999999999,0.24500000000000002,-1.7325000000000002,-3.8500000000000005,0.984,0.07853125,0.22190625,1.26175,0.95778125,-0.36934375,-0.308,1.23821875,0.018378623757564258,0.021799664719433932,True
28220,87314,0,87315,5156.0,45703.0,31359.0,0.002196,-0.000244,-0.000549,0.385,-1.7500000000000002,-3.7800000000000002,0.97584375,0.07578125000000001,0.2186875,1.2623125,0.93071875,-0.354125,-0.311,1.264625,0.017652297095461244,0.021787976636090656,True
28221,87315,0,87316,5156.0,45700.0,31360.0,0.0021349999999999997,0.000976,-0.000366,0.42000000000000004,-1.715,-3.8500000000000005,0.9761875,0.07868750000000001,0.221,1.2659375,0.9480625,-0.36065625,-0.30240625,1.2535625000000001,0.01803497186164679,0.021537219179685138,True
28222,87316,0,87317,5155.0,45702.0,31358.0,0.00122,0.00042699999999999997,6.1e-05,0.36750000000000005,-1.5925000000000002,-3.8675,0.976125,0.07878125,0.2228125,1.26559375,0.963875,-0.36265625,-0.3046875,1.2403125,0.018119432276601614,0.021703632272581163,True
28223,87317,0,87318,5156.0,45700.0,31358.0,-0.001098,0.000305,0.000183,0.47250000000000003,-1.2425000000000002,-3.7625,0.97890625,0.078375,0.22321875,1.2641875,0.9581875,-0.3670625,-0.30690625,1.232125,0.01828031179384056,0.021809645149719534,True
28224,87318,0,87319,5158.0,45700.0,31357.0,-0.0011589999999999999,0.000915,0.00042699999999999997,0.47250000000000003,-1.2075,-3.7275000000000005,0.98378125,0.07553125000000001,0.22184375,1.2618125,0.94571875,-0.369125,-0.31990625,1.25884375,0.018246705616225448,0.02227599047590901,True
28225,87319,0,87320,5155.0,45698.0,31357.0,-0.00061,-6.1e-05,0.000549,0.42000000000000004,-1.05,-3.7625,0.976625,0.07790625,0.22315625,1.25665625,0.9378125,-0.35931250000000003,-0.30415625,1.223125,0.017948731106430037,0.021696391949422234,True
28226,87320,0,87321,5155.0,45702.0,31358.0,-0.0021349999999999997,-6.1e-05,-0.000122,0.47250000000000003,-0.8750000000000001,-3.7975000000000003,0.9821562500000001,0.07590625000000001,0.22109375,1.26121875,0.94921875,-0.37259375,-0.313125,1.23759375,0.01840181658958641,0.0219724428677926,True
28227,87321,0,87322,5155.0,45699.0,31358.0,-0.0015249999999999999,-0.000549,-6.1e-05,0.3325,-0.8925000000000001,-3.8325000000000005,0.9791875,0.07584375,0.2190625,1.26103125,0.9275,-0.36490625,-0.31603125,1.24796875,0.018089542207862998,0.022005801213962492,True
28228,87322,0,87323,5155.0,45699.0,31358.0,-0.000915,-0.000793,0.000793,0.28,-1.1375000000000002,-3.7625,0.9765625,0.078375,0.2183125,1.26703125,0.9373125,-0.3585,-0.30421875,1.26065625,0.017935217685818093,0.021499611050036324,True
28229,87323,0,87324,5155.0,45699.0,31358.0,-0.00042699999999999997,-6.1e-05,-6.1e-05,0.35000000000000003,-1.225,-3.8500000000000005,0.9762500000000001,0.07790625,0.22490625,1.26840625,0.94546875,-0.35975,-0.30303125000000003,1.24471875,0.017966368702470266,0.02172311324333256,True
28230,87324,0,87325,5153.0,45699.0,31357.0,0.00122,0.0,-0.000549,0.42000000000000004,-1.2950000000000002,-3.8675,0.974,0.078,0.22225,1.26121875,0.9585625,-0.370375,-0.307125,1.23275,0.018398362766268474,0.021778593725090892,True
28231,87325,0,87326,5154.0,45698.0,31356.0,0.001281,0.00061,-0.000732,0.4025,-1.33,-3.7800000000000002,0.9821562500000001,0.07446875,0.2194375,1.2610625,0.93578125,-0.3659375,-0.3120625,1.24125,0.018074668787113158,0.021861575915247837,True
28232,87326,0,87327,5153.0,45699.0,31358.0,0.001464,0.000488,-0.000366,0.35000000000000003,-1.435,-3.7800000000000002,0.9770625000000001,0.07871875,0.22075,1.265625,0.92703125,-0.36125,-0.3113125,1.2483125,0.018060187798245166,0.021885387718166182,True
28233,87327,0,87328,5155.0,45700.0,31358.0,0.0017079999999999999,0.000366,0.000488,0.525,-1.4525000000000001,-3.7975000000000003,0.97690625,0.07803125,0.22162500000000002,1.2610625,0.9400625,-0.3633125,-0.3085,1.25059375,0.01811509621279947,0.021808215233354588,True
28234,87328,0,87329,5155.0,45700.0,31357.0,-0.000244,-0.000366,0.0,0.47250000000000003,-1.2425000000000002,-3.9550000000000005,0.976875,0.07906250000000001,0.2225625,1.26553125,0.94371875,-0.35990625,-0.308375,1.25178125,0.01802013297978107,0.021841752071045474,True
28235,87329,0,87330,5154.0,45699.0,31358.0,0.000244,-0.000549,-0.0006709999999999999,0.5075000000000001,-1.05,-3.9025000000000003,0.9765,0.07843750000000001,0.2223125,1.26496875,0.9401875000000001,-0.36296875,-0.30790625,1.2510937500000001,0.018117917177068166,0.021812604695231618,True
28236,87330,0,87331,5155.0,45700.0,31358.0,-0.000549,-0.000305,0.000305,0.43750000000000006,-0.7000000000000001,-3.6575,0.97828125,0.078875,0.2230625,1.26665625,0.9410000000000001,-0.3625625,-0.30796875,1.24990625,0.018119502002303743,0.021845973864023503,True
28237,87331,0,87332,5153.0,45701.0,31357.0,-0.001647,-0.000122,-0.000183,0.43750000000000006,-0.7525000000000001,-3.5700000000000003,0.98109375,0.07790625,0.22262500000000002,1.25953125,0.94746875,-0.35946875,-0.30853125,1.2430625,0.017955030320601716,0.021850610575248144,True
28238,87332,0,87333,5154.0,45699.0,31359.0,-0.0021349999999999997,0.000549,-0.000122,0.4025,-0.8400000000000001,-3.6925000000000003,0.9808125,0.07565625000000001,0.22196875,1.26121875,0.9462812500000001,-0.36509375,-0.3095,1.2428125,0.018089403000963213,0.021862594870318185,True
28239,87333,0,87334,5154.0,45701.0,31357.0,-0.001769,0.00042699999999999997,0.000122,0.29750000000000004,-1.05,-3.7450000000000006,0.9788125,0.076875,0.22128125,1.2615,0.94453125,-0.36478125,-0.30840625,1.236625,0.018126830094154858,0.021790301451786866,True
28240,87334,0,87335,5154.0,45699.0,31358.0,-0.003172,-6.1e-05,0.001464,0.36750000000000005,-1.3125000000000002,-3.7275000000000005,0.97575,0.0760625,0.22040625,1.261875,0.94684375,-0.3655,-0.312625,1.24278125,0.0181224477232152,0.0219240518043609,True
28241,87335,0,87336,5154.0,45700.0,31358.0,-0.001037,-0.0006709999999999999,0.002196,0.525,-1.5925000000000002,-3.5875000000000004,0.9773437500000001,0.08090625,0.2183125,1.261625,0.9405,-0.36462500000000003,-0.31259375,1.2430625,0.018285988395060463,0.021836676722326264,True
28242,87336,0,87337,5155.0,45699.0,31357.0,0.004758,0.000793,-0.0015249999999999999,0.385,-2.0125,-3.7625,0.980125,0.0760625,0.22228125,1.25921875,0.94721875,-0.35984375,-0.3083125,1.24725,0.017894460016805322,0.021827666976060145,True
28243,87337,0,87338,5153.0,45700.0,31358.0,0.003721,-0.000183,-0.00042699999999999997,0.4025,-2.0300000000000002,-3.8500000000000005,0.997375,0.07728125,0.22459375,1.2751875,0.9470937500000001,-0.361875,-0.30678125,1.2512812500000001,0.01802637317529952,0.021861183286042862,True
28244,87338,0,87339,5154.0,45700.0,31358.0,0.00244,0.000244,-0.001647,0.5075000000000001,-1.8200000000000003,-3.8675,0.97971875,0.07978125,0.229,1.271875,0.9403125,-0.36212500000000003,-0.31190625,1.2494687500000001,0.018139068328399108,0.02224861532608123,True
28245,87339,0,87340,5154.0,45700.0,31358.0,-0.00042699999999999997,0.000915,0.000305,0.56,-1.5925000000000002,-3.8150000000000004,0.99075,0.07634375,0.22475,1.26878125,0.94046875,-0.36278125,-0.3085625,1.25084375,0.01802441993358209,0.021939285796928554,True
28246,87340,0,87341,5154.0,45700.0,31356.0,-0.0011589999999999999,0.000305,0.001098,0.45500000000000007,-1.4000000000000001,-3.6750000000000003,0.9765625,0.07996875,0.216875,1.26028125,0.9401875000000001,-0.35940625,-0.30525,1.2433125,0.018037180196048497,0.021481984344946053,True
28247,87341,0,87342,5155.0,45700.0,31357.0,-0.000549,0.0,-0.0006709999999999999,0.28,-1.155,-3.7625,0.96946875,0.07253125,0.2273125,1.25278125,0.93653125,-0.3595625,-0.3046875,1.2456875,0.01773815724317709,0.02188878174220508,True
28248,87342,0,87343,5155.0,45701.0,31359.0,-0.0015249999999999999,-0.000976,0.00061,0.29750000000000004,-1.2950000000000002,-3.6925000000000003,0.98865625,0.07565625000000001,0.22471875,1.27859375,0.9480937500000001,-0.36246875,-0.30871875,1.25065625,0.017983604391488443,0.021944286964939278,True
28249,87343,0,87344,5154.0,45700.0,31356.0,-0.0013419999999999999,-0.000305,-0.000122,0.35000000000000003,-1.3825,-3.6925000000000003,0.968875,0.08103125,0.2161875,1.25675,0.94034375,-0.36490625,-0.30909375,1.23803125,0.018302450886713343,0.021608425859149936,True
28250,87344,0,87345,5157.0,45701.0,31359.0,0.000366,-0.000488,0.0,0.385,-1.4525000000000001,-3.8325000000000005,0.9702500000000001,0.07818750000000001,0.22362500000000002,1.2443125,0.94765625,-0.36590625,-0.3086875,1.247875,0.01822603048060238,0.021898035424578143,True
28251,87345,0,87346,5156.0,45701.0,31358.0,-0.0006709999999999999,-0.000122,-0.000244,0.49000000000000005,-1.5925000000000002,-3.7450000000000006,0.9929687500000001,0.075,0.2246875,1.2621875,0.94640625,-0.35681250000000003,-0.30843750000000003,1.24990625,0.01772861288807803,0.021931685243035473,True
28252,87346,0,87347,5156.0,45701.0,31357.0,0.0011589999999999999,-0.000122,0.000366,0.29750000000000004,-1.6450000000000002,-3.7450000000000006,0.99359375,0.077625,0.22843750000000002,1.26646875,0.947125,-0.36246875,-0.30878125,1.2515,0.018064415167284718,0.022099781329020768,True
28253,87347,0,87348,5156.0,45700.0,31356.0,-0.0006709999999999999,0.000366,0.000244,0.35000000000000003,-1.61,-3.7450000000000006,0.98821875,0.08509375,0.22459375,1.26703125,0.9475625,-0.362875,-0.3083125,1.24203125,0.01838735165697809,0.021922799042508608,True
28254,87348,0,87349,5158.0,45702.0,31356.0,-0.00061,0.00061,-0.000976,0.36750000000000005,-1.7325000000000002,-3.8150000000000004,0.98046875,0.08021875,0.22484375,1.2669375,0.9400625,-0.35659375,-0.3111875,1.25028125,0.017934055331525988,0.022048748132932627,True
28255,87349,0,87350,5157.0,45698.0,31357.0,0.0006709999999999999,-0.000732,0.0008539999999999999,0.36750000000000005,-1.715,-3.8325000000000005,0.9768125,0.082,0.2210625,1.26628125,0.9408125,-0.3626875,-0.310375,1.24790625,0.018252809752618632,0.021860522513535888,True
28256,87350,0,87351,5159.0,45702.0,31359.0,0.0008539999999999999,0.000732,-0.000305,0.31500000000000006,-1.6975000000000002,-3.8500000000000005,0.96790625,0.08596875,0.2219375,1.26634375,0.94046875,-0.36290625,-0.31225,1.2518125,0.018424526014830432,0.021971948297668874,True
28257,87351,0,87352,5159.0,45701.0,31359.0,0.00042699999999999997,0.000305,-0.000549,0.36750000000000005,-1.6450000000000002,-3.7975000000000003,0.977,0.07828125,0.2223125,1.2675,0.9405,-0.36134375,-0.3085625,1.25090625,0.01804600782746231,0.02183901248788364,True
28258,87352,0,87353,5157.0,45702.0,31361.0,0.001037,-0.00042699999999999997,-6.1e-05,0.31500000000000006,-1.5750000000000002,-3.7100000000000004,0.98028125,0.07775,0.22187500000000002,1.26121875,0.9356875,-0.36362500000000003,-0.30821875,1.2437500000000001,0.018116146509396695,0.02180718198448827,True
28259,87353,0,87354,5161.0,45704.0,31361.0,0.000122,-0.000244,0.000305,0.31500000000000006,-1.4875,-3.7275000000000005,0.975875,0.078,0.22290625,1.2665625,0.93278125,-0.36509375,-0.31125,1.25053125,0.01818559594091445,0.021971566661525013,True
28260,87354,0,87355,5161.0,45702.0,31361.0,-0.0011589999999999999,-0.000244,0.000183,0.35000000000000003,-1.5050000000000001,-3.7975000000000003,0.98003125,0.07840625,0.22165625,1.26621875,0.940625,-0.36290625,-0.3063125,1.25021875,0.01811411559324947,0.02172146638861818,True
28261,87355,0,87356,5160.0,45702.0,31363.0,-0.001098,-0.000122,0.0015249999999999999,0.31500000000000006,-1.54,-3.7450000000000006,0.98203125,0.07771875,0.22234375,1.249,0.9479375,-0.36312500000000003,-0.308375,1.24125,0.01809471280880429,0.021832753114924382,True
28262,87356,0,87357,5161.0,45704.0,31363.0,-0.002013,-0.00061,0.000183,0.36750000000000005,-1.8200000000000003,-3.7975000000000003,0.98175,0.07559375,0.2220625,1.2609062500000001,0.94934375,-0.3645,-0.30853125,1.24428125,0.01806290915060847,0.021827470551105385,True
28263,87357,0,87358,5161.0,45702.0,31362.0,0.000122,0.000244,-0.000122,0.2625,-1.995,-3.7275000000000005,0.98353125,0.07615625,0.22125,1.26246875,0.94715625,-0.36375,-0.30843750000000003,1.2356562500000001,0.018055769329434097,0.02179027343900652,True
28264,87358,0,87359,5163.0,45704.0,31362.0,0.000793,0.000244,-0.000366,0.21000000000000002,-2.2575000000000003,-3.8675,0.98290625,0.0775625,0.22725,1.26209375,0.9473125,-0.36278125,-0.30890625,1.240125,0.018074445010255142,0.02205595942845022,True
28265,87359,0,87360,5164.0,45704.0,31362.0,0.0015249999999999999,0.000244,-6.1e-05,0.29750000000000004,-2.3625000000000003,-3.8850000000000002,0.97709375,0.07678125,0.2226875,1.2646875,0.94740625,-0.36378125,-0.30878125,1.2480625,0.01808268164450048,0.0218632412926913,True
28266,87360,0,87361,5163.0,45705.0,31364.0,0.002257,-0.000122,-0.001098,0.35000000000000003,-2.3625000000000003,-3.8500000000000005,0.98403125,0.077875,0.2219375,1.2666250000000001,0.94721875,-0.36246875,-0.30290625,1.25134375,0.01807467685310012,0.021595925384438334,True
28267,87361,0,87362,5163.0,45705.0,31364.0,0.00183,0.0006709999999999999,0.0013419999999999999,0.2625,-2.24,-3.8325000000000005,0.9833437500000001,0.07865625,0.2223125,1.261875,0.94696875,-0.3626875,-0.30825,1.2439375,0.018115560937191348,0.02182643752635422,True
28268,87362,0,87363,5164.0,45706.0,31363.0,0.000793,-0.000793,0.000122,0.17500000000000002,-2.0125,-3.7800000000000002,0.97890625,0.0765625,0.2206875,1.26125,0.9384687500000001,-0.36378125,-0.30934375000000003,1.24371875,0.01807370315311791,0.021803601752926796,True
28269,87363,0,87364,5164.0,45705.0,31366.0,-0.0008539999999999999,-0.000183,-0.000793,0.15750000000000003,-1.7850000000000001,-3.8150000000000004,0.97609375,0.075875,0.21928125,1.26665625,0.9328125,-0.36053125,-0.31209375,1.24640625,0.017914480005439125,0.021856406340979993,True
28270,87364,0,87365,5166.0,45705.0,31364.0,-0.000488,-0.000244,-0.00061,0.1925,-1.7500000000000002,-3.8500000000000005,0.97590625,0.078625,0.22234375,1.26465625,0.9400937500000001,-0.36225,-0.308625,1.2491875000000001,0.018096645424786298,0.021842812993330556,True
28271,87365,0,87366,5165.0,45704.0,31364.0,-0.0008539999999999999,-0.000732,0.000915,0.22750000000000004,-1.6275000000000002,-3.8500000000000005,0.98278125,0.0748125,0.2223125,1.2616875,0.94684375,-0.36240625,-0.30925,1.2424375,0.01794645182062014,0.02186667626520769,True
28272,87366,0,87367,5167.0,45706.0,31364.0,-0.000183,0.00042699999999999997,-0.000183,0.24500000000000002,-1.5575,-3.8500000000000005,0.98128125,0.07753125,0.22090625,1.2584375,0.94784375,-0.3648125,-0.30893750000000003,1.24271875,0.01815502376634337,0.02179625292137923,True
28273,87367,0,87368,5167.0,45707.0,31363.0,0.000305,0.00061,-0.000305,0.3325,-1.3650000000000002,-3.8325000000000005,0.97965625,0.075375,0.2214375,1.26159375,0.94484375,-0.3660625,-0.30865625,1.24315625,0.018116899273323297,0.021806789505281685,True
28274,87368,0,87369,5169.0,45706.0,31361.0,-0.00042699999999999997,-0.000366,0.000305,0.4025,-1.3475000000000001,-3.7975000000000003,0.9813125,0.07765625,0.22225,1.2673125,0.9362812500000001,-0.3628125,-0.309,1.24953125,0.018079552596811224,0.021854045826648565,True
28275,87369,0,87370,5169.0,45705.0,31362.0,0.000122,-6.1e-05,-0.000305,0.31500000000000006,-1.33,-3.8325000000000005,0.97603125,0.07893750000000001,0.22278125000000001,1.2619375,0.941125,-0.36162500000000003,-0.30793750000000003,1.24415625,0.018084282144561377,0.021833146065971247,True
28276,87370,0,87371,5169.0,45707.0,31364.0,0.000305,-0.000122,-0.0008539999999999999,0.2625,-1.155,-3.8675,0.97690625,0.07790625,0.22128125,1.26275,0.9469375,-0.36296875,-0.3096875,1.23590625,0.01809611154223559,0.021841858312658276,True
28277,87371,0,87372,5168.0,45706.0,31365.0,-0.000915,0.00061,0.001037,0.47250000000000003,-1.2075,-3.7450000000000006,0.9754375000000001,0.07775,0.22137500000000002,1.2611875000000001,0.9402812500000001,-0.3651875,-0.30943750000000003,1.241875,0.018179113130157524,0.021835655391038974,True
28278,87372,0,87373,5170.0,45707.0,31365.0,0.000122,0.0008539999999999999,-0.000244,0.5075000000000001,-1.1900000000000002,-3.7800000000000002,0.98021875,0.07828125,0.2221875,1.25834375,0.9513125,-0.36396875,-0.3081875,1.2504375,0.018151804598747896,0.02181878019494461,True
28279,87373,0,87374,5171.0,45707.0,31364.0,-0.00061,0.000793,0.0013419999999999999,0.47250000000000003,-1.2075,-3.8325000000000005,0.96828125,0.07968750000000001,0.22184375,1.2615,0.94503125,-0.36262500000000003,-0.3126875,1.23853125,0.018155371188449523,0.021985691627056863,True
28280,87374,0,87375,5170.0,45708.0,31364.0,-0.000915,-0.001098,-0.000915,0.47250000000000003,-1.2950000000000002,-3.7100000000000004,0.9764375000000001,0.07865625,0.2201875,1.26315625,0.92453125,-0.36171875000000003,-0.3111875,1.24975,0.01807651605041208,0.02185722108391456,True
28281,87375,0,87376,5170.0,45708.0,31362.0,-0.0006709999999999999,0.000122,-0.000549,0.31500000000000006,-1.3125000000000002,-3.6925000000000003,0.9765625,0.079875,0.223,1.27575,0.9390000000000001,-0.36090625,-0.30693750000000003,1.252125,0.018093795258540515,0.021801903263214465,True
28282,87376,0,87377,5172.0,45707.0,31363.0,0.000793,-0.000305,-0.000793,0.3325,-1.2075,-3.8150000000000004,0.9881562500000001,0.08015625,0.22209375,1.286375,0.93671875,-0.36128125,-0.3080625,1.24515625,0.018120454974017427,0.021809893322431603,True
28283,87377,0,87378,5173.0,45706.0,31362.0,0.002013,0.000488,0.000488,0.35000000000000003,-1.1375000000000002,-3.8150000000000004,0.9713125,0.0814375,0.2180625,1.2856875,0.93696875,-0.36146875,-0.313625,1.2445,0.018180605387349644,0.021867882720079793,True
28284,87378,0,87379,5172.0,45708.0,31361.0,-0.00061,-0.000549,6.1e-05,0.36750000000000005,-1.225,-3.6575,0.9833437500000001,0.08171875,0.21859375,1.2841875,0.9382812500000001,-0.36125,-0.312125,1.24646875,0.0181833341885166,0.021829385543221745,True
28285,87379,0,87380,5172.0,45705.0,31361.0,-0.00183,-0.00061,0.0,0.42000000000000004,-1.1725,-3.6225000000000005,0.97290625,0.08134375,0.22721875,1.2766875,0.9375625,-0.3610625,-0.31065625,1.2509375,0.018160384014449287,0.022125071181490624,True
28286,87380,0,87381,5170.0,45706.0,31359.0,-0.001586,-0.00061,0.001952,0.42000000000000004,-1.1900000000000002,-3.7625,0.9895,0.08465625,0.2290625,1.2505,0.94171875,-0.35334375,-0.3075625,1.24134375,0.017985209936520523,0.022076462829212103,True
28287,87381,0,87382,5170.0,45706.0,31360.0,-0.0006709999999999999,0.000549,-0.000976,0.36750000000000005,-1.3650000000000002,-3.7625,0.97121875,0.0685625,0.21415625,1.2546875,0.9505,-0.36609375,-0.30693750000000003,1.24075,0.017838569220805036,0.021438066807058686,True
28288,87382,0,87383,5168.0,45707.0,31360.0,0.000915,0.000122,-0.00061,0.28,-1.4000000000000001,-3.8150000000000004,0.96321875,0.0735625,0.22446875,1.25059375,0.93671875,-0.36212500000000003,-0.3086875,1.24084375,0.017883805292026045,0.021932745237685087,True
28289,87383,0,87384,5167.0,45705.0,31357.0,0.000244,-0.000244,0.000366,0.385,-1.61,-3.7975000000000003,0.9995937500000001,0.080875,0.2189375,1.28259375,0.9521875,-0.36121875000000003,-0.30893750000000003,1.2457500000000001,0.01814743977043431,0.021715264190382656,True
28290,87384,0,87385,5167.0,45705.0,31358.0,0.00061,0.000976,-0.0006709999999999999,0.43750000000000006,-1.5050000000000001,-3.7450000000000006,0.9637187500000001,0.07321875,0.21046875,1.25609375,0.9373125,-0.363,-0.3093125,1.23625,0.017904968599926116,0.02138198067098771,True
28291,87385,0,87386,5165.0,45703.0,31359.0,0.000793,0.0015249999999999999,-0.00042699999999999997,0.31500000000000006,-1.5750000000000002,-3.6925000000000003,0.9630625,0.073875,0.21740625,1.25475,0.9380000000000001,-0.3651875,-0.30928125,1.24359375,0.018020074748039596,0.02166610746666975,True
28292,87386,0,87387,5164.0,45703.0,31358.0,0.0006709999999999999,-0.0006709999999999999,-0.000366,0.35000000000000003,-1.4700000000000002,-3.7450000000000006,0.98065625,0.073875,0.2223125,1.2635625,0.94853125,-0.36609375,-0.30940625,1.24671875,0.018056597602970317,0.02187296326910494,True
28293,87387,0,87388,5163.0,45703.0,31358.0,-0.000976,-0.000305,-0.00042699999999999997,0.31500000000000006,-1.4175000000000002,-3.7800000000000002,0.99753125,0.0805,0.22453125000000002,1.27040625,0.94740625,-0.361875,-0.3085,1.2485625,0.018158495600194977,0.0219277721784561,True
28294,87388,0,87389,5161.0,45703.0,31359.0,-0.00122,0.00042699999999999997,0.000488,0.1925,-1.4000000000000001,-3.8325000000000005,0.9785312500000001,0.08025,0.22390625,1.2594687500000001,0.9349375,-0.3624375,-0.30578125,1.24884375,0.01817090346563229,0.021792654782491306,True
28295,87389,0,87390,5161.0,45704.0,31358.0,-0.002074,-0.001403,0.000488,0.2625,-1.5575,-3.7975000000000003,0.9739375,0.080125,0.22034375,1.26753125,0.9394375,-0.36171875000000003,-0.31025,1.2501875,0.018136805310585896,0.021825927335177547,True
28296,87390,0,87391,5158.0,45702.0,31355.0,-0.000793,-0.000366,0.000488,0.2625,-1.8025000000000002,-3.8675,0.9763437500000001,0.07896875,0.2206875,1.26896875,0.93359375,-0.3620625,-0.30828125,1.2511875000000001,0.018103198364260005,0.021760845390909733,True
28297,87391,0,87392,5158.0,45701.0,31356.0,0.0006709999999999999,6.1e-05,0.000793,0.2625,-2.0650000000000004,-3.8150000000000004,0.9680625,0.07878125,0.2244375,1.265875,0.93975,-0.36059375,-0.30940625,1.24753125,0.018036300941966982,0.02196037799154391,True
28298,87392,0,87393,5158.0,45702.0,31356.0,0.001464,6.1e-05,0.000183,0.3325,-2.1875,-3.7800000000000002,0.9832500000000001,0.07796875,0.22246875,1.2670937500000001,0.9474375,-0.36228125,-0.308375,1.2448125,0.018070967799864803,0.021837895375565006,True
28299,87393,0,87394,5158.0,45702.0,31355.0,0.001037,-0.000366,-0.0018909999999999999,0.36750000000000005,-2.2575000000000003,-3.8325000000000005,0.98065625,0.07853125,0.22237500000000002,1.2681875,0.9479375,-0.36240625,-0.3085,1.250125,0.01809909478871776,0.021839068638542073,True
28300,87394,0,87395,5157.0,45703.0,31354.0,0.0017079999999999999,-0.0006709999999999999,-0.00061,0.42000000000000004,-2.1700000000000004,-3.8150000000000004,0.980375,0.0778125,0.22178125,1.267125,0.94665625,-0.36303125,-0.308125,1.25015625,0.018094782438043296,0.021799552618723163,True
28301,87395,0,87396,5156.0,45702.0,31354.0,0.002623,0.001037,-0.000305,0.4025,-2.2575000000000003,-3.8500000000000005,0.9755625,0.078125,0.22362500000000002,1.2513750000000001,0.9400000000000001,-0.36112500000000003,-0.3116875,1.24259375,0.01803077649328592,0.022018730703082624,True
28302,87396,0,87397,5156.0,45703.0,31353.0,0.000793,0.00122,6.1e-05,0.31500000000000006,-1.995,-3.7625,0.976125,0.07475,0.22228125,1.26815625,0.9398125,-0.36534375,-0.3085,1.24840625,0.018062283648265787,0.02183521196289364,True
28303,87397,0,87398,5155.0,45703.0,31354.0,-0.001586,0.00061,0.0,0.4025,-1.9075000000000002,-3.7800000000000002,0.97428125,0.08053125,0.21959375,1.2613125,0.94675,-0.36246875,-0.31128125,1.24309375,0.018183707264888743,0.02183657021367395,True
28304,87398,0,87399,5155.0,45704.0,31354.0,-0.0008539999999999999,0.000549,6.1e-05,0.29750000000000004,-1.7500000000000002,-3.8150000000000004,0.9811562500000001,0.0780625,0.22237500000000002,1.26646875,0.9395625,-0.36428125,-0.30865625,1.2473125,0.018155419626835905,0.02184535601386852,True
28305,87399,0,87400,5154.0,45702.0,31353.0,-0.000732,-0.000793,0.000793,0.21000000000000002,-1.7325000000000002,-3.8500000000000005,0.97546875,0.07840625,0.22212500000000002,1.2673125,0.94934375,-0.3586875,-0.30821875,1.250375,0.017944059999127623,0.02181746657187705,True
28306,87400,0,87401,5154.0,45701.0,31353.0,0.000244,-0.001769,-0.000305,0.2625,-1.8025000000000002,-3.7800000000000002,0.9656875,0.07821875,0.2214375,1.26753125,0.9434375,-0.3623125,-0.308,1.250625,0.018082489090475298,0.021780380944545007,True
28307,87401,0,87402,5154.0,45700.0,31352.0,-0.0013419999999999999,-0.000732,0.00061,0.17500000000000002,-1.7850000000000001,-3.9025000000000003,0.9764375000000001,0.07853125,0.22009375,1.26134375,0.93971875,-0.36275,-0.3115625,1.242,0.018112949071841234,0.021868452511022277,True
28308,87402,0,87403,5154.0,45702.0,31351.0,0.000732,0.000183,-0.000122,0.35000000000000003,-1.8025000000000002,-3.8150000000000004,0.98046875,0.075125,0.22184375,1.2633750000000001,0.9400000000000001,-0.3653125,-0.30821875,1.2423125,0.01807641498544293,0.02180589641106467,True
28309,87403,0,87404,5153.0,45701.0,31352.0,-0.000244,0.000549,-0.000488,0.42000000000000004,-1.7850000000000001,-3.9550000000000005,0.98403125,0.0780625,0.22312500000000002,1.26790625,0.9470000000000001,-0.363375,-0.30478125,1.2495,0.018118897730712596,0.021720263374104633,True
28310,87404,0,87405,5154.0,45702.0,31352.0,0.000488,0.000366,-0.000244,0.36750000000000005,-2.0300000000000002,-3.8850000000000002,0.97675,0.0765625,0.218625,1.26184375,0.9389375,-0.36265625,-0.31103125,1.2431875000000001,0.018028360515902283,0.02178666320458948,True
28311,87405,0,87406,5154.0,45701.0,31355.0,0.001098,0.00122,-0.0006709999999999999,0.35000000000000003,-1.8025000000000002,-3.8675,0.9833125,0.0785,0.2229375,1.2676875,0.94496875,-0.36328125,-0.308875,1.24784375,0.018133076799743467,0.021877297900458167,True
28312,87406,0,87407,5152.0,45701.0,31355.0,0.00122,-0.000183,-0.000915,0.31500000000000006,-1.6800000000000002,-3.7450000000000006,0.976375,0.07825,0.2191875,1.2615625,0.939875,-0.36284375,-0.30903125,1.24265625,0.018105183225993478,0.021729321278485748,True
28313,87407,0,87408,5153.0,45703.0,31353.0,0.0006709999999999999,6.1e-05,-0.000305,0.35000000000000003,-1.6450000000000002,-3.8150000000000004,0.9761875,0.0745,0.22187500000000002,1.2618125,0.939625,-0.36478125,-0.30871875,1.24340625,0.018029353331460753,0.02182730218967217,True
28314,87408,0,87409,5154.0,45703.0,31355.0,-0.000244,0.000183,-6.1e-05,0.3325,-1.5750000000000002,-3.7625,0.9695,0.07703125,0.22228125,1.26703125,0.94475,-0.3629375,-0.30843750000000003,1.2493125,0.01805893685849664,0.021832696980215203,True
28315,87409,0,87410,5155.0,45701.0,31355.0,0.000122,-0.000305,0.000122,0.31500000000000006,-1.5050000000000001,-3.8150000000000004,0.97621875,0.07725,0.2223125,1.2678125,0.93965625,-0.359125,-0.30903125,1.24675,0.01791423131988526,0.021857874323971672,True
28316,87410,0,87411,5153.0,45701.0,31355.0,-0.002074,-0.000488,0.002196,0.45500000000000007,-1.3650000000000002,-3.7975000000000003,0.9765,0.07625,0.2218125,1.262,0.94178125,-0.36215625,-0.31,1.2429375,0.01799537961669546,0.021876285479226657,True
28317,87411,0,87412,5154.0,45701.0,31356.0,-0.001281,-0.000732,0.000244,0.3325,-1.4000000000000001,-3.7800000000000002,0.9846875,0.0820625,0.22062500000000002,1.267375,0.94828125,-0.3628125,-0.307375,1.2485,0.018260412257410756,0.02172180253935277,True
28318,87412,0,87413,5153.0,45698.0,31352.0,-0.0008539999999999999,-0.000122,-0.0008539999999999999,0.29750000000000004,-1.54,-3.8500000000000005,0.9761875,0.07615625,0.22112500000000002,1.26103125,0.9404375,-0.36225,-0.3159375,1.23325,0.01799531036747427,0.022086851473442057,True
28319,87413,0,87414,5152.0,45699.0,31352.0,-0.000244,0.000122,-0.000305,0.35000000000000003,-1.715,-3.8325000000000005,0.982375,0.078875,0.22234375,1.2691875000000001,0.9358125,-0.3705,-0.31040625,1.23815625,0.018439301614657063,0.021914483638051093,True
28320,87414,0,87415,5153.0,45700.0,31354.0,0.0008539999999999999,-0.000183,0.000366,0.385,-1.9425000000000001,-3.7800000000000002,0.9716875,0.078875,0.22084375,1.26415625,0.9516875,-0.3611875,-0.30509375,1.2591875000000001,0.01806408246724426,0.02163898256924024,True
28321,87415,0,87416,5154.0,45701.0,31355.0,0.002623,-0.000549,-0.00042699999999999997,0.42000000000000004,-1.8900000000000001,-3.7975000000000003,0.9764375000000001,0.077375,0.22365625,1.2650937500000001,0.938125,-0.35931250000000003,-0.313375,1.2380625,0.017926922198645796,0.02208789400895598,True
28322,87416,0,87417,5154.0,45702.0,31355.0,0.001098,0.001647,-0.000183,0.35000000000000003,-1.8725000000000003,-3.7450000000000006,0.98109375,0.07840625,0.21971875000000002,1.2618125,0.95425,-0.356,-0.30540625,1.2589375,0.01783569756938742,0.02160527557526425,True
28323,87417,0,87418,5156.0,45702.0,31356.0,0.001037,0.000366,-0.00061,0.36750000000000005,-1.6975000000000002,-3.7450000000000006,0.978625,0.0775625,0.22259375,1.2683125,0.9334687500000001,-0.3690625,-0.306625,1.251125,0.018327541324168712,0.02177261343358035,True
28324,87418,0,87419,5156.0,45700.0,31355.0,-0.00042699999999999997,0.000122,0.0,0.3325,-1.6625,-3.8500000000000005,0.965875,0.07615625,0.22178125,1.26534375,0.9421875000000001,-0.3608125,-0.3154375,1.23790625,0.01793736354236953,0.022093731605692883,True
28325,87419,0,87420,5154.0,45701.0,31354.0,-0.002013,0.000732,6.1e-05,0.35000000000000003,-1.5925000000000002,-3.7800000000000002,0.9772500000000001,0.07975,0.22062500000000002,1.2624375,0.95653125,-0.3610625,-0.31209375,1.2405625,0.018094961991087212,0.021911677187408017,True
28326,87420,0,87421,5155.0,45699.0,31355.0,-0.001464,-0.00061,-6.1e-05,0.28,-1.7675,-3.7800000000000002,0.97246875,0.07906250000000001,0.22659375,1.2609375,0.93603125,-0.3678125,-0.30690625,1.2393125,0.018338740910781387,0.021948494576515674,True
28327,87421,0,87422,5155.0,45704.0,31354.0,-6.1e-05,-0.001098,0.0,0.31500000000000006,-1.8725000000000003,-3.7800000000000002,0.9769375,0.07840625,0.21978125,1.26253125,0.956375,-0.3624375,-0.3051875,1.2575625,0.018095223435668127,0.021599041356911975,True
28328,87422,0,87423,5155.0,45702.0,31355.0,0.000488,-0.000305,0.000305,0.28,-1.9600000000000002,-3.7450000000000006,0.9756875,0.076125,0.2238125,1.26675,0.9335,-0.36628125,-0.31140625,1.236375,0.018156494438395274,0.022015129215324593,True
28329,87423,0,87424,5156.0,45702.0,31355.0,0.000366,-0.000793,-0.000244,0.385,-2.0650000000000004,-3.8500000000000005,0.97790625,0.07828125,0.21978125,1.2656875,0.95253125,-0.36103125,-0.30575,1.2510625,0.018033411455026148,0.021621684169383787,True
28330,87424,0,87425,5156.0,45703.0,31356.0,0.001464,0.000183,-0.000793,0.42000000000000004,-1.9600000000000002,-3.7625,0.9761562500000001,0.0771875,0.21971875000000002,1.2610000000000001,0.9340937500000001,-0.36075,-0.3098125,1.24446875,0.017977176400562383,0.021782613502263747,True
28331,87425,0,87426,5157.0,45701.0,31356.0,0.001464,-6.1e-05,-0.00061,0.4025,-2.0475000000000003,-3.8675,0.97646875,0.080125,0.22062500000000002,1.257875,0.9384375,-0.364375,-0.31128125,1.24321875,0.018243849883282457,0.02187898879249731,True
28332,87426,0,87427,5157.0,45703.0,31356.0,0.000122,-6.1e-05,0.000915,0.43750000000000006,-1.8725000000000003,-3.8500000000000005,0.9808125,0.0756875,0.2215,1.2608125000000001,0.93325,-0.3651875,-0.30934375000000003,1.24325,0.01809446366870766,0.02183702511508564,True
28333,87427,0,87428,5157.0,45702.0,31357.0,-0.001037,0.00042699999999999997,0.0,0.43750000000000006,-1.8025000000000002,-3.7625,0.9816875,0.07846875,0.2218125,1.2656875,0.9463125,-0.36340625,-0.3046875,1.24534375,0.01813683174946032,0.02166248794599807,True
28334,87428,0,87429,5158.0,45704.0,31356.0,-0.001037,0.0,0.0008539999999999999,0.385,-1.8375000000000001,-3.7975000000000003,0.98384375,0.077625,0.22290625,1.266375,0.9469375,-0.36296875,-0.3091875,1.24421875,0.018084567382618343,0.02188858636266638,True
28335,87429,0,87430,5158.0,45706.0,31357.0,-0.00061,0.000488,-0.000183,0.36750000000000005,-1.8200000000000003,-3.7800000000000002,0.9820625000000001,0.07790625,0.22237500000000002,1.26578125,0.9475625,-0.36271875000000003,-0.30843750000000003,1.24871875,0.018086035656426896,0.02183655366577963,True
28336,87430,0,87431,5158.0,45700.0,31358.0,-0.0006709999999999999,0.000244,-6.1e-05,0.22750000000000004,-1.9250000000000003,-3.8675,0.979375,0.07818750000000001,0.2225625,1.26415625,0.946625,-0.36290625,-0.30893750000000003,1.2485,0.018105136779402085,0.021864386298249362,True
28337,87431,0,87432,5160.0,45705.0,31356.0,0.000122,-0.000488,-0.000366,0.24500000000000002,-1.995,-3.8150000000000004,0.97978125,0.07831250000000001,0.21946875000000002,1.26121875,0.9475,-0.36262500000000003,-0.312125,1.2463125,0.018098932278438798,0.021865375815565274,True
28338,87432,0,87433,5161.0,45702.0,31356.0,6.1e-05,-0.000366,0.00061,0.24500000000000002,-1.995,-3.8325000000000005,0.97665625,0.07546875,0.22175,1.26184375,0.9395625,-0.36453125000000003,-0.3106875,1.24390625,0.018059038176652796,0.021901375680963363,True
28339,87433,0,87434,5161.0,45705.0,31357.0,0.000244,-0.000488,0.000183,0.12250000000000001,-1.9075000000000002,-3.8150000000000004,0.97896875,0.07896875,0.21928125,1.2614375,0.9480625,-0.3621875,-0.31075,1.24259375,0.01810823638066163,0.021802340528367083,True
28340,87434,0,87435,5163.0,45704.0,31357.0,0.000915,-0.000549,0.000549,0.28,-1.9425000000000001,-3.7800000000000002,0.98190625,0.0779375,0.22075,1.2719375,0.94071875,-0.36503125000000003,-0.308875,1.24440625,0.018180512286435094,0.021787310190208308,True
28341,87435,0,87436,5164.0,45703.0,31359.0,0.000244,0.000305,-0.0006709999999999999,0.525,-2.1,-3.8150000000000004,0.977125,0.07896875,0.2186875,1.25953125,0.939625,-0.36240625,-0.31175,1.2426875,0.01811705278496454,0.021818153773381185,True
28342,87436,0,87437,5166.0,45704.0,31358.0,0.000915,0.00042699999999999997,0.000122,0.385,-2.0825,-3.9025000000000003,0.97384375,0.07403125,0.22728125000000002,1.26571875,0.93890625,-0.36628125,-0.3091875,1.2436875,0.01807056626665179,0.022068559469542125,True
28343,87437,0,87438,5165.0,45704.0,31358.0,0.0017079999999999999,0.000976,0.001037,0.36750000000000005,-1.8550000000000002,-3.8675,0.981,0.07940625,0.2195625,1.2710000000000001,0.94696875,-0.363,-0.310125,1.25121875,0.018158939785740673,0.02178876085581625,True
28344,87438,0,87439,5166.0,45705.0,31359.0,0.001403,0.0011589999999999999,-0.000976,0.42000000000000004,-1.8550000000000002,-3.8850000000000002,0.9725,0.079375,0.2173125,1.25884375,0.94021875,-0.35981250000000004,-0.3110625,1.2436875,0.018029182285372685,0.021733932854641796,True
28345,87439,0,87440,5167.0,45705.0,31359.0,0.000305,-0.000549,-0.000793,0.42000000000000004,-1.8375000000000001,-3.7625,0.9681875,0.07371875,0.22109375,1.25965625,0.9268125,-0.36375,-0.30996875,1.23515625,0.017955723154276335,0.021845462059674595,True
28346,87440,0,87441,5167.0,45705.0,31357.0,-0.00122,-0.001098,-0.0008539999999999999,0.28,-1.5750000000000002,-3.7275000000000005,0.97346875,0.07640625,0.2226875,1.25975,0.9458125000000001,-0.36528125,-0.3068125,1.24309375,0.018127740676090083,0.021784016312299277,True
28347,87441,0,87442,5168.0,45704.0,31358.0,-0.000305,0.000366,0.000122,0.3325,-1.4000000000000001,-3.7450000000000006,0.98803125,0.07959375,0.2234375,1.27353125,0.94653125,-0.36284375,-0.30846875,1.24971875,0.018160338938265366,0.021881520200650238,True
28348,87442,0,87443,5168.0,45705.0,31358.0,-0.0006709999999999999,-0.000305,0.000976,0.4025,-1.3825,-3.7975000000000003,0.9785625,0.07903125,0.223,1.2663125,0.94153125,-0.36262500000000003,-0.30996875,1.248875,0.018128434435944404,0.02192387639330059,True
28349,87443,0,87444,5168.0,45707.0,31358.0,-0.002806,-0.001037,0.000915,0.35000000000000003,-1.4000000000000001,-3.6575,0.973875,0.07978125,0.2189375,1.264375,0.93996875,-0.36262500000000003,-0.31021875,1.24353125,0.01815921929595025,0.021766823879361432,True
28350,87444,0,87445,5172.0,45706.0,31358.0,-0.00244,-0.000366,-0.00042699999999999997,0.3325,-1.5750000000000002,-3.7800000000000002,0.97296875,0.07490625000000001,0.2195,1.25959375,0.93975,-0.3621875,-0.30934375000000003,1.244,0.01794148206108339,0.02175475222361772,True
28351,87445,0,87446,5170.0,45706.0,31357.0,-0.000488,0.000122,0.0008539999999999999,0.35000000000000003,-2.0125,-3.7100000000000004,0.9722500000000001,0.07746875,0.21784375,1.25978125,0.9332812500000001,-0.364375,-0.31025,1.242125,0.018134828001949568,0.021723090054606597,True
28352,87446,0,87447,5171.0,45703.0,31357.0,0.00183,-6.1e-05,-0.001037,0.29750000000000004,-2.24,-3.7800000000000002,0.9745625,0.07659375,0.2224375,1.26009375,0.93996875,-0.3641875,-0.3095,1.243875,0.018091358474400184,0.02188187745531582,True
28353,87447,0,87448,5170.0,45706.0,31359.0,0.0037819999999999998,0.000549,-0.0013419999999999999,0.31500000000000006,-2.345,-3.8325000000000005,0.9818125,0.07846875,0.22187500000000002,1.26721875,0.9435,-0.36253125,-0.30884375000000003,1.24646875,0.018101567340216344,0.021832332111641466,True
28354,87448,0,87449,5173.0,45705.0,31361.0,0.003965,-0.000366,-0.000305,0.3325,-2.31,-3.7975000000000003,0.9768125,0.0760625,0.22028125,1.26103125,0.9396875,-0.36221875000000003,-0.31065625,1.2434375,0.017990202554929446,0.021839702496718905,True
28355,87449,0,87450,5173.0,45707.0,31363.0,0.003538,0.000305,0.00183,0.36750000000000005,-2.31,-3.7975000000000003,0.9819375,0.0765625,0.22212500000000002,1.2693125,0.940875,-0.3650625,-0.30890625,1.24321875,0.018125338278939362,0.021845131349749646,True
28356,87450,0,87451,5175.0,45708.0,31362.0,-0.000488,-0.000244,-0.001464,0.42000000000000004,-1.61,-3.6925000000000003,0.976125,0.07884375,0.22078125,1.2556875,0.9463125,-0.3620625,-0.312875,1.24240625,0.018098067435792845,0.021949532912088763,True
28357,87451,0,87452,5175.0,45709.0,31362.0,-0.001952,-0.0006709999999999999,6.1e-05,0.29750000000000004,-1.3650000000000002,-3.6925000000000003,0.98159375,0.08228125,0.22203125,1.26846875,0.92221875,-0.37071875,-0.3071875,1.2393125,0.018587880178954505,0.021772109586927737,True
28358,87452,0,87453,5176.0,45707.0,31360.0,-0.0025009999999999998,-0.0008539999999999999,0.0006709999999999999,0.35000000000000003,-1.1375000000000002,-3.7100000000000004,0.97603125,0.07646875,0.2205,1.26375,0.96828125,-0.35553125,-0.31784375,1.232125,0.017737243978203105,0.0221378077569069,True
28359,87453,0,87454,5176.0,45708.0,31361.0,-0.003111,-0.000122,-0.000183,0.4025,-1.0325000000000002,-3.6925000000000003,0.98171875,0.078625,0.21953125,1.26115625,0.9511875000000001,-0.36612500000000003,-0.30240625,1.26475,0.018252799737340262,0.021476782777425586,True
28360,87454,0,87455,5177.0,45708.0,31361.0,-0.002745,6.1e-05,0.001647,0.4025,-1.1375000000000002,-3.6750000000000003,0.9764375000000001,0.0749375,0.22275,1.26165625,0.92709375,-0.3634375,-0.31571875,1.23615625,0.0179931505970781,0.02214488313243877,True
28361,87455,0,87456,5177.0,45708.0,31361.0,-0.000732,-0.000488,-0.00122,0.385,-1.4000000000000001,-3.7100000000000004,0.9770625000000001,0.07625,0.22253125,1.267625,0.92721875,-0.3680625,-0.311125,1.23234375,0.018233394632831395,0.021951112916411723,True
28362,87456,0,87457,5177.0,45708.0,31358.0,0.0006709999999999999,0.000366,-0.000366,0.2625,-1.4525000000000001,-3.6575,0.98378125,0.07884375,0.22159375,1.2655,0.9574375,-0.36321875000000003,-0.30365625,1.2623125,0.018144667358454023,0.021611974535724436,True
28363,87457,0,87458,5178.0,45707.0,31359.0,0.0021349999999999997,-0.000244,-0.00061,0.24500000000000002,-1.6275000000000002,-3.7975000000000003,0.97621875,0.07546875,0.2223125,1.26184375,0.9363750000000001,-0.36171875000000003,-0.31678125,1.22440625,0.017945675528332747,0.02216961794645416,True
28364,87458,0,87459,5179.0,45708.0,31359.0,0.002989,-0.000549,0.0011589999999999999,0.29750000000000004,-1.6625,-3.8850000000000002,0.98171875,0.07853125,0.22237500000000002,1.26571875,0.95178125,-0.36634375,-0.3041875,1.25421875,0.018257765898915385,0.021665505172719722,True
28365,87459,0,87460,5179.0,45709.0,31359.0,-0.000732,0.000976,-6.1e-05,0.43750000000000006,-1.5575,-3.7625,0.9685,0.07881250000000001,0.2189375,1.26103125,0.96475,-0.359,-0.30190625,1.2610937500000001,0.017973336343856477,0.021432217894429582,True
28366,87460,0,87461,5178.0,45708.0,31358.0,-0.00061,0.00061,0.000122,0.43750000000000006,-1.4000000000000001,-3.7625,0.97509375,0.0769375,0.2231875,1.26140625,0.92584375,-0.35740625,-0.310875,1.23828125,0.017832101888927518,0.021968049278357937,True
28367,87461,0,87462,5179.0,45706.0,31357.0,-0.002074,-0.00042699999999999997,0.000366,0.29750000000000004,-1.4175000000000002,-3.8150000000000004,0.977875,0.0754375,0.2216875,1.26140625,0.92809375,-0.36953125000000003,-0.31221875,1.232125,0.018259224826082776,0.021960408282358023,True
28368,87462,0,87463,5177.0,45706.0,31355.0,-0.001281,-0.000488,0.000305,0.21000000000000002,-1.5050000000000001,-3.8850000000000002,0.98128125,0.07484375,0.22284375,1.2678125,0.9426875,-0.37278125,-0.30721875,1.2346875,0.01836577432048302,0.021806793506558623,True
28369,87463,0,87464,5177.0,45707.0,31356.0,-0.000549,-0.0013419999999999999,0.000183,0.22750000000000004,-1.6275000000000002,-3.8500000000000005,0.983,0.07884375,0.227375,1.2658125,0.94915625,-0.362875,-0.30725,1.2472812500000001,0.018130813789423456,0.021994466671466335,True
28370,87464,0,87465,5174.0,45707.0,31355.0,-0.00042699999999999997,0.000305,-0.0006709999999999999,0.21000000000000002,-1.9075000000000002,-3.8675,0.97709375,0.0765,0.22053125,1.2610000000000001,0.9395,-0.36353125000000003,-0.31215625,1.2429375,0.018061062063817208,0.02191033549317535,True
28371,87465,0,87466,5172.0,45708.0,31356.0,0.001647,0.001098,6.1e-05,0.5075000000000001,-1.995,-3.7975000000000003,0.9742500000000001,0.07825,0.22209375,1.2649375,0.93965625,-0.36412500000000003,-0.309125,1.24559375,0.018156818683207378,0.02185264792541895,True
28372,87466,0,87467,5172.0,45707.0,31356.0,0.00122,0.000732,0.001403,0.5425000000000001,-1.9775000000000003,-3.8150000000000004,0.9819687500000001,0.07865625,0.2225625,1.26134375,0.945375,-0.36215625,-0.3110625,1.2421875,0.01809414960960198,0.021949883926298985,True
28373,87467,0,87468,5170.0,45706.0,31353.0,0.001586,0.0013419999999999999,-0.000549,0.45500000000000007,-1.8900000000000001,-3.9200000000000004,0.98253125,0.07825,0.22065625,1.26209375,0.9452812500000001,-0.3624375,-0.31053125,1.24265625,0.018088809873806757,0.02185009840128442,True
28374,87468,0,87469,5169.0,45707.0,31355.0,-0.000122,0.000488,-0.000244,0.36750000000000005,-1.8375000000000001,-3.9025000000000003,0.981,0.07859375,0.22175,1.2625625,0.94734375,-0.3629375,-0.309125,1.24484375,0.018123071160856527,0.02183850714495071,True
28375,87469,0,87470,5169.0,45705.0,31353.0,-0.000549,-0.001464,6.1e-05,0.21000000000000002,-1.8025000000000002,-3.7975000000000003,0.9763125,0.07703125,0.22284375,1.2665625,0.94115625,-0.360375,-0.309,1.250625,0.01795564518198098,0.02187847093669011,True
28376,87470,0,87471,5166.0,45705.0,31354.0,-0.001647,-0.000793,0.000366,0.22750000000000004,-1.8375000000000001,-3.8150000000000004,0.97703125,0.07675,0.22190625,1.266875,0.9305,-0.36303125,-0.309125,1.2478125,0.018051171280256847,0.021844934772436275,True
28377,87471,0,87472,5165.0,45704.0,31352.0,-0.000915,-0.000549,-0.000732,0.3325,-1.9775000000000003,-3.8850000000000002,0.9758125,0.07831250000000001,0.2195,1.25896875,0.942125,-0.3619375,-0.31278125,1.24309375,0.01807122278349167,0.021893062933719277,True
28378,87472,0,87473,5165.0,45704.0,31353.0,-0.00042699999999999997,0.000305,-0.00042699999999999997,0.3325,-2.2225,-3.8325000000000005,0.976375,0.07871875,0.22225,1.27340625,0.9470937500000001,-0.3635625,-0.30809375,1.2389375,0.018153389923989974,0.02181757876427476,True
28379,87473,0,87474,5164.0,45707.0,31353.0,0.000244,0.000549,-0.000488,0.36750000000000005,-2.31,-3.8500000000000005,0.970375,0.07896875,0.2176875,1.2584375,0.9415,-0.36503125000000003,-0.3101875,1.2390625,0.01822283728858341,0.02171414761815391,True
28380,87474,0,87475,5161.0,45703.0,31352.0,0.001281,-0.00042699999999999997,-0.00122,0.17500000000000002,-2.5200000000000005,-3.9375000000000004,0.993,0.07921875,0.2180625,1.2532812500000001,0.9473125,-0.36190625,-0.312375,1.2434375,0.01810716269380603,0.021817592892508446,True
28381,87475,0,87476,5161.0,45704.0,31351.0,0.003904,-0.0017079999999999999,-0.001586,0.12250000000000001,-2.45,-3.9025000000000003,0.9703125,0.072875,0.22378125000000001,1.270375,0.9453125,-0.36534375,-0.30665625,1.2477500000000001,0.017985330085893002,0.021822726027978447,True
28382,87476,0,87477,5160.0,45705.0,31351.0,0.0032329999999999998,0.0,-0.00122,0.24500000000000002,-2.2925000000000004,-3.9725000000000006,0.9768125,0.0805,0.21715625,1.25584375,0.93990625,-0.35853125,-0.31265625,1.23559375,0.018023716023518457,0.02179163372986035,True
28383,87477,0,87478,5160.0,45705.0,31353.0,0.001037,0.000244,0.000793,0.3325,-2.0475000000000003,-3.8850000000000002,0.98509375,0.07931250000000001,0.21946875000000002,1.2620625,0.94821875,-0.3579375,-0.31203125,1.2429375,0.01795102725754182,0.021861604015501582,True
28384,87478,0,87479,5160.0,45705.0,31353.0,-0.000244,0.00042699999999999997,0.000488,0.385,-1.8725000000000003,-3.8325000000000005,0.96984375,0.07046875,0.22337500000000002,1.26884375,0.94546875,-0.36275,-0.30871875,1.2518125,0.01778201352474577,0.021889008444758117,True
28385,87479,0,87480,5160.0,45706.0,31353.0,-0.0026839999999999998,0.001098,0.0006709999999999999,0.42000000000000004,-1.61,-3.8675,0.98309375,0.08215625,0.217,1.25715625,0.94065625,-0.3615,-0.3131875,1.2433125,0.018211368347597644,0.021806581304898834,True
28386,87480,0,87481,5159.0,45704.0,31351.0,-0.002989,0.000122,0.000915,0.2625,-1.61,-3.8675,0.99334375,0.0806875,0.2169375,1.25609375,0.9465,-0.36275,-0.31165625,1.2436562500000001,0.01820145509025049,0.021742399800507215,True
28387,87481,0,87482,5159.0,45703.0,31350.0,-0.0018909999999999999,-0.001098,0.000366,0.24500000000000002,-1.8900000000000001,-3.8325000000000005,0.98603125,0.07559375,0.22440625,1.277875,0.94815625,-0.36228125,-0.30846875,1.24884375,0.017973481034334583,0.021921372566916623,True
28388,87482,0,87483,5159.0,45703.0,31349.0,-0.000183,-0.0013419999999999999,-0.000549,0.15750000000000003,-2.0650000000000004,-3.8675,0.9741875,0.08090625,0.214,1.25615625,0.93978125,-0.3655625,-0.31021875,1.2430625,0.018323761251151087,0.02156371998915065,True
28389,87483,0,87484,5157.0,45702.0,31349.0,0.000915,-0.000976,-0.000122,0.21000000000000002,-2.2750000000000004,-3.9550000000000005,0.9896875,0.08071875,0.22,1.25615625,0.9485625,-0.36246875,-0.3115,1.2433750000000001,0.018191403529250295,0.021862081730868108,True
28390,87484,0,87485,5159.0,45702.0,31350.0,0.003294,0.000305,-0.000976,0.43750000000000006,-2.24,-3.9025000000000003,0.9831562500000001,0.0766875,0.2240625,1.27115625,0.94634375,-0.36278125,-0.308625,1.23690625,0.01803852957059244,0.021913518349968374,True
28391,87485,0,87486,5158.0,45704.0,31350.0,0.002623,0.000976,-0.000244,0.49000000000000005,-2.1350000000000002,-3.8675,0.9785312500000001,0.07881250000000001,0.22490625,1.2649062500000001,0.94025,-0.3621875,-0.30896875,1.2376562500000001,0.018101822752985542,0.021962058756606038,True
28392,87486,0,87487,5158.0,45701.0,31351.0,0.000793,0.000732,0.0006709999999999999,0.4025,-2.0300000000000002,-3.8150000000000004,0.97390625,0.0753125,0.22109375,1.26275,0.94025,-0.36234375,-0.30871875,1.2430625,0.01796445590338573,0.021795163515148243,True
28393,87487,0,87488,5157.0,45703.0,31351.0,-0.000122,0.000122,0.0,0.36750000000000005,-1.7850000000000001,-3.9025000000000003,0.98440625,0.07896875,0.22459375,1.26234375,0.94934375,-0.35865625,-0.311,1.24478125,0.017965892515109494,0.022030922216280696,True
28394,87488,0,87489,5157.0,45704.0,31355.0,-0.000793,-0.000244,-0.000122,0.35000000000000003,-1.6800000000000002,-3.8150000000000004,0.96878125,0.075875,0.22215625,1.26971875,0.94078125,-0.3633125,-0.30893750000000003,1.2464375,0.018026592237816594,0.02184767433788499,True
28395,87489,0,87490,5157.0,45704.0,31351.0,-0.000793,-0.0008539999999999999,0.000244,0.4025,-1.5925000000000002,-3.7625,0.97596875,0.07843750000000001,0.21946875000000002,1.261875,0.9411875000000001,-0.3620625,-0.3110625,1.2438125,0.01808139191827457,0.021822627044786713,True
28396,87490,0,87491,5158.0,45704.0,31354.0,0.000305,0.00042699999999999997,-0.0006709999999999999,0.385,-1.435,-3.8150000000000004,0.9815,0.0775625,0.2220625,1.2666250000000001,0.9455625,-0.36228125,-0.3086875,1.24875,0.01805429243207674,0.02183375799289863,True
28397,87491,0,87492,5158.0,45705.0,31354.0,0.000183,6.1e-05,0.000122,0.385,-1.435,-3.8150000000000004,0.97621875,0.0748125,0.21875,1.2611875000000001,0.94021875,-0.36412500000000003,-0.30653125000000003,1.2432812500000001,0.018015730094965446,0.02161070391317149,True
28398,87492,0,87493,5158.0,45705.0,31355.0,0.000366,0.000122,0.001098,0.3325,-1.4525000000000001,-3.7800000000000002,0.97721875,0.08453125,0.22303125000000001,1.261875,0.94715625,-0.36209375,-0.30890625,1.24415625,0.018332783897114756,0.021882411924641815,True
28399,87493,0,87494,5155.0,45703.0,31351.0,-0.000366,6.1e-05,-0.000305,0.43750000000000006,-1.435,-3.8500000000000005,0.9789375,0.0770625,0.226875,1.2626875,0.94034375,-0.3658125,-0.30871875,1.2485625,0.018176081753891852,0.022032989706625324,True
28400,87494,0,87495,5156.0,45703.0,31353.0,-0.000915,-0.000732,0.000366,0.28,-1.5750000000000002,-3.7975000000000003,0.9740625,0.07509375,0.22178125,1.2590625,0.94015625,-0.3641875,-0.309,1.25034375,0.018029792702916936,0.021834762845036815,True
28401,87495,0,87496,5157.0,45704.0,31352.0,-0.000549,-0.000305,-0.000122,0.3325,-1.6275000000000002,-3.7625,0.97603125,0.07831250000000001,0.22071875,1.26190625,0.9418125,-0.3616875,-0.3095625,1.2346875,0.018061146215753734,0.021813689571747747,True
28402,87496,0,87497,5157.0,45705.0,31355.0,0.000366,-0.000122,-0.000305,0.31500000000000006,-1.6975000000000002,-3.7975000000000003,0.9825625,0.07821875,0.2215,1.2675,0.9449062500000001,-0.362875,-0.30846875,1.239,0.018105160002667996,0.021801815468117464,True
28403,87497,0,87498,5157.0,45705.0,31355.0,0.0008539999999999999,0.000244,6.1e-05,0.4025,-1.61,-3.8150000000000004,0.9765625,0.074625,0.22128125,1.26996875,0.9401875000000001,-0.36528125,-0.30943750000000003,1.24903125,0.01805463460431018,0.02183179886412427,True
28404,87498,0,87499,5157.0,45707.0,31354.0,0.000305,6.1e-05,0.000976,0.36750000000000005,-1.6800000000000002,-3.8850000000000002,0.96721875,0.07896875,0.2195,1.26178125,0.9400625,-0.3614375,-0.31025,1.23971875,0.01807800750674093,0.021791219752984856,True
28405,87499,0,87500,5158.0,45705.0,31358.0,0.002074,0.000183,-0.000915,0.35000000000000003,-1.5925000000000002,-3.8325000000000005,0.98290625,0.07893750000000001,0.21965625,1.2621875,0.94471875,-0.36228125,-0.31121875,1.23721875,0.01811073213843634,0.021836626351774323,True
28406,87500,0,87501,5156.0,45706.0,31357.0,0.0015249999999999999,0.0,6.1e-05,0.31500000000000006,-1.4700000000000002,-3.8325000000000005,0.98171875,0.07846875,0.22284375,1.262375,0.9376875,-0.36271875000000003,-0.30865625,1.24678125,0.018109124212584034,0.02186463926816194,True
28407,87501,0,87502,5158.0,45706.0,31356.0,0.000732,-0.000549,0.000122,0.28,-1.2950000000000002,-3.8325000000000005,0.9761875,0.07818750000000001,0.2255625,1.26646875,0.93225,-0.36415625,-0.3093125,1.2510625,0.018155512772990035,0.02200288469696541,True
28408,87502,0,87503,5159.0,45707.0,31355.0,-0.000366,-0.000244,-0.000976,0.29750000000000004,-1.0150000000000001,-3.8500000000000005,0.975375,0.08440625,0.21909375,1.2610937500000001,0.9396875,-0.36178125,-0.3115,1.238875,0.0183150606033785,0.021824805133373096,True
28409,87503,0,87504,5159.0,45704.0,31355.0,-0.000244,-0.0006709999999999999,0.000244,0.47250000000000003,-0.8750000000000001,-3.7975000000000003,0.9766875,0.0758125,0.2224375,1.2658125,0.9400000000000001,-0.36478125,-0.3095,1.2414687500000001,0.018083222068739073,0.02188187745531582,True
28410,87504,0,87505,5160.0,45709.0,31357.0,-0.00244,0.000305,0.000305,0.43750000000000006,-0.6825000000000001,-3.7100000000000004,0.976125,0.0785,0.2193125,1.26140625,0.93971875,-0.36153125,-0.31125,1.24340625,0.01806254481643062,0.021823744151370252,True
28411,87505,0,87506,5159.0,45707.0,31355.0,-0.0017079999999999999,-6.1e-05,-6.1e-05,0.385,-0.8925000000000001,-3.7625,0.9804375000000001,0.07578125000000001,0.2216875,1.265875,0.94425,-0.36471875,-0.30909375,1.248,0.018079420678722178,0.021834678637495483,True
28412,87506,0,87507,5161.0,45708.0,31358.0,-0.001647,-0.000732,0.000366,0.4025,-0.9275000000000001,-3.7975000000000003,0.9763437500000001,0.0773125,0.22109375,1.2649062500000001,0.9401875000000001,-0.36078125,-0.309,1.24675,0.017983567337357047,0.02180648113867292,True
28413,87507,0,87508,5162.0,45707.0,31359.0,-0.000305,-0.000122,0.002196,0.56,-0.9800000000000001,-3.7975000000000003,0.97628125,0.076,0.22162500000000002,1.26453125,0.9402812500000001,-0.3650625,-0.3090625,1.246125,0.01810225194374117,0.02183085012019694,True
28414,87508,0,87509,5161.0,45707.0,31358.0,-0.000366,-0.00042699999999999997,-0.001769,0.525,-1.1725,-3.7625,0.975875,0.07893750000000001,0.22121875,1.26253125,0.9461875000000001,-0.3615,-0.306625,1.2421875,0.018079243888923097,0.02171604449404226,True
28415,87509,0,87510,5161.0,45709.0,31358.0,0.002379,0.001037,6.1e-05,0.525,-1.2600000000000002,-3.8325000000000005,0.98190625,0.07843750000000001,0.22128125,1.26675,0.9295625000000001,-0.36446875,-0.3086875,1.25209375,0.01817836680719747,0.02180161927705887,True
28416,87510,0,87511,5163.0,45710.0,31359.0,0.0018909999999999999,-0.000366,-0.00061,0.36750000000000005,-1.2425000000000002,-3.7625,0.9760625,0.0754375,0.2215625,1.26121875,0.93703125,-0.36440625,-0.3105625,1.24075,0.018052717783754734,0.02188863379858035,True
28417,87511,0,87512,5163.0,45706.0,31359.0,0.000732,-0.000549,-0.000366,0.29750000000000004,-0.9450000000000001,-3.7800000000000002,0.986125,0.07828125,0.22353125000000001,1.2685,0.9518125000000001,-0.36375,-0.3039375,1.25065625,0.018142989071879327,0.02170301622936613,True
28418,87512,0,87513,5163.0,45712.0,31360.0,-0.000732,-0.000976,0.0,0.35000000000000003,-0.805,-3.8500000000000005,0.9905,0.08353125,0.22190625,1.2848125000000001,0.95196875,-0.35928125,-0.308125,1.2548125,0.01817838939726516,0.021804694932250016,True
28419,87513,0,87514,5165.0,45712.0,31359.0,-0.00122,-0.00122,-6.1e-05,0.3325,-0.7350000000000001,-3.8675,0.9725,0.08325,0.21928125,1.2706250000000001,0.93784375,-0.3555,-0.31240625,1.24284375,0.018014411529223378,0.021868978929224663,True
28420,87514,0,87515,5165.0,45712.0,31361.0,-0.001098,0.000122,6.1e-05,0.36750000000000005,-0.6300000000000001,-3.7625,0.96384375,0.06709375000000001,0.22553125000000002,1.2678125,0.93778125,-0.3660625,-0.30796875,1.2513750000000001,0.017777031065236742,0.021947535209004252,True
28421,87515,0,87516,5165.0,45711.0,31361.0,-0.0006709999999999999,0.001037,0.00042699999999999997,0.47250000000000003,-0.56,-3.7800000000000002,0.97940625,0.08340625,0.21146875,1.25059375,0.937625,-0.3609375,-0.31075,1.2418125,0.018240010262330835,0.021480980636138337,True
28422,87516,0,87517,5166.0,45710.0,31361.0,0.000488,-0.000183,-0.000244,0.525,-0.6825000000000001,-3.8500000000000005,0.996375,0.0855625,0.22184375,1.2798125,0.95215625,-0.3541875,-0.31096875,1.24678125,0.01805644306548925,0.02191654744321943,True
28423,87517,0,87518,5167.0,45714.0,31362.0,0.000244,0.000549,-0.000305,0.6125,-0.805,-3.8500000000000005,0.96384375,0.06753125,0.2173125,1.25009375,0.93103125,-0.3659375,-0.2974375,1.2410625,0.017789947544599914,0.021185361625068486,True
28424,87518,0,87519,5167.0,45714.0,31362.0,-0.000793,0.0006709999999999999,0.00042699999999999997,0.6125,-0.77,-3.7975000000000003,0.97475,0.07053125,0.21853125,1.24634375,0.948375,-0.36871875,-0.30925,1.235125,0.018025157765013806,0.02171112847989963,True
28425,87519,0,87520,5167.0,45713.0,31364.0,-0.000183,0.000488,0.000244,0.5075000000000001,-0.8575,-3.7625,0.96965625,0.06559375,0.2258125,1.2710000000000001,0.94834375,-0.36184375,-0.30796875,1.24990625,0.017545367435500444,0.02195910548881218,True
28426,87520,0,87521,5169.0,45714.0,31364.0,6.1e-05,0.000244,0.001098,0.4025,-0.9275000000000001,-3.6925000000000003,0.99690625,0.0824375,0.2275625,1.27953125,0.94471875,-0.36159375,-0.3105,1.249125,0.018226691346907464,0.02213292610189013,True
28427,87521,0,87522,5169.0,45712.0,31364.0,-0.00042699999999999997,-0.00061,-0.000305,0.4025,-1.0325000000000002,-3.7275000000000005,0.9949687500000001,0.0835625,0.2273125,1.2778125,0.9293125,-0.36212500000000003,-0.3088125,1.24875,0.018294278516344534,0.02205475894801525,True
28428,87522,0,87523,5171.0,45713.0,31363.0,0.000549,-0.000732,-0.000549,0.5425000000000001,-1.0325000000000002,-3.8150000000000004,0.9585,0.08359375000000001,0.2109375,1.25153125,0.939875,-0.36478125,-0.3115,1.244125,0.018402586725460548,0.021489315755917983,True
28429,87523,0,87524,5171.0,45716.0,31365.0,0.00061,-0.000244,0.000122,0.35000000000000003,-1.155,-3.7100000000000004,0.96528125,0.0745625,0.2238125,1.2639375,0.93865625,-0.3650625,-0.30921875,1.24628125,0.018043253531568,0.021927123840621163,True
28430,87524,0,87525,5170.0,45713.0,31365.0,0.000122,-0.000122,-6.1e-05,0.29750000000000004,-0.9800000000000001,-3.8500000000000005,0.97771875,0.07878125,0.2205,1.25965625,0.94034375,-0.36190625,-0.31015625,1.2434687500000001,0.018089204328992112,0.021828582446893983,True
28431,87525,0,87526,5173.0,45713.0,31367.0,-0.001037,0.0,6.1e-05,0.36750000000000005,-1.0150000000000001,-3.8675,0.98028125,0.07659375,0.22378125000000001,1.26396875,0.94775,-0.36184375,-0.31203125,1.2434687500000001,0.017996893194916746,0.02203898532748061,True
28432,87526,0,87527,5171.0,45715.0,31367.0,-0.0017079999999999999,0.000366,0.000549,0.4025,-1.05,-3.8325000000000005,0.97703125,0.0795,0.2203125,1.26059375,0.9442812500000001,-0.3616875,-0.31153125,1.24290625,0.018109890786506478,0.021876193010261332,True
28433,87527,0,87528,5174.0,45714.0,31368.0,-0.000976,0.000122,0.000793,0.35000000000000003,-1.2950000000000002,-3.8325000000000005,0.97671875,0.07765625,0.22162500000000002,1.2665,0.9394687500000001,-0.3601875,-0.31271875,1.2429375,0.017973743018193107,0.021977951355193464,True
28434,87528,0,87529,5175.0,45716.0,31365.0,0.000732,-0.0008539999999999999,-0.000793,0.3325,-1.54,-3.7275000000000005,0.97621875,0.07459375,0.22228125,1.25603125,0.9413125,-0.36528125,-0.309,1.25090625,0.018053352041647375,0.021855331358756017,True
28435,87529,0,87530,5175.0,45716.0,31365.0,-6.1e-05,0.0006709999999999999,-0.000305,0.385,-1.4525000000000001,-3.8325000000000005,0.984,0.07790625,0.22009375,1.26415625,0.94025,-0.36215625,-0.311625,1.24296875,0.018063364157267482,0.021870967078506682,True
28436,87530,0,87531,5176.0,45714.0,31366.0,0.0018909999999999999,0.000732,0.000488,0.45500000000000007,-1.3475000000000001,-3.7800000000000002,0.9756875,0.0778125,0.2218125,1.25821875,0.93715625,-0.36234375,-0.3091875,1.2495,0.018067073288053414,0.021843593085947445,True
28437,87531,0,87532,5174.0,45717.0,31366.0,0.002196,0.000549,-0.0008539999999999999,0.385,-1.2425000000000002,-3.7975000000000003,0.9795312500000001,0.0780625,0.2186875,1.2610937500000001,0.93971875,-0.36478125,-0.30853125,1.2457500000000001,0.01817556847550191,0.021688630406248834,True
28438,87532,0,87533,5178.0,45721.0,31370.0,0.00061,0.0,-0.00042699999999999997,0.4025,-1.1375000000000002,-3.8150000000000004,0.9830625000000001,0.07856250000000001,0.21971875000000002,1.2516875,0.93984375,-0.36453125000000003,-0.305375,1.25025,0.018186015788832388,0.02160401762984525,True
28439,87533,0,87534,5177.0,45719.0,31368.0,-0.002013,-0.00061,-0.000244,0.385,-0.9450000000000001,-3.7100000000000004,0.9793125,0.07996875,0.22175,1.26821875,0.9401875000000001,-0.36462500000000003,-0.30953125,1.2461875,0.01824751047881919,0.021854853741780807,True
28440,87534,0,87535,5179.0,45720.0,31368.0,-0.0030499999999999998,-0.000122,0.000305,0.4025,-0.8575,-3.7100000000000004,0.97596875,0.07578125000000001,0.22303125000000001,1.2685,0.9404375,-0.36340625,-0.3055625,1.2434375,0.018026522871776193,0.021747850929185446,True
28441,87535,0,87536,5179.0,45719.0,31367.0,-0.001586,0.0006709999999999999,0.00122,0.47250000000000003,-1.05,-3.6925000000000003,0.97596875,0.07903125,0.22140625,1.26915625,0.93878125,-0.364375,-0.31109375,1.24340625,0.01819895852038068,0.021903580541290945,True
28442,87536,0,87537,5180.0,45722.0,31371.0,-0.000732,0.000244,0.000915,0.47250000000000003,-1.12,-3.6400000000000006,0.9761875,0.07590625000000001,0.22109375,1.26121875,0.9410937500000001,-0.36196875,-0.3123125,1.24371875,0.017973711586835528,0.021939757890163676,True
28443,87537,0,87538,5183.0,45719.0,31368.0,0.000244,-0.000366,-0.000305,0.43750000000000006,-1.2075,-3.6925000000000003,0.9816875,0.078375,0.224,1.26059375,0.9475625,-0.36184375,-0.31159375,1.242875,0.018070009582094954,0.022030384165990763,True
28444,87538,0,87539,5182.0,45719.0,31369.0,0.0015249999999999999,-0.0008539999999999999,-6.1e-05,0.24500000000000002,-1.3475000000000001,-3.7450000000000006,0.96965625,0.0823125,0.21965625,1.2549062500000001,0.94434375,-0.36262500000000003,-0.311375,1.24303125,0.018263118198469992,0.02184291303967793,True
28445,87539,0,87540,5183.0,45719.0,31366.0,0.0021349999999999997,-0.000366,-0.00061,0.29750000000000004,-1.2600000000000002,-3.8500000000000005,0.98371875,0.078,0.22078125,1.26140625,0.9431875000000001,-0.3551875,-0.3095,1.244,0.01778625190218716,0.02181374565499085,True
28446,87540,0,87541,5182.0,45719.0,31366.0,0.000366,0.001037,-0.00042699999999999997,0.49000000000000005,-1.2775,-3.7800000000000002,0.97759375,0.07915625,0.217875,1.262375,0.9423750000000001,-0.36321875000000003,-0.31,1.24278125,0.018157494070852192,0.02171431509666804,True
28447,87541,0,87542,5181.0,45718.0,31364.0,0.000549,0.000122,0.0008539999999999999,0.5425000000000001,-1.1025,-3.7450000000000006,0.9816875,0.08375,0.21790625,1.26175,0.94084375,-0.36290625,-0.30953125,1.24290625,0.018333455188664118,0.021696736748060497,True
28448,87542,0,87543,5183.0,45720.0,31365.0,-0.00122,0.000793,-0.000122,0.5075000000000001,-1.0850000000000002,-3.7625,0.97671875,0.07903125,0.2206875,1.26134375,0.93621875,-0.36171875000000003,-0.3096875,1.243,0.018091909053009652,0.021817433893380984,True
28449,87543,0,87544,5181.0,45719.0,31364.0,-0.0006709999999999999,-0.000488,0.000488,0.42000000000000004,-0.9800000000000001,-3.6575,0.9813437500000001,0.078875,0.2191875,1.26075,0.94521875,-0.35865625,-0.31093750000000003,1.24725,0.01796204378063753,0.021806028665081304,True
28450,87544,0,87545,5180.0,45719.0,31364.0,0.000488,-0.000549,0.0,0.36750000000000005,-1.0325000000000002,-3.8675,0.9764375000000001,0.07615625,0.22146875,1.26303125,0.9402812500000001,-0.3648125,-0.30896875,1.24675,0.01809858992348084,0.021820650043001107,True
28451,87545,0,87546,5177.0,45718.0,31367.0,-0.000244,-0.000732,-0.000366,0.36750000000000005,-1.1025,-3.7800000000000002,0.9774375000000001,0.0748125,0.22190625,1.25865625,0.93440625,-0.36412500000000003,-0.3096875,1.2445625,0.018015730094965446,0.02186756822768701,True
28452,87546,0,87547,5176.0,45717.0,31367.0,-0.001647,0.000244,-0.00042699999999999997,0.47250000000000003,-1.1025,-3.7450000000000006,0.983375,0.07884375,0.22228125,1.26203125,0.94865625,-0.36321875000000003,-0.3085625,1.2417500000000001,0.018144667358454023,0.021837726932639478,True
28453,87547,0,87548,5175.0,45718.0,31366.0,-0.000793,0.000793,0.000549,0.385,-1.05,-3.7975000000000003,0.9766875,0.07515625000000001,0.2210625,1.2683125,0.940875,-0.36103125,-0.30925,1.2433125,0.017905132813291723,0.021815255509733948,True
28454,87548,0,87549,5174.0,45719.0,31365.0,0.000488,-0.000122,-0.000549,0.42000000000000004,-1.225,-3.8325000000000005,0.9790625000000001,0.07778125,0.22025,1.26771875,0.96228125,-0.36175,-0.30693750000000003,1.25921875,0.018041858651369463,0.02168876683868546,True
28455,87549,0,87550,5172.0,45717.0,31362.0,0.00042699999999999997,0.000122,0.00122,0.36750000000000005,-1.3125000000000002,-3.6575,0.9756875,0.07578125000000001,0.22153125,1.26659375,0.9393750000000001,-0.35984375,-0.31521875,1.23859375,0.01788291437624677,0.02207465232037035,True
28456,87550,0,87551,5171.0,45718.0,31363.0,0.0,-6.1e-05,0.000244,0.29750000000000004,-1.2600000000000002,-3.7275000000000005,0.983375,0.078375,0.22162500000000002,1.26521875,0.9570000000000001,-0.36459375,-0.3065,1.2545625,0.018180838742693998,0.02172772715117355,True
28457,87551,0,87552,5169.0,45716.0,31361.0,-0.000549,-0.000488,-0.00042699999999999997,0.31500000000000006,-1.2075,-3.7275000000000005,0.97678125,0.07515625000000001,0.2236875,1.2645,0.9423125,-0.35921875000000003,-0.314875,1.237875,0.017832057934945064,0.02214950724607879,True
28458,87552,0,87553,5169.0,45715.0,31361.0,-0.001281,-0.000244,0.000488,0.31500000000000006,-1.3125000000000002,-3.7450000000000006,0.978875,0.07825,0.2194375,1.26053125,0.94240625,-0.36153125,-0.31240625,1.24003125,0.01805228273571679,0.02187540568922502,True
28459,87553,0,87554,5169.0,45717.0,31362.0,0.0008539999999999999,0.00042699999999999997,0.001098,0.385,-1.6450000000000002,-3.8150000000000004,0.9846875,0.07809375,0.22096875,1.25715625,0.94946875,-0.36253125,-0.30784375,1.2473750000000001,0.018086174850981466,0.021754809082973475,True
28460,87554,0,87555,5168.0,45718.0,31365.0,0.001647,6.1e-05,-0.00122,0.525,-1.715,-3.8150000000000004,0.98221875,0.07893750000000001,0.21987500000000001,1.26215625,0.92784375,-0.37009375,-0.3070625,1.2594375,0.01842550359495437,0.021678370226760228,True
28461,87555,0,87556,5166.0,45718.0,31364.0,0.00183,0.000244,-0.001098,0.525,-1.6450000000000002,-3.9375000000000004,0.9758125,0.07734375,0.22378125000000001,1.2666875,0.93490625,-0.3661875,-0.30809375,1.2495625000000001,0.01820273483490185,0.021880572185961723,True
28462,87556,0,87557,5165.0,45714.0,31362.0,6.1e-05,0.000122,-0.000549,0.45500000000000007,-1.6450000000000002,-3.7800000000000002,0.9655,0.0753125,0.22146875,1.2680625,0.9375,-0.3601875,-0.31703125,1.223875,0.01787753070455636,0.02214497298061415,True
28463,87557,0,87558,5164.0,45717.0,31364.0,0.000305,-0.0006709999999999999,-0.000488,0.35000000000000003,-1.6625,-3.8150000000000004,0.96596875,0.07959375,0.22,1.2610937500000001,0.9587187500000001,-0.36140625,-0.3093125,1.251875,0.01810240326335841,0.021774062923416694,True
28464,87558,0,87559,5165.0,45717.0,31364.0,-0.00061,-6.1e-05,-0.00042699999999999997,0.35000000000000003,-1.33,-3.8850000000000002,0.98209375,0.07940625,0.22509375,1.2610000000000001,0.9330625,-0.36965625,-0.30675,1.2536875,0.01842711671404885,0.0218804961584745,True
28465,87559,0,87560,5163.0,45719.0,31364.0,0.000244,0.000244,0.000122,0.43750000000000006,-1.3125000000000002,-3.7450000000000006,0.97671875,0.079875,0.22121875,1.269375,0.93415625,-0.36596875,-0.30625,1.24534375,0.018297805212444097,0.021700951401388533,True
28466,87560,0,87561,5162.0,45719.0,31363.0,-0.000732,0.000488,-0.00042699999999999997,0.47250000000000003,-1.3125000000000002,-3.6575,0.9774375000000001,0.07653125,0.22112500000000002,1.25659375,0.9354687500000001,-0.3640625,-0.30984375000000003,1.2432812500000001,0.018083755531328162,0.02184171792548029,True
28467,87561,0,87562,5163.0,45715.0,31363.0,-0.0017079999999999999,0.0,0.0013419999999999999,0.45500000000000007,-1.2600000000000002,-3.8675,0.9746250000000001,0.0785,0.2205,1.2648125000000001,0.9491875000000001,-0.3611875,-0.30871875,1.248125,0.018048689128967954,0.021770738122510055,True
28468,87562,0,87563,5163.0,45717.0,31365.0,-0.002196,0.000549,0.001098,0.43750000000000006,-1.2950000000000002,-3.8325000000000005,0.9758125,0.07878125,0.218625,1.26121875,0.94203125,-0.36228125,-0.31109375,1.24334375,0.018104318535440932,0.021789178037290073,True
28469,87563,0,87564,5162.0,45717.0,31362.0,-0.00042699999999999997,0.000366,6.1e-05,0.2625,-1.5050000000000001,-3.8150000000000004,0.97540625,0.0755625,0.22103125,1.2621875,0.94153125,-0.364875,-0.311,1.23625,0.01807673956874394,0.021884383612356544,True
28470,87564,0,87565,5162.0,45714.0,31362.0,-0.001586,-0.000244,-0.00042699999999999997,0.24500000000000002,-1.7500000000000002,-3.7975000000000003,0.9823125,0.0818125,0.22209375,1.2610000000000001,0.92984375,-0.36596875,-0.309,1.2432812500000001,0.01837732185386637,0.02184761816611132,True
28471,87565,0,87566,5163.0,45714.0,31361.0,-0.0017079999999999999,-0.000976,0.000244,0.35000000000000003,-2.0125,-3.8500000000000005,0.975125,0.07846875,0.2241875,1.2666875,0.9479062500000001,-0.36340625,-0.3083125,1.250375,0.01813683174946032,0.02190608665245685,True
28472,87566,0,87567,5161.0,45711.0,31361.0,-0.000915,-0.000915,0.001403,0.29750000000000004,-2.205,-3.99,0.9765,0.07971875,0.22015625,1.26196875,0.9400000000000001,-0.36240625,-0.31121875,1.25028125,0.018147837921387588,0.021857192988319434,True
28473,87567,0,87568,5162.0,45713.0,31361.0,0.000976,0.000305,-0.001647,0.3325,-2.5725000000000002,-3.9375000000000004,0.977,0.07734375,0.21896875000000002,1.26096875,0.9400625,-0.3581875,-0.3125,1.242375,0.01788028152751513,0.021859897172236506,True
28474,87568,0,87569,5162.0,45713.0,31360.0,0.0025009999999999998,0.000732,-0.0006709999999999999,0.45500000000000007,-3.0100000000000002,-3.9200000000000004,0.97575,0.07934375,0.21884375,1.2612812500000001,0.9401875000000001,-0.36596875,-0.3055,1.230375,0.0182760022623767,0.021573049309826994,True
28475,87569,0,87570,5162.0,45715.0,31361.0,0.0028669999999999998,-0.000122,-0.000122,0.29750000000000004,-2.9575000000000005,-3.8325000000000005,0.976375,0.07478125000000001,0.22062500000000002,1.25584375,0.940875,-0.3633125,-0.3051875,1.24325,0.017981698917173106,0.021633756168307695,True
28476,87570,0,87571,5162.0,45713.0,31361.0,0.00244,-0.000183,-0.0006709999999999999,0.17500000000000002,-2.8875,-3.9200000000000004,0.97490625,0.07871875,0.2215,1.27040625,0.94546875,-0.3636875,-0.30875,1.2503125,0.01815842737270374,0.021813133131074202,True
28477,87571,0,87572,5162.0,45713.0,31362.0,0.0008539999999999999,-0.001037,-0.001037,0.08750000000000001,-2.8000000000000003,-3.8500000000000005,0.9762500000000001,0.082,0.22321875,1.26053125,0.94025,-0.3636875,-0.31253125,1.2438437500000001,0.018293105261672726,0.022035961393365815,True
28478,87572,0,87573,5164.0,45714.0,31362.0,0.00122,-0.000244,0.000366,0.1925,-2.66,-3.8675,0.983375,0.076125,0.22359375,1.25825,0.9451875000000001,-0.366375,-0.30859375,1.2474375,0.01816027209628022,0.021892977663506348,True
28479,87573,0,87574,5162.0,45714.0,31361.0,0.000366,0.0008539999999999999,0.000122,0.4025,-2.3625000000000003,-3.7800000000000002,0.98528125,0.07943750000000001,0.21896875000000002,1.2680625,0.94115625,-0.362875,-0.30871875,1.25028125,0.018155184886841147,0.02170774632044315,True
28480,87574,0,87575,5163.0,45712.0,31361.0,-0.000793,0.000183,-6.1e-05,0.31500000000000006,-2.2575000000000003,-3.7625,0.9705,0.08015625,0.219,1.26875,0.94021875,-0.36278125,-0.31171875,1.2496562500000001,0.01818090863496958,0.02182975031331341,True
28481,87575,0,87576,5161.0,45711.0,31359.0,-0.0006709999999999999,-6.1e-05,0.0017079999999999999,0.2625,-2.1875,-3.7975000000000003,0.9755,0.07931250000000001,0.21928125,1.273375,0.94003125,-0.3621875,-0.30903125,1.24871875,0.018122346361549017,0.021733177869850323,True
28482,87576,0,87577,5159.0,45710.0,31358.0,-0.000915,-0.00061,-0.000915,0.22750000000000004,-2.1525000000000003,-3.8675,0.97346875,0.07981250000000001,0.22246875,1.2590937500000001,0.94021875,-0.36146875,-0.31078125,1.2430625,0.01811390169158007,0.021934712608217805,True
28483,87577,0,87578,5160.0,45709.0,31359.0,0.00061,-0.00042699999999999997,-6.1e-05,0.24500000000000002,-2.1,-3.8500000000000005,0.9734375000000001,0.07540625000000001,0.21890625,1.25903125,0.9405,-0.36465625,-0.31090625,1.2425,0.018061510718009825,0.0217932023821613,True
28484,87578,0,87579,5160.0,45712.0,31360.0,0.002013,-0.000122,-0.000305,0.36750000000000005,-1.9425000000000001,-3.9025000000000003,0.9731562500000001,0.07365625,0.2261875,1.2590937500000001,0.9433125,-0.3655,-0.30690625,1.241875,0.01802369128480844,0.021931781219586513,True
28485,87579,0,87580,5161.0,45710.0,31358.0,0.001098,0.001098,-0.000488,0.47250000000000003,-1.8375000000000001,-3.9025000000000003,0.98684375,0.0749375,0.2246875,1.2598125,0.94459375,-0.36496875,-0.30953125,1.24334375,0.018054866169282487,0.02197569111909552,True
28486,87580,0,87581,5160.0,45711.0,31359.0,0.000183,0.001403,-0.000488,0.525,-1.7325000000000002,-3.7625,0.97078125,0.074875,0.2206875,1.24796875,0.943625,-0.36378125,-0.30965625,1.2438125,0.018004440505309496,0.021816176442231675,True
28487,87581,0,87582,5160.0,45709.0,31358.0,0.0006709999999999999,-6.1e-05,-0.000366,0.43750000000000006,-1.5750000000000002,-3.8500000000000005,0.9813125,0.07278125,0.22162500000000002,1.2595,0.94296875,-0.363875,-0.30896875,1.24265625,0.017922282477643645,0.02182707771180133,True
28488,87582,0,87583,5158.0,45710.0,31359.0,-0.000732,0.00042699999999999997,6.1e-05,0.385,-1.4525000000000001,-3.8325000000000005,0.98071875,0.07734375,0.22615625,1.2675625,0.94378125,-0.36225,-0.30428125,1.24578125,0.0180440538127636,0.021824858531868743,True
28489,87583,0,87584,5159.0,45711.0,31360.0,-0.001281,-0.001037,-0.000366,0.31500000000000006,-1.2425000000000002,-3.8500000000000005,0.9773125,0.07934375,0.22112500000000002,1.26215625,0.943125,-0.36215625,-0.30409375,1.2472812500000001,0.018122369607575274,0.021610299705167986,True
28490,87584,0,87585,5159.0,45710.0,31359.0,-0.0008539999999999999,0.000366,6.1e-05,0.385,-1.155,-3.8500000000000005,0.9742500000000001,0.07684375,0.22109375,1.26171875,0.9400000000000001,-0.36265625,-0.3095,1.2434687500000001,0.018039904823596565,0.021826600711655937,True
28491,87585,0,87586,5159.0,45712.0,31360.0,-0.00061,-0.000305,0.001586,0.42000000000000004,-1.1375000000000002,-3.9025000000000003,0.98346875,0.078875,0.22196875,1.26725,0.94675,-0.3644375,-0.30943750000000003,1.25053125,0.018195064014919285,0.02186008006149875,True
28492,87586,0,87587,5160.0,45710.0,31361.0,-0.000488,0.00042699999999999997,0.0,0.4025,-1.1725,-3.8325000000000005,0.971,0.07825,0.21875,1.26646875,0.945625,-0.35331250000000003,-0.308,1.2598125,0.017720895258088606,0.021669820635181837,True
28493,87587,0,87588,5161.0,45710.0,31361.0,-0.0008539999999999999,0.0006709999999999999,0.000183,0.2625,-1.0325000000000002,-3.9550000000000005,0.97690625,0.076125,0.22034375,1.26153125,0.9420937500000001,-0.36021875000000003,-0.31696875,1.24078125,0.017912144159214497,0.022096195686396976,True
28494,87588,0,87589,5160.0,45715.0,31362.0,-0.000305,0.0,0.001098,0.36750000000000005,-1.2425000000000002,-3.9025000000000003,0.98178125,0.0749375,0.22075,1.2624375,0.9325625000000001,-0.3646875,-0.31796875,1.23609375,0.01804353123757487,0.022153114659299002,True
28495,87589,0,87590,5159.0,45711.0,31362.0,-0.0006709999999999999,0.000549,-0.00122,0.29750000000000004,-1.435,-3.8500000000000005,0.9831562500000001,0.0745,0.2214375,1.26559375,0.92625,-0.36621875,-0.31359375,1.23221875,0.018087285291239534,0.02200543677340994,True
28496,87590,0,87591,5161.0,45712.0,31361.0,-0.000122,-0.00042699999999999997,-6.1e-05,0.29750000000000004,-1.3825,-3.8150000000000004,0.98253125,0.079,0.21853125,1.261125,0.960375,-0.3685,-0.30215625,1.263125,0.018363871391345384,0.021425567947288626,True
28497,87591,0,87592,5160.0,45713.0,31362.0,0.000244,-0.000305,0.000549,0.35000000000000003,-1.4525000000000001,-3.8850000000000002,0.97640625,0.07696875,0.22109375,1.26778125,0.928875,-0.36134375,-0.31546875,1.23159375,0.0179921314890522,0.0220667142187008,True
28498,87592,0,87593,5160.0,45714.0,31362.0,0.00061,-0.000915,-0.000366,0.385,-1.4700000000000002,-3.8325000000000005,0.9830625000000001,0.0811875,0.21846875000000002,1.260625,0.94565625,-0.36612500000000003,-0.3031875,1.2625625,0.018357966233859508,0.021464519828931907,True
28499,87593,0,87594,5163.0,45711.0,31362.0,0.001098,-0.00042699999999999997,-0.000122,0.35000000000000003,-1.4000000000000001,-3.7625,0.98171875,0.07696875,0.2220625,1.26828125,0.927625,-0.3716875,-0.31090625,1.25234375,0.018408911980346047,0.02192303094418786,True
28500,87594,0,87595,5163.0,45714.0,31361.0,6.1e-05,0.000366,-0.000305,0.36750000000000005,-1.435,-3.7625,0.97684375,0.07546875,0.2216875,1.25884375,0.9415625,-0.359375,-0.3065,1.26346875,0.017851186658114176,0.0217302984798305,True
28501,87595,0,87596,5163.0,45715.0,31364.0,-6.1e-05,0.000488,-0.000244,0.4025,-1.3475000000000001,-3.7450000000000006,0.9813437500000001,0.07856250000000001,0.22053125,1.26059375,0.9275,-0.37428125,-0.30103125000000003,1.2556875,0.018578752963228404,0.02146256653202732,True
28502,87596,0,87597,5163.0,45714.0,31364.0,-0.000488,-6.1e-05,0.00042699999999999997,0.42000000000000004,-1.3825,-3.7975000000000003,0.979625,0.079,0.22053125,1.26084375,0.9420000000000001,-0.36203125,-0.317,1.23178125,0.01810322158584375,0.022105163054653123,True
28503,87597,0,87598,5164.0,45716.0,31364.0,-0.0015249999999999999,0.001281,-0.000488,0.43750000000000006,-1.4700000000000002,-3.9550000000000005,0.9841875,0.079,0.22059375,1.26103125,0.9495625,-0.36203125,-0.316875,1.2316562500000001,0.01810322158584375,0.022102706453851494,True
28504,87598,0,87599,5165.0,45717.0,31365.0,-0.00042699999999999997,0.000732,0.00042699999999999997,0.385,-1.54,-3.9025000000000003,0.976625,0.07821875,0.2213125,1.2660625,0.954125,-0.35934375,-0.3144375,1.2326875,0.017962819708556392,0.022034233775714528,True
28505,87599,0,87600,5166.0,45716.0,31365.0,-0.00061,-0.000488,0.000366,0.22750000000000004,-1.4875,-3.9025000000000003,0.9775312500000001,0.0768125,0.2214375,1.26603125,0.9529062500000001,-0.3575,-0.30946875,1.24609375,0.017830750282253924,0.021839483843101262,True
28506,87600,0,87601,5166.0,45716.0,31365.0,-0.00061,0.000183,0.000366,0.21000000000000002,-1.7325000000000002,-3.9200000000000004,0.9769375,0.07521875,0.22275,1.2610000000000001,0.93559375,-0.36703125000000003,-0.30384375,1.2435,0.018149523241572568,0.02166709741128911,True
28507,87601,0,87602,5166.0,45715.0,31365.0,0.0,-0.000549,-6.1e-05,0.15750000000000003,-1.8550000000000002,-3.8850000000000002,0.98084375,0.0803125,0.22112500000000002,1.26184375,0.9485625,-0.36303125,-0.31090625,1.2369375,0.018197396926952596,0.021884468004972048,True
28508,87602,0,87603,5165.0,45716.0,31365.0,0.001647,-0.000793,0.0,0.29750000000000004,-1.8725000000000003,-3.8850000000000002,0.97584375,0.07815625,0.22146875,1.2670000000000001,0.9414375,-0.36512500000000003,-0.30940625,1.25084375,0.018193268041924678,0.02183825448225417,True
28509,87603,0,87604,5167.0,45713.0,31364.0,0.000793,0.000122,-0.00042699999999999997,0.31500000000000006,-1.8725000000000003,-3.8500000000000005,0.977125,0.07790625,0.2214375,1.26590625,0.94078125,-0.36540625,-0.30653125000000003,1.24303125,0.018194340593028283,0.02172127090326803,True
28510,87604,0,87605,5167.0,45715.0,31364.0,0.000549,-0.000488,0.000183,0.24500000000000002,-1.7850000000000001,-3.7800000000000002,0.9764375000000001,0.0765,0.22137500000000002,1.265375,0.939875,-0.36596875,-0.30828125,1.2451875000000001,0.018159292353192403,0.021789127933510316,True
28511,87605,0,87606,5169.0,45715.0,31364.0,6.1e-05,-6.1e-05,0.000122,0.24500000000000002,-1.6975000000000002,-3.8325000000000005,0.976625,0.07890625,0.2226875,1.2610937500000001,0.94375,-0.3625,-0.31228125,1.2434375,0.0181182657773217,0.0220040540210516,True
28512,87606,0,87607,5169.0,45714.0,31364.0,-0.00042699999999999997,0.000732,0.000122,0.21000000000000002,-1.7850000000000001,-3.9025000000000003,0.9829687500000001,0.07878125,0.21940625,1.2613125,0.94853125,-0.36303125,-0.31125,1.242,0.018134545552495652,0.021827600390765593,True
28513,87607,0,87608,5169.0,45717.0,31366.0,0.000122,-0.000244,-0.00042699999999999997,0.35000000000000003,-1.8725000000000003,-3.7275000000000005,0.9770625000000001,0.079125,0.2225,1.26096875,0.9488125000000001,-0.36253125,-0.30396875,1.242625,0.01812850419637738,0.021661842780307233,True
28514,87608,0,87609,5169.0,45716.0,31365.0,6.1e-05,0.0008539999999999999,0.000122,0.3325,-2.0475000000000003,-3.9200000000000004,0.98240625,0.07890625,0.21959375,1.258,0.9462812500000001,-0.36284375,-0.312,1.2436875,0.018132119736637888,0.021865488236261926,True
28515,87609,0,87610,5170.0,45718.0,31365.0,0.000732,0.0006709999999999999,0.000976,0.28,-2.0475000000000003,-3.8850000000000002,0.97796875,0.0780625,0.22525,1.2624375,0.940625,-0.3646875,-0.30915625,1.24403125,0.018171790629368835,0.021983743265461958,True
28516,87610,0,87611,5169.0,45715.0,31366.0,0.0006709999999999999,0.000732,0.000122,0.36750000000000005,-1.995,-3.8675,0.9783437500000001,0.07775,0.22234375,1.26784375,0.94053125,-0.3635625,-0.3090625,1.246125,0.018113627676576444,0.02186041728264922,True
28517,87611,0,87612,5172.0,45715.0,31364.0,0.001647,-0.000305,-0.001098,0.36750000000000005,-1.8725000000000003,-3.8675,0.96703125,0.068,0.22390625,1.2709375,0.94059375,-0.36412500000000003,-0.309,1.2446875,0.017736118165540524,0.02192217902834341,True
28518,87612,0,87613,5171.0,45714.0,31366.0,0.000305,-0.000793,-0.000183,0.2625,-1.61,-3.7800000000000002,0.967375,0.0701875,0.2255,1.2730937500000001,0.9410625,-0.3659375,-0.30871875,1.24884375,0.01789896243475138,0.021976425639463205,True
28519,87613,0,87614,5173.0,45714.0,31365.0,-0.00061,-0.000793,-0.000366,0.29750000000000004,-1.61,-3.7450000000000006,0.96940625,0.07203125,0.224375,1.2774375,0.9410937500000001,-0.36575,-0.3085625,1.2486875,0.017967074684752164,0.021923859133998566,True
28520,87614,0,87615,5172.0,45716.0,31367.0,0.00042699999999999997,-6.1e-05,0.000122,0.45500000000000007,-1.5050000000000001,-3.7800000000000002,0.9703437500000001,0.07403125,0.227125,1.269875,0.93265625,-0.36712500000000003,-0.30865625,1.248375,0.018104567116555604,0.022040759657375137,True
28521,87615,0,87616,5176.0,45716.0,31366.0,-6.1e-05,0.0006709999999999999,0.001281,0.36750000000000005,-1.435,-3.7450000000000006,0.976375,0.07625,0.2240625,1.2627187500000001,0.94415625,-0.36271875000000003,-0.309375,1.24440625,0.018018052685519755,0.02194369456228307,True
28522,87616,0,87617,5175.0,45718.0,31366.0,-0.0008539999999999999,0.00042699999999999997,0.000305,0.4025,-1.4700000000000002,-3.7625,0.97228125,0.0766875,0.2193125,1.24959375,0.942125,-0.36290625,-0.31043750000000003,1.2428125,0.018043567770162888,0.021791051683047666,True
28523,87617,0,87618,5175.0,45715.0,31366.0,-0.000122,-6.1e-05,0.000305,0.28,-1.4525000000000001,-3.8675,0.99375,0.08078125,0.21471875,1.25628125,0.9394687500000001,-0.36275,-0.312375,1.243,0.018205303178007413,0.021680060051722634,True
