frame_seq,absolute_seq_u64,segment_id,sample_seq,PPG_G,PPG_R,PPG_IR,ACC_X,ACC_Y,ACC_Z,GYRO_X,GYRO_Y,GYRO_Z,Uh1,Uh2,Uh3,Uh4,Uc1,Uc2,Uc3,Uc4,UD1,UD2,parser_valid
50177,141187,0,141188,4117.0,42158.0,30540.0,0.009516,-0.00042699999999999997,-0.001769,0.2625,-3.4125000000000005,-4.2525,1.1537187500000001,0.1624375,-0.16509375,1.3436875,1.10140625,-0.2950625,-0.915125,1.27003125,0.01883098674885072,0.030103451216881308,True
50178,141188,0,141189,4120.0,42158.0,30543.0,0.0048189999999999995,-0.00183,0.000122,0.10500000000000001,-2.765,-4.112500000000001,1.15703125,0.15915625,-0.16468750000000001,1.349875,1.10171875,-0.29559375,-0.9154375,1.27065625,0.01871738573995542,0.03013192122353862,True
50179,141189,0,141190,4121.0,42157.0,30542.0,-0.005978,-0.00244,0.0,0.17500000000000002,-0.7525000000000001,-3.8325000000000005,1.1637187500000001,0.15912500000000002,-0.15265625,1.32078125,1.10596875,-0.2999375,-0.9203125,1.27975,0.018891509494623187,0.03080443914978995,True
50180,141190,0,141191,4122.0,42157.0,30543.0,-0.010369999999999999,-0.001098,0.001037,0.42000000000000004,0.24500000000000002,-3.6225000000000005,1.1256875,0.16884375000000001,-0.15365625,1.324,1.11615625,-0.299875,-0.9146562500000001,1.2693125,0.019288936671484937,0.030544270503431094,True
50181,141191,0,141192,4126.0,42159.0,30545.0,-0.013847,0.004148,0.003355,0.6300000000000001,0.49000000000000005,-3.6575,1.12778125,0.1614375,-0.170875,1.3535,1.1013125,-0.294625,-0.9095,1.26990625,0.01877215639261771,0.029652341476143637,True
50182,141192,0,141193,4128.0,42157.0,30547.0,-0.014761999999999999,0.0051849999999999995,0.0021349999999999997,0.77,-0.1925,-3.6050000000000004,1.1637187500000001,0.15740625,-0.1625,1.32003125,1.1023125,-0.29571875000000003,-0.9203125,1.2769375,0.01865040522828739,0.030409430058310864,True
50183,141193,0,141194,4131.0,42163.0,30551.0,-0.010919,0.0035989999999999998,0.001098,0.7175,-1.5575,-3.8675,1.1298125,0.172875,-0.15415625,1.314375,1.107125,-0.294875,-0.9175625000000001,1.27325,0.019253031760813753,0.030637276418991628,True
50184,141194,0,141195,4131.0,42168.0,30558.0,0.014213,0.0,-0.000976,0.45500000000000007,-4.6375,-4.025,1.13375,0.1683125,-0.15425,1.32015625,1.09334375,-0.29575,-0.9149375000000001,1.272875,0.019100562855643478,0.03053138303076217,True
50185,141195,0,141196,4134.0,42175.0,30564.0,0.025193,-0.0013419999999999999,-0.0062829999999999995,0.15750000000000003,-5.197500000000001,-4.322500000000001,1.1304375,0.169,-0.1530625,1.32059375,1.1090625,-0.2951875,-0.913,1.2721875,0.01910615013775876,0.0305036527114358,True
50186,141196,0,141197,4135.0,42178.0,30568.0,0.029585,-0.00366,-0.0071979999999999995,-0.15750000000000003,-4.69,-4.2875000000000005,1.1343750000000001,0.16793750000000002,-0.15678125,1.32365625,1.104,-0.294875,-0.915625,1.2715625,0.019049799597651768,0.03045654082528534,True
50187,141197,0,141198,4139.0,42174.0,30563.0,0.022203999999999998,-0.004392,-0.005429,-0.17500000000000002,-3.1500000000000004,-4.1825,1.1420625,0.1655,-0.15884375,1.32725,1.0968125,-0.29734375,-0.9173125,1.27175,0.019049150177167,0.030439428409464304,True
50188,141198,0,141199,4141.0,42170.0,30558.0,0.0066489999999999995,-0.005612,0.00042699999999999997,-0.08750000000000001,-1.05,-3.9025000000000003,1.14340625,0.16553125,-0.1581875,1.32503125,1.1046562500000001,-0.29609375,-0.9165625000000001,1.27121875,0.018999967844625227,0.0304365820927345,True
50189,141199,0,141200,4139.0,42159.0,30546.0,-0.027816,-0.000244,0.0035989999999999998,0.5075000000000001,2.3275,-3.3425000000000002,1.14290625,0.16621875,-0.1588125,1.33071875,1.10425,-0.2961875,-0.9164375,1.2719375,0.01903204978147292,0.03040663417472903,True
50190,141200,0,141201,4140.0,42150.0,30533.0,-0.033062,0.003721,0.005673,0.9100000000000001,2.5375,-3.2025,1.143375,0.16503125,-0.1588125,1.3313125000000001,1.1043125,-0.2960625,-0.91746875,1.2716875,0.01897812659973195,0.03044676237428812,True
50191,141201,0,141202,4140.0,42145.0,30525.0,-0.029523999999999998,0.006954,0.006039,1.155,1.8025000000000002,-3.4825000000000004,1.1443125,0.1645625,-0.15878125,1.33196875,1.104625,-0.29709375,-0.91746875,1.27259375,0.01900047202147376,0.030448016514518554,True
50192,141202,0,141203,4139.0,42144.0,30519.0,-0.019154,0.0073809999999999995,0.004026,1.1375000000000002,-0.052500000000000005,-3.5700000000000003,1.14384375,0.1655,-0.15887500000000002,1.33084375,1.1014375,-0.29609375,-0.9165625000000001,1.26990625,0.018998681629634393,0.030408990004138815,True
50193,141203,0,141204,4139.0,42143.0,30520.0,-0.002562,0.004392,0.0,0.8225000000000001,-2.3275,-3.8675,1.1435,0.165375,-0.15859375,1.3306875,1.104125,-0.29575,-0.91703125,1.26834375,0.018979656935883847,0.030438517831051802,True
50194,141204,0,141205,4138.0,42150.0,30523.0,0.025131999999999998,-0.0015249999999999999,-0.005063,0.035,-5.565,-4.2875000000000005,1.14340625,0.16543750000000002,-0.15875,1.33190625,1.10440625,-0.29625,-0.91646875,1.27178125,0.019002418068631993,0.030410358610708028,True
50195,141205,0,141206,4138.0,42156.0,30525.0,0.031537,-0.004331,-0.0055509999999999995,-0.22750000000000004,-5.827500000000001,-4.340000000000001,1.14240625,0.16528125,-0.15737500000000001,1.33075,1.10359375,-0.29753125,-0.91628125,1.27190625,0.01904771703915393,0.030458247054824843,True
50196,141206,0,141207,4136.0,42157.0,30529.0,0.026962,-0.005612,-0.005124,-0.36750000000000005,-5.005000000000001,-4.305000000000001,1.1362812500000001,0.16453125,-0.1583125,1.33034375,1.092625,-0.29812500000000003,-0.917375,1.2636875,0.01904082105100702,0.0304631808125856,True
50197,141207,0,141208,4139.0,42160.0,30528.0,0.016897,-0.005246,-0.003721,-0.3325,-3.2900000000000005,-4.2525,1.1434375,0.16496875,-0.1578125,1.3311875,1.1036875,-0.29784375,-0.91671875,1.271625,0.01904747206220717,0.030457712253945956,True
50198,141208,0,141209,4136.0,42157.0,30523.0,-0.010553,-0.000549,0.0021349999999999997,-0.1925,-1.225,-3.7450000000000006,1.1438125000000001,0.16184375,-0.16075,1.3346875,1.1040625,-0.298,-0.91825,1.2755,0.018925168738167752,0.03039940605780904,True
50199,141209,0,141210,4137.0,42151.0,30517.0,-0.020923,0.000793,0.0048189999999999995,0.5775,1.9075000000000002,-3.5525,1.1497187500000001,0.161125,-0.1624375,1.3344375,1.110875,-0.300375,-0.917875,1.27553125,0.018991476468984535,0.0303170916460573,True
50200,141210,0,141211,4135.0,42146.0,30512.0,-0.02501,0.0023179999999999997,0.006039,0.8575,2.1525000000000003,-3.4125000000000005,1.15034375,0.16134375,-0.1625,1.3346875,1.108,-0.29828125,-0.9173125,1.27121875,0.018915946986991106,0.030292693082369936,True
50201,141211,0,141212,4135.0,42141.0,30511.0,-0.022326,0.003538,0.005429,0.8400000000000001,1.4175000000000002,-3.5175000000000005,1.143125,0.16468750000000001,-0.16203125000000002,1.33165625,1.1064375,-0.29784375,-0.9175625000000001,1.27140625,0.019035896961021495,0.030321234270005343,True
50202,141212,0,141213,4134.0,42139.0,30512.0,-0.014518,0.003538,0.0040869999999999995,0.77,-0.052500000000000005,-3.6225000000000005,1.1437187500000001,0.166,-0.15859375,1.331625,1.10090625,-0.29762500000000003,-0.916625,1.27171875,0.01908108302766217,0.030422709736972805,True
50203,141213,0,141214,4135.0,42144.0,30514.0,0.007686,0.001952,-0.002074,0.5775,-3.0275000000000003,-3.8675,1.14346875,0.16418750000000001,-0.16275,1.339375,1.10459375,-0.2963125,-0.91809375,1.27646875,0.01895349345708325,0.030313063173221265,True
50204,141214,0,141215,4135.0,42149.0,30517.0,0.01586,-0.00042699999999999997,-0.002806,0.2625,-3.9550000000000005,-4.095000000000001,1.1524375,0.1630625,-0.1610625,1.33565625,1.10915625,-0.2965625,-0.91353125,1.26596875,0.018917285109776333,0.03020321537116502,True
50205,141215,0,141216,4136.0,42150.0,30520.0,0.018483,-0.002196,-0.003538,0.0175,-4.2,-4.025,1.1420937500000001,0.16525,-0.15762500000000002,1.3370312500000001,1.10946875,-0.2979375,-0.91625,1.2747187500000001,0.01906283197905172,0.030446997441428786,True
50206,141216,0,141217,4136.0,42157.0,30524.0,0.017629,-0.004697,-0.0044529999999999995,-0.12250000000000001,-3.7450000000000006,-3.9375000000000004,1.15059375,0.16525,-0.15921875,1.33390625,1.10915625,-0.29728125,-0.91859375,1.27728125,0.019036337656090637,0.030474231717028576,True
50207,141217,0,141218,4137.0,42159.0,30526.0,0.011773,-0.0046359999999999995,-0.004026,-0.08750000000000001,-2.8175000000000003,-3.8500000000000005,1.1459375,0.1636875,-0.15878125,1.32971875,1.10959375,-0.30065625,-0.920375,1.2768125000000001,0.019108280254777073,0.030561087062293407,True
50208,141218,0,141219,4137.0,42158.0,30527.0,-0.005612,-0.000366,0.0018909999999999999,0.4025,-0.5425000000000001,-3.5525,1.14334375,0.16559375,-0.15790625,1.3315937500000001,1.10190625,-0.295,-0.91396875,1.266875,0.01895837620909652,0.03034693137760318,True
50209,141219,0,141220,4140.0,42157.0,30525.0,-0.011163,0.001403,0.0015249999999999999,0.7000000000000001,0.08750000000000001,-3.4125000000000005,1.14396875,0.16518750000000001,-0.1571875,1.33253125,1.098,-0.29475,-0.91371875,1.262625,0.018931559287500385,0.030366050832937173,True
50210,141220,0,141221,4141.0,42154.0,30525.0,-0.013603,0.003904,0.001647,0.805,0.12250000000000001,-3.4475000000000002,1.138375,0.162625,-0.15959375,1.33671875,1.0974375,-0.293625,-0.91415625,1.27740625,0.018780647186247425,0.03028649625652083,True
50211,141221,0,141222,4140.0,42156.0,30525.0,-0.010919,0.0040869999999999995,0.002562,0.8575,-0.07,-3.4650000000000003,1.14946875,0.1626875,-0.16053125000000001,1.33834375,1.0964375,-0.293625,-0.91353125,1.27903125,0.0187832198776428,0.03022453912469755,True
50212,141222,0,141223,4141.0,42153.0,30525.0,-0.0064659999999999995,0.0030499999999999998,0.0017079999999999999,0.77,-0.6125,-3.6750000000000003,1.150125,0.1648125,-0.16215625,1.3375000000000001,1.11971875,-0.3009375,-0.916375,1.2829062500000001,0.019165927240461404,0.03027000316057212,True
50213,141223,0,141224,4142.0,42156.0,30528.0,0.002928,-0.0011589999999999999,0.000488,0.24500000000000002,-2.0825,-3.8850000000000002,1.1405625,0.16465625,-0.16025,1.33671875,1.11125,-0.30165625,-0.920375,1.2736875,0.0191885069561874,0.030502149345665946,True
50214,141224,0,141225,4145.0,42161.0,30532.0,0.0068319999999999995,-0.0021349999999999997,-0.001098,0.12250000000000001,-2.3800000000000003,-3.8850000000000002,1.1491875,0.16325,-0.15815625,1.33103125,1.098875,-0.292375,-0.913125,1.26634375,0.018755885334389908,0.03030405659667344,True
50215,141225,0,141226,4144.0,42163.0,30534.0,0.0075639999999999995,-0.003294,-0.0015249999999999999,0.052500000000000005,-2.2925000000000004,-3.8500000000000005,1.14309375,0.17009375000000002,-0.15840625,1.331375,1.0968437500000001,-0.294,-0.91378125,1.2661875,0.019103225076150487,0.030319564598408764,True
50216,141226,0,141227,4144.0,42163.0,30536.0,0.0050019999999999995,-0.002257,-0.001403,0.10500000000000001,-2.1,-3.7975000000000003,1.1431875,0.16490625,-0.15825,1.3305,1.09796875,-0.29415625,-0.9135,1.26584375,0.018896005083527033,0.030314889517731352,True
50217,141227,0,141228,4145.0,42164.0,30535.0,0.002257,-0.00061,-0.000793,0.21000000000000002,-1.7675,-3.6225000000000005,1.14353125,0.16568750000000002,-0.15662500000000001,1.33125,1.0979375,-0.29396875,-0.91278125,1.2655,0.018920591144664246,0.03035214103202548,True
50218,141228,0,141229,4147.0,42167.0,30540.0,-0.001769,0.00061,0.0,0.6125,-1.2425000000000002,-3.6225000000000005,1.14359375,0.1653125,-0.15778125,1.329625,1.0915625,-0.2945,-0.91478125,1.270125,0.018926608903249705,0.03038356999421779,True
50219,141229,0,141230,4148.0,42170.0,30540.0,-0.0026839999999999998,0.001464,0.000122,0.5775,-1.2075,-3.5875000000000004,1.14271875,0.1625,-0.15887500000000002,1.33371875,1.1035625,-0.29540625,-0.91740625,1.2789062500000001,0.018847441581677605,0.03044182216999412,True
50220,141230,0,141231,4150.0,42168.0,30542.0,-0.00183,0.001647,0.0,0.45500000000000007,-1.4000000000000001,-3.6575,1.15109375,0.1628125,-0.16221875,1.3385625,1.10984375,-0.29762500000000003,-0.9156875,1.2759375,0.01894989736651216,0.030240736885145152,True
50221,141231,0,141232,4153.0,42170.0,30544.0,-0.00061,0.000915,0.000549,0.47250000000000003,-1.5050000000000001,-3.6400000000000006,1.14921875,0.16309375,-0.1608125,1.33715625,1.1127500000000001,-0.2988125,-0.91915625,1.2785625,0.019009416612437335,0.030432159997391565,True
50222,141232,0,141233,4151.0,42171.0,30546.0,0.0,0.001037,0.000488,0.5075000000000001,-1.5575,-3.7275000000000005,1.14775,0.16246875,-0.162375,1.3311250000000001,1.11175,-0.29884375,-0.91959375,1.275375,0.018984956845940457,0.03038648051796591,True
50223,141233,0,141234,4153.0,42174.0,30549.0,0.003172,0.000122,-0.001281,0.22750000000000004,-1.5225000000000002,-3.6750000000000003,1.14528125,0.1689375,-0.1583125,1.33190625,1.10403125,-0.29603125,-0.9156875,1.27221875,0.019137642078888916,0.030397515621433283,True
50224,141234,0,141235,4156.0,42176.0,30548.0,0.002623,-0.0006709999999999999,-0.000244,0.22750000000000004,-1.3125000000000002,-3.6225000000000005,1.13015625,0.16518750000000001,-0.15909375,1.3316875000000001,1.1040625,-0.29625,-0.91603125,1.2725625,0.01899212841487884,0.030379537270808325,True
50225,141235,0,141236,4157.0,42177.0,30550.0,0.000976,-0.000976,0.000488,0.21000000000000002,-0.8750000000000001,-3.6400000000000006,1.13634375,0.16634375,-0.15890625,1.3194375,1.1011875,-0.29665625,-0.91690625,1.27196875,0.019056120119409437,0.03042111217158029,True
50226,141236,0,141237,4158.0,42177.0,30550.0,-0.001586,-0.000732,-0.000244,0.29750000000000004,-0.4025,-3.43,1.13421875,0.16946875,-0.15875,1.331875,1.10421875,-0.2965,-0.91634375,1.27215625,0.019178431049739673,0.030405494385587775,True
50227,141237,0,141238,4162.0,42177.0,30552.0,-0.0025009999999999998,-0.00042699999999999997,-0.000244,0.22750000000000004,-0.07,-3.3600000000000003,1.14121875,0.16528125,-0.1586875,1.33015625,1.1043125,-0.295625,-0.91578125,1.27153125,0.018970750906799064,0.03038611321890619,True
50228,141238,0,141239,4162.0,42177.0,30553.0,-0.0040869999999999995,-0.000122,0.0006709999999999999,0.22750000000000004,0.15750000000000003,-3.3600000000000003,1.143125,0.16593750000000002,-0.15759375,1.3294062500000001,1.10428125,-0.2954375,-0.9157500000000001,1.26396875,0.01899019105953536,0.030428795039282384,True
50229,141239,0,141240,4164.0,42178.0,30555.0,-0.0032329999999999998,-6.1e-05,0.000732,0.28,-0.10500000000000001,-3.4475000000000002,1.141375,0.16709375,-0.1530625,1.3226875,1.1046562500000001,-0.295625,-0.91515625,1.269125,0.01904535281557894,0.030587556519939548,True
50230,141240,0,141241,4166.0,42178.0,30556.0,-0.001586,6.1e-05,0.001403,0.24500000000000002,-0.24500000000000002,-3.535,1.14134375,0.166625,-0.15728125,1.335625,1.1031875,-0.29221875,-0.9156562500000001,1.278875,0.01888850725090725,0.030437689153782574,True
50231,141241,0,141242,4167.0,42179.0,30558.0,0.000793,0.0,-0.000244,0.24500000000000002,-0.42000000000000004,-3.5875000000000004,1.15209375,0.16134375,-0.1610625,1.33928125,1.114,-0.2998125,-0.919375,1.27884375,0.01897776989019977,0.03043063881016278,True
50232,141242,0,141243,4168.0,42181.0,30560.0,0.000732,-0.001037,-0.0006709999999999999,0.24500000000000002,-0.7525000000000001,-3.5875000000000004,1.141875,0.16793750000000002,-0.1608125,1.34034375,1.0951250000000001,-0.29581250000000003,-0.9183125,1.2805625,0.01908765142141264,0.03039932981015468,True
50233,141243,0,141244,4170.0,42183.0,30564.0,0.001769,0.000305,-6.1e-05,0.22750000000000004,-0.5425000000000001,-3.5700000000000003,1.14496875,0.1736875,-0.15715625,1.332,1.10421875,-0.29646875,-0.91559375,1.2759375,0.019350805865564313,0.030440273975008123,True
50234,141244,0,141245,4172.0,42185.0,30564.0,0.000915,0.0,-0.0006709999999999999,0.385,-0.385,-3.5175000000000005,1.15203125,0.160875,-0.16128125000000001,1.34415625,1.1103750000000001,-0.29784375,-0.91978125,1.2775,0.018878990033837882,0.03043766686354841,True
50235,141245,0,141246,4173.0,42184.0,30565.0,0.0,0.000366,-0.000244,0.385,-0.3325,-3.5000000000000004,1.1564375,0.1598125,-0.16,1.3311875,1.1088437500000001,-0.29584375,-0.91578125,1.27146875,0.018754493759863763,0.030333435761722302,True
50236,141246,0,141247,4174.0,42184.0,30567.0,-0.000915,0.001769,0.000305,0.385,-0.14,-3.3775000000000004,1.1369375,0.16646875,-0.15753125,1.3281875,1.10390625,-0.2965,-0.9156562500000001,1.2648125000000001,0.01905495647521248,0.030427655302075376,True
50237,141247,0,141248,4174.0,42183.0,30569.0,-0.00244,0.000366,0.000732,0.35000000000000003,-0.21000000000000002,-3.3775000000000004,1.1395,0.16721875,-0.1575625,1.33625,1.10446875,-0.29678125,-0.9179375000000001,1.276875,0.01909717979619214,0.030515166032501685,True
50238,141248,0,141249,4177.0,42185.0,30570.0,-0.0025009999999999998,0.000488,-0.0008539999999999999,0.31500000000000006,-0.3325,-3.4650000000000003,1.1485,0.1645,-0.1580625,1.3303125,1.10678125,-0.296625,-0.9154375,1.27184375,0.018978973417089824,0.030397820628275143,True
50239,141249,0,141250,4178.0,42184.0,30571.0,-0.001403,-0.000244,0.000244,0.31500000000000006,-0.525,-3.3425000000000002,1.14265625,0.165375,-0.158,1.32946875,1.1048437500000001,-0.29665625,-0.91546875,1.2720625,0.0190162483777989,0.030401545224791326,True
50240,141250,0,141251,4178.0,42185.0,30574.0,-0.00042699999999999997,0.0,0.0,0.24500000000000002,-0.805,-3.5000000000000004,1.15121875,0.16340625,-0.16303125000000002,1.331625,1.11053125,-0.2955625,-0.91734375,1.2720625,0.01889105263564077,0.030272588746543254,True
50241,141251,0,141252,4181.0,42188.0,30575.0,0.001952,-0.000915,-0.000732,0.1925,-1.0675000000000001,-3.6050000000000004,1.14475,0.16478125,-0.15753125,1.3313125000000001,1.10434375,-0.29621875000000003,-0.916625,1.27228125,0.018974145925484805,0.030465351948749077,True
50242,141252,0,141253,4183.0,42189.0,30577.0,0.002623,-0.000366,-0.000183,0.10500000000000001,-1.1900000000000002,-3.5525,1.145375,0.1636875,-0.16121875,1.33665625,1.1039375,-0.30021875,-0.9305625000000001,1.297125,0.019090620326205912,0.03085946215613868,True
50243,141253,0,141254,4185.0,42193.0,30580.0,0.0008539999999999999,-0.000976,-0.001464,0.21000000000000002,-0.8225000000000001,-3.5875000000000004,1.14896875,0.16418750000000001,-0.15934375,1.3394062500000001,1.1383125,-0.30909375,-0.9200625,1.2911875,0.01946930868206471,0.030526358029800287,True
50244,141254,0,141255,4186.0,42191.0,30582.0,0.0006709999999999999,-0.000488,0.00042699999999999997,0.052500000000000005,-0.6475000000000001,-3.4825000000000004,1.149375,0.1620625,-0.1599375,1.331875,1.125,-0.3026875,-0.92134375,1.2923125,0.019123399418274213,0.030552375411137294,True
50245,141255,0,141256,4189.0,42192.0,30583.0,-0.002928,0.0,0.000915,0.24500000000000002,-0.6300000000000001,-3.4825000000000004,1.1431875,0.16571875,-0.15812500000000002,1.3311250000000001,1.1061875,-0.29640625,-0.918125,1.27521875,0.01902030264249471,0.030499887130351903,True
50246,141256,0,141257,4188.0,42191.0,30584.0,-0.003721,0.0008539999999999999,0.001769,0.35000000000000003,-0.5075000000000001,-3.4825000000000004,1.14396875,0.16459375,-0.15903125,1.32678125,1.11525,-0.30653125000000003,-0.921125,1.27078125,0.019382650496458643,0.030580230627630173,True
50247,141257,0,141258,4190.0,42193.0,30585.0,-0.0028669999999999998,0.000488,-0.0008539999999999999,0.35000000000000003,-0.49000000000000005,-3.43,1.14353125,0.1658125,-0.15784375,1.330875,1.09446875,-0.29253125,-0.911625,1.2594687500000001,0.018867681810638817,0.030258212782185025,True
50248,141258,0,141259,4192.0,42194.0,30585.0,-0.000244,0.001403,-0.00042699999999999997,0.35000000000000003,-0.7525000000000001,-3.5875000000000004,1.1494375000000001,0.16240625,-0.16159375,1.339375,1.0916875,-0.30178125,-0.91,1.29490625,0.019100966107165496,0.03004440987555199,True
50249,141259,0,141260,4194.0,42193.0,30589.0,0.000183,-0.000305,0.00183,0.17500000000000002,-0.8225000000000001,-3.5000000000000004,1.14328125,0.1655,-0.15809375,1.32821875,1.12815625,-0.2984375,-0.91228125,1.26,0.0190933058967269,0.030273722925314196,True
50250,141260,0,141261,4194.0,42192.0,30590.0,0.001647,-0.002074,-0.000488,0.035,-0.7525000000000001,-3.5525,1.14546875,0.16525,-0.162875,1.33134375,1.08440625,-0.3013125,-0.92121875,1.27584375,0.01919906589407465,0.030429641407485337,True
50251,141261,0,141262,4196.0,42193.0,30591.0,0.0011589999999999999,-0.0011589999999999999,-0.0015249999999999999,0.035,-0.9625000000000001,-3.6225000000000005,1.1436250000000001,0.165875,-0.1583125,1.33065625,1.10353125,-0.29684375,-0.91034375,1.2613750000000001,0.01904439748475561,0.03018951715590035,True
50252,141262,0,141263,4198.0,42195.0,30593.0,0.002074,-0.0017079999999999999,-0.000244,0.0175,-0.8925000000000001,-3.5875000000000004,1.14871875,0.16215625,-0.16096875,1.33125,1.10871875,-0.30378125,-0.9195625000000001,1.2850625,0.01917139951216439,0.030441696157386393,True
50253,141263,0,141264,4199.0,42198.0,30595.0,0.00042699999999999997,0.00122,0.0,0.4025,-0.5775,-3.4825000000000004,1.14475,0.16978125,-0.15837500000000002,1.32403125,1.09646875,-0.29421875000000003,-0.91134375,1.26571875,0.019099194124116464,0.030225938735239842,True
50254,141264,0,141265,4201.0,42200.0,30599.0,-0.0021349999999999997,0.000793,-0.000122,0.49000000000000005,-0.525,-3.2900000000000005,1.14246875,0.166,-0.158,1.330875,1.10853125,-0.298375,-0.9184375,1.280375,0.01911136032759392,0.030517061914496043,True
50255,141265,0,141266,4204.0,42201.0,30599.0,-0.00244,0.001037,-0.000488,0.56,-0.5075000000000001,-3.2550000000000003,1.1428125,0.16634375,-0.1584375,1.33153125,1.1106562500000001,-0.29915625,-0.91540625,1.2730937500000001,0.019157043775954157,0.030381553581932865,True
50256,141266,0,141267,4205.0,42199.0,30602.0,-0.0023179999999999997,0.000915,-0.001281,0.49000000000000005,-0.49000000000000005,-3.2900000000000005,1.14334375,0.16559375,-0.15953125,1.335875,1.10459375,-0.2965625,-0.916125,1.27203125,0.019021466514038767,0.03036562667750302,True
50257,141267,0,141268,4205.0,42201.0,30602.0,-0.00183,0.0006709999999999999,-0.000183,0.29750000000000004,-0.49000000000000005,-3.3600000000000003,1.144875,0.1634375,-0.15740625,1.336375,1.10378125,-0.290875,-0.91621875,1.27396875,0.018703010904300484,0.03045456084703864,True
50258,141268,0,141269,4209.0,42198.0,30603.0,0.0015249999999999999,-0.001769,0.000976,0.21000000000000002,-0.6125,-3.4125000000000005,1.14875,0.16365625,-0.15934375,1.3305,1.1045625000000001,-0.2986875,-0.9191875,1.28028125,0.01902751949050746,0.030492316412804393,True
50259,141269,0,141270,4209.0,42197.0,30602.0,0.0023179999999999997,-0.001952,-0.000366,0.15750000000000003,-0.525,-3.5000000000000004,1.1437187500000001,0.16525,-0.159,1.321,1.109125,-0.29421875000000003,-0.91590625,1.27259375,0.01891267855649814,0.030378435462286267,True
50260,141270,0,141271,4211.0,42195.0,30599.0,0.001586,-0.000732,0.000488,0.2625,-0.3325,-3.4125000000000005,1.1408125,0.16525,-0.15853125,1.33240625,1.10390625,-0.295375,-0.91559375,1.27259375,0.018959369838909668,0.030385087652185692,True
50261,141271,0,141272,4211.0,42190.0,30593.0,0.0017079999999999999,0.001464,-0.000488,0.35000000000000003,-0.14,-3.2900000000000005,1.14365625,0.165125,-0.1586875,1.33165625,1.10446875,-0.2964375,-0.91525,1.2721875,0.01899712663636387,0.030365438837659665,True
50262,141272,0,141273,4211.0,42185.0,30588.0,0.000244,0.00183,0.000488,0.42000000000000004,0.10500000000000001,-3.115,1.144125,0.16584375,-0.1599375,1.32596875,1.104125,-0.29590625,-0.90896875,1.27628125,0.019005259373685638,0.030070745100597554,True
50263,141273,0,141274,4212.0,42180.0,30581.0,-0.003294,0.000549,0.000183,0.24500000000000002,0.6125,-2.9225000000000003,1.144125,0.16884375000000001,-0.15834375,1.320875,1.11015625,-0.29853125,-0.9177500000000001,1.2798125,0.019234701685930094,0.030476517743375706,True
50264,141274,0,141275,4210.0,42174.0,30574.0,-0.005795,-0.001098,0.001586,0.15750000000000003,0.6125,-3.0450000000000004,1.14525,0.1684375,-0.16090625,1.32534375,1.11278125,-0.2998125,-0.91934375,1.2704375,0.01926969601102889,0.03043569315504145,True
50265,141275,0,141276,4210.0,42170.0,30566.0,-0.008418,-0.00183,0.002013,0.052500000000000005,0.4025,-3.1500000000000004,1.1376875,0.16890625,-0.15478125,1.3440625,1.11225,-0.29996875,-0.9185625000000001,1.27884375,0.019295292303616648,0.030651095945040972,True
50266,141276,0,141277,4211.0,42164.0,30559.0,-0.008296,-0.0013419999999999999,0.001769,0.052500000000000005,-0.0175,-3.1850000000000005,1.148625,0.15709375,-0.16468750000000001,1.3428125,1.10603125,-0.29484375,-0.91653125,1.2725312500000001,0.018602198254516457,0.030174495095500103,True
50267,141277,0,141278,4211.0,42164.0,30556.0,-0.000122,0.000732,-0.0011589999999999999,0.17500000000000002,-1.4700000000000002,-3.5525,1.1576250000000001,0.16065625,-0.1630625,1.3416875,1.10378125,-0.29625,-0.91553125,1.27221875,0.018805628440602976,0.03020079092232882,True
50268,141278,0,141279,4209.0,42160.0,30554.0,0.003294,-0.000244,-0.0013419999999999999,0.22750000000000004,-2.0300000000000002,-3.7275000000000005,1.15284375,0.16446875,-0.15690625,1.32528125,1.095,-0.2963125,-0.91540625,1.27534375,0.018965069287777723,0.030443011540299485,True
50269,141279,0,141280,4208.0,42162.0,30554.0,0.003965,0.000732,6.1e-05,0.17500000000000002,-2.555,-3.8325000000000005,1.1378125000000001,0.1681875,-0.15509375,1.327125,1.11253125,-0.298375,-0.91871875,1.27896875,0.019201386924022696,0.03064463336422544,True
50270,141280,0,141281,4211.0,42163.0,30554.0,0.0050019999999999995,-0.000122,-0.001098,0.24500000000000002,-2.7825,-3.7975000000000003,1.1368125,0.16784375,-0.154625,1.33078125,1.11153125,-0.29878125,-0.91859375,1.27840625,0.019203638042545858,0.03065858200766245,True
50271,141281,0,141282,4211.0,42164.0,30556.0,0.003965,-0.000732,6.1e-05,0.3325,-2.9050000000000002,-3.8150000000000004,1.1526875,0.1619375,-0.15453125,1.326125,1.10559375,-0.29809375,-0.91734375,1.27896875,0.018932812373398635,0.030613716600510436,True
50272,141282,0,141283,4211.0,42163.0,30554.0,0.0032329999999999998,0.000549,-0.000244,0.385,-2.765,-3.8850000000000002,1.1365625,0.16825,-0.15559375,1.33096875,1.1120625,-0.29712500000000003,-0.918875,1.27975,0.01915350067137573,0.030630646447722863,True
50273,141283,0,141284,4210.0,42163.0,30555.0,0.003538,0.000183,-0.000549,0.3325,-2.6775,-3.8500000000000005,1.13896875,0.1684375,-0.1545625,1.31775,1.10984375,-0.2988125,-0.91740625,1.2760625,0.01922933476687389,0.03061489395590683,True
50274,141284,0,141285,4210.0,42167.0,30559.0,0.002623,0.00061,-0.000488,0.28,-2.5025000000000004,-3.8675,1.1386875,0.16515625,-0.15812500000000002,1.3296875000000001,1.1036875,-0.295875,-0.9163125,1.26625,0.018975700607613433,0.03042936229026667,True
50275,141285,0,141286,4211.0,42166.0,30558.0,0.00183,0.000122,-0.000366,0.4025,-2.0650000000000004,-3.7975000000000003,1.143875,0.16946875,-0.1593125,1.3306875,1.105,-0.29615625,-0.91603125,1.27225,0.019164554063978743,0.030370757782702654,True
50276,141286,0,141287,4210.0,42166.0,30561.0,0.0028669999999999998,-0.000549,-0.001586,0.35000000000000003,-1.6625,-3.6575,1.1436875,0.165375,-0.15825,1.32425,1.1041875,-0.29525,-0.91653125,1.2730625,0.018959467385600066,0.03043285770365809,True
50277,141287,0,141288,4209.0,42166.0,30560.0,-0.000244,0.00042699999999999997,0.0006709999999999999,0.36750000000000005,-0.7350000000000001,-3.6925000000000003,1.1435625,0.167625,-0.160375,1.3245,1.10365625,-0.29634375,-0.913375,1.261875,0.01909623747400265,0.030224728684893162,True
50278,141288,0,141289,4210.0,42169.0,30561.0,-0.002745,0.000488,0.000305,0.3325,-0.385,-3.6400000000000006,1.1431875,0.16509375,-0.15884375,1.33109375,1.10440625,-0.29715625,-0.9161875,1.27234375,0.019024860162390404,0.03039565142139021,True
50279,141289,0,141290,4211.0,42167.0,30562.0,-0.004697,-0.000244,0.0,0.42000000000000004,-0.0175,-3.4825000000000004,1.1443125,0.16543750000000002,-0.158,1.32475,1.09271875,-0.28821875,-0.91534375,1.27184375,0.018678037062722027,0.030396680760224306,True
50280,141290,0,141291,4211.0,42166.0,30561.0,-0.005429,0.0,0.000244,0.4025,0.08750000000000001,-3.4650000000000003,1.1430625,0.16590625,-0.1580625,1.3285,1.10365625,-0.29640625,-0.91540625,1.272875,0.019028019833180063,0.030396604510512445,True
50281,141291,0,141292,4211.0,42165.0,30559.0,-0.0050019999999999995,-0.000549,0.00122,0.36750000000000005,0.17500000000000002,-3.535,1.1438125000000001,0.16540625,-0.154875,1.3316875000000001,1.1050625,-0.29203125,-0.910875,1.26875,0.01883076368922422,0.0303481913019916,True
50282,141292,0,141293,4210.0,42164.0,30562.0,-0.002196,-0.001037,0.000183,0.15750000000000003,-0.49000000000000005,-3.535,1.1440625,0.16618750000000002,-0.15875,1.3314062500000001,1.104,-0.29565625,-0.9158125,1.272125,0.019009313650459637,0.030384820884327972,True
50283,141293,0,141294,4212.0,42161.0,30563.0,-0.000915,-0.000915,-0.000366,0.21000000000000002,-0.7350000000000001,-3.6225000000000005,1.143875,0.16528125,-0.1585625,1.33090625,1.10209375,-0.2959375,-0.916,1.2723125,0.018983369133214145,0.030399642799807353,True
50284,141294,0,141295,4213.0,42160.0,30561.0,0.00122,0.000305,-0.0006709999999999999,0.31500000000000006,-1.0325000000000002,-3.6050000000000004,1.14340625,0.16625,-0.1579375,1.33065625,1.10371875,-0.29509375,-0.91490625,1.27584375,0.018989173482814817,0.030382163288292522,True
50285,141295,0,141296,4214.0,42161.0,30562.0,0.0023179999999999997,0.000244,0.000183,0.3325,-1.3825,-3.7275000000000005,1.1436250000000001,0.16596875,-0.154625,1.33084375,1.1047500000000001,-0.3003125,-0.91840625,1.26753125,0.019188282043697998,0.03065128814167238,True
50286,141296,0,141297,4214.0,42164.0,30563.0,0.0026839999999999998,0.00061,-0.000122,0.385,-1.4000000000000001,-3.6575,1.14353125,0.166125,-0.16175,1.34009375,1.11059375,-0.2995625,-0.9176562500000001,1.276875,0.019164439688986172,0.03033616975914418,True
50287,141297,0,141298,4215.0,42162.0,30563.0,0.002989,-0.000305,0.00061,0.31500000000000006,-1.3650000000000002,-3.7275000000000005,1.1519375,0.1626875,-0.160625,1.337375,1.09746875,-0.30003125,-0.91990625,1.27596875,0.019041899380273432,0.03046886462504248,True
50288,141298,0,141299,4216.0,42160.0,30564.0,0.001952,-0.000732,-0.0011589999999999999,0.21000000000000002,-1.155,-3.6575,1.1466875,0.16496875,-0.1589375,1.330875,1.10559375,-0.29703125,-0.915,1.2670000000000001,0.019014668715956813,0.030345675296006427,True
50289,141299,0,141300,4217.0,42161.0,30563.0,0.000488,-0.001586,-0.00122,0.21000000000000002,-0.9625000000000001,-3.6750000000000003,1.14421875,0.165,-0.1583125,1.3314062500000001,1.10384375,-0.29609375,-0.91571875,1.27234375,0.01897810218978102,0.030398731724325636,True
50290,141300,0,141301,4217.0,42159.0,30564.0,-0.001403,-0.0011589999999999999,0.000122,0.15750000000000003,-0.77,-3.6050000000000004,1.14346875,0.16584375,-0.15928125,1.33115625,1.10415625,-0.29625,-0.90740625,1.27203125,0.019019138755980863,0.030036246748896222,True
50291,141301,0,141302,4218.0,42158.0,30564.0,-0.0026839999999999998,-0.0008539999999999999,0.00042699999999999997,0.24500000000000002,-0.77,-3.5875000000000004,1.14403125,0.16521875,-0.15784375,1.32675,1.1046562500000001,-0.2960625,-0.916125,1.27121875,0.01898584389960307,0.030433353902342357,True
50292,141302,0,141303,4219.0,42159.0,30562.0,-0.0021349999999999997,0.0026839999999999998,0.002196,0.5775,-0.7525000000000001,-3.6750000000000003,1.1440000000000001,0.17028125,-0.15853125,1.3316875000000001,1.10196875,-0.297,-0.91571875,1.2727187500000001,0.019232055397785733,0.03038995212610513,True
50293,141303,0,141304,4219.0,42159.0,30564.0,-0.001586,0.005124,0.0011589999999999999,0.7350000000000001,-0.9800000000000001,-3.7625,1.14421875,0.16565625,-0.15737500000000001,1.33196875,1.10425,-0.2965625,-0.9153125,1.27715625,0.019024038894390926,0.030420549611810004,True
50294,141304,0,141305,4219.0,42159.0,30563.0,-0.000488,0.005795,-0.000976,0.805,-0.9625000000000001,-3.8500000000000005,1.1459062500000001,0.16471875,-0.15896875,1.3345,1.11171875,-0.29940625,-0.9176562500000001,1.27740625,0.019100260937445747,0.030447787399747923,True
50295,141305,0,141306,4219.0,42159.0,30562.0,0.0006709999999999999,0.0035989999999999998,0.0,0.665,-0.8925000000000001,-3.6400000000000006,1.14634375,0.16415625,-0.15837500000000002,1.33453125,1.1045625000000001,-0.3016875,-0.9204687500000001,1.2829375,0.019169193497365154,0.03058103592052216,True
50296,141306,0,141307,4222.0,42158.0,30564.0,-0.000183,-6.1e-05,0.000915,0.385,-0.7525000000000001,-3.6050000000000004,1.14865625,0.1640625,-0.16084375,1.339,1.1113125,-0.30090625,-0.91840625,1.28340625,0.019133802880293815,0.030401723625482664,True
50297,141307,0,141308,4221.0,42157.0,30567.0,-0.00061,-0.0070149999999999995,-0.0025009999999999998,-0.43750000000000006,-0.6125,-3.5700000000000003,1.14446875,0.1660625,-0.15853125,1.33184375,1.1139375,-0.29903125,-0.9199375000000001,1.27015625,0.019140423550836005,0.030554099503660476,True
50298,141308,0,141309,4222.0,42154.0,30565.0,-6.1e-05,-0.008479,-0.00061,-0.5775,-0.56,-3.43,1.1436875,0.16559375,-0.16046875,1.3325,1.10203125,-0.29603125,-0.912375,1.2698125,0.019000016720837898,0.03018203804334191,True
50299,141309,0,141310,4223.0,42152.0,30565.0,-0.000793,-0.0073809999999999995,0.0008539999999999999,-0.5075000000000001,-0.9100000000000001,-3.535,1.14353125,0.1596875,-0.16859375000000001,1.3550312500000001,1.10115625,-0.2951875,-0.9150312500000001,1.26815625,0.01872284377307234,0.029959324253305927,True
50300,141310,0,141311,4226.0,42151.0,30563.0,0.000732,-0.0034159999999999998,0.000915,-0.15750000000000003,-1.3125000000000002,-3.7625,1.1681875,0.15975,-0.163125,1.3474062500000001,1.1018125,-0.2955625,-0.91553125,1.27415625,0.018740562191140873,0.030198282446817184,True
50301,141311,0,141312,4225.0,42151.0,30563.0,0.000183,0.0015249999999999999,0.000488,0.42000000000000004,-1.6800000000000002,-3.8325000000000005,1.1556875,0.16815625,-0.15246875000000001,1.32096875,1.1059375,-0.30275,-0.9206562500000001,1.2735,0.01937666519221076,0.030825331897108448,True
50302,141312,0,141313,4227.0,42150.0,30565.0,0.002623,0.009028,0.000122,0.9800000000000001,-2.1175,-3.9200000000000004,1.13025,0.16609375,-0.1619375,1.35221875,1.1089375000000001,-0.29581250000000003,-0.91415625,1.2635,0.019011763858483847,0.03019242323327726,True
50303,141313,0,141314,4227.0,42150.0,30567.0,0.004148,0.006771,0.001281,0.8400000000000001,-2.1175,-3.8150000000000004,1.16675,0.15746875,-0.16775,1.3511875,1.1016875,-0.2968125,-0.915875,1.27234375,0.018697154204898273,0.03002603761657979,True
50304,141314,0,141315,4229.0,42149.0,30568.0,0.002806,0.002257,-0.000122,0.45500000000000007,-1.715,-3.7625,1.16465625,0.155,-0.15987500000000002,1.33821875,1.10784375,-0.29712500000000003,-0.9211875,1.2818125,0.018608168661930165,0.0305488051081033,True
50305,141315,0,141316,4228.0,42149.0,30568.0,0.000183,-0.00061,0.0,0.14,-1.155,-3.6925000000000003,1.14196875,0.1686875,-0.15937500000000002,1.34171875,1.1145625000000001,-0.2965625,-0.9140625,1.2805625,0.01914879934147063,0.030291627469426152,True
50306,141316,0,141317,4230.0,42148.0,30564.0,-0.003538,-0.002928,0.0023179999999999997,-0.052500000000000005,-0.6825000000000001,-3.7100000000000004,1.15040625,0.1608125,-0.1575,1.33390625,1.1024375,-0.297375,-0.917375,1.27678125,0.018857489749407087,0.03049578858126107,True
50307,141317,0,141318,4229.0,42144.0,30566.0,-0.0075639999999999995,-0.0034159999999999998,-0.000183,0.08750000000000001,-0.665,-3.6225000000000005,1.13215625,0.170125,-0.1504375,1.3206875,1.10959375,-0.29928125,-0.9173125,1.27903125,0.01931770101224702,0.030776794246971856,True
50308,141318,0,141319,4231.0,42143.0,30564.0,-0.005124,-0.000366,0.000549,0.21000000000000002,-0.9450000000000001,-3.6400000000000006,1.13065625,0.16828125,-0.1528125,1.32078125,1.10696875,-0.29603125,-0.9165,1.2718125,0.019110631494598528,0.030649870567696105,True
50309,141319,0,141320,4231.0,42141.0,30564.0,-0.002745,-0.000549,-0.000976,0.24500000000000002,-1.4875,-3.7625,1.1306875,0.1689375,-0.15403125,1.3237812500000001,1.0936875,-0.2960625,-0.91559375,1.2730937500000001,0.019138903680380306,0.030565697435968184,True
50310,141320,0,141321,4234.0,42141.0,30563.0,0.0011589999999999999,-0.0006709999999999999,-0.00122,0.2625,-2.2750000000000004,-3.7625,1.137375,0.16693750000000002,-0.156125,1.3325625,1.1036875,-0.29603125,-0.9130312500000001,1.2729375,0.01905532410771821,0.03038194117787253,True
50311,141321,0,141322,4235.0,42143.0,30565.0,0.005612,-0.00042699999999999997,-0.000976,0.2625,-2.8875,-3.9200000000000004,1.14121875,0.162875,-0.15771875,1.333875,1.10290625,-0.29965625,-0.91790625,1.278,0.019034477082366132,0.030507679592863064,True
50312,141322,0,141323,4236.0,42144.0,30569.0,0.007503,0.000366,-0.0032329999999999998,0.3325,-3.3425000000000002,-3.9200000000000004,1.1430625,0.16540625,-0.1580625,1.3318125,1.1045625000000001,-0.295375,-0.9156562500000001,1.2725312500000001,0.018965801104119613,0.030406333367197586,True
50313,141323,0,141324,4236.0,42144.0,30573.0,0.0068319999999999995,0.0013419999999999999,-0.002196,0.3325,-3.1325000000000003,-3.9725000000000006,1.14353125,0.16371875,-0.15865625,1.3371875,1.1043125,-0.29703125,-0.916,1.27371875,0.018963222101465584,0.030395880157328622,True
50314,141324,0,141325,4238.0,42148.0,30575.0,0.0048189999999999995,0.000732,0.000915,0.31500000000000006,-2.5900000000000003,-4.0075,1.14821875,0.1628125,-0.1605625,1.3359375,1.10734375,-0.2981875,-0.91771875,1.27790625,0.01897260855362154,0.030386258774190555,True
50315,141325,0,141326,4239.0,42148.0,30574.0,-0.000488,0.0008539999999999999,0.002196,0.45500000000000007,-2.0300000000000002,-3.9725000000000006,1.1518125000000001,0.16253125000000002,-0.15871875,1.33696875,1.112,-0.29875,-0.91825,1.27840625,0.018983744019754105,0.03048092261695745,True
50316,141326,0,141327,4239.0,42145.0,30573.0,-0.0044529999999999995,0.001281,0.0025009999999999998,0.43750000000000006,-1.4525000000000001,-3.7800000000000002,1.1485625,0.163,-0.1606875,1.333625,1.1125625000000001,-0.29971875000000003,-0.918125,1.267625,0.019042144263500996,0.030397050339863053,True
50317,141327,0,141328,4240.0,42144.0,30572.0,-0.009394,0.000915,0.001037,0.5075000000000001,-1.1900000000000002,-3.8500000000000005,1.147125,0.164,-0.1600625,1.33734375,1.10815625,-0.29759375,-0.9191875,1.27815625,0.018997508755368007,0.0304634731770448,True
50318,141328,0,141329,4242.0,42142.0,30570.0,-0.008052,-6.1e-05,0.0011589999999999999,0.42000000000000004,-1.5575,-3.7275000000000005,1.14840625,0.163625,-0.15953125,1.33796875,1.10871875,-0.2985625,-0.91690625,1.2800625,0.019021186952931885,0.030396028800726414,True
50319,141329,0,141330,4242.0,42140.0,30571.0,-0.003843,-0.0018909999999999999,0.00042699999999999997,0.21000000000000002,-2.1,-3.8325000000000005,1.148875,0.16509375,-0.15578125,1.3319375,1.1146875,-0.29284375,-0.9121875,1.2713125,0.018850716067360374,0.03036289968514407,True
50320,141330,0,141331,4245.0,42140.0,30574.0,0.0023179999999999997,-0.0021349999999999997,-0.000244,0.08750000000000001,-2.8175000000000003,-3.9725000000000006,1.14340625,0.16575,-0.1579375,1.3315625,1.10421875,-0.295375,-0.91525,1.272,0.018979949887581483,0.03039554088359539,True
50321,141331,0,141332,4245.0,42145.0,30578.0,0.0070149999999999995,-0.001647,-0.00244,0.035,-3.4475000000000002,-4.0425,1.1434375,0.16768750000000002,-0.1583125,1.3214375,1.1043125,-0.2969375,-0.9156562500000001,1.27125,0.0191227803915617,0.030396299515490388,True
50322,141332,0,141333,4247.0,42148.0,30580.0,0.009455,0.000366,-0.000793,0.31500000000000006,-3.6925000000000003,-4.0075,1.14321875,0.16534375,-0.15937500000000002,1.3373125000000001,1.10440625,-0.29634375,-0.91671875,1.27875,0.01900234474580152,0.030395003354926096,True
50323,141333,0,141334,4247.0,42151.0,30585.0,0.006161,0.000122,-0.00122,0.2625,-3.4125000000000005,-3.9200000000000004,1.1295625,0.17346875,-0.1574375,1.3311875,1.10209375,-0.29671875000000003,-0.9149375000000001,1.272125,0.019351892938218252,0.030403447730904403,True
50324,141334,0,141335,4249.0,42156.0,30587.0,0.0018909999999999999,0.0006709999999999999,-0.00061,0.3325,-2.9925,-3.8850000000000002,1.13259375,0.16565625,-0.1579375,1.32890625,1.10090625,-0.296875,-0.915125,1.27215625,0.019036655948553055,0.03039067634619533,True
50325,141335,0,141336,4251.0,42155.0,30588.0,-0.0006709999999999999,0.0015249999999999999,-0.000488,0.385,-2.415,-3.7450000000000006,1.1438125000000001,0.166125,-0.15725,1.33240625,1.10396875,-0.2960625,-0.91571875,1.27246875,0.01902314418231349,0.030441375487110924,True
50326,141336,0,141337,4251.0,42151.0,30587.0,-0.004575,0.001037,0.001281,0.47250000000000003,-1.9425000000000001,-3.6925000000000003,1.1378125000000001,0.16628125,-0.1571875,1.3315937500000001,1.10446875,-0.29609375,-0.90971875,1.2719375,0.019030837004405284,0.03021034711602274,True
50327,141337,0,141338,4253.0,42150.0,30587.0,-0.0030499999999999998,0.000915,0.001769,0.43750000000000006,-1.5050000000000001,-3.6925000000000003,1.1489375,0.16334375,-0.160625,1.33909375,1.1076875,-0.29590625,-0.9178125,1.2761875,0.018902361380325132,0.030387398572808106,True
50328,141338,0,141339,4252.0,42145.0,30584.0,-0.002562,-0.000976,0.0032329999999999998,0.35000000000000003,-1.5050000000000001,-3.5175000000000005,1.14975,0.16196875,-0.16096875,1.3350312500000001,1.1093125,-0.2964375,-0.91753125,1.2744375000000001,0.0188672207602452,0.030362658820785066,True
50329,141339,0,141340,4253.0,42143.0,30579.0,-0.002562,-0.001098,0.0013419999999999999,0.24500000000000002,-1.6450000000000002,-3.5525,1.14834375,0.16603125,-0.15821875,1.33053125,1.1064375,-0.29675,-0.91559375,1.2710625,0.019047043328840278,0.0303976299982817,True
50330,141340,0,141341,4254.0,42138.0,30573.0,-0.0018909999999999999,-0.001098,0.000793,0.29750000000000004,-1.9425000000000001,-3.5525,1.1439062500000001,0.16946875,-0.152125,1.3316875000000001,1.1046875,-0.29625,-0.91603125,1.2710000000000001,0.019168338735401552,0.0306592266776034,True
50331,141341,0,141342,4253.0,42137.0,30570.0,-0.000732,-0.001037,6.1e-05,0.24500000000000002,-2.8000000000000003,-3.7450000000000006,1.14375,0.16484375,-0.158,1.32375,1.10590625,-0.29540625,-0.91325,1.2674375,0.018943910435743384,0.030315193722216086,True
50332,141342,0,141343,4253.0,42132.0,30564.0,0.00244,-0.000732,-0.002074,0.15750000000000003,-3.1325000000000003,-3.6925000000000003,1.14325,0.16628125,-0.15771875,1.33103125,1.0969375000000001,-0.29578125,-0.913125,1.26590625,0.019018219469686737,0.030321617621233785,True
50333,141343,0,141344,4251.0,42132.0,30559.0,0.004209,-0.000122,-0.002074,0.21000000000000002,-3.3775000000000004,-3.7450000000000006,1.14325,0.1655625,-0.15415625,1.3317812500000001,1.097875,-0.29528125,-0.9104375,1.2660625,0.018968446804870802,0.030360014752852094,True
50334,141344,0,141345,4250.0,42132.0,30559.0,0.004758,6.1e-05,-0.001403,0.29750000000000004,-3.6050000000000004,-3.7275000000000005,1.142625,0.16540625,-0.1575625,1.3317812500000001,1.0971875,-0.29403125,-0.91225,1.2661875,0.018911538199326224,0.03029383134803159,True
50335,141345,0,141346,4251.0,42135.0,30557.0,0.0055509999999999995,0.000915,-0.00183,0.35000000000000003,-3.3950000000000005,-3.7450000000000006,1.14309375,0.16225,-0.15903125,1.32565625,1.09775,-0.29531250000000003,-0.91134375,1.2890625,0.018833365489742106,0.03019959531488541,True
50336,141346,0,141347,4250.0,42135.0,30557.0,0.002257,0.001281,-0.000305,0.385,-2.7475,-3.7450000000000006,1.14890625,0.1620625,-0.1571875,1.3389375000000001,1.12059375,-0.3023125,-0.920875,1.28803125,0.019108263874065484,0.03064448981024944,True
50337,141347,0,141348,4246.0,42136.0,30556.0,-0.000793,0.001037,0.000183,0.385,-2.205,-3.7975000000000003,1.15034375,0.162625,-0.15859375,1.3391875,1.1243750000000001,-0.29446875,-0.9219375,1.2886250000000001,0.018814725059587895,0.03062939027112158,True
50338,141348,0,141349,4244.0,42135.0,30552.0,-0.001647,0.001281,0.000915,0.28,-1.8375000000000001,-3.7100000000000004,1.1515625,0.16225,-0.1580625,1.33615625,1.12128125,-0.299,-0.91790625,1.27375,0.018982262644553275,0.030493884292545646,True
50339,141349,0,141350,4243.0,42136.0,30551.0,-0.002928,0.000244,0.0017079999999999999,0.21000000000000002,-1.6625,-3.7625,1.1480625,0.16253125000000002,-0.1605625,1.3378125,1.0985625,-0.29221875,-0.91834375,1.2835625,0.018719986209575858,0.030410578552196116,True
50340,141350,0,141351,4244.0,42133.0,30548.0,-0.004697,-0.000122,0.0011589999999999999,0.1925,-1.5225000000000002,-3.8150000000000004,1.1501875,0.16228125000000002,-0.161,1.33840625,1.1185,-0.29815625,-0.91790625,1.2845312500000001,0.01894948304976844,0.03037599718074226,True
50341,141351,0,141352,4243.0,42131.0,30547.0,-0.001952,-0.000976,0.000976,0.28,-1.5575,-3.7625,1.14684375,0.16553125,-0.1573125,1.33146875,1.11771875,-0.29740625,-0.9128437500000001,1.267875,0.01905295961374478,0.030326977425048078,True
50342,141352,0,141353,4241.0,42129.0,30546.0,0.000244,-0.000244,0.000549,0.3325,-1.6800000000000002,-3.7450000000000006,1.14365625,0.1684375,-0.1599375,1.338,1.09965625,-0.29796875,-0.91740625,1.2710937500000001,0.0191952773830117,0.03039918129520403,True
50343,141353,0,141354,4237.0,42128.0,30545.0,0.001281,0.000549,-0.000549,0.4025,-1.8550000000000002,-3.7100000000000004,1.149,0.16575,-0.14990625,1.3316875000000001,1.10128125,-0.29653125,-0.9157500000000001,1.27190625,0.019026635746615065,0.030737334818337802,True
50344,141354,0,141355,4238.0,42128.0,30545.0,0.0017079999999999999,-0.0008539999999999999,-6.1e-05,0.56,-1.9775000000000003,-3.7275000000000005,1.14365625,0.1655,-0.15775,1.332,1.1043125,-0.29581250000000003,-0.91578125,1.27278125,0.01898732549076101,0.03042373997403754,True
50345,141355,0,141356,4238.0,42129.0,30544.0,0.001403,-0.00122,-0.000915,0.5950000000000001,-2.0125,-3.8325000000000005,1.14471875,0.16578125,-0.15712500000000001,1.33228125,1.10428125,-0.294875,-0.91534375,1.2720625,0.01896104631120761,0.030431799681672058,True
50346,141356,0,141357,4236.0,42131.0,30545.0,0.00366,-0.0018909999999999999,-0.000793,0.4025,-1.995,-3.8325000000000005,1.14421875,0.16618750000000002,-0.1573125,1.33234375,1.10496875,-0.295875,-0.91446875,1.27203125,0.019018146084469074,0.03039022254889541,True
50347,141357,0,141358,4236.0,42130.0,30546.0,0.0026839999999999998,6.1e-05,-0.000122,0.5075000000000001,-1.8900000000000001,-3.8500000000000005,1.144125,0.166,-0.15746875,1.33134375,1.09725,-0.29690625,-0.91534375,1.27115625,0.019052065527889996,0.030418002962531873,True
50348,141358,0,141359,4236.0,42131.0,30548.0,0.00122,0.001281,-0.0006709999999999999,0.6825000000000001,-1.5575,-3.7800000000000002,1.13265625,0.16565625,-0.15525,1.33234375,1.10453125,-0.296875,-0.91590625,1.27221875,0.019036655948553055,0.030528941727736677,True
50349,141359,0,141360,4235.0,42130.0,30549.0,0.000183,0.002623,-0.00042699999999999997,0.6475000000000001,-1.225,-3.8150000000000004,1.14303125,0.16593750000000002,-0.157,1.33078125,1.10184375,-0.29584375,-0.914625,1.27115625,0.019006594492113494,0.030408846209806488,True
50350,141360,0,141361,4234.0,42127.0,30547.0,-0.001098,0.0018909999999999999,0.004209,0.5950000000000001,-0.8925000000000001,-3.8150000000000004,1.1430625,0.1663125,-0.15878125,1.33184375,1.104625,-0.29603125,-0.9114375,1.2715625,0.019029599741727368,0.030213280546335392,True
50351,141361,0,141362,4236.0,42129.0,30547.0,0.000366,0.00061,-0.004209,0.24500000000000002,-0.385,-3.7975000000000003,1.1464375,0.16309375,-0.1620625,1.3433125000000001,1.10446875,-0.29790625,-0.9174375,1.28009375,0.018972828162920414,0.030315115669498523,True
50352,141362,0,141363,4235.0,42127.0,30543.0,0.0011589999999999999,0.000122,-0.001769,0.24500000000000002,-0.07,-3.7800000000000002,1.15475,0.16021875,-0.163,1.3393125000000001,1.10709375,-0.29871875000000003,-0.9159375000000001,1.27403125,0.018887312731252548,0.030219111763304114,True
50353,141363,0,141364,4236.0,42123.0,30543.0,0.0013419999999999999,-0.0013419999999999999,0.005246,0.052500000000000005,0.5075000000000001,-3.7625,1.15040625,0.16365625,-0.15784375,1.332125,1.103375,-0.29653125,-0.91559375,1.2636875,0.018940460893980493,0.030412680813596903,True
50354,141364,0,141365,4234.0,42121.0,30542.0,-0.00042699999999999997,-0.002989,0.00061,0.0175,0.8225000000000001,-3.7975000000000003,1.14509375,0.16571875,-0.15884375,1.33215625,1.10425,-0.2955,-0.9105625,1.2724375,0.01898371097528349,0.030176707169900317,True
50355,141365,0,141366,4233.0,42116.0,30540.0,-0.002196,-0.0023179999999999997,-0.000549,0.035,1.1025,-3.6925000000000003,1.14071875,0.166125,-0.15721875,1.32846875,1.10415625,-0.29584375,-0.91421875,1.2645625,0.019014311861468076,0.03038425597832563,True
50356,141366,0,141367,4233.0,42114.0,30535.0,-0.002989,0.000366,0.001586,0.17500000000000002,1.54,-3.6225000000000005,1.1417187500000001,0.1695625,-0.1564375,1.33,1.10509375,-0.29575,-0.91428125,1.2725625,0.019152012183200767,0.0304180458747932,True
50357,141367,0,141368,4233.0,42109.0,30533.0,-0.0026839999999999998,0.0008539999999999999,0.003538,0.4025,1.6275000000000002,-3.5700000000000003,1.140625,0.16865625,-0.1569375,1.32934375,1.10446875,-0.29359375,-0.91490625,1.2725312500000001,0.019027650036339314,0.030422299903295844,True
50358,141368,0,141369,4232.0,42106.0,30531.0,-0.0042699999999999995,0.002074,0.003721,0.525,1.61,-3.5525,1.14046875,0.16718750000000002,-0.15615625,1.3291250000000001,1.10340625,-0.29615625,-0.9155,1.2719375,0.01907066061118207,0.03047676145371355,True
50359,141369,0,141370,4231.0,42100.0,30526.0,-0.007625,0.0023179999999999997,0.002074,0.5775,1.2600000000000002,-3.5175000000000005,1.14134375,0.16518750000000001,-0.1618125,1.339875,1.1041875,-0.29634375,-0.9155625000000001,1.2720625,0.01899591373702062,0.030252176726895088,True
50360,141370,0,141371,4232.0,42098.0,30526.0,-0.008296,0.0018909999999999999,-0.00042699999999999997,0.5075000000000001,0.6125,-3.6225000000000005,1.1571875,0.162,-0.15984375,1.340875,1.104375,-0.29578125,-0.91496875,1.27496875,0.01884200574945496,0.030308085375383022,True
50361,141371,0,141372,4230.0,42097.0,30523.0,-0.001281,-0.000793,-0.001464,0.3325,-0.7350000000000001,-3.5000000000000004,1.15475,0.16346875,-0.15903125,1.3374375,1.10678125,-0.2961875,-0.91509375,1.2750937500000001,0.018918863299025826,0.03034556111192638,True
50362,141372,0,141373,4229.0,42097.0,30523.0,0.004331,-0.000366,-0.0017079999999999999,0.1925,-1.2950000000000002,-3.6400000000000006,1.14878125,0.161375,-0.15887500000000002,1.33009375,1.10803125,-0.29584375,-0.91540625,1.2726875,0.018818805171151958,0.030363994165256685,True
50363,141373,0,141374,4230.0,42097.0,30523.0,0.008967,-0.001647,-0.00183,0.052500000000000005,-1.4875,-3.7800000000000002,1.1416250000000001,0.166625,-0.15646875,1.33221875,1.10509375,-0.29484375,-0.914375,1.2730000000000001,0.018994514010817625,0.03042044000702406,True
50364,141374,0,141375,4230.0,42101.0,30528.0,0.009882,-0.001647,-0.002928,-0.0175,-1.435,-3.9200000000000004,1.1445625,0.16628125,-0.15912500000000002,1.33846875,1.1054375,-0.29546875,-0.91534375,1.2770625,0.019005601610382592,0.030351527861220053,True
50365,141375,0,141376,4231.0,42102.0,30532.0,0.007625,-0.0023179999999999997,-0.004331,-0.07,-1.1375000000000002,-3.8150000000000004,1.1495625,0.17009375000000002,-0.15984375,1.33734375,1.1124375,-0.298375,-0.9171875,1.2784375000000001,0.0192798386723392,0.03039443155452436,True
50366,141376,0,141377,4230.0,42104.0,30534.0,-0.001952,-0.000244,0.003721,0.2625,-0.35000000000000003,-3.6400000000000006,1.15096875,0.16453125,-0.16115625,1.33675,1.114,-0.30184375,-0.9237500000000001,1.29546875,0.019190930729278514,0.030597071066753603,True
50367,141377,0,141378,4231.0,42102.0,30534.0,-0.00488,0.000549,0.00244,0.4025,-0.22750000000000004,-3.6750000000000003,1.150625,0.165375,-0.15890625,1.33728125,1.13709375,-0.30593750000000003,-0.91921875,1.29459375,0.019390838143972026,0.03051108895618969,True
50368,141378,0,141379,4231.0,42101.0,30533.0,-0.006222,0.0015249999999999999,-0.00061,0.6125,-0.24500000000000002,-3.6925000000000003,1.13459375,0.1660625,-0.15728125,1.33196875,1.13265625,-0.3018125,-0.9223125,1.28975,0.019252679198310824,0.03069663980820399,True
50369,141379,0,141380,4230.0,42103.0,30531.0,-0.0057339999999999995,0.0042699999999999995,0.000183,0.6825000000000001,-0.4025,-3.6925000000000003,1.1439375,0.165625,-0.15334375,1.33175,1.09165625,-0.29909375,-0.91240625,1.2694375,0.019124941645200243,0.03046925665801552,True
50370,141380,0,141381,4231.0,42103.0,30535.0,-0.0034159999999999998,0.0023179999999999997,0.001464,0.49000000000000005,-0.6125,-3.7275000000000005,1.1437187500000001,0.16753125,-0.15725,1.3355937500000001,1.09090625,-0.29228125,-0.9086875,1.25646875,0.01892833757636492,0.030167687478515278,True
50371,141381,0,141382,4231.0,42104.0,30535.0,-0.0013419999999999999,-6.1e-05,-0.000549,0.36750000000000005,-1.1025,-3.7275000000000005,1.15028125,0.16421875,-0.15921875,1.33890625,1.09428125,-0.28515625,-0.9067500000000001,1.28128125,0.018504101656747627,0.030013199233139616,True
50372,141382,0,141383,4230.0,42102.0,30535.0,0.000732,-0.0011589999999999999,-0.002074,0.28,-1.2425000000000002,-3.8325000000000005,1.15078125,0.168125,-0.15937500000000002,1.3374062500000001,1.11921875,-0.29825,-0.9196562500000001,1.291625,0.019193769098597636,0.03050929926049843,True
50373,141383,0,141384,4230.0,42106.0,30540.0,0.002989,-0.000976,-0.000915,0.17500000000000002,-1.225,-3.8675,1.1454375,0.165125,-0.16125,1.33853125,1.11634375,-0.30362500000000003,-0.9274375,1.295625,0.019287246244130248,0.030736713310383388,True
50374,141384,0,141385,4230.0,42108.0,30541.0,0.003477,-0.002013,-0.001098,0.08750000000000001,-1.2775,-3.9025000000000003,1.1518125000000001,0.16525,-0.16075,1.33821875,1.126125,-0.304875,-0.918,1.28428125,0.01934282731345049,0.03038967814431335,True
50375,141385,0,141386,4233.0,42112.0,30543.0,0.002623,-0.002257,-0.0011589999999999999,0.10500000000000001,-1.3650000000000002,-3.8150000000000004,1.15146875,0.162625,-0.1596875,1.3375625,1.12184375,-0.30421875,-0.919625,1.28209375,0.019208342173105235,0.030495543171295717,True
50376,141386,0,141387,4233.0,42109.0,30543.0,0.002379,-0.001037,0.000488,0.28,-1.4000000000000001,-3.8500000000000005,1.15246875,0.16503125,-0.15990625,1.3372187500000001,1.11415625,-0.29684375,-0.9127500000000001,1.277625,0.019009670751988107,0.030219215060561362,True
50377,141387,0,141388,4233.0,42112.0,30544.0,0.00244,0.000305,0.00122,0.35000000000000003,-1.2425000000000002,-3.9375000000000004,1.15003125,0.1634375,-0.1595625,1.333625,1.106875,-0.29434375,-0.907625,1.2745312500000001,0.0188431206337895,0.030033473685267067,True
50378,141388,0,141389,4234.0,42108.0,30547.0,0.0017079999999999999,0.000488,0.000244,0.385,-1.1725,-3.9550000000000005,1.15059375,0.16371875,-0.15903125,1.33240625,1.0971250000000001,-0.2959375,-0.9136562500000001,1.27634375,0.018919057970082444,0.03028961275003544,True
50379,141389,0,141390,4234.0,42107.0,30544.0,0.001647,0.0006709999999999999,0.000305,0.36750000000000005,-1.0150000000000001,-3.9375000000000004,1.139125,0.16390625,-0.155625,1.3320625,1.10378125,-0.29559375,-0.914875,1.27246875,0.018912894442022026,0.030473763163571962,True
50380,141390,0,141391,4235.0,42109.0,30547.0,0.000976,0.0021349999999999997,0.0006709999999999999,0.31500000000000006,-0.49000000000000005,-3.9025000000000003,1.143875,0.166,-0.1566875,1.332,1.10375,-0.2949375,-0.9136562500000001,1.2724375,0.018972574018764198,0.03038368766126008,True
50381,141391,0,141392,4235.0,42108.0,30548.0,-0.004697,0.000366,-0.000732,0.31500000000000006,0.17500000000000002,-3.8850000000000002,1.143375,0.1668125,-0.1563125,1.33565625,1.10396875,-0.29603125,-0.91596875,1.27959375,0.019050179234520043,0.03048873024453444,True
50382,141392,0,141393,4234.0,42105.0,30547.0,-0.0064659999999999995,-0.0006709999999999999,0.000122,0.31500000000000006,0.3325,-3.6750000000000003,1.14946875,0.164375,-0.158,1.3319375,1.1116875,-0.2990625,-0.917,1.27265625,0.019072237869259358,0.030461130954769836,True
50383,141393,0,141394,4235.0,42107.0,30546.0,-0.0071979999999999995,0.000366,0.003294,0.385,0.24500000000000002,-3.6400000000000006,1.14365625,0.16675,-0.1574375,1.33225,1.104875,-0.29496875,-0.9141875,1.2728125000000001,0.019004706478579027,0.030374259646235705,True
50384,141394,0,141395,4236.0,42105.0,30547.0,-0.006344,0.000305,0.0025009999999999998,0.36750000000000005,0.035,-3.6400000000000006,1.14421875,0.16668750000000002,-0.15703125,1.33678125,1.1093125,-0.298375,-0.91753125,1.2735625,0.019139654400757253,0.030520680093458295,True
50385,141395,0,141396,4235.0,42101.0,30544.0,-0.0050019999999999995,-0.000793,0.000915,0.45500000000000007,-0.385,-3.6750000000000003,1.14425,0.16571875,-0.15725,1.33171875,1.10403125,-0.2954375,-0.914375,1.27265625,0.018981187311403636,0.03038908260793217,True
50386,141396,0,141397,4238.0,42103.0,30548.0,0.00183,0.001281,-0.002379,0.36750000000000005,-1.5925000000000002,-3.8675,1.14421875,0.16646875,-0.16203125000000002,1.33271875,1.108875,-0.297875,-0.91925,1.2723125,0.01911046747915198,0.030386899685985735,True
50387,141397,0,141398,4238.0,42103.0,30550.0,0.002379,-0.00061,-0.000976,0.24500000000000002,-2.1525000000000003,-3.9025000000000003,1.1441875,0.1685625,-0.15665625,1.3471875,1.10496875,-0.295375,-0.915375,1.2809375,0.019095712661360443,0.03045182944266342,True
50388,141398,0,141399,4239.0,42106.0,30553.0,0.0051849999999999995,-0.0015249999999999999,-0.000488,0.035,-2.6775,-3.9725000000000006,1.16396875,0.1640625,-0.15640625,1.3159375,1.0980625,-0.29121875,-0.91371875,1.27184375,0.018742626900924847,0.030397409058011464,True
50389,141399,0,141400,4239.0,42111.0,30556.0,0.006771,-0.0021349999999999997,0.000305,0.07,-2.9050000000000002,-3.99,1.139125,0.162875,-0.1634375,1.338,1.11178125,-0.2979375,-0.91409375,1.263625,0.01896508705728624,0.03012978346844344,True
50390,141400,0,141401,4239.0,42114.0,30561.0,0.003843,0.000549,-0.000122,0.28,-2.8525000000000005,-4.0600000000000005,1.139375,0.1675625,-0.14640625000000002,1.331,1.104375,-0.29440625,-0.91615625,1.277125,0.019015436938286976,0.030893609442668345,True
50391,141401,0,141402,4241.0,42116.0,30560.0,-0.000732,0.000122,-0.000366,0.49000000000000005,-2.4325,-4.095000000000001,1.1545625,0.16021875,-0.16315625,1.33753125,1.10825,-0.296625,-0.91440625,1.2725,0.01880276581623991,0.030153237145677515,True
50392,141402,0,141403,4243.0,42116.0,30564.0,-0.005124,0.001037,0.001403,0.42000000000000004,-2.3275,-3.9025000000000003,1.14140625,0.16796875,-0.1530625,1.34125,1.10528125,-0.2950625,-0.91709375,1.2791875,0.019058656465691333,0.030662935961381935,True
50393,141403,0,141404,4243.0,42120.0,30567.0,-0.006222,0.0,0.0006709999999999999,0.5075000000000001,-2.205,-3.8150000000000004,1.1586875,0.1589375,-0.161,1.33515625,1.10815625,-0.295,-0.914125,1.26525,0.018684400082321462,0.030228836051838064,True
50394,141404,0,141405,4243.0,42121.0,30569.0,-0.005612,0.0015249999999999999,-0.0006709999999999999,0.6825000000000001,-2.2750000000000004,-3.6750000000000003,1.13875,0.16743750000000002,-0.1543125,1.32853125,1.10496875,-0.2955,-0.91021875,1.26696875,0.01905445452861641,0.030345227297532265,True
50395,141405,0,141406,4244.0,42118.0,30568.0,0.004209,0.000915,-0.000244,0.525,-2.765,-3.8675,1.1530625,0.15828125,-0.16128125000000001,1.307,1.11290625,-0.29675,-0.9148437500000001,1.27259375,0.018728070626729914,0.030245523815496538,True
50396,141406,0,141407,4244.0,42119.0,30567.0,0.00732,-0.000183,0.00061,0.385,-2.8175000000000003,-3.8500000000000005,1.12821875,0.16178125000000002,-0.1578125,1.33009375,1.1059375,-0.29896875,-0.9143125,1.2730625,0.01896171005199552,0.03036407285972671,True
50397,141407,0,141408,4246.0,42117.0,30564.0,0.00549,-0.0013419999999999999,-0.00042699999999999997,0.35000000000000003,-2.87,-3.9025000000000003,1.1371875,0.16759375,-0.1599375,1.33071875,1.1045,-0.29784375,-0.9186562500000001,1.27325,0.019155506339940148,0.03044781959300073,True
50398,141408,0,141409,4244.0,42116.0,30559.0,0.0025009999999999998,-0.002074,-0.001281,0.31500000000000006,-2.7475,-3.9025000000000003,1.13759375,0.166625,-0.15787500000000002,1.33328125,1.104375,-0.296125,-0.9165625000000001,1.27959375,0.01904624708672679,0.03044912395118709,True
50399,141409,0,141410,4242.0,42109.0,30552.0,0.000732,-0.000915,-0.00122,0.3325,-2.555,-3.9375000000000004,1.14715625,0.16490625,-0.15265625,1.3385,1.1138125,-0.29659375,-0.9180625,1.2783437500000001,0.018994432089889143,0.030716924720772334,True
50400,141410,0,141411,4242.0,42103.0,30542.0,6.1e-05,-0.000244,0.0011589999999999999,0.2625,-1.8375000000000001,-4.0425,1.15221875,0.1618125,-0.15753125,1.33153125,1.1085,-0.29584375,-0.91459375,1.2730000000000001,0.018836812366312655,0.030386307222047316,True
50401,141411,0,141412,4240.0,42100.0,30537.0,-0.001769,-0.0011589999999999999,0.001098,0.21000000000000002,-1.6450000000000002,-3.9725000000000006,1.1440625,0.1655625,-0.1566875,1.3285625,1.10409375,-0.295,-0.91078125,1.27215625,0.018957089936200863,0.030271782423523953,True
50402,141412,0,141413,4237.0,42092.0,30530.0,-0.005124,-0.00042699999999999997,0.002074,0.31500000000000006,-1.5225000000000002,-3.8500000000000005,1.1441875,0.16646875,-0.1596875,1.33846875,1.10421875,-0.29503125,-0.9158125,1.2789062500000001,0.018995653689476116,0.03034719417638899,True
50403,141413,0,141414,4233.0,42090.0,30523.0,-0.005795,0.000122,0.00042699999999999997,0.47250000000000003,-1.5575,-3.8325000000000005,1.14453125,0.166375,-0.157,1.332875,1.1054375,-0.29484375,-0.91409375,1.2725312500000001,0.018984223761472022,0.030388171353814546,True
50404,141414,0,141415,4230.0,42088.0,30518.0,-0.003965,0.002074,0.00042699999999999997,0.49000000000000005,-1.715,-3.9550000000000005,1.1439062500000001,0.16590625,-0.160625,1.33909375,1.09609375,-0.2973125,-0.9175,1.2785312500000001,0.019064608482934068,0.030375238286344936,True
50405,141415,0,141416,4227.0,42087.0,30516.0,0.004575,0.002562,-0.000793,0.43750000000000006,-2.205,-3.9025000000000003,1.15409375,0.16309375,-0.158,1.3303125,1.1115,-0.29021875,-0.9144375,1.26078125,0.01866234736976175,0.03036141193233843,True
50406,141416,0,141417,4224.0,42088.0,30515.0,0.005978,0.00061,-0.000549,0.3325,-2.1525000000000003,-3.9375000000000004,1.134875,0.1663125,-0.15671875,1.33325,1.104375,-0.29525,-0.9146562500000001,1.27925,0.018998055175394366,0.030421350886589094,True
50407,141417,0,141418,4221.0,42087.0,30514.0,0.0042699999999999995,0.000244,-0.000366,0.0,-1.8900000000000001,-3.99,1.14721875,0.16715625,-0.15928125,1.332125,1.1120625,-0.2993125,-0.91246875,1.27234375,0.01919678797496843,0.030233354532557117,True
50408,141418,0,141419,4217.0,42085.0,30511.0,0.0017079999999999999,-0.002745,-0.000549,-0.08750000000000001,-1.6975000000000002,-4.0075,1.14440625,0.16618750000000002,-0.1564375,1.3318125,1.10421875,-0.29446875,-0.915625,1.27875,0.01896136337618002,0.03047033738868682,True
50409,141419,0,141420,4214.0,42087.0,30506.0,-0.001464,-0.0023179999999999997,0.00042699999999999997,0.052500000000000005,-1.33,-3.8325000000000005,1.147875,0.1663125,-0.15715625,1.331875,1.10525,-0.29534375,-0.91409375,1.27203125,0.019001840630470602,0.030381899803198744,True
50410,141420,0,141421,4210.0,42083.0,30507.0,-0.003721,-0.001586,0.001464,0.12250000000000001,-0.9625000000000001,-3.6400000000000006,1.1436875,0.16721875,-0.1506875,1.33234375,1.104,-0.29478125,-0.91390625,1.2725,0.019016429711627883,0.030634246687028455,True
50411,141421,0,141422,4208.0,42083.0,30504.0,-0.004392,-0.000549,0.000366,0.24500000000000002,-1.1375000000000002,-3.6225000000000005,1.14403125,0.16684375,-0.15634375,1.332125,1.1041875,-0.295125,-0.91390625,1.27234375,0.019014874383235323,0.030407214846126348,True
50412,141422,0,141423,4204.0,42085.0,30504.0,-0.002806,0.001098,-0.0011589999999999999,0.525,-1.2950000000000002,-3.6225000000000005,1.1435625,0.1665625,-0.15271875000000001,1.332,1.10634375,-0.297875,-0.91646875,1.27884375,0.01911432584125155,0.030652417389603014,True
50413,141423,0,141424,4201.0,42083.0,30504.0,0.000366,0.002196,-0.001281,0.6475000000000001,-1.7500000000000002,-3.6575,1.1479375,0.1680625,-0.1595,1.33571875,1.112125,-0.29703125,-0.91825,1.277875,0.019141999086822594,0.03044957009420806,True
50414,141424,0,141425,4200.0,42084.0,30504.0,0.001647,0.0030499999999999998,-0.000183,0.5950000000000001,-1.8725000000000003,-3.7975000000000003,1.14403125,0.1665,-0.15603125,1.33778125,1.11115625,-0.2976875,-0.9170625,1.2759375,0.01910418429737398,0.030542574992537746,True
50415,141425,0,141426,4198.0,42085.0,30502.0,0.0028669999999999998,0.0,-0.00061,0.29750000000000004,-1.9075000000000002,-3.7275000000000005,1.14721875,0.163875,-0.1565625,1.33675,1.10540625,-0.2984375,-0.913125,1.26928125,0.01902642916854222,0.03036802890042899,True
50416,141426,0,141427,4194.0,42086.0,30499.0,0.00183,-0.001037,-0.00122,0.1925,-1.8375000000000001,-3.6575,1.1477187500000001,0.16371875,-0.1580625,1.33446875,1.10746875,-0.2993125,-0.91778125,1.27384375,0.01905532306726785,0.030489020767047625,True
50417,141427,0,141428,4192.0,42084.0,30502.0,0.000549,-0.002074,-0.000488,0.22750000000000004,-1.6975000000000002,-3.7100000000000004,1.14575,0.16643750000000002,-0.15665625,1.3326875,1.10478125,-0.295,-0.9138125,1.27315625,0.018993105577279273,0.030391023051971673,True
50418,141428,0,141429,4191.0,42083.0,30503.0,0.001403,-0.000122,-6.1e-05,0.24500000000000002,-1.4000000000000001,-3.6925000000000003,1.1445625,0.16640625,-0.15696875,1.33565625,1.1036875,-0.295875,-0.9137500000000001,1.2694375,0.019027149670468754,0.030376047363403744,True
50419,141429,0,141430,4191.0,42083.0,30501.0,0.0008539999999999999,0.00122,0.000183,0.24500000000000002,-0.9975,-3.6225000000000005,1.1473125,0.16509375,-0.15787500000000002,1.3321875,1.10746875,-0.296,-0.9156562500000001,1.2750625,0.01897817541982219,0.030413858755977984,True
50420,141430,0,141431,4187.0,42083.0,30497.0,-0.002196,-0.000793,0.000488,0.17500000000000002,-0.525,-3.6575,1.1355625,0.166,-0.1569375,1.3320625,1.10346875,-0.29331250000000003,-0.9091875,1.26990625,0.018906952273387997,0.03019970041174567,True
50421,141431,0,141432,4187.0,42076.0,30497.0,-0.004514,-0.000732,0.000793,0.12250000000000001,-0.42000000000000004,-3.6925000000000003,1.1439062500000001,0.16618750000000002,-0.15903125,1.33765625,1.10178125,-0.2944375,-0.90940625,1.2822500000000001,0.018960101463555187,0.030124162433618828,True
50422,141432,0,141433,4183.0,42075.0,30495.0,-0.0044529999999999995,-0.00061,0.001464,0.15750000000000003,-0.6300000000000001,-3.6400000000000006,1.15746875,0.16153125000000002,-0.1564375,1.32928125,1.11425,-0.2946875,-0.91371875,1.26225,0.01877853954696886,0.03039615472900849,True
50423,141433,0,141434,4182.0,42074.0,30493.0,-0.00244,-0.000793,0.0013419999999999999,0.31500000000000006,-0.9450000000000001,-3.7450000000000006,1.14565625,0.16609375,-0.15521875000000002,1.313,1.10184375,-0.29381250000000003,-0.9117500000000001,1.2635625,0.01893100352198734,0.030368450630726466,True
50424,141434,0,141435,4181.0,42072.0,30492.0,-0.000549,0.000244,0.0,0.29750000000000004,-1.3825,-3.7975000000000003,1.1384375,0.1636875,-0.1684375,1.34628125,1.1026562500000001,-0.29409375,-0.9124375,1.2718125,0.01884331454018531,0.02986460076417653,True
50425,141435,0,141436,4178.0,42073.0,30493.0,0.003355,0.000183,-0.0011589999999999999,0.36750000000000005,-1.8200000000000003,-3.7100000000000004,1.14121875,0.160875,-0.16021875,1.33196875,1.10325,-0.3018125,-0.92009375,1.283,0.019039217753819802,0.030492461530165795,True
50426,141436,0,141437,4179.0,42070.0,30493.0,0.0042699999999999995,0.000915,-0.000793,0.29750000000000004,-1.715,-3.8150000000000004,1.15071875,0.166375,-0.15103125,1.3280625,1.11678125,-0.29840625,-0.91803125,1.27434375,0.019128054952163787,0.030780922951126003,True
50427,141437,0,141438,4177.0,42071.0,30493.0,0.0023179999999999997,-0.000366,-0.00122,0.24500000000000002,-1.5050000000000001,-3.7100000000000004,1.14584375,0.1700625,-0.15184375,1.3218125,1.11603125,-0.30075,-0.9111250000000001,1.27475,0.01937440202462887,0.030479604995759933,True
50428,141438,0,141439,4175.0,42071.0,30492.0,0.00122,-0.000793,-0.000122,0.31500000000000006,-1.225,-3.6925000000000003,1.1330625,0.1593125,-0.15946875,1.3490625,1.11340625,-0.2941875,-0.91803125,1.2756875,0.018667016544595287,0.03044231273287291,True
50429,141439,0,141440,4173.0,42070.0,30491.0,0.001281,0.0006709999999999999,0.000305,0.31500000000000006,-0.9450000000000001,-3.5875000000000004,1.1451875,0.16884375000000001,-0.15106250000000002,1.33965625,1.10215625,-0.294625,-0.91271875,1.279625,0.019077007774353383,0.03057298794416005,True
50430,141440,0,141441,4172.0,42070.0,30490.0,-0.002074,0.0006709999999999999,0.00042699999999999997,0.24500000000000002,-0.6825000000000001,-3.5525,1.166875,0.15987500000000002,-0.15496875000000002,1.3209375,1.1135625,-0.29540625,-0.9127500000000001,1.27228125,0.018739396465123938,0.030417406749555953,True
50431,141441,0,141442,4171.0,42068.0,30490.0,-0.003843,0.000183,0.001769,0.2625,-0.56,-3.5000000000000004,1.13640625,0.16493750000000001,-0.16684375,1.32896875,1.1115,-0.29825,-0.9141875,1.27321875,0.019062586811807437,0.02999671371984336,True
50432,141442,0,141443,4169.0,42063.0,30488.0,-0.004209,-6.1e-05,0.0011589999999999999,0.3325,-0.805,-3.6225000000000005,1.13290625,0.17053125,-0.15828125,1.34978125,1.097,-0.29531250000000003,-0.914125,1.27921875,0.01917422342272815,0.030337960895676648,True
50433,141443,0,141444,4167.0,42065.0,30488.0,-0.0028669999999999998,-0.0011589999999999999,-6.1e-05,0.24500000000000002,-1.0150000000000001,-3.5875000000000004,1.1380625,0.16971875,-0.1530625,1.33603125,1.1046875,-0.2945,-0.9140625,1.2790000000000001,0.019107977114161644,0.03054499843211038,True
50434,141444,0,141445,4167.0,42063.0,30488.0,0.000122,-0.00061,-0.001281,0.22750000000000004,-1.2600000000000002,-3.5875000000000004,1.1495,0.16753125,-0.153,1.32984375,1.10415625,-0.29509375,-0.91346875,1.272375,0.01904191046803431,0.030524402588459305,True
50435,141445,0,141446,4168.0,42065.0,30489.0,0.00244,-0.000244,0.000122,0.3325,-1.5750000000000002,-3.6400000000000006,1.1380000000000001,0.16390625,-0.15737500000000001,1.33228125,1.1067500000000001,-0.29812500000000003,-0.91821875,1.2721875,0.019015098901664224,0.03053363314743354,True
50436,141446,0,141447,4166.0,42066.0,30489.0,0.0021349999999999997,0.000488,-0.001281,0.31500000000000006,-1.6625,-3.5700000000000003,1.1440625,0.1655625,-0.1556875,1.33875,1.1045625000000001,-0.29484375,-0.91240625,1.27384375,0.018950780451098808,0.030375177026506623,True
50437,141447,0,141448,4165.0,42066.0,30490.0,0.000976,0.000305,-0.0008539999999999999,0.35000000000000003,-1.6450000000000002,-3.5175000000000005,1.15290625,0.163375,-0.15659375,1.3315000000000001,1.11196875,-0.29965625,-0.914375,1.2730625,0.019055053505129316,0.030415422823169357,True
50438,141448,0,141449,4164.0,42068.0,30492.0,0.001098,6.1e-05,-0.000549,0.45500000000000007,-1.4525000000000001,-3.6050000000000004,1.14428125,0.16596875,-0.1589375,1.33803125,1.10371875,-0.29840625,-0.91646875,1.28078125,0.0191113357486152,0.03040283346732269,True
50439,141449,0,141450,4163.0,42067.0,30489.0,0.00061,0.000488,6.1e-05,0.43750000000000006,-1.225,-3.5175000000000005,1.1445,0.16625,-0.15603125,1.3253125000000001,1.1070312500000001,-0.2955,-0.91346875,1.27284375,0.019005577164495482,0.030402731454246008,True
50440,141450,0,141451,4163.0,42066.0,30491.0,0.000122,-0.000122,0.000122,0.22750000000000004,-0.8400000000000001,-3.535,1.1435,0.16465625,-0.15878125,1.3277812500000001,1.10525,-0.2944375,-0.9135625,1.2789375,0.018897072632366976,0.0302959984145182,True
50441,141451,0,141452,4161.0,42067.0,30489.0,-0.0017079999999999999,-0.00042699999999999997,0.000549,0.12250000000000001,-0.9100000000000001,-3.4825000000000004,1.1484375,0.165625,-0.15059375,1.33221875,1.11096875,-0.29509375,-0.915125,1.27340625,0.01896344812417116,0.030685427024749024,True
50442,141452,0,141453,4161.0,42066.0,30490.0,-0.002745,-0.000793,0.0008539999999999999,0.17500000000000002,-0.8225000000000001,-3.5175000000000005,1.14415625,0.16846875,-0.15215625,1.33928125,1.1048125,-0.29465625,-0.9165,1.28040625,0.019062834033718837,0.03067620853651195,True
50443,141453,0,141454,4159.0,42066.0,30490.0,-0.0030499999999999998,-0.000793,-0.000122,0.2625,-0.9100000000000001,-3.5000000000000004,1.1505,0.1658125,-0.1573125,1.33546875,1.11184375,-0.29712500000000003,-0.91490625,1.26815625,0.019053180160204138,0.0304072486726696,True
50444,141454,0,141455,4160.0,42067.0,30491.0,-0.002074,-0.000976,0.000488,0.28,-1.05,-3.5000000000000004,1.1509375,0.169,-0.1565,1.3318125,1.11128125,-0.29865625,-0.91609375,1.27025,0.01924617745065635,0.030486068868640376,True
50445,141455,0,141456,4160.0,42070.0,30494.0,0.000122,-0.000366,0.001098,0.36750000000000005,-1.61,-3.5000000000000004,1.14446875,0.16634375,-0.155625,1.3331875,1.10496875,-0.295875,-0.9130312500000001,1.2728125000000001,0.019024577217325988,0.030402010995751474,True
50446,141456,0,141457,4159.0,42070.0,30496.0,0.001037,0.000305,-0.00061,0.35000000000000003,-1.7675,-3.5875000000000004,1.14615625,0.16418750000000001,-0.1584375,1.3406875,1.10453125,-0.2978125,-0.91421875,1.2809375,0.01901405733540828,0.030335338128954975,True
50447,141457,0,141458,4160.0,42072.0,30500.0,0.0015249999999999999,0.000549,-0.0017079999999999999,0.385,-2.0125,-3.6050000000000004,1.15003125,0.16753125,-0.15640625,1.33390625,1.11053125,-0.2985,-0.9140312500000001,1.27278125,0.019179424655842953,0.030409570911973553,True
50448,141458,0,141459,4159.0,42074.0,30500.0,0.0018909999999999999,-0.000122,-0.000976,0.43750000000000006,-2.1350000000000002,-3.5700000000000003,1.1478125000000001,0.16446875,-0.15884375,1.33684375,1.1066562500000001,-0.29521875000000003,-0.916125,1.27315625,0.01892090393300122,0.03039321925058571,True
50449,141459,0,141460,4158.0,42076.0,30503.0,0.0032329999999999998,0.0017079999999999999,-0.001647,0.36750000000000005,-2.1350000000000002,-3.6050000000000004,1.14496875,0.16628125,-0.15575,1.3317812500000001,1.1085625000000001,-0.29481250000000003,-0.913875,1.2726250000000001,0.01897910304926206,0.030429830766992284,True
50450,141460,0,141461,4159.0,42081.0,30506.0,0.003355,0.000122,-0.001647,0.47250000000000003,-1.4175000000000002,-3.5700000000000003,1.14778125,0.16418750000000001,-0.15921875,1.33984375,1.103875,-0.29571875000000003,-0.9158125,1.2765,0.01892951818929004,0.030366007530358483,True
50451,141461,0,141462,4159.0,42082.0,30508.0,0.001403,0.000305,0.000122,0.28,-1.0325000000000002,-3.4825000000000004,1.15203125,0.16340625,-0.158,1.33225,1.109375,-0.29634375,-0.91228125,1.27296875,0.018922600236918365,0.030277486129456733,True
50452,141462,0,141463,4159.0,42082.0,30507.0,-0.001464,-0.000488,0.0006709999999999999,0.3325,-0.7350000000000001,-3.535,1.1445625,0.16665625,-0.1553125,1.3355000000000001,1.1046875,-0.29490625,-0.9136875,1.2735,0.0189983239799495,0.030440094426005784,True
50453,141463,0,141464,4159.0,42080.0,30509.0,-0.002745,-0.000915,0.001098,0.385,-0.42000000000000004,-3.5000000000000004,1.15028125,0.168125,-0.15471875000000002,1.3366875,1.1106562500000001,-0.291625,-0.91715625,1.27915625,0.018926276031348253,0.03059889709524938,True
50454,141464,0,141465,4158.0,42078.0,30507.0,-0.004148,0.000244,0.0013419999999999999,0.3325,-0.17500000000000002,-3.3775000000000004,1.1428125,0.1663125,-0.152375,1.33234375,1.10746875,-0.2885,-0.913625,1.272875,0.018725425612944397,0.030555569492596923,True
50455,141465,0,141466,4157.0,42078.0,30509.0,-0.0030499999999999998,-6.1e-05,0.00122,0.2625,-0.28,-3.3600000000000003,1.1435,0.16609375,-0.15978125,1.338625,1.10553125,-0.2941875,-0.90496875,1.28121875,0.018946147097942664,0.02992123810635177,True
50456,141466,0,141467,4156.0,42078.0,30510.0,-0.0018909999999999999,-0.000915,-0.000366,0.22750000000000004,-0.5775,-3.5525,1.15146875,0.162625,-0.15553125,1.33571875,1.12290625,-0.2993125,-0.91696875,1.2889375,0.019010311505726758,0.030558994059018515,True
50457,141467,0,141468,4157.0,42079.0,30513.0,0.00042699999999999997,-0.0013419999999999999,0.0,0.22750000000000004,-0.8225000000000001,-3.535,1.14384375,0.16653125,-0.15590625,1.3218750000000001,1.1127500000000001,-0.29628125,-0.912,1.26725,0.019048697009959085,0.03035058405587669,True
50458,141468,0,141469,4158.0,42084.0,30517.0,0.002074,-0.00122,-6.1e-05,0.28,-0.9450000000000001,-3.5875000000000004,1.1480625,0.165625,-0.16021875,1.3348125,1.088375,-0.29278125,-0.91734375,1.28809375,0.018870060421755947,0.030385461933517693,True
50459,141469,0,141470,4157.0,42085.0,30519.0,0.0015249999999999999,0.00244,-0.0011589999999999999,0.49000000000000005,-0.8575,-3.4650000000000003,1.1445,0.166875,-0.1570625,1.3376875,1.1162812500000001,-0.29265625,-0.90990625,1.286375,0.018916467811131193,0.030222664928736938,True
50460,141470,0,141471,4158.0,42088.0,30524.0,-6.1e-05,0.001647,-0.001037,0.6300000000000001,-0.8575,-3.3950000000000005,1.14475,0.16653125,-0.15659375,1.3315937500000001,1.119125,-0.30262500000000003,-0.91590625,1.2690937500000001,0.019304756173458632,0.03047501031595028,True
50461,141471,0,141472,4159.0,42090.0,30526.0,-0.001464,0.000305,-0.000549,0.6475000000000001,-0.9100000000000001,-3.3600000000000003,1.1441875,0.16665625,-0.1565,1.33490625,1.09765625,-0.292875,-0.90659375,1.2748125000000001,0.018916297474053607,0.030116271920964707,True
50462,141472,0,141473,4158.0,42094.0,30528.0,-0.001281,0.00061,-0.0008539999999999999,0.525,-0.9275000000000001,-3.4825000000000004,1.15096875,0.16709375,-0.15634375,1.33234375,1.10803125,-0.29975,-0.916375,1.2707187500000001,0.019211874607763454,0.03050328348325148,True
50463,141473,0,141474,4159.0,42096.0,30530.0,-0.00122,0.000244,-0.002074,0.49000000000000005,-0.9975,-3.5700000000000003,1.1440937500000001,0.16693750000000002,-0.1501875,1.3350312500000001,1.09846875,-0.29325,-0.9097500000000001,1.2725625,0.018943019151410372,0.03049257820732846,True
50464,141474,0,141475,4159.0,42097.0,30531.0,0.000915,-0.001281,0.000915,0.42000000000000004,-0.8400000000000001,-3.5700000000000003,1.150625,0.16225,-0.15712500000000001,1.32696875,1.11321875,-0.2984375,-0.9210625,1.2763125,0.018959552440357536,0.030654290923591235,True
50465,141475,0,141476,4159.0,42095.0,30531.0,0.001037,-6.1e-05,0.000915,0.49000000000000005,-0.8400000000000001,-3.5700000000000003,1.1440937500000001,0.16746875,-0.1566875,1.338375,1.1003125,-0.29359375,-0.9137500000000001,1.2811875,0.01897876883694904,0.030387336310270435,True
50466,141476,0,141477,4158.0,42093.0,30526.0,0.001586,-0.000305,0.000976,0.6125,-0.805,-3.6050000000000004,1.145875,0.1655625,-0.15571875000000002,1.3341875,1.1142812500000001,-0.29571875000000003,-0.9111875,1.268,0.018986112522396566,0.03032648483738481,True
50467,141477,0,141478,4157.0,42086.0,30520.0,0.0015249999999999999,0.0013419999999999999,0.000122,0.5425000000000001,-0.7000000000000001,-3.6575,1.150625,0.164375,-0.1585625,1.33240625,1.1091875,-0.28921875,-0.91471875,1.27440625,0.01867469491994262,0.030349780689376642,True
50468,141478,0,141479,4155.0,42081.0,30510.0,0.000915,0.000366,-0.000549,0.3325,-0.5425000000000001,-3.5175000000000005,1.1440000000000001,0.1668125,-0.15553125,1.3320625,1.10490625,-0.295,-0.9133125,1.2728125000000001,0.01900854085202716,0.030416719976518576,True
50469,141479,0,141480,4151.0,42079.0,30503.0,-0.000732,-0.0008539999999999999,6.1e-05,0.28,-0.24500000000000002,-3.4825000000000004,1.14453125,0.17128125,-0.15471875000000002,1.328,1.10509375,-0.293875,-0.91578125,1.2799375,0.019147058672196182,0.030545399815628902,True
50470,141480,0,141481,4150.0,42073.0,30496.0,-0.000732,-0.000793,0.0008539999999999999,0.17500000000000002,-0.0175,-3.4125000000000005,1.1476875,0.16596875,-0.1566875,1.329625,1.1124375,-0.29459375,-0.9137500000000001,1.273375,0.0189574069333841,0.030387336310270435,True
50471,141481,0,141482,4145.0,42068.0,30490.0,-0.000366,-0.000183,0.000305,0.12250000000000001,0.22750000000000004,-3.3775000000000004,1.13921875,0.16728125,-0.15628125,1.3381875,1.105125,-0.29465625,-0.9126875,1.28153125,0.019013954972093915,0.030362290298868798,True
50472,141482,0,141483,4138.0,42065.0,30482.0,-0.0023179999999999997,-0.0006709999999999999,0.000305,0.12250000000000001,0.22750000000000004,-3.3600000000000003,1.14815625,0.164375,-0.155125,1.33215625,1.110875,-0.297375,-0.91734375,1.27034375,0.019004110526342866,0.03058988781659361,True
50473,141483,0,141484,4134.0,42062.0,30476.0,-0.001952,-0.00042699999999999997,-0.000976,0.12250000000000001,0.385,-3.3950000000000005,1.1441875,0.16671875,-0.15571875000000002,1.3374375,1.1048437500000001,-0.29575,-0.9135625,1.2758125,0.019034964963007932,0.03041892342775145,True
50474,141484,0,141485,4127.0,42062.0,30474.0,-0.0011589999999999999,0.000915,0.000183,0.17500000000000002,0.42000000000000004,-3.3075,1.1505,0.1638125,-0.1558125,1.3325625,1.1126875,-0.29815625,-0.9105,1.272875,0.01901250223460885,0.030295959535135787,True
50475,141485,0,141486,4124.0,42059.0,30471.0,-0.001403,0.0011589999999999999,-0.000122,0.31500000000000006,0.4025,-3.5000000000000004,1.1439062500000001,0.166875,-0.15987500000000002,1.34325,1.1048125,-0.29465625,-0.9161875,1.2796875,0.01899723318785381,0.03035426266558638,True
50476,141486,0,141487,4118.0,42059.0,30467.0,-0.0030499999999999998,-0.000305,0.000366,0.2625,0.385,-3.4825000000000004,1.14221875,0.161875,-0.16134375,1.3316875000000001,1.1015625,-0.29903125,-0.915,1.2725625,0.018968091577724937,0.030249096929560508,True
50477,141487,0,141488,4113.0,42057.0,30465.0,-0.003904,-0.00042699999999999997,0.0011589999999999999,0.29750000000000004,0.28,-3.4825000000000004,1.11996875,0.16696875,-0.155125,1.3364375,1.10425,-0.2965625,-0.9129375000000001,1.2795625,0.01907805888178626,0.030418432190102027,True
50478,141488,0,141489,4110.0,42055.0,30464.0,-0.003355,-0.0011589999999999999,0.001098,0.2625,0.052500000000000005,-3.535,1.15075,0.16440625,-0.1619375,1.3321875,1.111125,-0.29946875,-0.91803125,1.26225,0.019089923519418506,0.030343237891235893,True
50479,141489,0,141490,4103.0,42056.0,30462.0,-0.00061,0.0,0.000793,0.21000000000000002,-0.56,-3.6925000000000003,1.14134375,0.16668750000000002,-0.15490625,1.3295000000000001,1.104875,-0.296625,-0.91325,1.2729375,0.019069006497816055,0.03043937462996598,True
50480,141490,0,141491,4100.0,42054.0,30460.0,-0.000305,0.000732,-0.000122,0.43750000000000006,-0.9275000000000001,-3.8150000000000004,1.15265625,0.16209375,-0.15075,1.3299375,1.110625,-0.299875,-0.91421875,1.269375,0.019011157464801774,0.030643896871139092,True
50481,141491,0,141492,4096.0,42054.0,30460.0,0.00183,0.00042699999999999997,-0.000122,0.43750000000000006,-1.2075,-3.7975000000000003,1.1343125,0.167625,-0.1550625,1.32153125,1.1046875,-0.2960625,-0.91334375,1.27390625,0.01908488258128246,0.030436751389503868,True
50482,141492,0,141493,4090.0,42056.0,30459.0,0.001586,0.000366,-0.000793,0.3325,-1.4000000000000001,-3.7625,1.1421875000000001,0.1645,-0.1576875,1.3414062500000001,1.1105,-0.2976875,-0.91596875,1.27878125,0.01902187193740145,0.030433544752298664,True
50483,141493,0,141494,4087.0,42056.0,30460.0,0.001952,-0.0011589999999999999,-0.00061,0.22750000000000004,-1.6800000000000002,-3.8150000000000004,1.14975,0.1658125,-0.15334375,1.32890625,1.1043125,-0.2966875,-0.91340625,1.27246875,0.019035516672797476,0.030508172683131194,True
50484,141494,0,141495,4086.0,42056.0,30461.0,0.000793,-0.0021349999999999997,-6.1e-05,0.35000000000000003,-1.8900000000000001,-3.9375000000000004,1.14321875,0.1629375,-0.1545,1.34271875,1.10890625,-0.29753125,-0.91609375,1.27771875,0.01895125662200764,0.03056633827282818,True
50485,141495,0,141496,4081.0,42058.0,30460.0,0.000732,-0.000793,-0.000488,0.45500000000000007,-1.995,-3.8850000000000002,1.144625,0.1690625,-0.15428125,1.33025,1.10559375,-0.29634375,-0.91278125,1.26340625,0.019155402754786922,0.030446219247399365,True
50486,141496,0,141497,4077.0,42061.0,30464.0,0.001037,0.000549,-0.000488,0.47250000000000003,-2.0125,-3.9725000000000006,1.141375,0.1675625,-0.154375,1.33646875,1.1050312500000001,-0.29459375,-0.91271875,1.2765,0.019023007948013124,0.030440023732857337,True
50487,141497,0,141498,4077.0,42063.0,30463.0,0.000732,0.001098,0.000183,0.5775,-1.8025000000000002,-3.9025000000000003,1.147375,0.16403125,-0.15728125,1.33615625,1.1083125,-0.28940625000000003,-0.91546875,1.27415625,0.018668117916632896,0.03043039276553848,True
50488,141498,0,141499,4074.0,42063.0,30466.0,0.002257,0.0017079999999999999,-0.0006709999999999999,0.6475000000000001,-1.7500000000000002,-3.8150000000000004,1.14978125,0.16578125,-0.15040625,1.33153125,1.108125,-0.29528125,-0.9140312500000001,1.273375,0.01897745061090824,0.030650399059766777,True
50489,141499,0,141500,4070.0,42064.0,30468.0,-0.001281,0.001098,0.0013419999999999999,0.525,-1.6450000000000002,-3.8150000000000004,1.14315625,0.16718750000000002,-0.1556875,1.3371875,1.10575,-0.29184375,-0.91321875,1.2774375,0.018896517478217353,0.03040679960312234,True
50490,141500,0,141501,4069.0,42068.0,30471.0,-0.00244,-0.00061,0.001037,0.36750000000000005,-1.6450000000000002,-3.7625,1.14984375,0.16584375,-0.15937500000000002,1.33328125,1.11078125,-0.29746875,-0.91703125,1.2748125000000001,0.019068344310557043,0.030407163774777538,True
50491,141501,0,141502,4067.0,42070.0,30471.0,-0.004026,-0.00183,0.000549,0.29750000000000004,-1.9075000000000002,-3.7100000000000004,1.1419062500000001,0.1663125,-0.1558125,1.3221875,1.1055,-0.29384375,-0.909,1.2688125000000001,0.018941269843311643,0.030237564735637722,True
50492,141502,0,141503,4067.0,42069.0,30473.0,-0.004026,-0.00122,0.001037,0.36750000000000005,-2.2225,-3.6925000000000003,1.14925,0.16409375,-0.16,1.33653125,1.09659375,-0.2956875,-0.91446875,1.287125,0.01892439759113629,0.03028235350191844,True
50493,141503,0,141504,4065.0,42074.0,30477.0,-0.000732,0.0006709999999999999,0.000122,0.45500000000000007,-2.45,-3.7975000000000003,1.148875,0.16609375,-0.15590625,1.3324375,1.1246875,-0.307625,-0.91490625,1.2551875000000001,0.019488483551971858,0.030463690787518014,True
50494,141504,0,141505,4061.0,42077.0,30480.0,0.004575,0.0008539999999999999,-0.0008539999999999999,0.56,-2.9575000000000005,-3.7800000000000002,1.1448125,0.16443750000000001,-0.15790625,1.33746875,1.09196875,-0.2899375,-0.9104375,1.28978125,0.018706305851960304,0.030209475445784523,True
50495,141505,0,141506,4061.0,42082.0,30485.0,0.003538,-0.000244,-0.0006709999999999999,0.5425000000000001,-3.0275000000000003,-3.8325000000000005,1.1363125,0.166375,-0.15565625,1.33184375,1.12703125,-0.3045,-0.91628125,1.27896875,0.019373984241601347,0.030527228054949014,True
50496,141506,0,141507,4061.0,42084.0,30486.0,0.0034159999999999998,-0.000488,-0.0006709999999999999,0.45500000000000007,-2.9400000000000004,-3.8150000000000004,1.144125,0.16634375,-0.15609375,1.33296875,1.09915625,-0.2945,-0.90565625,1.2613125,0.01896905678239931,0.030096075063270018,True
50497,141507,0,141508,4060.0,42085.0,30486.0,0.002989,-0.0008539999999999999,-0.001586,0.43750000000000006,-2.765,-3.7450000000000006,1.1495625,0.1640625,-0.15728125,1.33896875,1.0910312500000001,-0.30109375,-0.9084375,1.2956875,0.019141370951667555,0.03015669890975698,True
50498,141508,0,141509,4057.0,42086.0,30488.0,0.002745,0.000305,-0.001464,0.36750000000000005,-2.555,-3.6925000000000003,1.14421875,0.17171875,-0.1525625,1.334375,1.12709375,-0.29559375,-0.90625,1.2561875,0.01923445480726315,0.03026097867001255,True
50499,141509,0,141510,4054.0,42086.0,30491.0,0.001586,0.000488,-0.000366,0.385,-1.7675,-3.6225000000000005,1.146125,0.16896875,-0.15996875,1.332375,1.1114375,-0.3030625,-0.917,1.28496875,0.019422706500466763,0.03038211863386443,True
50500,141510,0,141511,4054.0,42086.0,30489.0,0.001769,0.000183,0.000122,0.35000000000000003,-1.1900000000000002,-3.5525,1.1439062500000001,0.16643750000000002,-0.15662500000000001,1.3391875,1.0994375,-0.29109375,-0.902375,1.288375,0.0188353498903276,0.02994694281167961,True
50501,141511,0,141512,4052.0,42085.0,30489.0,0.000244,-0.000244,0.000732,0.35000000000000003,-0.8750000000000001,-3.5875000000000004,1.1393125,0.16653125,-0.15675,1.33040625,1.1263125,-0.2999375,-0.9144375,1.2624375,0.019196294229151825,0.030411583645025102,True
50502,141512,0,141513,4051.0,42087.0,30488.0,-0.0028669999999999998,-0.0011589999999999999,0.0006709999999999999,0.24500000000000002,-0.5075000000000001,-3.43,1.14421875,0.16518750000000001,-0.15828125,1.3333125000000001,1.09415625,-0.2961875,-0.9108437500000001,1.27440625,0.01898960485055526,0.030210237258623564,True
50503,141513,0,141514,4050.0,42085.0,30487.0,-0.003721,-0.000305,0.001769,0.28,-0.17500000000000002,-3.4825000000000004,1.137875,0.1678125,-0.1554375,1.33240625,1.0991875,-0.29359375,-0.91096875,1.27984375,0.018992918657825174,0.030329260077450824,True
50504,141514,0,141515,4048.0,42084.0,30487.0,-0.0034159999999999998,-0.000488,0.000305,0.45500000000000007,-0.052500000000000005,-3.2900000000000005,1.1503125,0.1645,-0.15865625,1.32565625,1.1129375,-0.29796875,-0.914,1.27346875,0.01903322680007974,0.030318044071606324,True
50505,141515,0,141516,4046.0,42081.0,30485.0,-0.002989,0.000915,0.000976,0.49000000000000005,-0.14,-3.4125000000000005,1.1433125,0.16665625,-0.15471875000000002,1.33728125,1.104875,-0.29478125,-0.914875,1.2824375000000001,0.018993276591037427,0.030510137016541324,True
50506,141516,0,141517,4047.0,42082.0,30488.0,-0.000732,0.00061,-0.000732,0.5075000000000001,-0.29750000000000004,-3.3600000000000003,1.15075,0.16565625,-0.15646875,1.3326875,1.11109375,-0.29575,-0.91278125,1.27240625,0.018991233034584238,0.030358412913050404,True
50507,141517,0,141518,4045.0,42082.0,30486.0,0.000549,-0.00042699999999999997,-0.000305,0.385,-0.49000000000000005,-3.3425000000000002,1.1445,0.16684375,-0.1565625,1.335625,1.10834375,-0.29653125,-0.9123125,1.27815625,0.0190716524606779,0.030336404940328198,True
50508,141518,0,141519,4044.0,42083.0,30485.0,6.1e-05,-0.000976,0.0006709999999999999,0.42000000000000004,-0.6300000000000001,-3.325,1.15065625,0.16596875,-0.14934375,1.33309375,1.10584375,-0.29415625,-0.912125,1.27075,0.018939739880861266,0.030618875346844158,True
50509,141519,0,141520,4041.0,42080.0,30485.0,-0.000732,-0.000488,-0.00061,0.42000000000000004,-0.7525000000000001,-3.43,1.14415625,0.166625,-0.15671875,1.3326875,1.10440625,-0.29559375,-0.9125625,1.272875,0.019024797449125937,0.030339863673197007,True
50510,141520,0,141521,4041.0,42080.0,30489.0,-0.001037,0.0,0.0,0.47250000000000003,-0.9100000000000001,-3.5000000000000004,1.1385,0.16740625,-0.15503125,1.33328125,1.10809375,-0.2966875,-0.9095625,1.2809375,0.019101112034305087,0.030290827066914567,True
50511,141521,0,141522,4040.0,42080.0,30488.0,0.000183,0.0011589999999999999,0.001403,0.385,-0.9625000000000001,-3.5175000000000005,1.14503125,0.167,-0.15859375,1.34584375,1.11078125,-0.28959375,-0.9155625000000001,1.278125,0.018797916288739905,0.03038136305371392,True
50512,141522,0,141523,4040.0,42078.0,30488.0,6.1e-05,0.0,0.001098,0.45500000000000007,-1.0675000000000001,-3.6575,1.15296875,0.16593750000000002,-0.15753125,1.3226875,1.1048437500000001,-0.295,-0.909875,1.27375,0.018972525210948752,0.030202630482890822,True
50513,141523,0,141524,4040.0,42079.0,30490.0,-0.000976,0.000305,-0.000915,0.35000000000000003,-1.225,-3.6225000000000005,1.14353125,0.16809375000000001,-0.1554375,1.3265625,1.10453125,-0.29365625,-0.9131875,1.27375,0.019007019579442678,0.030415618234318674,True
50514,141524,0,141525,4040.0,42078.0,30490.0,-0.0006709999999999999,-0.000183,0.000122,0.385,-1.435,-3.6925000000000003,1.1377187500000001,0.1685625,-0.144625,1.3414375,1.11059375,-0.29703125,-0.9138125,1.278875,0.019162577732619084,0.0308739379009134,True
50515,141525,0,141526,4040.0,42080.0,30491.0,0.001037,6.1e-05,0.001281,0.36750000000000005,-1.6800000000000002,-3.7625,1.1588125,0.15862500000000002,-0.15575,1.32609375,1.104875,-0.29140625000000003,-0.91290625,1.2730000000000001,0.018526356414627087,0.030392128577933376,True
50516,141526,0,141527,4038.0,42079.0,30489.0,0.00183,-0.000366,-0.001403,0.28,-1.8725000000000003,-3.6575,1.13840625,0.169125,-0.15265625,1.33796875,1.1085625000000001,-0.29481250000000003,-0.9166875,1.27903125,0.019096154786129756,0.030663435900137207,True
50517,141527,0,141528,4038.0,42078.0,30494.0,0.002562,0.000732,-0.000915,0.28,-1.8900000000000001,-3.6400000000000006,1.1572500000000001,0.16015625,-0.1573125,1.32690625,1.106375,-0.2941875,-0.91321875,1.27371875,0.018701747074274452,0.030341573185921632,True
50518,141528,0,141529,4038.0,42079.0,30493.0,0.002623,0.000488,-0.001403,0.31500000000000006,-1.8550000000000002,-3.6925000000000003,1.13675,0.1691875,-0.1455625,1.34253125,1.098,-0.295,-0.9155,1.279125,0.019106297592097136,0.030901948586221424,True
50519,141529,0,141530,4037.0,42080.0,30495.0,0.000976,-0.000366,0.000915,0.24500000000000002,-1.3650000000000002,-3.6575,1.14759375,0.1605625,-0.16234375,1.3165,1.10409375,-0.2940625,-0.91278125,1.27303125,0.018713420202981695,0.0301225901865132,True
50520,141530,0,141531,4038.0,42079.0,30495.0,0.0006709999999999999,0.0,0.000732,0.36750000000000005,-1.1375000000000002,-3.5875000000000004,1.12778125,0.167875,-0.153375,1.31325,1.104375,-0.2931875,-0.915375,1.27990625,0.018979086215013985,0.03058352523291341,True
50521,141531,0,141532,4038.0,42075.0,30492.0,-0.00122,-0.000549,0.000549,0.2625,-0.8925000000000001,-3.7275000000000005,1.14153125,0.167625,-0.15471875000000002,1.34328125,1.112125,-0.2964375,-0.91521875,1.278875,0.019100022379824205,0.030523512862996635,True
50522,141532,0,141533,4036.0,42075.0,30491.0,-0.002562,-0.00061,0.000122,0.052500000000000005,-0.805,-3.6225000000000005,1.14996875,0.161125,-0.15675,1.3375937500000001,1.1045,-0.29434375,-0.91325,1.2681875,0.01874793386835156,0.030365367826357455,True
50523,141533,0,141534,4035.0,42072.0,30492.0,-0.001586,-0.00122,0.001586,0.10500000000000001,-0.7875000000000001,-3.6750000000000003,1.1454375,0.16575,-0.1535625,1.33090625,1.104875,-0.29459375,-0.91334375,1.273375,0.018948402872552665,0.030496960087904704,True
50524,141534,0,141535,4035.0,42072.0,30492.0,0.000366,-0.000244,0.000244,0.10500000000000001,-0.805,-3.6925000000000003,1.14253125,0.1668125,-0.15484375,1.32715625,1.10478125,-0.2945,-0.9128125,1.27578125,0.018988351272921856,0.03042485668769835,True
50525,141535,0,141536,4036.0,42072.0,30495.0,0.000732,0.001037,0.000183,0.28,-0.805,-3.6050000000000004,1.1445,0.1643125,-0.15503125,1.32715625,1.10971875,-0.29540625,-0.91325,1.273625,0.01892204416215514,0.03043435721955184,True
50526,141536,0,141537,4036.0,42072.0,30496.0,6.1e-05,0.0023179999999999997,-0.0011589999999999999,0.36750000000000005,-0.8225000000000001,-3.5175000000000005,1.1443125,0.167375,-0.15484375,1.33853125,1.1048437500000001,-0.29321875000000003,-0.9127500000000001,1.28046875,0.018959766292805477,0.03042242426066974,True
50527,141537,0,141538,4036.0,42071.0,30497.0,0.00061,0.0017079999999999999,-0.000244,0.385,-0.7175,-3.4125000000000005,1.15309375,0.167625,-0.15628125,1.3335937500000001,1.11253125,-0.29465625,-0.91271875,1.27140625,0.01902810417414323,0.030363506592390684,True
50528,141538,0,141539,4038.0,42069.0,30498.0,-0.002013,-0.0006709999999999999,-0.000366,0.22750000000000004,-0.6475000000000001,-3.3075,1.14359375,0.16778125,-0.15775,1.323625,1.1054375,-0.29084375,-0.9139375000000001,1.27171875,0.018880570997044925,0.030351986714263854,True
50529,141539,0,141540,4036.0,42069.0,30497.0,-0.003172,-0.001037,-0.000366,0.17500000000000002,-0.7350000000000001,-3.4125000000000005,1.1446875,0.16671875,-0.15875,1.33165625,1.1051875,-0.296625,-0.9147500000000001,1.27225,0.019070292684683576,0.03034347123691789,True
50530,141540,0,141541,4037.0,42066.0,30495.0,-0.002745,-0.001952,-6.1e-05,0.12250000000000001,-0.8925000000000001,-3.4825000000000004,1.14453125,0.16709375,-0.1554375,1.33571875,1.1051875,-0.2934375,-0.9124375,1.2786250000000001,0.018957022858539476,0.03038642846570112,True
50531,141541,0,141542,4037.0,42061.0,30494.0,-0.001403,-0.002013,0.000915,0.07,-0.9975,-3.6050000000000004,1.14978125,0.163625,-0.15862500000000002,1.3340625,1.11296875,-0.29578125,-0.914875,1.27375,0.01890888978925096,0.03035335316753546,True
50532,141542,0,141543,4037.0,42056.0,30490.0,-0.000305,-0.001037,0.001952,0.22750000000000004,-1.2075,-3.5525,1.144375,0.1665625,-0.15640625,1.335,1.10525,-0.29453125,-0.91028125,1.27221875,0.01897932276425379,0.030263608525094434,True
50533,141543,0,141544,4036.0,42051.0,30481.0,0.001769,0.0017079999999999999,-0.0017079999999999999,0.5775,-1.8025000000000002,-3.6050000000000004,1.14440625,0.1665625,-0.15528125,1.32871875,1.09740625,-0.29459375,-0.9125625,1.2790625,0.018981846527069423,0.030397565485284786,True
50534,141544,0,141545,4033.0,42046.0,30476.0,0.004392,0.002196,-0.001769,0.5425000000000001,-1.7850000000000001,-3.7450000000000006,1.1526875,0.16518750000000001,-0.1554375,1.33171875,1.113375,-0.294875,-0.9124375,1.273625,0.018936607000447626,0.03038642846570112,True
50535,141545,0,141546,4030.0,42038.0,30466.0,0.00549,0.0015249999999999999,-0.001098,0.47250000000000003,-1.5925000000000002,-3.6750000000000003,1.132875,0.167625,-0.1574375,1.33040625,1.10825,-0.29615625,-0.9160625,1.2778125,0.019088667574732116,0.030447226563185898,True
50536,141546,0,141547,4027.0,42031.0,30455.0,0.0057339999999999995,0.0006709999999999999,-0.0008539999999999999,0.4025,-1.12,-3.535,1.15128125,0.16593750000000002,-0.15625,1.3334062500000001,1.1044375,-0.294625,-0.91290625,1.2731875,0.018957382548609004,0.03037205865935453,True
50537,141547,0,141548,4021.0,42025.0,30444.0,0.002257,-0.000488,-0.000732,0.1925,-0.6475000000000001,-3.4475000000000002,1.14215625,0.16543750000000002,-0.1544375,1.33203125,1.10559375,-0.29684375,-0.9136875,1.2736875,0.019026391030728014,0.030475215682142596,True
50538,141548,0,141549,4016.0,42012.0,30432.0,-0.00488,-0.000488,0.000915,0.29750000000000004,0.1925,-3.535,1.1455625,0.16509375,-0.15559375,1.33478125,1.0975625,-0.2969375,-0.9148125,1.2745312500000001,0.0190160282545897,0.030472585334527406,True
50539,141549,0,141550,4008.0,42004.0,30421.0,-0.006588,0.000366,0.000549,0.14,0.35000000000000003,-3.5000000000000004,1.1455625,0.16693750000000002,-0.15496875000000002,1.3326875,1.10209375,-0.29425,-0.91221875,1.27228125,0.018983401422147217,0.030396730520038485,True
50540,141550,0,141551,4000.0,41991.0,30406.0,-0.007625,-0.00061,0.0028669999999999998,0.10500000000000001,0.35000000000000003,-3.5525,1.1333125,0.1716875,-0.1556875,1.33434375,1.1070312500000001,-0.29690625,-0.91440625,1.27659375,0.0192861488281044,0.030453013504987702,True
50541,141551,0,141552,3994.0,41982.0,30398.0,-0.00488,-0.000549,0.001952,0.14,0.1925,-3.6225000000000005,1.14890625,0.16959375000000002,-0.155,1.33278125,1.11096875,-0.29459375,-0.9109375000000001,1.27353125,0.01910661708430502,0.03034560622216647,True
50542,141552,0,141553,3988.0,41973.0,30390.0,-0.00488,-0.000244,0.0008539999999999999,0.08750000000000001,-0.10500000000000001,-3.7625,1.14021875,0.165125,-0.15584375,1.3354375,1.11034375,-0.2973125,-0.916,1.277375,0.019032454721072543,0.030508759431690482,True
50543,141553,0,141554,3982.0,41967.0,30383.0,0.0008539999999999999,-0.001403,0.001464,0.0175,-1.0850000000000002,-3.8675,1.146125,0.167125,-0.15559375,1.3321875,1.10471875,-0.29181250000000003,-0.9127500000000001,1.27234375,0.0188926824624552,0.03039231919398702,True
50544,141554,0,141555,3975.0,41961.0,30378.0,0.002196,-0.001464,0.000915,0.1925,-1.4700000000000002,-3.8850000000000002,1.14484375,0.16790625,-0.154875,1.3335625,1.094625,-0.29446875,-0.91290625,1.26615625,0.019032109932430607,0.030427250935446366,True
50545,141555,0,141556,3970.0,41956.0,30375.0,0.00366,-0.0011589999999999999,0.00042699999999999997,0.21000000000000002,-1.8375000000000001,-3.9025000000000003,1.14534375,0.16568750000000002,-0.15753125,1.33403125,1.1055,-0.29846875,-0.9169375000000001,1.27178125,0.01910228396593921,0.03047751153206529,True
50546,141556,0,141557,3965.0,41954.0,30371.0,0.005307,-0.000244,-0.000366,0.36750000000000005,-2.1525000000000003,-3.9550000000000005,1.1444375,0.1675,-0.1553125,1.33675,1.10259375,-0.29365625,-0.91096875,1.28340625,0.018982579042625583,0.030334277947339967,True
50547,141557,0,141558,3961.0,41954.0,30371.0,0.0037819999999999998,0.0011589999999999999,-0.0006709999999999999,0.4025,-2.1525000000000003,-3.8325000000000005,1.16015625,0.166375,-0.15615625,1.3293125000000001,1.11671875,-0.29828125,-0.9114375,1.2711875000000001,0.019123008957680907,0.030318653831197015,True
50548,141558,0,141559,3958.0,41953.0,30371.0,0.001952,0.00122,-0.0017079999999999999,0.47250000000000003,-1.9600000000000002,-3.6750000000000003,1.14065625,0.15640625,-0.15978125,1.3292187500000001,1.11178125,-0.29875,-0.913375,1.2709062500000001,0.018731673439991773,0.030248561264782474,True
50549,141559,0,141560,3952.0,41953.0,30371.0,0.000488,0.00042699999999999997,-0.002013,0.5775,-1.6625,-3.5875000000000004,1.1368125,0.17140625,-0.1638125,1.33371875,1.101625,-0.29615625,-0.9184687500000001,1.26975,0.019244299188271807,0.030285017011729504,True
50550,141560,0,141561,3952.0,41951.0,30368.0,-0.001281,-0.000488,-0.000122,0.56,-1.61,-3.6400000000000006,1.1321875000000001,0.17309375,-0.15837500000000002,1.3550312500000001,1.10153125,-0.2981875,-0.91521875,1.275125,0.019395736821933733,0.030376765205001457,True
50551,141561,0,141562,3947.0,41949.0,30368.0,-0.0040869999999999995,0.000488,-0.00042699999999999997,0.47250000000000003,-1.5225000000000002,-3.7100000000000004,1.14759375,0.16965625,-0.141875,1.3494375,1.1025625000000001,-0.286875,-0.9144375,1.27725,0.01879744718083327,0.031008627025996476,True
50552,141562,0,141563,3947.0,41948.0,30365.0,-0.0046359999999999995,0.0011589999999999999,0.000122,0.56,-1.3825,-3.7100000000000004,1.16859375,0.16753125,-0.1495,1.3420625,1.0987500000000001,-0.29315625,-0.91046875,1.28315625,0.01896367418292961,0.030548150564208072,True
50553,141563,0,141564,3942.0,41950.0,30365.0,-0.001464,0.000244,0.0,0.4025,-1.8725000000000003,-3.8850000000000002,1.1683125,0.16271875,-0.151125,1.3220625,1.10990625,-0.29340625,-0.91078125,1.27859375,0.01877567086748076,0.030495079314302915,True
50554,141564,0,141565,3940.0,41944.0,30365.0,-0.000549,-0.000183,-0.0018909999999999999,0.36750000000000005,-1.9775000000000003,-3.8675,1.1440625,0.1594375,-0.166,1.35428125,1.1164375,-0.296625,-0.91328125,1.2708125000000001,0.01877061114455197,0.02999529618363699,True
50555,141565,0,141566,3939.0,41943.0,30365.0,0.0,0.000183,0.0015249999999999999,0.36750000000000005,-2.2750000000000004,-3.9725000000000006,1.13634375,0.176875,-0.15003125,1.32365625,1.10228125,-0.293,-0.911625,1.27990625,0.019341991520191,0.030571821388608734,True
50556,141566,0,141567,3940.0,41940.0,30364.0,0.001769,-0.002196,0.000488,0.2625,-2.66,-4.0425,1.1414375,0.1615,-0.15840625,1.3473125000000001,1.11003125,-0.29540625,-0.9098125,1.28059375,0.018806281537276207,0.030165070491799166,True
50557,141567,0,141568,3936.0,41943.0,30364.0,0.002928,-0.002928,-0.000366,0.035,-2.9575000000000005,-4.2525,1.1660625,0.162625,-0.15225,1.32184375,1.09159375,-0.2944375,-0.9126562500000001,1.27296875,0.0188134629583418,0.030522889344647863,True
50558,141568,0,141569,3934.0,41941.0,30365.0,0.003904,0.0006709999999999999,0.00042699999999999997,0.45500000000000007,-3.1675000000000004,-4.235,1.13240625,0.16425,-0.1574375,1.34428125,1.108125,-0.29465625,-0.91290625,1.27596875,0.01888918473584083,0.03032439260272976,True
50559,141569,0,141570,3933.0,41941.0,30365.0,0.004758,0.001769,0.00061,0.6300000000000001,-3.0100000000000002,-4.112500000000001,1.1518125000000001,0.16996875,-0.15246875000000001,1.33334375,1.1050625,-0.29421875000000003,-0.91246875,1.274125,0.019106912009673085,0.030506811975428972,True
50560,141570,0,141571,3933.0,41942.0,30367.0,0.003355,0.0032329999999999998,-0.000244,0.5950000000000001,-2.9575000000000005,-4.130000000000001,1.1437187500000001,0.16434375,-0.1565,1.33478125,1.114125,-0.29812500000000003,-0.91553125,1.276375,0.019033104406204183,0.030464180851050487,True
50561,141571,0,141572,3931.0,41940.0,30365.0,0.000305,0.00244,-6.1e-05,0.385,-2.5725000000000002,-4.077500000000001,1.15178125,0.1678125,-0.15515625,1.3330312500000001,1.1069375000000001,-0.29434375,-0.91209375,1.2726875,0.019023203703536964,0.030384338931768833,True
50562,141572,0,141573,3930.0,41940.0,30364.0,-0.001037,-0.000915,-0.00061,0.2625,-2.2575000000000003,-3.9025000000000003,1.14415625,0.16718750000000002,-0.15475,1.3394062500000001,1.1044375,-0.29025,-0.91146875,1.27803125,0.018832144584761377,0.03037632014370891,True
50563,141573,0,141574,3928.0,41935.0,30365.0,0.001464,-6.1e-05,-0.0015249999999999999,0.2625,-1.54,-3.7800000000000002,1.1508125,0.1665,-0.15496875000000002,1.33821875,1.1124687500000001,-0.29434375,-0.9116875,1.2730625,0.018969178782612724,0.030376053408666115,True
50564,141574,0,141575,3927.0,41935.0,30360.0,0.001403,0.001464,0.000793,0.21000000000000002,-1.225,-3.8675,1.1520625,0.17371875,-0.15315625,1.33784375,1.11109375,-0.29409375,-0.91096875,1.27475,0.019256223541987444,0.030420836202927678,True
50565,141575,0,141576,3925.0,41931.0,30357.0,-0.00042699999999999997,0.000488,0.0011589999999999999,0.15750000000000003,-0.9100000000000001,-3.8675,1.1519375,0.1668125,-0.15525,1.33628125,1.11209375,-0.294375,-0.9121875,1.2730625,0.018983303748295644,0.0303842245888684,True
50566,141576,0,141577,3924.0,41929.0,30357.0,-0.0044529999999999995,-0.001769,0.002745,-0.052500000000000005,-0.525,-3.8675,1.1504375,0.16690625,-0.155,1.328125,1.1045625000000001,-0.29775,-0.91246875,1.2730937500000001,0.019123427066292147,0.030405206228306864,True
50567,141577,0,141578,3924.0,41926.0,30353.0,-0.008173999999999999,-0.0017079999999999999,0.002379,-0.17500000000000002,-0.5950000000000001,-3.8850000000000002,1.1513125,0.16584375,-0.15484375,1.3261875,1.1109375000000001,-0.2985,-0.91209375,1.27375,0.01910997592443978,0.030396883039989362,True
50568,141578,0,141579,3923.0,41922.0,30353.0,-0.005124,-0.001403,0.0,0.08750000000000001,-1.61,-3.8325000000000005,1.14465625,0.16593750000000002,-0.15534375,1.33259375,1.11028125,-0.2975625,-0.9140625,1.27334375,0.019075987560480602,0.03045343367826905,True
50569,141579,0,141580,3922.0,41925.0,30354.0,-0.0006709999999999999,0.000244,-0.000549,0.17500000000000002,-2.1,-3.7275000000000005,1.14459375,0.1648125,-0.1585625,1.3326875,1.105,-0.29565625,-0.914375,1.2705,0.01895271917176553,0.030336402177457793,True
50570,141580,0,141581,3921.0,41927.0,30355.0,0.004392,0.0021349999999999997,-0.002196,0.28,-2.6950000000000003,-3.7975000000000003,1.1490625,0.16453125,-0.15496875000000002,1.33090625,1.09909375,-0.29775,-0.9128437500000001,1.273375,0.019025681390252184,0.030421055404403603,True
50571,141581,0,141582,3921.0,41932.0,30359.0,0.0077469999999999995,0.000549,-0.002196,0.385,-2.9575000000000005,-3.8500000000000005,1.1496250000000001,0.16446875,-0.1573125,1.3265,1.10459375,-0.29590625,-0.9130625,1.269625,0.018948665477337357,0.030335491672290393,True
50572,141582,0,141583,3921.0,41934.0,30362.0,0.007137,0.0006709999999999999,-0.0015249999999999999,0.31500000000000006,-2.9575000000000005,-3.7275000000000005,1.14453125,0.17034375000000002,-0.1555625,1.3330312500000001,1.104625,-0.29596875,-0.915125,1.27334375,0.019192998838541888,0.0304859999698978,True
50573,141583,0,141584,3920.0,41936.0,30364.0,0.002623,-0.0015249999999999999,-0.000732,0.15750000000000003,-2.3625000000000003,-3.7450000000000006,1.15125,0.16353125000000002,-0.156,1.327375,1.10621875,-0.29696875,-0.9148437500000001,1.27384375,0.018952981531904056,0.030457495845222792,True
50574,141584,0,141585,3920.0,41936.0,30366.0,-0.000488,-0.000244,-0.00042699999999999997,0.22750000000000004,-2.0475000000000003,-3.6400000000000006,1.144875,0.16553125,-0.1585,1.3335000000000001,1.10375,-0.29453125,-0.9135,1.27275,0.018936874939704796,0.030304854797599697,True
50575,141585,0,141586,3921.0,41938.0,30366.0,-0.000793,0.00122,0.000305,0.3325,-1.5925000000000002,-3.7100000000000004,1.14396875,0.16443750000000001,-0.1589375,1.33275,1.104125,-0.2960625,-0.9135,1.27284375,0.018953688483473403,0.0302872940373693,True
50576,141586,0,141587,3921.0,41939.0,30372.0,-0.000915,0.000915,0.000793,0.36750000000000005,-1.12,-3.6575,1.144625,0.17028125,-0.15778125,1.33259375,1.10390625,-0.29440625,-0.91309375,1.2780625,0.019127345415161152,0.03031789257406058,True
50577,141587,0,141588,3923.0,41940.0,30373.0,-0.0018909999999999999,0.000549,0.000976,0.4025,-0.9100000000000001,-3.6225000000000005,1.140125,0.16740625,-0.1539375,1.34046875,1.10478125,-0.29365625,-0.9120312500000001,1.27909375,0.018978720010496566,0.03043082847770593,True
50578,141588,0,141589,3921.0,41938.0,30374.0,-0.002745,6.1e-05,0.000183,0.42000000000000004,-0.5425000000000001,-3.7800000000000002,1.14365625,0.16653125,-0.15315625,1.3324375,1.11021875,-0.29353125,-0.91146875,1.27325,0.018937654442476328,0.030440296700691323,True
50579,141589,0,141590,3922.0,41941.0,30378.0,-0.002074,-0.0008539999999999999,0.000915,0.36750000000000005,-0.45500000000000007,-3.7275000000000005,1.14734375,0.165,-0.155625,1.33259375,1.1053125,-0.297875,-0.91509375,1.2819375,0.01905001980625878,0.03048227542792208,True
50580,141590,0,141591,3922.0,41944.0,30380.0,-0.0011589999999999999,-0.000732,0.000122,0.3325,-0.5075000000000001,-3.6925000000000003,1.145375,0.16728125,-0.15415625,1.33246875,1.09853125,-0.29409375,-0.91246875,1.2715,0.01899124144114246,0.0304390748106809,True
50581,141591,0,141592,3924.0,41945.0,30380.0,-0.000976,-0.000732,0.0,0.4025,-0.525,-3.6750000000000003,1.15134375,0.16409375,-0.15540625,1.3330312500000001,1.1038125,-0.30025,-0.9061875,1.27984375,0.019108599705764347,0.030144366736177507,True
50582,141592,0,141593,3923.0,41947.0,30383.0,-0.0008539999999999999,-0.000122,-0.000976,0.385,-0.5775,-3.7275000000000005,1.14509375,0.16734375,-0.15846875,1.33925,1.10440625,-0.29303125,-0.90925,1.28321875,0.01895090798930249,0.03014066059797063,True
50583,141593,0,141594,3926.0,41948.0,30387.0,0.000366,-6.1e-05,-0.000305,0.385,-0.8225000000000001,-3.8500000000000005,1.144375,0.1655,-0.1550625,1.33271875,1.1185625000000001,-0.295875,-0.9138437500000001,1.26996875,0.018989849099898645,0.03045620971272247,True
50584,141594,0,141595,3925.0,41951.0,30388.0,-0.00061,-0.000549,-6.1e-05,0.385,-0.8750000000000001,-3.8675,1.1455625,0.16765625,-0.15459375,1.34025,1.09175,-0.29140625000000003,-0.9093125,1.268375,0.01889814427684688,0.030298658383285368,True
50585,141595,0,141596,3925.0,41950.0,30391.0,0.000244,0.000915,-6.1e-05,0.5075000000000001,-0.7875000000000001,-3.9550000000000005,1.15246875,0.16615625,-0.15525,1.3293125000000001,1.11434375,-0.29746875,-0.91121875,1.2749375,0.019081205732593032,0.03034651807230427,True
50586,141596,0,141597,3926.0,41949.0,30391.0,0.00061,0.001098,0.000244,0.47250000000000003,-0.7350000000000001,-3.9725000000000006,1.1449375,0.16740625,-0.1545625,1.33384375,1.101625,-0.2864375,-0.9050312500000001,1.2684375,0.018687127331869894,0.03013321856402007,True
50587,141597,0,141598,3927.0,41951.0,30390.0,-0.002074,0.001464,0.001403,0.49000000000000005,-0.77,-3.8675,1.14525,0.1655,-0.15646875,1.3375937500000001,1.0967500000000001,-0.29128125,-0.9147500000000001,1.28365625,0.018804329228208166,0.030435033464112624,True
50588,141598,0,141599,3927.0,41951.0,30393.0,-0.001464,0.0,0.001281,0.42000000000000004,-0.8925000000000001,-3.9025000000000003,1.1431875,0.1670625,-0.15475,1.32815625,1.1162812500000001,-0.29828125,-0.9087500000000001,1.2619375,0.01915130314001119,0.030270487278566766,True
50589,141599,0,141600,3927.0,41950.0,30391.0,-0.0017079999999999999,-0.001403,0.00061,0.28,-1.0150000000000001,-3.9375000000000004,1.140625,0.164125,-0.15828125,1.331875,1.09859375,-0.29821875000000003,-0.91634375,1.2748125000000001,0.019027886560614656,0.030424307338431225,True
50590,141600,0,141601,3928.0,41950.0,30395.0,-0.00122,-0.002257,0.001769,0.1925,-1.4000000000000001,-4.0425,1.145,0.1640625,-0.157,1.32596875,1.09790625,-0.29153125,-0.9079375000000001,1.27728125,0.01875525035088103,0.030148521932014647,True
50591,141601,0,141602,3930.0,41950.0,30397.0,-0.002013,-0.0011589999999999999,0.0017079999999999999,0.35000000000000003,-1.8900000000000001,-4.0075,1.13603125,0.168125,-0.1496875,1.3385625,1.09709375,-0.29359375,-0.908875,1.27765625,0.019005782131348927,0.03047859447686819,True
50592,141602,0,141603,3931.0,41959.0,30404.0,-0.002989,0.000976,-0.0008539999999999999,0.5775,-3.0275000000000003,-3.9375000000000004,1.15246875,0.16446875,-0.1544375,1.33334375,1.10825,-0.29746875,-0.91096875,1.27278125,0.01901175405359869,0.030369403036563963,True
50593,141603,0,141604,3934.0,41960.0,30404.0,-0.000549,0.000305,-0.001037,0.6475000000000001,-3.5700000000000003,-3.9200000000000004,1.1449375,0.1675,-0.15459375,1.33403125,1.10534375,-0.2936875,-0.9117500000000001,1.2726250000000001,0.018983840966917846,0.030393539193352536,True
50594,141604,0,141605,3933.0,41964.0,30408.0,0.002257,0.001586,-0.004026,0.5425000000000001,-3.9725000000000006,-4.025,1.1499375,0.173375,-0.15746875,1.33009375,1.111,-0.29431250000000003,-0.9146875,1.2710000000000001,0.019250904918589485,0.030392464284370417,True
50595,141605,0,141606,3935.0,41969.0,30414.0,0.006039,0.000488,-0.002989,0.525,-4.2700000000000005,-4.077500000000001,1.1510625,0.16696875,-0.15475,1.332375,1.11190625,-0.29434375,-0.91125,1.2730000000000001,0.018988473397228523,0.030367805710271464,True
50596,141606,0,141607,3937.0,41972.0,30415.0,0.007686,0.000122,-0.0017079999999999999,0.43750000000000006,-4.235,-4.112500000000001,1.144875,0.1670625,-0.15803125,1.33971875,1.1051875,-0.29359375,-0.909625,1.28040625,0.018962046321368158,0.030172824761512874,True
50597,141607,0,141608,3939.0,41970.0,30415.0,0.004697,-0.001464,0.00042699999999999997,0.3325,-3.5525,-4.0600000000000005,1.14775,0.16771875,-0.154375,1.3330625,1.10975,-0.2939375,-0.9129375000000001,1.27365625,0.019002940548439297,0.0304485370302077,True
50598,141608,0,141609,3940.0,41967.0,30410.0,0.001281,-0.00122,0.001586,0.42000000000000004,-3.1325000000000003,-4.077500000000001,1.14825,0.16509375,-0.15703125,1.332125,1.1049375000000001,-0.2966875,-0.91521875,1.27365625,0.019005934450941103,0.030430698104948407,True
50599,141609,0,141610,3939.0,41963.0,30405.0,-0.001403,0.000244,0.000793,0.45500000000000007,-2.8000000000000003,-4.1475,1.1451875,0.16703125,-0.15296875000000001,1.3375625,1.10459375,-0.2936875,-0.90725,1.2819375,0.01896454583109295,0.030283602164028544,True
50600,141610,0,141611,3937.0,41956.0,30396.0,-0.0013419999999999999,0.001647,0.00122,0.5075000000000001,-2.4675000000000002,-4.1475,1.15375,0.17065625,-0.1548125,1.33225,1.10709375,-0.29428125,-0.91178125,1.27296875,0.019137734317618473,0.030385974507543493,True
50601,141611,0,141612,3934.0,41953.0,30385.0,0.000183,0.000915,0.0015249999999999999,0.42000000000000004,-2.2575000000000003,-4.1825,1.14478125,0.18081250000000001,-0.15496875000000002,1.34525,1.1050625,-0.2931875,-0.91225,1.28103125,0.019511642924585338,0.03039794679324429,True
50602,141612,0,141613,3931.0,41948.0,30380.0,-0.001647,-0.000183,0.000244,0.24500000000000002,-1.995,-4.0075,1.1565625,0.16140625,-0.16065625,1.32684375,1.1044375,-0.29578125,-0.915375,1.2730937500000001,0.018817567350298724,0.030291286003120567,True
50603,141613,0,141614,3925.0,41946.0,30375.0,-0.003721,-0.001769,-0.000549,0.22750000000000004,-2.0300000000000002,-3.7975000000000003,1.14259375,0.16878125,-0.1538125,1.33,1.10578125,-0.29325,-0.9116875,1.27428125,0.019018914719109218,0.03042246736597029,True
50604,141614,0,141615,3918.0,41944.0,30368.0,-0.003721,-0.000915,-0.000183,0.28,-2.1,-3.7100000000000004,1.1420937500000001,0.1686875,-0.152875,1.33471875,1.10140625,-0.29315625,-0.9127500000000001,1.27975,0.019011269892112104,0.03050145006071189,True
50605,141615,0,141616,3912.0,41942.0,30364.0,-0.002257,-0.000366,-0.0011589999999999999,0.3325,-2.24,-3.8150000000000004,1.15328125,0.16753125,-0.15975,1.33234375,1.1116875,-0.296875,-0.9130625,1.27425,0.019113826366559488,0.030237651432857768,True
50606,141616,0,141617,3907.0,41942.0,30362.0,0.001037,0.000793,-0.001464,0.4025,-2.3800000000000003,-3.8150000000000004,1.14290625,0.16884375000000001,-0.15465625,1.3412187500000001,1.10496875,-0.29353125,-0.911375,1.2786875,0.0190328443914468,0.030376434460161278,True
50607,141617,0,141618,3897.0,41943.0,30359.0,0.003904,0.000305,-0.0006709999999999999,0.24500000000000002,-2.205,-3.9025000000000003,1.14225,0.16815625,-0.153125,1.3410312500000001,1.10490625,-0.2939375,-0.91090625,1.27903125,0.019020949156553977,0.030419658056398492,True
50608,141618,0,141619,3892.0,41941.0,30357.0,0.001769,-0.000122,-0.000305,0.22750000000000004,-2.0825,-3.9375000000000004,1.14778125,0.1638125,-0.15796875,1.32996875,1.11128125,-0.2956875,-0.91209375,1.263625,0.018912821462656697,0.03027144195778406,True
50609,141619,0,141620,3887.0,41942.0,30355.0,-0.001098,-0.000976,0.000122,0.24500000000000002,-1.9250000000000003,-3.7800000000000002,1.14146875,0.1683125,-0.15184375,1.34025,1.10365625,-0.29284375,-0.9131875,1.269875,0.018983213935173812,0.030559869145608123,True
50610,141620,0,141621,3883.0,41941.0,30353.0,-0.003721,-0.000305,6.1e-05,0.31500000000000006,-1.7850000000000001,-3.9550000000000005,1.15446875,0.1633125,-0.15528125,1.32915625,1.1087500000000001,-0.29371875000000003,-0.908875,1.2734375,0.01881273322965427,0.030254025924494783,True
50611,141621,0,141622,3878.0,41941.0,30349.0,-0.002928,0.000488,0.001647,0.43750000000000006,-1.7325000000000002,-4.077500000000001,1.14146875,0.16790625,-0.15359375,1.33690625,1.10528125,-0.293875,-0.9144375,1.27753125,0.019008134766479206,0.030538267219558945,True
50612,141622,0,141623,3875.0,41941.0,30350.0,-0.0008539999999999999,0.000244,0.0011589999999999999,0.3325,-2.1525000000000003,-4.0600000000000005,1.14834375,0.16909375000000001,-0.1540625,1.3320625,1.1091875,-0.29531250000000003,-0.9116875,1.27128125,0.019115055630587175,0.03041243191574236,True
50613,141623,0,141624,3872.0,41941.0,30352.0,-0.001403,-0.0006709999999999999,-0.000732,0.21000000000000002,-2.5375,-4.095000000000001,1.15090625,0.168375,-0.1540625,1.33684375,1.1095,-0.2945,-0.912,1.27921875,0.01905266624133034,0.030424594572896597,True
50614,141624,0,141625,3867.0,41942.0,30351.0,0.000793,-0.0013419999999999999,-0.000488,0.35000000000000003,-2.8525000000000005,-4.1475,1.1484375,0.17475000000000002,-0.15396875000000002,1.3401875,1.10721875,-0.29125,-0.91153125,1.28128125,0.019183862501929706,0.030410113790174984,True
50615,141625,0,141626,3864.0,41943.0,30351.0,0.002257,-0.0006709999999999999,0.00042699999999999997,0.42000000000000004,-3.08,-4.1475,1.14475,0.16759375,-0.153,1.339375,1.10728125,-0.2935,-0.9114375,1.28784375,0.018980128429415273,0.03044535266180444,True
50616,141626,0,141627,3863.0,41944.0,30355.0,0.003355,0.00042699999999999997,-0.000732,0.4025,-3.3425000000000002,-4.2,1.1446875,0.16696875,-0.15471875000000002,1.333625,1.10825,-0.29475,-0.913125,1.26146875,0.0190048775970117,0.03044203607536188,True
50617,141627,0,141628,3864.0,41948.0,30356.0,0.002745,0.00042699999999999997,-0.000915,0.28,-3.3775000000000004,-4.077500000000001,1.14928125,0.16459375,-0.1551875,1.3331875,1.10184375,-0.295375,-0.91759375,1.29440625,0.018932358525027913,0.03059710570969558,True
50618,141628,0,141629,3859.0,41952.0,30356.0,0.002013,-0.0006709999999999999,-0.001098,0.3325,-3.1850000000000005,-3.9375000000000004,1.14475,0.16778125,-0.1545,1.3332187500000001,1.10734375,-0.287125,-0.90596875,1.2621875,0.018730345810794816,0.030172235320097718,True
50619,141629,0,141630,3861.0,41953.0,30357.0,0.0,0.000793,-0.000488,0.43750000000000006,-3.0625000000000004,-3.9200000000000004,1.1480000000000001,0.17203125,-0.15715625,1.3395000000000001,1.0855625,-0.289125,-0.912875,1.29490625,0.0189861203316299,0.030334465612660122,True
50620,141630,0,141631,3858.0,41952.0,30360.0,0.000793,0.0011589999999999999,0.0,0.5425000000000001,-2.7300000000000004,-3.9375000000000004,1.14384375,0.16796875,-0.15409375,1.33346875,1.12909375,-0.2983125,-0.9110625,1.25428125,0.01918986143585074,0.030386851223226628,True
50621,141631,0,141632,3858.0,41953.0,30360.0,-0.000122,0.000488,0.000732,0.42000000000000004,-2.5725000000000002,-4.0425,1.14425,0.16725,-0.1564375,1.3391875,1.0918125,-0.2894375,-0.90509375,1.28390625,0.018801896915068537,0.030060366666959448,True
50622,141632,0,141633,3858.0,41953.0,30361.0,-0.0044529999999999995,-0.000305,0.001769,0.28,-2.7125000000000004,-4.235,1.15109375,0.165125,-0.15471875000000002,1.325625,1.12190625,-0.30284375,-0.921625,1.2766250000000001,0.019255719816739555,0.030772722484990446,True
