frame_seq,absolute_seq_u64,segment_id,sample_seq,PPG_G,PPG_R,PPG_IR,ACC_X,ACC_Y,ACC_Z,GYRO_X,GYRO_Y,GYRO_Z,Uh1,Uh2,Uh3,Uh4,Uc1,Uc2,Uc3,Uc4,UD1,UD2,parser_valid
43454,329,0,330,4681.0,43263.0,31528.0,0.008173999999999999,0.001037,-0.00122,0.36750000000000005,-2.3625000000000003,-4.1475,1.15084375,0.3233125,0.216375,1.40721875,1.096125,-0.14128125,-0.333625,1.3669375000000001,0.019244784284181273,0.022602468806024584,True
43455,330,0,331,4680.0,43265.0,31527.0,0.0050019999999999995,0.001281,0.002379,0.385,-2.1175,-4.1475,1.1499062500000001,0.31903125,0.21559375,1.403375,1.10128125,-0.13528125,-0.3294375,1.34840625,0.018823584249717414,0.02240213116312286,True
43456,331,0,332,4681.0,43262.0,31525.0,0.0011589999999999999,0.003721,0.004331,0.47250000000000003,-1.6625,-3.9375000000000004,1.14446875,0.32156250000000003,0.21456250000000002,1.4081875,1.1107500000000001,-0.13628125,-0.33137500000000003,1.34734375,0.018969109004727064,0.022437593436458073,True
43457,332,0,333,4682.0,43261.0,31529.0,-0.003355,0.001403,0.0028669999999999998,0.385,-1.155,-3.7625,1.1455,0.32290625,0.21703125,1.4103125,1.11290625,-0.139625,-0.33196875000000003,1.3524375,0.019160664260526004,0.022562909135743485,True
43458,333,0,334,4681.0,43264.0,31526.0,-0.0050019999999999995,-0.000793,0.000976,0.4025,-1.2075,-3.7800000000000002,1.14884375,0.32353125,0.21696875000000002,1.4074375000000001,1.10984375,-0.1398125,-0.33165625,1.3525625000000001,0.01919417352558144,0.02254778689798398,True
43459,334,0,335,4680.0,43261.0,31530.0,-0.002196,0.000244,-0.000915,0.35000000000000003,-1.2425000000000002,-3.8150000000000004,1.145,0.32246875,0.21665625,1.39665625,1.109875,-0.13721875,-0.33340625,1.3590312500000001,0.019044758418987277,0.022605240480871848,True
43460,335,0,336,4679.0,43263.0,31527.0,-0.000976,-0.0013419999999999999,-0.0018909999999999999,0.36750000000000005,-1.0325000000000002,-3.5000000000000004,1.14603125,0.32256250000000003,0.2173125,1.40375,1.108375,-0.130625,-0.33034375,1.35628125,0.018780595198010827,0.022509186702304604,True
43461,336,0,337,4680.0,43262.0,31527.0,-0.001403,-0.0018909999999999999,-0.002745,0.24500000000000002,-0.7875000000000001,-3.3075,1.14446875,0.32234375,0.21428125,1.40396875,1.10934375,-0.137,-0.3305625,1.36015625,0.019030689398019638,0.022393388973230684,True
43462,337,0,338,4679.0,43263.0,31529.0,-0.000915,-0.0018909999999999999,-0.001281,0.1925,-0.5075000000000001,-3.3075,1.14396875,0.32121875,0.21415625,1.4034375000000001,1.11640625,-0.13784375000000001,-0.33103125,1.35340625,0.019018372343221422,0.02240708560184846,True
43463,338,0,339,4679.0,43262.0,31527.0,0.000305,-0.00042699999999999997,0.000366,0.21000000000000002,-0.6475000000000001,-3.4650000000000003,1.14459375,0.32371875,0.21496875000000001,1.4085625,1.10096875,-0.1363125,-0.3305,1.35246875,0.019059715521996163,0.022419134419761205,True
43464,339,0,340,4679.0,43260.0,31526.0,0.003843,0.0013419999999999999,0.00244,0.4025,-2.1525000000000003,-3.7975000000000003,1.1489375,0.32325,0.21634375,1.40421875,1.1096875,-0.13909375000000002,-0.33203125,1.35403125,0.01915331846291868,0.022537164873976563,True
43465,340,0,341,4680.0,43259.0,31526.0,0.003721,0.001037,0.0,0.47250000000000003,-3.08,-3.9200000000000004,1.151125,0.31790625,0.21190625000000002,1.40253125,1.1018125,-0.137375,-0.33159375,1.3608437500000001,0.018862086287344832,0.022337213319616602,True
43466,341,0,342,4679.0,43258.0,31524.0,0.006771,-0.000122,-0.001647,0.47250000000000003,-3.2725000000000004,-4.077500000000001,1.14346875,0.319125,0.2088125,1.39896875,1.1108125,-0.1374375,-0.3275,1.35653125,0.018915118889484436,0.022045524612064535,True
43467,342,0,343,4678.0,43258.0,31524.0,0.008052,-0.00183,6.1e-05,0.29750000000000004,-2.6775,-4.0425,1.13765625,0.32,0.21131250000000001,1.3988125,1.10853125,-0.1365625,-0.33253125,1.35778125,0.018915804601421598,0.02235047987455066,True
43468,343,0,344,4679.0,43259.0,31523.0,0.003355,-0.0017079999999999999,0.00042699999999999997,0.29750000000000004,-1.7500000000000002,-3.8850000000000002,1.13734375,0.3208125,0.21240625,1.3994375000000001,1.10990625,-0.136875,-0.33034375,1.358,0.018962168880602814,0.022307535215156996,True
43469,344,0,345,4678.0,43258.0,31524.0,-0.007503,0.000244,-0.001037,0.43750000000000006,-0.49000000000000005,-3.325,1.13821875,0.3221875,0.21321875,1.3980000000000001,1.10871875,-0.1345,-0.33265625,1.35996875,0.01892260042677495,0.022433843407457826,True
43470,345,0,346,4678.0,43262.0,31527.0,-0.008113,0.002196,-0.000366,0.35000000000000003,0.17500000000000002,-3.2725000000000004,1.15346875,0.31521875,0.21734375,1.39928125,1.10928125,-0.13665625,-0.334125,1.35446875,0.018721524444795454,0.022662362012194806,True
43471,346,0,347,4680.0,43259.0,31527.0,-0.008052,0.003355,0.001464,0.28,0.31500000000000006,-3.3075,1.15265625,0.3155,0.21534375,1.398625,1.1088125,-0.13671875,-0.33440625,1.3589375000000001,0.018735717753681824,0.022591469639823242,True
43472,347,0,348,4678.0,43260.0,31526.0,-0.0070149999999999995,0.001464,0.003172,0.24500000000000002,-0.15750000000000003,-3.325,1.1303750000000001,0.32115625000000003,0.213875,1.41396875,1.11025,-0.13634375,-0.33071875,1.3520625,0.01895481787708629,0.0223829700879675,True
43473,348,0,349,4678.0,43258.0,31528.0,-0.004941,0.00042699999999999997,0.000732,0.29750000000000004,-1.0325000000000002,-3.4825000000000004,1.1410625,0.3249375,0.2186875,1.4057187500000001,1.1170625,-0.13978125,-0.33153125,1.3526562500000001,0.019251158292911207,0.022613404160496474,True
43474,349,0,350,4680.0,43259.0,31529.0,0.005612,-0.001586,-0.001037,0.385,-2.9400000000000004,-3.7100000000000004,1.1537187500000001,0.3209375,0.21625,1.414625,1.1085,-0.1375,-0.327375,1.3406875,0.018992749870533402,0.02234622518870203,True
43475,350,0,351,4677.0,43259.0,31527.0,0.010248,-0.002623,6.1e-05,0.2625,-3.2375000000000003,-3.9200000000000004,1.1495625,0.31928125,0.21809375,1.4021875,1.1127500000000001,-0.13915625,-0.33340625,1.3599375,0.018991446728797743,0.022664315646314416,True
43476,351,0,352,4679.0,43261.0,31523.0,0.012078,-0.00244,-0.0013419999999999999,0.28,-3.1325000000000003,-3.9550000000000005,1.1379062500000001,0.325125,0.21965625,1.406625,1.11640625,-0.13909375000000002,-0.33121875,1.3515625,0.019230993292778442,0.022640666119530077,True
43477,352,0,353,4678.0,43259.0,31527.0,0.007869,-0.002196,-0.0015249999999999999,0.24500000000000002,-2.6250000000000004,-3.9025000000000003,1.1473125,0.32421875,0.215625,1.4111562500000001,1.1086875,-0.1368125,-0.32509375,1.35546875,0.019100751186595162,0.022228845469506157,True
43478,353,0,354,4680.0,43259.0,31527.0,0.002745,-0.001647,-0.001281,0.36750000000000005,-2.1,-3.7275000000000005,1.1457187500000001,0.32340625,0.215625,1.40453125,1.1144375,-0.14028125,-0.3338125,1.35078125,0.01920804050284211,0.022579178663433855,True
43479,354,0,355,4679.0,43260.0,31526.0,-0.0051849999999999995,0.002806,0.000549,0.36750000000000005,-0.8400000000000001,-3.5875000000000004,1.1449375,0.3265,0.213375,1.4073125,1.11534375,-0.13759375000000001,-0.3311875,1.352125,0.019227009734555666,0.02238125451131393,True
43480,355,0,356,4678.0,43258.0,31528.0,-0.005673,0.0030499999999999998,0.000122,0.36750000000000005,-0.665,-3.535,1.1501875,0.323375,0.21675,1.39890625,1.10859375,-0.13846875,-0.33246875,1.3573125,0.01913310056173302,0.02257143554330055,True
43481,356,0,357,4679.0,43261.0,31529.0,-0.0060999999999999995,0.003477,0.001769,0.3325,-0.5775,-3.4475000000000002,1.150625,0.32278125,0.2141875,1.40478125,1.102625,-0.13628125,-0.3311875,1.35640625,0.01901960352736609,0.02241464786706362,True
43482,357,0,358,4678.0,43261.0,31531.0,-0.0051849999999999995,0.002989,0.0018909999999999999,0.35000000000000003,-0.7000000000000001,-3.3600000000000003,1.1416250000000001,0.323375,0.21728125,1.41146875,1.1154375,-0.139,-0.3318125,1.3531250000000001,0.019154687435270726,0.022566907007030405,True
43483,358,0,359,4677.0,43257.0,31533.0,-0.0030499999999999998,0.00183,-0.000366,0.28,-0.8400000000000001,-3.3600000000000003,1.14659375,0.323125,0.217375,1.4094375000000001,1.10825,-0.13940625,-0.334625,1.35240625,0.0191608378934341,0.022683727404880907,True
43484,359,0,360,4679.0,43259.0,31533.0,0.001281,-0.003843,0.0013419999999999999,0.24500000000000002,-1.0850000000000002,-3.5525,1.1490625,0.33009375,0.21684375,1.40540625,1.09625,-0.14025,-0.3340625,1.35215625,0.01948379780656787,0.022639304472896783,True
43485,360,0,361,4679.0,43258.0,31530.0,0.002196,-0.004331,-0.0008539999999999999,0.28,-1.7325000000000002,-3.6225000000000005,1.1423125,0.31946875,0.2165,1.404625,1.103375,-0.13678125,-0.3266875,1.356875,0.01890268612348633,0.022328872354692768,True
43486,361,0,362,4678.0,43259.0,31534.0,0.000549,-0.003477,-0.0018909999999999999,0.35000000000000003,-2.3625000000000003,-3.6400000000000006,1.15134375,0.32365625000000003,0.22071875,1.4010625,1.10896875,-0.137625,-0.3333125,1.352375,0.019110465507687687,0.022768427027762862,True
43487,362,0,363,4680.0,43260.0,31531.0,0.004514,-0.00244,0.00042699999999999997,0.385,-2.3800000000000003,-3.6575,1.1524375,0.32384375,0.217,1.40325,1.1104375,-0.1391875,-0.3333125,1.3584687500000001,0.019181724737006994,0.022615601554453385,True
43488,363,0,364,4681.0,43257.0,31531.0,0.004575,-0.001098,0.00042699999999999997,0.43750000000000006,-2.3275,-3.5875000000000004,1.13490625,0.32284375,0.21740625,1.40778125,1.11696875,-0.1369375,-0.3329375,1.35334375,0.019048864422008798,0.022617234355695855,True
43489,364,0,365,4679.0,43259.0,31532.0,0.000732,0.0028669999999999998,-0.0006709999999999999,0.42000000000000004,-1.8550000000000002,-3.7450000000000006,1.15053125,0.32171875,0.21359375,1.4115625,1.1093125,-0.13621875,-0.3316875,1.3541875,0.018973042328761625,0.02241033426062208,True
43490,365,0,366,4679.0,43256.0,31532.0,-0.00183,0.003355,0.00042699999999999997,0.42000000000000004,-1.3125000000000002,-3.6400000000000006,1.13615625,0.32334375,0.21628125,1.4036875,1.10515625,-0.139875,-0.33465625,1.3579375,0.01918894567598217,0.02264003626515168,True
43491,366,0,367,4678.0,43257.0,31531.0,-0.004514,0.003294,0.00042699999999999997,0.42000000000000004,-1.0850000000000002,-3.5700000000000003,1.1506875,0.32046875,0.2165,1.3971875,1.10903125,-0.136,-0.33253125,1.358875,0.01891236120318197,0.022563671833360947,True
43492,367,0,368,4679.0,43259.0,31533.0,-0.0030499999999999998,0.0013419999999999999,0.0013419999999999999,0.31500000000000006,-1.12,-3.6400000000000006,1.14896875,0.322625,0.2166875,1.4046875,1.10965625,-0.13690625,-0.33203125,1.359375,0.019038531501940105,0.02255129234227003,True
43493,368,0,369,4680.0,43257.0,31532.0,-0.002562,0.000488,-0.000122,0.21000000000000002,-1.3825,-3.7100000000000004,1.14396875,0.3208125,0.21456250000000002,1.4070625,1.11325,-0.1370625,-0.33125,1.353375,0.018969789716540696,0.022432571281787824,True
43494,369,0,370,4680.0,43258.0,31532.0,0.0034159999999999998,-0.00244,-0.000244,0.22750000000000004,-1.5050000000000001,-3.6400000000000006,1.14465625,0.3303125,0.21887500000000001,1.40871875,1.113875,-0.137125,-0.32834375,1.353,0.019365914540360542,0.022493054012359556,True
43495,370,0,371,4681.0,43256.0,31530.0,0.001952,-0.002013,-0.000122,0.31500000000000006,-1.7675,-3.6050000000000004,1.14840625,0.32434375,0.2163125,1.40425,1.10975,-0.13884375000000002,-0.33125,1.35809375,0.019188470864516863,0.02250449524788081,True
43496,371,0,372,4682.0,43257.0,31531.0,0.000244,-0.000793,-0.000976,0.3325,-1.8200000000000003,-3.5175000000000005,1.14378125,0.3228125,0.21556250000000002,1.40721875,1.10984375,-0.13671875,-0.3309375,1.3528125,0.019038679397960834,0.022461115606416726,True
43497,372,0,373,4681.0,43258.0,31531.0,0.002074,0.000244,0.00042699999999999997,0.4025,-1.7500000000000002,-3.43,1.145,0.32356250000000003,0.21665625,1.4045,1.10975,-0.139125,-0.33325,1.3590312500000001,0.019167534034477223,0.022598964380015,True
43498,373,0,374,4680.0,43257.0,31531.0,0.003111,-0.0008539999999999999,0.002196,0.29750000000000004,-1.2600000000000002,-3.3950000000000005,1.14834375,0.32378125,0.2175,1.4044375,1.10990625,-0.1369375,-0.330625,1.3615625,0.019087705306441632,0.02252819235017596,True
43499,374,0,375,4681.0,43259.0,31531.0,-0.000976,0.001037,0.000305,0.24500000000000002,-0.9450000000000001,-3.3950000000000005,1.14496875,0.3246875,0.215,1.404375,1.1085625000000001,-0.136625,-0.32703125,1.3603125,0.019112551982723353,0.022281027406498684,True
43500,375,0,376,4682.0,43259.0,31534.0,-0.000793,0.001464,-0.000732,0.24500000000000002,-1.0675000000000001,-3.115,1.14478125,0.32259375,0.215875,1.4039375,1.12275,-0.1376875,-0.3289375,1.3554375,0.019068987035315624,0.022393600213737246,True
43501,376,0,377,4682.0,43258.0,31530.0,0.000366,0.002928,0.000549,0.28,-1.0850000000000002,-3.115,1.1436875,0.32406250000000003,0.222,1.4066875,1.11890625,-0.13828125,-0.33015625,1.34928125,0.019153963167945112,0.022694315824626075,True
43502,377,0,378,4682.0,43259.0,31532.0,-0.000732,0.00244,-0.001037,0.36750000000000005,-1.225,-3.3075,1.14446875,0.3248125,0.2178125,1.42584375,1.12003125,-0.14250000000000002,-0.32996875000000003,1.34925,0.019356425390908153,0.022514671335120397,True
43503,378,0,379,4683.0,43257.0,31532.0,0.001769,-0.0023179999999999997,-0.0017079999999999999,0.28,-1.2950000000000002,-3.4125000000000005,1.15578125,0.32928125,0.21784375,1.42165625,1.1073125,-0.14003125,-0.33237500000000003,1.3445,0.01944125486581547,0.022612620017569186,True
43504,379,0,380,4686.0,43258.0,31533.0,-0.001769,-0.0026839999999999998,0.0,0.2625,-0.42000000000000004,-3.2900000000000005,1.17021875,0.3204375,0.2200625,1.3940937500000001,1.1096875,-0.13821875,-0.33618750000000003,1.35246875,0.019001246726210896,0.022856908051024836,True
43505,380,0,381,4683.0,43257.0,31534.0,-0.007076,-0.001098,0.001098,0.36750000000000005,-0.07,-3.1500000000000004,1.140375,0.3139375,0.218375,1.3941875000000001,1.1065625000000001,-0.13634375,-0.33475,1.34934375,0.01865573570976341,0.022729841070896557,True
43506,381,0,382,4684.0,43260.0,31536.0,-0.00976,-0.001098,0.003538,0.35000000000000003,-0.0175,-2.87,1.15078125,0.318125,0.2191875,1.393,1.10565625,-0.1309375,-0.3355625,1.35496875,0.01860940960126394,0.022795856886398246,True
43507,382,0,383,4683.0,43259.0,31537.0,-0.009637999999999999,-0.0006709999999999999,0.001281,0.29750000000000004,-0.47250000000000003,-2.9925,1.1460000000000001,0.31353125,0.21528125,1.39340625,1.0991875,-0.13565625,-0.326375,1.362125,0.018610950344472195,0.02226621311231123,True
43508,383,0,384,4683.0,43258.0,31536.0,0.001769,0.001281,0.000366,0.28,-1.3650000000000002,-3.2375000000000003,1.147,0.31590625,0.2131875,1.39515625,1.1065,-0.1355625,-0.33446875,1.36240625,0.018705540838337618,0.022505371110680194,True
43509,384,0,385,4681.0,43258.0,31535.0,0.0046359999999999995,0.00061,-0.000549,0.31500000000000006,-2.0125,-3.43,1.13184375,0.313875,0.20521875,1.402625,1.1087500000000001,-0.1364375,-0.329125,1.360625,0.01865695797070301,0.021963130609917125,True
43510,385,0,386,4682.0,43257.0,31535.0,0.005307,-0.000183,-0.0021349999999999997,0.29750000000000004,-2.45,-3.535,1.13490625,0.32625,0.2141875,1.42309375,1.1160625,-0.13609375,-0.33071875,1.34465625,0.01915569912799166,0.022395813933774565,True
43511,386,0,387,4681.0,43256.0,31533.0,0.007137,-0.000122,-0.002623,0.21000000000000002,-2.6075000000000004,-3.4650000000000003,1.14690625,0.32634375,0.2139375,1.4225,1.1140625,-0.14028125,-0.32987500000000003,1.35234375,0.019329725083463967,0.02235163559204476,True
43512,387,0,388,4682.0,43256.0,31532.0,0.008113,-0.000305,0.000305,0.07,-2.2925000000000004,-3.5175000000000005,1.1606875,0.32540625,0.22153125,1.40025,1.11071875,-0.1396875,-0.33190625,1.3526562500000001,0.0192667676414618,0.022745340801237062,True
43513,388,0,389,4681.0,43256.0,31528.0,0.0044529999999999995,0.0011589999999999999,0.0,0.10500000000000001,-1.2950000000000002,-3.5000000000000004,1.14996875,0.31696875,0.2103125,1.39978125,1.1086875,-0.1358125,-0.33125,1.3585,0.018759726858169786,0.02225789879270485,True
43514,389,0,390,4681.0,43253.0,31530.0,0.000793,6.1e-05,0.000305,0.14,-0.9625000000000001,-3.4825000000000004,1.13425,0.3229375,0.218625,1.41065625,1.1166562500000001,-0.136875,-0.3315625,1.3525625000000001,0.01905020844661954,0.022612090777154162,True
43515,390,0,391,4680.0,43254.0,31528.0,-0.004575,-0.000732,-0.000793,0.3325,-0.77,-3.6400000000000006,1.14034375,0.3275,0.21678125,1.40515625,1.113,-0.13740625,-0.33340625,1.3600625,0.019260820536589344,0.0226103774517799,True
43516,391,0,392,4679.0,43255.0,31530.0,-0.006405,-0.0008539999999999999,-0.0011589999999999999,0.35000000000000003,-0.5075000000000001,-3.5700000000000003,1.15028125,0.320375,0.21453125,1.408,1.11115625,-0.13421875,-0.33078125,1.35328125,0.0188360665289818,0.02241245336090472,True
43517,392,0,393,4680.0,43256.0,31530.0,-0.00549,0.00061,0.000549,0.4025,-0.2625,-3.4475000000000002,1.14484375,0.32428125,0.21728125,1.39975,1.1085625000000001,-0.13909375000000002,-0.33290625,1.3605625000000001,0.019196039619341552,0.022610842056731306,True
43518,393,0,394,4680.0,43256.0,31530.0,-0.0064659999999999995,-0.000244,0.0021349999999999997,0.385,-0.43750000000000006,-3.4650000000000003,1.14090625,0.32459375,0.21778125,1.4029375,1.11621875,-0.136625,-0.330625,1.35859375,0.019108667843992275,0.02253975185594287,True
43519,394,0,395,4678.0,43255.0,31530.0,-0.006222,-0.00042699999999999997,0.0,0.35000000000000003,-1.0150000000000001,-3.4650000000000003,1.15009375,0.32284375,0.2159375,1.40425,1.11640625,-0.137375,-0.33021875,1.35871875,0.019066644570919583,0.022447650619664077,True
43520,395,0,396,4678.0,43254.0,31530.0,-0.0015249999999999999,-0.0008539999999999999,0.000183,0.24500000000000002,-1.33,-3.3600000000000003,1.1433125,0.32434375,0.21528125,1.40421875,1.1178125,-0.136375,-0.3308125,1.357375,0.019088150146821962,0.022444534065600975,True
43521,396,0,397,4677.0,43255.0,31528.0,0.0026839999999999998,0.0,-0.000976,0.31500000000000006,-1.8200000000000003,-3.5175000000000005,1.1444375,0.32403125,0.21440625,1.40515625,1.11525,-0.1365625,-0.3310625,1.3535,0.019082822999339697,0.02241861612085374,True
43522,397,0,398,4675.0,43254.0,31526.0,0.0068319999999999995,0.0011589999999999999,-0.002196,0.4025,-2.5025000000000004,-3.7975000000000003,1.14509375,0.324125,0.21753125,1.4106875,1.11784375,-0.1380625,-0.33215625,1.3526562500000001,0.01914766357076091,0.022590990060734957,True
43523,398,0,399,4676.0,43250.0,31525.0,0.0064659999999999995,-6.1e-05,0.000305,0.31500000000000006,-2.45,-3.5875000000000004,1.1443125,0.32571875,0.21553125,1.40965625,1.10896875,-0.13621875,-0.33509375,1.3521875,0.019138768370667008,0.022626787702430776,True
43524,399,0,400,4676.0,43253.0,31527.0,0.0037819999999999998,-0.000732,0.0011589999999999999,0.29750000000000004,-1.9075000000000002,-3.5525,1.14515625,0.32315625000000003,0.2136875,1.406375,1.109125,-0.13896875,-0.33075,1.3525625000000001,0.01914435553507231,0.02237651942500745,True
43525,400,0,401,4675.0,43250.0,31526.0,-0.00122,-0.000488,-0.00061,0.31500000000000006,-1.6450000000000002,-3.5000000000000004,1.1441875,0.32384375,0.21596875000000001,1.4100625,1.1136875,-0.13809375000000002,-0.33237500000000003,1.3526562500000001,0.01913728170850277,0.022535562188236866,True
43526,401,0,402,4677.0,43252.0,31528.0,-0.0050019999999999995,-0.0006709999999999999,-0.00061,0.29750000000000004,-1.5750000000000002,-3.4650000000000003,1.1441875,0.32475,0.2149375,1.41146875,1.11584375,-0.1385,-0.33287500000000003,1.352375,0.01919133334714253,0.022513266517006313,True
43527,402,0,403,4675.0,43250.0,31525.0,-0.0028669999999999998,0.000183,0.00061,0.2625,-1.6975000000000002,-3.3425000000000002,1.14678125,0.323875,0.2175625,1.4120625,1.10896875,-0.1394375,-0.3349375,1.3528125,0.019193177140105273,0.02270398269977065,True
43528,403,0,404,4673.0,43251.0,31525.0,0.0017079999999999999,0.0008539999999999999,-0.00042699999999999997,0.35000000000000003,-2.1350000000000002,-3.5875000000000004,1.1449375,0.32440625,0.2168125,1.4101875,1.1030312500000001,-0.1383125,-0.328625,1.35659375,0.019169473839565212,0.022419577760765357,True
43529,404,0,405,4673.0,43249.0,31526.0,0.004392,-6.1e-05,-0.000366,0.24500000000000002,-2.2225,-3.7100000000000004,1.1519062500000001,0.320625,0.21596875000000001,1.40434375,1.10965625,-0.13593750000000002,-0.33025,1.3455625,0.018916294426102154,0.022450190606343953,True
43530,405,0,406,4672.0,43248.0,31526.0,0.0042699999999999995,-0.000183,-0.000305,0.21000000000000002,-1.8200000000000003,-3.5000000000000004,1.147125,0.32203125,0.21453125,1.39903125,1.1135,-0.13721875,-0.3315625,1.35446875,0.019026632884122163,0.02244384223166926,True
43531,406,0,407,4672.0,43247.0,31524.0,0.001647,-0.0006709999999999999,0.000244,0.15750000000000003,-1.3650000000000002,-3.3425000000000002,1.14478125,0.32384375,0.21484375,1.41184375,1.1131875,-0.13834375000000002,-0.33025,1.35296875,0.019147440470102674,0.02240395187061374,True
43532,407,0,408,4671.0,43248.0,31524.0,-0.0013419999999999999,0.000183,0.00061,0.22750000000000004,-0.8750000000000001,-3.2375000000000003,1.151125,0.3228125,0.216875,1.404875,1.1093125,-0.133625,-0.33096875000000003,1.35971875,0.0189129275026027,0.022516314727501346,True
43533,408,0,409,4673.0,43246.0,31524.0,-0.003965,-0.000366,0.000305,0.28,-0.5775,-3.2725000000000004,1.14503125,0.32175,0.21528125,1.40409375,1.116625,-0.13684375000000001,-0.3323125,1.35325,0.018999739765063525,0.02250479686219713,True
43534,409,0,410,4672.0,43246.0,31523.0,-0.0021349999999999997,-0.000976,0.0006709999999999999,0.28,-0.7350000000000001,-3.22,1.1379375,0.32284375,0.21628125,1.4110625,1.10978125,-0.13740625,-0.33465625,1.36109375,0.019067914556892374,0.02264003626515168,True
43535,410,0,411,4672.0,43245.0,31524.0,-0.002196,-0.0006709999999999999,0.001281,0.24500000000000002,-1.3475000000000001,-3.2900000000000005,1.1534375000000001,0.32056250000000003,0.216375,1.3968125,1.1101875,-0.13540625,-0.3273125,1.3668125,0.01889211000954252,0.022348851727867595,True
43536,411,0,412,4672.0,43245.0,31524.0,-0.00061,-0.000366,-0.0015249999999999999,0.29750000000000004,-2.1350000000000002,-3.2725000000000004,1.151,0.324875,0.217375,1.4119062500000001,1.11025,-0.136125,-0.32934375,1.3524375,0.019100000517895895,0.022471578173990002,True
43537,412,0,413,4671.0,43244.0,31525.0,0.0006709999999999999,0.001647,-0.000488,0.35000000000000003,-2.345,-3.2550000000000003,1.14215625,0.3241875,0.215625,1.405,1.1023125,-0.139625,-0.3383125,1.3467500000000001,0.01921374089282663,0.022759897589448734,True
43538,413,0,414,4671.0,43245.0,31523.0,0.002562,0.0006709999999999999,-0.000305,0.22750000000000004,-1.7325000000000002,-3.22,1.14471875,0.324,0.21496875000000001,1.404875,1.1035,-0.137625,-0.337875,1.3471875,0.019124706759674988,0.022715366481256067,True
43539,414,0,415,4669.0,43244.0,31524.0,6.1e-05,-0.000793,-0.000732,0.15750000000000003,-1.6975000000000002,-3.2900000000000005,1.14446875,0.3228125,0.21915625,1.40140625,1.11459375,-0.14325000000000002,-0.32953125,1.34096875,0.01930404978617212,0.02255232517067093,True
43540,415,0,416,4670.0,43242.0,31524.0,-0.003172,-0.000915,-0.001586,0.36750000000000005,-1.6975000000000002,-3.1850000000000005,1.145,0.323375,0.2139375,1.40403125,1.1265,-0.138125,-0.330125,1.34709375,0.019119132078402944,0.022361681249068798,True
43541,416,0,417,4670.0,43243.0,31524.0,-0.002257,-0.000793,0.001586,0.36750000000000005,-1.7850000000000001,-3.1675000000000004,1.1440625,0.32159375,0.21609375,1.40521875,1.1224687500000001,-0.14478125,-0.32925,1.3538125,0.01931576828843707,0.022415148432442432,True
43542,417,0,418,4669.0,43244.0,31522.0,0.002379,-0.000915,0.002745,0.3325,-1.6800000000000002,-3.115,1.15146875,0.32221875,0.21709375,1.40396875,1.12753125,-0.1286875,-0.32790625,1.3686875,0.018687558119354814,0.02240225666769001,True
43543,418,0,419,4670.0,43243.0,31524.0,0.002928,-0.000244,-0.00061,0.1925,-2.1875,-3.4650000000000003,1.1509375,0.322875,0.2173125,1.41,1.1095,-0.13259375,-0.3344375,1.3700625,0.018873592897572396,0.022673628679520535,True
43544,419,0,420,4670.0,43245.0,31524.0,0.0032329999999999998,0.00061,0.000122,0.31500000000000006,-2.1525000000000003,-3.43,1.15121875,0.3205,0.216875,1.40475,1.1101875,-0.134875,-0.32759375,1.36596875,0.018867924528301886,0.022380707093154255,True
43545,420,0,421,4670.0,43242.0,31523.0,0.003294,0.002257,-0.000244,0.1925,-1.8900000000000001,-3.3775000000000004,1.1504375,0.32371875,0.2173125,1.3997187500000001,1.1070625,-0.13475,-0.33146875000000003,1.359625,0.01899620878608645,0.022554382377759256,True
43546,421,0,422,4671.0,43242.0,31525.0,0.000244,0.001586,-0.001464,0.21000000000000002,-1.6625,-3.325,1.1435625,0.3235,0.21384375,1.3970625,1.11953125,-0.13493750000000002,-0.32915625,1.3527500000000001,0.018994766404512135,0.022318899776888067,True
43547,422,0,423,4670.0,43244.0,31521.0,-0.001098,0.001769,-0.001647,0.28,-1.2600000000000002,-3.3775000000000004,1.142625,0.32496875000000003,0.2180625,1.41040625,1.11490625,-0.138,-0.33340625,1.3524375,0.019180079128345347,0.022663031403587403,True
43548,423,0,424,4668.0,43244.0,31525.0,-0.0035989999999999998,-0.000549,0.000732,0.28,-0.14,-3.115,1.15146875,0.32403125,0.21734375,1.4043125,1.1087500000000001,-0.13559375,-0.33259375,1.358625,0.019043451127031003,0.022600858159644403,True
43549,424,0,425,4671.0,43245.0,31526.0,-0.005795,-0.00183,0.000305,0.1925,0.0,-3.0450000000000004,1.1483125,0.32265625000000003,0.2166875,1.404375,1.111625,-0.136625,-0.331625,1.35821875,0.01902839564355,0.02253497248950697,True
43550,425,0,426,4670.0,43246.0,31527.0,-0.00488,-0.00244,-0.001037,0.24500000000000002,-0.10500000000000001,-3.0100000000000002,1.1448125,0.3243125,0.21584375,1.41103125,1.116625,-0.13609375,-0.3313125,1.351875,0.01907542516070978,0.022487740848341,True
43551,426,0,427,4670.0,43245.0,31529.0,-0.0042699999999999995,-0.0013419999999999999,0.000366,0.35000000000000003,-0.36750000000000005,-3.1325000000000003,1.15128125,0.32040625,0.21556250000000002,1.4070625,1.1095625,-0.1365625,-0.3308125,1.35146875,0.018932635912839703,0.022456093482287123,True
43552,427,0,428,4669.0,43243.0,31528.0,-0.004026,-0.001037,0.00042699999999999997,0.36750000000000005,-0.805,-3.1675000000000004,1.1449375,0.32446875000000003,0.21584375,1.41028125,1.10878125,-0.140375,-0.32534375,1.35253125,0.019255862843887056,0.022247887041678495,True
43553,428,0,429,4669.0,43243.0,31529.0,-0.0008539999999999999,-0.0006709999999999999,0.002196,0.36750000000000005,-1.5925000000000002,-3.2025,1.1456250000000001,0.32465625,0.21353125,1.40821875,1.1100625,-0.13525,-0.33259375,1.35296875,0.019055375436343107,0.02244417531526001,True
43554,429,0,430,4670.0,43245.0,31529.0,0.003355,-0.00122,0.000549,0.17500000000000002,-1.8900000000000001,-3.3600000000000003,1.1454375,0.32425,0.214625,1.40884375,1.11290625,-0.13990625,-0.33165625,1.3531875,0.01922775694292516,0.02245146176598644,True
43555,430,0,431,4670.0,43244.0,31528.0,0.006039,6.1e-05,-0.0011589999999999999,0.12250000000000001,-2.2925000000000004,-3.3600000000000003,1.144625,0.32390625,0.21778125,1.40475,1.11090625,-0.1389375,-0.32884375,1.35878125,0.019174155863322485,0.02246818655325533,True
43556,431,0,432,4671.0,43244.0,31527.0,0.008479,0.001098,-0.0018909999999999999,0.17500000000000002,-2.4850000000000003,-3.4125000000000005,1.14475,0.32378125,0.2165625,1.404875,1.11690625,-0.13796875,-0.332125,1.354375,0.019129612967122598,0.022549921143344445,True
43557,432,0,433,4671.0,43245.0,31527.0,0.007259,0.0021349999999999997,-0.000244,0.2625,-2.3975000000000004,-3.3950000000000005,1.1491875,0.3200625,0.21521875000000001,1.41428125,1.10984375,-0.1365,-0.33075,1.353875,0.01891585358274812,0.022439454188629616,True
43558,433,0,434,4672.0,43243.0,31525.0,0.003965,0.0006709999999999999,0.000305,0.10500000000000001,-1.5575,-3.2375000000000003,1.151,0.3236875,0.2180625,1.4025625,1.10971875,-0.13875,-0.33437500000000003,1.35959375,0.019157475014240588,0.022701939129318095,True
43559,434,0,435,4672.0,43243.0,31528.0,0.002745,-0.001037,-0.0006709999999999999,0.052500000000000005,-1.0150000000000001,-3.2025,1.1533125,0.3206875,0.2178125,1.402625,1.1090625,-0.13575,-0.33415625,1.3585,0.018911262339061354,0.022682880159446663,True
43560,435,0,436,4672.0,43242.0,31523.0,-0.000244,-0.001403,-0.000366,0.07,-0.385,-3.325,1.14146875,0.325125,0.21646875000000002,1.412375,1.1155625,-0.13821875,-0.3310625,1.35253125,0.019195440840057844,0.02250338430555591,True
43561,436,0,437,4674.0,43241.0,31525.0,-0.004331,0.000915,0.000183,0.22750000000000004,0.07,-3.2900000000000005,1.14884375,0.32703125,0.217,1.40215625,1.1100625,-0.136375,-0.3330625,1.35115625,0.019199496610406493,0.022605559822155556,True
43562,437,0,438,4672.0,43243.0,31530.0,-0.008418,0.002623,0.000488,0.35000000000000003,0.1925,-3.2025,1.1425,0.32521875,0.21696875000000002,1.4166875,1.11384375,-0.14009375,-0.33021875,1.3450625,0.019275505092021444,0.022490036181857184,True
43563,438,0,439,4673.0,43245.0,31532.0,-0.0077469999999999995,-0.002257,0.003111,0.2625,0.14,-2.975,1.155875,0.32671875,0.22228125,1.39859375,1.10965625,-0.136,-0.3331875,1.3564375,0.019171310490553532,0.022827619686076887,True
43564,439,0,440,4672.0,43244.0,31532.0,-0.004575,-0.002074,0.001952,0.29750000000000004,-0.6125,-3.0975,1.14478125,0.32325,0.21746875000000002,1.4010625,1.11259375,-0.138625,-0.3329375,1.3564687500000001,0.019134271318271025,0.022619802890629214,True
43565,440,0,441,4674.0,43245.0,31533.0,-0.001952,-0.000305,-0.001647,0.29750000000000004,-1.6625,-3.2900000000000005,1.142125,0.32506250000000003,0.215375,1.4112500000000001,1.111375,-0.13678125,-0.33140625,1.3532187500000001,0.01913443823417839,0.022472242022591685,True
43566,441,0,442,4672.0,43247.0,31533.0,0.003538,0.000488,-0.002196,0.35000000000000003,-2.1875,-3.3425000000000002,1.1444375,0.32375,0.21746875000000002,1.40325,1.109625,-0.13575,-0.331,1.34378125,0.019038148804159803,0.02254197320290987,True
43567,442,0,443,4670.0,43245.0,31531.0,0.005429,-0.000305,-0.000366,0.31500000000000006,-2.24,-3.2900000000000005,1.1439062500000001,0.32271875,0.215,1.4093125,1.11353125,-0.13671875,-0.33125,1.3530625,0.019034795274316233,0.02245055227331107,True
43568,443,0,444,4673.0,43246.0,31531.0,0.001464,-0.00042699999999999997,-0.000732,0.2625,-1.8200000000000003,-3.325,1.14496875,0.32428125,0.216875,1.40453125,1.11053125,-0.13775,-0.332,1.3604687500000001,0.01914143820364367,0.02255774289002137,True
43569,444,0,445,4672.0,43245.0,31531.0,-0.000915,-0.001037,-6.1e-05,0.24500000000000002,-1.6275000000000002,-3.1675000000000004,1.14465625,0.32409375,0.21753125,1.40865625,1.11559375,-0.1389375,-0.33303125,1.3543125,0.019181923396586944,0.022626137053927468,True
43570,445,0,446,4672.0,43247.0,31531.0,-0.000305,-0.0015249999999999999,0.001403,0.29750000000000004,-1.3475000000000001,-3.22,1.150875,0.3218125,0.21581250000000002,1.399375,1.1095625,-0.1355,-0.32984375,1.353,0.018947711876696152,0.02242744571674448,True
43571,446,0,447,4671.0,43246.0,31535.0,-0.000732,0.00061,0.001281,0.2625,-1.4000000000000001,-3.0975,1.1403125,0.32359375,0.2176875,1.3995625,1.11078125,-0.13293750000000001,-0.3244375,1.376125,0.018917351026993712,0.02228725741345509,True
43572,447,0,448,4671.0,43247.0,31536.0,0.00061,0.000976,0.001098,0.17500000000000002,-1.5225000000000002,-3.325,1.15134375,0.3234375,0.2171875,1.4075312500000001,1.12221875,-0.13821875,-0.32659375,1.3339375,0.019125530959072944,0.02235336585090134,True
43573,448,0,449,4673.0,43246.0,31533.0,0.001464,0.001098,-6.1e-05,0.08750000000000001,-1.4875,-3.22,1.14578125,0.3248125,0.21765625,1.4040000000000001,1.09678125,-0.1301875,-0.33325,1.37128125,0.018856049087890427,0.02264006041116579,True
43574,449,0,450,4672.0,43246.0,31534.0,0.001403,-6.1e-05,-0.0006709999999999999,0.10500000000000001,-1.2600000000000002,-2.9400000000000004,1.14975,0.323125,0.21525,1.404625,1.13025,-0.136,-0.3265,1.3420625,0.019022414650314883,0.022269952520913405,True
43575,450,0,451,4672.0,43247.0,31534.0,0.0008539999999999999,0.000793,-0.00122,0.22750000000000004,-1.1025,-3.0100000000000002,1.14546875,0.324875,0.21809375,1.41278125,1.097,-0.14115625,-0.33315625,1.37328125,0.01930442954653425,0.022654274453195938,True
43576,451,0,452,4674.0,43248.0,31535.0,0.000549,0.001281,-0.000793,0.1925,-1.0675000000000001,-2.9925,1.1515,0.32425,0.21659375,1.40440625,1.09796875,-0.132375,-0.3291875,1.3618125,0.0189216767931047,0.022433188531265174,True
43577,452,0,453,4674.0,43247.0,31535.0,0.000305,-0.000976,-0.002379,0.28,-0.6300000000000001,-3.0625000000000004,1.14484375,0.32490625,0.21665625,1.407,1.1325,-0.1445625,-0.3433125,1.35725,0.019444077729716576,0.023002980798114473,True
43578,453,0,454,4673.0,43248.0,31535.0,-0.001403,-0.001464,-0.00122,0.21000000000000002,-0.4025,-3.0975,1.1520625,0.32256250000000003,0.22212500000000002,1.40578125,1.11303125,-0.137,-0.32815625,1.341875,0.019039752247586694,0.022619110315850594,True
43579,454,0,455,4676.0,43246.0,31533.0,-0.001586,-0.0028669999999999998,0.000915,0.24500000000000002,-0.07,-2.8525000000000005,1.1453125,0.324875,0.2146875,1.40396875,1.11434375,-0.1451875,-0.337875,1.3513125000000001,0.019468165239967593,0.022703810418945775,True
43580,455,0,456,4673.0,43248.0,31539.0,-0.002562,-0.0018909999999999999,0.002013,0.22750000000000004,0.3325,-2.6775,1.15325,0.32034375,0.21796875000000002,1.40434375,1.09665625,-0.1325,-0.32834375,1.3594375,0.01876489174349943,0.022455803223349308,True
43581,456,0,457,4676.0,43248.0,31536.0,-0.0040869999999999995,0.000244,0.000793,0.22750000000000004,0.14,-2.8525000000000005,1.14425,0.32256250000000003,0.2154375,1.40984375,1.12096875,-0.13865625,-0.32746875000000003,1.343625,0.01910705986378177,0.022316594281926682,True
43582,457,0,458,4674.0,43248.0,31539.0,-0.003111,0.001098,0.0008539999999999999,0.24500000000000002,-0.3325,-3.0100000000000002,1.14596875,0.323625,0.21721875000000002,1.4094375000000001,1.10625,-0.1376875,-0.33359375,1.3496875,0.019111710680652406,0.022635887886473822,True
43583,458,0,459,4675.0,43248.0,31540.0,-0.0030499999999999998,0.000793,-0.000915,0.24500000000000002,-0.8575,-3.1325000000000003,1.1486875,0.32434375,0.2173125,1.408875,1.1098125,-0.13525,-0.33121875,1.3526562500000001,0.01904242756963363,0.022544339255508934,True
43584,459,0,460,4674.0,43249.0,31538.0,-0.002806,6.1e-05,0.000549,0.21000000000000002,-1.2600000000000002,-3.2025,1.14475,0.3244375,0.2176875,1.4077187500000001,1.10396875,-0.1371875,-0.33103125,1.3526875,0.01912505340566294,0.02255221919539477,True
43585,460,0,461,4673.0,43251.0,31538.0,6.1e-05,-6.1e-05,0.001281,0.29750000000000004,-1.6625,-3.2900000000000005,1.1495,0.32396875,0.21796875000000002,1.40984375,1.10975,-0.13228125,-0.3334375,1.3526875,0.018906210949286035,0.022660433816636058,True
43586,461,0,462,4672.0,43251.0,31537.0,0.000976,-0.000183,6.1e-05,0.35000000000000003,-1.9075000000000002,-3.325,1.15103125,0.32509375,0.2170625,1.4041875,1.1099375,-0.13259375,-0.329125,1.35984375,0.018965532869835013,0.02244994425405764,True
43587,462,0,463,4673.0,43249.0,31538.0,0.003355,-0.000915,-0.000305,0.385,-2.1875,-3.7100000000000004,1.14875,0.3239375,0.2179375,1.40515625,1.10959375,-0.13546875,-0.33290625,1.3588125,0.019034486330413616,0.022637811708167827,True
43588,463,0,464,4673.0,43249.0,31535.0,0.003111,-0.00061,-0.00061,0.2625,-2.2750000000000004,-3.7800000000000002,1.14503125,0.32428125,0.21553125,1.4104375,1.1164375,-0.13675,-0.3299375,1.3535,0.019100800646317338,0.02241965274263446,True
43589,464,0,465,4671.0,43249.0,31535.0,0.0030499999999999998,0.000732,-0.00122,0.28,-2.4850000000000003,-3.8150000000000004,1.1460937500000001,0.32821875,0.21796875000000002,1.41271875,1.1129375,-0.13840625,-0.3326875,1.35365625,0.019331226559334256,0.022630309537325054,True
43590,465,0,466,4671.0,43248.0,31532.0,0.00488,-0.000183,-0.00061,0.2625,-2.31,-3.8150000000000004,1.1495312500000001,0.32421875,0.218,1.414125,1.10965625,-0.13990625,-0.32756250000000003,1.35090625,0.019226462406000438,0.022425695134890726,True
43591,466,0,467,4671.0,43244.0,31532.0,0.004209,-0.000122,0.000366,0.29750000000000004,-2.0825,-3.7625,1.15621875,0.32359375,0.2168125,1.3980625,1.10946875,-0.13609375,-0.33171875,1.36025,0.019045646108331014,0.022543875984921944,True
43592,467,0,468,4671.0,43244.0,31531.0,0.000793,0.001403,0.00042699999999999997,0.31500000000000006,-1.4000000000000001,-3.8500000000000005,1.1433125,0.3184375,0.21103125,1.41821875,1.0990625,-0.13565625,-0.33034375,1.358125,0.018814228430188217,0.022251021422580595,True
43593,468,0,469,4670.0,43242.0,31531.0,-0.0013419999999999999,0.000976,0.000366,0.35000000000000003,-0.9975,-3.7100000000000004,1.13965625,0.32590625,0.22040625,1.41825,1.11753125,-0.1384375,-0.32621875,1.35425,0.019236694587211788,0.0224706110562292,True
43594,469,0,470,4668.0,43244.0,31529.0,-0.003294,0.00061,0.0018909999999999999,0.35000000000000003,-0.7000000000000001,-3.6400000000000006,1.16003125,0.32253125,0.226375,1.399875,1.1156875,-0.13790625,-0.3344375,1.35203125,0.0190752874433755,0.02304604328741932,True
43595,470,0,471,4669.0,43243.0,31531.0,-0.0035989999999999998,-0.00061,0.001281,0.385,-0.56,-3.6225000000000005,1.15428125,0.32515625,0.2194375,1.3994375000000001,1.1098125,-0.13575,-0.33328125000000003,1.3498125,0.019096412997317253,0.022714517796485013,True
43596,471,0,472,4668.0,43243.0,31528.0,-0.004758,-0.001586,-0.000732,0.3325,-0.8750000000000001,-3.6225000000000005,1.1298125,0.31915625000000003,0.21390625,1.405,1.10978125,-0.13543750000000002,-0.32987500000000003,1.3535625,0.018835115377543916,0.022350351162922125,True
43597,472,0,473,4667.0,43243.0,31529.0,-0.0015249999999999999,6.1e-05,0.000183,0.45500000000000007,-1.715,-3.7800000000000002,1.13490625,0.3190625,0.20965625000000002,1.399875,1.1153125,-0.13546875,-0.33037500000000003,1.360125,0.01883250144043712,0.02219576352604512,True
43598,473,0,474,4667.0,43239.0,31529.0,0.000122,0.0006709999999999999,-0.000793,0.3325,-1.9425000000000001,-3.8150000000000004,1.13884375,0.32034375,0.21434375,1.40940625,1.11103125,-0.1353125,-0.33028125,1.36140625,0.018879235559929045,0.022384656979663974,True
43599,474,0,475,4667.0,43240.0,31526.0,0.001586,-0.000122,0.00061,0.36750000000000005,-1.8900000000000001,-3.8850000000000002,1.13721875,0.326375,0.213625,1.42209375,1.1183750000000001,-0.1364375,-0.3305625,1.3527500000000001,0.019174847157953614,0.02236641672382215,True
43600,475,0,476,4666.0,43239.0,31527.0,0.002196,-0.00042699999999999997,-0.00042699999999999997,0.3325,-1.7325000000000002,-3.7975000000000003,1.158625,0.3238125,0.22021875,1.39875,1.1145625000000001,-0.13296875,-0.335625,1.35225,0.01892768580326447,0.022840742738269512,True
43601,476,0,477,4664.0,43239.0,31526.0,0.0006709999999999999,0.000122,-0.000732,0.3325,-1.5750000000000002,-3.6925000000000003,1.14621875,0.32009375,0.21153125,1.40409375,1.1068437500000001,-0.13596875,-0.3319375,1.3584375,0.018895553964453988,0.022335613429879966,True
43602,477,0,478,4665.0,43238.0,31528.0,0.000549,-0.00042699999999999997,-0.000366,0.49000000000000005,-1.7500000000000002,-3.7100000000000004,1.13840625,0.3255,0.21575,1.41175,1.1164687500000001,-0.1358125,-0.3310625,1.351875,0.019113195381344632,0.022473843877553638,True
43603,478,0,479,4665.0,43237.0,31524.0,0.001769,-0.0011589999999999999,-6.1e-05,0.36750000000000005,-1.7325000000000002,-3.7975000000000003,1.142625,0.3251875,0.2195625,1.41265625,1.1186875,-0.138125,-0.33040625,1.352625,0.019194220760726032,0.02260417456038162,True
43604,479,0,480,4665.0,43237.0,31524.0,0.001403,-0.000122,-0.00042699999999999997,0.36750000000000005,-1.8025000000000002,-3.8675,1.149875,0.32134375,0.21559375,1.40875,1.10984375,-0.13571875,-0.33059375,1.353875,0.018937182055123177,0.022448589032069966,True
43605,480,0,481,4663.0,43236.0,31525.0,0.0006709999999999999,0.002989,0.0008539999999999999,0.35000000000000003,-1.9250000000000003,-3.8500000000000005,1.13475,0.32440625,0.22003125,1.40475,1.1155625,-0.1395625,-0.3334375,1.3559375,0.019220263416124466,0.022745193727766577,True
43606,481,0,482,4663.0,43235.0,31525.0,-0.001281,0.00488,0.000122,0.3325,-1.8200000000000003,-3.6750000000000003,1.1495625,0.32234375,0.2160625,1.408,1.1093125,-0.136375,-0.33059375,1.354375,0.01900528766229394,0.022467854899759696,True
43607,482,0,483,4663.0,43236.0,31523.0,0.00061,-0.00061,0.0032329999999999998,0.24500000000000002,-1.2075,-3.6050000000000004,1.1455,0.32475,0.21765625,1.4046875,1.1148125,-0.13759375000000001,-0.33296875,1.35296875,0.019154508721483474,0.022628763701510936,True
43608,483,0,484,4662.0,43235.0,31526.0,0.000549,-0.0046359999999999995,0.00122,0.1925,-1.3125000000000002,-3.6575,1.1508125,0.3245,0.21821875000000002,1.4108125,1.109625,-0.1353125,-0.33171875,1.3535,0.019051441741224605,0.02260167091566435,True
43609,484,0,485,4663.0,43235.0,31525.0,0.000732,-0.005673,-0.002257,0.29750000000000004,-1.6800000000000002,-3.6575,1.14853125,0.3236875,0.2171875,1.40159375,1.1116875,-0.13709375000000001,-0.33328125000000003,1.3623750000000001,0.01909017111888212,0.022622051845145222,True
43610,485,0,486,4663.0,43234.0,31525.0,0.002806,-0.003965,-0.00244,0.24500000000000002,-1.6975000000000002,-3.5700000000000003,1.145375,0.32465625,0.218125,1.3978125000000001,1.11528125,-0.13934375000000002,-0.329125,1.3430625,0.019221732156658154,0.022493616190471296,True
43611,486,0,487,4661.0,43235.0,31528.0,0.004026,-0.001769,-0.002562,0.28,-1.5575,-3.6050000000000004,1.14484375,0.3245,0.21515625,1.4105625,1.109875,-0.1324375,-0.331125,1.353,0.01893457716403492,0.022451951975093632,True
43612,487,0,488,4662.0,43234.0,31525.0,-0.003721,0.003477,-0.001647,0.42000000000000004,-1.12,-3.6400000000000006,1.14634375,0.32428125,0.217125,1.41065625,1.1175,-0.138375,-0.33184375,1.35334375,0.019166834967142568,0.022561740722998026,True
43613,488,0,489,4662.0,43235.0,31527.0,-0.007503,0.003843,0.0011589999999999999,0.4025,-1.1025,-3.6575,1.15209375,0.3209375,0.21359375,1.40425,1.1088437500000001,-0.13428125,-0.3283125,1.35878125,0.018861914522521776,0.02227471593025616,True
43614,489,0,490,4661.0,43234.0,31526.0,-0.006405,0.001647,0.002745,0.3325,-1.1900000000000002,-3.6050000000000004,1.14515625,0.32440625,0.222,1.40884375,1.117875,-0.1390625,-0.33187500000000003,1.353625,0.019199948216713055,0.022763350543268862,True
43615,490,0,491,4661.0,43234.0,31526.0,-0.002196,0.0008539999999999999,0.0035989999999999998,0.385,-1.3125000000000002,-3.6925000000000003,1.1475,0.3239375,0.21490625,1.39865625,1.1091875,-0.13518750000000002,-0.326625,1.35309375,0.019023055031165595,0.02226084588388237,True
43616,491,0,492,4661.0,43232.0,31525.0,0.0,-0.00042699999999999997,0.001037,0.36750000000000005,-1.7675,-3.7625,1.13846875,0.3251875,0.2174375,1.40465625,1.11440625,-0.137125,-0.3326875,1.35628125,0.01915358602153322,0.022608476766078554,True
43617,492,0,493,4660.0,43233.0,31527.0,0.001952,0.000976,-0.0023179999999999997,0.36750000000000005,-1.8200000000000003,-3.7100000000000004,1.14015625,0.32534375,0.216125,1.411125,1.10025,-0.13665625,-0.330625,1.35325,0.019141010884637343,0.022471679210871075,True
43618,493,0,494,4658.0,43231.0,31525.0,0.003355,-0.001403,-0.001403,0.29750000000000004,-1.4875,-3.6575,1.15059375,0.323875,0.2183125,1.3995,1.1050625,-0.13865625,-0.33315625,1.35734375,0.0191614332301534,0.022663264244645615,True
43619,494,0,495,4659.0,43234.0,31525.0,0.0011589999999999999,-0.0030499999999999998,-0.000793,0.2625,-1.3475000000000001,-3.535,1.14853125,0.323,0.21740625,1.404875,1.11034375,-0.13584375,-0.3334375,1.3575625,0.019010885003761264,0.022637317477236827,True
43620,495,0,496,4660.0,43232.0,31524.0,-0.001769,-0.002745,-0.000549,0.24500000000000002,-1.4000000000000001,-3.6225000000000005,1.14728125,0.32378125,0.21834375,1.40778125,1.11028125,-0.13503125,-0.332625,1.3528437500000001,0.019010230202208666,0.022643210504415368,True
43621,496,0,497,4659.0,43232.0,31524.0,-0.000915,-0.001586,0.0025009999999999998,0.24500000000000002,-1.4175000000000002,-3.7975000000000003,1.1457187500000001,0.32509375,0.21809375,1.40853125,1.10959375,-0.1371875,-0.32990625,1.35234375,0.01915224174316084,0.022523720164355342,True
43622,497,0,498,4659.0,43230.0,31525.0,0.002257,0.000976,-0.001464,0.3325,-1.9775000000000003,-3.7625,1.1450625,0.324375,0.2175625,1.405875,1.0986562500000001,-0.13803125,-0.33178125,1.35390625,0.01915675082241846,0.022577210618314268,True
43623,498,0,499,4660.0,43234.0,31525.0,0.003843,0.0006709999999999999,-0.001952,0.21000000000000002,-2.0300000000000002,-3.9725000000000006,1.1451875,0.32506250000000003,0.2183125,1.401,1.11784375,-0.13971875,-0.3310625,1.35309375,0.019253797229928375,0.022579161925213906,True
43624,499,0,500,4659.0,43231.0,31523.0,0.003843,0.00183,-0.0008539999999999999,0.31500000000000006,-1.8025000000000002,-3.9725000000000006,1.1455312500000001,0.32490625,0.216625,1.40565625,1.1193125,-0.1413125,-0.33037500000000003,1.3513125000000001,0.0193120713714302,0.022482185334175904,True
43625,500,0,501,4660.0,43231.0,31524.0,0.002013,0.001037,0.000244,0.385,-1.3650000000000002,-3.8325000000000005,1.1455625,0.32240625,0.21546875000000001,1.4048125,1.12196875,-0.13415625,-0.3290625,1.35996875,0.018917690565627292,0.022381924909765843,True
43626,501,0,502,4659.0,43229.0,31524.0,-0.0008539999999999999,0.0,0.000488,0.31500000000000006,-0.9450000000000001,-3.7275000000000005,1.149875,0.32428125,0.2179375,1.418875,1.114,-0.13393750000000001,-0.33275,1.3508125,0.018986489461158173,0.022631535687499357,True
43627,502,0,503,4659.0,43234.0,31526.0,-0.0040869999999999995,-0.0013419999999999999,0.000244,0.24500000000000002,-0.17500000000000002,-3.6750000000000003,1.15384375,0.32375,0.22178125,1.39671875,1.10728125,-0.13821875,-0.33278125000000003,1.35359375,0.019138477233329405,0.02279075681083518,True
43628,503,0,504,4659.0,43234.0,31526.0,-0.0053679999999999995,0.000732,0.001403,0.36750000000000005,-0.29750000000000004,-3.7275000000000005,1.15271875,0.31453125,0.21209375,1.3946875,1.10640625,-0.1348125,-0.33440625,1.36425,0.018618075031658108,0.02245791388479018,True
43629,504,0,505,4660.0,43232.0,31527.0,-0.0070149999999999995,0.002074,-0.000732,0.43750000000000006,-0.49000000000000005,-3.7800000000000002,1.1323750000000001,0.32253125,0.2084375,1.4063125,1.10078125,-0.12846875,-0.32959375,1.3567500000000001,0.018691612993468554,0.02211427184229083,True
43630,505,0,506,4658.0,43233.0,31526.0,-0.005307,0.000549,-0.000305,0.31500000000000006,-0.9275000000000001,-3.7450000000000006,1.12425,0.32356250000000003,0.21759375,1.41596875,1.1219375,-0.135125,-0.32928125,1.35221875,0.019004977185740703,0.02247805820404168,True
43631,506,0,507,4659.0,43230.0,31528.0,-0.000305,-0.00061,-0.000549,0.42000000000000004,-1.435,-3.7975000000000003,1.1397187500000001,0.32796875000000003,0.2165625,1.424,1.12271875,-0.1376875,-0.3304375,1.34909375,0.019291667853434592,0.022482127581963947,True
43632,507,0,508,4659.0,43230.0,31527.0,0.00244,0.00061,0.0006709999999999999,0.4025,-2.24,-4.025,1.14021875,0.3274375,0.21531250000000002,1.424375,1.11884375,-0.13890625,-0.32987500000000003,1.3511250000000001,0.01931917482798128,0.022408150473440577,True
43633,508,0,509,4660.0,43231.0,31528.0,0.004575,-0.000244,-0.000305,0.4025,-2.4325,-4.077500000000001,1.13071875,0.32765625,0.22425,1.42453125,1.11684375,-0.14121875,-0.33137500000000003,1.35078125,0.019422176024149567,0.022835741917585833,True
43634,509,0,510,4659.0,43230.0,31527.0,0.0048189999999999995,-0.0017079999999999999,-0.001281,0.35000000000000003,-2.6075000000000004,-4.1475,1.15321875,0.3325625,0.216,1.4252500000000001,1.113125,-0.13725,-0.33040625,1.3516875,0.019464209883064555,0.02245775283756308,True
43635,510,0,511,4659.0,43227.0,31526.0,0.004941,-0.000549,-0.00183,0.3325,-2.7475,-4.165,1.12296875,0.32346875,0.214,1.4071875,1.11653125,-0.13565625,-0.33040625,1.359,0.019022685575412934,0.02237555116861232,True
43636,511,0,512,4659.0,43227.0,31524.0,0.0037819999999999998,0.0015249999999999999,-0.000244,0.36750000000000005,-2.2750000000000004,-4.2,1.13165625,0.3208125,0.2121875,1.4218125,1.11728125,-0.13584375,-0.327,1.3528125,0.0189202521664485,0.022164159164714103,True
43637,512,0,513,4659.0,43229.0,31525.0,0.00122,0.001647,0.0011589999999999999,0.5075000000000001,-1.7500000000000002,-4.0600000000000005,1.1401875000000001,0.32825,0.2210625,1.41778125,1.1166875,-0.138625,-0.33109375,1.3527500000000001,0.01934140822022795,0.022693441391223937,True
43638,513,0,514,4659.0,43229.0,31526.0,0.001403,0.000915,0.002074,0.21000000000000002,-1.2425000000000002,-3.8675,1.13665625,0.32987500000000003,0.2185,1.4028125,1.116,-0.13834375000000002,-0.33034375,1.354125,0.019397302269340663,0.022557994068620586,True
43639,514,0,515,4658.0,43231.0,31527.0,-0.0011589999999999999,-0.000976,0.001586,0.21000000000000002,-0.9625000000000001,-3.8850000000000002,1.14484375,0.32559375,0.21521875000000001,1.404125,1.1185,-0.13953125,-0.331125,1.3531250000000001,0.019268186908144705,0.02245452070136502,True
43640,515,0,516,4660.0,43228.0,31525.0,-0.0030499999999999998,0.000976,-0.000183,0.35000000000000003,-0.9275000000000001,-3.9200000000000004,1.14290625,0.3228125,0.2201875,1.40840625,1.11834375,-0.13593750000000002,-0.3303125,1.35953125,0.019006926911374376,0.022626096561645066,True
43641,516,0,517,4660.0,43230.0,31527.0,-0.004209,-0.000183,0.0017079999999999999,0.385,-0.56,-3.7450000000000006,1.1500625,0.32428125,0.2149375,1.40478125,1.10940625,-0.13640625,-0.3319375,1.353,0.01908683070827912,0.022475604336892614,True
43642,517,0,518,4661.0,43228.0,31526.0,-0.0040869999999999995,-0.00122,-0.000122,0.29750000000000004,-0.9800000000000001,-3.7100000000000004,1.144875,0.32134375,0.2168125,1.40471875,1.1162812500000001,-0.135875,-0.3301875,1.3590312500000001,0.018943533225955142,0.02248235859259202,True
43643,518,0,519,4659.0,43232.0,31526.0,-0.002074,-0.00122,-0.000183,0.17500000000000002,-1.2425000000000002,-3.6925000000000003,1.1515312500000001,0.32403125,0.21734375,1.4099375,1.10528125,-0.131,-0.333125,1.35596875,0.01885670921221665,0.022622197107851953,True
43644,519,0,520,4660.0,43234.0,31528.0,0.0008539999999999999,-0.002379,0.000366,0.17500000000000002,-1.4700000000000002,-3.6225000000000005,1.14328125,0.32421875,0.218125,1.40815625,1.10925,-0.13715625,-0.33328125000000003,1.3535625,0.0191147206912579,0.022660579324870134,True
43645,520,0,521,4660.0,43234.0,31529.0,0.0015249999999999999,-6.1e-05,-0.0017079999999999999,0.31500000000000006,-1.6275000000000002,-3.6925000000000003,1.145375,0.32334375,0.21759375,1.40515625,1.11325,-0.1390625,-0.33065625,1.36071875,0.019155932422810537,0.02253330096675876,True
43646,521,0,522,4660.0,43234.0,31530.0,0.002013,0.0,-0.000915,0.14,-1.54,-3.6225000000000005,1.1511875,0.32428125,0.2183125,1.41290625,1.10965625,-0.13546875,-0.33337500000000003,1.352,0.01904872885470683,0.02267205021909209,True
43647,522,0,523,4661.0,43233.0,31528.0,-0.000793,0.000549,-0.00042699999999999997,0.2625,-1.6275000000000002,-3.6050000000000004,1.145375,0.3291875,0.21784375,1.409875,1.1093125,-0.138,-0.33225,1.35403125,0.019354855414698814,0.022607598968447228,True
43648,523,0,524,4661.0,43235.0,31529.0,-0.0018909999999999999,0.0023179999999999997,-0.000976,0.21000000000000002,-1.6800000000000002,-3.5875000000000004,1.145,0.32546875000000003,0.21546875000000001,1.4116875,1.1155,-0.13865625,-0.3316875,1.35290625,0.019227458032176088,0.02248739426724924,True
43649,524,0,525,4661.0,43232.0,31529.0,0.0,0.002806,-0.001037,0.36750000000000005,-1.7325000000000002,-3.7100000000000004,1.15178125,0.3243125,0.21825,1.4114375000000001,1.1101875,-0.13475,-0.33246875,1.3531875,0.019020810242492674,0.022633081569250958,True
43650,525,0,526,4663.0,43234.0,31529.0,0.0013419999999999999,0.001464,-0.000549,0.35000000000000003,-1.6625,-3.7450000000000006,1.14825,0.32515625,0.21771875000000002,1.40840625,1.11090625,-0.13540625,-0.3326875,1.3570312500000001,0.019082442417972557,0.02262003529203258,True
43651,526,0,527,4661.0,43235.0,31529.0,0.000183,-0.000976,-0.0026839999999999998,0.385,-1.3475000000000001,-3.7450000000000006,1.1410625,0.32456250000000003,0.21765625,1.40775,1.11015625,-0.13546875,-0.3331875,1.35984375,0.019060381829128552,0.022637550053810258,True
43652,527,0,528,4663.0,43233.0,31528.0,-0.0011589999999999999,-0.00061,-0.003477,0.385,-0.8925000000000001,-3.4125000000000005,1.15178125,0.33121875,0.21796875000000002,1.40503125,1.109875,-0.135125,-0.33165625,1.35784375,0.019322201563074567,0.022588885620969595,True
43653,528,0,529,4661.0,43233.0,31531.0,-0.001769,-0.0018909999999999999,0.002379,0.35000000000000003,-0.7175,-3.2725000000000004,1.14903125,0.323,0.21715625,1.4051875,1.10390625,-0.135125,-0.33090625,1.3571250000000001,0.018981670904956987,0.022525363189050962,True
43654,529,0,530,4660.0,43231.0,31529.0,-0.0021349999999999997,-0.001586,0.00549,0.36750000000000005,-0.8750000000000001,-3.3950000000000005,1.1455312500000001,0.32465625,0.21778125,1.4098125000000001,1.1139375,-0.137625,-0.33328125000000003,1.35296875,0.01915189460437802,0.02264645258230433,True
43655,530,0,531,4661.0,43231.0,31528.0,-0.001403,-0.000549,0.003477,0.22750000000000004,-1.0325000000000002,-3.4825000000000004,1.15015625,0.324375,0.2175,1.4053437500000001,1.1103750000000001,-0.13575,-0.3321875,1.3578125,0.01906404400111867,0.02259096104696711,True
43656,531,0,532,4659.0,43232.0,31529.0,0.001281,0.0006709999999999999,-0.0011589999999999999,0.47250000000000003,-1.3475000000000001,-3.3775000000000004,1.153875,0.32465625,0.21821875000000002,1.40459375,1.1104687500000001,-0.13521875,-0.33265625,1.35828125,0.019054105320673757,0.02263932857720784,True
43657,532,0,533,4660.0,43231.0,31527.0,0.000793,0.001464,-0.000793,0.28,-1.8200000000000003,-3.5875000000000004,1.15384375,0.32834375,0.21734375,1.40496875,1.11115625,-0.13559375,-0.3306875,1.3631875,0.019222129142772798,0.022524281321684804,True
43658,533,0,534,4660.0,43234.0,31527.0,0.000366,-0.00042699999999999997,0.000488,0.1925,-2.0475000000000003,-3.6925000000000003,1.14603125,0.321,0.21475,1.40465625,1.11725,-0.13628125,-0.33034375,1.35290625,0.018945803840432127,0.022403865543412223,True
43659,534,0,535,4660.0,43232.0,31527.0,-0.000915,-0.0023179999999999997,-0.0006709999999999999,0.28,-2.205,-3.6400000000000006,1.14528125,0.3243125,0.2174375,1.40546875,1.110625,-0.14090625,-0.33437500000000003,1.36734375,0.01927097289481417,0.022676255297290355,True
43660,535,0,536,4658.0,43229.0,31527.0,-0.00061,0.000183,-0.000549,0.385,-2.1875,-3.5700000000000003,1.14546875,0.327,0.216,1.4029375,1.1282812500000001,-0.14328125,-0.33615625,1.34715625,0.019478762854572635,0.022688720615031393,True
43661,536,0,537,4657.0,43228.0,31524.0,-0.000305,0.001098,0.00042699999999999997,0.29750000000000004,-1.715,-3.7275000000000005,1.14671875,0.324375,0.21825,1.405875,1.10325,-0.1325,-0.3329375,1.3656875,0.01893193825753652,0.022651909577296205,True
43662,537,0,538,4658.0,43229.0,31526.0,0.00042699999999999997,-0.001098,-0.00122,0.2625,-1.5050000000000001,-3.6750000000000003,1.153375,0.32096875,0.2235625,1.405125,1.1120625,-0.1343125,-0.32853125,1.3578125,0.018864479773351737,0.02269326266870303,True
43663,538,0,539,4655.0,43229.0,31525.0,-0.00061,-0.0023179999999999997,-0.001037,0.3325,-1.6800000000000002,-3.5000000000000004,1.14534375,0.32171875,0.21603125,1.40625,1.1283750000000001,-0.1440625,-0.32275,1.34790625,0.01929175133637929,0.022151329516604826,True
43664,539,0,540,4652.0,43229.0,31523.0,-0.000732,-0.000732,-0.000488,0.4025,-2.0825,-3.6400000000000006,1.1449375,0.325125,0.2185,1.4056875,1.1000625,-0.13346875,-0.3314375,1.36815625,0.019002396827020568,0.022601932171085245,True
43665,540,0,541,4654.0,43226.0,31524.0,-0.000305,0.002257,-0.000976,0.4025,-2.3975000000000004,-3.8500000000000005,1.15084375,0.3231875,0.215125,1.4103125,1.12721875,-0.134375,-0.33275,1.35171875,0.018958953774439985,0.02251595072484614,True
43666,541,0,542,4654.0,43227.0,31521.0,0.00244,0.000305,0.001037,0.45500000000000007,-2.205,-3.8150000000000004,1.153375,0.32156250000000003,0.21778125,1.40446875,1.11378125,-0.13146875,-0.3288125,1.34690625,0.01877346359201613,0.022466930928091947,True
43667,542,0,543,4653.0,43225.0,31522.0,0.001586,-0.00042699999999999997,0.0011589999999999999,0.385,-1.9250000000000003,-3.8500000000000005,1.14640625,0.322375,0.21771875000000002,1.40490625,1.12728125,-0.13665625,-0.32665625,1.358,0.019018013317399753,0.022377715803009304,True
43668,543,0,544,4653.0,43223.0,31520.0,0.00122,-0.0013419999999999999,0.000732,0.3325,-1.7325000000000002,-3.7450000000000006,1.1530625,0.323625,0.21725,1.40528125,1.1260000000000001,-0.13575,-0.3280625,1.36021875,0.019032969764768027,0.02241495803457427,True
43669,544,0,545,4651.0,43222.0,31520.0,-0.000183,-0.000183,-0.000976,0.6300000000000001,-1.8725000000000003,-3.6925000000000003,1.14628125,0.324875,0.21515625,1.403875,1.1181875000000001,-0.13596875,-0.3281875,1.34765625,0.019093650425777917,0.022333918217294243,True
43670,545,0,546,4650.0,43223.0,31519.0,-0.003172,0.001403,-0.0006709999999999999,0.5425000000000001,-2.1,-3.7625,1.14625,0.3225,0.21556250000000002,1.40959375,1.1113125,-0.14021875,-0.33025,1.3515625,0.019167960108066547,0.022433493285108047,True
43671,546,0,547,4650.0,43221.0,31519.0,-0.0015249999999999999,-0.001403,0.002013,0.385,-1.8200000000000003,-3.7100000000000004,1.14596875,0.3251875,0.21603125,1.41215625,1.11421875,-0.1381875,-0.33015625,1.35403125,0.019196760320135883,0.022448992698104846,True
43672,547,0,548,4649.0,43219.0,31519.0,-0.001769,-0.00122,-0.0006709999999999999,0.385,-1.8550000000000002,-3.6575,1.1459062500000001,0.325,0.21581250000000002,1.411375,1.09853125,-0.138125,-0.33387500000000003,1.3431250000000001,0.019186452966002954,0.022589394414165444,True
43673,548,0,549,4649.0,43218.0,31519.0,-0.000122,-0.000915,0.00061,0.43750000000000006,-2.1,-3.5000000000000004,1.14471875,0.32484375,0.21771875000000002,1.41046875,1.1100625,-0.13715625,-0.33215625,1.3525,0.019140614379541912,0.02259869591294442,True
43674,549,0,550,4648.0,43222.0,31519.0,0.002013,0.000549,0.0,0.47250000000000003,-2.4675000000000002,-3.7450000000000006,1.14675,0.32465625,0.21809375,1.410625,1.11034375,-0.13543750000000002,-0.33265625,1.35353125,0.019062996061289545,0.02263419144796409,True
43675,550,0,551,4648.0,43217.0,31516.0,0.005856,0.00042699999999999997,-0.003538,0.2625,-2.5200000000000005,-4.0075,1.1511875,0.3251875,0.218,1.4093437500000001,1.11071875,-0.1381875,-0.33284375,1.3480625,0.019196760320135883,0.022637869854402037,True
43676,551,0,552,4649.0,43218.0,31517.0,0.007625,-0.000244,0.000122,0.28,-1.7675,-3.8675,1.15178125,0.323875,0.21878125,1.40859375,1.11059375,-0.13359375,-0.33284375,1.35796875,0.018955682884982682,0.022669976664770226,True
43677,552,0,553,4645.0,43216.0,31514.0,0.00183,-0.000366,0.0030499999999999998,0.4025,-1.3475000000000001,-3.8325000000000005,1.15103125,0.32440625,0.218125,1.39484375,1.11090625,-0.13565625,-0.331625,1.35959375,0.0190615285217281,0.022594051979676656,True
43678,553,0,554,4646.0,43218.0,31516.0,-0.0057339999999999995,0.000549,6.1e-05,0.5075000000000001,-1.2075,-3.7800000000000002,1.15296875,0.32134375,0.2164375,1.40303125,1.11040625,-0.1358125,-0.3298125,1.36009375,0.018940992767490217,0.02245187873930389,True
43679,554,0,555,4648.0,43218.0,31517.0,-0.007869,0.00042699999999999997,-0.000366,0.4025,-1.0850000000000002,-3.7625,1.15028125,0.320875,0.21775,1.40509375,1.1142812500000001,-0.13575,-0.32853125,1.3541875,0.018919030898149013,0.022454345656398804,True
43680,555,0,556,4648.0,43214.0,31518.0,-0.006771,0.000549,-0.000305,0.42000000000000004,-0.9625000000000001,-3.6400000000000006,1.156375,0.324125,0.21887500000000001,1.41440625,1.10996875,-0.13503125,-0.3308125,1.34665625,0.019024472984678648,0.02259223772325729,True
43681,556,0,557,4646.0,43217.0,31516.0,-0.0035989999999999998,0.000732,0.000549,0.45500000000000007,-1.3475000000000001,-3.6925000000000003,1.14375,0.32646875000000003,0.21296875,1.4034375000000001,1.1124375,-0.13946875,-0.3299375,1.3619375,0.019301895365862184,0.02231432982513827,True
43682,557,0,558,4646.0,43215.0,31517.0,-0.0017079999999999999,-0.000305,0.0011589999999999999,0.42000000000000004,-1.7500000000000002,-3.6400000000000006,1.1534375000000001,0.32415625,0.21987500000000001,1.40271875,1.1100625,-0.13553125,-0.32978125,1.3533125,0.019046089984035466,0.022591910891101828,True
43683,558,0,559,4646.0,43216.0,31515.0,0.00244,-0.001403,-0.000183,0.2625,-1.995,-3.535,1.14271875,0.32090625,0.21809375,1.40271875,1.1144375,-0.13390625,-0.33040625,1.361125,0.018845374440782874,0.022543807709745907,True
43684,559,0,560,4645.0,43217.0,31516.0,0.004392,0.00042699999999999997,-0.001037,0.385,-2.2575000000000003,-3.5875000000000004,1.15546875,0.3195,0.21834375,1.4100625,1.1107500000000001,-0.13609375,-0.334125,1.35546875,0.01887603498391284,0.022703456565625436,True
43685,560,0,561,4645.0,43216.0,31515.0,0.0048189999999999995,0.00183,-0.0008539999999999999,0.385,-2.2575000000000003,-3.7975000000000003,1.15515625,0.32946875000000003,0.214,1.40296875,1.11103125,-0.13828125,-0.33109375,1.354625,0.019377933132666603,0.02240317494974923,True
43686,561,0,562,4645.0,43217.0,31518.0,0.002196,-0.0011589999999999999,-0.000732,0.385,-2.0475000000000003,-3.6050000000000004,1.14325,0.322125,0.2183125,1.4033125,1.11653125,-0.136125,-0.33015625,1.35959375,0.018986063421531002,0.022542754940178402,True
43687,562,0,563,4644.0,43217.0,31516.0,-6.1e-05,-0.001403,-0.0011589999999999999,0.31500000000000006,-1.9250000000000003,-3.5700000000000003,1.15603125,0.32915625,0.2196875,1.4151562500000001,1.11028125,-0.1358125,-0.3329375,1.353,0.019264681891276707,0.022710985880763472,True
43688,563,0,564,4644.0,43216.0,31516.0,-0.000183,-0.001037,0.001281,0.29750000000000004,-1.54,-3.6225000000000005,1.1434375,0.32609375,0.21403125,1.40184375,1.11225,-0.13728125,-0.330625,1.35584375,0.01919748107504858,0.022385625112384084,True
43689,564,0,565,4643.0,43215.0,31514.0,-0.00122,0.00042699999999999997,0.001403,0.385,-1.225,-3.6575,1.14259375,0.32059375,0.21884375,1.40271875,1.11415625,-0.13565625,-0.33040625,1.356125,0.018903567206713098,0.022574633335602442,True
43690,565,0,566,4643.0,43215.0,31517.0,-0.00122,0.000488,0.000244,0.3325,-1.33,-3.5875000000000004,1.15325,0.3236875,0.21965625,1.41175,1.11,-0.13525,-0.3321875,1.35415625,0.019015237049543717,0.02267957823356408,True
43691,566,0,567,4641.0,43216.0,31514.0,-0.001952,-0.00061,-0.001037,0.28,-1.225,-3.6925000000000003,1.1456875,0.324125,0.21937500000000001,1.4057187500000001,1.11,-0.1361875,-0.33128125,1.354,0.019071466858632917,0.022631617478015058,True
43692,567,0,568,4639.0,43214.0,31514.0,-0.000915,0.000366,-0.001403,0.4025,-1.54,-3.6050000000000004,1.14621875,0.323,0.2166875,1.406375,1.1146562500000001,-0.136125,-0.3298125,1.35915625,0.01902231613401074,0.022462154198681146,True
43693,568,0,569,4640.0,43217.0,31515.0,0.001769,-0.0006709999999999999,0.0006709999999999999,0.2625,-1.7500000000000002,-3.7275000000000005,1.14253125,0.32371875,0.21934375,1.405875,1.11171875,-0.13575,-0.33187500000000003,1.36459375,0.01903685404431186,0.02265418304179189,True
43694,569,0,570,4641.0,43214.0,31516.0,-6.1e-05,-0.000244,0.0015249999999999999,0.3325,-1.9250000000000003,-3.7975000000000003,1.15021875,0.3204375,0.21553125,1.40540625,1.1128125,-0.13628125,-0.32987500000000003,1.352,0.018922498676137194,0.022417141477299004,True
43695,570,0,571,4640.0,43215.0,31514.0,0.000793,0.000549,0.000244,0.43750000000000006,-1.995,-3.6400000000000006,1.13478125,0.32440625,0.21865625,1.411125,1.11159375,-0.13790625,-0.34459375000000003,1.37240625,0.019152966094563403,0.023136553675289818,True
43696,571,0,572,4640.0,43213.0,31514.0,0.0030499999999999998,0.000488,-0.001952,0.3325,-1.4875,-3.535,1.1535,0.32256250000000003,0.21690625,1.402875,1.122125,-0.12878125,-0.32746875000000003,1.34278125,0.018705617383803837,0.02237696842175576,True
43697,572,0,573,4640.0,43215.0,31514.0,0.001586,0.000793,-0.000793,0.28,-1.1375000000000002,-3.6575,1.13775,0.3246875,0.21912500000000001,1.41175,1.11153125,-0.14025,-0.33446875,1.368625,0.0192598461076418,0.022749366574932935,True
43698,573,0,574,4640.0,43214.0,31514.0,-0.0008539999999999999,0.001098,-6.1e-05,0.21000000000000002,-0.8925000000000001,-3.535,1.15303125,0.32484375,0.21825,1.4078125000000001,1.09578125,-0.1324375,-0.33303125,1.37353125,0.018948821477316576,0.022655675091856873,True
43699,574,0,575,4639.0,43215.0,31515.0,-0.003172,-0.0008539999999999999,0.0006709999999999999,0.24500000000000002,-0.8750000000000001,-3.5000000000000004,1.154,0.32321875,0.2205,1.40525,1.1210625,-0.12662500000000002,-0.326125,1.352375,0.018645117168273637,0.022470697655298574,True
43700,575,0,576,4640.0,43214.0,31516.0,-0.0018909999999999999,-0.000793,0.000549,0.22750000000000004,-1.0325000000000002,-3.6050000000000004,1.149,0.3223125,0.2160625,1.4055,1.1320937500000001,-0.1396875,-0.32775,1.34334375,0.01913860732455629,0.022353587980803814,True
43701,576,0,577,4639.0,43216.0,31518.0,-0.001281,-0.000366,0.000183,0.36750000000000005,-1.7325000000000002,-3.7800000000000002,1.1470625,0.32521875,0.21515625,1.40965625,1.115875,-0.1415625,-0.34215625,1.34,0.019335171449652442,0.022894952044357205,True
43702,577,0,578,4640.0,43215.0,31518.0,-0.0008539999999999999,0.00042699999999999997,-0.000183,0.28,-1.715,-3.7100000000000004,1.14778125,0.3280625,0.2181875,1.4116875,1.095,-0.13115625,-0.3290625,1.3715,0.019030117962126246,0.022493673975312448,True
43703,578,0,579,4639.0,43215.0,31519.0,0.001586,0.001098,-0.0006709999999999999,0.2625,-1.6450000000000002,-3.6050000000000004,1.15109375,0.32521875,0.2184375,1.3980000000000001,1.100625,-0.13090625,-0.33759375,1.3691875,0.01890210816263894,0.02284659920416331,True
43704,579,0,580,4639.0,43216.0,31518.0,0.001098,0.000549,-6.1e-05,0.4025,-1.3650000000000002,-3.535,1.15178125,0.32196875,0.21815625,1.405875,1.1116875,-0.13253125,-0.3246875,1.35915625,0.018833498868876426,0.022316576523336636,True
43705,580,0,581,4641.0,43217.0,31519.0,-0.000366,0.000488,0.001769,0.31500000000000006,-1.12,-3.5000000000000004,1.1453125,0.323125,0.2166875,1.405125,1.12659375,-0.13496875,-0.32484375,1.356,0.01898049899070203,0.022262475992266138,True
43706,581,0,582,4639.0,43219.0,31519.0,0.0006709999999999999,-0.00122,0.0023179999999999997,0.36750000000000005,-1.1725,-3.535,1.1456250000000001,0.3221875,0.2175,1.405,1.1160625,-0.13368750000000001,-0.3289375,1.3583125,0.01888957085401889,0.022460393101836035,True
43707,582,0,583,4642.0,43220.0,31522.0,-0.001647,-0.000793,-0.002196,0.35000000000000003,-1.5925000000000002,-3.6050000000000004,1.1479375,0.32515625,0.2185,1.41103125,1.11103125,-0.13140625,-0.33359375,1.3535625,0.018919846413840882,0.022688541432561726,True
43708,583,0,584,4640.0,43220.0,31519.0,-0.00122,0.001098,-0.00183,0.36750000000000005,-1.9775000000000003,-3.5700000000000003,1.13453125,0.3246875,0.2156875,1.4050625,1.1161875,-0.13559375,-0.331125,1.3560625,0.019070641259861278,0.022473786148400454,True
43709,584,0,585,4641.0,43217.0,31521.0,0.002989,0.000183,-0.00042699999999999997,0.35000000000000003,-1.8025000000000002,-3.5000000000000004,1.1460000000000001,0.32225,0.21653125,1.40878125,1.10821875,-0.1360625,-0.330625,1.35409375,0.01898870207184788,0.022488376274756607,True
43710,585,0,586,4640.0,43214.0,31519.0,0.00061,-0.000732,0.0,0.28,-1.435,-3.7100000000000004,1.1457187500000001,0.324875,0.21859375,1.4044375,1.118125,-0.137125,-0.3331875,1.354875,0.019140639160629115,0.02267607768197241,True
43711,586,0,587,4641.0,43218.0,31517.0,-0.002806,-0.000915,-0.000549,0.31500000000000006,-1.3475000000000001,-3.6225000000000005,1.15109375,0.32303125,0.21815625,1.4057187500000001,1.1103125,-0.13521875,-0.33146875000000003,1.3611875,0.018986776326607772,0.022589059692502123,True
43712,587,0,588,4642.0,43217.0,31520.0,-0.0028669999999999998,0.00042699999999999997,0.0,0.22750000000000004,-1.12,-3.5525,1.146625,0.32371875,0.21912500000000001,1.4060000000000001,1.10871875,-0.1355625,-0.32756250000000003,1.361375,0.0190292333149476,0.02247193897867902,True
43713,588,0,589,4640.0,43219.0,31520.0,-0.000366,0.000976,0.0006709999999999999,0.3325,-1.0675000000000001,-3.5525,1.14640625,0.32253125,0.2173125,1.40565625,1.11825,-0.1355625,-0.329625,1.35909375,0.018980032058502884,0.022480309499221626,True
43714,589,0,590,4641.0,43219.0,31521.0,-0.00122,0.000793,0.0021349999999999997,0.49000000000000005,-1.155,-3.7100000000000004,1.1457187500000001,0.32556250000000003,0.21625,1.4121875,1.11753125,-0.13596875,-0.33015625,1.35246875,0.019122134884268942,0.022457983598029706,True
43715,590,0,591,4641.0,43216.0,31520.0,-0.000305,0.000183,-0.001281,0.385,-1.715,-3.6925000000000003,1.14559375,0.32456250000000003,0.21912500000000001,1.4170625000000001,1.11584375,-0.13825,-0.32671875,1.35384375,0.01917340735140286,0.022438034311553008,True
43716,591,0,592,4640.0,43218.0,31521.0,0.0026839999999999998,-0.0015249999999999999,0.000305,0.15750000000000003,-1.5750000000000002,-3.7275000000000005,1.163125,0.32465625,0.21925,1.40221875,1.11053125,-0.13543750000000002,-0.33,1.35359375,0.019062996061289545,0.02257501027538019,True
43717,592,0,593,4642.0,43218.0,31522.0,0.0032329999999999998,-0.000793,6.1e-05,0.21000000000000002,-1.4000000000000001,-3.6925000000000003,1.1470625,0.32003125,0.2180625,1.39540625,1.11121875,-0.1353125,-0.33271875,1.3485,0.018866287726748927,0.022635417589742204,True
43718,593,0,594,4642.0,43218.0,31521.0,0.001037,-0.000122,0.0,0.24500000000000002,-1.4700000000000002,-3.6050000000000004,1.14296875,0.3213125,0.21821875000000002,1.39596875,1.10396875,-0.134625,-0.3296875,1.3594375,0.018891426736483374,0.02252006935970715,True
43719,594,0,595,4642.0,43219.0,31521.0,-0.00042699999999999997,0.001037,-0.00042699999999999997,0.29750000000000004,-1.2950000000000002,-3.5000000000000004,1.13884375,0.32734375,0.21481250000000002,1.4180625,1.117875,-0.13534375,-0.33025,1.35375,0.0191705369847902,0.022402667461287905,True
43720,595,0,596,4643.0,43221.0,31523.0,0.000183,-0.000305,0.0015249999999999999,0.17500000000000002,-0.77,-3.5175000000000005,1.1419062500000001,0.33196875000000003,0.22153125,1.41359375,1.11853125,-0.13815625,-0.33087500000000003,1.3538125,0.0194764254208521,0.022703920430317447,True
43721,596,0,597,4641.0,43219.0,31521.0,-0.0011589999999999999,-0.0015249999999999999,0.000793,0.21000000000000002,-0.7350000000000001,-3.5175000000000005,1.1612500000000001,0.3206875,0.21653125,1.3997187500000001,1.1107500000000001,-0.135375,-0.3310625,1.36015625,0.018896018810563336,0.022505953038425675,True
43722,597,0,598,4643.0,43218.0,31524.0,-0.003294,-0.001952,0.0006709999999999999,0.29750000000000004,-0.9275000000000001,-3.3950000000000005,1.1325,0.3181875,0.21146875,1.40328125,1.1106562500000001,-0.13515625,-0.33115625,1.35965625,0.018783543197488105,0.022301652844796474,True
43723,598,0,599,4643.0,43219.0,31521.0,-0.0042699999999999995,0.001464,-0.0006709999999999999,0.36750000000000005,-1.2950000000000002,-3.325,1.139,0.32628125,0.21296875,1.40046875,1.11315625,-0.1353125,-0.3305,1.3620625,0.019125244390351275,0.022336933067548963,True
43724,599,0,600,4643.0,43220.0,31523.0,-0.002379,0.003477,-0.002013,0.43750000000000006,-1.7500000000000002,-3.3075,1.14015625,0.32221875,0.212875,1.39865625,1.1135,-0.13468750000000002,-0.32728125,1.35871875,0.01893151713690099,0.022203724470855123,True
43725,600,0,601,4643.0,43221.0,31523.0,0.0026839999999999998,-0.000732,-0.001037,0.4025,-1.9600000000000002,-3.5700000000000003,1.15434375,0.31725000000000003,0.22015625,1.40690625,1.1109375000000001,-0.13443750000000002,-0.33296875,1.35359375,0.018715476588174056,0.022731504966898047,True
43726,601,0,602,4644.0,43223.0,31524.0,0.00244,-0.00244,-0.001281,0.2625,-1.9600000000000002,-3.5000000000000004,1.1544375,0.31921875,0.21875,1.40184375,1.1074375,-0.13418750000000002,-0.3275,1.3600625,0.018786886859149497,0.022454012948309527,True
43727,602,0,603,4643.0,43222.0,31526.0,0.000976,-0.00244,0.0008539999999999999,0.29750000000000004,-1.8550000000000002,-3.3425000000000002,1.14584375,0.3239375,0.2195,1.4055625,1.1100625,-0.131875,-0.32996875000000003,1.3606562500000001,0.018888399678847995,0.022584030240482743,True
43728,603,0,604,4644.0,43221.0,31524.0,6.1e-05,-0.00122,0.0017079999999999999,0.29750000000000004,-1.6625,-3.2375000000000003,1.146875,0.32228125,0.21665625,1.40653125,1.10559375,-0.13459375,-0.33037500000000003,1.3551250000000001,0.018930295853850865,0.022483469736902947,True
43729,604,0,605,4645.0,43223.0,31524.0,0.000488,0.000366,0.004514,0.36750000000000005,-1.5225000000000002,-3.2550000000000003,1.14625,0.32546875000000003,0.21521875000000001,1.4053437500000001,1.1046875,-0.13528125,-0.33046875000000003,1.3548125,0.01909030995857983,0.022428153999293585,True
43730,605,0,606,4642.0,43220.0,31523.0,0.002928,-0.000305,-0.002989,0.052500000000000005,-1.5925000000000002,-3.4650000000000003,1.14534375,0.3295,0.21659375,1.4054375000000001,1.11915625,-0.1353125,-0.32978125,1.35978125,0.01925860707210648,0.022457045313549626,True
43731,606,0,607,4642.0,43221.0,31524.0,0.002562,0.000732,-0.0021349999999999997,0.24500000000000002,-1.33,-3.6050000000000004,1.1535625,0.32109375,0.21834375,1.40521875,1.109125,-0.13475,-0.3315625,1.34965625,0.01888744445250106,0.022600531716777335,True
43732,607,0,608,4640.0,43222.0,31524.0,-0.000732,0.002928,6.1e-05,0.28,-0.9275000000000001,-3.6225000000000005,1.153,0.32453125,0.21809375,1.411125,1.0972187500000001,-0.1345,-0.33303125,1.35234375,0.019019712444840374,0.022649253779263526,True
43733,608,0,609,4639.0,43221.0,31525.0,-0.00549,0.0013419999999999999,0.0008539999999999999,0.36750000000000005,-0.6125,-3.4125000000000005,1.15425,0.323375,0.21790625,1.41265625,1.11125,-0.13475,-0.333,1.3535,0.018981965837640745,0.022640293017712573,True
43734,609,0,610,4640.0,43222.0,31524.0,-0.008905999999999999,-0.0018909999999999999,0.007869,0.49000000000000005,-0.7000000000000001,-3.3775000000000004,1.15328125,0.32509375,0.21834375,1.40896875,1.10434375,-0.1375625,-0.329625,1.3528437500000001,0.019167480146348663,0.022522696095809123,True
43735,610,0,611,4639.0,43222.0,31525.0,-0.0021349999999999997,-0.000549,-0.006161,0.3325,-1.1025,-3.6750000000000003,1.14546875,0.3256875,0.2179375,1.40575,1.1164375,-0.13925,-0.32990625,1.356125,0.01926064397195439,0.022517298026990956,True
43736,611,0,612,4638.0,43219.0,31522.0,0.003172,0.0011589999999999999,-0.007137,0.385,-1.3650000000000002,-3.5700000000000003,1.14565625,0.32978125,0.2160625,1.40521875,1.117875,-0.13715625,-0.33028125,1.3550625,0.019345174516985614,0.022455299401851345,True
43737,612,0,613,4638.0,43219.0,31523.0,0.003904,0.000305,0.002745,0.525,-1.9425000000000001,-3.7450000000000006,1.14525,0.32971875,0.21865625,1.4132500000000001,1.117875,-0.13878125,-0.33115625,1.35278125,0.01940860208093563,0.022597055986601545,True
43738,613,0,614,4634.0,43219.0,31521.0,-0.000305,-0.001586,0.006344,0.28,-2.5375,-3.99,1.15309375,0.325125,0.21828125,1.40959375,1.1114375,-0.137375,-0.33315625,1.3523125,0.019161155676621838,0.022661979988724237,True
43739,614,0,615,4635.0,43215.0,31518.0,0.001037,-0.003294,0.006344,0.2625,-2.6075000000000004,-3.8675,1.15240625,0.324,0.21884375,1.405875,1.1094375,-0.13440625,-0.333,1.35790625,0.018993889688087934,0.022678820942752642,True
43740,615,0,616,4632.0,43215.0,31519.0,0.008296,0.004575,-0.004331,0.5075000000000001,-2.0825,-3.8675,1.1515,0.32215625000000003,0.21828125,1.4069375,1.1106875,-0.135125,-0.3330625,1.35978125,0.01894671148378142,0.02265821451779857,True
43741,616,0,617,4633.0,43215.0,31516.0,0.004697,0.006161,-0.002806,0.56,-1.7850000000000001,-4.1475,1.149375,0.32378125,0.217125,1.4058125000000001,1.11090625,-0.135375,-0.33075,1.35725,0.019024202027107515,0.022517801547424558,True
43742,617,0,618,4632.0,43215.0,31518.0,0.0006709999999999999,-0.000366,-0.000976,0.28,-1.3825,-4.0075,1.145875,0.33159375,0.216625,1.4093125,1.11578125,-0.13840625,-0.3304375,1.3541875,0.019471045235225505,0.022484696380819295,True
43743,618,0,619,4630.0,43215.0,31514.0,-0.001586,-0.0050019999999999995,0.000732,0.15750000000000003,-1.2600000000000002,-3.6050000000000004,1.14634375,0.326625,0.216375,1.4098125000000001,1.113375,-0.135375,-0.33034375,1.3533125,0.019142027003930952,0.022470654571002516,True
43744,619,0,620,4629.0,43214.0,31513.0,-0.001464,-0.0048189999999999995,0.0008539999999999999,0.29750000000000004,-1.2950000000000002,-3.5000000000000004,1.1455312500000001,0.324625,0.21765625,1.40984375,1.1169375,-0.1355,-0.33125,1.354,0.019064241470033768,0.022559722578987924,True
43745,620,0,621,4629.0,43212.0,31515.0,-0.003355,0.003904,0.0017079999999999999,0.5425000000000001,-1.3125000000000002,-4.025,1.1460625,0.32409375,0.2186875,1.40834375,1.11221875,-0.1376875,-0.33334375,1.343,0.01913113051944185,0.02268620604186385,True
43746,621,0,622,4627.0,43212.0,31514.0,-0.005612,0.0037819999999999998,-0.000366,0.5425000000000001,-1.4000000000000001,-3.8150000000000004,1.148875,0.32484375,0.21890625,1.40834375,1.11109375,-0.13715625,-0.33296875,1.35415625,0.019140614379541912,0.022680134334204495,True
43747,622,0,623,4628.0,43211.0,31516.0,-0.004941,-0.0006709999999999999,-0.0013419999999999999,0.42000000000000004,-1.5575,-3.5525,1.1456250000000001,0.32606250000000003,0.21715625,1.4081875,1.111,-0.13959375000000002,-0.33071875,1.35396875,0.019290144433354438,0.022517830468941655,True
43748,623,0,624,4627.0,43210.0,31515.0,-0.001037,-0.002562,-0.000244,0.35000000000000003,-1.715,-3.6575,1.14665625,0.32525,0.21784375,1.406125,1.121625,-0.1379375,-0.3299375,1.34575,0.019189191288609474,0.02251470025354566,True
43749,624,0,625,4626.0,43210.0,31514.0,0.001952,-0.0006709999999999999,-0.0026839999999999998,0.24500000000000002,-1.8900000000000001,-3.7975000000000003,1.1463125,0.32378125,0.2163125,1.4053437500000001,1.1219375,-0.13525,-0.32859375,1.36403125,0.019019121409556562,0.02239777011361374,True
43750,625,0,626,4626.0,43209.0,31514.0,0.00549,0.000488,-0.000366,0.36750000000000005,-2.1875,-3.8150000000000004,1.15109375,0.3229375,0.21784375,1.406375,1.1124375,-0.128125,-0.3330625,1.364,0.01869446962828649,0.022640234865627783,True
43751,626,0,627,4623.0,43207.0,31512.0,0.006222,6.1e-05,0.002074,0.35000000000000003,-1.8900000000000001,-3.7625,1.14665625,0.3158125,0.21278125,1.4011875,1.1090625,-0.13434375,-0.32878125,1.36334375,0.018652102359319384,0.022260157401020657,True
43752,627,0,628,4623.0,43206.0,31512.0,0.002928,-0.0013419999999999999,-0.0015249999999999999,0.35000000000000003,-1.5750000000000002,-3.8500000000000005,1.1425,0.32796875000000003,0.20890625000000002,1.426125,1.1188125,-0.13428125,-0.32875,1.3587500000000001,0.01915325321735032,0.02209962492935313,True
43753,628,0,629,4623.0,43208.0,31511.0,-0.002196,-6.1e-05,-0.003355,0.385,-1.4175000000000002,-3.8325000000000005,1.1419062500000001,0.32803125,0.217,1.42409375,1.1223125,-0.13621875,-0.325125,1.35225,0.019234578738643558,0.02228662750962225,True
43754,629,0,630,4624.0,43206.0,31512.0,-0.002745,0.001586,0.001647,0.43750000000000006,-0.8575,-3.7800000000000002,1.1310625,0.33015625,0.21453125,1.42309375,1.12140625,-0.13659375,-0.32887500000000003,1.35171875,0.019337857066099064,0.022335856055818448,True
43755,630,0,631,4622.0,43206.0,31512.0,-0.007259,-0.000488,0.003294,0.42000000000000004,-1.0150000000000001,-3.8325000000000005,1.16859375,0.32246875,0.22162500000000002,1.3940937500000001,1.11159375,-0.13840625,-0.33387500000000003,1.352125,0.019093016963371394,0.02282825895998891,True
43756,631,0,632,4621.0,43205.0,31512.0,-0.0032329999999999998,-0.001952,0.0006709999999999999,0.45500000000000007,-1.3475000000000001,-3.6750000000000003,1.15728125,0.317875,0.22284375,1.38778125,1.10615625,-0.13715625,-0.3315625,1.35196875,0.018851899755175178,0.02278547668280654,True
43757,632,0,633,4620.0,43204.0,31510.0,0.001098,-0.00042699999999999997,-0.000793,0.31500000000000006,-1.6275000000000002,-3.6925000000000003,1.15609375,0.3185,0.2151875,1.3976250000000001,1.108,-0.13340625,-0.332625,1.35978125,0.01872534052253813,0.02251349782442297,True
43758,633,0,634,4622.0,43204.0,31511.0,0.002928,-0.000305,-6.1e-05,0.3325,-2.0650000000000004,-3.9025000000000003,1.1341875000000001,0.327125,0.215875,1.42346875,1.10971875,-0.13384375,-0.32456250000000003,1.3530312500000001,0.019100511082077425,0.022217768562127274,True
43759,634,0,635,4620.0,43204.0,31509.0,0.002196,0.001403,-0.0015249999999999999,0.47250000000000003,-2.4850000000000003,-3.9550000000000005,1.1615312500000001,0.33078125,0.21446875,1.4244375,1.1158125,-0.13725,-0.330125,1.3527500000000001,0.01939041315808553,0.02238351631978874,True
43760,635,0,636,4619.0,43202.0,31511.0,0.00366,0.000183,-0.002074,0.42000000000000004,-2.24,-3.5875000000000004,1.13675,0.3295,0.21434375,1.4096875,1.11621875,-0.135375,-0.329625,1.35915625,0.019261146760719484,0.02235828747874248,True
43761,636,0,637,4618.0,43202.0,31510.0,0.0044529999999999995,0.000793,0.0006709999999999999,0.36750000000000005,-2.0300000000000002,-3.6925000000000003,1.1334375,0.3249375,0.2094375,1.39584375,1.11903125,-0.13528125,-0.329625,1.3613125,0.019068298613673706,0.022156630034371676,True
43762,637,0,638,4618.0,43200.0,31509.0,0.000488,0.001647,0.000122,0.21000000000000002,-1.8200000000000003,-3.7100000000000004,1.138375,0.3266875,0.2208125,1.4020937500000001,1.109125,-0.13518750000000002,-0.32309375,1.3611875,0.01913699655326896,0.022361721563483265,True
43763,638,0,639,4619.0,43202.0,31510.0,-0.00042699999999999997,-0.000305,0.000366,0.21000000000000002,-1.5925000000000002,-3.5525,1.1480000000000001,0.32459375,0.22287500000000002,1.41025,1.09753125,-0.13471875,-0.33228125000000003,1.3545625000000001,0.019031193392299216,0.02281562687427838,True
43764,639,0,640,4617.0,43205.0,31510.0,-0.0017079999999999999,-0.0011589999999999999,0.000732,0.29750000000000004,-1.2950000000000002,-3.3950000000000005,1.1388125,0.325,0.21815625,1.4125625,1.1113125,-0.13484375,-0.3324375,1.3538125,0.019053106569210748,0.022627973461351744,True
43765,640,0,641,4617.0,43204.0,31510.0,-0.0017079999999999999,0.000305,-0.000183,0.28,-1.2075,-3.5000000000000004,1.145875,0.32559375,0.217125,1.40596875,1.1105625000000001,-0.1363125,-0.33071875,1.35390625,0.019137399302399653,0.022516546084360947,True
43766,641,0,642,4617.0,43203.0,31510.0,-0.001281,-0.00042699999999999997,0.000488,0.21000000000000002,-1.225,-3.6225000000000005,1.14615625,0.32321875,0.2159375,1.40471875,1.108875,-0.137125,-0.330125,1.35221875,0.019072020797837354,0.022443883868249755,True
43767,642,0,643,4616.0,43204.0,31511.0,-0.0015249999999999999,-0.000549,-0.000549,0.21000000000000002,-1.4000000000000001,-3.4825000000000004,1.152625,0.32390625,0.2185625,1.4041875,1.11525,-0.13484375,-0.33290625,1.3540625,0.019007788272919726,0.022663497090488316,True
43768,643,0,644,4617.0,43204.0,31509.0,0.000549,-0.00061,-0.00061,0.29750000000000004,-1.2950000000000002,-3.4125000000000005,1.14115625,0.3249375,0.216375,1.4119375,1.11059375,-0.1361875,-0.33240625,1.3529375000000001,0.01910513000447979,0.022553513383001322,True
43769,644,0,645,4616.0,43205.0,31510.0,-0.0017079999999999999,-0.000305,0.000793,0.385,-1.4175000000000002,-3.5175000000000005,1.146125,0.325375,0.21603125,1.413,1.1144687500000001,-0.1364375,-0.33121875,1.35346875,0.019133416022973564,0.02249168056984404,True
43770,645,0,646,4616.0,43206.0,31510.0,-0.002745,-0.0011589999999999999,-0.0018909999999999999,0.29750000000000004,-1.8725000000000003,-3.6575,1.1375625,0.32553125,0.21890625,1.4130625,1.111375,-0.137375,-0.3325,1.3498125,0.019177986421472924,0.022661306894071715,True
43771,646,0,647,4616.0,43203.0,31511.0,0.0008539999999999999,-0.000976,-0.000793,0.24500000000000002,-1.9250000000000003,-3.6225000000000005,1.14628125,0.33190625,0.21528125,1.41065625,1.11096875,-0.1380625,-0.33378125000000003,1.35378125,0.019470027886455264,0.02256379698490139,True
43772,647,0,648,4614.0,43206.0,31510.0,0.00244,-0.000549,0.0011589999999999999,0.15750000000000003,-1.8375000000000001,-3.6925000000000003,1.14603125,0.32390625,0.2220625,1.4053437500000001,1.1126562500000001,-0.13915625,-0.3295625,1.35975,0.019183044146375252,0.022673034091755657,True
43773,648,0,649,4615.0,43204.0,31509.0,0.004514,0.00042699999999999997,0.003111,0.10500000000000001,-1.5575,-3.7100000000000004,1.153125,0.32596875000000003,0.21625,1.4111562500000001,1.111,-0.13465625,-0.3320625,1.35428125,0.01908562505422053,0.022534567301888197,True
43774,649,0,650,4615.0,43203.0,31511.0,-0.0006709999999999999,0.0013419999999999999,-0.005307,0.24500000000000002,-1.4700000000000002,-3.6750000000000003,1.14465625,0.3256875,0.21646875000000002,1.4054375000000001,1.1129375,-0.13690625,-0.3305,1.3555625,0.01916541188869224,0.02248078543392039,True
43775,650,0,651,4616.0,43204.0,31510.0,0.001464,0.00122,-0.0048189999999999995,0.35000000000000003,-0.8925000000000001,-3.5700000000000003,1.15209375,0.321375,0.2188125,1.411,1.11715625,-0.13503125,-0.33271875,1.35990625,0.018910530724918783,0.02266624028603462,True
43776,651,0,652,4615.0,43204.0,31511.0,-0.000366,0.00061,0.000244,0.47250000000000003,-0.8400000000000001,-3.5700000000000003,1.1545,0.32475,0.2189375,1.41028125,1.1098125,-0.13496875,-0.33109375,1.35378125,0.019047828682189613,0.022606104585824464,True
43777,652,0,653,4615.0,43204.0,31513.0,-0.005673,-0.000488,0.0048189999999999995,0.2625,-1.155,-3.7450000000000006,1.14696875,0.325125,0.21896875000000002,1.4092500000000001,1.1114375,-0.136125,-0.33015625,1.3538125,0.019110358435747245,0.022569727639952988,True
43778,653,0,654,4615.0,43203.0,31512.0,-0.0062829999999999995,-0.0017079999999999999,0.006527,0.31500000000000006,-1.5750000000000002,-3.6400000000000006,1.1497187500000001,0.32546875000000003,0.216875,1.40496875,1.11034375,-0.13515625,-0.3303125,1.3530312500000001,0.019085229663677858,0.022489949522843163,True
43779,654,0,655,4614.0,43204.0,31513.0,0.0040869999999999995,0.000488,-0.002928,0.45500000000000007,-2.0125,-3.5525,1.1383125,0.32471875,0.216875,1.4123125,1.1143750000000001,-0.13625,-0.32903125,1.35421875,0.019098606867263973,0.022438470500135515,True
43780,655,0,656,4615.0,43205.0,31512.0,0.005856,0.004026,-0.004209,0.47250000000000003,-1.8900000000000001,-3.8675,1.1470625,0.32596875000000003,0.21765625,1.4074375000000001,1.11303125,-0.1361875,-0.3299375,1.35128125,0.019147856304977746,0.02250699369860691,True
43781,656,0,657,4615.0,43204.0,31512.0,0.004148,0.002623,-0.001769,0.3325,-1.6275000000000002,-3.9025000000000003,1.135,0.32734375,0.2154375,1.40540625,1.11640625,-0.13653125,-0.33009375,1.35375,0.019218793089831415,0.02242207759680334,True
43782,657,0,658,4614.0,43202.0,31515.0,0.002623,-0.003172,0.000976,0.24500000000000002,-1.33,-3.6225000000000005,1.15028125,0.32246875,0.218625,1.411375,1.117375,-0.13365625,-0.3320625,1.354125,0.018899954291012162,0.022632175139283815,True
43783,658,0,659,4615.0,43204.0,31513.0,-0.000976,-0.0044529999999999995,0.000305,0.36750000000000005,-1.0675000000000001,-3.4650000000000003,1.1465625,0.32546875000000003,0.21665625,1.4058125000000001,1.1111875,-0.14040625,-0.3313125,1.35171875,0.019298556750676057,0.022521134032535237,True
43784,659,0,660,4614.0,43205.0,31512.0,-0.002257,0.002013,0.000244,0.35000000000000003,-0.6300000000000001,-3.7800000000000002,1.14053125,0.3256875,0.21765625,1.40959375,1.1291875,-0.13375,-0.33078125,1.3682812500000001,0.019037136789765374,0.02254089148904744,True
43785,660,0,661,4615.0,43204.0,31513.0,-0.0017079999999999999,0.00244,0.0006709999999999999,0.3325,-0.35000000000000003,-3.6750000000000003,1.1430625,0.32509375,0.21865625,1.4066875,1.1039375,-0.1369375,-0.3288125,1.36253125,0.0191420825446476,0.022502896514164015,True
43786,661,0,662,4614.0,43202.0,31513.0,-0.001952,0.000793,0.000549,0.45500000000000007,-0.29750000000000004,-3.3775000000000004,1.14459375,0.326,0.2164375,1.40659375,1.10396875,-0.138625,-0.3289375,1.35915625,0.019248196614347336,0.022416720828848363,True
43787,662,0,663,4615.0,43203.0,31515.0,-0.002989,-0.0013419999999999999,0.0006709999999999999,0.35000000000000003,-0.525,-3.3600000000000003,1.152375,0.32496875000000003,0.21640625,1.406625,1.1103750000000001,-0.13493750000000002,-0.33215625,1.34878125,0.019055622165998983,0.022544754947478193,True
43788,663,0,664,4614.0,43204.0,31515.0,-0.002379,-0.0023179999999999997,0.000549,0.29750000000000004,-0.805,-3.5700000000000003,1.15440625,0.32428125,0.21803125,1.4056875,1.12459375,-0.13265625,-0.33303125,1.3475,0.01893440553192316,0.022646685254226185,True
43789,664,0,665,4616.0,43203.0,31516.0,0.00183,0.0006709999999999999,0.000366,0.31500000000000006,-1.61,-3.6225000000000005,1.15196875,0.32390625,0.21565625,1.399,1.120125,-0.1335,-0.33540625,1.3489375000000001,0.018953166759898065,0.022644475063982136,True
43790,665,0,666,4615.0,43204.0,31512.0,0.004026,-0.000793,0.000305,0.2625,-1.8200000000000003,-3.6225000000000005,1.1538125000000001,0.32528125,0.21921875000000002,1.410125,1.12946875,-0.13328125,-0.33103125,1.35621875,0.019001249571066928,0.022615153231534322,True
43791,666,0,667,4617.0,43203.0,31514.0,0.003965,-0.001098,-0.000732,0.1925,-1.6975000000000002,-3.6225000000000005,1.1460937500000001,0.3293125,0.21534375,1.4059062500000001,1.10478125,-0.1431875,-0.32921875,1.3485625,0.019570738122296406,0.022383065629676253,True
43792,667,0,668,4615.0,43205.0,31515.0,0.002562,0.000366,-0.000122,0.28,-1.5925000000000002,-3.5700000000000003,1.14740625,0.32365625000000003,0.21871875000000002,1.40628125,1.1260000000000001,-0.13471875,-0.33278125000000003,1.35034375,0.018992348937150967,0.02266489779091735,True
43793,668,0,669,4614.0,43205.0,31513.0,-0.001098,0.0015249999999999999,-0.001098,0.28,-1.33,-3.6400000000000006,1.149,0.324875,0.21878125,1.40653125,1.124875,-0.133875,-0.33103125,1.34775,0.019008551258345375,0.022597172078351595,True
43794,669,0,670,4616.0,43207.0,31519.0,-0.000915,-0.000488,-0.00244,0.17500000000000002,-0.56,-3.4650000000000003,1.14940625,0.32515625,0.21940625,1.410875,1.1185,-0.13353125,-0.33178125,1.3495625,0.0190062322520663,0.022652985999535077,True
43795,670,0,671,4614.0,43208.0,31517.0,0.0,-0.000305,0.0026839999999999998,0.22750000000000004,-0.6825000000000001,-3.3775000000000004,1.1385625,0.3223125,0.21884375,1.4118125000000001,1.1165625000000001,-0.1345625,-0.33065625,1.3475,0.01893032036524383,0.022584676481958846,True
43796,671,0,672,4615.0,43208.0,31517.0,-0.003294,0.001464,0.0050019999999999995,0.31500000000000006,-1.2425000000000002,-3.535,1.1505625,0.32609375,0.21665625,1.405,1.103375,-0.1363125,-0.33059375,1.35446875,0.01915811497717392,0.02249225833216668,True
43797,672,0,673,4615.0,43208.0,31519.0,-0.0030499999999999998,0.001586,0.006039,0.21000000000000002,-1.5225000000000002,-3.5000000000000004,1.14725,0.32534375,0.21875,1.4056250000000001,1.1173125,-0.13065625,-0.33028125,1.3591875,0.018897123860856454,0.02256575846199888,True
43798,673,0,674,4617.0,43206.0,31518.0,0.001037,-0.000488,-0.000793,0.14,-1.225,-3.4125000000000005,1.15203125,0.32484375,0.21859375,1.4106875,1.1105,-0.13684375000000001,-0.3334375,1.35384375,0.019127915181536528,0.022686118638190762,True
43799,674,0,675,4617.0,43209.0,31517.0,0.000915,0.001098,-0.003538,0.21000000000000002,-1.0675000000000001,-3.3775000000000004,1.14675,0.3254375,0.21621875000000002,1.4059062500000001,1.1147500000000001,-0.1320625,-0.33065625,1.3538125,0.018958180636238615,0.02247678790003866,True
43800,675,0,676,4617.0,43206.0,31518.0,-0.000549,0.0015249999999999999,-0.0018909999999999999,0.2625,-1.2075,-3.4650000000000003,1.1456875,0.32403125,0.21903125,1.4053437500000001,1.11940625,-0.135125,-0.3301875,1.3584687500000001,0.019024399086393792,0.02257355188898565,True
43801,676,0,677,4617.0,43207.0,31518.0,-0.000793,-0.000793,-0.000305,0.49000000000000005,-1.3825,-3.2900000000000005,1.1535,0.32484375,0.21581250000000002,1.4112500000000001,1.111125,-0.13646875,-0.33140625,1.35434375,0.019112675709863317,0.02249022289864566,True
43802,677,0,678,4619.0,43208.0,31518.0,0.000305,-0.001769,-0.00061,0.49000000000000005,-1.715,-3.2550000000000003,1.14684375,0.32296875,0.21771875000000002,1.40690625,1.1189375,-0.13553125,-0.3285,1.36021875,0.018996888663886363,0.022451805495612143,True
43803,678,0,679,4618.0,43209.0,31518.0,0.004026,-0.0013419999999999999,-0.000976,0.21000000000000002,-1.5225000000000002,-3.3950000000000005,1.15671875,0.32490625,0.21921875000000002,1.4069375,1.111625,-0.135,-0.3319375,1.35334375,0.01905557281955666,0.02265155621084429,True
43804,679,0,680,4618.0,43209.0,31520.0,0.001464,-0.001281,0.0015249999999999999,0.31500000000000006,-0.56,-3.3075,1.1460937500000001,0.32284375,0.218125,1.4045,1.1163125,-0.134625,-0.32556250000000003,1.3590312500000001,0.018954872926345446,0.02235045952174796,True
43805,680,0,681,4618.0,43211.0,31519.0,-0.003721,-0.001586,0.0026839999999999998,0.42000000000000004,-0.5775,-3.08,1.1585625,0.32540625,0.2180625,1.41453125,1.1058125,-0.13390625,-0.33365625,1.35415625,0.01903183410269525,0.022673072403576838,True
43806,681,0,682,4621.0,43206.0,31520.0,-0.007259,0.001586,0.001769,0.45500000000000007,-0.9275000000000001,-3.0975,1.1491875,0.32665625,0.21665625,1.4060625,1.111875,-0.13728125,-0.33090625,1.353375,0.01922078527381786,0.02250481319412424,True
43807,682,0,683,4618.0,43209.0,31519.0,-0.0060999999999999995,0.001769,0.0013419999999999999,0.31500000000000006,-1.155,-3.2550000000000003,1.143,0.32421875,0.2174375,1.4035,1.12003125,-0.13518750000000002,-0.3290625,1.35934375,0.019034708141380714,0.022462846646885797,True
43808,683,0,684,4618.0,43209.0,31520.0,-0.0011589999999999999,0.002379,0.001769,0.29750000000000004,-1.1900000000000002,-3.2375000000000003,1.15796875,0.3251875,0.22028125,1.41675,1.11053125,-0.13440625,-0.33228125000000003,1.35334375,0.019043093301704905,0.022709029799661717,True
43809,684,0,685,4618.0,43208.0,31520.0,0.0008539999999999999,-0.002806,-0.0008539999999999999,0.22750000000000004,-1.9075000000000002,-3.4125000000000005,1.1440625,0.32056250000000003,0.21696875000000002,1.40521875,1.11840625,-0.13515625,-0.3301875,1.3615625,0.018881947366717382,0.022488780655718334,True
43810,685,0,686,4616.0,43209.0,31518.0,0.002379,-0.0028669999999999998,-0.0028669999999999998,0.17500000000000002,-1.9600000000000002,-3.3600000000000003,1.1473125,0.3261875,0.21715625,1.4095,1.1111875,-0.1385625,-0.32996875000000003,1.3586875,0.019253424888081055,0.02248769842747949,True
43811,686,0,687,4616.0,43207.0,31516.0,0.004575,-0.000305,-0.002928,0.1925,-1.9600000000000002,-3.3775000000000004,1.1555312500000001,0.32615625,0.21181250000000001,1.39603125,1.11146875,-0.13418750000000002,-0.32971875,1.358625,0.019074342154671665,0.022258015210307354,True
43812,687,0,688,4614.0,43207.0,31516.0,0.00366,0.0008539999999999999,-0.001952,0.2625,-1.8025000000000002,-3.5000000000000004,1.158625,0.326875,0.21484375,1.4035312500000001,1.1106562500000001,-0.13518750000000002,-0.33021875,1.3571875,0.01914476529341237,0.02240269623551987,True
43813,688,0,689,4612.0,43207.0,31515.0,0.000366,0.001464,0.000183,0.29750000000000004,-1.5225000000000002,-3.7275000000000005,1.1556250000000001,0.32696875000000003,0.22221875,1.41621875,1.11059375,-0.1375,-0.3296875,1.34725,0.019242620403935786,0.022684477554428106,True
43814,689,0,690,4611.0,43206.0,31515.0,-0.002623,-0.000244,0.000183,0.2625,-1.2425000000000002,-3.5175000000000005,1.1424375,0.32084375,0.21928125,1.4085,1.1150625,-0.1345625,-0.33009375,1.35365625,0.0188694636581873,0.022580060958458086,True
43815,690,0,691,4612.0,43208.0,31512.0,-0.001769,0.000488,0.000793,0.2625,-1.1375000000000002,-3.4825000000000004,1.15084375,0.32540625,0.21903125,1.40453125,1.11496875,-0.13440625,-0.32965625,1.3558125,0.019052157125265926,0.02255220930217623,True
43816,691,0,692,4609.0,43204.0,31514.0,-0.001403,0.000305,0.001769,0.3325,-1.225,-3.6750000000000003,1.153125,0.32553125,0.2175,1.40596875,1.11128125,-0.1360625,-0.3301875,1.35734375,0.019124650095681515,0.022510615670347792,True
43817,692,0,693,4608.0,43205.0,31514.0,-0.000793,0.001586,0.001098,0.4025,-1.4700000000000002,-3.7100000000000004,1.15359375,0.3301875,0.21828125,1.40959375,1.11178125,-0.136125,-0.3294375,1.3584375,0.019320106272237157,0.022512594054013787,True
43818,693,0,694,4608.0,43206.0,31514.0,-0.00061,-0.0006709999999999999,-0.0008539999999999999,0.385,-1.54,-3.6225000000000005,1.14646875,0.32596875000000003,0.22303125000000001,1.40475,1.1119375,-0.137,-0.33021875,1.36721875,0.01918087376227369,0.022739211911113624,True
43819,694,0,695,4606.0,43201.0,31513.0,0.00244,0.0,0.001281,0.17500000000000002,-1.3650000000000002,-3.535,1.14934375,0.32721875,0.2179375,1.40946875,1.1021875,-0.1408125,-0.3299375,1.37678125,0.01938755168244648,0.02251855353101503,True
43820,695,0,696,4607.0,43202.0,31511.0,0.000183,-0.000122,0.002928,0.24500000000000002,-1.5225000000000002,-3.6925000000000003,1.1459062500000001,0.32309375,0.21825,1.4105,1.1088437500000001,-0.14846875,-0.33,1.3839375,0.0195276356808338,0.022533908754623924,True
43821,696,0,697,4604.0,43202.0,31511.0,0.001403,-0.000183,0.000915,0.21000000000000002,-1.8725000000000003,-3.6925000000000003,1.1458125000000001,0.32306250000000003,0.21853125,1.4131875,1.10375,-0.1453125,-0.3246875,1.37334375,0.01939817511162881,0.02233199295982734,True
43822,697,0,698,4604.0,43200.0,31511.0,0.003172,-0.001464,-0.00244,0.14,-1.8900000000000001,-3.4650000000000003,1.14665625,0.32171875,0.21903125,1.41234375,1.0981875,-0.1428125,-0.3265,1.36659375,0.01924097492783825,0.022425390006782727,True
43823,698,0,699,4605.0,43200.0,31509.0,0.005063,6.1e-05,-0.001281,0.2625,-1.6275000000000002,-3.6750000000000003,1.1458125000000001,0.32203125,0.218,1.409875,1.09328125,-0.140125,-0.3258125,1.37621875,0.019144733094795488,0.02235536839725292,True
43824,699,0,700,4604.0,43200.0,31509.0,-0.004209,0.000793,-0.000488,0.525,-1.2775,-3.7275000000000005,1.146625,0.3251875,0.2189375,1.4085625,1.0989375000000001,-0.1423125,-0.32778125,1.3660625,0.019364342168961653,0.02247302145566604,True
43825,700,0,701,4602.0,43200.0,31509.0,-0.005124,-0.0008539999999999999,-6.1e-05,0.385,-0.8575,-3.5525,1.1471875,0.32603125,0.21615625,1.40575,1.09940625,-0.1385625,-0.32509375,1.33390625,0.01924695184313482,0.022250685056455333,True
43826,701,0,702,4601.0,43199.0,31509.0,-0.005063,-0.003538,0.0017079999999999999,0.31500000000000006,-0.8575,-3.2900000000000005,1.1523125,0.32865625,0.2176875,1.40525,1.13309375,-0.13159375,-0.33384375,1.34428125,0.01907250738463969,0.0226651923825228,True
43827,702,0,703,4601.0,43200.0,31509.0,-0.003904,0.000305,-0.000366,0.31500000000000006,-1.2600000000000002,-3.4475000000000002,1.1480625,0.324375,0.21940625,1.4104375,1.133,-0.13290625,-0.33071875,1.3456875,0.018948453421352845,0.022610306158752504,True
43828,703,0,704,4600.0,43200.0,31510.0,0.0050019999999999995,0.001037,-0.00061,0.35000000000000003,-1.6975000000000002,-3.6400000000000006,1.1466875,0.32206250000000003,0.22187500000000002,1.41028125,1.11778125,-0.14171875,-0.32115625000000003,1.36546875,0.019210780094105772,0.02232752606077271,True
43829,704,0,705,4600.0,43200.0,31509.0,0.005063,0.000305,0.000183,0.3325,-1.6800000000000002,-3.6750000000000003,1.1468125,0.32575,0.2149375,1.40521875,1.09934375,-0.1393125,-0.32765625,1.35325,0.019265772378562977,0.02230357681907808,True
43830,705,0,706,4600.0,43201.0,31509.0,0.002562,-0.001464,-0.001464,0.3325,-1.5225000000000002,-3.7100000000000004,1.14978125,0.32471875,0.21875,1.40696875,1.11671875,-0.13075,-0.33690625,1.3433125000000001,0.018875034965759457,0.02283183590765568,True
43831,706,0,707,4600.0,43197.0,31508.0,0.001037,-0.001586,-0.000976,0.22750000000000004,-1.0850000000000002,-3.6050000000000004,1.14634375,0.32256250000000003,0.21884375,1.4120625,1.117375,-0.13296875,-0.32753125,1.350625,0.018875889440664033,0.022459122316408495,True
43832,707,0,708,4601.0,43197.0,31508.0,-0.001098,-0.000976,0.000488,0.24500000000000002,-0.77,-3.5700000000000003,1.1361875000000001,0.32256250000000003,0.21809375,1.40325,1.1125,-0.13509375,-0.33228125000000003,1.35390625,0.01896227355653011,0.022619128652394647,True
43833,708,0,709,4599.0,43196.0,31508.0,-0.0026839999999999998,0.000305,0.000915,0.28,-0.5775,-3.4650000000000003,1.14696875,0.3238125,0.21790625,1.410125,1.1194375,-0.135,-0.327375,1.35359375,0.019010254816656306,0.022414306927895016,True
43834,709,0,710,4599.0,43197.0,31506.0,-0.002013,-0.001769,0.00244,0.3325,-1.1025,-3.4650000000000003,1.14640625,0.32803125,0.21759375,1.41025,1.11840625,-0.13465625,-0.33234375,1.353375,0.019171083076851368,0.02260109036968541,True
43835,710,0,711,4598.0,43198.0,31507.0,-0.0026839999999999998,-0.000366,0.000183,0.385,-2.0650000000000004,-3.6050000000000004,1.14725,0.32465625,0.21840625,1.4095625,1.11203125,-0.13490625,-0.3304375,1.35546875,0.019041403983079484,0.022557907148196575,True
43836,711,0,712,4598.0,43196.0,31508.0,-0.00183,0.0013419999999999999,-0.001281,0.5075000000000001,-2.765,-3.7100000000000004,1.1420000000000001,0.32556250000000003,0.21603125,1.4060625,1.1101875,-0.13703125,-0.33034375,1.3471875,0.019165312635537977,0.02245652612285842,True
43837,712,0,713,4598.0,43198.0,31507.0,0.003477,0.001098,0.00061,0.45500000000000007,-3.0100000000000002,-3.6925000000000003,1.151375,0.325375,0.21778125,1.4059375,1.11109375,-0.13393750000000001,-0.3293125,1.3607500000000001,0.019031809459189992,0.022487020543634353,True
43838,713,0,714,4598.0,43198.0,31508.0,0.0060999999999999995,0.00061,-0.0013419999999999999,0.2625,-2.6775,-3.8325000000000005,1.14675,0.324125,0.21903125,1.4035,1.1103750000000001,-0.13540625,-0.3318125,1.35375,0.019039714734447447,0.022638829310393543,True
43839,714,0,715,4597.0,43199.0,31508.0,0.003538,0.001586,-0.0006709999999999999,0.15750000000000003,-1.8900000000000001,-3.6925000000000003,1.14671875,0.324125,0.21878125,1.4080625,1.11965625,-0.13421875,-0.33246875,1.352625,0.01899144756861044,0.022654914536775067,True
43840,715,0,716,4598.0,43197.0,31506.0,0.001647,0.000732,0.00061,0.12250000000000001,-1.0325000000000002,-3.4125000000000005,1.14703125,0.320375,0.224875,1.422,1.11753125,-0.13596875,-0.332125,1.3465,0.01890720669747304,0.022891547696717814,True
43841,716,0,717,4596.0,43195.0,31507.0,-0.00183,-0.0006709999999999999,0.00061,0.15750000000000003,-0.43750000000000006,-3.2375000000000003,1.1470625,0.32628125,0.21409375,1.4035,1.1106875,-0.13121875,-0.32971875,1.3603125,0.01895884351054586,0.0223517791384251,True
43842,717,0,718,4597.0,43198.0,31507.0,-0.003538,-0.001403,-0.00042699999999999997,0.22750000000000004,-0.31500000000000006,-3.3775000000000004,1.163875,0.32987500000000003,0.2155,1.39375,1.11128125,-0.1365625,-0.3303125,1.3596875,0.01932493494050779,0.022433435657680106,True
43843,718,0,719,4595.0,43198.0,31508.0,-0.0053679999999999995,0.000488,0.000122,0.15750000000000003,-0.6125,-3.325,1.1616250000000001,0.32690625,0.2211875,1.41859375,1.1115,-0.1376875,-0.33071875,1.3529375000000001,0.01924764955217852,0.02268351607985276,True
43844,719,0,720,4596.0,43199.0,31508.0,-0.002928,-0.000488,0.000488,0.14,-0.77,-3.3425000000000002,1.12915625,0.31925000000000003,0.2198125,1.40040625,1.1195,-0.13443750000000002,-0.33178125,1.35309375,0.018798345724858927,0.022669682269973557,True
43845,720,0,721,4596.0,43200.0,31509.0,-0.002989,-0.0017079999999999999,0.002196,0.35000000000000003,-0.9100000000000001,-3.2725000000000004,1.16178125,0.3274375,0.2129375,1.40840625,1.09765625,-0.1366875,-0.32984375,1.3585625000000001,0.01922902635251834,0.022309278085684378,True
43846,721,0,722,4596.0,43200.0,31510.0,-0.003111,-0.000549,-0.002196,0.385,-1.715,-3.43,1.1400000000000001,0.318125,0.22096875,1.40015625,1.1154375,-0.13421875,-0.33296875,1.35434375,0.018742837905204618,0.02276489587814886,True
43847,722,0,723,4597.0,43199.0,31512.0,-0.00061,0.001037,-0.002013,0.31500000000000006,-2.0125,-3.4825000000000004,1.15346875,0.31765625000000003,0.22021875,1.4074375000000001,1.1109375000000001,-0.1338125,-0.33353125,1.35384375,0.018706897221481274,0.02275666422233723,True
43848,723,0,724,4596.0,43201.0,31512.0,0.0053679999999999995,-0.0008539999999999999,6.1e-05,0.36750000000000005,-1.6975000000000002,-3.4650000000000003,1.158,0.32696875000000003,0.21071875,1.3864687500000001,1.1114375,-0.137875,-0.32987500000000003,1.36184375,0.019257857205739942,0.022219339392413644,True
43849,724,0,725,4594.0,43201.0,31511.0,0.0015249999999999999,-0.000366,-0.001464,0.24500000000000002,-2.0125,-3.535,1.12959375,0.3174375,0.21696875000000002,1.40015625,1.1136875,-0.13046875,-0.330125,1.3528125,0.018561854501894,0.022486269593764933,True
43850,725,0,726,4595.0,43199.0,31509.0,0.001037,0.000793,-6.1e-05,0.31500000000000006,-1.8725000000000003,-3.4475000000000002,1.1581875,0.3239375,0.22625,1.40815625,1.11103125,-0.13625,-0.33387500000000003,1.3535625,0.01906623854161272,0.02301832322225704,True
43851,726,0,727,4594.0,43198.0,31509.0,0.0028669999999999998,-0.000244,0.0013419999999999999,0.21000000000000002,-1.6450000000000002,-3.4825000000000004,1.1510625,0.3266875,0.2213125,1.4098125000000001,1.11203125,-0.13709375000000001,-0.3313125,1.3545625000000001,0.019214461144478095,0.022712502665032972,True
43852,727,0,728,4594.0,43199.0,31510.0,0.0021349999999999997,0.0,0.000793,0.2625,-1.7325000000000002,-3.5525,1.157125,0.3266875,0.21728125,1.4056250000000001,1.11134375,-0.13275,-0.33003125,1.34878125,0.01903792564046783,0.022495347185384314,True
43853,728,0,729,4595.0,43201.0,31511.0,0.001037,0.001586,0.000244,0.31500000000000006,-1.4175000000000002,-3.5000000000000004,1.14403125,0.3280625,0.21940625,1.4055,1.1107500000000001,-0.13465625,-0.32887500000000003,1.3498125,0.019172377895376073,0.022536235234880367,True
43854,729,0,730,4594.0,43203.0,31511.0,0.0013419999999999999,-0.000488,0.003477,0.15750000000000003,-0.9625000000000001,-3.2900000000000005,1.1537187500000001,0.32228125,0.2184375,1.4066875,1.11165625,-0.13428125,-0.3293125,1.3618125,0.01891759258420012,0.02251399417883263,True
43855,730,0,731,4595.0,43199.0,31511.0,-0.0040869999999999995,-0.001281,0.006161,0.2625,-0.9625000000000001,-3.2550000000000003,1.151125,0.32246875,0.21828125,1.40809375,1.11165625,-0.135125,-0.3323125,1.3571250000000001,0.01895965941755015,0.022628089705818137,True
43856,731,0,732,4594.0,43200.0,31513.0,-0.005856,0.000915,-0.005612,0.29750000000000004,-1.1375000000000002,-3.4125000000000005,1.15546875,0.32578125,0.219,1.4135,1.1118125,-0.13796875,-0.33437500000000003,1.354125,0.019212469980515658,0.022740464877359704,True
43857,732,0,733,4595.0,43199.0,31514.0,-0.001586,0.000549,-0.008662,0.43750000000000006,-0.9625000000000001,-3.3425000000000002,1.13921875,0.3273125,0.21603125,1.41246875,1.1120625,-0.13543750000000002,-0.3310625,1.3545625000000001,0.01917305207332579,0.02248540317546757,True
43858,733,0,734,4596.0,43202.0,31515.0,-0.003355,-0.001769,0.008173999999999999,0.3325,-1.4000000000000001,-3.5525,1.14725,0.325,0.21546875000000001,1.4094375000000001,1.115875,-0.13584375,-0.3305,1.35196875,0.0190937493121615,0.022439684757814264,True
43859,734,0,735,4598.0,43202.0,31514.0,-0.0050019999999999995,-0.000305,0.008113,0.2625,-1.9250000000000003,-3.535,1.14703125,0.3241875,0.21590625,1.4080625,1.1183125,-0.13518750000000002,-0.32656250000000003,1.35421875,0.01903341335135681,0.022299441197250948,True
43860,735,0,736,4597.0,43201.0,31517.0,-0.002013,-0.001403,-0.000305,0.14,-1.8375000000000001,-3.115,1.14721875,0.3243125,0.21531250000000002,1.4055625,1.11909375,-0.13459375,-0.32887500000000003,1.35959375,0.01901445927590971,0.02236796810374504,True
43861,736,0,737,4597.0,43201.0,31516.0,0.006344,0.0011589999999999999,-0.005124,0.14,-1.3475000000000001,-2.9925,1.1466875,0.322625,0.2165,1.40503125,1.1189375,-0.134875,-0.32934375,1.35790625,0.018955971389949193,0.02243561337325426,True
43862,737,0,738,4596.0,43200.0,31516.0,0.008052,0.003965,-0.005307,0.28,-1.2425000000000002,-3.3075,1.14671875,0.3229375,0.2168125,1.4055625,1.1181875000000001,-0.13540625,-0.32934375,1.35478125,0.01899051315947914,0.0224484579449456,True
43863,738,0,739,4596.0,43200.0,31516.0,-0.0025009999999999998,-0.001464,0.002074,0.36750000000000005,-1.0675000000000001,-3.2550000000000003,1.1353125,0.32346875,0.21721875000000002,1.40653125,1.11840625,-0.1345625,-0.329625,1.36059375,0.018978228836756414,0.022476456172259133,True
43864,739,0,740,4597.0,43201.0,31518.0,-0.004331,-0.002257,0.0051849999999999995,0.3325,-1.225,-3.0275000000000003,1.1359062500000001,0.32256250000000003,0.218375,1.4058125000000001,1.10775,-0.13428125,-0.3315,1.3590625,0.01892924613199326,0.022599305427121224,True
43865,740,0,741,4597.0,43200.0,31518.0,-0.000793,-0.0030499999999999998,0.002257,0.08750000000000001,-1.0325000000000002,-2.9225000000000003,1.1536250000000001,0.32465625,0.2181875,1.41228125,1.11059375,-0.13421875,-0.33140625,1.35425,0.019013459882557832,0.022587833368652912,True
43866,741,0,742,4597.0,43199.0,31519.0,0.00244,-0.003721,0.001586,0.0,-0.6825000000000001,-3.0975,1.14921875,0.32521875,0.21921875000000002,1.4133125,1.1114375,-0.13690625,-0.3281875,1.35396875,0.01914599142133222,0.02250090558534211,True
43867,742,0,743,4597.0,43202.0,31517.0,0.002623,0.001037,-0.0018909999999999999,0.052500000000000005,-0.10500000000000001,-3.4475000000000002,1.14675,0.3289375,0.22096875,1.40621875,1.1130625,-0.13659375,-0.33078125,1.3584375,0.01928736319721999,0.02267703590487872,True
43868,743,0,744,4596.0,43200.0,31517.0,-0.003843,0.002196,0.002745,0.21000000000000002,-0.22750000000000004,-2.765,1.14725,0.32503125,0.21715625,1.40546875,1.1139375,-0.13484375,-0.3294375,1.3599375,0.01905440137767621,0.022466353774105954,True
43869,744,0,745,4596.0,43198.0,31516.0,-0.003111,-0.002623,0.0023179999999999997,0.385,-0.8400000000000001,-2.7300000000000004,1.14765625,0.3253125,0.2186875,1.40628125,1.1095,-0.13459375,-0.32934375,1.359,0.019055893576000217,0.022525525375093603,True
43870,745,0,746,4597.0,43199.0,31515.0,-0.002257,-0.000305,-0.000305,0.43750000000000006,-1.4000000000000001,-3.3600000000000003,1.15053125,0.32406250000000003,0.2183125,1.39984375,1.1114375,-0.1345,-0.33165625,1.3571250000000001,0.019000290041227292,0.0226030133069959,True
43871,746,0,747,4597.0,43199.0,31514.0,-0.0015249999999999999,0.000915,-0.001098,0.4025,-1.8900000000000001,-3.7975000000000003,1.14984375,0.32556250000000003,0.21790625,1.4088125,1.11253125,-0.1385,-0.3301875,1.35490625,0.019224993268015828,0.022527313034476203,True
43872,747,0,748,4597.0,43199.0,31521.0,-0.003721,0.000732,0.001647,0.4025,-2.345,-3.6225000000000005,1.14646875,0.325875,0.219,1.40746875,1.11659375,-0.1338125,-0.32978125,1.36203125,0.019047446399113276,0.022555946737087905,True
43873,748,0,749,4597.0,43199.0,31518.0,6.1e-05,-0.002257,-0.002806,0.29750000000000004,-1.8725000000000003,-2.9575000000000005,1.1503125,0.3256875,0.21878125,1.4078125000000001,1.11171875,-0.13384375,-0.32965625,1.3538125,0.019040947424713482,0.022541933776807885,True
43874,749,0,750,4597.0,43198.0,31520.0,0.0025009999999999998,0.001037,-0.00183,0.28,-2.0125,-3.0450000000000004,1.15125,0.325125,0.21875,1.40625,1.11125,-0.12865625,-0.330125,1.36278125,0.018806735248673455,0.02255948130147297,True
43875,750,0,751,4598.0,43200.0,31519.0,0.003355,0.001647,0.0006709999999999999,0.07,-1.995,-3.4125000000000005,1.14728125,0.3261875,0.2173125,1.40628125,1.1220937500000001,-0.13821875,-0.33121875,1.352,0.019239458172529818,0.022544339255508934,True
43876,751,0,752,4597.0,43199.0,31518.0,0.004331,0.001464,0.001037,0.07,-1.9600000000000002,-3.4125000000000005,1.14684375,0.32309375,0.21834375,1.4073125,1.11609375,-0.13521875,-0.32859375,1.3628125,0.018989365903302618,0.022481262403421902,True
43877,752,0,753,4599.0,43199.0,31516.0,0.005063,-0.000488,-0.000244,0.0,-1.5575,-3.115,1.1474375,0.3208125,0.21784375,1.4055625,1.1127500000000001,-0.13315625,-0.33265625,1.36553125,0.018810997836223767,0.02262391718947659,True
43878,753,0,754,4599.0,43197.0,31516.0,0.0006709999999999999,0.000732,0.000488,0.17500000000000002,-0.7000000000000001,-3.2025,1.1474375,0.32134375,0.20359375000000002,1.3969375,1.116625,-0.12828125,-0.32828125,1.36365625,0.018634771177495287,0.021862415784099015,True
43879,754,0,755,4599.0,43200.0,31519.0,-0.005307,0.002013,0.003477,0.21000000000000002,-0.525,-3.1325000000000003,1.138625,0.33059375,0.212,1.42465625,1.11928125,-0.1296875,-0.32890625,1.3579375,0.019075309201580005,0.02223306894447834,True
43880,755,0,756,4599.0,43200.0,31519.0,-0.005124,0.0008539999999999999,0.0025009999999999998,0.24500000000000002,-0.4025,-2.9400000000000004,1.1375,0.33046875000000003,0.2169375,1.4050625,1.1154375,-0.13471875,-0.32853125,1.363,0.01927461864456158,0.022420948654678852,True
43881,756,0,757,4598.0,43200.0,31520.0,-0.0021349999999999997,-0.000183,-0.0026839999999999998,0.21000000000000002,-0.5775,-2.7825,1.1340937500000001,0.32090625,0.21059375,1.40309375,1.12103125,-0.1345,-0.32887500000000003,1.35634375,0.018869512523565852,0.02217401133426844,True
43882,757,0,758,4598.0,43199.0,31522.0,-0.0017079999999999999,0.000366,-0.002928,0.1925,-0.9100000000000001,-3.08,1.13015625,0.32084375,0.22940625,1.39496875,1.107,-0.13434375,-0.33287500000000003,1.35590625,0.01886057084108616,0.02310788388137448,True
43883,758,0,759,4600.0,43199.0,31521.0,-0.002196,-0.001769,-0.000549,0.31500000000000006,-1.1725,-3.1850000000000005,1.156875,0.31765625000000003,0.21765625,1.3968125,1.10859375,-0.1313125,-0.3330625,1.36221875,0.018605235417675687,0.022632529300411732,True
43884,759,0,760,4600.0,43199.0,31520.0,-0.001647,-0.002379,0.000183,0.2625,-1.0150000000000001,-2.87,1.16584375,0.32265625000000003,0.22359375,1.41690625,1.1091875,-0.137125,-0.33409375,1.35175,0.019048716448209966,0.022917948197680466,True
43885,760,0,761,4598.0,43198.0,31523.0,-0.0017079999999999999,-0.0017079999999999999,0.001464,0.4025,-1.1375000000000002,-2.6250000000000004,1.16378125,0.3283125,0.22346875,1.423125,1.11253125,-0.13590625,-0.32896875000000003,1.35271875,0.01923353302716777,0.022706983829719456,True
43886,761,0,762,4598.0,43198.0,31521.0,-0.00244,0.00061,0.001769,0.4025,-1.2950000000000002,-2.9225000000000003,1.1410625,0.3299375,0.21571875000000001,1.400625,1.11615625,-0.13518750000000002,-0.32937500000000003,1.36115625,0.019271654715754746,0.02240475762324351,True
43887,762,0,763,4598.0,43199.0,31521.0,-0.002257,0.002196,0.009028,0.29750000000000004,-1.5575,-3.1325000000000003,1.1440625,0.31459375,0.22271875,1.41615625,1.1118125,-0.1350625,-0.32425,1.3543125,0.018630830145975382,0.022486561764494283,True
43888,763,0,764,4597.0,43199.0,31521.0,0.0046359999999999995,0.0011589999999999999,-0.011467999999999999,0.36750000000000005,-1.5925000000000002,-2.9575000000000005,1.1460937500000001,0.3285625,0.22037500000000002,1.395875,1.11225,-0.138,-0.32937500000000003,1.35725,0.019328962631535336,0.02259614149562001,True
43889,764,0,765,4596.0,43199.0,31520.0,0.0053679999999999995,0.001464,-0.007808,0.3325,-1.4700000000000002,-2.87,1.1440625,0.3214375,0.22137500000000002,1.409375,1.11821875,-0.13484375,-0.33259375,1.35634375,0.018905498404148565,0.022766531003296762,True
43890,765,0,766,4595.0,43199.0,31521.0,0.001586,-6.1e-05,0.011651,0.2625,-1.6800000000000002,-3.2900000000000005,1.1456250000000001,0.3224375,0.2175625,1.40609375,1.11153125,-0.13878125,-0.32996875000000003,1.3623750000000001,0.019106960919992595,0.022504395941733382,True
43891,766,0,767,4596.0,43199.0,31520.0,-0.004148,-0.004575,0.015433,0.22750000000000004,-1.6975000000000002,-3.5700000000000003,1.1543125,0.32165625000000003,0.2191875,1.4131875,1.112625,-0.13453125,-0.33090625,1.3609375000000001,0.018901858721619053,0.022608847543440763,True
43892,767,0,768,4593.0,43199.0,31520.0,-0.000122,0.00183,-0.006527,0.24500000000000002,-2.1525000000000003,-3.3600000000000003,1.1485,0.32521875,0.21525,1.4115625,1.10809375,-0.13759375000000001,-0.3328125,1.35440625,0.01917392863569924,0.02252359853592757,True
43893,768,0,769,4593.0,43197.0,31518.0,0.0032329999999999998,0.004697,-0.0055509999999999995,0.5950000000000001,-2.66,-3.5875000000000004,1.1471875,0.3294375,0.21590625,1.4060000000000001,1.11134375,-0.13634375,-0.33009375,1.35640625,0.019297920796309508,0.022441343860419776,True
43894,769,0,770,4592.0,43201.0,31521.0,-0.0011589999999999999,0.003172,-0.001037,0.665,-3.4825000000000004,-4.130000000000001,1.1548125,0.32596875000000003,0.2161875,1.4053437500000001,1.10428125,-0.13425,-0.3315625,1.35409375,0.01906911339693589,0.022511912253888336,True
43895,770,0,771,4591.0,43202.0,31521.0,-0.007503,-0.0028669999999999998,0.00042699999999999997,0.665,-4.7075000000000005,-4.130000000000001,1.150375,0.32446875000000003,0.21962500000000001,1.412125,1.12053125,-0.13518750000000002,-0.3304375,1.35928125,0.01904506646157193,0.02260799872587577,True
43896,771,0,772,4592.0,43202.0,31521.0,-0.0068319999999999995,-0.006222,0.000488,0.7525000000000001,-5.5825000000000005,-3.5700000000000003,1.15384375,0.32521875,0.2165,1.41275,1.11165625,-0.138125,-0.33109375,1.35365625,0.019195515393179877,0.02250592413257213,True
43897,772,0,773,4590.0,43201.0,31521.0,0.008601,0.003843,0.002074,0.77,-5.670000000000001,-4.1475,1.1465625,0.32575,0.21671875000000002,1.4068125,1.1136875,-0.13778125,-0.33003125,1.3550625,0.019203556664927516,0.022472227609654224,True
43898,773,0,774,4590.0,43203.0,31520.0,0.0075639999999999995,0.007686,-0.001037,0.6300000000000001,-5.635000000000001,-4.4975000000000005,1.14659375,0.3226875,0.2185625,1.40646875,1.11984375,-0.134625,-0.32628125,1.36221875,0.018948398825339115,0.02239733004813467,True
43899,774,0,775,4588.0,43199.0,31518.0,0.010553,0.004392,-0.000732,0.5425000000000001,-5.040000000000001,-3.9025000000000003,1.1535,0.32571875,0.219,1.41203125,1.1106875,-0.13459375,-0.3311875,1.35996875,0.019072726260411985,0.022612439281888733,True
43900,775,0,776,4588.0,43199.0,31516.0,0.013847,-0.003904,0.002196,0.22750000000000004,-4.340000000000001,-3.5000000000000004,1.1528125,0.325125,0.2195,1.4048125,1.1115,-0.13509375,-0.33196875000000003,1.35371875,0.019068446750906035,0.022664370305012824,True
43901,776,0,777,4587.0,43197.0,31513.0,0.013663999999999999,-0.003721,-0.0028669999999999998,0.14,-3.8150000000000004,-3.6575,1.1470625,0.32640625,0.21753125,1.4131562500000001,1.1058125,-0.13634375,-0.33159375,1.3510625,0.01917233218059384,0.02256839423023821,True
43902,777,0,778,4586.0,43198.0,31512.0,0.007076,0.00366,6.1e-05,0.1925,-1.1900000000000002,-3.8150000000000004,1.1553437500000001,0.32159375,0.2184375,1.40625,1.11165625,-0.13471875,-0.33,1.3593125,0.018906891135824815,0.022541615289765723,True
43903,778,0,779,4586.0,43197.0,31511.0,-0.002562,0.0008539999999999999,0.0046359999999999995,0.2625,0.43750000000000006,-3.3950000000000005,1.1465625,0.324625,0.218,1.40584375,1.1168125,-0.1348125,-0.32984375,1.358875,0.019036298707520518,0.022517355870811953,True
43904,779,0,780,4587.0,43195.0,31513.0,-0.012993,-0.001647,0.003477,0.22750000000000004,1.715,-3.0275000000000003,1.14825,0.32290625,0.2185,1.40728125,1.11759375,-0.13459375,-0.32934375,1.35778125,0.018956192291407433,0.022517818632078804,True
43905,780,0,781,4585.0,43200.0,31516.0,-0.017811999999999998,-0.002928,-0.000366,0.35000000000000003,2.2750000000000004,-2.9925,1.1517187500000001,0.32156250000000003,0.2179375,1.406125,1.11409375,-0.13475,-0.33034375,1.35746875,0.018906866654927024,0.022534874789839336,True
43906,781,0,782,4586.0,43199.0,31518.0,-0.020679,-0.000366,-0.002562,0.36750000000000005,1.715,-3.0975,1.14696875,0.3223125,0.21653125,1.405875,1.1175,-0.13418750000000002,-0.32937500000000003,1.35359375,0.018915076382828303,0.02243815346674545,True
43907,782,0,783,4587.0,43198.0,31520.0,-0.006954,0.000976,0.0042699999999999995,0.21000000000000002,0.035,-3.5000000000000004,1.14675,0.32884375,0.21559375,1.39378125,1.1158125,-0.1364375,-0.32640625,1.3547500000000001,0.019277130272435605,0.022280315243851524,True
43908,783,0,784,4585.0,43198.0,31522.0,0.0,-0.002745,0.000915,0.17500000000000002,-0.805,-3.6050000000000004,1.1463125,0.324875,0.21678125,1.40609375,1.11771875,-0.13359375,-0.32934375,1.35446875,0.018997118901945553,0.022447173487776462,True
43909,784,0,785,4582.0,43196.0,31518.0,0.0048189999999999995,-0.0023179999999999997,-0.004697,0.3325,-1.6975000000000002,-3.5875000000000004,1.14684375,0.32406250000000003,0.21878125,1.40690625,1.11915625,-0.13503125,-0.33037500000000003,1.36365625,0.019021883387865927,0.02257080912234193,True
43910,785,0,786,4583.0,43199.0,31520.0,0.007259,-0.000244,-0.002074,0.42000000000000004,-2.1,-3.7275000000000005,1.1553125,0.32875,0.2188125,1.40603125,1.1202812500000001,-0.1340625,-0.33028125,1.36565625,0.019176734128371467,0.022568327277351145,True
