frame_seq,absolute_seq_u64,segment_id,sample_seq,PPG_G,PPG_R,PPG_IR,ACC_X,ACC_Y,ACC_Z,GYRO_X,GYRO_Y,GYRO_Z,Uh1,Uh2,Uh3,Uh4,Uc1,Uc2,Uc3,Uc4,UD1,UD2,parser_valid
44076,109185,0,109186,4105.0,42035.0,30064.0,0.0011589999999999999,-0.000305,-0.000305,0.35000000000000003,-2.1175,-3.5875000000000004,1.02346875,0.28584375,0.273625,1.3166875,0.9818125,-0.23559375000000002,-0.22140625,1.28640625,0.02151535899548572,0.02043775843939697,True
44077,109186,0,109187,4105.0,42033.0,30063.0,-0.00042699999999999997,-0.000366,-0.002745,0.42000000000000004,-2.1350000000000002,-3.6575,1.03046875,0.28350000000000003,0.267625,1.31646875,1.00421875,-0.21887500000000001,-0.2365625,1.2921875,0.020743118745193575,0.020802764418427735,True
44078,109187,0,109188,4106.0,42034.0,30060.0,-0.001586,-0.000366,-0.0026839999999999998,0.45500000000000007,-2.1525000000000003,-3.7450000000000006,1.0230000000000001,0.28021875,0.2675625,1.316875,0.978,-0.2248125,-0.2336875,1.29159375,0.02084768457960201,0.020684016825751342,True
44079,109188,0,109189,4104.0,42033.0,30062.0,0.0018909999999999999,0.000549,0.004941,0.5425000000000001,-1.7675,-3.7275000000000005,1.02284375,0.28209375000000003,0.27103125,1.3179375,0.9788125,-0.2305,-0.2264375,1.2846250000000001,0.021154897752832177,0.020534127231872208,True
44080,109189,0,109190,4104.0,42033.0,30059.0,-0.0011589999999999999,0.000366,0.003843,0.45500000000000007,-1.715,-3.7975000000000003,1.02971875,0.28253125,0.2685625,1.3151875,1.0014687500000001,-0.22137500000000002,-0.2255,1.29490625,0.020804196706421498,0.02039431590679243,True
44081,109190,0,109191,4104.0,42032.0,30060.0,-0.002196,0.0008539999999999999,-0.000793,0.42000000000000004,-1.5575,-3.7975000000000003,1.02234375,0.28378125,0.26796875000000003,1.32096875,0.993125,-0.2218125,-0.22843750000000002,1.2985312500000001,0.020873489545838075,0.020488578762043574,True
44082,109191,0,109192,4104.0,42033.0,30060.0,-0.001647,0.0034159999999999998,-0.002379,0.47250000000000003,-1.1375000000000002,-3.7450000000000006,1.023125,0.2810625,0.26937500000000003,1.31703125,0.9969375,-0.22234375,-0.22793750000000002,1.30078125,0.020782722563748607,0.020526406756662636,True
44083,109192,0,109193,4103.0,42034.0,30060.0,-0.00366,-0.000793,-0.001098,0.49000000000000005,-0.8400000000000001,-3.5525,1.02265625,0.2805,0.271,1.31646875,0.99075,-0.21734375,-0.229625,1.2867187500000001,0.020557322683252575,0.02066168997662985,True
44084,109193,0,109194,4103.0,42034.0,30060.0,-0.002257,-0.003355,-0.00183,0.14,-0.805,-3.4650000000000003,1.025875,0.288375,0.27475,1.3215000000000001,0.9919375,-0.22409375,-0.22765625,1.29540625,0.021155332178319365,0.02073689030485563,True
44085,109194,0,109195,4103.0,42034.0,30058.0,0.000366,-0.00061,-0.000488,0.28,-0.7350000000000001,-3.6225000000000005,1.02278125,0.28171875,0.27121875,1.3160625000000001,0.98821875,-0.222,-0.231375,1.2945625,0.02079591899925687,0.020741445749570545,True
44086,109195,0,109196,4103.0,42032.0,30057.0,0.003355,0.001769,0.000732,0.3325,-1.1725,-3.7100000000000004,1.02828125,0.2896875,0.271,1.316875,0.9908750000000001,-0.22303125000000001,-0.230125,1.29328125,0.02116658087538074,0.020681899082237505,True
44087,109196,0,109197,4103.0,42032.0,30056.0,0.005063,0.002196,0.002745,0.385,-1.54,-3.8150000000000004,1.027375,0.28400000000000003,0.26837500000000003,1.31696875,0.99103125,-0.22215625,-0.22112500000000002,1.29928125,0.02089641585893081,0.0202096310555352,True
44088,109197,0,109198,4104.0,42031.0,30053.0,0.004148,-0.004575,0.002013,0.385,-2.1175,-4.095000000000001,1.02325,0.28053125,0.27134375,1.316875,0.9961875,-0.21740625,-0.23153125,1.28875,0.020561140811683747,0.020752918782216866,True
44089,109198,0,109199,4105.0,42031.0,30056.0,-0.000366,-0.005124,-0.001647,0.36750000000000005,-1.9425000000000001,-4.025,1.03025,0.2838125,0.27015625,1.3226875,0.9908750000000001,-0.22315625,-0.22815625,1.283125,0.02092909548069319,0.020567495721016738,True
44090,109199,0,109200,4103.0,42034.0,30054.0,-0.002623,-0.001586,-0.002257,0.42000000000000004,-1.5050000000000001,-3.8325000000000005,1.02075,0.2840625,0.263875,1.31175,0.99803125,-0.22371875,-0.227875,1.3002500000000001,0.02096215099095798,0.020296868792661345,True
44091,109200,0,109201,4101.0,42034.0,30055.0,-0.005673,0.001281,-0.001281,0.47250000000000003,-1.435,-3.6225000000000005,1.02559375,0.279125,0.272,1.33125,0.99090625,-0.22234375,-0.22934375,1.29359375,0.02070273443295511,0.02069159425747963,True
44092,109201,0,109202,4104.0,42032.0,30057.0,-0.006588,0.0021349999999999997,0.003172,0.49000000000000005,-1.1725,-3.6050000000000004,1.0270625,0.28459375,0.26325,1.32,0.9912500000000001,-0.2218125,-0.22790625,1.29375,0.02090703369122356,0.020272335749194174,True
44093,109202,0,109203,4103.0,42036.0,30059.0,-0.0055509999999999995,0.0,-0.001647,0.36750000000000005,-2.1875,-3.8150000000000004,1.00740625,0.27909375000000003,0.27278125000000003,1.312125,0.9999375,-0.22153125,-0.22815625,1.2925312500000001,0.020668594187248177,0.020675840737984345,True
44094,109203,0,109204,4103.0,42032.0,30057.0,0.001403,0.0026839999999999998,-0.0035989999999999998,0.24500000000000002,-2.66,-4.1475,1.03975,0.28565625,0.269125,1.3259375,0.991125,-0.224,-0.227375,1.2933125,0.021039310188243066,0.020493346885496262,True
44095,109204,0,109205,4104.0,42032.0,30058.0,0.009882,0.003355,-0.0026839999999999998,0.28,-2.6250000000000004,-4.1825,1.00990625,0.2758125,0.27346875,1.31059375,0.9979375,-0.22171875,-0.22821875,1.2965312500000001,0.02054070791322354,0.020706743041107797,True
44096,109205,0,109206,4102.0,42032.0,30055.0,0.01159,0.0023179999999999997,-0.000366,0.24500000000000002,-2.7125000000000004,-4.0600000000000005,1.0405625,0.27865625,0.273125,1.30490625,0.99140625,-0.2229375,-0.23093750000000002,1.2938125,0.020707387367861558,0.02080243490372587,True
44097,109206,0,109207,4102.0,42034.0,30058.0,0.009333,0.001037,-0.001403,0.24500000000000002,-2.7125000000000004,-4.112500000000001,1.04121875,0.28409375,0.2728125,1.331,0.985125,-0.2241875,-0.22975,1.2935625,0.020982385890135635,0.020741547065074962,True
44098,109207,0,109208,4101.0,42035.0,30053.0,0.001403,-0.0048189999999999995,0.000122,0.28,-1.4000000000000001,-3.8500000000000005,1.0363437500000001,0.28328125,0.27240625,1.329625,0.9868750000000001,-0.2258125,-0.22909375,1.2849375,0.021014517056961453,0.020698256615561614,True
44099,109208,0,109209,4104.0,42032.0,30054.0,-0.004697,-0.00366,0.000976,0.3325,-0.9625000000000001,-3.8850000000000002,1.0270625,0.28459375,0.26946875,1.3260625,0.9862500000000001,-0.22409375,-0.227625,1.2935,0.02099923758757745,0.020517642567110892,True
44100,109209,0,109210,4102.0,42033.0,30055.0,-0.008173999999999999,-0.001281,0.001647,0.35000000000000003,-0.5950000000000001,-3.7450000000000006,1.0229062500000001,0.28509375,0.2689375,1.31271875,0.99740625,-0.22187500000000002,-0.2224375,1.3005625,0.020930202554509093,0.020285943559561252,True
44101,109210,0,109211,4102.0,42036.0,30057.0,-0.008296,0.000793,0.001952,0.5075000000000001,-0.22750000000000004,-3.5700000000000003,1.0229375,0.2818125,0.2705625,1.3205,0.9908750000000001,-0.22312500000000002,-0.22834375,1.29275,0.02084526666150631,0.020591842973170627,True
44102,109211,0,109212,4102.0,42035.0,30057.0,-0.009699,0.0011589999999999999,-0.000305,0.5425000000000001,-0.5775,-3.6225000000000005,1.0269062500000001,0.28296875,0.26725,1.3216875000000001,0.999625,-0.2245625,-0.22553125000000002,1.2998125,0.020951100768073726,0.020341401181862628,True
44103,109212,0,109213,4103.0,42036.0,30058.0,-0.001647,0.002928,0.001769,0.42000000000000004,-1.12,-3.7800000000000002,1.02365625,0.28096875,0.26934375,1.31628125,0.9940625000000001,-0.22165625,-0.22878125,1.29546875,0.02075105826010556,0.020559226436534028,True
44104,109213,0,109214,4104.0,42037.0,30063.0,0.002196,0.000305,0.00366,0.385,-1.61,-3.7800000000000002,1.0285312500000001,0.28196875,0.2710625,1.31634375,0.98990625,-0.2248125,-0.23,1.2939375,0.020919924560819612,0.020679426330994632,True
44105,109214,0,109215,4104.0,42036.0,30062.0,0.0042699999999999995,-0.000549,0.001586,0.3325,-2.4325,-3.9200000000000004,1.029875,0.28465625,0.27053125,1.3185,0.9783437500000001,-0.22490625,-0.22703125000000002,1.293375,0.021034653126882588,0.020537493631209974,True
44106,109215,0,109216,4103.0,42035.0,30061.0,0.0073809999999999995,-0.0006709999999999999,-0.002257,0.28,-2.7475,-3.9725000000000006,1.02365625,0.28328125,0.2700625,1.32296875,0.99703125,-0.2201875,-0.22721875,1.29284375,0.020787153278644107,0.0205257258429633,True
44107,109216,0,109217,4104.0,42036.0,30064.0,0.011346,-0.000915,-0.002013,0.17500000000000002,-2.31,-4.0600000000000005,1.024125,0.28303125,0.2703125,1.3221875,0.9961875,-0.22440625,-0.226625,1.2923437500000001,0.020947365841010035,0.020512039956040104,True
44108,109217,0,109218,4103.0,42037.0,30063.0,0.0053679999999999995,0.000183,-0.0034159999999999998,0.2625,-1.33,-3.9200000000000004,1.02325,0.285125,0.27165625,1.31678125,0.99440625,-0.2239375,-0.22759375,1.29403125,0.02101485359264983,0.02060666879062226,True
44109,109218,0,109219,4103.0,42035.0,30063.0,-0.0026839999999999998,-0.0008539999999999999,-0.004148,0.2625,-0.5425000000000001,-3.5700000000000003,1.02359375,0.2810625,0.2684375,1.31521875,0.991125,-0.2216875,-0.22765625,1.30128125,0.020756192152177673,0.020476340958486234,True
44110,109219,0,109220,4105.0,42037.0,30063.0,-0.007991,-0.002196,0.001037,0.35000000000000003,-0.24500000000000002,-3.3075,1.02440625,0.28546875,0.27040625,1.32321875,0.99925,-0.2216875,-0.22765625,1.293375,0.0209381055717113,0.020557601398195503,True
44111,109220,0,109221,4103.0,42036.0,30064.0,-0.010735999999999999,-0.0028669999999999998,0.004514,0.47250000000000003,-0.14,-3.4125000000000005,1.0286875,0.28415625,0.26965625,1.3229375,0.9988125,-0.2221875,-0.22675,1.29303125,0.020904129736424505,0.020490005881928036,True
44112,109221,0,109222,4104.0,42036.0,30065.0,-0.011163,-0.001037,0.005307,0.5075000000000001,-0.45500000000000007,-3.6925000000000003,1.0308125000000001,0.2836875,0.27071875,1.31653125,0.99640625,-0.2240625,-0.22668750000000001,1.29428125,0.02096056348929912,0.02053133553648224,True
44113,109222,0,109223,4103.0,42038.0,30065.0,-0.001464,0.004331,-0.0013419999999999999,0.47250000000000003,-1.61,-3.8850000000000002,1.03096875,0.2823125,0.271,1.317625,0.99153125,-0.22287500000000002,-0.22984375,1.2976875,0.020855802624585234,0.020670531562961482,True
44114,109223,0,109224,4103.0,42039.0,30066.0,0.00488,0.0034159999999999998,-0.002623,0.35000000000000003,-1.9250000000000003,-3.8500000000000005,1.0233125,0.28159375000000003,0.26937500000000003,1.31753125,0.99109375,-0.22146875,-0.22878125,1.292875,0.02076928138389626,0.020560516224892657,True
44115,109224,0,109225,4104.0,42037.0,30067.0,0.0077469999999999995,0.002257,-0.002562,0.3325,-2.0300000000000002,-3.8325000000000005,1.01615625,0.2836875,0.2686875,1.3219687500000001,0.9945625,-0.2213125,-0.22715625,1.29275,0.02084940690146333,0.020466444550214184,True
44116,109225,0,109226,4104.0,42038.0,30064.0,0.0068319999999999995,-0.00061,-0.000732,0.36750000000000005,-2.24,-3.8500000000000005,1.0300625,0.28300000000000003,0.27134375,1.31675,0.99640625,-0.22162500000000002,-0.22771875,1.29290625,0.0208336558756896,0.0205988234034622,True
44117,109226,0,109227,4104.0,42039.0,30066.0,0.003477,-0.002928,-0.000732,0.36750000000000005,-2.0300000000000002,-3.7800000000000002,1.024375,0.27968750000000003,0.27246875,1.3097812500000001,0.99184375,-0.22228125,-0.22459375,1.298625,0.020723430003109226,0.02051891995092797,True
44118,109227,0,109228,4104.0,42038.0,30063.0,0.0030499999999999998,-0.0023179999999999997,0.0015249999999999999,0.21000000000000002,-0.9975,-3.535,1.023375,0.28265625,0.269625,1.31971875,0.97890625,-0.22087500000000002,-0.22693750000000001,1.301125,0.020789143662233507,0.020496296735813185,True
44119,109228,0,109229,4104.0,42037.0,30062.0,-0.0017079999999999999,0.000366,0.002745,0.28,-0.9100000000000001,-3.5700000000000003,1.0243125,0.28275,0.26865625,1.31715625,0.9951875,-0.22096875,-0.22715625,1.295625,0.020796804421788453,0.020465154675344946,True
44120,109229,0,109230,4104.0,42038.0,30065.0,-0.003843,0.001098,0.000915,0.2625,-0.805,-3.4825000000000004,1.0230625,0.28290625,0.27021875,1.31653125,0.9916875,-0.22203125,-0.2270625,1.294125,0.02084620793311874,0.020525858221565246,True
44121,109230,0,109231,4104.0,42040.0,30066.0,-0.003965,-0.00061,-0.0006709999999999999,0.28,-0.7350000000000001,-3.5175000000000005,1.0266250000000001,0.28384375,0.27090625,1.32034375,0.9918125,-0.2215,-0.22690625,1.2945,0.020863437441942075,0.020547918700927818,True
44122,109231,0,109232,4103.0,42038.0,30065.0,-0.002623,0.0008539999999999999,-0.000305,0.3325,-0.7525000000000001,-3.535,1.0269062500000001,0.28384375,0.26937500000000003,1.3215937500000001,0.99946875,-0.22378125000000001,-0.22771875,1.30121875,0.02095564663340906,0.020517563173379664,True
44123,109232,0,109233,4105.0,42039.0,30066.0,-0.000549,0.001586,-0.001281,0.22750000000000004,-1.0675000000000001,-3.5525,1.02421875,0.28396875,0.27028125000000003,1.32021875,0.99771875,-0.22096875,-0.2261875,1.3039375,0.02084712239265822,0.02049306148563409,True
44124,109233,0,109234,4104.0,42039.0,30067.0,-0.000183,-0.00061,-0.001464,0.2625,-1.1025,-3.6225000000000005,1.0249375,0.28415625,0.27259375,1.32653125,0.998,-0.22103125,-0.22615625,1.30125,0.020857390207115977,0.02058725267240857,True
44125,109234,0,109235,4104.0,42038.0,30065.0,0.001586,-0.000366,-0.002074,0.21000000000000002,-1.05,-3.6750000000000003,1.016,0.28428125,0.26971875,1.33259375,1.00425,-0.22046875,-0.2260625,1.28684375,0.020839811368225485,0.020464788696058223,True
44126,109235,0,109236,4106.0,42040.0,30064.0,0.00244,-0.001281,0.0,0.2625,-0.805,-3.6575,1.02225,0.28425,0.2681875,1.33271875,1.0032812500000001,-0.2195625,-0.22621875,1.300625,0.020801882775545597,0.020407900015350106,True
44127,109236,0,109237,4106.0,42037.0,30066.0,0.000305,-0.000915,0.001098,0.24500000000000002,-0.6300000000000001,-3.5175000000000005,1.01965625,0.28300000000000003,0.26315625,1.32984375,1.003125,-0.2204375,-0.2263125,1.29659375,0.020785648483847577,0.02020401371442724,True
44128,109237,0,109238,4105.0,42039.0,30066.0,-0.003172,-0.001037,0.00122,0.385,-0.5950000000000001,-3.4125000000000005,1.01571875,0.28553125,0.2604375,1.32,1.00171875,-0.2205,-0.2230625,1.2934375,0.02089268388348713,0.019960316743599202,True
44129,109238,0,109239,4105.0,42039.0,30066.0,-0.00244,0.000183,0.002013,0.43750000000000006,-0.7000000000000001,-3.5175000000000005,1.01190625,0.27253125,0.267125,1.3056875000000001,1.0028125,-0.22012500000000002,-0.22875,1.2999687500000001,0.02034078065245328,0.020466388072021873,True
44130,109239,0,109240,4107.0,42037.0,30066.0,-0.001647,0.001586,0.001098,0.35000000000000003,-0.9625000000000001,-3.6050000000000004,1.0159375,0.278875,0.26540625,1.32546875,0.9884375,-0.2199375,-0.22584375,1.303375,0.020595119207058234,0.02027793149619402,True
44131,109240,0,109241,4106.0,42038.0,30066.0,-0.000549,0.001586,-0.000793,0.31500000000000006,-1.2425000000000002,-3.5700000000000003,1.009875,0.279625,0.26587500000000003,1.3174062500000001,0.99934375,-0.22028125,-0.22671875,1.3036875,0.020639985342862193,0.020332664736119086,True
44132,109241,0,109242,4105.0,42039.0,30066.0,0.000976,0.001098,0.000488,0.1925,-1.2425000000000002,-3.4825000000000004,1.0103125,0.28746875,0.271125,1.330875,1.0025,-0.22025,-0.22684375,1.29159375,0.020962572640662255,0.02055442116763559,True
44133,109242,0,109243,4107.0,42036.0,30068.0,0.0013419999999999999,-0.000122,-0.000915,0.22750000000000004,-1.2425000000000002,-3.5000000000000004,1.048375,0.279125,0.28090625,1.306125,0.990375,-0.2254375,-0.22903125,1.2955,0.020827797227604247,0.02104654927134159,True
44134,109243,0,109244,4107.0,42038.0,30067.0,0.0006709999999999999,0.0,-0.002562,0.2625,-1.225,-3.5000000000000004,1.028375,0.27087500000000003,0.2609375,1.3385,0.9895,-0.2205,-0.22628125000000002,1.2920625000000001,0.02028756631778865,0.0201111654311369,True
44135,109244,0,109245,4107.0,42040.0,30069.0,0.002562,-0.000549,0.000366,0.29750000000000004,-1.05,-3.4125000000000005,1.03240625,0.28775,0.273,1.31365625,0.999625,-0.22287500000000002,-0.2260625,1.2929375,0.02108028051996305,0.02060023167198549,True
44136,109245,0,109246,4107.0,42038.0,30068.0,0.002562,-0.002196,0.000549,0.31500000000000006,-1.1725,-3.3775000000000004,1.01628125,0.27975,0.26346875000000003,1.33425,0.9920625000000001,-0.22075,-0.22653125000000002,1.28359375,0.02066409999690348,0.02022575972365008,True
44137,109246,0,109247,4107.0,42039.0,30069.0,-0.000244,-0.000915,-0.001098,0.21000000000000002,-1.2775,-3.4475000000000002,1.0296875,0.286375,0.2745,1.31821875,0.99928125,-0.2239375,-0.227,1.2953125,0.021066455443092186,0.020700045403888225,True
44138,109247,0,109248,4107.0,42040.0,30066.0,-0.002989,0.0021349999999999997,0.000732,0.4025,-1.3475000000000001,-3.3775000000000004,1.02975,0.28240625,0.271,1.30715625,0.99209375,-0.22403125000000002,-0.22965625,1.294,0.02090640879601739,0.020662953070165822,True
44139,109248,0,109249,4106.0,42039.0,30068.0,-0.00183,0.001647,0.0028669999999999998,0.385,-1.4000000000000001,-3.4125000000000005,1.01940625,0.28425,0.26778125,1.323375,0.99190625,-0.21534375,-0.2295625,1.30003125,0.02063128878771337,0.020526319862358224,True
44140,109249,0,109250,4108.0,42040.0,30068.0,0.0015249999999999999,-0.000244,-0.000366,0.14,-0.9800000000000001,-3.43,1.02378125,0.2839375,0.26996875,1.31765625,0.99175,-0.22096875,-0.2265,1.29115625,0.020845832188276944,0.020492797143623717,True
44141,109250,0,109251,4107.0,42039.0,30068.0,0.0037819999999999998,0.000183,-0.0030499999999999998,0.17500000000000002,-0.7525000000000001,-3.4125000000000005,1.028375,0.2819375,0.26837500000000003,1.316,0.9940625000000001,-0.2244375,-0.22775,1.29365625,0.020903478150937457,0.020477551567933468,True
44142,109251,0,109252,4107.0,42040.0,30068.0,-0.000549,0.001281,-0.003538,0.2625,-0.9275000000000001,-3.3425000000000002,1.02325,0.28784375,0.26721875,1.3196875000000001,0.9896875,-0.22103125,-0.230125,1.29084375,0.021009633931255507,0.020525843345834988,True
44143,109252,0,109253,4108.0,42040.0,30066.0,-0.002196,-0.00183,0.003294,0.28,0.07,-3.1500000000000004,1.02396875,0.28459375,0.27034375,1.3219375,0.991625,-0.2203125,-0.22684375,1.29565625,0.020846397006644733,0.020522173879954957,True
44144,109253,0,109254,4109.0,42040.0,30069.0,-0.007076,-0.003721,-0.0013419999999999999,0.28,-0.1925,-3.22,1.03084375,0.2891875,0.2754375,1.31771875,1.00028125,-0.22209375,-0.2220625,1.29371875,0.021108053468746897,0.02053912626144037,True
44145,109254,0,109255,4108.0,42041.0,30066.0,-0.008539999999999999,-0.000915,0.000976,0.35000000000000003,-0.5950000000000001,-3.3600000000000003,1.023625,0.27975,0.26865625,1.3174062500000001,0.991625,-0.22340625,-0.22603125000000002,1.29575,0.020771490384429315,0.020419667377420726,True
44146,109255,0,109256,4108.0,42040.0,30067.0,-0.004148,0.002806,0.003355,0.385,-1.0675000000000001,-3.4825000000000004,1.017125,0.2816875,0.26887500000000003,1.31475,0.99159375,-0.21440625,-0.22884375,1.2958125,0.02048754550816211,0.02054240619715912,True
44147,109256,0,109257,4109.0,42039.0,30068.0,0.005429,-0.0006709999999999999,-0.004026,0.21000000000000002,-1.61,-3.3950000000000005,1.01971875,0.28034375,0.26846875,1.3183125,0.991625,-0.22075,-0.2293125,1.2953125,0.020688614101545162,0.020544588295685236,True
44148,109257,0,109258,4109.0,42040.0,30066.0,0.004026,0.0015249999999999999,-0.0018909999999999999,0.15750000000000003,-2.5025000000000004,-3.5525,1.02390625,0.2839375,0.26828125,1.322875,0.9919687500000001,-0.22109375,-0.22903125,1.30221875,0.020850885398187274,0.020525480151006865,True
44149,109258,0,109259,4111.0,42040.0,30067.0,0.009333,0.0026839999999999998,0.000488,0.22750000000000004,-1.9600000000000002,-3.4125000000000005,1.0244375000000001,0.2844375,0.2684375,1.32421875,0.99175,-0.216875,-0.2280625,1.30271875,0.020700957493483368,0.020492765362479976,True
44150,109259,0,109260,4108.0,42041.0,30068.0,0.009089,-0.0021349999999999997,0.00244,-0.0175,-1.2425000000000002,-3.0975,1.022875,0.28453125,0.2731875,1.31884375,0.99921875,-0.22128125,-0.22728125000000002,1.293875,0.020882978682228052,0.02065723944984541,True
44151,109260,0,109261,4110.0,42038.0,30067.0,0.0048189999999999995,-0.0018909999999999999,-0.002379,0.0,-0.9625000000000001,-3.0625000000000004,1.02715625,0.281375,0.26925,1.31721875,0.9919687500000001,-0.2193125,-0.2275625,1.29278125,0.020673068238415106,0.02050608681744191,True
44152,109261,0,109262,4110.0,42038.0,30067.0,-0.006222,0.0021349999999999997,-0.001281,0.29750000000000004,-0.6475000000000001,-2.9050000000000002,1.02371875,0.28171875,0.27484375,1.31821875,0.992125,-0.21796875000000002,-0.22859375,1.2938125,0.020632923642698153,0.02077865125787583,True
44153,109262,0,109263,4110.0,42039.0,30070.0,-0.005673,-0.0032329999999999998,0.00061,0.14,-0.22750000000000004,-2.5725000000000002,1.010375,0.2821875,0.27090625,1.31703125,0.9917812500000001,-0.22175,-0.22703125000000002,1.29421875,0.02080516477958859,0.02055297220950256,True
44154,109263,0,109264,4111.0,42038.0,30068.0,-0.007259,-0.002928,0.000915,0.28,-0.665,-2.8000000000000003,1.029875,0.284875,0.271125,1.3177812500000001,0.99246875,-0.2230625,-0.22609375,1.29375,0.02096916936081059,0.02052409914413049,True
44155,109264,0,109265,4110.0,42038.0,30068.0,-0.0051849999999999995,-0.000244,0.001647,0.35000000000000003,-1.2950000000000002,-3.115,1.0303125,0.28515625,0.2700625,1.3236875000000001,0.9885,-0.22203125,-0.2224375,1.296125,0.020939098573741623,0.020332388100908504,True
44156,109265,0,109266,4112.0,42037.0,30069.0,-0.002623,0.000549,0.000732,0.28,-1.7500000000000002,-3.1500000000000004,1.023625,0.28475,0.2696875,1.315375,0.997125,-0.22003125,-0.2265625,1.2999687500000001,0.02084147806374114,0.02048371493066753,True
44157,109266,0,109267,4110.0,42039.0,30067.0,0.005856,0.001403,0.000488,0.07,-1.9075000000000002,-3.3600000000000003,1.02421875,0.28171875,0.2676875,1.31771875,0.99265625,-0.2205625,-0.228625,1.2941562500000001,0.020737802848302966,0.02048455081540946,True
44158,109267,0,109268,4110.0,42038.0,30067.0,0.0057339999999999995,0.000549,-0.0025009999999999998,0.0175,-2.0825,-3.4125000000000005,1.0228125000000001,0.2821875,0.27140625,1.31746875,0.9911562500000001,-0.22365625,-0.223,1.286125,0.020882221279044114,0.020410611815216945,True
44159,109268,0,109269,4110.0,42039.0,30067.0,0.003355,0.0,-0.004026,0.10500000000000001,-2.1525000000000003,-3.3775000000000004,1.03146875,0.2838125,0.26925,1.31765625,0.9948125,-0.22034375,-0.22796875,1.28728125,0.020815404405645565,0.02052251078621686,True
44160,109269,0,109270,4109.0,42041.0,30067.0,0.0030499999999999998,0.000183,-0.002806,0.17500000000000002,-1.7675,-3.3775000000000004,1.0321875,0.2846875,0.27040625,1.32221875,0.9863437500000001,-0.21912500000000001,-0.21962500000000001,1.3043125,0.02080225854567413,0.02023281739498444,True
44161,109270,0,109271,4109.0,42039.0,30064.0,-6.1e-05,0.000793,-0.000915,0.17500000000000002,-1.1900000000000002,-3.2025,1.02403125,0.28446875,0.2714375,1.3070625,0.9888750000000001,-0.2210625,-0.233875,1.28809375,0.020871555490185455,0.020851494034693174,True
44162,109271,0,109272,4109.0,42041.0,30066.0,-0.0050019999999999995,-0.001952,0.002196,0.17500000000000002,-0.9450000000000001,-3.1850000000000005,1.02809375,0.282125,0.2713125,1.3186875,0.9938125,-0.21678125,-0.2248125,1.30053125,0.020601674716783428,0.020480034675190988,True
44163,109272,0,109273,4108.0,42038.0,30062.0,-0.0051849999999999995,-0.001464,0.001586,0.12250000000000001,-1.3650000000000002,-3.3600000000000003,1.02959375,0.28528125,0.27225,1.31753125,1.001125,-0.21853125,-0.2328125,1.2983437500000001,0.02080276854113521,0.020842091688696884,True
44164,109273,0,109274,4108.0,42039.0,30062.0,-0.002928,0.000793,-6.1e-05,0.15750000000000003,-1.5925000000000002,-3.6050000000000004,1.024375,0.2813125,0.2704375,1.318625,0.98503125,-0.2278125,-0.21690625,1.2935,0.021014072153645737,0.020124112674384242,True
44165,109274,0,109275,4106.0,42039.0,30061.0,-0.0008539999999999999,0.0006709999999999999,0.000305,0.2625,-1.4875,-3.5525,1.03128125,0.28521875,0.27034375,1.307125,1.00721875,-0.2186875,-0.2203125,1.2943125,0.02080650530711047,0.020258047867879495,True
44166,109275,0,109276,4106.0,42038.0,30063.0,0.002074,0.000793,-0.0008539999999999999,0.28,-1.5750000000000002,-3.535,1.03115625,0.283125,0.27078125000000003,1.32475,1.008125,-0.21984375,-0.2240625,1.29665625,0.02076680407981575,0.02042777713275798,True
44167,109276,0,109277,4105.0,42037.0,30061.0,0.0034159999999999998,-0.000488,-0.000549,0.24500000000000002,-1.3475000000000001,-3.5875000000000004,1.02825,0.2846875,0.2675,1.312375,1.00228125,-0.21531250000000002,-0.228125,1.291125,0.020648091987249803,0.020456597446149877,True
44168,109277,0,109278,4106.0,42037.0,30062.0,0.003477,-0.0015249999999999999,0.000732,0.21000000000000002,-1.12,-3.5525,1.0245,0.28203125,0.27059375,1.32309375,0.9849375,-0.2260625,-0.2246875,1.31125,0.020973022339061495,0.02044531018201989,True
44169,109278,0,109279,4104.0,42038.0,30061.0,0.00244,0.0,0.000549,0.1925,-0.8750000000000001,-3.5525,1.0247187500000001,0.28453125,0.27509375,1.32271875,0.97596875,-0.22553125000000002,-0.22434375,1.30765625,0.021054749831337552,0.02061717358184368,True
44170,109279,0,109280,4103.0,42039.0,30061.0,-0.001037,0.00042699999999999997,0.000549,0.3325,-0.8925000000000001,-3.4650000000000003,1.0240625,0.28121875,0.27128125000000003,1.3175000000000001,0.9753125,-0.22234375,-0.2260625,1.28921875,0.02078917321945776,0.020529285351261684,True
44171,109280,0,109281,4104.0,42040.0,30061.0,-0.004941,-0.000183,-0.000122,0.4025,-1.1725,-3.5175000000000005,1.0321875,0.28084375,0.27053125,1.31709375,0.9925625,-0.22359375,-0.22446875,1.29140625,0.020824222252323728,0.020433884644013092,True
44172,109281,0,109282,4104.0,42039.0,30063.0,-0.002379,-6.1e-05,0.0011589999999999999,0.385,-1.3650000000000002,-3.6225000000000005,1.0315625,0.28359375000000003,0.27071875,1.3179687500000001,0.99890625,-0.2213125,-0.2261875,1.2941875,0.020845536343251425,0.0205111204559116,True
44173,109282,0,109283,4103.0,42039.0,30059.0,0.001037,0.000305,0.001037,0.36750000000000005,-1.2600000000000002,-3.4475000000000002,1.03265625,0.2904375,0.2713125,1.32284375,0.98675,-0.22262500000000002,-0.22434375,1.28553125,0.021181127148688465,0.020461080602028694,True
44174,109283,0,109284,4103.0,42036.0,30059.0,0.000732,0.000244,0.000732,0.24500000000000002,-1.5225000000000002,-3.6225000000000005,1.02425,0.2844375,0.26859375,1.318125,0.99628125,-0.21965625,-0.23028125,1.29678125,0.02081341472383614,0.020588906701196463,True
44175,109284,0,109285,4103.0,42037.0,30061.0,0.000732,-6.1e-05,-0.0006709999999999999,0.22750000000000004,-1.7325000000000002,-3.6750000000000003,1.0241875,0.28359375000000003,0.2711875,1.31109375,0.99184375,-0.2208125,-0.2278125,1.29409375,0.020825323262793106,0.02059616401604561,True
44176,109285,0,109286,4102.0,42039.0,30061.0,0.000915,-0.001464,0.000366,0.17500000000000002,-1.5750000000000002,-3.535,1.0296875,0.2850625,0.27053125,1.3208125,0.99671875,-0.22196875,-0.22675,1.29828125,0.020932701847367386,0.020526122983891774,True
44177,109286,0,109287,4104.0,42040.0,30059.0,-0.001647,0.00042699999999999997,-0.000732,0.31500000000000006,-1.5750000000000002,-3.535,1.02496875,0.2853125,0.27075,1.3180625000000001,1.0006875,-0.2199375,-0.22968750000000002,1.2882500000000001,0.020860912626219617,0.02065389823950474,True
44178,109287,0,109288,4104.0,42040.0,30062.0,-0.0013419999999999999,-0.001098,-0.001464,0.31500000000000006,-1.9775000000000003,-3.7275000000000005,1.025875,0.284625,0.2708125,1.32190625,0.99240625,-0.22003125,-0.22690625,1.28484375,0.020836317046453025,0.020544049036389036,True
44179,109288,0,109289,4102.0,42038.0,30061.0,0.000793,0.000183,-0.000976,0.31500000000000006,-2.1175,-3.7100000000000004,1.02409375,0.2850625,0.26965625,1.3185,1.00003125,-0.2200625,-0.22993750000000002,1.300125,0.02085564395219872,0.020618862512542593,True
44180,109289,0,109290,4104.0,42043.0,30062.0,0.003111,0.001281,-0.0008539999999999999,0.2625,-2.1175,-3.8500000000000005,1.0245625,0.2845625,0.26837500000000003,1.318125,0.992625,-0.22071875,-0.23125,1.2971875,0.020861529965951156,0.020619035336600467,True
44181,109290,0,109291,4101.0,42042.0,30064.0,0.004331,0.002379,-0.000122,0.24500000000000002,-1.995,-3.7275000000000005,1.0331875,0.284875,0.27803125,1.316625,0.9904375,-0.224,-0.22865625,1.2934375,0.021007059114927343,0.02091273633881367,True
44182,109291,0,109292,4104.0,42042.0,30063.0,0.0008539999999999999,-0.000183,-0.00061,0.1925,-1.3475000000000001,-3.6225000000000005,1.0366250000000001,0.28025,0.2709375,1.31640625,0.9924375,-0.22403125000000002,-0.22918750000000002,1.293625,0.020817395948496395,0.020641426791550482,True
44183,109292,0,109293,4105.0,42043.0,30062.0,-0.001098,-0.000305,-6.1e-05,0.29750000000000004,-1.155,-3.5700000000000003,1.036,0.2858125,0.2705,1.3283125,0.99359375,-0.21903125,-0.22628125000000002,1.30003125,0.020844919220292926,0.020505881396881746,True
44184,109293,0,109294,4104.0,42043.0,30066.0,-0.001769,-0.0011589999999999999,-6.1e-05,0.2625,-0.8925000000000001,-3.5700000000000003,1.02515625,0.28571875,0.26675,1.3178125,1.00028125,-0.22015625,-0.22709375,1.29196875,0.020886529169274047,0.020383945144060046,True
44185,109294,0,109295,4104.0,42042.0,30064.0,-0.003355,-0.000488,0.000549,0.31500000000000006,-0.9975,-3.6225000000000005,1.02171875,0.2800625,0.27628125,1.3150625,0.9920625000000001,-0.21696875000000002,-0.22921875,1.297375,0.02052409015888911,0.020863239760877554,True
44186,109295,0,109296,4104.0,42042.0,30064.0,-0.001586,0.00042699999999999997,0.000305,0.43750000000000006,-1.1375000000000002,-3.6575,1.02225,0.27909375000000003,0.26778125,1.31584375,0.99234375,-0.21990625,-0.22784375,1.2989375,0.020602887346023478,0.020456834917469698,True
44187,109296,0,109297,4103.0,42041.0,30066.0,0.001281,-0.002257,0.000549,0.35000000000000003,-1.2950000000000002,-3.6575,1.0186875,0.27975,0.2674375,1.3158750000000001,0.98528125,-0.2203125,-0.2293125,1.2926875,0.020646409909038127,0.020502026213083845,True
44188,109297,0,109298,4102.0,42043.0,30064.0,0.00122,-0.000305,-0.001403,0.36750000000000005,-1.5750000000000002,-3.7625,1.02846875,0.28034375,0.2716875,1.31865625,0.99290625,-0.2225625,-0.22790625,1.29471875,0.02076189296652656,0.020620591182946322,True
44189,109298,0,109299,4103.0,42043.0,30066.0,-0.001037,0.000976,-0.002013,0.31500000000000006,-1.5750000000000002,-3.7450000000000006,1.033625,0.2846875,0.27478125000000003,1.3281875,0.9968125,-0.22234375,-0.22715625,1.2940625000000001,0.020932377776200953,0.020717970149715777,True
44190,109299,0,109300,4100.0,42042.0,30062.0,-0.000549,0.001586,-0.000793,0.35000000000000003,-1.2600000000000002,-3.5700000000000003,1.02209375,0.28434375,0.26784375,1.32596875,0.99740625,-0.22028125,-0.22690625,1.2983437500000001,0.020834811734483885,0.020421509659327635,True
44191,109300,0,109301,4102.0,42043.0,30065.0,0.000305,0.0017079999999999999,0.000976,0.42000000000000004,-1.1025,-3.5175000000000005,1.02215625,0.28521875,0.2651875,1.31746875,0.996,-0.2196875,-0.226625,1.2976875,0.02084693495735649,0.020300495838772425,True
44192,109301,0,109302,4101.0,42043.0,30065.0,-0.000183,0.0023179999999999997,0.0015249999999999999,0.4025,-1.3650000000000002,-3.6400000000000006,1.021625,0.2805,0.26859375,1.3166875,0.99290625,-0.21996875000000002,-0.22696875,1.29546875,0.020663476289580266,0.020454993982687165,True
44193,109302,0,109303,4100.0,42043.0,30065.0,0.000732,0.001647,0.0006709999999999999,0.3325,-1.225,-3.7800000000000002,1.02296875,0.282125,0.2715,1.31753125,0.99275,-0.21962500000000001,-0.22753125000000002,1.2942500000000001,0.02071667088156815,0.020597692965518312,True
44194,109303,0,109304,4100.0,42044.0,30066.0,0.00042699999999999997,0.000732,0.001098,0.2625,-0.9975,-3.6050000000000004,1.0319375,0.28571875,0.27087500000000003,1.3215937500000001,0.9930625000000001,-0.2214375,-0.22675,1.29503125,0.02093832168301324,0.02054031184537753,True
44195,109304,0,109305,4100.0,42041.0,30063.0,0.001037,-0.001403,-0.0013419999999999999,0.14,-0.8750000000000001,-3.4825000000000004,1.03040625,0.285375,0.27040625,1.32225,0.9966875000000001,-0.221,-0.226125,1.2999375,0.020906444820610215,0.020495694214406966,True
44196,109305,0,109306,4098.0,42042.0,30063.0,0.0011589999999999999,-0.0044529999999999995,-0.002989,0.0,-0.7875000000000001,-3.4650000000000003,1.03190625,0.28575,0.27037500000000003,1.3245,1.0045,-0.21915625,-0.22640625,1.29975,0.0208473922372915,0.02050577559352205,True
44197,109306,0,109307,4099.0,42043.0,30065.0,-0.002562,-0.0051849999999999995,0.0,0.28,-0.6475000000000001,-3.325,1.02965625,0.28371875,0.27084375,1.310375,1.02496875,-0.2225625,-0.2261875,1.293375,0.020901225871540224,0.02051628016170518,True
44198,109307,0,109308,4099.0,42044.0,30065.0,-0.00366,-0.001281,-0.00061,0.45500000000000007,-0.8400000000000001,-3.3600000000000003,1.0314375,0.28215625,0.2715625,1.3178125,1.0198125,-0.22509375,-0.22212500000000002,1.28375,0.020939031453696643,0.020381675843882403,True
44199,109308,0,109309,4098.0,42042.0,30063.0,-0.004148,0.004148,0.0013419999999999999,0.47250000000000003,-0.7350000000000001,-3.4475000000000002,1.02315625,0.2839375,0.27071875,1.3158750000000001,1.00978125,-0.2208125,-0.22109375,1.28190625,0.020839515602542234,0.02030513176144244,True
44200,109309,0,109310,4100.0,42044.0,30065.0,0.000488,0.005063,0.00183,0.47250000000000003,-0.805,-3.5175000000000005,1.02296875,0.28275,0.26996875,1.31790625,1.01421875,-0.22815625,-0.22265625,1.28440625,0.021087293838135124,0.020337364941138525,True
44201,109310,0,109311,4099.0,42043.0,30067.0,0.000793,0.005673,-0.00042699999999999997,0.45500000000000007,-1.0325000000000002,-3.5875000000000004,1.02221875,0.28428125,0.2706875,1.3245,1.01640625,-0.22396875,-0.21725,1.31009375,0.020981285323033616,0.02014834467166999,True
44202,109311,0,109312,4098.0,42041.0,30065.0,0.000244,-0.001647,0.0006709999999999999,0.6125,-1.4175000000000002,-3.6400000000000006,1.0322500000000001,0.28534375,0.26990625,1.31784375,1.0155625,-0.2159375,-0.2325625,1.2943125,0.020700468441496433,0.020735270980937325,True
44203,109312,0,109313,4099.0,42044.0,30066.0,-0.00244,-0.000183,-0.003111,0.35000000000000003,-1.6625,-3.6925000000000003,1.02178125,0.28528125,0.26821875,1.3255000000000001,0.9792500000000001,-0.22234375,-0.230625,1.30771875,0.020956890267895732,0.020587324924553122,True
44204,109313,0,109314,4098.0,42044.0,30065.0,-0.000305,0.0017079999999999999,-0.001464,0.1925,-1.155,-3.6400000000000006,1.024125,0.2850625,0.2673125,1.322,0.9803437500000001,-0.21581250000000002,-0.2318125,1.30534375,0.020683799067241705,0.02059792266880573,True
44205,109314,0,109315,4098.0,42040.0,30065.0,0.001098,6.1e-05,0.000549,0.35000000000000003,-0.77,-3.5525,1.02475,0.28559375,0.26871875,1.31878125,0.9809687500000001,-0.2186875,-0.23065625,1.29421875,0.020821989218036692,0.020609223078718722,True
44206,109315,0,109316,4098.0,42041.0,30066.0,0.000549,-0.000305,-0.000122,0.3325,-0.7000000000000001,-3.4825000000000004,1.0240625,0.28215625,0.271625,1.3175937500000001,0.98084375,-0.22896875,-0.2298125,1.28396875,0.02109561514045042,0.020695063158247713,True
44207,109316,0,109317,4097.0,42041.0,30065.0,-0.000793,-0.003111,-0.000793,0.28,-0.8575,-3.5875000000000004,1.02425,0.28275,0.26887500000000003,1.31840625,0.9844375,-0.22253125,-0.22615625,1.291875,0.020859968959685005,0.02043375122704412,True
44208,109317,0,109318,4097.0,42042.0,30065.0,-0.0011589999999999999,-0.0018909999999999999,-6.1e-05,0.3325,-1.0675000000000001,-3.7800000000000002,1.025125,0.28200000000000003,0.26915625,1.31790625,0.9836875,-0.22037500000000002,-0.22868750000000002,1.29775,0.020741834096292894,0.020547697847850818,True
44209,109318,0,109319,4098.0,42042.0,30067.0,-0.00042699999999999997,0.002013,-0.000183,0.385,-0.9625000000000001,-3.7450000000000006,1.02496875,0.28221875,0.26971875,1.31825,0.9929687500000001,-0.22112500000000002,-0.228875,1.3004375000000001,0.0207811879093147,0.020578493636208863,True
44210,109319,0,109320,4099.0,42043.0,30065.0,0.0015249999999999999,0.003355,0.001281,0.43750000000000006,-1.0150000000000001,-3.7800000000000002,1.02503125,0.28490625,0.2698125,1.3181875,0.9940625000000001,-0.2195625,-0.22634375,1.30053125,0.02082897864071657,0.02048003013248749,True
44211,109320,0,109321,4099.0,42043.0,30068.0,-0.000366,-0.000122,0.001037,0.43750000000000006,-0.805,-3.7275000000000005,1.02459375,0.28334375,0.271,1.318625,0.99253125,-0.22037500000000002,-0.22996875,1.29496875,0.020797314244721643,0.02067558382633077,True
44212,109321,0,109322,4099.0,42041.0,30067.0,-0.002745,-0.001281,-0.000305,0.3325,-0.7525000000000001,-3.7975000000000003,1.029875,0.28453125,0.26940625,1.31825,0.99334375,-0.2223125,-0.22809375,1.28746875,0.020924663984910608,0.020534013329051116,True
44213,109322,0,109323,4098.0,42041.0,30066.0,-0.001586,-0.0015249999999999999,0.000793,0.4025,-0.8575,-3.7625,1.0246875,0.28571875,0.2681875,1.31896875,0.9928125,-0.2149375,-0.22921875,1.30075,0.020675512790400554,0.020529190607930767,True
44214,109323,0,109324,4099.0,42039.0,30065.0,-0.00244,-0.0008539999999999999,0.001098,0.42000000000000004,-1.0325000000000002,-3.7275000000000005,1.02465625,0.28490625,0.271125,1.32003125,0.9935,-0.2203125,-0.22746875,1.294375,0.020859299400038712,0.020579688086482414,True
44215,109324,0,109325,4098.0,42042.0,30067.0,-0.002257,-0.000122,0.002074,0.31500000000000006,-1.155,-3.5700000000000003,1.0311875,0.28500000000000003,0.2703125,1.324,0.99765625,-0.2215,-0.22678125000000002,1.29340625,0.020911173957021658,0.020518357138342512,True
44216,109325,0,109326,4097.0,42041.0,30067.0,-0.000122,0.00061,-0.001769,0.29750000000000004,-1.5050000000000001,-3.6750000000000003,1.0315,0.28553125,0.27065625,1.32815625,1.00078125,-0.22259375,-0.22675,1.29371875,0.020977315858257337,0.020531282569886594,True
44217,109326,0,109327,4097.0,42042.0,30067.0,0.0017079999999999999,0.000915,-0.001647,0.31500000000000006,-1.7850000000000001,-3.6750000000000003,1.02565625,0.28459375,0.26975,1.33453125,1.0013750000000001,-0.21990625,-0.22684375,1.29428125,0.02082997327869508,0.020497665941317675,True
44218,109327,0,109328,4097.0,42043.0,30070.0,0.004331,-0.000732,0.000305,0.28,-1.6450000000000002,-3.6225000000000005,1.02390625,0.28625,0.26221875,1.32165625,0.99971875,-0.2211875,-0.22678125000000002,1.29628125,0.02095014953333729,0.020184274376110117,True
44219,109328,0,109329,4097.0,42043.0,30068.0,0.003477,-0.001098,-0.001769,0.35000000000000003,-1.8200000000000003,-3.6400000000000006,1.02096875,0.27653125,0.26725,1.312125,1.0015,-0.2195625,-0.22734375,1.29971875,0.020483183789963177,0.02041469156105898,True
44220,109329,0,109330,4097.0,42046.0,30069.0,0.000549,-0.000793,-0.002379,0.3325,-1.9075000000000002,-3.7275000000000005,1.01990625,0.2793125,0.273125,1.3143125,0.9897812500000001,-0.21959375,-0.2295625,1.2980625000000001,0.020599282347582726,0.020746866560219564,True
44221,109330,0,109331,4097.0,42044.0,30070.0,0.00061,0.001464,0.001037,0.35000000000000003,-1.2775,-3.5875000000000004,1.0347187500000001,0.28296875,0.2721875,1.31928125,0.99190625,-0.2193125,-0.22615625,1.29509375,0.0207388731616556,0.020570483606948586,True
44222,109331,0,109332,4096.0,42044.0,30069.0,-0.001098,-0.0008539999999999999,0.001281,0.385,-1.0675000000000001,-3.6400000000000006,1.03771875,0.28759375,0.2688125,1.32975,0.9839375,-0.22346875,-0.2226875,1.29509375,0.02109782481090781,0.020290894641645362,True
44223,109332,0,109333,4097.0,42045.0,30070.0,-0.003294,0.000305,0.000183,0.31500000000000006,-0.9450000000000001,-3.6050000000000004,1.0174375,0.2831875,0.26634375,1.32625,0.998375,-0.21965625,-0.22675,1.298875,0.020761803751859608,0.02035327685306531,True
44224,109333,0,109334,4096.0,42046.0,30070.0,-0.001952,0.000549,-0.0006709999999999999,0.29750000000000004,-0.8575,-3.5525,1.01725,0.28490625,0.2644375,1.30534375,1.0008125,-0.21925,-0.22675,1.3025625,0.02081634443676002,0.02027459316664431,True
44225,109334,0,109335,4099.0,42044.0,30071.0,-0.000976,0.0015249999999999999,-0.000183,0.28,-0.9450000000000001,-3.6575,1.0191875,0.27703125,0.27409375,1.32303125,0.9940625000000001,-0.2194375,-0.229625,1.29546875,0.020498772938058532,0.020789374577609022,True
44226,109335,0,109336,4097.0,42045.0,30070.0,-0.000183,0.0008539999999999999,6.1e-05,0.28,-1.4175000000000002,-3.6400000000000006,1.0338125,0.28728125,0.2701875,1.3293125000000001,0.99271875,-0.22228125,-0.22565625,1.29409375,0.02103693267949318,0.02046771178799336,True
44227,109336,0,109337,4097.0,42046.0,30072.0,0.001769,-0.000793,0.001098,0.2625,-1.2950000000000002,-3.535,1.009375,0.28265625,0.2693125,1.31275,0.9996875000000001,-0.21909375,-0.22665625,1.29928125,0.02071712530531825,0.020472026551332276,True
44228,109337,0,109338,4098.0,42047.0,30068.0,0.0017079999999999999,-0.0015249999999999999,0.00061,0.21000000000000002,-1.155,-3.6575,1.02196875,0.28003125,0.273125,1.314,0.9933125,-0.21915625,-0.22884375,1.2965625,0.02061126716584109,0.02071781696144704,True
44229,109338,0,109339,4098.0,42046.0,30072.0,0.000793,-0.002013,0.000915,0.1925,-1.0325000000000002,-3.6575,1.02584375,0.2836875,0.2725625,1.30853125,0.993625,-0.21925,-0.22809375,1.29440625,0.020766022895011203,0.02066428564979447,True
44230,109339,0,109340,4098.0,42046.0,30071.0,-0.001403,-0.001098,0.000122,0.14,-1.2075,-3.5700000000000003,1.0289375,0.28346875,0.2711875,1.318625,0.99309375,-0.22046875,-0.230125,1.2994375,0.020806265361813032,0.020689637383216143,True
44231,109340,0,109341,4097.0,42045.0,30071.0,0.0,0.001037,-0.000976,0.31500000000000006,-1.1725,-3.4825000000000004,1.0246250000000001,0.28278125,0.27137500000000003,1.3185625,0.9934375,-0.21990625,-0.22984375,1.29934375,0.02075513814179194,0.02068600834456475,True
44232,109341,0,109342,4095.0,42045.0,30073.0,0.002379,0.001769,-0.000549,0.31500000000000006,-1.0675000000000001,-3.535,1.02675,0.28146875,0.27096875,1.3183125,0.99353125,-0.22059375,-0.22290625,1.2949375,0.020728744521384825,0.020388759090375456,True
44233,109342,0,109343,4099.0,42049.0,30075.0,-0.001037,0.001464,-0.00061,0.42000000000000004,-1.2950000000000002,-3.6050000000000004,1.03115625,0.282875,0.27109375,1.3231875,0.9929687500000001,-0.2228125,-0.22884375,1.28696875,0.020876498135796576,0.020633980934397667,True
44234,109343,0,109344,4099.0,42048.0,30075.0,-0.002806,-0.0011589999999999999,-0.0018909999999999999,0.49000000000000005,-1.7325000000000002,-3.5875000000000004,1.0293125,0.28490625,0.2695,1.32346875,1.000875,-0.22221875,-0.226,1.2984375000000001,0.02093635621220703,0.020453232064723853,True
44235,109344,0,109345,4096.0,42048.0,30076.0,-0.00122,-0.001647,0.000549,0.47250000000000003,-1.8375000000000001,-3.5700000000000003,1.02515625,0.28503125,0.26987500000000003,1.3169375,1.000875,-0.22025,-0.22834375,1.2948125,0.020861933712492647,0.02056346711689692,True
44236,109345,0,109346,4097.0,42047.0,30074.0,-0.0018909999999999999,0.001037,0.0013419999999999999,0.45500000000000007,-2.345,-3.8150000000000004,1.031875,0.28546875,0.269125,1.3228125,0.9929687500000001,-0.22096875,-0.22671875,1.30003125,0.02090905220295947,0.02046681414502325,True
44237,109346,0,109347,4097.0,42048.0,30076.0,-0.000244,0.002257,-0.000488,0.385,-2.6950000000000003,-3.8850000000000002,1.02528125,0.28315625,0.2758125,1.324625,0.9947812500000001,-0.21971875000000002,-0.22871875,1.29471875,0.02076304044612409,0.020823686766350366,True
44238,109347,0,109348,4098.0,42048.0,30075.0,0.0040869999999999995,0.000183,0.0006709999999999999,0.36750000000000005,-2.415,-3.7800000000000002,1.025625,0.28371875,0.27065625,1.3200625,1.0003125,-0.21909375,-0.2295625,1.29490625,0.020760995650384317,0.020644976565301166,True
44239,109348,0,109349,4096.0,42047.0,30074.0,0.0057339999999999995,-0.000549,0.0015249999999999999,0.29750000000000004,-2.1,-3.7275000000000005,1.0285,0.28500000000000003,0.26728125,1.31890625,0.9999375,-0.21840625,-0.2264375,1.3025,0.020786101480150043,0.02037933765540229,True
44240,109349,0,109350,4095.0,42047.0,30072.0,0.002257,0.0006709999999999999,6.1e-05,0.43750000000000006,-2.24,-3.7800000000000002,1.02428125,0.28325,0.27125,1.3235000000000001,0.9926875000000001,-0.2191875,-0.228875,1.28803125,0.020745431695427436,0.02064169302124015,True
44241,109350,0,109351,4095.0,42047.0,30072.0,-0.000549,-0.0023179999999999997,-0.0006709999999999999,0.36750000000000005,-1.9425000000000001,-3.6925000000000003,1.02553125,0.2821875,0.27109375,1.3245625,1.00028125,-0.218625,-0.229375,1.2942500000000001,0.020678816406794358,0.020655454381303687,True
44242,109351,0,109352,4094.0,42046.0,30073.0,0.00061,-0.001037,0.003111,0.35000000000000003,-1.6450000000000002,-3.6400000000000006,1.03171875,0.28475,0.2698125,1.318125,1.0008125,-0.21921875000000002,-0.22718750000000001,1.3011875,0.020808629510396578,0.020514143459697914,True
44243,109352,0,109353,4093.0,42044.0,30071.0,-0.002745,0.001098,-0.000244,0.43750000000000006,-1.9775000000000003,-3.8675,1.02528125,0.2834375,0.2710625,1.318375,0.99346875,-0.21928125,-0.22703125000000002,1.2899375,0.02075696404078878,0.020559421617124467,True
44244,109353,0,109354,4091.0,42045.0,30071.0,-0.002928,0.001647,-0.001647,0.42000000000000004,-2.1350000000000002,-3.9025000000000003,1.02540625,0.2815625,0.2674375,1.318875,0.9928750000000001,-0.21946875000000002,-0.22943750000000002,1.3003437500000001,0.02068712799491112,0.020507079456549497,True
44245,109354,0,109355,4091.0,42046.0,30070.0,0.00042699999999999997,0.0006709999999999999,-0.0018909999999999999,0.31500000000000006,-1.7675,-3.8150000000000004,1.02528125,0.2841875,0.26887500000000003,1.31875,0.99375,-0.2184375,-0.22865625,1.3014375,0.02075381617827327,0.020534826400040243,True
44246,109355,0,109356,4088.0,42047.0,30070.0,0.000488,-0.00042699999999999997,0.000366,0.4025,-1.8900000000000001,-3.9550000000000005,1.025,0.28571875,0.2701875,1.32165625,0.993,-0.2188125,-0.22675,1.30146875,0.020832204303988893,0.020511934122406022,True
44247,109356,0,109357,4089.0,42046.0,30067.0,-0.001647,0.000366,-0.0018909999999999999,0.4025,-2.0300000000000002,-3.9200000000000004,1.0280625,0.28553125,0.27090625,1.3216875000000001,0.9964375,-0.218375,-0.22171875,1.2949375,0.020806773782303726,0.020338152097484824,True
44248,109357,0,109358,4089.0,42045.0,30070.0,6.1e-05,-0.001403,0.000183,0.36750000000000005,-1.6275000000000002,-3.6750000000000003,1.0284375000000001,0.28528125,0.27153125,1.31828125,1.0005625,-0.22096875,-0.22571875,1.29584375,0.020901310976671812,0.020525706796624972,True
44249,109358,0,109359,4088.0,42043.0,30067.0,0.0011589999999999999,-0.0013419999999999999,0.001586,0.36750000000000005,-1.4525000000000001,-3.7800000000000002,1.0280625,0.28475,0.27103125,1.3185,0.9929687500000001,-0.22203125,-0.2209375,1.29571875,0.020922326652518045,0.020311713780690775,True
44250,109359,0,109360,4087.0,42046.0,30067.0,-0.000915,6.1e-05,0.001403,0.45500000000000007,-1.8025000000000002,-3.9025000000000003,1.0254375,0.2839375,0.27084375,1.3180625000000001,0.9846875,-0.21962500000000001,-0.23115625,1.304375,0.020791506887493098,0.020717129418865433,True
44251,109360,0,109361,4087.0,42045.0,30068.0,0.004514,0.00122,6.1e-05,0.3325,-1.8550000000000002,-3.8150000000000004,1.02465625,0.28615625,0.2708125,1.32453125,0.98046875,-0.2184375,-0.22740625,1.2978125,0.020835107549774835,0.020564262837669635,True
44252,109361,0,109362,4085.0,42046.0,30068.0,0.005795,0.001464,0.0006709999999999999,0.36750000000000005,-1.5750000000000002,-3.9550000000000005,1.025875,0.2866875,0.27096875,1.31465625,1.005625,-0.2188125,-0.2278125,1.293125,0.020872204200763352,0.020587135136529554,True
44253,109362,0,109363,4083.0,42044.0,30067.0,0.0026839999999999998,-0.0017079999999999999,0.0021349999999999997,0.28,-1.4175000000000002,-3.9725000000000006,1.02525,0.285125,0.2621875,1.3329375,0.99009375,-0.21753125,-0.2264375,1.29934375,0.02075588319928358,0.020169081814030643,True
44254,109363,0,109364,4082.0,42044.0,30068.0,-0.002379,-0.002074,0.000244,0.1925,-1.3825,-3.8150000000000004,1.0205,0.286125,0.2653125,1.34709375,1.00609375,-0.2233125,-0.225375,1.2922500000000001,0.02103087676386126,0.02025510441014845,True
44255,109364,0,109365,4082.0,42044.0,30068.0,-0.005856,-0.001098,-0.000488,0.24500000000000002,-1.2950000000000002,-3.7625,1.0396875,0.28959375,0.27459375,1.31125,0.995125,-0.2225,-0.22728125000000002,1.29296875,0.021141242646299928,0.020715283519482815,True
44256,109365,0,109366,4082.0,42044.0,30070.0,-0.006771,0.002562,0.000793,0.56,-1.8375000000000001,-3.7625,1.048125,0.284125,0.27690625,1.30678125,0.990375,-0.22037500000000002,-0.22793750000000002,1.30334375,0.02082957014497092,0.02083725657621496,True
44257,109366,0,109367,4080.0,42044.0,30069.0,-0.003965,0.0015249999999999999,0.00042699999999999997,0.5075000000000001,-2.3800000000000003,-3.8150000000000004,1.0190000000000001,0.28121875,0.265125,1.336875,0.9901562500000001,-0.2188125,-0.2223125,1.29621875,0.020646398331875277,0.020123491512216266,True
44258,109367,0,109368,4082.0,42044.0,30072.0,0.004026,-0.0006709999999999999,0.002257,0.3325,-2.3625000000000003,-3.8675,1.0319375,0.2901875,0.27328125000000003,1.33853125,1.00409375,-0.22284375,-0.2243125,1.2925,0.021179645763103272,0.02054108862738623,True
44259,109368,0,109369,4080.0,42044.0,30069.0,0.0053679999999999995,-0.002013,-0.002989,0.3325,-2.4325,-3.9025000000000003,1.03703125,0.28625,0.2755,1.3079687500000001,0.9948750000000001,-0.22384375,-0.23103125,1.29978125,0.021057506614737802,0.020904238237900004,True
44260,109369,0,109370,4082.0,42044.0,30070.0,0.0050019999999999995,-0.00061,-0.007625,0.4025,-2.5725000000000002,-3.8850000000000002,1.02353125,0.27225,0.26128125,1.32725,0.99090625,-0.2188125,-0.2273125,1.30278125,0.02027607670689882,0.020167063515608676,True
44261,109370,0,109371,4080.0,42044.0,30070.0,0.002989,0.000976,-0.0006709999999999999,0.43750000000000006,-1.9075000000000002,-3.7625,1.0135,0.2866875,0.26846875,1.33946875,0.9998750000000001,-0.22015625,-0.22087500000000002,1.29375,0.02092652684682825,0.020203388605902966,True
44262,109371,0,109372,4079.0,42044.0,30069.0,0.001952,-0.001037,0.004697,0.6125,-2.0650000000000004,-3.8150000000000004,1.041875,0.28865625,0.27478125000000003,1.308,0.9928750000000001,-0.22084375,-0.22709375,1.30153125,0.02103560079322175,0.02071544384063813,True
44263,109372,0,109373,4080.0,42041.0,30070.0,-0.000549,-0.0017079999999999999,0.0070149999999999995,0.56,-2.0650000000000004,-3.9375000000000004,1.01475,0.2789375,0.26290625,1.3200625,0.980625,-0.2189375,-0.22728125000000002,1.30040625,0.020557260201856505,0.02023287280738527,True
44264,109373,0,109374,4080.0,42039.0,30068.0,-0.000488,-0.000183,0.009211,0.525,-1.9775000000000003,-4.025,1.01328125,0.28815625,0.2698125,1.3321875,0.99925,-0.21890625,-0.22625,1.29515625,0.0209366391184573,0.02047623961611888,True
44265,109374,0,109375,4078.0,42042.0,30071.0,-0.001647,0.0015249999999999999,0.005856,0.6125,-1.8725000000000003,-4.0425,1.02525,0.28496875,0.27284375,1.31603125,1.0006875,-0.2199375,-0.228125,1.29090625,0.020846719773740127,0.020677157229459564,True
44266,109375,0,109376,4079.0,42040.0,30071.0,-0.004148,0.003843,-0.005246,0.5075000000000001,-1.5925000000000002,-3.7625,1.02315625,0.28571875,0.26975,1.3233125000000001,0.9937812500000001,-0.21909375,-0.22671875,1.3020625000000001,0.02084357512344986,0.020492612108274053,True
44267,109376,0,109377,4077.0,42045.0,30072.0,-0.0023179999999999997,0.000915,-0.004148,0.385,-1.54,-3.6050000000000004,1.0214375,0.28628125,0.271,1.3193125,1.001125,-0.22062500000000002,-0.22565625,1.2948125,0.020928702294015947,0.020501250611116056,True
44268,109377,0,109378,4075.0,42042.0,30073.0,-0.0006709999999999999,-0.002196,-0.002928,0.35000000000000003,-1.54,-3.5000000000000004,1.02546875,0.28253125,0.26959375,1.323125,0.982625,-0.22015625,-0.22728125000000002,1.300625,0.020754923907644073,0.020508904605216486,True
44269,109378,0,109379,4076.0,42044.0,30070.0,-0.001952,-0.0042699999999999995,-0.002928,0.28,-1.8550000000000002,-3.7450000000000006,1.02575,0.2864375,0.27096875,1.3253125000000001,0.9938750000000001,-0.2185625,-0.22646875,1.2901562500000001,0.020851774336317443,0.020532810833192517,True
44270,109379,0,109380,4076.0,42043.0,30071.0,-0.00122,-0.0026839999999999998,-0.001037,0.29750000000000004,-1.6975000000000002,-3.7450000000000006,1.0333125,0.2824375,0.271125,1.3190625,1.00084375,-0.22146875,-0.22753125000000002,1.29771875,0.020804116183086543,0.02058221470666765,True
44271,109380,0,109381,4076.0,42046.0,30072.0,0.0,0.002562,0.002562,0.36750000000000005,-2.0125,-3.7975000000000003,1.02534375,0.28571875,0.27075,1.32209375,0.99371875,-0.21875,-0.22634375,1.29478125,0.02082967741935484,0.02051872767635438,True
44272,109381,0,109382,4074.0,42046.0,30073.0,0.002196,0.0018909999999999999,0.000183,0.525,-2.3275,-4.0075,1.0303437500000001,0.286125,0.27146875,1.3113125,0.99915625,-0.2178125,-0.22678125000000002,1.3023437500000001,0.020808547427642363,0.020566083247232855,True
44273,109382,0,109383,4074.0,42048.0,30072.0,0.00732,0.001037,-0.00061,0.3325,-2.4850000000000003,-4.0075,1.02109375,0.28640625000000003,0.2745,1.318125,0.9878125,-0.21296875,-0.225375,1.295125,0.020624278053470828,0.020634355505332734,True
44274,109383,0,109384,4075.0,42047.0,30072.0,0.009699,-0.0008539999999999999,-0.000244,0.22750000000000004,-2.5900000000000003,-3.9725000000000006,1.0326875,0.28525,0.2706875,1.3196875000000001,0.98834375,-0.22075,-0.225,1.2949375,0.020891178018847475,0.020461816305469557,True
44275,109384,0,109385,4074.0,42046.0,30072.0,0.004514,-0.002806,0.000366,0.22750000000000004,-2.6075000000000004,-4.0425,1.026,0.2856875,0.27003125,1.3241875,0.994,-0.21875,-0.2300625,1.2968125,0.020828387096774193,0.020639391664796572,True
44276,109385,0,109386,4073.0,42047.0,30072.0,0.001098,-0.0026839999999999998,-0.00061,0.24500000000000002,-1.5050000000000001,-3.6750000000000003,1.02559375,0.285875,0.2688125,1.3239687500000001,0.99425,-0.21575,-0.226375,1.302625,0.020714824029815306,0.020440016304544117,True
44277,109386,0,109387,4075.0,42048.0,30073.0,-0.006222,-0.00122,-0.0015249999999999999,0.28,-1.0325000000000002,-3.5000000000000004,1.02028125,0.28690625000000003,0.27021875,1.32753125,1.00046875,-0.2173125,-0.226,1.28790625,0.020820590641509047,0.020482900602658304,True
44278,109387,0,109388,4072.0,42048.0,30073.0,-0.010248,0.0021349999999999997,-0.0006709999999999999,0.36750000000000005,-0.5775,-3.5700000000000003,1.02496875,0.286375,0.2706875,1.31903125,0.99971875,-0.21778125,-0.226125,1.29525,0.020817606897824296,0.020507303582392975,True
44279,109388,0,109389,4072.0,42047.0,30076.0,-0.010614,0.002806,0.00122,0.36750000000000005,-0.35000000000000003,-3.4825000000000004,1.0228125000000001,0.28271875,0.2698125,1.32503125,0.99384375,-0.2184375,-0.22871875,1.30059375,0.020693170234454637,0.02057604676268736,True
44280,109389,0,109390,4073.0,42047.0,30077.0,-0.005124,0.002989,0.002928,0.36750000000000005,-1.1375000000000002,-3.5700000000000003,1.03134375,0.28534375,0.26965625,1.3201875,0.998125,-0.2209375,-0.2245,1.29553125,0.02090262814971551,0.020399027843711944,True
44281,109390,0,109391,4070.0,42046.0,30077.0,0.000793,0.000366,0.002623,0.3325,-1.6625,-3.7450000000000006,1.02525,0.28653125,0.2711875,1.31903125,0.99403125,-0.21853125,-0.22590625,1.29546875,0.020854381910546286,0.02051909822774948,True
44282,109391,0,109392,4070.0,42045.0,30076.0,0.004514,-0.000305,-0.002257,0.24500000000000002,-2.31,-3.8850000000000002,1.03125,0.2833125,0.26746875000000003,1.3238125,0.99584375,-0.21978125,-0.22871875,1.298625,0.020772018739847208,0.0204793123862565,True
44283,109392,0,109393,4068.0,42046.0,30077.0,0.00793,-0.0013419999999999999,-0.003294,0.15750000000000003,-2.3975000000000004,-3.9025000000000003,1.033,0.2833125,0.2720625,1.31809375,1.0003125,-0.22037500000000002,-0.22793750000000002,1.29478125,0.020796024008711677,0.020637332418411595,True
44284,109393,0,109394,4071.0,42045.0,30074.0,0.008539999999999999,-0.0017079999999999999,-0.002989,0.1925,-2.0125,-3.8150000000000004,1.02640625,0.28271875,0.2724375,1.3186875,0.9939375,-0.22128125,-0.22309375,1.29578125,0.020808147793585443,0.020456976103640764,True
44285,109394,0,109395,4069.0,42045.0,30075.0,0.0006709999999999999,-0.0025009999999999998,-0.00061,0.2625,-1.5925000000000002,-3.5875000000000004,1.02565625,0.282875,0.26903125,1.32584375,0.99353125,-0.22046875,-0.228875,1.311625,0.02078175097251163,0.020550118402113182,True
44286,109395,0,109396,4070.0,42046.0,30077.0,-0.002257,-0.001098,-0.0006709999999999999,0.21000000000000002,-1.4525000000000001,-3.6400000000000006,1.02640625,0.28621875,0.27059375,1.3237812500000001,0.994,-0.2193125,-0.22596875,1.3060625000000001,0.0208730635933617,0.020497116343386683,True
44287,109396,0,109397,4070.0,42046.0,30075.0,-0.00042699999999999997,-0.001403,0.001464,0.28,-0.9625000000000001,-3.7275000000000005,1.03046875,0.2896875,0.27128125000000003,1.31928125,0.9988750000000001,-0.21671875000000002,-0.2246875,1.29065625,0.020911431281333274,0.020473690321082576,True
44288,109397,0,109398,4070.0,42047.0,30077.0,-0.0028669999999999998,0.0011589999999999999,0.0025009999999999998,0.35000000000000003,-0.9800000000000001,-3.7625,1.03209375,0.2841875,0.27137500000000003,1.3189375,1.008125,-0.2205625,-0.2219375,1.28965625,0.02083973070402473,0.02036635178337819,True
44289,109398,0,109399,4069.0,42047.0,30076.0,-0.0057339999999999995,0.004026,-0.000305,0.42000000000000004,-1.3825,-3.8150000000000004,1.03065625,0.28550000000000003,0.27096875,1.318,0.99075,-0.22084375,-0.2235,1.29090625,0.020905289478199952,0.020412770656593804,True
44290,109399,0,109400,4068.0,42045.0,30080.0,-0.001403,0.0025009999999999998,0.0006709999999999999,0.4025,-1.2950000000000002,-3.6225000000000005,1.02696875,0.28671875,0.27121875,1.31390625,1.01071875,-0.217625,-0.2236875,1.29203125,0.02082548350633062,0.020430673488501697,True
44291,109400,0,109401,4068.0,42044.0,30079.0,0.000976,0.0021349999999999997,0.000488,0.385,-1.6625,-3.7975000000000003,1.02240625,0.28678125,0.269,1.32221875,1.00990625,-0.21675,-0.22668750000000001,1.30803125,0.020792684815262162,0.020460391046031368,True
44292,109401,0,109402,4068.0,42044.0,30077.0,0.002745,-0.001098,0.000305,0.3325,-1.6625,-3.6750000000000003,1.02603125,0.2864375,0.26825,1.32703125,0.9865625,-0.21928125,-0.2298125,1.30628125,0.020880832291420702,0.020555771944170017,True
44293,109402,0,109403,4068.0,42047.0,30078.0,0.00244,-0.002196,-0.000244,0.22750000000000004,-1.6800000000000002,-3.5700000000000003,1.026375,0.2863125,0.26853125,1.3146875,0.98840625,-0.2155,-0.23221875,1.2923437500000001,0.02072278086349652,0.02066463682777707,True
44294,109403,0,109404,4067.0,42045.0,30078.0,0.000915,-0.002379,-0.000976,0.31500000000000006,-1.7325000000000002,-3.6400000000000006,1.02584375,0.285875,0.2689375,1.319375,0.9871875,-0.2186875,-0.22859375,1.288,0.020833602151231357,0.020534879371610245,True
44295,109404,0,109405,4066.0,42047.0,30080.0,-0.0008539999999999999,-0.001769,6.1e-05,0.29750000000000004,-1.7500000000000002,-3.4825000000000004,1.02546875,0.28525,0.27028125000000003,1.323,0.98771875,-0.21959375,-0.22584375,1.3023125,0.020844435097099843,0.020479162877453962,True
44296,109405,0,109406,4067.0,42044.0,30079.0,0.001037,-0.001647,-0.0015249999999999999,0.22750000000000004,-1.54,-3.5000000000000004,1.026375,0.2861875,0.2744375,1.3194375,0.9834375000000001,-0.21803125,-0.22615625,1.2973125,0.020819972721771097,0.020663358431034638,True
44297,109406,0,109407,4066.0,42046.0,30079.0,0.001098,0.000366,-0.0017079999999999999,0.22750000000000004,-1.435,-3.5700000000000003,1.0265,0.286125,0.26821875,1.31975,0.9864375,-0.21684375,-0.2285625,1.3023125,0.02076937668642306,0.020503950657411063,True
44298,109407,0,109408,4066.0,42047.0,30079.0,0.001403,0.0008539999999999999,-0.00061,0.28,-1.2775,-3.5525,1.0249062500000001,0.285875,0.26809375,1.31921875,0.99128125,-0.21859375,-0.22846875,1.29959375,0.020829811805237453,0.02049500136074427,True
44299,109408,0,109409,4066.0,42045.0,30080.0,0.00061,0.000976,0.000976,0.28,-1.2075,-3.5700000000000003,1.0276875,0.2859375,0.2705,1.3194062500000001,0.9915625,-0.22046875,-0.22190625,1.2843125,0.02090819361206624,0.020328963580230192,True
44300,109409,0,109410,4066.0,42043.0,30079.0,-0.001037,0.000549,0.0018909999999999999,0.29750000000000004,-1.2075,-3.5700000000000003,1.0144375,0.28459375,0.271125,1.31934375,0.9944375,-0.2204375,-0.22818750000000002,1.2886250000000001,0.020851450350556223,0.02060874343159182,True
44301,109410,0,109411,4065.0,42045.0,30078.0,-0.000488,-0.000366,0.001464,0.4025,-1.225,-3.6225000000000005,1.02675,0.28940625000000003,0.27203125,1.319,0.9946875000000001,-0.22175,-0.22668750000000001,1.2961562500000001,0.021103192378750503,0.020585511329190172,True
44302,109411,0,109412,4066.0,42045.0,30083.0,0.000366,0.0011589999999999999,0.000183,0.4025,-1.4700000000000002,-3.6575,1.02584375,0.28534375,0.27171875,1.3238125,0.99375,-0.21840625,-0.22896875,1.3021875,0.020800295229996813,0.020664829162405023,True
44303,109412,0,109413,4066.0,42047.0,30081.0,0.000793,-0.000122,0.000305,0.17500000000000002,-1.2600000000000002,-3.6400000000000006,1.02275,0.28659375,0.27015625,1.3255000000000001,0.99375,-0.21828125,-0.2259375,1.29959375,0.020846855100421297,0.020477793687034816,True
44304,109413,0,109414,4066.0,42044.0,30081.0,0.000122,-0.001586,0.000305,0.17500000000000002,-1.0325000000000002,-3.5700000000000003,1.0280625,0.28678125,0.27087500000000003,1.30878125,0.98965625,-0.21803125,-0.225625,1.295875,0.02084448957840039,0.02049482727483811,True
44305,109414,0,109415,4068.0,42047.0,30083.0,-0.001098,-0.00042699999999999997,-0.00122,0.22750000000000004,-1.1375000000000002,-3.4650000000000003,1.0315,0.2848125,0.27137500000000003,1.31965625,0.9950625000000001,-0.22128125,-0.2251875,1.29503125,0.020894590371845007,0.020497777364984274,True
44306,109415,0,109416,4067.0,42048.0,30084.0,0.000183,0.000976,-0.0006709999999999999,0.3325,-1.225,-3.4650000000000003,1.02534375,0.28334375,0.2686875,1.3195937500000001,0.99021875,-0.2176875,-0.22178125,1.29934375,0.02068864956656163,0.0202490785024326,True
44307,109416,0,109417,4067.0,42048.0,30083.0,-0.0013419999999999999,0.0018909999999999999,-0.000732,0.1925,-1.4875,-3.4650000000000003,1.02140625,0.286375,0.26815625,1.33115625,0.994375,-0.2176875,-0.2258125,1.28475,0.020813816348072042,0.020390182991798518,True
44308,109417,0,109418,4067.0,42049.0,30085.0,-0.000244,0.000732,-0.000366,0.21000000000000002,-1.5050000000000001,-3.6400000000000006,1.03484375,0.28725,0.27209375,1.31834375,1.0018125,-0.21675,-0.22578125000000002,1.296,0.02081204125243891,0.02055145280402464,True
44309,109418,0,109419,4068.0,42049.0,30087.0,-0.001281,-0.0013419999999999999,-0.000549,0.22750000000000004,-1.4175000000000002,-3.6750000000000003,1.03621875,0.28171875,0.26840625,1.31746875,0.9928750000000001,-0.2209375,-0.22925,1.29875,0.020752964248390467,0.020539482237378375,True
44310,109419,0,109420,4067.0,42049.0,30087.0,-0.000549,0.002623,0.000976,0.43750000000000006,-1.435,-3.6925000000000003,1.02115625,0.2853125,0.27253125,1.31340625,0.99103125,-0.22128125,-0.22693750000000001,1.28959375,0.020915233375608487,0.020616256181781128,True
44311,109420,0,109421,4067.0,42050.0,30088.0,0.001586,0.002257,0.0018909999999999999,0.45500000000000007,-1.4175000000000002,-3.6225000000000005,1.03646875,0.28440625,0.27415625,1.31715625,0.9933125,-0.2190625,-0.22859375,1.295125,0.020788118862982412,0.020750275694395182,True
44312,109421,0,109422,4067.0,42049.0,30087.0,0.0017079999999999999,0.001037,-0.000549,0.45500000000000007,-1.715,-3.6400000000000006,1.025125,0.28384375,0.27284375,1.316,0.9946875000000001,-0.21865625,-0.22778125000000002,1.29509375,0.020748467413422244,0.02066326234475144,True
44313,109422,0,109423,4066.0,42050.0,30088.0,0.00183,-0.002074,-0.0018909999999999999,0.45500000000000007,-1.9250000000000003,-3.7625,1.0368125,0.28659375,0.2716875,1.32065625,0.99453125,-0.21846875000000002,-0.21971875000000002,1.2923437500000001,0.020854435728931045,0.020289511000205155,True
44314,109423,0,109424,4066.0,42051.0,30090.0,0.003965,-0.003172,-0.0013419999999999999,0.28,-1.3825,-3.6575,1.02928125,0.28775,0.2715,1.33071875,0.99509375,-0.21953125,-0.22571875,1.29528125,0.020945130802232186,0.020524416845217445,True
44315,109424,0,109425,4067.0,42051.0,30090.0,-0.0028669999999999998,-6.1e-05,0.000915,0.45500000000000007,-1.2950000000000002,-3.6925000000000003,1.0226875,0.28059375000000003,0.27290625,1.3195000000000001,0.9988750000000001,-0.21546875000000001,-0.22209375,1.2960625000000001,0.020485356080501234,0.02043588820640247,True
44316,109425,0,109426,4066.0,42050.0,30090.0,-0.005978,0.000305,0.00244,0.525,-1.33,-3.5525,1.0326875,0.28734375,0.2705,1.32675,0.99765625,-0.21775,-0.2258125,1.29703125,0.02085634503618214,0.020486928972970466,True
44317,109426,0,109427,4066.0,42052.0,30090.0,-0.0032329999999999998,0.0013419999999999999,0.0034159999999999998,0.525,-1.33,-3.5000000000000004,1.0235,0.285875,0.27096875,1.321125,0.9979687500000001,-0.21775,-0.22559375,1.29890625,0.020795697370730146,0.02049743362843274,True
44318,109427,0,109428,4064.0,42051.0,30088.0,-0.000244,0.000122,0.000915,0.4025,-1.7675,-3.5525,1.02475,0.28665625,0.2695,1.32403125,0.9941562500000001,-0.2176875,-0.22584375,1.2986875,0.020825429760789504,0.020446914258662303,True
44319,109428,0,109429,4062.0,42048.0,30087.0,0.0011589999999999999,-0.00042699999999999997,-0.00183,0.3325,-2.3975000000000004,-3.7100000000000004,1.0245,0.28640625000000003,0.2713125,1.3248125,0.99803125,-0.21778125,-0.224875,1.2958125,0.020818897272019913,0.020482561829524404,True
44320,109429,0,109430,4062.0,42050.0,30087.0,0.005063,-0.001464,-0.002196,0.17500000000000002,-2.345,-3.6925000000000003,1.0346250000000001,0.2879375,0.27146875,1.3239375,0.9909687500000001,-0.21884375,-0.22628125000000002,1.2903125,0.020925080290011777,0.020545868962038902,True
44321,109430,0,109431,4059.0,42051.0,30085.0,0.003355,0.000366,-0.002745,0.2625,-2.31,-3.6925000000000003,1.03303125,0.2873125,0.27071875,1.32053125,1.003625,-0.2205625,-0.2263125,1.29484375,0.020968753306204183,0.02051617430428176,True
44322,109431,0,109432,4059.0,42048.0,30083.0,0.0037819999999999998,0.000122,-0.000732,0.28,-1.8725000000000003,-3.535,1.032875,0.285625,0.271125,1.3198125,1.00603125,-0.21481250000000002,-0.22128125,1.29084375,0.02066658579330317,0.02032948814381981,True
44323,109432,0,109433,4057.0,42049.0,30081.0,0.001769,-0.00061,0.000915,0.3325,-1.6450000000000002,-3.5875000000000004,1.02234375,0.284125,0.272375,1.32,1.02078125,-0.22740625,-0.22134375,1.27625,0.021113743861871304,0.020383623431297036,True
44324,109433,0,109434,4055.0,42045.0,30081.0,-0.001037,-0.000793,-0.001037,0.36750000000000005,-1.7325000000000002,-3.7100000000000004,1.0327187500000001,0.28534375,0.271125,1.31965625,0.9968125,-0.2188125,-0.2208125,1.28571875,0.020816720472979423,0.02031052839371099,True
44325,109434,0,109435,4053.0,42046.0,30081.0,-0.002928,0.003111,0.001281,0.35000000000000003,-1.33,-3.7625,1.02975,0.28640625000000003,0.271125,1.32025,0.997,-0.22009375,-0.2191875,1.289125,0.020912388086854538,0.020244795577886335,True
44326,109435,0,109436,4052.0,42044.0,30080.0,-0.0044529999999999995,0.001647,0.000305,0.36750000000000005,-1.1375000000000002,-3.5875000000000004,1.0283125,0.28509375,0.2719375,1.32009375,1.0130000000000001,-0.22693750000000001,-0.2224375,1.28540625,0.02113479056112643,0.020409795669820593,True
44327,109436,0,109437,4049.0,42050.0,30079.0,-0.0035989999999999998,0.000793,0.000244,0.35000000000000003,-0.77,-3.5875000000000004,1.026,0.28321875,0.2685,1.32009375,0.98659375,-0.22771875,-0.2330625,1.2840625,0.021088964473801316,0.02069744589648956,True
44328,109437,0,109438,4049.0,42045.0,30076.0,-0.0011589999999999999,-0.000305,0.002074,0.35000000000000003,-0.5950000000000001,-3.535,1.0258125,0.2871875,0.2705625,1.3234062500000001,0.9823437500000001,-0.21428125,-0.22884375,1.3124375,0.020709627711952013,0.020612054588861676,True
44329,109438,0,109439,4049.0,42044.0,30076.0,-0.002196,-0.001037,0.0013419999999999999,0.29750000000000004,-0.9800000000000001,-3.5875000000000004,1.0321875,0.28559375,0.27125,1.3200625,1.01728125,-0.22215625,-0.22115625,1.2866250000000001,0.020962213056486243,0.020329593059786318,True
44330,109439,0,109440,4046.0,42046.0,30078.0,-0.000122,-0.001037,0.001281,0.29750000000000004,-1.3650000000000002,-3.5700000000000003,1.02578125,0.2870625,0.27234375,1.3246875,0.98859375,-0.21515625,-0.2334375,1.31321875,0.020739851719932634,0.020871213586599092,True
44331,109440,0,109441,4045.0,42045.0,30076.0,0.001098,-0.000976,0.000549,0.385,-1.6625,-3.6575,1.02884375,0.2866875,0.27065625,1.31878125,0.99784375,-0.214,-0.22121875,1.288,0.020677603865532336,0.02030760735357299,True
44332,109441,0,109442,4044.0,42044.0,30075.0,0.00061,0.000549,-0.00183,0.385,-2.0650000000000004,-3.8850000000000002,1.03334375,0.2838125,0.2695,1.3136875000000001,0.9976875000000001,-0.22671875,-0.22759375,1.291125,0.021073066281417082,0.020517669031824507,True
44333,109442,0,109443,4044.0,42046.0,30078.0,0.004941,0.000976,-0.0013419999999999999,0.3325,-1.995,-4.025,1.02625,0.2868125,0.27040625,1.319125,0.9925625,-0.2146875,-0.22346875,1.292375,0.02071057080542543,0.020388285637250033,True
44334,109443,0,109444,4043.0,42045.0,30076.0,0.004026,0.000732,-0.000793,0.3325,-1.6800000000000002,-3.9200000000000004,1.03428125,0.28384375,0.27046875,1.324125,0.9915,-0.21828125,-0.22946875,1.30146875,0.02073330451557127,0.020633448680132536,True
44335,109444,0,109445,4041.0,42045.0,30077.0,-6.1e-05,-0.000732,-0.002013,0.5075000000000001,-1.2600000000000002,-3.7100000000000004,1.026875,0.28771875,0.27084375,1.31903125,1.0013750000000001,-0.21984375,-0.22571875,1.289875,0.020956472933480425,0.020497327865659304,True
44336,109445,0,109446,4039.0,42044.0,30074.0,-0.0021349999999999997,-0.000122,0.000549,0.385,-1.2950000000000002,-3.7275000000000005,1.0269375,0.28400000000000003,0.27034375,1.3235625,1.002,-0.21978125,-0.228375,1.30184375,0.020800404627931975,0.02058407755369479,True
44337,109446,0,109447,4038.0,42044.0,30077.0,-0.002989,0.001037,0.000244,0.4025,-1.435,-3.8150000000000004,1.0290625,0.28684375,0.27028125000000003,1.32025,0.98753125,-0.22053125,-0.22615625,1.2965312500000001,0.02094813671768657,0.020491797992097903,True
44338,109447,0,109448,4038.0,42045.0,30076.0,-0.001464,0.001769,0.000732,0.42000000000000004,-1.4700000000000002,-3.8325000000000005,1.02759375,0.2848125,0.26965625,1.32325,0.9946875000000001,-0.21121875,-0.22634375,1.3036875,0.02048766132436022,0.020473580541843006,True
44339,109448,0,109449,4036.0,42044.0,30078.0,0.0,-0.000976,0.0013419999999999999,0.31500000000000006,-1.6275000000000002,-3.7275000000000005,1.0308125000000001,0.28721875,0.27140625,1.3200625,1.00134375,-0.21421875,-0.2280625,1.2963125,0.02070839060211265,0.020615298891523002,True
44340,109449,0,109450,4037.0,42044.0,30076.0,-0.000366,-0.000488,0.000732,0.29750000000000004,-1.8550000000000002,-3.9025000000000003,1.0268125000000001,0.285625,0.27096875,1.31828125,0.98190625,-0.21865625,-0.22696875,1.30315625,0.020822016085223556,0.020553025231437587,True
44341,109450,0,109451,4034.0,42044.0,30077.0,0.002196,-0.0011589999999999999,0.00061,0.15750000000000003,-1.715,-3.8150000000000004,1.0265,0.286875,0.27084375,1.3285,0.99465625,-0.2173125,-0.2264375,1.29209375,0.020819300242336965,0.02052638775304871,True
44342,109451,0,109452,4034.0,42041.0,30077.0,0.0023179999999999997,-0.000549,0.0,0.4025,-1.4525000000000001,-3.8675,1.02234375,0.28678125,0.27065625,1.3381875,1.002125,-0.2204375,-0.2251875,1.2963125,0.020941766638195535,0.020468107831982725,True
44343,109452,0,109453,4034.0,42043.0,30076.0,-0.000732,0.00042699999999999997,-0.001403,0.49000000000000005,-1.7675,-3.9025000000000003,1.02384375,0.29034375,0.2695,1.33878125,1.002375,-0.2201875,-0.2259375,1.295625,0.021078748874260363,0.02045070495207874,True
44344,109453,0,109454,4033.0,42044.0,30076.0,0.000488,-0.000183,0.000244,0.4025,-1.6275000000000002,-3.7275000000000005,1.0287187500000001,0.28796875,0.27028125000000003,1.3334375,0.99715625,-0.2194375,-0.2256875,1.29671875,0.020950373021669064,0.020472845197891703,True
44345,109454,0,109455,4032.0,42042.0,30075.0,0.000244,-0.000549,0.001586,0.35000000000000003,-1.61,-3.7100000000000004,1.02146875,0.2895625,0.2745,1.3274375,1.00278125,-0.22025,-0.2248125,1.29678125,0.021049018899474612,0.020611614640980196,True
44346,109455,0,109456,4031.0,42043.0,30075.0,0.000732,-0.000366,0.000305,0.36750000000000005,-1.6800000000000002,-3.8150000000000004,1.02975,0.2858125,0.27868750000000003,1.314,0.9953125,-0.21937500000000001,-0.22859375,1.3014375,0.020858816546669764,0.020937296453699464,True
44347,109456,0,109457,4029.0,42042.0,30076.0,0.0006709999999999999,0.000366,-0.000305,0.385,-1.6975000000000002,-3.6575,1.04190625,0.28265625,0.26696875000000003,1.31625,0.99459375,-0.21815625,-0.2275,1.3028125,0.020679216651763074,0.02040940047466722,True
44348,109457,0,109458,4030.0,42042.0,30077.0,0.001037,0.000732,-0.001037,0.42000000000000004,-1.7325000000000002,-3.5525,1.0199375,0.28940625000000003,0.2718125,1.322,1.00259375,-0.21790625,-0.22603125000000002,1.29646875,0.020947826569441778,0.020549950788988604,True
44349,109458,0,109459,4029.0,42043.0,30076.0,0.00042699999999999997,-0.000793,0.000488,0.28,-1.4000000000000001,-3.6225000000000005,1.0428125,0.285625,0.274,1.3082500000000001,0.994375,-0.217375,-0.22890625,1.29946875,0.02077021147007056,0.020756456969657885,True
44350,109459,0,109460,4027.0,42044.0,30074.0,-0.002196,-0.00042699999999999997,-0.000793,0.21000000000000002,-1.5575,-3.7100000000000004,1.01975,0.28725,0.2641875,1.33409375,1.001125,-0.21784375,-0.2260625,1.29665625,0.020856264298922154,0.02023647053663797,True
44351,109460,0,109461,4026.0,42043.0,30076.0,-0.001098,0.0008539999999999999,-0.00061,0.2625,-1.2600000000000002,-3.6750000000000003,1.0396875,0.28421875,0.26887500000000003,1.33103125,0.99503125,-0.22090625,-0.23034375,1.2953125,0.020854917433157566,0.020603040351006165,True
44352,109461,0,109462,4026.0,42040.0,30074.0,-0.000976,0.001281,-0.000305,0.31500000000000006,-1.0325000000000002,-3.6225000000000005,1.039875,0.28325,0.2691875,1.33309375,0.995125,-0.217875,-0.2231875,1.29571875,0.020692360498185743,0.02032659822329328,True
44353,109462,0,109463,4026.0,42042.0,30076.0,-0.002013,0.000305,0.0,0.4025,-1.1900000000000002,-3.5700000000000003,1.0381562500000001,0.2838125,0.27240625,1.3264375,0.9927812500000001,-0.20990625000000002,-0.22575,1.2964375000000001,0.02039325327829388,0.020563088862057936,True
44354,109463,0,109464,4024.0,42043.0,30076.0,-0.000732,6.1e-05,-0.0013419999999999999,0.31500000000000006,-1.5225000000000002,-3.6750000000000003,1.0339375,0.28925,0.27125,1.3194375,0.98109375,-0.21765625,-0.22153125,1.29609375,0.02093126786370997,0.02034476040815958,True
44355,109464,0,109465,4023.0,42039.0,30074.0,0.0030499999999999998,0.000366,0.001098,0.22750000000000004,-1.2425000000000002,-3.6750000000000003,1.02265625,0.2875625,0.2705625,1.3197812500000001,0.99475,-0.213875,-0.22590625,1.2963437500000001,0.02070868458683296,0.02049329939927428,True
44356,109465,0,109466,4022.0,42041.0,30075.0,0.0042699999999999995,0.0006709999999999999,0.0013419999999999999,0.36750000000000005,-1.2425000000000002,-3.6925000000000003,1.02625,0.28703125,0.27,1.32553125,0.99634375,-0.21940625,-0.22796875,1.2896875,0.020910401137517565,0.020553466744916454,True
44357,109466,0,109467,4020.0,42040.0,30076.0,0.000122,-0.00042699999999999997,0.00122,0.45500000000000007,-1.3475000000000001,-3.7800000000000002,1.02684375,0.2866875,0.27103125,1.3196875000000001,0.9953125,-0.21371875,-0.22696875,1.2968125,0.020666228726225703,0.020555605001141546,True
44358,109467,0,109468,4021.0,42042.0,30076.0,-0.000549,-0.000915,-0.00061,0.31500000000000006,-1.2950000000000002,-3.7975000000000003,1.026375,0.28784375,0.2713125,1.3208125,0.9949687500000001,-0.21784375,-0.2255625,1.30146875,0.020880781345366476,0.02051035966657121,True
44359,109468,0,109469,4021.0,42042.0,30076.0,0.000488,0.000793,0.000244,0.29750000000000004,-1.1725,-3.6225000000000005,1.0205312500000001,0.288125,0.27028125000000003,1.31525,0.9978750000000001,-0.21715625,-0.22609375,1.29540625,0.020864598831665054,0.020489270995246604,True
44360,109469,0,109470,4021.0,42040.0,30077.0,-0.00042699999999999997,0.000976,0.001037,0.24500000000000002,-1.33,-3.6575,1.0259375,0.28646875,0.26984375,1.325375,0.99475,-0.2163125,-0.22696875,1.30453125,0.020762089603856903,0.020506589376766336,True
44361,109470,0,109471,4018.0,42039.0,30074.0,-0.000732,-0.000488,-0.0006709999999999999,0.24500000000000002,-1.33,-3.6750000000000003,1.02628125,0.28784375,0.26903125,1.3255625,1.0016875,-0.217,-0.2254375,1.294,0.02084666763017715,0.020411138085741486,True
44362,109471,0,109472,4018.0,42039.0,30078.0,-0.0013419999999999999,-0.000915,-0.000244,0.29750000000000004,-1.3475000000000001,-3.6400000000000006,1.0265625,0.28575,0.26915625,1.3093125,0.9987812500000001,-0.2156875,-0.22703125000000002,1.3039687500000001,0.02070713457959845,0.020480738844137168,True
44363,109472,0,109473,4017.0,42042.0,30077.0,0.000122,0.0,0.001403,0.3325,-1.1025,-3.5175000000000005,1.02621875,0.28621875,0.27165625,1.320625,0.995375,-0.21696875000000002,-0.22846875,1.2966875,0.020778302404176822,0.020642039130103915,True
44364,109473,0,109474,4018.0,42042.0,30077.0,-0.001403,0.000488,0.000549,0.29750000000000004,-1.0850000000000002,-3.6750000000000003,1.0327187500000001,0.286125,0.2703125,1.31925,0.995125,-0.21987500000000001,-0.22634375,1.296875,0.020891932761833,0.020500668822549833,True
44365,109474,0,109475,4017.0,42043.0,30081.0,-0.00244,-0.000183,-0.001098,0.31500000000000006,-1.2425000000000002,-3.6925000000000003,1.01884375,0.285875,0.2693125,1.31971875,0.99528125,-0.2173125,-0.22821875,1.3026875,0.02077800746883041,0.02053519720676948,True
44366,109475,0,109476,4017.0,42040.0,30080.0,-0.001952,-0.000244,-0.002196,0.28,-1.5925000000000002,-3.7275000000000005,1.02740625,0.291625,0.2673125,1.3268125,0.9975,-0.216875,-0.2226875,1.30278125,0.020997754664877282,0.020228969225648475,True
44367,109476,0,109477,4015.0,42042.0,30080.0,0.000366,-0.000183,-0.000183,0.35000000000000003,-1.6275000000000002,-3.7625,1.0261875,0.286375,0.26878125,1.322125,0.9951562500000001,-0.21509375,-0.22640625,1.3018750000000001,0.02070893283244051,0.02043998993866455,True
44368,109477,0,109478,4016.0,42041.0,30082.0,0.003355,0.00042699999999999997,-0.000732,0.28,-1.4875,-3.6225000000000005,1.0295,0.28778125,0.27040625,1.32153125,1.0000625,-0.21875,-0.2263125,1.2961562500000001,0.02091483870967742,0.02050327510635389,True
44369,109478,0,109479,4015.0,42040.0,30077.0,0.0018909999999999999,0.000366,0.000305,0.28,-1.6800000000000002,-3.7100000000000004,1.0318125,0.28771875,0.26846875,1.3159375,1.00228125,-0.217,-0.2244375,1.3016875,0.020841505966882768,0.02034747968864086,True
44370,109479,0,109480,4016.0,42042.0,30078.0,0.002562,0.0,0.0018909999999999999,0.24500000000000002,-1.33,-3.6225000000000005,1.01853125,0.28546875,0.2709375,1.3105625,0.9951562500000001,-0.21728125,-0.22809375,1.301625,0.020759968669067673,0.02059721475198601,True
44371,109480,0,109481,4013.0,42039.0,30078.0,0.001952,-0.001769,0.0025009999999999998,0.17500000000000002,-1.1025,-3.5700000000000003,1.0315,0.28584375,0.271125,1.3216875000000001,0.9947812500000001,-0.22003125,-0.2255625,1.2960625000000001,0.020886636965012174,0.020502619908206468,True
44372,109481,0,109482,4013.0,42039.0,30078.0,-0.001647,-0.001037,-0.000122,0.2625,-1.12,-3.6750000000000003,1.02740625,0.28778125,0.27125,1.32365625,1.00053125,-0.21646875000000002,-0.2255625,1.30146875,0.020822606516484776,0.020507779747116296,True
44373,109482,0,109483,4013.0,42040.0,30078.0,-0.002562,0.0011589999999999999,-0.001403,0.29750000000000004,-1.1025,-3.5525,1.0270625,0.28765625,0.271,1.3199687500000001,1.00184375,-0.2166875,-0.22603125000000002,1.30565625,0.020826289722737677,0.020516412485020636,True
44374,109483,0,109484,4013.0,42042.0,30081.0,-0.0032329999999999998,0.000549,0.000183,0.22750000000000004,-0.8225000000000001,-3.535,1.0271875,0.2860625,0.27075,1.3205,0.9948125,-0.21671875000000002,-0.22846875,1.3003125,0.020761741307335452,0.020604634785266814,True
44375,109484,0,109485,4013.0,42041.0,30079.0,-0.0018909999999999999,0.0008539999999999999,-0.0006709999999999999,0.28,-0.9625000000000001,-3.5700000000000003,1.02646875,0.28809375,0.26915625,1.32075,0.99534375,-0.21671875000000002,-0.22918750000000002,1.30703125,0.020845619310006648,0.020567910087781523,True
44376,109485,0,109486,4013.0,42039.0,30079.0,-0.00122,-0.000183,-0.000488,0.24500000000000002,-0.8925000000000001,-3.5700000000000003,1.0268125000000001,0.28746875,0.26996875,1.3205,0.9939687500000001,-0.215875,-0.22684375,1.3062500000000001,0.02078569326939456,0.02050669518186825,True
44377,109486,0,109487,4012.0,42042.0,30079.0,0.000549,-0.000488,-0.000183,0.29750000000000004,-1.1025,-3.5700000000000003,1.0269062500000001,0.28784375,0.2675625,1.3131875,0.992625,-0.2159375,-0.22653125000000002,1.3063125,0.020803706236853316,0.020394737690729043,True
44378,109487,0,109488,4012.0,42041.0,30080.0,-0.00061,-0.000244,-6.1e-05,0.3325,-1.2075,-3.6575,1.02621875,0.27896875,0.27121875,1.32246875,0.9914375,-0.21131250000000001,-0.2283125,1.2939687500000001,0.020250089704967462,0.020617665799052245,True
44379,109488,0,109489,4011.0,42043.0,30080.0,0.000793,0.000183,0.000488,0.3325,-1.3475000000000001,-3.6925000000000003,1.0326250000000001,0.28984375,0.26578125,1.32690625,0.99321875,-0.21887500000000001,-0.22446875,1.29378125,0.02100505287714644,0.020237801912580643,True
44380,109489,0,109490,4011.0,42041.0,30081.0,0.002745,-0.000305,-0.000793,0.4025,-1.54,-3.6925000000000003,1.016125,0.27703125,0.2740625,1.3111875,1.0026875,-0.21621875000000002,-0.22628125000000002,1.30759375,0.020368580458086587,0.02065293244294355,True
44381,109490,0,109491,4011.0,42041.0,30081.0,0.002013,0.000366,-0.000488,0.4025,-1.8550000000000002,-3.8150000000000004,1.01278125,0.275,0.27278125000000003,1.3089375,0.9995625,-0.21484375,-0.2280625,1.30384375,0.02022906920471044,0.020672051262869248,True
44382,109491,0,109492,4011.0,42040.0,30080.0,0.003294,0.001098,-0.000244,0.525,-1.8200000000000003,-3.7975000000000003,1.03821875,0.27871875,0.2755625,1.31840625,0.992375,-0.21640625,-0.22809375,1.29409375,0.02044584959834823,0.020788108845748544,True
44383,109492,0,109493,4009.0,42040.0,30079.0,0.002196,0.0011589999999999999,0.001037,0.47250000000000003,-1.4700000000000002,-3.7100000000000004,1.03678125,0.29131250000000003,0.2660625,1.3190625,0.992625,-0.22215625,-0.22440625,1.30440625,0.021198308883008714,0.020246884276059397,True
44384,109493,0,109494,4008.0,42038.0,30080.0,-0.000549,-0.003904,-0.001586,0.31500000000000006,-0.77,-3.7100000000000004,1.0147187500000001,0.2790625,0.2755,1.309,1.0025,-0.21559375,-0.22696875,1.3038750000000001,0.020427178251617308,0.020740058534974584,True
44385,109494,0,109495,4009.0,42040.0,30080.0,-0.0006709999999999999,-0.001647,0.000244,0.29750000000000004,-0.8225000000000001,-3.6750000000000003,1.0351875,0.2800625,0.27590625,1.3354375,0.99290625,-0.2165,-0.229,1.294375,0.02050513079924845,0.02083892236576004,True
44386,109495,0,109496,4010.0,42040.0,30080.0,0.0008539999999999999,0.000976,0.000488,0.4025,-0.6475000000000001,-3.6750000000000003,1.03521875,0.29131250000000003,0.269625,1.3365,0.98778125,-0.2178125,-0.22503125000000002,1.29528125,0.02102274926771359,0.020419220305443363,True
44387,109496,0,109497,4008.0,42040.0,30081.0,0.0015249999999999999,0.001586,0.001647,0.47250000000000003,-0.5075000000000001,-3.6750000000000003,1.02340625,0.28628125,0.262375,1.3099375,1.00059375,-0.20834375,-0.22275,1.3039687500000001,0.020432004977622643,0.020027659947776368,True
44388,109497,0,109498,4009.0,42040.0,30083.0,-0.0013419999999999999,0.000183,0.002562,0.47250000000000003,-0.6475000000000001,-3.6575,1.0383437500000001,0.28596875,0.2755625,1.3370312500000001,0.9954375,-0.218125,-0.2250625,1.29721875,0.020814730702727813,0.02066558135814923,True
44389,109498,0,109499,4009.0,42038.0,30082.0,-0.00488,-0.001769,0.0,0.28,-0.9100000000000001,-3.7275000000000005,1.0221875,0.29103125,0.2709375,1.32571875,1.00184375,-0.21696875000000002,-0.22615625,1.2965,0.020977026697447426,0.020518886482456335,True
44390,109499,0,109500,4008.0,42038.0,30083.0,-0.003477,0.000122,0.0008539999999999999,0.24500000000000002,-1.1375000000000002,-3.6225000000000005,1.03096875,0.29253125,0.2765625,1.3255937500000001,1.002125,-0.218125,-0.2245625,1.296,0.02108570543755968,0.020686648107679964,True
44391,109500,0,109501,4011.0,42041.0,30082.0,-0.002074,0.002989,0.000549,0.28,-1.3475000000000001,-3.5525,1.03178125,0.29140625000000003,0.26853125,1.32125,1.0010937500000001,-0.21728125,-0.22575,1.3014375,0.021005144828137968,0.02040313509385674,True
44392,109501,0,109502,4008.0,42039.0,30083.0,-0.001464,0.003721,-0.00122,0.36750000000000005,-1.8900000000000001,-3.5875000000000004,1.02640625,0.28903125,0.271625,1.3135000000000001,0.98459375,-0.2173125,-0.22765625,1.2965312500000001,0.02090833778521048,0.02060790547992029,True
44393,109502,0,109503,4007.0,42039.0,30083.0,0.0035989999999999998,0.003172,-0.0034159999999999998,0.4025,-2.2750000000000004,-3.6400000000000006,1.0347187500000001,0.28865625,0.27037500000000003,1.32475,1.00259375,-0.21846875000000002,-0.22659375,1.3050625,0.020939598008234937,0.020513356319437192,True
44394,109503,0,109504,4008.0,42040.0,30084.0,0.0053679999999999995,-0.002257,-0.001464,0.24500000000000002,-1.8375000000000001,-3.6400000000000006,1.0267187500000001,0.28584375,0.2705,1.317125,0.9951562500000001,-0.2173125,-0.2290625,1.29746875,0.020776717069658328,0.02061831736163956,True
44395,109504,0,109505,4006.0,42039.0,30083.0,0.000183,-0.000976,-0.000183,0.36750000000000005,-1.5925000000000002,-3.6575,1.02703125,0.2915,0.27071875,1.31625,0.9948125,-0.21625,-0.227375,1.30290625,0.020967325659422907,0.02055912990986436,True
44396,109505,0,109506,4007.0,42041.0,30082.0,-0.000732,-0.001586,0.001586,0.3325,-0.9975,-3.5700000000000003,1.023875,0.28821875,0.27125,1.32403125,1.0015625,-0.21621875000000002,-0.22621875,1.29621875,0.02083056422671273,0.020534312644229714,True
44397,109506,0,109507,4005.0,42040.0,30083.0,-0.003294,-0.000549,0.0018909999999999999,0.35000000000000003,-0.8575,-3.4825000000000004,1.0323125,0.28575,0.27153125,1.32021875,0.99371875,-0.21925,-0.22525,1.2973125,0.020851182427201503,0.020506754316260926,True
44398,109507,0,109508,4005.0,42042.0,30081.0,-0.0055509999999999995,-0.000305,0.001464,0.4025,-1.1900000000000002,-3.5525,1.02771875,0.28415625,0.26946875,1.3240625,0.99565625,-0.21903125,-0.22671875,1.29628125,0.020776532917682246,0.020481003024811192,True
44399,109508,0,109509,4004.0,42040.0,30080.0,-0.000915,-0.002379,-0.000183,0.2625,-1.7675,-3.5525,1.02703125,0.28946875,0.272125,1.3272187500000001,0.9965625,-0.21515625,-0.22621875,1.3028125,0.02083922130380637,0.020570430538195315,True
44400,109509,0,109510,4002.0,42041.0,30080.0,0.001403,-0.001403,-0.000915,0.2625,-2.205,-3.6050000000000004,1.03240625,0.2885625,0.27240625,1.32484375,1.0035,-0.21331250000000002,-0.22668750000000001,1.299125,0.0207272342435592,0.020600990127106728,True
44401,109510,0,109511,4002.0,42038.0,30077.0,0.0040869999999999995,0.0011589999999999999,-0.002379,0.24500000000000002,-2.5375,-3.7625,1.03,0.288375,0.27134375,1.32209375,1.000375,-0.21609375,-0.22209375,1.29559375,0.020831962215210702,0.020371380983528725,True
44402,109511,0,109512,4000.0,42038.0,30075.0,0.005307,0.002074,-0.000244,0.3325,-2.3275,-3.8150000000000004,1.03278125,0.28603125,0.27146875,1.32028125,0.99534375,-0.21790625,-0.224875,1.29659375,0.020808466875620185,0.020489011811206454,True
44403,109512,0,109513,3998.0,42040.0,30076.0,0.0008539999999999999,0.0008539999999999999,0.000488,0.45500000000000007,-1.9075000000000002,-3.7975000000000003,1.03440625,0.2858125,0.27175,1.32021875,0.9890625000000001,-0.2184375,-0.22884375,1.2965312500000001,0.02082091381824282,0.020661066420059767,True
44404,109513,0,109514,3994.0,42036.0,30072.0,-0.001403,0.00122,0.000305,0.385,-1.4700000000000002,-3.7100000000000004,1.02759375,0.28675,0.26953125,1.32053125,0.9951875,-0.21821875000000002,-0.2273125,1.295875,0.020850779952592508,0.020507588284916042,True
44405,109514,0,109515,3995.0,42035.0,30072.0,-0.0040869999999999995,0.000366,-0.000305,0.385,-1.225,-3.6925000000000003,1.026125,0.2853125,0.269625,1.32109375,0.9950625000000001,-0.2164375,-0.229125,1.29646875,0.020719397723137436,0.02058473015430809,True
44406,109515,0,109516,3990.0,42032.0,30070.0,-0.0035989999999999998,-0.000122,0.0006709999999999999,0.45500000000000007,-0.9975,-3.7625,1.02734375,0.28596875,0.27190625,1.32115625,0.98178125,-0.21840625,-0.22625,1.297,0.020826102047900034,0.020562664465197875,True
44407,109516,0,109517,3989.0,42034.0,30069.0,-0.003477,-0.000488,0.001586,0.36750000000000005,-1.1900000000000002,-3.8150000000000004,1.0350625,0.2881875,0.2720625,1.31990625,0.99509375,-0.2178125,-0.2249375,1.29721875,0.02089371201465863,0.02051604880301549,True
44408,109517,0,109518,3988.0,42034.0,30070.0,-0.000366,-0.0013419999999999999,-0.000244,0.31500000000000006,-1.8200000000000003,-3.8675,1.02703125,0.28640625000000003,0.27146875,1.321,0.9970625000000001,-0.2165,-0.22528125000000002,1.297125,0.020767090620031795,0.020505437888363013,True
44409,109518,0,109519,3984.0,42036.0,30069.0,0.001281,-0.00061,-0.00061,0.36750000000000005,-1.8550000000000002,-3.9375000000000004,1.0326250000000001,0.2861875,0.27246875,1.31840625,0.9990625000000001,-0.21784375,-0.2254375,1.291125,0.020812391689495474,0.02055303438792385,True
44410,109519,0,109520,3985.0,42033.0,30068.0,0.0008539999999999999,0.000366,-0.0015249999999999999,0.49000000000000005,-2.1525000000000003,-3.99,1.0330625,0.29159375,0.27087500000000003,1.3216875000000001,1.00215625,-0.21909375,-0.22087500000000002,1.2965,0.021086152325579893,0.02030273472779163,True
44411,109520,0,109521,3984.0,42036.0,30069.0,0.001037,0.000305,-0.000793,0.5075000000000001,-2.2225,-3.99,1.0326250000000001,0.28825,0.27146875,1.32715625,1.01103125,-0.21540625,-0.22465625,1.31403125,0.020799000636216872,0.02048016677223232,True
44412,109521,0,109522,3980.0,42035.0,30070.0,0.0025009999999999998,0.0006709999999999999,0.000183,0.525,-2.0650000000000004,-3.8150000000000004,1.0320625,0.2884375,0.27296875,1.32240625,0.9989687500000001,-0.2149375,-0.2273125,1.30534375,0.020787788529291064,0.02064947360546078,True
44413,109522,0,109523,3980.0,42034.0,30069.0,0.003294,0.000244,-0.00042699999999999997,0.42000000000000004,-2.0825,-3.7975000000000003,1.0338125,0.29315625,0.2716875,1.3214375,1.01253125,-0.21865625,-0.22312500000000002,1.288375,0.0211329850309098,0.020427277653069124,True
44414,109523,0,109524,3978.0,42033.0,30068.0,0.00042699999999999997,-0.001281,0.000793,0.43750000000000006,-1.9775000000000003,-3.9375000000000004,1.02771875,0.28815625,0.2710625,1.32125,0.98071875,-0.21481250000000002,-0.2264375,1.3048125,0.02077111891739818,0.020535417145009456,True
44415,109524,0,109525,3978.0,42035.0,30070.0,-0.00183,0.000183,-6.1e-05,0.42000000000000004,-1.8375000000000001,-3.8675,1.0245,0.2875625,0.26784375,1.32515625,1.0074375,-0.21715625,-0.23084375000000001,1.3103125,0.020841371496704945,0.020580690674463206,True
44416,109525,0,109526,3978.0,42034.0,30073.0,-0.002562,-0.000488,0.00042699999999999997,0.43750000000000006,-1.6975000000000002,-3.8150000000000004,1.03403125,0.2889375,0.27146875,1.31953125,1.0072812500000001,-0.2136875,-0.21953125,1.29221875,0.02075788745518418,0.020272894422760555,True
44417,109526,0,109527,3976.0,42034.0,30070.0,-0.000793,0.0017079999999999999,-0.001037,0.36750000000000005,-1.5925000000000002,-3.9025000000000003,1.03496875,0.28946875,0.27103125,1.32696875,0.99971875,-0.21334375,-0.22453125000000002,1.31346875,0.02076592581311699,0.020457052187542332,True
44418,109527,0,109528,3974.0,42032.0,30069.0,-0.000549,-0.001281,0.0013419999999999999,0.36750000000000005,-1.4175000000000002,-3.8500000000000005,1.03378125,0.28821875,0.27103125,1.32821875,1.00596875,-0.21378125,-0.2261875,1.31225,0.020731995338398458,0.020524019720395543,True
44419,109528,0,109529,3974.0,42033.0,30069.0,-0.000488,-0.002562,0.000244,0.36750000000000005,-1.6975000000000002,-3.7975000000000003,1.02778125,0.29271875,0.2690625,1.32884375,0.990375,-0.21381250000000002,-0.22775,1.31340625,0.020919103507553802,0.020505928119614904,True
44420,109529,0,109530,3973.0,42031.0,30070.0,-0.00061,-0.000976,-0.000549,0.4025,-1.8725000000000003,-3.8850000000000002,1.02846875,0.2885,0.2744375,1.328125,0.99453125,-0.21425,-0.22634375,1.3061875,0.020762567496412237,0.02067093801556415,True
44421,109530,0,109531,3972.0,42031.0,30070.0,0.00244,-0.000244,0.000244,0.31500000000000006,-1.7850000000000001,-3.8850000000000002,1.0274375,0.28821875,0.2703125,1.3254062500000001,0.996375,-0.21471875,-0.23078125,1.29746875,0.02076990879772246,0.020680049265848578,True
44422,109531,0,109532,3970.0,42030.0,30070.0,0.004026,-0.000549,0.0023179999999999997,0.36750000000000005,-1.9600000000000002,-3.7800000000000002,1.02703125,0.28800000000000003,0.26846875,1.32125,0.99084375,-0.215375,-0.22709375,1.3035,0.02078741295561188,0.020454888444884148,True
44423,109532,0,109533,3969.0,42033.0,30069.0,0.001037,0.000366,-0.00244,0.4025,-2.66,-3.9200000000000004,1.02728125,0.28825,0.26825,1.32690625,0.9941562500000001,-0.21640625,-0.22609375,1.2938125,0.02083943607445882,0.020405425451637243,True
44424,109533,0,109534,3969.0,42032.0,30070.0,0.003172,-6.1e-05,-0.001586,0.22750000000000004,-1.9775000000000003,-3.8675,1.027375,0.288375,0.27137500000000003,1.3270625,1.00359375,-0.2160625,-0.22534375,1.2883125,0.020830698632364364,0.020504095014131637,True
44425,109534,0,109535,3968.0,42032.0,30069.0,0.0028669999999999998,0.001098,0.00061,0.12250000000000001,-1.4875,-3.7625,1.03284375,0.28878125,0.2729375,1.3203125,1.00078125,-0.21875,-0.2258125,1.2961562500000001,0.020956129032258065,0.020587544793389284,True
44426,109535,0,109536,3967.0,42031.0,30069.0,-0.0006709999999999999,0.0017079999999999999,0.001403,0.1925,-1.3650000000000002,-3.6225000000000005,1.03290625,0.2859375,0.2719375,1.32084375,0.99165625,-0.21937500000000001,-0.22571875,1.29659375,0.020863977703801193,0.02054247616492287,True
44427,109536,0,109537,3966.0,42033.0,30072.0,-0.0032329999999999998,0.0018909999999999999,0.000244,0.31500000000000006,-1.4000000000000001,-3.5525,1.03328125,0.28565625,0.2709375,1.32165625,0.9949687500000001,-0.2198125,-0.22490625,1.29703125,0.02087005215255073,0.02046834546573323,True
44428,109537,0,109538,3967.0,42030.0,30069.0,-0.0050019999999999995,0.00061,-0.000183,0.31500000000000006,-1.1900000000000002,-3.6400000000000006,1.03296875,0.28575,0.27265625,1.32103125,0.9960625000000001,-0.21809375,-0.227875,1.2966875,0.02080443470081125,0.020659312878244584,True
44429,109538,0,109539,3966.0,42031.0,30071.0,-0.005978,0.000976,0.0,0.42000000000000004,-1.4875,-3.6050000000000004,1.0265312500000001,0.286875,0.26915625,1.32553125,0.995125,-0.21603125,-0.22990625,1.296,0.020767492608847703,0.020596963721227768,True
44430,109539,0,109540,3964.0,42030.0,30069.0,-0.002989,-0.000732,0.000915,0.31500000000000006,-1.6625,-3.535,1.027625,0.2885625,0.2685,1.32146875,0.9955625,-0.21615625,-0.22753125000000002,1.305125,0.02084223213582874,0.020473866894713016,True
44431,109540,0,109541,3965.0,42031.0,30069.0,0.0,-0.000976,0.001464,0.35000000000000003,-1.7850000000000001,-3.4825000000000004,1.0274375,0.2890625,0.27196875,1.32121875,0.99203125,-0.21153125,-0.228125,1.29709375,0.020675840153645795,0.020641042177221722,True
44432,109541,0,109542,3964.0,42029.0,30070.0,0.001403,0.00042699999999999997,0.000122,0.36750000000000005,-2.0650000000000004,-3.6575,1.02753125,0.28459375,0.272875,1.310875,0.9957812500000001,-0.21575,-0.229,1.2969375,0.020661914250023228,0.020713814024516074,True
44433,109542,0,109543,3964.0,42028.0,30070.0,0.0050019999999999995,-0.0017079999999999999,-0.001098,0.2625,-2.1700000000000004,-3.6575,1.03703125,0.28821875,0.27328125000000003,1.3278125,0.99521875,-0.2171875,-0.22521875,1.2975,0.02086973353119556,0.020577729561265575,True
44434,109543,0,109544,3964.0,42030.0,30069.0,0.00366,-0.002013,-0.0018909999999999999,0.28,-2.205,-3.7275000000000005,1.03128125,0.28909375,0.27025,1.32878125,1.0044375,-0.215875,-0.22521875,1.30253125,0.020852798009570166,0.020452601692193182,True
44435,109544,0,109545,3962.0,42028.0,30068.0,0.00244,0.000183,-0.002379,0.1925,-2.1350000000000002,-3.7625,1.023625,0.28846875,0.26778125,1.31878125,1.0046875,-0.21571875000000001,-0.2188125,1.3009375,0.02082067045810895,0.020091561054035992,True
44436,109545,0,109546,3960.0,42031.0,30069.0,0.00183,-6.1e-05,-0.0008539999999999999,0.28,-1.7500000000000002,-3.6225000000000005,1.0248125000000001,0.29290625,0.268,1.31871875,0.9959375,-0.21653125,-0.22646875,1.301125,0.021036765948880477,0.02041026924322184,True
44437,109546,0,109547,3962.0,42030.0,30071.0,0.002196,0.001586,0.001098,0.31500000000000006,-1.5225000000000002,-3.5175000000000005,1.03140625,0.28459375,0.27215625,1.3203125,0.99490625,-0.2168125,-0.2275,1.2974375,0.020704882197027374,0.02062351666494686,True
44438,109547,0,109548,3959.0,42031.0,30070.0,-0.002257,-0.000122,0.000305,0.4025,-1.2775,-3.7450000000000006,1.03725,0.28959375,0.27159375,1.3265,0.99575,-0.21871875000000002,-0.22540625,1.29275,0.020988414178598938,0.02051565182730424,True
44439,109548,0,109549,3961.0,42030.0,30070.0,-0.003721,-0.00122,0.00061,0.3325,-1.1025,-3.6225000000000005,1.038,0.28946875,0.27190625,1.33175,0.99903125,-0.217,-0.2251875,1.297,0.02091376925300409,0.020519707019811508,True
44440,109549,0,109550,3960.0,42030.0,30071.0,-0.005063,-6.1e-05,0.000305,0.31500000000000006,-1.155,-3.6050000000000004,1.0371875,0.28978125,0.27240625,1.32865625,1.00009375,-0.21684375,-0.225125,1.29659375,0.020920356311916164,0.020537819722292454,True
44441,109550,0,109551,3958.0,42029.0,30070.0,-0.003965,0.000976,0.0017079999999999999,0.36750000000000005,-1.2075,-3.6750000000000003,1.02790625,0.28896875,0.27059375,1.32446875,0.99846875,-0.21609375,-0.22290625,1.30003125,0.020856481033403665,0.02037327787618383,True
44442,109551,0,109552,3958.0,42030.0,30072.0,-0.000915,0.000488,0.000305,0.4025,-1.155,-3.5525,1.02509375,0.28709375,0.27028125000000003,1.318375,0.99925,-0.21503125,-0.226375,1.2996875,0.020736087218553557,0.020500642378399575,True
44443,109552,0,109553,3958.0,42031.0,30070.0,0.000915,0.000244,-0.0006709999999999999,0.28,-1.4000000000000001,-3.7800000000000002,1.0263125,0.28771875,0.27209375,1.3201875,0.99540625,-0.2166875,-0.22659375,1.2976875,0.02082887058768876,0.020584301084422985,True
44444,109553,0,109554,3955.0,42032.0,30070.0,0.0017079999999999999,-0.000793,-0.0008539999999999999,0.24500000000000002,-1.4525000000000001,-3.6400000000000006,1.0346250000000001,0.2886875,0.27115625,1.32509375,0.9975625,-0.217,-0.2263125,1.29775,0.020881508857414213,0.020534233181380784,True
44445,109554,0,109555,3956.0,42029.0,30071.0,0.001586,-0.002623,-0.000488,0.35000000000000003,-1.3825,-3.6050000000000004,1.02675,0.29240625,0.26890625,1.32109375,0.988625,-0.21509375,-0.22578125000000002,1.30465625,0.02095800269201931,0.02041987809990648,True
44446,109555,0,109556,3955.0,42028.0,30071.0,0.00061,-0.001098,0.00061,0.29750000000000004,-1.5575,-3.5875000000000004,1.02246875,0.2879375,0.27037500000000003,1.3219687500000001,0.99665625,-0.21621875000000002,-0.23146875,1.2885625,0.020818950109624364,0.020710414014833502,True
44447,109556,0,109557,3955.0,42032.0,30072.0,-0.000183,-0.000488,0.000976,0.3325,-1.715,-3.6575,1.01753125,0.28575,0.27025,1.3215625,0.996625,-0.22425,-0.2183125,1.2885,0.02105328338338648,0.02017326764612522,True
44448,109557,0,109558,3956.0,42029.0,30071.0,0.000183,0.001403,0.000732,0.3325,-1.6800000000000002,-3.6750000000000003,1.0156875,0.28603125,0.2718125,1.3210625,0.98753125,-0.22325,-0.21928125,1.28321875,0.021024480612634556,0.020276974569590083,True
44449,109558,0,109559,3953.0,42027.0,30072.0,0.000732,0.00061,6.1e-05,0.36750000000000005,-1.6450000000000002,-3.6050000000000004,1.03384375,0.2890625,0.275875,1.3271875,1.0170625,-0.2166875,-0.22221875,1.31071875,0.020884359184136975,0.020563506388117315,True
44450,109559,0,109560,3955.0,42029.0,30075.0,-0.000244,0.0006709999999999999,-0.000244,0.385,-1.6975000000000002,-3.5000000000000004,1.03325,0.28859375,0.2725,1.3235625,1.00246875,-0.21071875,-0.2178125,1.31021875,0.020623613249813162,0.02024594500432275,True
44451,109560,0,109561,3954.0,42028.0,30074.0,-0.000549,-0.000488,0.000122,0.42000000000000004,-2.0475000000000003,-3.4825000000000004,1.035375,0.2889375,0.271,1.32653125,1.0095625,-0.2111875,-0.227,1.317,0.020656772824546504,0.020555578486812234,True
44452,109561,0,109562,3954.0,42030.0,30075.0,0.00042699999999999997,-0.000366,-0.0008539999999999999,0.4025,-2.205,-3.6225000000000005,1.0270625,0.28984375,0.2698125,1.3203125,0.99365625,-0.21215625,-0.22990625,1.286875,0.020733386767235983,0.020624048019170525,True
44453,109562,0,109563,3954.0,42030.0,30073.0,0.00366,-6.1e-05,-0.00183,0.28,-2.0650000000000004,-3.8850000000000002,1.02790625,0.28734375,0.27215625,1.32078125,0.988625,-0.22496875,-0.22065625,1.30059375,0.021148118096127575,0.020346785607842477,True
44454,109563,0,109564,3955.0,42029.0,30075.0,0.002745,0.002196,-0.000305,0.36750000000000005,-1.8900000000000001,-3.7100000000000004,1.0354375,0.2890625,0.26965625,1.326125,1.014625,-0.21178125,-0.22753125000000002,1.31915625,0.02068595221592794,0.02052159152616922,True
44455,109564,0,109565,3954.0,42030.0,30077.0,0.00061,-0.000122,0.000488,0.2625,-1.4175000000000002,-3.6050000000000004,1.02734375,0.29453125,0.27015625,1.32115625,0.9833437500000001,-0.21696875000000002,-0.229625,1.3048125,0.021121553456189684,0.020626866903635528,True
44456,109565,0,109566,3955.0,42031.0,30076.0,-0.003538,-0.000549,0.000976,0.43750000000000006,-1.3650000000000002,-3.4650000000000003,1.027375,0.28784375,0.2715,1.32246875,0.9735625,-0.2195625,-0.22803125,1.28628125,0.020950264894339033,0.020617905138288938,True
44457,109566,0,109567,3956.0,42032.0,30075.0,-0.005124,-0.000732,0.000488,0.4025,-1.5925000000000002,-3.6750000000000003,1.0335,0.28875,0.2715,1.32090625,1.01021875,-0.2115,-0.22540625,1.30115625,0.020661669041571153,0.020511781923161766,True
44458,109567,0,109568,3953.0,42030.0,30076.0,-0.00122,0.000183,0.000488,0.35000000000000003,-1.5925000000000002,-3.5525,1.02778125,0.28715625,0.2720625,1.31865625,0.98709375,-0.22065625,-0.22312500000000002,1.29365625,0.020966091701169327,0.020442758727455684,True
44459,109568,0,109569,3953.0,42030.0,30075.0,0.001037,0.001952,0.000488,0.4025,-1.5575,-3.535,1.0301875,0.28896875,0.27215625,1.325375,0.9999687500000001,-0.21509375,-0.22128125,1.2990625,0.020816045777233463,0.020372064339081977,True
44460,109569,0,109570,3955.0,42032.0,30078.0,0.002745,0.000549,0.000244,0.385,-1.6975000000000002,-3.5875000000000004,1.0276875,0.28721875,0.26965625,1.321,1.0005625,-0.21415625,-0.2258125,1.30475,0.02070586291851487,0.020452100419748563,True
44461,109570,0,109571,3954.0,42032.0,30078.0,0.003904,-0.001281,0.000244,0.28,-1.8025000000000002,-3.5175000000000005,1.0289375,0.28628125,0.27240625,1.32128125,0.9955,-0.21628125,-0.22768750000000001,1.297125,0.020753083217515074,0.02064141491011059,True
44462,109571,0,109572,3954.0,42033.0,30079.0,0.003172,-0.001464,-0.000183,0.31500000000000006,-1.9425000000000001,-3.6575,1.0314375,0.2886875,0.2715625,1.3241875,0.99603125,-0.21853125,-0.2259375,1.29765625,0.0209434149727804,0.02053584097622641,True
44463,109572,0,109573,3953.0,42032.0,30078.0,0.00366,-0.003355,-0.001464,0.12250000000000001,-1.3825,-3.7100000000000004,1.0316875,0.28940625000000003,0.2693125,1.32184375,1.0044375,-0.216875,-0.2253125,1.30303125,0.020906134668490464,0.02041769327021065,True
44464,109573,0,109574,3953.0,42030.0,30076.0,-0.000305,0.00183,-0.003294,0.21000000000000002,-1.2600000000000002,-3.6225000000000005,1.01728125,0.2885,0.27215625,1.3252187500000001,0.98946875,-0.2105,-0.22734375,1.2971875,0.020610891968360835,0.02061720034826352,True
44465,109574,0,109575,3954.0,42032.0,30076.0,-0.003538,0.004575,0.000549,0.385,-0.8575,-3.5175000000000005,1.02865625,0.28800000000000003,0.27140625,1.32053125,1.00240625,-0.2155,-0.224625,1.2965625,0.020792467634366422,0.02047632316289726,True
44466,109575,0,109576,3953.0,42031.0,30076.0,-0.0044529999999999995,0.003355,0.002989,0.3325,-0.36750000000000005,-3.3600000000000003,1.02940625,0.28859375,0.269,1.32084375,0.99359375,-0.21515625,-0.22546875,1.304625,0.020803086909670466,0.02041111175609347,True
44467,109576,0,109577,3954.0,42030.0,30076.0,-0.0051849999999999995,-0.001647,0.0028669999999999998,0.28,-0.29750000000000004,-3.3775000000000004,1.0360625,0.2895,0.270625,1.337875,0.99615625,-0.218,-0.2215625,1.2965625,0.020955487653811212,0.020320220877575505,True
44468,109577,0,109578,3953.0,42029.0,30078.0,-0.0017079999999999999,-0.00183,-0.000732,0.2625,-0.7175,-3.5700000000000003,1.027,0.2826875,0.27515625,1.31671875,1.00278125,-0.215125,-0.21809375,1.299375,0.020557915765456507,0.020367003492997873,True
44469,109578,0,109579,3953.0,42030.0,30077.0,-0.00042699999999999997,-0.000122,-0.00042699999999999997,0.35000000000000003,-1.0150000000000001,-3.4650000000000003,1.04559375,0.290375,0.27240625,1.332125,0.996,-0.21734375,-0.22696875,1.2965,0.02096508829544941,0.020612359934628635,True
44470,109579,0,109580,3954.0,42031.0,30077.0,0.0006709999999999999,0.000549,0.0008539999999999999,0.36750000000000005,-1.33,-3.4650000000000003,1.02159375,0.29221875,0.265375,1.3159375,1.00425,-0.2149375,-0.225375,1.297,0.020943942143150273,0.020257684349571474,True
44471,109580,0,109581,3954.0,42031.0,30077.0,-0.0077469999999999995,0.0015249999999999999,-0.006771,0.385,-2.6425,-3.6225000000000005,1.02753125,0.28565625,0.2728125,1.32809375,0.9975937500000001,-0.21615625,-0.225375,1.2975,0.02072221928283932,0.020564697140911133,True
44472,109581,0,109582,3954.0,42031.0,30077.0,0.006405,0.001464,0.0040869999999999995,0.6475000000000001,-3.99,-3.6050000000000004,1.03540625,0.2900625,0.2656875,1.316125,0.9957812500000001,-0.21615625,-0.2254375,1.28759375,0.020904174253500694,0.02027311168270955,True
44473,109582,0,109583,3953.0,42031.0,30081.0,0.013725,-0.010003999999999999,0.004514,0.1925,-2.6075000000000004,-3.22,1.02171875,0.28975,0.27515625,1.31546875,1.00221875,-0.21540625,-0.22821875,1.30271875,0.020860944672361215,0.020776393229485764,True
44474,109583,0,109584,3954.0,42032.0,30079.0,0.010492,-0.00549,-0.0034159999999999998,0.31500000000000006,-3.8150000000000004,-3.8500000000000005,1.04515625,0.29059375,0.27246875,1.33646875,0.99665625,-0.21496875000000001,-0.22765625,1.29771875,0.020878098386973968,0.02064273138265283,True
44475,109584,0,109585,3953.0,42029.0,30077.0,0.011101999999999999,0.002379,-0.0046359999999999995,0.4025,-3.5525,-4.112500000000001,1.0229375,0.294375,0.2640625,1.31571875,0.99090625,-0.2185,-0.22653125000000002,1.3037812500000001,0.021176992794764333,0.020250267978417256,True
44476,109585,0,109586,3953.0,42031.0,30076.0,0.010919,0.003477,-0.00061,0.2625,-2.2575000000000003,-3.5525,1.0439375,0.28403125,0.274375,1.33190625,0.99653125,-0.216,-0.226375,1.2970625,0.02064879625041295,0.02066962143531585,True
44477,109586,0,109587,3953.0,42030.0,30076.0,-0.00549,0.002074,-0.000183,0.4025,-1.12,-3.1500000000000004,1.03546875,0.29028125,0.2666875,1.32865625,0.996625,-0.21553125,-0.22525,1.2916875,0.020887937364578776,0.02030680797927782,True
44478,109587,0,109588,3952.0,42029.0,30076.0,-0.008905999999999999,-0.00122,0.0008539999999999999,0.28,-0.5425000000000001,-3.22,1.02125,0.28803125,0.27340625,1.3238750000000001,1.0035,-0.21078125,-0.22725,1.2899375,0.02060290805361764,0.020665005314263896,True
44479,109588,0,109589,3951.0,42029.0,30075.0,-0.009637999999999999,-0.001464,0.001464,0.28,-0.21000000000000002,-3.2025,1.02303125,0.28628125,0.27234375,1.32365625,1.0028125,-0.21456250000000002,-0.226625,1.29765625,0.02068357625705606,0.020595883661054727,True
44480,109589,0,109590,3950.0,42029.0,30074.0,-0.008723,-6.1e-05,0.000732,0.385,-0.47250000000000003,-3.1675000000000004,1.02334375,0.28865625,0.2719375,1.3205625,1.0032812500000001,-0.21546875000000001,-0.2275,1.29159375,0.020818304415436934,0.02061448766897121,True
44481,109590,0,109591,3949.0,42030.0,30074.0,-0.0066489999999999995,0.001403,0.000183,0.45500000000000007,-0.805,-3.1325000000000003,1.03340625,0.2891875,0.2689375,1.3225,0.999625,-0.21696875000000002,-0.22490625,1.30459375,0.020900892065609987,0.02038578580670462,True
44482,109591,0,109592,3948.0,42025.0,30073.0,0.0,-0.0008539999999999999,-0.000122,0.36750000000000005,-1.54,-3.4475000000000002,1.01396875,0.287875,0.2699375,1.3215937500000001,0.9986875000000001,-0.21506250000000002,-0.22875,1.2986875,0.02076961395412463,0.02058246917401847,True
44483,109592,0,109593,3947.0,42025.0,30071.0,0.002013,-0.0017079999999999999,-0.00042699999999999997,0.35000000000000003,-1.8900000000000001,-3.5525,1.03121875,0.290375,0.27140625,1.320375,0.989,-0.218375,-0.22528125000000002,1.29696875,0.02100677687912587,0.020502857938955822,True
44484,109593,0,109594,3946.0,42026.0,30070.0,0.005429,-0.000732,-0.000244,0.1925,-1.8375000000000001,-3.6050000000000004,1.0285625,0.28946875,0.2695625,1.3214375,1.002125,-0.21475,-0.2259375,1.30271875,0.020822793958227937,0.020453284831598365,True
44485,109594,0,109595,3943.0,42027.0,30070.0,0.005673,-0.0011589999999999999,-0.0008539999999999999,0.28,-1.7325000000000002,-3.6400000000000006,1.026875,0.28734375,0.27153125,1.32103125,0.99546875,-0.2165,-0.22137500000000002,1.29703125,0.02080580389403919,0.020350052381419306,True
44486,109595,0,109596,3942.0,42024.0,30069.0,0.003538,-0.001037,-0.00042699999999999997,0.3325,-1.7500000000000002,-3.7275000000000005,1.02771875,0.28896875,0.2683125,1.3215937500000001,1.003625,-0.2144375,-0.22940625,1.3046875,0.02078950832535342,0.020541929293046542,True
44487,109596,0,109597,3940.0,42026.0,30069.0,0.003843,-0.0018909999999999999,-0.000183,0.29750000000000004,-1.33,-3.7450000000000006,1.027,0.28975,0.2713125,1.32609375,0.9965937500000001,-0.2185,-0.22446875,1.2961875,0.020986023081528582,0.02046613509326185,True
44488,109597,0,109598,3940.0,42025.0,30067.0,0.0017079999999999999,-6.1e-05,-0.000488,0.28,-1.1025,-3.7625,1.02809375,0.2891875,0.270125,1.32171875,1.00334375,-0.21556250000000002,-0.22387500000000002,1.303375,0.02084403366636641,0.020393103910914336,True
44489,109598,0,109599,3938.0,42023.0,30067.0,0.000732,0.0030499999999999998,0.000122,0.43750000000000006,-0.9275000000000001,-3.7800000000000002,1.02846875,0.28840625000000003,0.270625,1.320625,0.996375,-0.21484375,-0.22609375,1.3040625000000001,0.020782706888207773,0.020503460241088185,True
44490,109599,0,109600,3935.0,42023.0,30067.0,-0.0034159999999999998,0.0034159999999999998,0.001952,0.43750000000000006,-1.1025,-3.7975000000000003,1.0280625,0.28890625000000003,0.26990625,1.3265625,0.99609375,-0.2144375,-0.22646875,1.30203125,0.020786927220588957,0.02048895384309775,True
44491,109600,0,109601,3935.0,42022.0,30064.0,-0.0064659999999999995,0.000976,0.001464,0.45500000000000007,-1.4175000000000002,-3.6750000000000003,1.02,0.28890625000000003,0.2685,1.3251875,1.00228125,-0.21559375,-0.22565625,1.30528125,0.0208336828412477,0.02039805423227699,True
44492,109601,0,109602,3935.0,42021.0,30064.0,-0.0023179999999999997,6.1e-05,-6.1e-05,0.28,-1.33,-3.6925000000000003,1.02821875,0.289,0.271125,1.3285,1.000875,-0.214625,-0.22596875,1.29765625,0.020798381143627042,0.020519045291016485,True
44493,109602,0,109603,3933.0,42020.0,30064.0,-0.001037,0.0011589999999999999,-0.000488,0.43750000000000006,-1.4000000000000001,-3.6575,1.03309375,0.28978125,0.27190625,1.32325,1.0033750000000001,-0.2161875,-0.225625,1.29696875,0.02089382360456203,0.020537395836020742,True
44494,109603,0,109604,3933.0,42023.0,30065.0,-0.00042699999999999997,0.0017079999999999999,-0.001586,0.49000000000000005,-1.4875,-3.5875000000000004,1.034125,0.28925,0.27515625,1.31253125,0.99803125,-0.21531250000000002,-0.22496875,1.29703125,0.020836505826633458,0.020645021471905924,True
44495,109604,0,109605,3932.0,42021.0,30064.0,0.002623,0.00122,-0.000976,0.35000000000000003,-1.4000000000000001,-3.5525,1.03334375,0.28740625000000003,0.271625,1.32165625,0.993,-0.21803125,-0.22671875,1.29753125,0.02087029679590491,0.020570005998026455,True
44496,109605,0,109606,3931.0,42021.0,30062.0,0.003294,-0.000122,-0.000366,0.24500000000000002,-1.33,-3.6225000000000005,1.0340625,0.2871875,0.27034375,1.321,0.99675,-0.21475,-0.228375,1.29846875,0.02072858485014299,0.02058407755369479,True
44497,109606,0,109607,3930.0,42022.0,30061.0,0.00042699999999999997,-0.001586,0.000793,0.36750000000000005,-1.155,-3.6225000000000005,1.02784375,0.2895625,0.27159375,1.321625,0.99521875,-0.21506250000000002,-0.22753125000000002,1.30146875,0.020839301984044024,0.020601562530230978,True
44498,109607,0,109608,3931.0,42018.0,30062.0,-0.002562,-0.0023179999999999997,0.0018909999999999999,0.4025,-1.4175000000000002,-3.6400000000000006,1.0285625,0.2874375,0.2726875,1.3218125,0.9959375,-0.21540625,-0.22828125,1.2978750000000001,0.020765447616638684,0.02067702388092428,True
44499,109608,0,109609,3929.0,42019.0,30061.0,-0.000732,-0.0028669999999999998,0.000488,0.4025,-1.3650000000000002,-3.7275000000000005,1.0306875,0.28971875,0.2721875,1.3220625,0.9961875,-0.21909375,-0.22815625,1.2916875,0.02100873406958095,0.020651334127003578,True
44500,109609,0,109610,3928.0,42017.0,30061.0,0.0,-0.0021349999999999997,0.000305,0.28,-1.2600000000000002,-3.8325000000000005,1.0286875,0.288375,0.27284375,1.32190625,0.9963125,-0.21728125,-0.22840625,1.29678125,0.020879975946928395,0.02068852547822868,True
44501,109610,0,109611,3927.0,42019.0,30063.0,0.000183,0.000183,-6.1e-05,0.31500000000000006,-1.3125000000000002,-3.7975000000000003,1.028375,0.28834375,0.272,1.3221875,0.99540625,-0.2139375,-0.2264375,1.29203125,0.02074347676828686,0.02057411453912694,True
44502,109611,0,109612,3928.0,42016.0,30062.0,0.001403,0.000793,-0.0008539999999999999,0.4025,-1.5750000000000002,-3.7625,1.0326250000000001,0.28765625,0.27215625,1.3220625,0.99575,-0.21746875000000002,-0.226125,1.2950625,0.02085787764255916,0.020567930281875455,True
44503,109612,0,109613,3927.0,42017.0,30062.0,0.0013419999999999999,0.000732,-6.1e-05,0.31500000000000006,-1.5750000000000002,-3.7275000000000005,1.03475,0.28965625,0.27090625,1.33378125,1.00184375,-0.21803125,-0.22409375,1.28953125,0.020963202778921185,0.020434200969850522,True
44504,109613,0,109614,3926.0,42019.0,30062.0,0.0013419999999999999,0.0006709999999999999,-0.00061,0.31500000000000006,-1.4700000000000002,-3.6575,1.0293125,0.29131250000000003,0.26615625,1.34003125,1.00034375,-0.21396875,-0.22525,1.29471875,0.02086734542432248,0.02028487838102806,True
44505,109614,0,109615,3928.0,42019.0,30063.0,-0.000549,0.000244,0.000915,0.4025,-1.4875,-3.6050000000000004,1.02096875,0.29081250000000003,0.26771875,1.32975,1.0066875,-0.21340625,-0.22509375,1.3019687500000001,0.02082394954241517,0.020343058527895273,True
44506,109615,0,109616,3925.0,42019.0,30062.0,-0.0032329999999999998,0.001647,-0.000366,0.3325,-1.5225000000000002,-3.7100000000000004,1.01421875,0.28490625,0.262125,1.33778125,1.006375,-0.2135,-0.22425,1.300625,0.020583816879013776,0.02007802099136196,True
44507,109616,0,109617,3925.0,42018.0,30061.0,0.000976,0.001586,-0.0015249999999999999,0.21000000000000002,-0.8925000000000001,-3.7275000000000005,1.0061875,0.29303125,0.27665625,1.32215625,1.000875,-0.21684375,-0.22165625,1.2946250000000001,0.021054560423465592,0.020573015109154644,True
44508,109617,0,109618,3925.0,42018.0,30061.0,0.0017079999999999999,0.000549,-0.001098,0.385,-0.8750000000000001,-3.6400000000000006,1.0499375,0.2794375,0.27775,1.3060625000000001,0.98540625,-0.2134375,-0.231,1.305125,0.020355432804615204,0.020995831785729027,True
44509,109618,0,109619,3924.0,42016.0,30060.0,0.000183,-0.000244,-0.000732,0.28,-1.1725,-3.6400000000000006,1.02990625,0.284375,0.27678125,1.30659375,0.9935625,-0.21425,-0.23093750000000002,1.30353125,0.02059221326285142,0.020953326713008938,True
44510,109619,0,109620,3923.0,42018.0,30061.0,0.000793,-0.002562,0.0011589999999999999,0.3325,-1.0150000000000001,-3.5525,1.0279375,0.28400000000000003,0.277625,1.3101562500000001,0.99409375,-0.21403125,-0.22825,1.3033125,0.02056787838662759,0.020879551762921385,True
44511,109620,0,109621,3922.0,42016.0,30060.0,0.00042699999999999997,-0.00366,0.002745,0.22750000000000004,-0.77,-3.4825000000000004,1.0269375,0.277375,0.27137500000000003,1.30771875,0.99384375,-0.21425,-0.22559375,1.3037812500000001,0.020303127290748214,0.020514203083257763,True
44512,109621,0,109622,3921.0,42015.0,30060.0,-0.0015249999999999999,-0.00122,0.000732,0.2625,-1.0850000000000002,-3.535,1.024,0.2884375,0.27009375,1.309625,0.99490625,-0.215125,-0.2260625,1.30490625,0.020795370661931333,0.020480267893307053,True
44513,109622,0,109623,3923.0,42013.0,30060.0,-0.00061,-0.000732,-0.000732,0.35000000000000003,-1.155,-3.6225000000000005,1.0186250000000001,0.284875,0.2649375,1.318125,0.99628125,-0.21425,-0.226625,1.3061562500000001,0.020612862260858792,0.020290176613539858,True
44514,109623,0,109624,3920.0,42014.0,30061.0,-0.000366,0.000915,-0.000488,0.45500000000000007,-1.1375000000000002,-3.5875000000000004,1.01609375,0.28690625000000003,0.27,1.319375,0.9991875,-0.21425,-0.22528125000000002,1.30490625,0.02069674881526374,0.020444809077293995,True
44515,109624,0,109625,3921.0,42015.0,30059.0,-0.00244,0.00183,-0.000366,0.42000000000000004,-1.3650000000000002,-3.6050000000000004,1.02540625,0.291375,0.274625,1.3265,1.0044375,-0.21690625,-0.2253125,1.298125,0.020988694623203574,0.020636988686936444,True
44516,109625,0,109626,3919.0,42013.0,30060.0,-0.003172,0.0021349999999999997,6.1e-05,0.36750000000000005,-1.5925000000000002,-3.6575,1.02378125,0.28600000000000003,0.2723125,1.3211875,1.00021875,-0.21646875000000002,-0.225375,1.29715625,0.020749051200951833,0.020544057625526954,True
44517,109626,0,109627,3919.0,42015.0,30061.0,-0.001098,0.0017079999999999999,-0.000549,0.45500000000000007,-1.4525000000000001,-3.7450000000000006,1.02846875,0.28925,0.26887500000000003,1.3181875,0.9897812500000001,-0.2146875,-0.2235625,1.30590625,0.020811232851962267,0.02032886368386153,True
44518,109627,0,109628,3920.0,42017.0,30060.0,0.001403,0.001952,-0.000793,0.31500000000000006,-1.33,-3.7450000000000006,1.02803125,0.289875,0.27134375,1.32671875,1.00425,-0.21403125,-0.21962500000000001,1.30259375,0.020810506305099445,0.020271525673911137,True
44519,109628,0,109629,3919.0,42015.0,30060.0,0.002928,0.000488,0.000183,0.29750000000000004,-1.4525000000000001,-3.7450000000000006,1.03409375,0.28940625000000003,0.27459375,1.3230625,0.9915,-0.21396875,-0.22453125000000002,1.2971875,0.020788620205021122,0.020604113856692276,True
44520,109629,0,109630,3918.0,42016.0,30062.0,0.0018909999999999999,-0.00183,-0.000122,0.28,-1.715,-3.7450000000000006,1.0358125,0.29,0.2716875,1.31990625,0.99803125,-0.21221875,-0.2243125,1.29746875,0.02074236794180624,0.0204752972865587,True
44521,109630,0,109631,3917.0,42015.0,30063.0,0.001952,-0.002928,-0.000976,0.35000000000000003,-1.9600000000000002,-3.7625,1.0365312500000001,0.28990625000000003,0.2711875,1.3169375,1.00140625,-0.21696875000000002,-0.22490625,1.2914375,0.020930571667851703,0.020478665423111803,True
44522,109631,0,109632,3917.0,42015.0,30062.0,0.004575,-0.000976,6.1e-05,0.31500000000000006,-1.435,-3.7800000000000002,1.034875,0.289625,0.27453125,1.3291250000000001,1.00425,-0.215625,-0.2259375,1.30490625,0.020864627693895986,0.020658385253408667,True
44523,109632,0,109633,3918.0,42016.0,30060.0,0.001769,0.000183,0.000488,0.43750000000000006,-1.3475000000000001,-3.7625,1.03309375,0.28946875,0.2716875,1.32121875,1.00571875,-0.211375,-0.22515625,1.2976875,0.02068629931179043,0.020509413638972917,True
44524,109633,0,109634,3916.0,42018.0,30061.0,-0.0021349999999999997,0.000793,-0.000183,0.525,-1.0150000000000001,-3.6050000000000004,1.0342500000000001,0.28931250000000003,0.27190625,1.3274375,1.00340625,-0.2145,-0.22478125000000002,1.2994375,0.020806231803258378,0.020503281118379554,True
