frame_seq,absolute_seq_u64,segment_id,sample_seq,PPG_G,PPG_R,PPG_IR,ACC_X,ACC_Y,ACC_Z,GYRO_X,GYRO_Y,GYRO_Z,Uh1,Uh2,Uh3,Uh4,Uc1,Uc2,Uc3,Uc4,UD1,UD2,parser_valid
15625,80734,0,80735,4309.0,42644.0,32239.0,0.000976,0.0013419999999999999,0.002257,0.7175,-1.9250000000000003,-4.025,1.0726875,0.232875,0.2676875,1.3301875,1.042125,-0.18821875,-0.3009375,1.28903125,0.017409043400519107,0.023399303010429126,True
15626,80735,0,80736,4310.0,42645.0,32237.0,-0.004758,0.001281,0.002623,0.6825000000000001,-1.3825,-3.8500000000000005,1.07709375,0.23296875,0.27115625,1.33590625,1.0440625000000001,-0.19137500000000002,-0.29890625,1.28215625,0.017541117443717027,0.02346041810009452,True
15627,80736,0,80737,4309.0,42648.0,32239.0,-0.00488,-0.001769,0.003904,0.29750000000000004,-0.7000000000000001,-3.7100000000000004,1.06659375,0.2371875,0.26790625,1.32975,1.04078125,-0.18803125,-0.295625,1.28725,0.01757971724135258,0.02319476243150773,True
15628,80737,0,80738,4312.0,42646.0,32237.0,-0.002257,-0.003172,-0.000122,0.08750000000000001,-0.77,-3.7450000000000006,1.0768125,0.23153125,0.27253125,1.3295625,1.0415625,-0.19146875,-0.29978125,1.28965625,0.017485503024697497,0.02355216675047229,True
15629,80738,0,80739,4315.0,42646.0,32240.0,-0.001464,-0.001281,-0.0053679999999999995,0.24500000000000002,-1.4000000000000001,-3.7275000000000005,1.08196875,0.23325,0.26990625,1.33584375,1.04865625,-0.1895625,-0.29690625,1.2886250000000001,0.01747912968661587,0.023328587358730085,True
15630,80739,0,80740,4314.0,42648.0,32241.0,0.00183,0.001403,0.0013419999999999999,0.56,-1.7500000000000002,-3.7275000000000005,1.08046875,0.23665625,0.2714375,1.3375937500000001,1.04709375,-0.18796875000000002,-0.29884375,1.29325,0.01755521533820404,0.023469480929519542,True
15631,80740,0,80741,4315.0,42650.0,32244.0,0.0035989999999999998,0.0015249999999999999,0.006344,0.6125,-1.5575,-3.6400000000000006,1.0735625,0.23040625,0.2709375,1.33009375,1.0424375000000001,-0.18809375,-0.3011875,1.28903125,0.01730190085773088,0.023543088172131504,True
15632,80741,0,80742,4317.0,42650.0,32244.0,-0.0048189999999999995,0.00061,-0.00915,0.3325,-0.5775,-3.5525,1.0778125,0.233125,0.26975,1.33634375,1.0423125,-0.18971875,-0.30012500000000003,1.28925,0.017480308653857333,0.02345152545511597,True
15633,80742,0,80743,4319.0,42647.0,32242.0,-0.007991,0.0006709999999999999,-0.006222,0.6300000000000001,0.12250000000000001,-3.3075,1.07675,0.23390625,0.2678125,1.3296875000000001,1.0485,-0.18809375,-0.29790625,1.295375,0.01744660014805838,0.023282613085232398,True
15634,80743,0,80744,4320.0,42649.0,32241.0,-0.007808,0.001952,0.0059169999999999995,1.225,0.17500000000000002,-2.975,1.0728125,0.23159375000000001,0.26909375,1.3293125000000001,1.0413125,-0.19009375,-0.3044375,1.2880625,0.017432239178486027,0.023597799784504377,True
15635,80744,0,80745,4323.0,42651.0,32245.0,-0.005856,0.003965,0.009089,1.4700000000000002,-1.1725,-3.0625000000000004,1.07371875,0.23121875,0.26771875,1.329625,1.033375,-0.18715625,-0.3025625,1.30296875,0.01729740345147024,0.023465889656697728,True
15636,80745,0,80746,4324.0,42652.0,32248.0,0.004697,0.006893,0.003172,1.225,-2.7300000000000004,-3.6225000000000005,1.0733125000000001,0.23121875,0.26825,1.33021875,1.035875,-0.18106250000000002,-0.3008125,1.28509375,0.01704975742897981,0.0234174268864467,True
15637,80746,0,80747,4323.0,42653.0,32249.0,0.02135,0.00183,-0.005673,-0.29750000000000004,-4.025,-4.357500000000001,1.07996875,0.23375,0.26978125000000003,1.335375,1.0351875,-0.19453125000000002,-0.29725,1.2845,0.01770157254028222,0.023337260389550262,True
15638,80747,0,80748,4324.0,42651.0,32248.0,0.018056,-0.004026,-0.008845,-1.0325000000000002,-3.5525,-4.445,1.0753125000000001,0.2340625,0.26640625,1.3274375,1.05678125,-0.18775,-0.29553125,1.304625,0.017439096236731403,0.023129253450673154,True
15639,80748,0,80749,4324.0,42647.0,32244.0,0.009394,-0.010369999999999999,-0.00549,-1.5225000000000002,-2.1,-3.8850000000000002,1.07315625,0.24053125,0.267125,1.3308125,1.03153125,-0.18728125,-0.2961875,1.296875,0.017687498465748398,0.0231852219612645,True
15640,80749,0,80750,4324.0,42642.0,32238.0,-0.004392,-0.01525,-0.00122,-1.5050000000000001,-0.45500000000000007,-3.3950000000000005,1.0650625,0.23228125,0.269,1.33353125,1.03725,-0.1853125,-0.305125,1.2843437500000001,0.01726641944361893,0.023621561296228676,True
15641,80750,0,80751,4324.0,42637.0,32226.0,-0.016409,-0.014884,0.0040869999999999995,-0.8225000000000001,1.0675000000000001,-3.08,1.0755937500000001,0.233625,0.26821875,1.3294375,1.059625,-0.17325000000000002,-0.3006875,1.303,0.016831621730632,0.023411117483816045,True
15642,80751,0,80752,4324.0,42635.0,32219.0,-0.022448,0.0028669999999999998,0.0050019999999999995,1.7325000000000002,2.0300000000000002,-2.9225000000000003,1.07353125,0.23034375,0.2715,1.3303125,1.035,-0.18078125,-0.30540625,1.2829375,0.01700213883701545,0.023735717233691576,True
15643,80752,0,80753,4326.0,42632.0,32211.0,-0.015982,0.011163,0.005429,2.8875,1.2425000000000002,-2.87,1.073375,0.2338125,0.2705625,1.33609375,1.04875,-0.1933125,-0.296875,1.29715625,0.017654672133053294,0.023354340836012864,True
15644,80753,0,80754,4323.0,42634.0,32208.0,-0.0062829999999999995,0.01647,0.004697,3.4475000000000002,-0.5425000000000001,-3.0100000000000002,1.07328125,0.2374375,0.27128125000000003,1.32934375,1.0411875,-0.1854375,-0.3015625,1.2825625,0.017484695077358017,0.023572301163762622,True
15645,80754,0,80755,4319.0,42635.0,32211.0,0.0021349999999999997,0.017506999999999998,0.00061,3.0275000000000003,-2.66,-3.43,1.0789375,0.23390625,0.26771875,1.33815625,1.0446875,-0.189,-0.29571875000000003,1.29475,0.01748341188143371,0.023190814225242877,True
15646,80755,0,80756,4317.0,42634.0,32210.0,0.012139,0.014701,-0.003904,1.7675,-4.4275,-4.095000000000001,1.07328125,0.2339375,0.26653125,1.33025,1.03775,-0.18725,-0.30009375,1.289625,0.017413616678208562,0.023317811273876256,True
15647,80756,0,80757,4313.0,42635.0,32209.0,0.022021,-0.0048189999999999995,-0.0017079999999999999,-1.3125000000000002,-5.0925,-4.6025,1.08065625,0.2335625,0.26737500000000003,1.3335000000000001,1.04259375,-0.18840625,-0.29862500000000003,1.294875,0.017445082806974932,0.023293499117748435,True
15648,80757,0,80758,4309.0,42634.0,32214.0,0.016226,-0.014579,-0.00488,-2.4325,-4.165,-4.62,1.0731875,0.2329375,0.26987500000000003,1.3238750000000001,1.04175,-0.1910625,-0.29865625,1.28934375,0.017527134246377148,0.023397641587690678,True
15649,80758,0,80759,4306.0,42632.0,32208.0,0.008357,-0.019703,-0.006893,-2.8525000000000005,-2.6075000000000004,-4.375,1.07315625,0.2348125,0.26784375,1.33078125,1.0461562500000001,-0.18759375,-0.29984375,1.28984375,0.01746375660042661,0.023361775731582636,True
15650,80759,0,80760,4304.0,42628.0,32205.0,0.000183,-0.018543999999999998,-0.003477,-2.2225,-1.05,-4.0600000000000005,1.0799375,0.23425,0.26971875,1.3358125,1.047125,-0.18909375,-0.29912500000000003,1.29590625,0.01750143078427649,0.023410050773433205,True
15651,80760,0,80761,4304.0,42628.0,32205.0,-0.009821,-0.010675,0.0025009999999999998,-0.6125,0.17500000000000002,-3.8150000000000004,1.072,0.23159375000000001,0.27034375,1.32278125,1.041875,-0.1875625,-0.3016875,1.28971875,0.017329412585497195,0.02353874602329571,True
15652,80761,0,80762,4305.0,42630.0,32203.0,-0.016042999999999998,0.008723,0.0051849999999999995,2.5375,1.0850000000000002,-3.2725000000000004,1.07971875,0.2336875,0.27046875,1.334375,1.05021875,-0.189,-0.29903125,1.29115625,0.01747436851461408,0.023437148343105244,True
15653,80762,0,80763,4304.0,42631.0,32204.0,-0.012871,0.015799,0.004392,3.3950000000000005,0.56,-3.1675000000000004,1.0735625,0.23209375000000002,0.2684375,1.3303125,1.041375,-0.18787500000000001,-0.30209375,1.29,0.017362779905221108,0.02347662945708124,True
15654,80763,0,80764,4303.0,42635.0,32208.0,-0.008967,0.017019,0.002562,3.3775000000000004,-0.525,-3.3600000000000003,1.08053125,0.23340625,0.27021875,1.3365625,1.0493125,-0.19090625,-0.29859375,1.291625,0.017540165532244165,0.023409276514201566,True
15655,80764,0,80765,4303.0,42635.0,32209.0,-0.002074,0.015127999999999999,0.0006709999999999999,2.3975000000000004,-1.61,-3.7275000000000005,1.078125,0.2369375,0.2653125,1.3286875,1.0516875,-0.18821875,-0.30025,1.29365625,0.01757699706597866,0.02327393751093096,True
15656,80765,0,80766,4303.0,42634.0,32210.0,0.005124,0.006588,-0.001586,0.9275000000000001,-2.45,-3.8325000000000005,1.06896875,0.22921875,0.2698125,1.32796875,1.0405312500000001,-0.1883125,-0.29490625,1.289625,0.017261694051621007,0.02324432719307159,True
15657,80766,0,80767,4302.0,42635.0,32211.0,0.010065,-0.011041,-0.002196,-1.6450000000000002,-3.2550000000000003,-4.025,1.0791250000000001,0.23421875,0.2714375,1.3388125,1.05128125,-0.1860625,-0.29903125,1.2965625,0.017377001733953183,0.023477016187630942,True
15658,80767,0,80768,4302.0,42635.0,32212.0,0.008357,-0.014213,-0.003111,-2.1350000000000002,-3.1500000000000004,-4.235,1.0704375,0.23168750000000002,0.27071875,1.34028125,1.04153125,-0.19046875,-0.2996875,1.287875,0.01745134641097023,0.023473810105582634,True
15659,80768,0,80769,4298.0,42635.0,32211.0,0.004514,-0.014335,-0.0025009999999999998,-1.8025000000000002,-2.6775,-4.165,1.07075,0.229625,0.27059375,1.33834375,1.0323125,-0.18884375,-0.299375,1.2961875,0.017300072476593677,0.023456107410170013,True
15660,80769,0,80770,4300.0,42632.0,32213.0,0.001037,-0.010614,-0.000976,-0.8575,-2.1350000000000002,-3.7800000000000002,1.0695937500000001,0.22909375,0.27021875,1.3277812500000001,1.04125,-0.18746875000000002,-0.30021875,1.289125,0.017222244473184076,0.02347458291913524,True
15661,80770,0,80771,4299.0,42630.0,32211.0,6.1e-05,-0.0034159999999999998,0.001037,0.22750000000000004,-1.7675,-3.5175000000000005,1.0781875,0.2341875,0.27128125000000003,1.34075,1.0330625,-0.18812500000000001,-0.29634375,1.29609375,0.017459497170615745,0.023362568699251306,True
15662,80771,0,80772,4299.0,42632.0,32213.0,-0.000976,0.011224,0.000976,2.0650000000000004,-1.4875,-3.5700000000000003,1.0716875000000001,0.23696875,0.26434375,1.328,1.031375,-0.1884375,-0.29440625,1.29003125,0.017587173623761353,0.02299912145414132,True
15663,80772,0,80773,4299.0,42633.0,32215.0,0.000366,0.013481,0.0006709999999999999,2.3625000000000003,-1.2600000000000002,-3.6225000000000005,1.0815000000000001,0.23440625,0.27140625,1.3319375,1.0463437500000001,-0.18846875,-0.29946875,1.2938125,0.01748250393072112,0.023493311967982843,True
15664,80773,0,80774,4298.0,42634.0,32218.0,6.1e-05,0.011163,0.000915,2.0300000000000002,-1.1900000000000002,-3.6750000000000003,1.07071875,0.23118750000000002,0.26928125,1.331625,1.041625,-0.18765625,-0.29928125,1.28915625,0.01731642560448576,0.023398325824966534,True
15665,80774,0,80775,4299.0,42635.0,32218.0,-0.0017079999999999999,0.0064659999999999995,0.0017079999999999999,1.2600000000000002,-1.155,-3.6750000000000003,1.083375,0.23634375,0.26728125,1.32709375,1.04475,-0.1881875,-0.30021875,1.28884375,0.017551180715793608,0.023353699233674596,True
15666,80775,0,80776,4299.0,42636.0,32217.0,-0.0042699999999999995,-0.00042699999999999997,0.001464,0.28,-1.225,-3.6750000000000003,1.07659375,0.234,0.2724375,1.32915625,1.04525,-0.1879375,-0.29859375,1.291125,0.017444128917564798,0.023500588382815366,True
15667,80776,0,80777,4298.0,42635.0,32217.0,-0.0040869999999999995,-0.010858,-0.001281,-0.8575,-0.8750000000000001,-3.6050000000000004,1.07803125,0.2381875,0.26971875,1.33528125,1.0418125,-0.18909375,-0.2993125,1.2935,0.017664210756138807,0.02341758640290749,True
15668,80777,0,80778,4299.0,42633.0,32214.0,-0.0030499999999999998,-0.011041,-0.001769,-0.8400000000000001,-0.9275000000000001,-3.5000000000000004,1.07421875,0.2318125,0.27015625,1.33453125,1.043375,-0.19059375,-0.29890625,1.2975,0.01746159083011346,0.023419263984361435,True
15669,80778,0,80779,4300.0,42632.0,32211.0,-0.003294,-0.007259,-0.0018909999999999999,-0.29750000000000004,-1.2600000000000002,-3.3600000000000003,1.073875,0.23184375000000002,0.27059375,1.3363125,1.0419375,-0.19309375,-0.29259375,1.2946875,0.017564413397935106,0.023183506289854286,True
15670,80779,0,80780,4299.0,42629.0,32211.0,-0.001769,-0.002623,0.000183,0.4025,-1.5925000000000002,-3.3425000000000002,1.07321875,0.2338125,0.26737500000000003,1.33015625,1.05165625,-0.1874375,-0.30059375,1.2955625,0.017416065674588307,0.023372628498017668,True
15671,80780,0,80781,4301.0,42631.0,32215.0,0.00122,0.0026839999999999998,0.000183,1.05,-1.8550000000000002,-3.3600000000000003,1.0764375,0.23275,0.26990625,1.3345,1.03828125,-0.19175,-0.30159375,1.279125,0.017547304349623323,0.02351697612425111,True
15672,80781,0,80782,4298.0,42633.0,32215.0,0.006222,0.008662,-0.003111,1.3475000000000001,-2.3275,-3.4825000000000004,1.08071875,0.23371875,0.27075,1.33821875,1.05228125,-0.1965625,-0.29525,1.29065625,0.017782742899947048,0.023296734958479542,True
15673,80782,0,80783,4300.0,42631.0,32218.0,0.008784,0.008052,-0.00244,0.9625000000000001,-2.2925000000000004,-3.6225000000000005,1.07321875,0.234125,0.2666875,1.32590625,1.0663125,-0.1864375,-0.2931875,1.3101875,0.017388360729024274,0.023046584562029994,True
15674,80783,0,80784,4298.0,42634.0,32216.0,0.008418,0.004758,-0.001037,0.5775,-1.9425000000000001,-3.5875000000000004,1.07321875,0.23321875,0.27021875,1.33228125,1.03496875,-0.1845625,-0.291625,1.3058125,0.017274707781048344,0.023129113429011028,True
15675,80784,0,80785,4298.0,42633.0,32220.0,0.004575,0.000793,-0.00042699999999999997,0.035,-1.3650000000000002,-3.5000000000000004,1.072875,0.23434375000000002,0.26834375,1.33571875,1.050125,-0.184375,-0.29390625,1.3069375,0.017313606409096783,0.023143663856033853,True
15676,80785,0,80786,4298.0,42631.0,32216.0,-0.002745,-0.006405,0.00244,-0.43750000000000006,-0.6125,-3.4475000000000002,1.07315625,0.23384375000000002,0.267625,1.3353125000000001,1.04840625,-0.1845625,-0.2945625,1.30775,0.017300550712877276,0.023140466102239958,True
15677,80786,0,80787,4296.0,42630.0,32217.0,-0.008905999999999999,-0.007442,0.001037,-0.45500000000000007,-0.0175,-3.3775000000000004,1.0738125,0.23346875,0.26875,1.337,1.05340625,-0.18471875000000001,-0.29096875,1.31115625,0.017291393971658242,0.02304225721751011,True
15678,80787,0,80788,4298.0,42630.0,32216.0,-0.009211,-0.004514,0.001037,-0.0175,-0.12250000000000001,-3.3950000000000005,1.07328125,0.234375,0.26709375,1.3304375,1.04725,-0.1845,-0.29834375,1.30009375,0.0173199776716492,0.023270619010812208,True
15679,80788,0,80789,4301.0,42632.0,32214.0,-0.007686,-0.0017079999999999999,0.002074,0.49000000000000005,-0.29750000000000004,-3.2725000000000004,1.06684375,0.22968750000000002,0.26959375,1.3295625,1.02953125,-0.19584375,-0.2989375,1.2770625,0.017586956437507992,0.023397370769812468,True
15680,80789,0,80790,4300.0,42631.0,32216.0,-0.003843,0.000793,0.0013419999999999999,0.9275000000000001,-0.43750000000000006,-3.0275000000000003,1.07896875,0.23390625,0.26921875,1.3348125,1.05284375,-0.1915,-0.29434375,1.289125,0.017584947192195603,0.02319727199875485,True
15681,80790,0,80791,4301.0,42631.0,32217.0,0.000305,0.006161,-0.00122,1.0675000000000001,-1.3125000000000002,-3.3425000000000002,1.0735625,0.23425,0.27490625,1.337,1.05184375,-0.1855625,-0.2970625,1.29075,0.01735797957975962,0.023540654348648115,True
15682,80791,0,80792,4301.0,42632.0,32216.0,0.003355,0.005246,-0.00244,0.8925000000000001,-1.2950000000000002,-3.3425000000000002,1.07821875,0.23825000000000002,0.27009375,1.32990625,1.0455625,-0.18775,-0.299,1.2805312500000001,0.017612221062314602,0.023420459689699163,True
15683,80792,0,80793,4301.0,42632.0,32218.0,0.0046359999999999995,0.002562,-0.000549,0.6300000000000001,-1.3650000000000002,-3.325,1.07803125,0.232125,0.2695625,1.32909375,1.05021875,-0.1915,-0.29962500000000003,1.2896875,0.01751131595808445,0.023423715386554318,True
15684,80793,0,80794,4304.0,42632.0,32218.0,0.004209,-0.000549,-0.000183,0.3325,-1.61,-3.3950000000000005,1.07328125,0.23159375000000001,0.26778125,1.3299375,1.0455,-0.1891875,-0.29971875000000003,1.284875,0.0173954271924181,0.023354179768027155,True
15685,80794,0,80795,4302.0,42632.0,32222.0,0.00122,-0.001037,-0.00061,0.052500000000000005,-1.8725000000000003,-3.4825000000000004,1.07278125,0.232625,0.26953125,1.3265625,1.04290625,-0.18684375,-0.29471875000000003,1.2895625,0.017342847803364172,0.023225212269641936,True
15686,80795,0,80796,4306.0,42630.0,32219.0,0.001037,-0.0034159999999999998,-0.000732,-0.17500000000000002,-1.715,-3.7800000000000002,1.0755937500000001,0.23146875,0.2689375,1.3291250000000001,1.04765625,-0.18840625,-0.29978125,1.28959375,0.017358522742687937,0.023404274472635427,True
15687,80796,0,80797,4304.0,42632.0,32221.0,0.000976,-0.00183,0.001037,-0.052500000000000005,-1.1025,-3.4650000000000003,1.07615625,0.23790625,0.2694375,1.334875,1.04790625,-0.18753125,-0.29903125,1.296375,0.017589124561854574,0.023394708379577894,True
15688,80797,0,80798,4306.0,42633.0,32221.0,-0.002074,-0.0008539999999999999,0.001037,0.22750000000000004,-0.8575,-3.5000000000000004,1.07515625,0.23340625,0.2701875,1.33646875,1.04628125,-0.18278125,-0.2988125,1.29503125,0.017210075867514205,0.023416782198718556,True
15689,80798,0,80799,4308.0,42633.0,32223.0,-0.0032329999999999998,0.001281,0.00183,0.45500000000000007,-0.5425000000000001,-3.4475000000000002,1.0803125,0.23193750000000002,0.27009375,1.32884375,1.047125,-0.18778125,-0.29934375,1.2926875,0.017352511404906144,0.02343427484538549,True
15690,80799,0,80800,4308.0,42634.0,32227.0,-0.0035989999999999998,0.0018909999999999999,0.0028669999999999998,0.7000000000000001,-0.385,-3.325,1.0741875,0.22871875,0.26784375,1.3295937500000001,1.05040625,-0.1915625,-0.29878125,1.2899375,0.017373051037939364,0.02331907078672927,True
15691,80800,0,80801,4310.0,42637.0,32225.0,-0.002623,0.0018909999999999999,0.000976,0.5425000000000001,-1.0150000000000001,-3.3425000000000002,1.07115625,0.22865625,0.26953125,1.326,1.05021875,-0.1891875,-0.2989375,1.28996875,0.01727398863645172,0.023394798640887077,True
15692,80801,0,80802,4311.0,42638.0,32227.0,-0.000305,0.00122,6.1e-05,0.2625,-1.435,-3.4650000000000003,1.08440625,0.22746875,0.27165625,1.3246875,1.042,-0.18825,-0.29584375,1.29509375,0.01718680557708805,0.023357904579872843,True
15693,80802,0,80803,4311.0,42638.0,32228.0,0.0013419999999999999,-0.000732,-0.00122,0.0,-1.8725000000000003,-3.4650000000000003,1.0874375,0.235375,0.2731875,1.34603125,1.04453125,-0.18853125,-0.3018125,1.29196875,0.017525092599411138,0.02366078661828207,True
15694,80803,0,80804,4312.0,42636.0,32228.0,0.003172,-0.002196,-0.000976,-0.10500000000000001,-2.0650000000000004,-3.5000000000000004,1.0658125,0.23559375000000002,0.271,1.3255625,1.0415,-0.1886875,-0.3004375,1.2893125,0.01754048250861069,0.023515523125869648,True
15695,80804,0,80805,4316.0,42637.0,32229.0,0.004209,-0.004392,-0.001098,-0.29750000000000004,-2.1,-3.43,1.05740625,0.22715625,0.272,1.32121875,1.04765625,-0.19121875,-0.29621875000000003,1.28940625,0.01729449864943245,0.02338712685487325,True
15696,80805,0,80806,4316.0,42639.0,32230.0,0.0026839999999999998,-0.000976,-0.002562,-0.29750000000000004,-2.1175,-3.5525,1.0904375,0.23421875,0.272875,1.346,1.04984375,-0.1873125,-0.29962500000000003,1.298375,0.017427783677909647,0.023560034362670207,True
15697,80806,0,80807,4318.0,42639.0,32230.0,0.00061,0.00061,0.0021349999999999997,0.15750000000000003,-1.435,-3.5000000000000004,1.0908437500000001,0.2411875,0.26859375,1.3423125,1.0424375000000001,-0.18759375,-0.30065625,1.29040625,0.017727321470330216,0.023425293298406296,True
15698,80807,0,80808,4318.0,42638.0,32230.0,-0.00042699999999999997,0.002623,0.003294,0.6475000000000001,-0.6475000000000001,-3.3600000000000003,1.05621875,0.236375,0.26703125,1.3308125,1.0416875,-0.1863125,-0.3013125,1.28971875,0.017476310206444245,0.023387368480611896,True
15699,80808,0,80809,4319.0,42639.0,32232.0,-0.0037819999999999998,0.003294,0.0026839999999999998,0.8400000000000001,-0.43750000000000006,-3.0625000000000004,1.06696875,0.22925,0.2720625,1.3359375,1.04303125,-0.1905,-0.29996875,1.29528125,0.017351853000144687,0.023540410931598418,True
15700,80809,0,80810,4319.0,42643.0,32233.0,-0.00366,0.004514,0.0011589999999999999,0.9100000000000001,-0.665,-3.1325000000000003,1.08484375,0.23546875,0.26765625,1.3297812500000001,1.04328125,-0.18803125,-0.2990625,1.289,0.01750865937053062,0.023322659053204207,True
15701,80810,0,80811,4324.0,42639.0,32233.0,0.002623,0.001586,-0.000915,0.42000000000000004,-0.9625000000000001,-3.3775000000000004,1.069125,0.232125,0.27096875,1.332,1.0425,-0.191,-0.29934375,1.2946875,0.017491009052953577,0.02347028404830892,True
15702,80811,0,80812,4324.0,42641.0,32234.0,0.002257,-0.0008539999999999999,-0.00061,-0.07,-1.2425000000000002,-3.3950000000000005,1.07665625,0.23459375000000002,0.26584375,1.3234375,1.04421875,-0.1876875,-0.3025,1.2827187500000001,0.017458520993377316,0.02338622569694476,True
15703,80812,0,80813,4326.0,42640.0,32237.0,-6.1e-05,-0.003721,-0.001586,-0.35000000000000003,-1.5575,-3.4475000000000002,1.08228125,0.23409375000000002,0.27,1.33590625,1.046125,-0.18837500000000001,-0.2991875,1.2970625,0.01746577643186035,0.023424137123926467,True
15704,80813,0,80814,4327.0,42639.0,32237.0,-0.00183,-0.005856,0.000244,-0.5950000000000001,-1.4525000000000001,-3.4825000000000004,1.073125,0.2368125,0.26725,1.3295000000000001,1.04146875,-0.18728125,-0.299375,1.2893125,0.01753375030523532,0.023318500990251803,True
15705,80814,0,80815,4329.0,42641.0,32237.0,-0.001586,-0.006893,0.0017079999999999999,-0.5775,-1.05,-3.325,1.07234375,0.23415625,0.26787500000000003,1.3306875,1.0416875,-0.18887500000000002,-0.3018125,1.29,0.017488669894734667,0.023442181524526207,True
15706,80815,0,80816,4329.0,42639.0,32237.0,-0.001464,-0.0021349999999999997,-0.001586,0.15750000000000003,-1.1900000000000002,-2.8525000000000005,1.0735937500000001,0.23125,0.26940625,1.32725,1.0420625000000001,-0.1906875,-0.29896875,1.2885,0.017442145867082117,0.02339091036528042,True
15707,80816,0,80817,4329.0,42643.0,32240.0,-0.000793,0.0021349999999999997,-0.001769,0.7525000000000001,-1.1900000000000002,-2.7825,1.07953125,0.23365625,0.27015625,1.335875,1.049,-0.18765625,-0.29546875,1.2959687500000001,0.01741849212860382,0.023281090223871478,True
15708,80817,0,80818,4332.0,42640.0,32241.0,0.000305,0.00732,0.001037,1.1900000000000002,-1.2425000000000002,-2.9050000000000002,1.07334375,0.23134375000000001,0.27009375,1.32965625,1.04209375,-0.18840625,-0.29971875000000003,1.28890625,0.017353354977655878,0.023449345478535635,True
15709,80818,0,80819,4335.0,42644.0,32245.0,0.001952,0.009211,0.001281,1.4000000000000001,-1.1025,-2.8350000000000004,1.08134375,0.2341875,0.267125,1.33021875,1.0386250000000001,-0.1875625,-0.301875,1.28971875,0.017436647450523382,0.023413831237301647,True
15710,80819,0,80820,4335.0,42642.0,32245.0,0.002196,0.006527,-0.000122,1.1725,-1.1900000000000002,-2.8175000000000003,1.078375,0.23090625,0.27203125,1.33621875,1.04384375,-0.19196875,-0.2954375,1.29521875,0.017479974630010216,0.023357008903420653,True
15711,80820,0,80821,4337.0,42644.0,32246.0,6.1e-05,0.000732,-0.0023179999999999997,0.10500000000000001,-1.5050000000000001,-3.08,1.066625,0.23475000000000001,0.26634375,1.32996875,1.042625,-0.18728125,-0.30125,1.2895,0.017448478216211257,0.023356566020266447,True
15712,80821,0,80822,4338.0,42642.0,32248.0,0.000732,-0.002196,0.000305,-0.4025,-1.1900000000000002,-3.1675000000000004,1.0730625,0.2313125,0.2703125,1.3351250000000001,1.0421562500000001,-0.19146875,-0.29896875,1.296875,0.01747646058075742,0.023428206186733747,True
15713,80822,0,80823,4339.0,42641.0,32244.0,0.002196,-0.006344,0.00183,-0.7875000000000001,-0.7350000000000001,-2.975,1.0678750000000001,0.234375,0.2674375,1.3305,1.0421562500000001,-0.18809375,-0.30225,1.2898125,0.017465979517298672,0.023441759507864496,True
15714,80823,0,80824,4341.0,42640.0,32241.0,-0.001464,-0.009821,0.000183,-0.9275000000000001,-0.7175,-2.9925,1.0818125,0.23646875,0.26878125,1.32925,1.04928125,-0.18765625,-0.30203125000000003,1.2821875,0.017534770447219333,0.02348826294098359,True
15715,80824,0,80825,4343.0,42637.0,32235.0,-0.004758,-0.008296,-0.002013,-0.6300000000000001,-1.05,-3.08,1.07821875,0.23403125,0.27034375,1.3372187500000001,1.0494375,-0.18584375,-0.2990625,1.2958125,0.01736036188524537,0.02343326002803606,True
15716,80825,0,80826,4341.0,42635.0,32228.0,-0.0028669999999999998,0.00042699999999999997,0.0028669999999999998,0.36750000000000005,-1.3475000000000001,-3.2375000000000003,1.07725,0.233875,0.2709375,1.3345625,1.0466875,-0.18746875000000002,-0.2998125,1.295125,0.017419919147182363,0.02348783555428668,True
15717,80826,0,80827,4343.0,42635.0,32227.0,0.00061,0.0040869999999999995,0.003355,0.9100000000000001,-1.435,-3.0625000000000004,1.073875,0.233375,0.26746875000000003,1.33109375,1.0425,-0.18703125,-0.30265625,1.29021875,0.017381473801171856,0.023459369796254268,True
15718,80827,0,80828,4341.0,42633.0,32222.0,0.004331,0.0070149999999999995,0.001464,1.0850000000000002,-1.6275000000000002,-2.9225000000000003,1.07771875,0.23415625,0.26940625,1.3306875,1.0481875,-0.18765625,-0.30196875,1.289625,0.017439163829691025,0.023511469621159808,True
15719,80828,0,80829,4341.0,42630.0,32219.0,0.006161,0.007503,-0.001037,0.9625000000000001,-1.7325000000000002,-3.1675000000000004,1.0729375,0.2341875,0.27009375,1.32909375,1.0421875,-0.18765625,-0.30146875,1.28878125,0.017440455811008972,0.023519668950050598,True
15720,80829,0,80830,4337.0,42628.0,32215.0,0.006222,0.005673,-0.0018909999999999999,0.5425000000000001,-1.6975000000000002,-3.2725000000000004,1.06821875,0.23284375000000002,0.26875,1.3295625,1.0423125,-0.19053125,-0.30240625,1.29,0.017501682605668284,0.023502045193570083,True
15721,80830,0,80831,4336.0,42627.0,32210.0,0.002928,-0.00183,-0.000549,-0.1925,-0.6475000000000001,-3.1675000000000004,1.07396875,0.2326875,0.26971875,1.3304375,1.04240625,-0.19012500000000002,-0.30046875,1.288875,0.01747872323933837,0.023464053548349764,True
15722,80831,0,80832,4333.0,42626.0,32208.0,-0.001952,-0.0044529999999999995,0.000305,-0.36750000000000005,-0.0175,-3.115,1.07346875,0.23390625,0.27575,1.33034375,1.040625,-0.19037500000000002,-0.30409375,1.2885,0.01753925889945898,0.023857863451501867,True
15723,80832,0,80833,4332.0,42626.0,32206.0,-0.006588,-0.0059169999999999995,0.000915,-0.28,0.15750000000000003,-3.1500000000000004,1.0734375,0.2336875,0.2755625,1.33040625,1.03984375,-0.19146875,-0.30409375,1.2936875,0.017574635686392545,0.023850148701800494,True
15724,80833,0,80834,4331.0,42626.0,32204.0,-0.008967,-0.00366,0.000732,-0.15750000000000003,0.12250000000000001,-3.1325000000000003,1.07334375,0.23453125,0.2691875,1.3312187500000001,1.0390625,-0.19184375,-0.2974375,1.28646875,0.01762474180993336,0.0233203604289547,True
15725,80834,0,80835,4330.0,42626.0,32204.0,-0.008905999999999999,-0.0026839999999999998,0.00042699999999999997,0.0175,0.17500000000000002,-3.1675000000000004,1.07034375,0.2328125,0.27459375,1.33021875,1.0501875,-0.19309375,-0.299375,1.2867187500000001,0.017604455817065566,0.023620720697548805,True
15726,80835,0,80836,4330.0,42627.0,32203.0,-0.004209,0.001281,0.0018909999999999999,0.665,-0.5775,-3.1675000000000004,1.07496875,0.22559375,0.26328125,1.3214375,1.0538750000000001,-0.1931875,-0.29909375,1.28678125,0.01730988320575782,0.023143867248135542,True
15727,80836,0,80837,4328.0,42626.0,32204.0,-0.0021349999999999997,0.0023179999999999997,-0.002013,0.665,-1.225,-3.3075,1.0604375,0.2251875,0.27003125,1.323625,1.0405625,-0.18903125,-0.2989375,1.29828125,0.01712423890477218,0.023415375672290198,True
15728,80837,0,80838,4325.0,42628.0,32205.0,0.002806,0.003965,-0.000976,0.525,-1.5925000000000002,-3.4125000000000005,1.08375,0.23734375,0.267625,1.34178125,1.03675,-0.18709375,-0.304,1.2866875,0.017548098353073114,0.023519790980908496,True
15729,80838,0,80839,4326.0,42627.0,32206.0,0.0071979999999999995,0.002074,0.000305,0.35000000000000003,-1.9425000000000001,-3.4825000000000004,1.061,0.230125,0.2651875,1.3195000000000001,1.0391875,-0.1911875,-0.2959375,1.28640625,0.017415949506405997,0.023095424903854814,True
15730,80839,0,80840,4327.0,42629.0,32208.0,0.009394,0.000244,-0.000183,0.0175,-2.2225,-3.6225000000000005,1.093375,0.23390625,0.26653125,1.3510625,1.0526875,-0.1865,-0.3035625,1.287875,0.01738185558059248,0.02345720920544056,True
15731,80840,0,80841,4327.0,42630.0,32208.0,0.008845,-0.002562,-0.002623,-0.665,-2.1875,-3.8325000000000005,1.06240625,0.23825000000000002,0.260625,1.318875,1.0388125,-0.1905625,-0.30496875,1.28725,0.017726437737857485,0.02327070467844152,True
15732,80841,0,80842,4325.0,42628.0,32209.0,0.0044529999999999995,-0.003355,-0.0013419999999999999,-0.56,-1.5225000000000002,-3.8150000000000004,1.06075,0.224125,0.27028125000000003,1.32021875,1.043875,-0.18987500000000002,-0.29875,1.29209375,0.01711459856654902,0.02341812850455271,True
15733,80842,0,80843,4326.0,42628.0,32208.0,0.001464,-0.002013,-0.001281,-0.1925,-0.5075000000000001,-3.6575,1.09978125,0.23625000000000002,0.27040625,1.34565625,1.0442500000000001,-0.18787500000000001,-0.3025,1.289,0.017534611866482693,0.023573963583993416,True
15734,80843,0,80844,4326.0,42627.0,32207.0,-0.004026,-0.000488,0.00122,0.31500000000000006,0.43750000000000006,-3.5000000000000004,1.06121875,0.22390625,0.2775,1.33865625,1.04128125,-0.18971875,-0.2998125,1.29521875,0.017099206661921194,0.023757899366507455,True
15735,80844,0,80845,4326.0,42628.0,32208.0,-0.010065,0.00122,0.002379,0.9275000000000001,0.7875000000000001,-3.325,1.07134375,0.2333125,0.26228125,1.31971875,1.04209375,-0.18734375,-0.30112500000000003,1.28984375,0.017391585216958765,0.023184369036412928,True
15736,80845,0,80846,4327.0,42627.0,32207.0,-0.011833999999999999,0.003965,0.0028669999999999998,1.3125000000000002,0.56,-3.2025,1.0821875,0.23559375000000002,0.26987500000000003,1.3248125,1.0483437500000001,-0.18746875000000002,-0.3014375,1.2824375000000001,0.017490978670515078,0.023509411737474385,True
15737,80846,0,80847,4327.0,42630.0,32208.0,-0.005795,0.0034159999999999998,0.000366,1.05,-0.052500000000000005,-3.2550000000000003,1.07459375,0.23553125,0.27025,1.3365,1.0418125,-0.19037500000000002,-0.30025,1.28325,0.01760643437730916,0.023477124720939088,True
15738,80847,0,80848,4327.0,42631.0,32208.0,0.000488,0.00183,-0.00061,0.5075000000000001,-0.8225000000000001,-3.3950000000000005,1.07365625,0.23018750000000002,0.27234375,1.33509375,1.03809375,-0.187125,-0.29803125,1.2888125,0.017253497470245016,0.023474124060977163,True
15739,80848,0,80849,4328.0,42632.0,32211.0,0.003904,-0.000488,0.000122,-0.0175,-1.4525000000000001,-3.6225000000000005,1.066375,0.23478125,0.2675625,1.3304375,1.04790625,-0.1871875,-0.30362500000000003,1.2884375000000001,0.017445961834132225,0.023502152456680844,True
15740,80849,0,80850,4329.0,42634.0,32212.0,0.0044529999999999995,-0.0040869999999999995,-0.001647,-0.36750000000000005,-2.0475000000000003,-3.8500000000000005,1.07984375,0.2334375,0.27037500000000003,1.334875,1.03528125,-0.18971875,-0.2978125,1.29446875,0.01749322736544839,0.02338430671485345,True
15741,80850,0,80851,4328.0,42637.0,32213.0,0.004941,-0.0050019999999999995,-0.00042699999999999997,-0.5950000000000001,-1.715,-3.7100000000000004,1.0736875000000001,0.235125,0.2701875,1.336375,1.042,-0.18834375,-0.30062500000000003,1.2886250000000001,0.01750714122375576,0.023489622180499475,True
15742,80851,0,80852,4330.0,42636.0,32212.0,0.004392,-0.005063,0.000366,-0.385,-1.2425000000000002,-3.5700000000000003,1.0731875,0.231,0.26937500000000003,1.3306875,1.0490625,-0.187125,-0.30271875,1.2875625,0.017287089722321278,0.023540318920079673,True
15743,80852,0,80853,4331.0,42635.0,32214.0,0.0013419999999999999,-0.003111,-0.0006709999999999999,-0.14,-1.0850000000000002,-3.535,1.080875,0.233875,0.26734375,1.33009375,1.0475625,-0.18778125,-0.2999375,1.29334375,0.017432613832655694,0.02334496745104797,True
15744,80853,0,80854,4330.0,42638.0,32215.0,-0.00042699999999999997,0.000183,-0.0011589999999999999,0.24500000000000002,-0.8750000000000001,-3.6225000000000005,1.0739375,0.23259375000000002,0.27037500000000003,1.3218750000000001,1.04259375,-0.1904375,-0.29762500000000003,1.2946875,0.017487540272886754,0.02337677036335856,True
15745,80854,0,80855,4331.0,42636.0,32214.0,-0.000793,0.0042699999999999995,0.001647,0.9275000000000001,-0.8575,-3.4825000000000004,1.0806875,0.24053125,0.26803125,1.3198750000000001,1.04246875,-0.1900625,-0.2998125,1.29471875,0.017800439746693503,0.02336823586601748,True
15746,80855,0,80856,4332.0,42637.0,32212.0,-0.0032329999999999998,0.004575,-0.000244,1.0850000000000002,-1.0675000000000001,-3.6575,1.07371875,0.2353125,0.26934375,1.3235000000000001,1.04259375,-0.18940625,-0.3010625,1.2968125,0.01755804775075866,0.023472481913085076,True
15747,80856,0,80857,4333.0,42637.0,32211.0,-0.001952,0.0055509999999999995,-0.000549,1.0325000000000002,-0.9975,-3.7275000000000005,1.0735937500000001,0.23065625,0.26953125,1.331625,1.04221875,-0.1893125,-0.30053125,1.29609375,0.017361748086060735,0.023458849279272446,True
15748,80857,0,80858,4333.0,42636.0,32214.0,-0.001769,0.0032329999999999998,-0.00042699999999999997,0.8400000000000001,-0.9275000000000001,-3.6575,1.0740625,0.23328125,0.275125,1.33846875,1.04221875,-0.1893125,-0.30015625,1.28259375,0.01747026708592896,0.0236739732897808,True
15749,80858,0,80859,4333.0,42636.0,32210.0,-0.00122,6.1e-05,-0.00061,0.43750000000000006,-1.1375000000000002,-3.5875000000000004,1.07303125,0.23328125,0.2688125,1.330625,1.04928125,-0.1871875,-0.30115625,1.29065625,0.017383945529012002,0.023454388101389213,True
15750,80859,0,80860,4333.0,42634.0,32213.0,-0.000549,-0.00366,-0.0006709999999999999,-0.36750000000000005,-1.225,-3.7800000000000002,1.07971875,0.23459375000000002,0.26671875,1.32625,1.03703125,-0.1878125,-0.30325,1.2889375,0.017463598661516002,0.023452367481715412,True
15751,80860,0,80861,4335.0,42636.0,32211.0,0.001403,-0.006039,0.000549,-0.6125,-1.0325000000000002,-3.8500000000000005,1.0794375,0.23459375000000002,0.26921875,1.31840625,1.0481562500000001,-0.18181250000000002,-0.29984375,1.29340625,0.01721981137683538,0.02341836045756467,True
15752,80861,0,80862,4335.0,42635.0,32210.0,-0.00042699999999999997,-0.00488,0.000244,-0.6300000000000001,-1.12,-3.8500000000000005,1.073,0.22943750000000002,0.27215625,1.33709375,1.0424375000000001,-0.1893125,-0.30040625,1.2946250000000001,0.017311364264693343,0.023561848888843162,True
15753,80862,0,80863,4335.0,42634.0,32211.0,0.000305,-0.003294,-0.000488,-0.31500000000000006,-1.05,-3.9025000000000003,1.0728125,0.2310625,0.2705,1.33015625,1.04196875,-0.18875,-0.29996875,1.2945625,0.017355692212288772,0.023476110437384824,True
15754,80863,0,80864,4336.0,42637.0,32214.0,-0.0011589999999999999,0.000244,0.0021349999999999997,0.07,-0.8400000000000001,-3.7100000000000004,1.07978125,0.2339375,0.268125,1.329375,1.042875,-0.1875625,-0.3005,1.289625,0.017426311559918452,0.023399724285508527,True
15755,80864,0,80865,4336.0,42638.0,32215.0,0.0008539999999999999,0.003172,0.0025009999999999998,0.8750000000000001,-0.8575,-3.6925000000000003,1.0791250000000001,0.2344375,0.2676875,1.33021875,1.04228125,-0.18778125,-0.3003125,1.29009375,0.017455869376195882,0.023374185002764884,True
15756,80865,0,80866,4337.0,42640.0,32216.0,0.0015249999999999999,0.003355,-0.000488,0.5075000000000001,-1.2775,-3.7625,1.08046875,0.234625,0.2713125,1.3321875,1.04840625,-0.18821875,-0.30440625,1.28928125,0.017481392671793987,0.02368783438188292,True
15757,80866,0,80867,4339.0,42639.0,32216.0,0.000366,0.0017079999999999999,-0.003172,0.17500000000000002,-1.8550000000000002,-3.9725000000000006,1.06696875,0.2315625,0.26884375,1.32384375,1.05659375,-0.18762500000000001,-0.3070625,1.28846875,0.01733065978987189,0.02369295960793288,True
15758,80867,0,80868,4340.0,42639.0,32217.0,0.001952,-0.000244,-0.000976,-0.08750000000000001,-1.9075000000000002,-3.9725000000000006,1.077625,0.23353125,0.2669375,1.33009375,1.04103125,-0.19165625,-0.29821875000000003,1.30375,0.01757579124000656,0.023259163801873338,True
15759,80868,0,80869,4340.0,42641.0,32217.0,0.002013,-0.000732,0.000305,-0.24500000000000002,-1.5050000000000001,-3.9725000000000006,1.07575,0.23153125,0.2705625,1.33690625,1.035875,-0.19115625,-0.30596875,1.28465625,0.01747281095751676,0.023719739621569286,True
15760,80869,0,80870,4339.0,42641.0,32220.0,-0.0015249999999999999,-0.001403,0.000366,0.0,-0.8750000000000001,-3.6750000000000003,1.06753125,0.23325,0.26846875,1.33103125,1.05903125,-0.18253125,-0.2983125,1.30465625,0.01719345446932897,0.023325951133437762,True
15761,80870,0,80871,4342.0,42640.0,32219.0,-0.002989,-0.001464,6.1e-05,0.385,-0.6475000000000001,-3.6225000000000005,1.0735937500000001,0.23475000000000001,0.2675,1.3311875,1.037625,-0.18609375,-0.30009375,1.29328125,0.017400236447855495,0.02335767737521589,True
15762,80871,0,80872,4344.0,42643.0,32221.0,-0.0035989999999999998,0.000244,0.001403,0.35000000000000003,-0.7875000000000001,-3.6050000000000004,1.07146875,0.232125,0.2708125,1.33684375,1.036125,-0.1918125,-0.30128125,1.28809375,0.017524007347527182,0.02354171140667738,True
15763,80872,0,80873,4344.0,42641.0,32219.0,-0.0011589999999999999,0.0006709999999999999,-0.001037,0.31500000000000006,-0.9450000000000001,-3.6050000000000004,1.07428125,0.23178125,0.2703125,1.33784375,1.04309375,-0.1846875,-0.30509375,1.283875,0.017220348619348503,0.02367430695468928,True
15764,80873,0,80874,4345.0,42642.0,32223.0,-0.002379,0.001281,-0.000549,0.45500000000000007,-1.5225000000000002,-3.7625,1.074125,0.2343125,0.26821875,1.3326875,1.04778125,-0.186,-0.29359375,1.3069375,0.01737833870834367,0.023125952701007854,True
15765,80874,0,80875,4348.0,42644.0,32223.0,0.002745,0.001586,-6.1e-05,0.29750000000000004,-1.5575,-3.8150000000000004,1.0734375,0.23143750000000002,0.2685,1.3312187500000001,1.0365,-0.18565625,-0.3083125,1.28709375,0.017245500626016715,0.023729022736563878,True
15766,80875,0,80876,4348.0,42645.0,32225.0,0.003172,-6.1e-05,-0.00061,0.07,-1.3825,-3.8325000000000005,1.076,0.23340625,0.274625,1.33734375,1.03325,-0.19621875,-0.29909375,1.2968125,0.017755873528792595,0.023610705646172507,True
15767,80876,0,80877,4349.0,42646.0,32226.0,0.0006709999999999999,-0.002013,0.0013419999999999999,-0.052500000000000005,-1.3475000000000001,-3.7450000000000006,1.07246875,0.23428125,0.26596875000000003,1.33084375,1.0504375,-0.18640625,-0.30490625,1.286,0.01739355138798266,0.023488056038068448,True
15768,80877,0,80878,4350.0,42651.0,32227.0,-0.0008539999999999999,-0.003111,0.000305,-0.08750000000000001,-1.4175000000000002,-3.8850000000000002,1.0737812500000001,0.2331875,0.27003125,1.3349375,1.0366250000000001,-0.19037500000000002,-0.30003125,1.28496875,0.0175095466688714,0.023459331971023702,True
15769,80878,0,80879,4353.0,42647.0,32228.0,-0.000244,-0.002257,0.00061,-0.10500000000000001,-1.5225000000000002,-3.9550000000000005,1.0781875,0.23453125,0.2681875,1.33090625,1.04675,-0.18671875000000002,-0.30278125,1.295375,0.017416583222972317,0.023493967382848417,True
15770,80879,0,80880,4353.0,42648.0,32229.0,0.000976,-0.000244,-0.000122,0.29750000000000004,-1.7500000000000002,-4.0600000000000005,1.07375,0.23165625,0.26853125,1.33078125,1.04275,-0.1905625,-0.29740625,1.2895,0.01745386243085501,0.02329209522106912,True
15771,80880,0,80881,4354.0,42650.0,32231.0,0.000549,0.002074,-0.0018909999999999999,0.525,-2.0825,-4.0075,1.078375,0.23290625,0.2696875,1.3295625,1.0443437500000001,-0.18928125,-0.301375,1.28840625,0.01745349502685203,0.023499184716914166,True
15772,80881,0,80882,4357.0,42652.0,32232.0,-0.000305,0.001647,-0.001464,0.6125,-2.0825,-4.025,1.0775937500000001,0.2323125,0.2705625,1.33584375,1.0480625000000001,-0.19140625,-0.30065625,1.2886875,0.017515259163571776,0.023506309628983785,True
15773,80882,0,80883,4358.0,42651.0,32233.0,0.001281,0.002806,-0.000488,0.7525000000000001,-1.9775000000000003,-3.9725000000000006,1.07915625,0.23446875,0.2701875,1.33478125,1.0499375,-0.18759375,-0.30071875,1.29571875,0.01744954476920632,0.023493389470218857,True
15774,80883,0,80884,4360.0,42650.0,32233.0,0.000976,0.0015249999999999999,0.000976,0.665,-1.7850000000000001,-3.8675,1.07446875,0.23409375000000002,0.26884375,1.33196875,1.0456875,-0.1876875,-0.30062500000000003,1.2965,0.017437849318997528,0.02343432524883619,True
15775,80884,0,80885,4360.0,42652.0,32233.0,0.00122,6.1e-05,-6.1e-05,0.28,-1.7500000000000002,-3.8675,1.067,0.234375,0.26796875000000003,1.33653125,1.04271875,-0.1873125,-0.30284375,1.297,0.017434243676307568,0.023487477674294804,True
15776,80885,0,80886,4361.0,42653.0,32235.0,0.001281,-6.1e-05,-0.00042699999999999997,0.1925,-1.4875,-3.9200000000000004,1.07453125,0.2343125,0.26934375,1.3255625,1.04859375,-0.1875625,-0.3029375,1.28565625,0.01744181539582585,0.023547822151128855,True
15777,80886,0,80887,4363.0,42654.0,32238.0,0.00183,-0.001769,0.000549,0.035,-1.1900000000000002,-3.8675,1.07471875,0.2308125,0.27003125,1.32075,1.0425312500000001,-0.18834375,-0.30165625,1.28415625,0.017328852869473544,0.02352463116582846,True
15778,80887,0,80888,4365.0,42654.0,32239.0,-0.000549,-0.001769,0.000183,-0.12250000000000001,-1.4525000000000001,-3.9025000000000003,1.07365625,0.23500000000000001,0.2653125,1.32875,1.041375,-0.186875,-0.30075,1.28921875,0.01744231117083129,0.02329403413474893,True
15779,80888,0,80889,4368.0,42656.0,32238.0,-0.0006709999999999999,-0.000549,-0.001037,0.0,-1.6275000000000002,-3.99,1.07209375,0.2310625,0.266125,1.328375,1.04221875,-0.18871875,-0.304875,1.277875,0.01735442270996681,0.02349322923899012,True
15780,80889,0,80890,4369.0,42656.0,32241.0,0.000793,0.0006709999999999999,0.001281,0.49000000000000005,-1.0325000000000002,-3.6575,1.07090625,0.23409375000000002,0.2649375,1.3288125,1.04084375,-0.19,-0.30478125,1.2895625,0.01753177966101695,0.023440603893524037,True
15781,80890,0,80891,4372.0,42656.0,32243.0,0.000549,0.0006709999999999999,0.000915,0.525,-0.8400000000000001,-3.6400000000000006,1.06703125,0.23409375000000002,0.26403125,1.3295625,1.0422500000000001,-0.18871875,-0.30478125,1.289125,0.017479739392976326,0.02340331699138415,True
15782,80891,0,80892,4372.0,42657.0,32242.0,-0.0015249999999999999,0.0008539999999999999,-0.00042699999999999997,0.42000000000000004,-0.8925000000000001,-3.7275000000000005,1.07090625,0.2351875,0.26675,1.34025,1.042125,-0.18853125,-0.30262500000000003,1.29753125,0.017517340991921534,0.02342853909814269,True
15783,80892,0,80893,4373.0,42657.0,32244.0,-0.0025009999999999998,6.1e-05,-0.000244,0.1925,-0.9100000000000001,-3.8325000000000005,1.0863125,0.23321875,0.271625,1.3414375,1.04740625,-0.18840625,-0.30125,1.28646875,0.01743087145313677,0.023573890231983953,True
15784,80893,0,80894,4373.0,42658.0,32245.0,-0.00244,-0.0018909999999999999,-0.000976,0.15750000000000003,-1.0325000000000002,-3.6050000000000004,1.0729375,0.234875,0.270125,1.33984375,1.0431875,-0.18796875000000002,-0.302375,1.29553125,0.017481573354521555,0.023557368364203086,True
15785,80894,0,80895,4376.0,42659.0,32246.0,0.0,-0.001586,-0.0006709999999999999,0.47250000000000003,-1.6450000000000002,-3.7450000000000006,1.0715000000000001,0.23575000000000002,0.26728125,1.32,1.0421562500000001,-0.18784375,-0.30153125000000003,1.28865625,0.01751267100855156,0.02340644686741705,True
15786,80895,0,80896,4377.0,42662.0,32245.0,-0.000488,0.00061,-0.000976,0.47250000000000003,-1.8550000000000002,-3.9025000000000003,1.08196875,0.23728125,0.27037500000000003,1.332125,1.04259375,-0.18812500000000001,-0.30121875,1.28921875,0.017587400842355494,0.02352119685355287,True
15787,80896,0,80897,4377.0,42659.0,32243.0,0.001647,0.0013419999999999999,-0.0018909999999999999,0.47250000000000003,-1.9425000000000001,-3.7625,1.073,0.23578125,0.26753125,1.3283125,1.0465625,-0.18684375,-0.30275,1.28946875,0.017473342299984884,0.023465708613222787,True
15788,80897,0,80898,4378.0,42656.0,32238.0,0.002745,0.001281,-0.000366,0.2625,-1.8375000000000001,-3.6925000000000003,1.077375,0.23440625,0.27203125,1.33621875,1.04628125,-0.18796875000000002,-0.30090625,1.2933125,0.017462193885131427,0.02357679561847616,True
15789,80898,0,80899,4378.0,42653.0,32233.0,0.0018909999999999999,0.000976,0.000915,0.29750000000000004,-1.5925000000000002,-3.6575,1.0730625,0.2346875,0.26996875,1.3234062500000001,1.0423437500000001,-0.18678125,-0.3026875,1.28990625,0.0174255824139477,0.0235634947780981,True
15790,80899,0,80900,4378.0,42648.0,32230.0,0.000976,0.000305,0.000732,0.22750000000000004,-1.4175000000000002,-3.7450000000000006,1.07909375,0.2343125,0.2711875,1.334625,1.04384375,-0.18784375,-0.30178125,1.29484375,0.017453240328625823,0.023577232635982187,True
15791,80900,0,80901,4377.0,42647.0,32225.0,-0.000305,0.000366,0.000915,0.10500000000000001,-1.4525000000000001,-3.6750000000000003,1.07415625,0.23625000000000002,0.26728125,1.3309375,1.04240625,-0.18709375,-0.30428125,1.29296875,0.017502877955314498,0.023516947245662737,True
15792,80901,0,80902,4376.0,42645.0,32220.0,-0.000122,-0.000549,6.1e-05,0.12250000000000001,-1.4000000000000001,-3.6925000000000003,1.07371875,0.23178125,0.27084375,1.335,1.04340625,-0.19137500000000002,-0.30271875,1.28790625,0.01749202970066811,0.02360075454520906,True
15793,80902,0,80903,4373.0,42645.0,32218.0,-6.1e-05,-0.00061,-0.001098,0.07,-1.2425000000000002,-3.7800000000000002,1.07728125,0.23628125,0.2679375,1.328875,1.07059375,-0.1866875,-0.2914375,1.30384375,0.017487667544387794,0.02302766149594893,True
15794,80903,0,80904,4373.0,42645.0,32214.0,-0.000732,-0.00061,0.000122,0.052500000000000005,-1.0675000000000001,-3.8150000000000004,1.07353125,0.23153125,0.2698125,1.33871875,1.02878125,-0.18796875000000002,-0.3098125,1.27840625,0.01734333313953864,0.023843252596045323,True
15795,80904,0,80905,4370.0,42646.0,32210.0,-0.0023179999999999997,-0.0032329999999999998,0.002623,0.29750000000000004,-0.8400000000000001,-3.6400000000000006,1.0737812500000001,0.23109375000000001,0.26890625,1.3219687500000001,1.06521875,-0.18340625,-0.30871875,1.2876875,0.01713985183538816,0.02376205039601275,True
15796,80905,0,80906,4368.0,42645.0,32209.0,-0.005795,-0.0018909999999999999,0.001281,0.47250000000000003,-1.3125000000000002,-3.7975000000000003,1.07571875,0.23428125,0.26953125,1.3303125,1.05065625,-0.1870625,-0.29625,1.2979687500000001,0.017420211735095986,0.023286772650100325,True
15797,80906,0,80907,4365.0,42644.0,32207.0,-0.004392,0.00183,0.0,0.5950000000000001,-1.7325000000000002,-3.9725000000000006,1.0818125,0.23500000000000001,0.2673125,1.3285,1.03109375,-0.19503125000000002,-0.296,1.31134375,0.017773535630378656,0.023185400889035233,True
15798,80907,0,80908,4366.0,42645.0,32207.0,-0.000305,0.001769,-0.00183,0.5950000000000001,-1.8900000000000001,-3.8850000000000002,1.06834375,0.23275,0.27053125,1.33846875,1.02946875,-0.1968125,-0.301,1.27921875,0.017752854844000632,0.02351883667338793,True
15799,80908,0,80909,4366.0,42647.0,32208.0,0.002562,0.0034159999999999998,-0.000732,0.7875000000000001,-2.0825,-3.99,1.07403125,0.23534375000000002,0.26953125,1.3315937500000001,1.0674375,-0.18403125,-0.305375,1.2785625,0.017340988177891148,0.023653461425713444,True
15800,80909,0,80910,4362.0,42644.0,32212.0,0.0046359999999999995,0.002562,0.000732,0.56,-2.45,-3.9550000000000005,1.07625,0.23471875,0.2725625,1.33025,1.060875,-0.18646875000000002,-0.30275,1.29471875,0.017414179157509303,0.023672732509695406,True
15801,80910,0,80911,4360.0,42647.0,32215.0,0.00366,0.001464,0.000366,0.28,-2.3800000000000003,-4.077500000000001,1.0795000000000001,0.23428125,0.2708125,1.32990625,1.0305625,-0.19309375,-0.29746875,1.30934375,0.0176651652912311,0.023388495972445692,True
15802,80911,0,80912,4361.0,42647.0,32214.0,0.004331,-0.000976,-0.0040869999999999995,0.07,-2.205,-4.095000000000001,1.074125,0.231125,0.270625,1.3331250000000001,1.030375,-0.19221875,-0.30578125,1.27846875,0.017499170058554468,0.02371477979133051,True
15803,80912,0,80913,4360.0,42647.0,32214.0,0.003477,-0.002013,0.000366,0.0,-1.9775000000000003,-3.9025000000000003,1.074125,0.235125,0.26815625,1.33096875,1.05321875,-0.18459375,-0.30009375,1.285625,0.01735479844477437,0.023384683443865312,True
15804,80913,0,80914,4359.0,42647.0,32215.0,-0.0011589999999999999,-0.002623,0.0013419999999999999,-0.10500000000000001,-1.7325000000000002,-3.9200000000000004,1.0689375,0.23096875,0.271125,1.335375,1.03996875,-0.18934375,-0.299375,1.2942500000000001,0.01737593645962388,0.02347797011240001,True
15805,80914,0,80915,4359.0,42647.0,32216.0,-0.002928,-0.001098,-0.000244,0.1925,-1.54,-3.8675,1.07634375,0.233375,0.2716875,1.33465625,1.0442500000000001,-0.18821875,-0.3039375,1.2922500000000001,0.017429714620883358,0.023684433849453408,True
15806,80915,0,80916,4360.0,42648.0,32216.0,-0.0013419999999999999,-0.000488,-0.000183,0.49000000000000005,-1.4175000000000002,-3.8325000000000005,1.0739375,0.231875,0.2685,1.330625,1.0416875,-0.19040625,-0.30259375,1.28896875,0.017456558837245655,0.023499292128026456,True
15807,80916,0,80917,4359.0,42649.0,32215.0,-0.000488,0.000732,0.001952,0.7000000000000001,-1.1725,-3.8325000000000005,1.07703125,0.23334375000000002,0.27075,1.3364375,1.05084375,-0.18815625,-0.30115625,1.2974375,0.017425883793850554,0.023534116818001206,True
15808,80917,0,80918,4359.0,42648.0,32216.0,-0.0030499999999999998,0.001952,-0.000549,0.8225000000000001,-1.155,-4.0425,1.07353125,0.23450000000000001,0.26903125,1.33015625,1.04334375,-0.1866875,-0.304,1.28934375,0.017414021659642315,0.023577651826859777,True
15809,80918,0,80919,4359.0,42648.0,32215.0,-0.0032329999999999998,0.00122,-0.000244,0.7350000000000001,-1.435,-3.7975000000000003,1.07453125,0.23365625,0.26946875,1.3298125,1.0463125,-0.1906875,-0.3025,1.29003125,0.017541615962754265,0.023535387305832732,True
15810,80919,0,80920,4361.0,42649.0,32217.0,-0.000366,-0.000549,0.000183,0.6300000000000001,-1.8550000000000002,-3.8325000000000005,1.0779375,0.23403125,0.2706875,1.33446875,1.04528125,-0.1881875,-0.30178125,1.297125,0.01745557619809256,0.02355665801246565,True
15811,80920,0,80921,4361.0,42650.0,32218.0,0.003294,0.000122,0.000183,0.35000000000000003,-2.3800000000000003,-4.0075,1.0734062500000001,0.23315625,0.27228125000000003,1.33078125,1.0419375,-0.18984375,-0.3025625,1.28678125,0.017486677647514777,0.023653627060932363,True
15812,80921,0,80922,4360.0,42649.0,32219.0,0.00549,0.000732,-0.000122,0.035,-2.3800000000000003,-4.2875000000000005,1.07409375,0.23134375000000001,0.27309375,1.3306875,1.04709375,-0.18896875,-0.3018125,1.28903125,0.017376205837630013,0.023656928881333437,True
15813,80922,0,80923,4362.0,42653.0,32223.0,0.005612,-0.0015249999999999999,-0.00042699999999999997,-0.15750000000000003,-2.345,-4.322500000000001,1.0745625,0.23040625,0.2658125,1.330375,1.04334375,-0.18975,-0.30240625,1.289,0.017369185295424715,0.02338117238905098,True
15814,80923,0,80924,4362.0,42650.0,32224.0,0.000366,-0.0034159999999999998,-0.0006709999999999999,0.07,-1.5925000000000002,-3.9725000000000006,1.0737812500000001,0.23934375,0.2655,1.34040625,1.042625,-0.1885625,-0.30496875,1.2885625,0.0176904373709682,0.02347128094949721,True
15815,80924,0,80925,4360.0,42651.0,32222.0,-0.0034159999999999998,-0.002013,-0.0011589999999999999,0.3325,-1.1375000000000002,-3.7625,1.06946875,0.23734375,0.26759375,1.34046875,1.0421875,-0.18815625,-0.30334375,1.2888125,0.017591253984065032,0.023492137784538396,True
15816,80925,0,80926,4362.0,42650.0,32222.0,-0.005612,0.000244,0.001403,0.665,-0.7875000000000001,-3.6750000000000003,1.0693125,0.23578125,0.2729375,1.3388125,1.03684375,-0.18703125,-0.30446875,1.2951875,0.01748095893331266,0.02375720514360142,True
15817,80926,0,80927,4362.0,42651.0,32221.0,-0.005307,0.002013,0.000915,0.9450000000000001,-0.9275000000000001,-3.6750000000000003,1.089375,0.2285625,0.27225,1.3249375,1.04325,-0.18190625,-0.3020625,1.29021875,0.01697420979787315,0.023632253435279412,True
15818,80927,0,80928,4364.0,42653.0,32222.0,-0.003355,0.0032329999999999998,0.00042699999999999997,0.9800000000000001,-1.2775,-3.7450000000000006,1.0705625,0.22615625,0.26609375,1.3239687500000001,1.04740625,-0.18975,-0.30175,1.2885312500000001,0.017193491044760697,0.023366372792082875,True
15819,80928,0,80929,4364.0,42652.0,32222.0,0.003904,0.0028669999999999998,-0.0015249999999999999,0.6125,-2.6075000000000004,-4.025,1.0686875,0.23059375000000001,0.26409375,1.327375,1.04803125,-0.1895625,-0.29609375,1.2829375,0.0173693199287916,0.023056689925721085,True
15820,80929,0,80930,4362.0,42651.0,32221.0,0.00732,0.00244,-0.000183,0.22750000000000004,-2.7825,-4.0425,1.06525,0.23628125,0.27509375,1.3451875,1.042,-0.187125,-0.29603125,1.2963125,0.01750543936081696,0.023506925642433892,True
15821,80930,0,80931,4362.0,42652.0,32223.0,0.007442,-0.000183,-0.0008539999999999999,-0.10500000000000001,-2.5725000000000002,-4.0075,1.08415625,0.2350625,0.27284375,1.34159375,1.0423125,-0.18709375,-0.30440625,1.29421875,0.017453781523462282,0.023750837361023788,True
15822,80931,0,80932,4364.0,42649.0,32222.0,0.004148,-0.0028669999999999998,-0.00244,-0.24500000000000002,-1.995,-4.0600000000000005,1.0870312500000001,0.23478125,0.27209375,1.3259375,1.0424375000000001,-0.18278125,-0.30028125,1.2885,0.017266934505310468,0.02355425413028913,True
15823,80932,0,80933,4362.0,42650.0,32222.0,-6.1e-05,-0.003172,-0.0018909999999999999,-0.07,-1.2075,-3.9200000000000004,1.08428125,0.22815625,0.26465625,1.327375,1.0491875,-0.18862500000000001,-0.3018125,1.2906250000000001,0.01723046473290648,0.02330973255595647,True
15824,80933,0,80934,4362.0,42651.0,32222.0,-0.006588,-0.0017079999999999999,0.004148,0.42000000000000004,-0.052500000000000005,-3.6225000000000005,1.066875,0.23503125,0.27384375,1.32909375,1.043125,-0.186625,-0.3045,1.2963437500000001,0.017433447204808442,0.023795747701043014,True
15825,80934,0,80935,4364.0,42654.0,32222.0,-0.007869,-0.0008539999999999999,0.003294,0.5950000000000001,-0.36750000000000005,-3.7275000000000005,1.07303125,0.2323125,0.27103125,1.32234375,1.0466875,-0.18609375,-0.3015,1.28940625,0.017299455394693488,0.023559502499845685,True
15826,80935,0,80936,4364.0,42652.0,32224.0,-0.0060999999999999995,0.00042699999999999997,-6.1e-05,0.7350000000000001,-1.05,-3.6925000000000003,1.07975,0.23034375,0.27021875,1.3309375,1.0479375,-0.19028125,-0.30203125000000003,1.29,0.01738818146233831,0.02354741437508439,True
15827,80936,0,80937,4364.0,42652.0,32224.0,-0.0011589999999999999,0.0021349999999999997,-0.00061,0.7000000000000001,-1.4175000000000002,-3.6575,1.0784375,0.23484375000000002,0.26959375,1.322125,1.04978125,-0.19,-0.30165625,1.28928125,0.017562784208350557,0.02350662827765083,True
15828,80937,0,80938,4365.0,42652.0,32225.0,0.002928,0.0021349999999999997,0.000549,0.665,-1.9600000000000002,-3.7800000000000002,1.07375,0.233,0.26821875,1.32625,1.0445625,-0.19090625,-0.3020625,1.2809375,0.017523372031587284,0.023466372452955384,True
15829,80938,0,80939,4367.0,42656.0,32229.0,0.0048189999999999995,0.000366,-0.003172,0.17500000000000002,-2.8875,-4.0075,1.0739375,0.2370625,0.26846875,1.33315625,1.04228125,-0.19103125,-0.30296875,1.29346875,0.017696382827830048,0.023513073891435587,True
15830,80939,0,80940,4366.0,42654.0,32231.0,0.004697,-0.001037,-0.000488,-0.035,-2.5900000000000003,-3.9550000000000005,1.0733125000000001,0.23640625,0.2680625,1.33634375,1.0421562500000001,-0.187,-0.30246875,1.29646875,0.017505529830074005,0.02347626720022014,True
15831,80940,0,80941,4367.0,42656.0,32232.0,0.004941,-0.0018909999999999999,0.000488,-0.12250000000000001,-2.1175,-3.9200000000000004,1.07484375,0.23746875,0.27384375,1.3378125,1.0421562500000001,-0.18796875000000002,-0.30028125,1.297375,0.017588806418480263,0.02362626975768027,True
15832,80941,0,80942,4366.0,42655.0,32232.0,0.00183,-0.0018909999999999999,-0.000122,-0.12250000000000001,-1.4700000000000002,-3.7625,1.0650625,0.2335,0.27075,1.33771875,1.042625,-0.1873125,-0.3014375,1.29646875,0.017398067685279215,0.023545417837936546,True
15833,80942,0,80943,4367.0,42659.0,32236.0,-0.001647,-0.001098,-0.002196,0.22750000000000004,-0.8925000000000001,-3.7100000000000004,1.074875,0.2343125,0.26984375,1.3328125,1.04228125,-0.18778125,-0.30178125,1.29078125,0.0174507014776314,0.023521938335281493,True
15834,80943,0,80944,4370.0,42656.0,32234.0,-0.004026,0.0,-0.000793,0.6125,-0.3325,-3.4475000000000002,1.07084375,0.23171875,0.27046875,1.3312187500000001,1.042125,-0.18959375,-0.30140625,1.290125,0.01741709696964216,0.02353258877765561,True
15835,80944,0,80945,4371.0,42658.0,32238.0,-0.0025009999999999998,0.002013,0.0042699999999999995,0.6300000000000001,-0.5425000000000001,-3.6225000000000005,1.08115625,0.2333125,0.27053125,1.33478125,1.0445,-0.18734375,-0.30115625,1.296625,0.017391585216958765,0.0235251151887063,True
15836,80945,0,80946,4372.0,42660.0,32237.0,-0.0017079999999999999,0.0023179999999999997,0.00366,0.525,-0.8400000000000001,-3.7450000000000006,1.08228125,0.2343125,0.27037500000000003,1.3388125,1.04884375,-0.18828125,-0.30065625,1.29784375,0.017471011918219696,0.023498593787976408,True
15837,80946,0,80947,4373.0,42658.0,32236.0,-0.001098,0.00244,0.000183,0.36750000000000005,-1.3125000000000002,-3.8150000000000004,1.07503125,0.234375,0.267125,1.33021875,1.0351875,-0.18725,-0.30115625,1.2901875,0.017431704720462227,0.02338494696111425,True
15838,80947,0,80948,4374.0,42657.0,32239.0,-0.001586,0.0017079999999999999,0.00042699999999999997,0.3325,-1.5750000000000002,-3.8850000000000002,1.0744375,0.23118750000000002,0.27009375,1.33096875,1.0421562500000001,-0.19134375,-0.2959375,1.28884375,0.017466216608988495,0.023297361956088336,True
15839,80948,0,80949,4373.0,42659.0,32240.0,-0.001281,-0.002013,-0.000305,0.29750000000000004,-1.6450000000000002,-3.7450000000000006,1.08071875,0.23434375000000002,0.2711875,1.3376875,1.04915625,-0.1876875,-0.3013125,1.29525,0.017448185156187422,0.023558398337538353,True
15840,80949,0,80950,4376.0,42660.0,32241.0,-0.00061,-0.0018909999999999999,-0.001281,0.12250000000000001,-1.7675,-3.7625,1.07784375,0.2335625,0.2699375,1.3279375,1.04715625,-0.1870625,-0.3005,1.294375,0.017390495435317954,0.023474311228164027,True
15841,80950,0,80951,4377.0,42661.0,32241.0,0.001098,-0.00042699999999999997,-0.00183,0.0,-2.0125,-3.7625,1.07296875,0.23450000000000001,0.26987500000000003,1.334,1.0423125,-0.1874375,-0.3033125,1.2895,0.017444489520644757,0.02358474796388352,True
15842,80951,0,80952,4377.0,42660.0,32243.0,0.002562,-0.0013419999999999999,-0.0013419999999999999,0.12250000000000001,-1.8900000000000001,-3.7800000000000002,1.07453125,0.234875,0.2698125,1.33125,1.04196875,-0.1865625,-0.298,1.28975,0.017424447976019743,0.023368692896534697,True
15843,80952,0,80953,4378.0,42660.0,32245.0,0.003111,0.000366,6.1e-05,0.24500000000000002,-1.8375000000000001,-3.7450000000000006,1.07528125,0.230375,0.2708125,1.33421875,1.0430625,-0.1898125,-0.30203125000000003,1.2943437500000001,0.017370432284251894,0.023571846489169507,True
15844,80953,0,80954,4378.0,42663.0,32243.0,0.0042699999999999995,0.000183,0.000549,0.35000000000000003,-1.2600000000000002,-3.5875000000000004,1.074375,0.2351875,0.27025,1.3314062500000001,1.0422500000000001,-0.18775,-0.3045,1.29096875,0.017485607383903007,0.023647884136682507,True
15845,80954,0,80955,4378.0,42660.0,32244.0,0.002379,-0.000366,0.000793,0.22750000000000004,-1.33,-3.7450000000000006,1.0765,0.2320625,0.2704375,1.335,1.04209375,-0.19137500000000002,-0.30153125000000003,1.29821875,0.017503655745074433,0.023536325514467327,True
15846,80955,0,80956,4381.0,42662.0,32248.0,6.1e-05,-0.000549,6.1e-05,0.1925,-1.3475000000000001,-3.8325000000000005,1.0735937500000001,0.23384375000000002,0.27037500000000003,1.33146875,1.045,-0.18678125,-0.30584375,1.2882500000000001,0.017390697656390307,0.023707004616945256,True
15847,80956,0,80957,4381.0,42663.0,32248.0,-0.002074,-0.000732,-0.00061,0.22750000000000004,-1.4000000000000001,-3.8850000000000002,1.0763125,0.23471875,0.27109375,1.33384375,1.037625,-0.19275,-0.3005625,1.3006875,0.017669291419950193,0.023524404013281583,True
15848,80957,0,80958,4384.0,42663.0,32249.0,-0.0026839999999999998,-0.000122,0.0006709999999999999,0.1925,-1.12,-3.7975000000000003,1.07428125,0.232,0.27028125000000003,1.331625,1.04046875,-0.19134375,-0.30215625,1.29715625,0.01749980300288197,0.023555008621920125,True
15849,80958,0,80959,4384.0,42665.0,32248.0,-0.0034159999999999998,0.000183,0.000305,0.6300000000000001,-0.6475000000000001,-3.7800000000000002,1.075625,0.234,0.26525,1.33046875,1.04546875,-0.18671875000000002,-0.30362500000000003,1.28884375,0.01739461868923415,0.02340700204187647,True
15850,80959,0,80960,4386.0,42667.0,32249.0,-0.0037819999999999998,0.001647,0.001403,0.7000000000000001,-0.47250000000000003,-3.6225000000000005,1.07596875,0.2328125,0.26953125,1.323375,1.03959375,-0.18928125,-0.30115625,1.29228125,0.01744961934327834,0.023483964883358174,True
15851,80960,0,80961,4388.0,42667.0,32250.0,-0.0037819999999999998,0.0018909999999999999,0.000732,0.77,-0.665,-3.6225000000000005,1.0916875,0.23193750000000002,0.2790625,1.34775,1.05521875,-0.186375,-0.2926875,1.30115625,0.0172953780796006,0.023535889143595164,True
15852,80961,0,80962,4388.0,42666.0,32252.0,-0.0035989999999999998,0.000976,-0.000732,0.6825000000000001,-1.1375000000000002,-3.6400000000000006,1.0635625,0.2288125,0.25996875,1.31915625,1.0394375,-0.19103125,-0.30278125,1.28725,0.017355347345930115,0.023155785924707697,True
15853,80962,0,80963,4389.0,42666.0,32252.0,0.000366,0.000122,-0.000549,0.47250000000000003,-1.5925000000000002,-3.7625,1.0821875,0.23196875,0.27015625,1.32084375,1.04696875,-0.1891875,-0.30096875,1.28803125,0.01741092998679679,0.023502149477065602,True
15854,80963,0,80964,4391.0,42667.0,32251.0,0.005124,-0.002379,-0.000183,-0.24500000000000002,-2.0650000000000004,-3.99,1.09128125,0.230875,0.27496875,1.33775,1.05521875,-0.186875,-0.29475,1.3006875,0.017271764128272048,0.02345028246843454,True
15855,80964,0,80965,4392.0,42668.0,32257.0,0.0048189999999999995,-0.0032329999999999998,0.00042699999999999997,-0.35000000000000003,-2.0825,-3.8850000000000002,1.0805,0.22934375,0.273875,1.32125,1.050875,-0.18709375,-0.3003125,1.2949375,0.017217343443752933,0.023628811357878626,True
15856,80965,0,80966,4391.0,42666.0,32255.0,0.0030499999999999998,-0.0026839999999999998,0.000183,-0.1925,-1.9775000000000003,-3.7625,1.0894375,0.2199375,0.2759375,1.32040625,1.05321875,-0.1884375,-0.30062500000000003,1.29390625,0.016883066547808228,0.023726241609012117,True
15857,80966,0,80967,4393.0,42669.0,32260.0,0.001952,-0.000244,-0.0008539999999999999,0.10500000000000001,-1.5750000000000002,-3.6925000000000003,1.098,0.2295,0.27803125,1.3375937500000001,1.050375,-0.186125,-0.30012500000000003,1.29565625,0.017184439425497057,0.02379231588314875,True
15858,80967,0,80968,4396.0,42667.0,32261.0,0.000488,0.00042699999999999997,-0.000244,0.43750000000000006,-1.0850000000000002,-3.5875000000000004,1.0685,0.23109375000000001,0.26746875000000003,1.3195937500000001,1.04128125,-0.19,-0.29712500000000003,1.282,0.017407761471682513,0.023237059940219264,True
15859,80968,0,80969,4396.0,42668.0,32259.0,-0.0025009999999999998,0.003111,0.0011589999999999999,0.805,-0.6125,-3.4825000000000004,1.093375,0.23046875,0.27425,1.3358125,1.05084375,-0.18740625,-0.30259375,1.28759375,0.017276552751496452,0.02373589238802957,True
15860,80969,0,80970,4398.0,42667.0,32261.0,-0.002623,0.0006709999999999999,0.000488,0.6475000000000001,-0.9975,-3.3075,1.08434375,0.23759375,0.27628125,1.340625,1.0446875,-0.18734375,-0.303,1.29590625,0.017568588944373024,0.02383579187754598,True
15861,80970,0,80971,4398.0,42672.0,32262.0,-0.0013419999999999999,-0.001037,-0.0013419999999999999,0.45500000000000007,-1.6450000000000002,-3.5175000000000005,1.06753125,0.23365625,0.26871875,1.32878125,1.04221875,-0.18528125,-0.30321875,1.28896875,0.01732200240590545,0.02353340542597881,True
15862,80971,0,80972,4399.0,42672.0,32259.0,0.002074,0.000122,-6.1e-05,0.385,-2.0300000000000002,-3.6575,1.08009375,0.2308125,0.271,1.33040625,1.042875,-0.18953125,-0.30115625,1.284375,0.01737709365492562,0.023544404394338237,True
15863,80972,0,80973,4402.0,42669.0,32260.0,0.002013,0.000549,-0.000793,0.07,-1.8900000000000001,-3.8325000000000005,1.0793125000000001,0.2344375,0.26871875,1.33134375,1.05075,-0.1873125,-0.30128125,1.2943437500000001,0.017436827675666733,0.023455553398033287,True
15864,80973,0,80974,4401.0,42665.0,32257.0,0.000549,-0.0011589999999999999,-0.0013419999999999999,0.24500000000000002,-1.1025,-3.5175000000000005,1.07459375,0.23278125,0.2703125,1.325625,1.0424375000000001,-0.18875,-0.30284375,1.29,0.01742674797168105,0.023583917005597338,True
15865,80974,0,80975,4401.0,42664.0,32251.0,-0.002379,-0.001647,0.000488,0.42000000000000004,-0.43750000000000006,-3.2900000000000005,1.08090625,0.234125,0.27078125000000003,1.3389375000000001,1.04846875,-0.1913125,-0.30134375,1.28984375,0.017586375274181592,0.023542936797476474,True
15866,80975,0,80976,4402.0,42663.0,32246.0,-0.0051849999999999995,-0.0008539999999999999,0.001647,0.5950000000000001,-0.035,-3.2025,1.07403125,0.23484375000000002,0.27046875,1.33528125,1.04953125,-0.187125,-0.29825,1.29725,0.017446006914835888,0.02340574938524379,True
15867,80976,0,80977,4400.0,42660.0,32240.0,-0.008052,0.0013419999999999999,0.001098,0.8925000000000001,-0.15750000000000003,-3.3075,1.07515625,0.23528125,0.2716875,1.33928125,1.0461562500000001,-0.187375,-0.3013125,1.29559375,0.01747425051292255,0.023578973357920478,True
15868,80977,0,80978,4399.0,42661.0,32235.0,-0.003111,0.002379,0.0018909999999999999,0.8225000000000001,-0.385,-3.5000000000000004,1.0724375,0.2340625,0.27075,1.3386875,1.04515625,-0.18728125,-0.30112500000000003,1.29603125,0.01742005418653657,0.02353286113297224,True
15869,80978,0,80979,4398.0,42659.0,32232.0,0.000915,0.0011589999999999999,0.000488,0.385,-1.4000000000000001,-3.5875000000000004,1.074875,0.23365625,0.2674375,1.33090625,1.0334375,-0.1875,-0.30303125000000003,1.2891875,0.01741214470284238,0.023473152140229426,True
15870,80979,0,80980,4396.0,42659.0,32230.0,0.0051849999999999995,0.0,-0.000793,0.0175,-1.7850000000000001,-3.7100000000000004,1.07871875,0.2305,0.2728125,1.3368125,1.043,-0.19059375,-0.3018125,1.28971875,0.017407334204023,0.023645355670487537,True
15871,80980,0,80981,4393.0,42657.0,32229.0,0.0071979999999999995,-0.00122,-0.00042699999999999997,-0.21000000000000002,-1.8900000000000001,-3.7975000000000003,1.07796875,0.23415625,0.2686875,1.33021875,1.05146875,-0.1855625,-0.30134375,1.2983125,0.017354103300264365,0.023456779010419947,True
15872,80981,0,80982,4391.0,42655.0,32225.0,0.0062829999999999995,-0.002196,0.001098,-0.28,-1.9600000000000002,-3.8500000000000005,1.0735625,0.2308125,0.27065625,1.33509375,1.0366250000000001,-0.18928125,-0.302375,1.289375,0.017366938093706277,0.023579228367597814,True
15873,80982,0,80983,4389.0,42653.0,32222.0,0.002074,-0.0018909999999999999,-0.002379,-0.0175,-1.6625,-3.9550000000000005,1.074375,0.2340625,0.26978125000000003,1.32796875,1.04525,-0.18721875000000002,-0.3035625,1.29021875,0.017417515190745116,0.023590934456625443,True
15874,80983,0,80984,4385.0,42655.0,32223.0,0.001403,-0.0006709999999999999,0.000976,0.21000000000000002,-1.2600000000000002,-3.9550000000000005,1.08109375,0.2343125,0.26803125,1.3375625,1.0495,-0.1871875,-0.30065625,1.296375,0.017426581738782154,0.023402145775384152,True
15875,80984,0,80985,4384.0,42655.0,32224.0,-0.001769,-0.001281,0.00244,0.45500000000000007,-1.0675000000000001,-3.7800000000000002,1.073875,0.2318125,0.2701875,1.33146875,1.0428125,-0.18696875000000002,-0.30428125,1.28984375,0.017314333777356868,0.023636524943522044,True
15876,80985,0,80986,4382.0,42655.0,32223.0,-0.0060999999999999995,0.00042699999999999997,0.001037,0.6825000000000001,-1.225,-3.7625,1.070375,0.2336875,0.26928125,1.33084375,1.0483437500000001,-0.1875625,-0.301875,1.29521875,0.017415975669313518,0.02350255895892807,True
15877,80986,0,80987,4383.0,42655.0,32222.0,-0.005429,0.0018909999999999999,-0.000915,0.8575,-1.2600000000000002,-3.8325000000000005,1.07315625,0.23140625,0.2730625,1.33109375,1.04209375,-0.18915625,-0.3043125,1.28975,0.01738640635718743,0.023756072096258633,True
15878,80987,0,80988,4381.0,42655.0,32224.0,-0.00122,0.001769,0.0018909999999999999,0.8925000000000001,-1.8725000000000003,-3.8500000000000005,1.07390625,0.23328125,0.27378125000000003,1.33728125,1.0430625,-0.18915625,-0.30125,1.2934375,0.017463920429221257,0.023662620235584592,True
15879,80988,0,80989,4380.0,42656.0,32225.0,0.000488,0.000122,-0.002257,0.47250000000000003,-2.2925000000000004,-3.9725000000000006,1.0733125000000001,0.23453125,0.2676875,1.33115625,1.04821875,-0.18762500000000001,-0.304125,1.2896875,0.01745339817365285,0.023527384754645563,True
15880,80989,0,80990,4379.0,42657.0,32225.0,0.003355,0.000732,-0.005124,0.14,-2.3275,-4.0425,1.0694062500000001,0.23371875,0.27037500000000003,1.3356875000000001,1.0361875,-0.18978125,-0.3018125,1.297,0.017507392713607114,0.023545054509823086,True
15881,80990,0,80991,4378.0,42656.0,32225.0,0.005246,-0.00122,-0.001037,-0.14,-2.2225,-4.0600000000000005,1.0685,0.23240625,0.27090625,1.33515625,1.0363437500000001,-0.184,-0.30659375,1.28896875,0.017218253804168044,0.023758985151919938,True
15882,80991,0,80992,4376.0,42655.0,32227.0,0.0053679999999999995,-0.002562,-0.000366,-0.08750000000000001,-2.1,-4.0600000000000005,1.0737812500000001,0.2336875,0.2704375,1.325625,1.044875,-0.186125,-0.30975,1.2848125000000001,0.017357575882866728,0.02386645276072358,True
15883,80992,0,80993,4376.0,42654.0,32227.0,0.000549,-0.000549,-6.1e-05,0.14,-1.7675,-4.165,1.08175,0.23578125,0.27096875,1.33815625,1.04409375,-0.19453125000000002,-0.29953125,1.28378125,0.017785527462946815,0.02347781914517384,True
15884,80993,0,80994,4374.0,42657.0,32227.0,-0.000366,-0.000366,0.000366,0.28,-1.12,-4.130000000000001,1.075125,0.234625,0.26853125,1.322375,1.0569375,-0.18909375,-0.29909375,1.30453125,0.017516933638739567,0.023359924688549343,True
15885,80994,0,80995,4374.0,42656.0,32227.0,-0.002989,0.001037,6.1e-05,0.47250000000000003,-0.6825000000000001,-3.9725000000000006,1.0806875,0.23403125,0.27034375,1.3312187500000001,1.03603125,-0.1935625,-0.2993125,1.2896875,0.017673864690245598,0.023443307295216684,True
15886,80995,0,80996,4374.0,42654.0,32227.0,-0.005307,0.0017079999999999999,0.0025009999999999998,0.77,-0.6475000000000001,-3.7450000000000006,1.08,0.2344375,0.2675625,1.320875,1.025875,-0.19590625,-0.29846875,1.30334375,0.0177858082914336,0.023294934994617714,True
15887,80996,0,80997,4374.0,42656.0,32227.0,-0.006222,0.00183,0.00244,0.9100000000000001,-1.0150000000000001,-3.6225000000000005,1.0811250000000001,0.23500000000000001,0.27046875,1.3345625,1.03596875,-0.1928125,-0.2991875,1.3033125,0.017683454538408878,0.023443427892393523,True
15888,80997,0,80998,4373.0,42656.0,32227.0,0.0017079999999999999,0.00183,0.001098,0.525,-1.8900000000000001,-3.9025000000000003,1.0737812500000001,0.231,0.27059375,1.337625,1.0419375,-0.18246875,-0.3096875,1.28375,0.017097871779530368,0.023870370608425142,True
15889,80998,0,80999,4374.0,42659.0,32231.0,0.006039,-0.0008539999999999999,0.000549,0.21000000000000002,-2.31,-3.99,1.07353125,0.23484375000000002,0.26878125,1.3315000000000001,1.0540625000000001,-0.1845,-0.30209375,1.28959375,0.01733935992061031,0.02349077432885798,True
15890,80999,0,81000,4372.0,42657.0,32230.0,0.0051849999999999995,-0.0006709999999999999,-0.0013419999999999999,0.035,-2.6775,-4.0425,1.081375,0.234625,0.27,1.33315625,1.03725,-0.19137500000000002,-0.2988125,1.3043437500000001,0.01760958192744315,0.0234090657722471,True
15891,81000,0,81001,4373.0,42658.0,32233.0,0.0028669999999999998,-0.001098,-0.002074,-0.035,-2.5375,-4.1825,1.07428125,0.23340625,0.2705625,1.3366875,1.02365625,-0.19037500000000002,-0.30162500000000003,1.2848125000000001,0.017518589521658925,0.023545236172478178,True
15892,81001,0,81002,4371.0,42656.0,32235.0,0.00244,-0.002562,0.000183,0.0,-2.1700000000000004,-3.99,1.08059375,0.23440625,0.26778125,1.3206875,1.04725,-0.189,-0.2993125,1.29490625,0.01750408243416429,0.02333785163674898,True
15893,81002,0,81003,4373.0,42657.0,32235.0,-0.001098,0.000122,-0.000976,0.43750000000000006,-1.5750000000000002,-3.9200000000000004,1.07409375,0.231125,0.27040625,1.33871875,1.0388125,-0.1890625,-0.29846875,1.29240625,0.017370970867515018,0.023411969118424386,True
15894,81003,0,81004,4372.0,42658.0,32235.0,-0.001281,0.001586,-0.000122,0.6300000000000001,-1.2775,-3.8675,1.075,0.234125,0.2689375,1.3314375,1.04428125,-0.18659375,-0.30415625,1.289625,0.017394708587272652,0.023580071824135018,True
15895,81004,0,81005,4372.0,42656.0,32234.0,-0.000488,0.001769,0.000488,0.8575,-1.1025,-3.7800000000000002,1.08015625,0.2344375,0.27009375,1.33109375,1.0479687500000001,-0.1876875,-0.30103125000000003,1.29153125,0.017452061095133628,0.023502089031715478,True
15896,81005,0,81006,4372.0,42656.0,32233.0,-0.002989,0.00183,-0.000244,0.8925000000000001,-0.9625000000000001,-3.7100000000000004,1.0738125,0.23203125,0.27078125000000003,1.33778125,1.0423125,-0.19,-0.29790625,1.29178125,0.017446517155849522,0.02340479439457875,True
15897,81006,0,81007,4372.0,42658.0,32234.0,-0.000976,0.00183,-0.0006709999999999999,0.7875000000000001,-0.9625000000000001,-3.6225000000000005,1.074,0.23278125,0.27125,1.33309375,1.042875,-0.18778125,-0.298375,1.2902500000000001,0.017387394720216432,0.023442925710052628,True
15898,81007,0,81008,4372.0,42656.0,32233.0,-0.0017079999999999999,-0.000915,0.000976,0.42000000000000004,-1.1375000000000002,-3.7450000000000006,1.0748125,0.234875,0.2676875,1.32815625,1.05028125,-0.1865625,-0.3040625,1.2894375,0.017424447976019743,0.023524873670811207,True
15899,81008,0,81009,4373.0,42655.0,32233.0,-0.000793,-0.000305,0.000122,0.29750000000000004,-1.3650000000000002,-3.7975000000000003,1.08103125,0.23415625,0.26821875,1.33084375,1.04809375,-0.18734375,-0.30465625,1.28953125,0.01742646916323749,0.02357058639741099,True
15900,81009,0,81010,4373.0,42658.0,32232.0,0.000488,-0.0008539999999999999,0.000915,0.31500000000000006,-1.6275000000000002,-3.7800000000000002,1.0793125000000001,0.235125,0.268625,1.33115625,1.0498750000000001,-0.18709375,-0.30275,1.2898125,0.017456365546191344,0.023510713808108135,True
15901,81010,0,81011,4372.0,42656.0,32234.0,0.00042699999999999997,-0.000366,0.000793,0.4025,-1.995,-3.8850000000000002,1.08065625,0.23421875,0.26996875,1.341375,1.04259375,-0.19190625,-0.30115625,1.295375,0.017614362241503808,0.02350196814194798,True
15902,81011,0,81012,4373.0,42656.0,32235.0,0.000976,0.000793,-0.00061,0.49000000000000005,-2.2225,-3.9550000000000005,1.0734375,0.23168750000000002,0.2715625,1.33203125,1.04190625,-0.1904375,-0.30175,1.2965312500000001,0.017450077122416658,0.023591408026170956,True
15903,81012,0,81013,4374.0,42659.0,32237.0,0.003355,0.00042699999999999997,-0.0021349999999999997,0.31500000000000006,-2.345,-3.9725000000000006,1.07409375,0.232625,0.27178125000000003,1.32934375,1.04353125,-0.1900625,-0.30121875,1.296125,0.01747360098800902,0.02357906432161967,True
15904,81013,0,81014,4374.0,42658.0,32237.0,0.004148,-0.000244,-0.002745,0.21000000000000002,-2.1875,-3.8150000000000004,1.07290625,0.2335,0.27259375,1.3312187500000001,1.042625,-0.1908125,-0.30153125000000003,1.294,0.017540233508072538,0.02362505449116504,True
15905,81014,0,81015,4374.0,42655.0,32237.0,0.003477,-0.001464,6.1e-05,0.21000000000000002,-1.9600000000000002,-3.8325000000000005,1.06903125,0.22909375,0.27159375,1.33459375,1.04315625,-0.18887500000000002,-0.30134375,1.29578125,0.01727937946680034,0.023576371162602895,True
15906,81015,0,81016,4373.0,42657.0,32238.0,0.000549,-0.001281,0.000305,0.08750000000000001,-1.6975000000000002,-3.8325000000000005,1.07325,0.23565625,0.2688125,1.32834375,1.0429375,-0.1844375,-0.30375,1.2905625,0.01737041640931281,0.023558607210821376,True
15907,81016,0,81017,4374.0,42658.0,32238.0,-0.001769,-0.002196,-0.000488,0.17500000000000002,-1.33,-3.6925000000000003,1.0874062500000001,0.2349375,0.2708125,1.31646875,1.05078125,-0.18725,-0.30253125000000003,1.2922500000000001,0.01745496077478837,0.02359193551083285,True
15908,81017,0,81018,4374.0,42657.0,32239.0,-0.003111,0.000915,0.0011589999999999999,0.7000000000000001,-0.7525000000000001,-3.6575,1.07565625,0.22996875,0.2713125,1.33403125,1.0422500000000001,-0.1901875,-0.30212500000000003,1.295625,0.017368871159018508,0.023596187576189327,True
15909,81018,0,81019,4374.0,42658.0,32241.0,-0.002745,0.002623,0.001647,0.77,-0.805,-3.6400000000000006,1.072,0.23328125,0.2715,1.343375,1.02928125,-0.1889375,-0.30146875,1.2950625,0.01745503497208176,0.023577535822809064,True
15910,81019,0,81020,4375.0,42658.0,32241.0,-0.0034159999999999998,0.0030499999999999998,0.001098,0.8925000000000001,-0.7875000000000001,-3.6400000000000006,1.07171875,0.23303125,0.26603125,1.328,1.04290625,-0.18659375,-0.30162500000000003,1.2894375,0.017349487254690422,0.02335877744801016,True
15911,81020,0,81021,4376.0,42662.0,32242.0,-0.00244,0.003111,0.000244,0.77,-1.0850000000000002,-3.6050000000000004,1.0715625,0.2295625,0.26925,1.3291250000000001,1.0423125,-0.18762500000000001,-0.3019375,1.290875,0.017247972878693136,0.023503784420480876,True
15912,81021,0,81022,4376.0,42658.0,32245.0,-0.002013,0.002623,-0.000793,0.5075000000000001,-1.3825,-3.6750000000000003,1.0789375,0.22975,0.27178125000000003,1.33584375,1.046375,-0.18790625,-0.30103125000000003,1.29278125,0.017267151843702883,0.02357153052918279,True
15913,81022,0,81023,4375.0,42661.0,32244.0,0.002257,-0.002379,0.000732,-0.10500000000000001,-1.54,-3.8325000000000005,1.07496875,0.2350625,0.27146875,1.330125,1.0438125,-0.18703125,-0.30271875,1.289875,0.017451242595140734,0.023626471832498164,True
15914,81023,0,81024,4377.0,42659.0,32246.0,0.0026839999999999998,-0.0037819999999999998,-0.001403,-0.24500000000000002,-1.5050000000000001,-3.7275000000000005,1.0755000000000001,0.2339375,0.27134375,1.33765625,1.04278125,-0.18740625,-0.30128125,1.2961875,0.017419964160067806,0.023563572393945277,True
15915,81024,0,81025,4377.0,42661.0,32247.0,0.002074,-0.003904,-0.001281,-0.1925,-1.4525000000000001,-3.6925000000000003,1.076625,0.234375,0.27037500000000003,1.33690625,1.04528125,-0.1869375,-0.30146875,1.289375,0.01741900974441266,0.02353124232460229,True
15916,81025,0,81026,4376.0,42663.0,32248.0,0.0017079999999999999,-0.00244,0.00042699999999999997,0.0175,-1.3125000000000002,-3.6925000000000003,1.075,0.23471875,0.26959375,1.3371250000000001,1.044,-0.18359375,-0.30046875,1.309625,0.017297367145856887,0.023458909614655066,True
15917,81026,0,81027,4379.0,42663.0,32250.0,0.000732,-0.0008539999999999999,-0.000366,0.385,-1.225,-3.6925000000000003,1.07321875,0.23490625,0.2685,1.331,1.0324375000000001,-0.18734375,-0.2944375,1.3146875,0.017457477115485242,0.023171456429069415,True
15918,81027,0,81028,4379.0,42665.0,32251.0,-0.000915,0.003904,0.001098,0.8750000000000001,-1.33,-3.7275000000000005,1.07403125,0.233,0.27271875,1.3375000000000001,1.03490625,-0.18846875,-0.3125,1.27971875,0.017424366724330165,0.0240706940874036,True
15919,81028,0,81029,4379.0,42664.0,32253.0,-0.001037,0.003172,0.0015249999999999999,0.8925000000000001,-1.3125000000000002,-3.7625,1.0735000000000001,0.236375,0.26896875,1.332375,1.0650625,-0.1854375,-0.30453125000000003,1.29075,0.01744076368269129,0.02359642299211181,True
15920,81029,0,81030,4381.0,42665.0,32254.0,-0.00042699999999999997,0.002379,0.000183,0.6825000000000001,-1.435,-3.7275000000000005,1.07765625,0.2339375,0.271,1.33553125,1.0305625,-0.19575,-0.29921875000000003,1.29921875,0.017758800615810626,0.02346654663537279,True
15921,81030,0,81031,4382.0,42663.0,32253.0,-0.000305,-0.000793,0.00061,0.4025,-1.5925000000000002,-3.7975000000000003,1.07453125,0.23159375000000001,0.27021875,1.3244375,1.03896875,-0.19084375,-0.3024375,1.3015625,0.017462702184581718,0.023563737176569226,True
15922,81031,0,81032,4382.0,42664.0,32253.0,0.0008539999999999999,-0.0015249999999999999,-0.001403,0.08750000000000001,-1.6625,-3.9375000000000004,1.07309375,0.23425,0.27053125,1.3256875000000001,1.035125,-0.19021875,-0.31084375000000003,1.279875,0.017547123256171464,0.023914225519219175,True
15923,81032,0,81033,4383.0,42668.0,32255.0,0.001098,-0.002989,0.000976,-0.15750000000000003,-1.4175000000000002,-3.7275000000000005,1.078875,0.2344375,0.26834375,1.3311875,1.0673125,-0.186625,-0.30175,1.30221875,0.017408898513124507,0.023458958716964833,True
15924,81033,0,81034,4384.0,42667.0,32255.0,-0.0008539999999999999,-0.00244,-0.001769,0.12250000000000001,-1.2950000000000002,-3.7450000000000006,1.0791875,0.23471875,0.273625,1.33446875,1.03084375,-0.1985,-0.2976875,1.3029375,0.01790271091183338,0.023513040078402523,True
15925,81034,0,81035,4384.0,42666.0,32255.0,-0.003294,-6.1e-05,-0.0032329999999999998,0.5425000000000001,-1.2950000000000002,-3.7975000000000003,1.07409375,0.235625,0.26946875,1.3318125,1.03459375,-0.1831875,-0.30778125,1.2705625,0.01731833324287793,0.023747539689579853,True
15926,81035,0,81036,4385.0,42666.0,32255.0,-0.00244,0.000732,-0.0008539999999999999,0.7350000000000001,-0.9800000000000001,-3.6575,1.08015625,0.23259375000000002,0.2708125,1.33684375,1.02771875,-0.19371875,-0.2993125,1.2893125,0.017620792586918867,0.02346259796444858,True
15927,81036,0,81037,4387.0,42666.0,32256.0,-0.000732,0.0021349999999999997,0.002928,0.7350000000000001,-0.8400000000000001,-3.6925000000000003,1.075,0.23484375000000002,0.268125,1.32565625,1.06175,-0.18453125,-0.3033125,1.2875,0.017340629663847633,0.023512741318698842,True
15928,81037,0,81038,4388.0,42667.0,32257.0,-0.0011589999999999999,0.001464,0.000976,0.49000000000000005,-1.6450000000000002,-3.6925000000000003,1.08040625,0.23459375000000002,0.27096875,1.33609375,1.0401875,-0.18815625,-0.298375,1.297375,0.01747756197829258,0.023431350861940356,True
15929,81038,0,81039,4389.0,42668.0,32257.0,0.0008539999999999999,0.002623,-0.001281,0.3325,-1.8200000000000003,-3.7975000000000003,1.0753125000000001,0.234,0.27059375,1.33203125,1.0406875,-0.18984375,-0.30225,1.29078125,0.017521557988567,0.023571634313695237,True
15930,81039,0,81040,4388.0,42668.0,32258.0,0.003355,0.002562,-0.000793,0.31500000000000006,-1.6975000000000002,-3.8500000000000005,1.08065625,0.2335625,0.27165625,1.33634375,1.04959375,-0.18709375,-0.30140625,1.2974375,0.017391764977964748,0.02358145426254911,True
15931,81040,0,81041,4391.0,42668.0,32260.0,0.005246,-0.0008539999999999999,-0.001403,0.1925,-1.5750000000000002,-3.8500000000000005,1.0678750000000001,0.23509375000000002,0.26984375,1.3317812500000001,1.04303125,-0.18746875000000002,-0.30440625,1.29075,0.017470306809181928,0.023627402952911058,True
15932,81041,0,81042,4392.0,42668.0,32262.0,0.000305,-0.003111,-0.0011589999999999999,-0.17500000000000002,-1.6625,-3.8500000000000005,1.07465625,0.2374375,0.27103125,1.33725,1.042875,-0.18875,-0.3011875,1.2965312500000001,0.017619244483489227,0.023546946008296918,True
15933,81042,0,81043,4391.0,42668.0,32261.0,-0.001586,-0.0040869999999999995,0.002196,-0.21000000000000002,-1.0850000000000002,-3.6050000000000004,1.07446875,0.23484375000000002,0.2718125,1.32628125,1.02965625,-0.186,-0.30184375,1.28259375,0.017400303894815183,0.02360546203413064,True
15934,81043,0,81044,4392.0,42671.0,32263.0,-0.0028669999999999998,-0.003538,0.0032329999999999998,0.12250000000000001,-0.7350000000000001,-3.5000000000000004,1.07853125,0.23453125,0.2711875,1.33553125,1.049625,-0.18746875000000002,-0.30103125000000003,1.296125,0.017447050965182127,0.02354709740970355,True
15935,81044,0,81045,4393.0,42670.0,32263.0,-0.0023179999999999997,-0.0006709999999999999,0.001281,0.385,-0.7000000000000001,-3.5875000000000004,1.07453125,0.23228125,0.27046875,1.331625,1.0420625000000001,-0.18946875,-0.30228125,1.2910625,0.017435273356303037,0.02356774634068561,True
15936,81045,0,81046,4394.0,42670.0,32263.0,-0.002806,0.0015249999999999999,0.000122,0.7350000000000001,-0.7875000000000001,-3.6225000000000005,1.08253125,0.2336875,0.27121875,1.3286875,1.05140625,-0.1874375,-0.30175,1.29446875,0.01741089770257804,0.023577262954313994,True
15937,81046,0,81047,4396.0,42671.0,32266.0,-0.000793,0.0030499999999999998,-0.00061,0.8575,-1.1025,-3.43,1.0769375,0.23384375000000002,0.27159375,1.34290625,1.0415625,-0.1869375,-0.30134375,1.2943437500000001,0.017397045409324765,0.023576371162602895,True
15938,81047,0,81048,4397.0,42673.0,32267.0,-0.00122,0.0021349999999999997,-0.000244,0.8575,-1.54,-3.3425000000000002,1.08475,0.234875,0.2664375,1.32784375,1.0285312500000001,-0.1870625,-0.3048125,1.29065625,0.017444759982738704,0.02350357568074224,True
15939,81048,0,81049,4398.0,42674.0,32270.0,0.000976,0.0025009999999999998,-0.000122,0.6125,-1.9425000000000001,-3.4475000000000002,1.07665625,0.23815625,0.27325,1.34196875,1.05,-0.18746875000000002,-0.301875,1.28990625,0.017596921959847495,0.02366586940308104,True
15940,81049,0,81050,4399.0,42674.0,32270.0,0.003721,0.001098,0.000183,0.29750000000000004,-1.9075000000000002,-3.6750000000000003,1.069125,0.2376875,0.26465625,1.32278125,1.0429375,-0.18784375,-0.3034375,1.28965625,0.017592773229321033,0.02337503696750717,True
15941,81050,0,81051,4401.0,42676.0,32269.0,0.003294,-0.00061,-0.001098,0.12250000000000001,-1.8025000000000002,-3.7100000000000004,1.0674062500000001,0.228625,0.27228125000000003,1.3246875,1.04428125,-0.18934375,-0.30165625,1.28896875,0.017279044620629694,0.023617217447884854,True
15942,81051,0,81052,4401.0,42673.0,32272.0,-0.000122,-0.0040869999999999995,-0.002623,-0.15750000000000003,-1.4525000000000001,-3.5525,1.06915625,0.23690625,0.26578125,1.3255625,1.04309375,-0.19078125,-0.30203125000000003,1.278375,0.017679772123936673,0.0233648164698167,True
15943,81052,0,81053,4401.0,42673.0,32266.0,-0.0018909999999999999,-0.0040869999999999995,0.0021349999999999997,-0.052500000000000005,-1.0325000000000002,-3.4125000000000005,1.09096875,0.23475000000000001,0.27346875,1.34575,1.052,-0.18740625,-0.30378125,1.29421875,0.01745355602153497,0.023751448141428613,True
15944,81053,0,81054,4400.0,42670.0,32260.0,-0.0046359999999999995,-0.00183,0.003721,0.28,-0.805,-3.3600000000000003,1.0679375,0.2283125,0.27221875,1.32240625,1.0425,-0.18912500000000002,-0.3014375,1.29678125,0.017257238531778227,0.023605856649426604,True
15945,81054,0,81055,4402.0,42667.0,32255.0,-0.0055509999999999995,0.000549,-0.000366,0.6475000000000001,-0.8925000000000001,-3.325,1.09175,0.23625000000000002,0.2676875,1.33815625,1.04715625,-0.18659375,-0.3046875,1.28978125,0.01748256717628955,0.023549983927997432,True
15946,81055,0,81056,4399.0,42662.0,32248.0,-0.0057339999999999995,0.003172,-0.003355,0.9625000000000001,-1.0850000000000002,-3.3600000000000003,1.06728125,0.2343125,0.26375,1.326625,1.043,-0.1883125,-0.3008125,1.2902500000000001,0.01747228129287647,0.023232247892945965,True
15947,81056,0,81057,4398.0,42661.0,32244.0,0.002806,0.003477,0.006039,0.7875000000000001,-1.8200000000000003,-3.4475000000000002,1.08909375,0.23553125,0.26925,1.33753125,1.04978125,-0.18787500000000001,-0.304,1.28990625,0.017504896564911138,0.023586652402896646,True
15948,81057,0,81058,4396.0,42662.0,32243.0,0.0053679999999999995,0.001769,0.002013,0.1925,-2.2575000000000003,-3.5875000000000004,1.06809375,0.23290625,0.2715,1.3277812500000001,1.043375,-0.18987500000000002,-0.3025625,1.28890625,0.017477612017424645,0.02362148024513876,True
15949,81058,0,81059,4394.0,42663.0,32241.0,0.006405,-0.001037,-0.002928,-0.17500000000000002,-2.4850000000000003,-3.7975000000000003,1.08065625,0.23940625000000001,0.2694375,1.3297812500000001,1.05103125,-0.18762500000000001,-0.29740625,1.2913125,0.017654947519651062,0.023329393440915117,True
15950,81059,0,81060,4391.0,42659.0,32240.0,0.007625,-0.002013,-0.004941,-0.22750000000000004,-2.1,-3.6925000000000003,1.07440625,0.23171875,0.2704375,1.33665625,1.03640625,-0.19012500000000002,-0.30134375,1.297125,0.01743867590597403,0.023528791489153763,True
15951,81060,0,81061,4388.0,42656.0,32237.0,0.003477,-0.00244,-0.002196,-0.052500000000000005,-1.8025000000000002,-3.6225000000000005,1.0743125,0.23365625,0.26903125,1.33128125,1.042875,-0.1869375,-0.30340625,1.290375,0.01738929329105845,0.023553797114344823,True
15952,81061,0,81062,4385.0,42655.0,32237.0,-0.0037819999999999998,-0.0008539999999999999,-0.00122,0.24500000000000002,-1.4525000000000001,-3.6400000000000006,1.08190625,0.23434375000000002,0.27109375,1.33665625,1.05171875,-0.18675,-0.30190625,1.29709375,0.017410100571593954,0.023578397270790228,True
15953,81062,0,81063,4386.0,42659.0,32237.0,-0.004697,0.000244,0.0015249999999999999,0.45500000000000007,-1.0325000000000002,-3.5700000000000003,1.07459375,0.23715625,0.27009375,1.33165625,1.04321875,-0.18928125,-0.302,1.2890625,0.017629192682192655,0.023541015142786604,True
15954,81063,0,81064,4382.0,42656.0,32236.0,-0.0046359999999999995,-6.1e-05,0.0037819999999999998,0.6475000000000001,-0.8225000000000001,-3.4825000000000004,1.08025,0.23415625,0.2689375,1.33228125,1.05075,-0.1865625,-0.30203125000000003,1.29209375,0.017394731061927467,0.023494692444690195,True
15955,81064,0,81065,4380.0,42658.0,32236.0,-0.004331,0.001281,0.003538,0.6825000000000001,-0.7875000000000001,-3.4650000000000003,1.0745,0.23375,0.27037500000000003,1.3346875,1.03709375,-0.1899375,-0.302375,1.29371875,0.01751503078501133,0.023567655424624138,True
15956,81065,0,81066,4377.0,42658.0,32236.0,-0.0040869999999999995,0.00366,0.000732,0.8750000000000001,-0.9450000000000001,-3.535,1.08171875,0.24059375,0.2683125,1.331875,1.05028125,-0.1869375,-0.3033125,1.29075,0.017676121666912153,0.023520456316397202,True
15957,81066,0,81067,4378.0,42658.0,32240.0,0.002379,0.000488,0.000305,0.6475000000000001,-1.5050000000000001,-3.43,1.07440625,0.2341875,0.2715625,1.332125,1.043,-0.19046875,-0.30165625,1.29896875,0.017554692899450323,0.02358764127445017,True
15958,81067,0,81068,4376.0,42656.0,32237.0,0.002928,-0.000793,-0.001037,0.49000000000000005,-2.1175,-3.6050000000000004,1.0757812500000001,0.23478125,0.2716875,1.3380625,1.03175,-0.18653125,-0.30209375,1.2956875,0.017419302323478072,0.023610362790243124,True
15959,81068,0,81069,4373.0,42655.0,32237.0,0.003538,-0.001586,-0.0026839999999999998,-0.035,-2.6250000000000004,-3.7975000000000003,1.0745625,0.2348125,0.26803125,1.331,1.04378125,-0.1861875,-0.303875,1.2903437500000001,0.017406629300297953,0.023531484176905947,True
15960,81069,0,81070,4373.0,42656.0,32242.0,0.00549,-0.003294,-0.003538,-0.29750000000000004,-2.8000000000000003,-4.0075,1.07690625,0.23434375000000002,0.2711875,1.33734375,1.04371875,-0.1879375,-0.29709375,1.2962500000000001,0.017458340546811817,0.02338885694919789,True
15961,81070,0,81071,4372.0,42657.0,32241.0,0.005124,-0.003965,0.001586,-0.3325,-2.45,-3.9200000000000004,1.07471875,0.236125,0.27028125000000003,1.33103125,1.04240625,-0.1858125,-0.30312500000000003,1.29109375,0.017445661583624695,0.0235939308216536,True
15962,81071,0,81072,4373.0,42656.0,32241.0,-0.0011589999999999999,-0.000549,-0.003355,0.6125,-1.435,-3.7100000000000004,1.08165625,0.23500000000000001,0.27084375,1.33771875,1.04928125,-0.18684375,-0.30040625,1.29315625,0.01744104168200946,0.02350783744613323,True
15963,81072,0,81073,4370.0,42657.0,32241.0,-0.004331,0.002379,0.000366,0.9100000000000001,-0.8750000000000001,-3.5525,1.0765625,0.23521875,0.27028125000000003,1.332375,1.03309375,-0.18703125,-0.3025,1.29159375,0.01745770266865637,0.02356882008023866,True
15964,81073,0,81074,4371.0,42658.0,32242.0,-0.00488,0.003294,0.004575,1.0325000000000002,-0.7875000000000001,-3.4125000000000005,1.07459375,0.23490625,0.26865625,1.32071875,1.04290625,-0.18912500000000002,-0.30165625,1.287875,0.01752983003725848,0.023468050660127332,True
15965,81074,0,81075,4369.0,42656.0,32242.0,-0.004697,0.003172,0.0034159999999999998,1.12,-1.2600000000000002,-3.4125000000000005,1.06675,0.2320625,0.26921875,1.3319375,1.0431875,-0.18971875,-0.30378125,1.28859375,0.017436385034447745,0.023576578233068156,True
15966,81075,0,81076,4371.0,42657.0,32241.0,-0.002745,0.002989,-0.000244,1.0675000000000001,-2.1525000000000003,-3.5700000000000003,1.075,0.233875,0.27084375,1.33434375,1.04315625,-0.188,-0.30115625,1.29384375,0.017441499917314373,0.023537974659127592,True
15967,81076,0,81077,4371.0,42658.0,32242.0,0.006222,0.001952,0.000915,0.47250000000000003,-2.8350000000000004,-3.7275000000000005,1.073875,0.23678125,0.26890625,1.3318125,1.0374375,-0.1866875,-0.30309375,1.29115625,0.017508340073439158,0.023536098156227543,True
15968,81077,0,81078,4369.0,42658.0,32244.0,0.006954,-0.001098,-0.000183,0.21000000000000002,-2.9050000000000002,-3.6925000000000003,1.07778125,0.23509375000000002,0.27090625,1.335,1.0439375,-0.18178125,-0.30053125,1.29775,0.0172392180580163,0.023515432404384168,True
15969,81078,0,81079,4368.0,42657.0,32245.0,0.005063,-0.003721,-0.0037819999999999998,-0.052500000000000005,-2.8175000000000003,-3.7100000000000004,1.07421875,0.234375,0.27146875,1.3316875000000001,1.03584375,-0.1865,-0.305125,1.29115625,0.017401236226820747,0.023723134524097283,True
15970,81079,0,81080,4368.0,42658.0,32246.0,0.0034159999999999998,-0.0034159999999999998,-0.004392,-0.28,-2.2750000000000004,-3.6575,1.0748125,0.238125,0.2701875,1.332,1.04246875,-0.18787500000000001,-0.3060625,1.2880625,0.01761213004449544,0.023708076945823702,True
15971,81080,0,81081,4368.0,42657.0,32248.0,0.0011589999999999999,-0.004575,0.0008539999999999999,-0.10500000000000001,-1.54,-3.5000000000000004,1.080125,0.23440625,0.27196875,1.3360625,1.05021875,-0.19128125,-0.30012500000000003,1.29171875,0.0175967322937887,0.023542831569796453,True
15972,81081,0,81082,4368.0,42658.0,32244.0,-0.006344,-0.001769,0.00244,0.56,-0.8750000000000001,-3.4825000000000004,1.07471875,0.2350625,0.2723125,1.32165625,1.050875,-0.1859375,-0.30340625,1.29278125,0.017406809225402158,0.023688809053257712,True
15973,81082,0,81083,4367.0,42658.0,32246.0,-0.006771,0.000122,-0.000305,0.8575,-0.9275000000000001,-3.4475000000000002,1.0744375,0.23215625,0.26853125,1.324625,1.04059375,-0.1845625,-0.30165625,1.28784375,0.017230774796939165,0.023462906977790868,True
15974,81083,0,81084,4368.0,42659.0,32245.0,-0.003111,0.00183,-6.1e-05,0.9800000000000001,-1.12,-3.5175000000000005,1.108375,0.24259375,0.26784375,1.3440625,1.0488125,-0.1860625,-0.3036875,1.2883437500000001,0.017723275543507753,0.023516235962135378,True
15975,81084,0,81085,4366.0,42657.0,32243.0,-0.002257,0.0042699999999999995,0.001952,1.2775,-1.61,-3.6400000000000006,1.06121875,0.2346875,0.26128125,1.31903125,1.040625,-0.18715625,-0.30140625,1.2885625,0.017440816342351118,0.023154524236637542,True
15976,81085,0,81086,4368.0,42658.0,32245.0,-0.001464,0.0057339999999999995,-0.001098,1.225,-2.205,-3.6050000000000004,1.07984375,0.23275,0.274875,1.3363125,1.05465625,-0.18696875000000002,-0.2993125,1.2931875,0.01735309431860907,0.023629783764458356,True
15977,81086,0,81087,4367.0,42656.0,32245.0,0.005673,0.0028669999999999998,-0.0011589999999999999,0.7525000000000001,-2.2925000000000004,-3.5875000000000004,1.09665625,0.23878125,0.2673125,1.3374062500000001,1.03290625,-0.186125,-0.305,1.28928125,0.01756818217056267,0.02354710964822053,True
15978,81087,0,81088,4367.0,42658.0,32244.0,0.005063,-0.000244,-0.000976,0.4025,-2.24,-3.6050000000000004,1.0591875,0.2246875,0.27365625,1.32134375,1.03340625,-0.1889375,-0.296625,1.28840625,0.017099758929055894,0.023471624145328832,True
15979,81088,0,81089,4366.0,42657.0,32246.0,0.001952,-0.0011589999999999999,-0.002623,0.08750000000000001,-2.0300000000000002,-3.6225000000000005,1.09696875,0.23365625,0.27525,1.3375000000000001,1.0541875,-0.18703125,-0.29903125,1.2964375000000001,0.017393101933500004,0.023633915446732063,True
15980,81089,0,81090,4366.0,42657.0,32247.0,0.000488,-0.0026839999999999998,-0.001952,-0.035,-1.8900000000000001,-3.6400000000000006,1.096,0.23809375,0.27534375,1.35128125,1.04575,-0.186625,-0.3029375,1.28890625,0.01756006677244138,0.02379470588689125,True
15981,81090,0,81091,4365.0,42657.0,32250.0,0.000183,-0.002928,-0.000488,-0.12250000000000001,-1.5750000000000002,-3.3950000000000005,1.0709375,0.23809375,0.2675,1.34815625,1.0401875,-0.18534375,-0.30275,1.29421875,0.01750802074086708,0.023464422750511776,True
15982,81091,0,81092,4366.0,42656.0,32248.0,-0.002257,-0.001464,0.0008539999999999999,0.29750000000000004,-1.1725,-3.3775000000000004,1.0655000000000001,0.2388125,0.26084375,1.3205625,1.04303125,-0.18796875000000002,-0.30240625,1.28865625,0.01764436089739863,0.023176717326087823,True
15983,81092,0,81093,4365.0,42657.0,32249.0,-0.003355,-0.0006709999999999999,0.001098,0.5075000000000001,-1.1900000000000002,-3.4125000000000005,1.092375,0.23646875,0.27403125,1.32875,1.04875,-0.1868125,-0.30296875,1.28921875,0.017500497430159516,0.023741955393824055,True
15984,81093,0,81094,4365.0,42657.0,32247.0,-0.002562,0.000915,0.000488,0.6300000000000001,-1.1900000000000002,-3.3775000000000004,1.06853125,0.227125,0.27528125000000003,1.32996875,1.04309375,-0.19034375,-0.29421875000000003,1.29846875,0.017257660921002827,0.023441791063974846,True
15985,81094,0,81095,4365.0,42656.0,32250.0,-0.00122,0.000488,0.000976,0.49000000000000005,-1.3125000000000002,-3.3775000000000004,1.07075,0.234,0.27071875,1.33171875,1.04203125,-0.18725,-0.30371875,1.29096875,0.0174162006842448,0.02363578619012779,True
15986,81095,0,81096,4364.0,42657.0,32250.0,0.0006709999999999999,0.0008539999999999999,0.0008539999999999999,0.35000000000000003,-1.4175000000000002,-3.43,1.08178125,0.23453125,0.27025,1.33184375,1.03621875,-0.1875625,-0.298,1.298625,0.01745085930010517,0.023386698493703183,True
15987,81096,0,81097,4367.0,42659.0,32251.0,0.0013419999999999999,0.001098,-0.001952,0.28,-1.6625,-3.5000000000000004,1.07496875,0.23365625,0.27109375,1.32459375,1.04325,-0.18890625,-0.3004375,1.286125,0.01746926858257595,0.023519381081101937,True
15988,81097,0,81098,4367.0,42658.0,32253.0,0.0023179999999999997,0.0011589999999999999,0.000793,0.31500000000000006,-1.2425000000000002,-3.5175000000000005,1.07390625,0.23475000000000001,0.2709375,1.3319375,1.04321875,-0.18646875000000002,-0.30375,1.2903437500000001,0.017415471202260564,0.023646042277426324,True
15989,81098,0,81099,4367.0,42659.0,32254.0,0.0018909999999999999,0.00042699999999999997,6.1e-05,0.385,-0.9975,-3.4125000000000005,1.082,0.234875,0.26790625,1.3317812500000001,1.0495625,-0.18703125,-0.30359375,1.2896875,0.01744349050692197,0.02351504085686916,True
15990,81099,0,81100,4367.0,42665.0,32255.0,-0.001647,-0.000122,0.000488,0.47250000000000003,-0.9625000000000001,-3.3950000000000005,1.08171875,0.23453125,0.26915625,1.33090625,1.047625,-0.18965625,-0.29996875,1.296875,0.017535904421957217,0.023420812012361125,True
15991,81100,0,81101,4367.0,42663.0,32255.0,-0.00122,0.000305,0.001647,0.49000000000000005,-1.3125000000000002,-3.3775000000000004,1.06634375,0.23259375000000002,0.27165625,1.33675,1.043375,-0.1903125,-0.30109375,1.29009375,0.01748246327946363,0.023568898004848033,True
15992,81101,0,81102,4367.0,42664.0,32257.0,0.002562,0.000793,0.0011589999999999999,0.5425000000000001,-1.6450000000000002,-3.4475000000000002,1.07765625,0.23540625,0.27228125000000003,1.33271875,1.0483125,-0.186125,-0.30062500000000003,1.29646875,0.017428639354175175,0.023575782515881796,True
15993,81102,0,81103,4368.0,42663.0,32259.0,0.0032329999999999998,0.000549,0.000244,0.36750000000000005,-1.7850000000000001,-3.5875000000000004,1.075125,0.23509375000000002,0.2703125,1.32059375,1.04325,-0.187,-0.30378125,1.2899375,0.017451265142431886,0.023621581518307982,True
15994,81103,0,81104,4370.0,42665.0,32258.0,0.0026839999999999998,-0.00183,-0.000793,0.1925,-1.6800000000000002,-3.4825000000000004,1.07971875,0.23559375000000002,0.27115625,1.33709375,1.0471875,-0.1885,-0.3000625,1.29784375,0.017532866858217748,0.023506883984351894,True
15995,81104,0,81105,4370.0,42666.0,32258.0,-0.000183,-0.002257,-0.002379,0.035,-1.3650000000000002,-3.43,1.07490625,0.23796875,0.2724375,1.32665625,1.045125,-0.18703125,-0.3015625,1.29190625,0.017571399962531577,0.023619880408924328,True
15996,81105,0,81106,4372.0,42664.0,32259.0,-0.004514,-0.0006709999999999999,0.003355,0.15750000000000003,-0.9450000000000001,-3.22,1.07471875,0.2315,0.27121875,1.332,1.04346875,-0.19034375,-0.30162500000000003,1.2903125,0.017438518210391284,0.0235722405394701,True
15997,81106,0,81107,4373.0,42664.0,32261.0,-0.007869,-0.000244,-0.000488,0.7525000000000001,-0.35000000000000003,-3.2375000000000003,1.07590625,0.232875,0.2705625,1.331625,1.0421562500000001,-0.18775,-0.3024375,1.289875,0.017390001136939153,0.02357788184827139,True
15998,81107,0,81108,4373.0,42665.0,32260.0,-0.0062829999999999995,6.1e-05,0.0,0.9450000000000001,-0.24500000000000002,-3.1850000000000005,1.083375,0.234375,0.27037500000000003,1.3372187500000001,1.0505625,-0.18678125,-0.30046875,1.29540625,0.01741266213337089,0.02349105920024691,True
15999,81108,0,81109,4374.0,42667.0,32261.0,-0.003965,0.0032329999999999998,-0.00122,0.9450000000000001,-0.8925000000000001,-3.2900000000000005,1.0749375,0.2345625,0.27078125000000003,1.3385,1.0490625,-0.18634375,-0.3005,1.28953125,0.017402640694710213,0.023509032735951934,True
16000,81109,0,81110,4376.0,42668.0,32264.0,0.00183,0.003355,-0.000122,0.8400000000000001,-1.9775000000000003,-3.3075,1.07403125,0.23634375,0.27121875,1.33071875,1.043875,-0.18753125,-0.3018125,1.29121875,0.017524525162112194,0.02357977414236078,True
16001,81110,0,81111,4377.0,42670.0,32268.0,0.010248,0.001281,-0.000305,0.24500000000000002,-2.9400000000000004,-3.5175000000000005,1.072125,0.23168750000000002,0.27146875,1.3304375,1.0425625,-0.18862500000000001,-0.300375,1.29109375,0.01737645277480634,0.02353230145625325,True
16002,81111,0,81112,4377.0,42668.0,32268.0,0.009882,-0.000244,-0.00244,-0.15750000000000003,-2.6425,-3.6400000000000006,1.07684375,0.23525000000000001,0.2715,1.335875,1.04696875,-0.18759375,-0.3005,1.29553125,0.017481844385616077,0.023538610316660154,True
16003,81112,0,81113,4377.0,42668.0,32270.0,0.003721,-0.003355,-0.0034159999999999998,-0.385,-1.9075000000000002,-3.6750000000000003,1.07490625,0.23134375000000001,0.2693125,1.33175,1.0433125,-0.18696875000000002,-0.3024375,1.290125,0.01729495350673077,0.02352644667844532,True
16004,81113,0,81114,4378.0,42669.0,32269.0,-6.1e-05,-0.004941,-0.0006709999999999999,-0.5075000000000001,-1.1025,-3.3775000000000004,1.08190625,0.234875,0.27525,1.3372187500000001,1.04671875,-0.1889375,-0.3006875,1.29915625,0.017520922529152015,0.023700461149504515,True
16005,81114,0,81115,4379.0,42667.0,32270.0,-0.003965,-0.006161,0.0018909999999999999,-0.24500000000000002,-0.3325,-2.975,1.07271875,0.23509375000000002,0.26778125,1.33265625,1.0465,-0.1869375,-0.30584375,1.29075,0.017448726197766874,0.0236002915965425,True
16006,81115,0,81116,4381.0,42666.0,32270.0,-0.006588,-0.00122,0.00244,0.49000000000000005,-0.10500000000000001,-2.9400000000000004,1.0808125,0.2354375,0.2691875,1.3314062500000001,1.04728125,-0.1876875,-0.2970625,1.298125,0.0174934044438932,0.023305286390072875,True
16007,81116,0,81117,4381.0,42667.0,32270.0,-0.005429,0.003294,0.001464,0.8750000000000001,-0.43750000000000006,-3.0975,1.07475,0.2324375,0.27146875,1.3390312500000001,1.0365,-0.18796875000000002,-0.30259375,1.28515625,0.017380800113692887,0.023621449870962843,True
16008,81117,0,81118,4384.0,42669.0,32268.0,-0.00183,0.0050019999999999995,0.0015249999999999999,1.1725,-0.805,-2.9575000000000005,1.074375,0.2354375,0.269625,1.33203125,1.05946875,-0.18478125,-0.30365625,1.29365625,0.01737533805479427,0.023588271826384146,True
16009,81118,0,81119,4385.0,42670.0,32271.0,0.001281,0.005795,-0.000122,1.1725,-1.3650000000000002,-3.1325000000000003,1.08165625,0.23450000000000001,0.27178125000000003,1.34028125,1.02775,-0.19421875,-0.29884375,1.286,0.01771988401154718,0.023483627693190137,True
16010,81119,0,81120,4385.0,42668.0,32272.0,0.004148,0.004758,-0.004209,0.6825000000000001,-1.5225000000000002,-3.325,1.075375,0.24159375,0.27009375,1.3269375,1.0594375,-0.18509375,-0.304125,1.2851875,0.017642582013972966,0.023626390581845676,True
16011,81120,0,81121,4385.0,42670.0,32275.0,0.0042699999999999995,-0.001647,0.001281,-0.36750000000000005,-0.8750000000000001,-3.3075,1.08259375,0.2344375,0.27396875,1.3406875,1.0501562500000001,-0.19596875,-0.2985625,1.280875,0.017788345424276514,0.023562350653459435,True
16012,81121,0,81122,4387.0,42672.0,32275.0,0.00061,-0.004514,0.0025009999999999998,-0.56,-0.36750000000000005,-3.08,1.0755625,0.24115625000000002,0.27046875,1.3313125000000001,1.05903125,-0.18746875000000002,-0.29765625,1.30609375,0.01772095312784642,0.02338188482685444,True
16013,81122,0,81123,4387.0,42674.0,32276.0,-0.0050019999999999995,-0.0057339999999999995,0.000976,-0.49000000000000005,-0.21000000000000002,-2.9050000000000002,1.07428125,0.23359375000000002,0.2708125,1.3314062500000001,1.0346250000000001,-0.19128125,-0.30543750000000003,1.28428125,0.01756314581312224,0.02370868658504913,True
16014,81123,0,81124,4390.0,42672.0,32276.0,-0.006405,-0.0053679999999999995,0.0,-0.15750000000000003,-0.4025,-2.9050000000000002,1.08221875,0.23409375000000002,0.2713125,1.3375937500000001,1.0485625,-0.194625,-0.299,1.2806250000000001,0.017719586478401713,0.023470616074735585,True
16015,81124,0,81125,4387.0,42671.0,32275.0,-0.004514,-0.00122,0.000366,0.385,-0.24500000000000002,-2.87,1.07534375,0.23409375000000002,0.2683125,1.33134375,1.05803125,-0.1841875,-0.303,1.28696875,0.017295650308698608,0.023507900259227256,True
16016,81125,0,81126,4391.0,42673.0,32278.0,-0.000915,0.0050019999999999995,-0.001281,0.9800000000000001,-1.1025,-3.0275000000000003,1.077,0.2358125,0.2685625,1.33246875,1.041625,-0.19071875,-0.2986875,1.297625,0.017632020545069585,0.023344882311030175,True
16017,81126,0,81127,4394.0,42676.0,32281.0,0.000793,0.005978,-0.0057339999999999995,0.9625000000000001,-1.33,-2.9400000000000004,1.07453125,0.23234375000000002,0.27103125,1.33584375,1.04115625,-0.18653125,-0.30021875,1.289,0.017318523093302184,0.023508018832135002,True
16018,81127,0,81128,4391.0,42675.0,32278.0,0.002806,0.0050019999999999995,0.000183,0.7350000000000001,-1.3825,-2.6775,1.07615625,0.2375625,0.27003125,1.3311875,1.04671875,-0.1870625,-0.30196875,1.2889375,0.01755587310364787,0.023537187702128044,True
16019,81128,0,81129,4394.0,42677.0,32282.0,0.0037819999999999998,0.000488,0.00244,0.45500000000000007,-1.6275000000000002,-2.415,1.0796875000000001,0.235125,0.26996875,1.33071875,1.04984375,-0.1868125,-0.30034375,1.291125,0.017444940295460593,0.02346931820666117,True
16020,81129,0,81130,4395.0,42680.0,32286.0,0.002257,-0.002745,0.00366,0.14,-1.6800000000000002,-2.5900000000000003,1.07678125,0.234625,0.2764375,1.33640625,1.04303125,-0.18890625,-0.3001875,1.2935625,0.017509317933711865,0.02372924077231914,True
16021,81130,0,81131,4396.0,42679.0,32283.0,0.000366,-0.0023179999999999997,0.000244,-0.4025,-1.12,-3.5700000000000003,1.0755625,0.23550000000000001,0.26887500000000003,1.3315937500000001,1.04309375,-0.18640625,-0.30403125000000003,1.28959375,0.01744394126349383,0.023572478331141053,True
16022,81131,0,81132,4398.0,42678.0,32283.0,-0.002196,-0.003355,-0.001952,-0.29750000000000004,-0.8400000000000001,-3.3775000000000004,1.07903125,0.23765625,0.2716875,1.33675,1.04953125,-0.18740625,-0.2994375,1.29784375,0.01757371152601367,0.023503630485273583,True
16023,81132,0,81133,4401.0,42674.0,32279.0,-0.003294,-0.002989,-0.003843,0.15750000000000003,-0.7525000000000001,-3.0100000000000002,1.0756875000000001,0.23471875,0.2704375,1.3318125,1.02971875,-0.189,-0.303,1.28959375,0.017517001529620903,0.02359533802411225,True
16024,81133,0,81134,4398.0,42673.0,32273.0,-0.002074,-0.000549,0.000305,0.47250000000000003,-0.5950000000000001,-2.975,1.08203125,0.2345625,0.27209375,1.3375937500000001,1.050125,-0.18790625,-0.29940625,1.29096875,0.017466114910214686,0.02351909318771935,True
16025,81134,0,81135,4399.0,42672.0,32269.0,-0.002562,0.00042699999999999997,0.001098,0.6825000000000001,-0.6825000000000001,-2.9925,1.073625,0.2350625,0.26775,1.3314062500000001,1.0481562500000001,-0.18709375,-0.30490625,1.2900625000000001,0.017453781523462282,0.023561343710181974,True
16026,81135,0,81136,4399.0,42672.0,32267.0,0.000183,0.002928,0.000549,0.5075000000000001,-1.4175000000000002,-3.5525,1.08375,0.23453125,0.27184375,1.33290625,1.042625,-0.18996875,-0.3003125,1.2908125,0.017548596461084722,0.023545221897866536,True
16027,81136,0,81137,4399.0,42669.0,32263.0,0.0015249999999999999,0.002196,0.000366,0.28,-1.6275000000000002,-3.7275000000000005,1.08578125,0.23503125,0.2713125,1.3383125,1.05203125,-0.18665625,-0.3004375,1.28946875,0.017434716714924164,0.023528382976643936,True
16028,81137,0,81138,4397.0,42668.0,32258.0,0.002745,0.000488,-6.1e-05,0.12250000000000001,-1.7325000000000002,-3.6575,1.0864375,0.234375,0.27165625,1.3415000000000001,1.04878125,-0.1876875,-0.30084375,1.2959687500000001,0.017449477135836156,0.023558852766171957,True
16029,81138,0,81139,4395.0,42669.0,32257.0,0.00244,-0.000976,0.000122,-0.10500000000000001,-1.7500000000000002,-3.6050000000000004,1.07984375,0.2351875,0.27284375,1.3331250000000001,1.05153125,-0.1871875,-0.2990625,1.29859375,0.01746275791676895,0.023536144655786618,True
16030,81139,0,81140,4391.0,42666.0,32253.0,0.003904,-0.001464,-0.000183,-0.14,-1.5575,-3.6400000000000006,1.0717812500000001,0.24228125,0.26784375,1.3276875000000001,1.044125,-0.18725,-0.30259375,1.2936875,0.01775858148404635,0.023472288837482622,True
16031,81140,0,81141,4390.0,42666.0,32252.0,0.000488,-0.0021349999999999997,-0.000976,-0.035,-0.9975,-3.8675,1.07246875,0.2336875,0.2675625,1.33034375,1.042625,-0.18846875,-0.3009375,1.2900625000000001,0.017452789358565743,0.02339415917595772,True
16032,81141,0,81142,4387.0,42666.0,32252.0,-0.002013,-6.1e-05,-0.001098,0.4025,-0.7175,-3.8675,1.0721875,0.23628125,0.26703125,1.3308125,1.0433125,-0.18675,-0.3025,1.28725,0.01749020641466919,0.02343508898261496,True
16033,81142,0,81143,4385.0,42666.0,32249.0,-0.0040869999999999995,0.001647,0.0008539999999999999,0.5775,-0.4025,-3.6925000000000003,1.073125,0.2310625,0.26740625,1.3288125,1.04371875,-0.18778125,-0.30209375,1.28965625,0.017316336114954735,0.023434194841751032,True
16034,81143,0,81144,4383.0,42665.0,32249.0,-0.0046359999999999995,0.000732,0.000976,0.5775,-0.28,-3.5525,1.0694062500000001,0.229,0.27046875,1.32003125,1.0301875,-0.18846875,-0.30065625,1.28996875,0.017258998670595882,0.023502451708480095,True
16035,81144,0,81145,4382.0,42669.0,32249.0,-0.002989,0.000976,-6.1e-05,0.665,-0.385,-3.5700000000000003,1.0824375,0.24003125,0.2711875,1.33859375,1.0478125,-0.18759375,-0.29996875,1.2934375,0.01767951803804378,0.023504402654838805,True
16036,81145,0,81146,4382.0,42667.0,32249.0,-0.0008539999999999999,0.0021349999999999997,-0.000793,0.28,-0.7525000000000001,-3.6575,1.086375,0.23571875,0.2723125,1.3374062500000001,1.0470625,-0.18678125,-0.3003125,1.293875,0.017468219339851185,0.023564511773253943,True
16037,81146,0,81147,4378.0,42667.0,32250.0,0.000976,0.000366,-0.000793,0.12250000000000001,-0.9800000000000001,-3.7275000000000005,1.0725,0.235375,0.2695,1.33596875,1.0431875,-0.186375,-0.30125,1.29221875,0.01743750355313684,0.023486446170464487,True
16038,81147,0,81148,4378.0,42666.0,32252.0,0.001403,-0.000976,0.0006709999999999999,-0.035,-1.155,-3.6225000000000005,1.0779375,0.235375,0.27175,1.3371250000000001,1.045625,-0.18628125,-0.30015625,1.29540625,0.017433694979462788,0.023535085293947444,True
16039,81148,0,81149,4376.0,42666.0,32250.0,0.003294,-0.0032329999999999998,0.001098,-0.22750000000000004,-1.2950000000000002,-3.4825000000000004,1.0744375,0.24309375,0.2731875,1.33853125,1.0441875,-0.18621875000000002,-0.30153125000000003,1.2945312500000001,0.017750294266233743,0.023649487107936875,True
16040,81149,0,81150,4377.0,42669.0,32252.0,0.0017079999999999999,-0.004209,0.000793,-0.42000000000000004,-1.54,-3.6050000000000004,1.07528125,0.235125,0.2716875,1.33928125,1.04409375,-0.18665625,-0.29862500000000003,1.304375,0.01743859281912935,0.023470978296097,True
16041,81150,0,81151,4375.0,42667.0,32253.0,0.0025009999999999998,-0.000183,0.00042699999999999997,-0.15750000000000003,-1.2775,-4.077500000000001,1.075875,0.23484375000000002,0.27137500000000003,1.32653125,1.056625,-0.1809375,-0.30209375,1.2813125,0.01719458767882759,0.023597503815900634,True
16042,81151,0,81152,4375.0,42667.0,32251.0,-6.1e-05,0.001464,-0.000183,0.385,-0.9975,-3.99,1.08196875,0.23396875,0.27146875,1.33221875,1.05071875,-0.19834375,-0.30709375,1.28521875,0.017865375600344548,0.023802207945982846,True
16043,81152,0,81153,4374.0,42668.0,32253.0,-0.003843,0.003294,-0.00042699999999999997,0.9100000000000001,-0.5775,-3.7800000000000002,1.0778125,0.2326875,0.271125,1.3318125,1.03040625,-0.18675,-0.3086875,1.27846875,0.017341622996061894,0.023852069347635493,True
16044,81153,0,81154,4371.0,42666.0,32254.0,-0.0046359999999999995,0.002989,0.000549,1.05,-0.5075000000000001,-3.6225000000000005,1.0830625,0.2348125,0.2715,1.32471875,1.04775,-0.19503125000000002,-0.29034375,1.30190625,0.01776578610535996,0.023130333427249253,True
16045,81154,0,81155,4373.0,42668.0,32255.0,-0.005124,0.0028669999999999998,-0.000122,1.0325000000000002,-0.5950000000000001,-3.6225000000000005,1.07478125,0.23384375000000002,0.26759375,1.3314375,1.0485,-0.18365625,-0.302375,1.29184375,0.0172637253723783,0.023453211877439963,True
16046,81155,0,81156,4374.0,42672.0,32257.0,-0.000549,0.0,-0.002074,0.28,-1.5225000000000002,-3.9200000000000004,1.0795625,0.2345625,0.2706875,1.3231875,1.027125,-0.1924375,-0.30965625,1.2786250000000001,0.0176501437691014,0.023872972288532465,True
16047,81156,0,81157,4374.0,42672.0,32255.0,0.0025009999999999998,-0.000915,-0.0023179999999999997,-0.0175,-1.9425000000000001,-4.077500000000001,1.08228125,0.2350625,0.27521875,1.33234375,1.03996875,-0.19325,-0.30259375,1.27209375,0.01770380168022072,0.023775754388356184,True
16048,81157,0,81158,4373.0,42671.0,32255.0,0.0018909999999999999,-0.001464,-0.00042699999999999997,-0.052500000000000005,-1.8725000000000003,-4.112500000000001,1.06925,0.23246875,0.27,1.33275,1.025625,-0.19025,-0.3071875,1.28203125,0.017474757391924434,0.023745548513171257,True
16049,81158,0,81159,4374.0,42671.0,32257.0,0.0017079999999999999,-0.004026,0.002074,-0.12250000000000001,-1.8375000000000001,-4.025,1.0755625,0.2315,0.26946875,1.3266875,1.02978125,-0.18878125,-0.306375,1.29759375,0.017375048608536243,0.023691058415744842,True
16050,81159,0,81160,4374.0,42671.0,32255.0,-0.00042699999999999997,-0.002257,0.000793,-0.08750000000000001,-1.8725000000000003,-3.99,1.0755625,0.23646875,0.26871875,1.3335937500000001,1.03553125,-0.18321875,-0.3001875,1.309625,0.017354492978731376,0.023411599190335464,True
16051,81160,0,81161,4374.0,42670.0,32256.0,0.001464,-0.000549,0.0006709999999999999,0.0175,-1.6800000000000002,-4.095000000000001,1.074875,0.23271875,0.26815625,1.3318125,1.0326875,-0.18937500000000002,-0.30062500000000003,1.29046875,0.017449551714337392,0.023406033795427075,True
16052,81161,0,81162,4373.0,42670.0,32255.0,0.0034159999999999998,-0.000183,0.00061,0.10500000000000001,-1.5575,-4.165,1.074125,0.23309375000000002,0.2690625,1.3323125,1.0303125,-0.18484375,-0.30021875,1.2893125,0.017280967548115752,0.023427001042943287,True
16053,81162,0,81163,4373.0,42671.0,32257.0,0.002989,0.002013,0.000366,0.24500000000000002,-1.54,-4.077500000000001,1.074625,0.2339375,0.27153125,1.324,1.03990625,-0.18903125,-0.30034375,1.28771875,0.017485973110229456,0.02353361770859723,True
16054,81163,0,81164,4373.0,42669.0,32256.0,0.003477,0.00183,0.0013419999999999999,0.42000000000000004,-1.4525000000000001,-4.025,1.08071875,0.23459375000000002,0.27078125000000003,1.3354375,1.05096875,-0.18525,-0.30390625,1.29384375,0.017359495973785676,0.02364589025683886,True
16055,81164,0,81165,4374.0,42669.0,32258.0,0.00061,0.0025009999999999998,-0.000976,0.385,-1.3825,-4.0075,1.074125,0.23409375000000002,0.27171875,1.332,1.043375,-0.18896875,-0.30096875,1.29003125,0.01748989402452306,0.023566447325273816,True
16056,81165,0,81166,4375.0,42670.0,32257.0,-0.000183,0.0011589999999999999,-0.000244,0.3325,-0.9450000000000001,-3.99,1.07875,0.239875,0.27137500000000003,1.33615625,1.04909375,-0.18075,-0.2930625,1.29778125,0.017395035307010743,0.023234513968751366,True
16057,81166,0,81167,4373.0,42670.0,32253.0,-0.002562,-0.00042699999999999997,0.000122,0.36750000000000005,-0.9625000000000001,-3.9200000000000004,1.07459375,0.23425,0.27128125000000003,1.3329375,1.04296875,-0.18965625,-0.3029375,1.2903437500000001,0.017524277551484432,0.023627545024135457,True
16058,81167,0,81168,4373.0,42670.0,32255.0,-0.0035989999999999998,-0.000915,0.000244,0.35000000000000003,-1.0325000000000002,-3.8675,1.0791875,0.23465625,0.272,1.3370312500000001,1.05278125,-0.18659375,-0.3001875,1.29671875,0.017416673234526874,0.02354662901263622,True
16059,81168,0,81169,4373.0,42669.0,32255.0,-0.004514,-0.000732,0.000122,0.2625,-0.9975,-3.7975000000000003,1.0749375,0.23596875,0.26884375,1.3314375,1.04340625,-0.18640625,-0.297875,1.2901562500000001,0.017463321984844276,0.0233237988918784,True
16060,81169,0,81170,4372.0,42669.0,32255.0,-0.002196,-0.001281,6.1e-05,0.17500000000000002,-1.2600000000000002,-3.8675,1.07515625,0.23184375000000002,0.27209375,1.3325,1.04271875,-0.1894375,-0.296875,1.291,0.017415917587996828,0.023417363344051447,True
16061,81170,0,81171,4372.0,42672.0,32253.0,-0.000976,-0.000793,-0.0008539999999999999,0.0175,-1.4700000000000002,-3.9025000000000003,1.0815000000000001,0.23534375000000002,0.26803125,1.3265625,1.0495,-0.18703125,-0.30440625,1.29103125,0.017462870727468882,0.023552827998009618,True
16062,81171,0,81172,4372.0,42672.0,32256.0,0.001647,-0.000915,0.000793,0.0,-1.6450000000000002,-3.9025000000000003,1.07534375,0.2391875,0.26446875000000003,1.329875,1.0434375,-0.18975,-0.30090625,1.2901562500000001,0.017732200622164344,0.023265593232762664,True
16063,81172,0,81173,4375.0,42672.0,32257.0,0.001037,-0.000183,0.000122,0.0,-1.8025000000000002,-4.0425,1.0894062500000001,0.237875,0.2764375,1.3439375,1.0498750000000001,-0.18640625,-0.302,1.29196875,0.017542136918336098,0.02380205332894412,True
16064,81173,0,81174,4373.0,42674.0,32257.0,0.002989,0.0006709999999999999,-0.000732,0.035,-1.8025000000000002,-4.0075,1.069625,0.23828125,0.26446875000000003,1.3273125000000001,1.043375,-0.18328125,-0.3008125,1.2803125,0.01743198103028306,0.023261825093296776,True
16065,81174,0,81175,4373.0,42674.0,32257.0,0.0032329999999999998,0.000732,-0.000549,0.10500000000000001,-1.5575,-3.9200000000000004,1.0813125000000001,0.233,0.27546875,1.3259375,1.0504375,-0.18659375,-0.29990625,1.2954375,0.01734819521661664,0.02367807488969222,True
16066,81175,0,81176,4374.0,42677.0,32261.0,0.002379,0.0006709999999999999,-0.000122,0.08750000000000001,-1.33,-3.9200000000000004,1.08475,0.236625,0.26675,1.32615625,1.04375,-0.1858125,-0.30321875,1.2901562500000001,0.01746633486057167,0.02345239763765859,True
16067,81176,0,81177,4374.0,42673.0,32262.0,0.000122,-0.000793,0.000183,0.07,-1.1900000000000002,-3.9025000000000003,1.0754375,0.2359375,0.27296875,1.33428125,1.04953125,-0.18471875000000001,-0.30003125,1.29540625,0.017393472892877865,0.023580216589227636,True
16068,81177,0,81178,4375.0,42675.0,32261.0,-0.001952,-0.00061,0.001037,0.12250000000000001,-0.8400000000000001,-3.9025000000000003,1.0698750000000001,0.2370625,0.2645,1.32646875,1.0300625,-0.18753125,-0.30096875,1.29046875,0.017554240885993687,0.02326939126655187,True
16069,81178,0,81179,4375.0,42675.0,32261.0,-0.003294,0.000122,0.001403,0.22750000000000004,-0.9100000000000001,-3.9550000000000005,1.08390625,0.2340625,0.274375,1.3444375,1.0504375,-0.1869375,-0.2970625,1.29771875,0.017406089547302137,0.02351878956561107,True
16070,81179,0,81180,4376.0,42678.0,32261.0,-0.003172,-0.000488,0.000915,0.21000000000000002,-1.12,-3.8150000000000004,1.08625,0.23650000000000002,0.28040625,1.3488125,1.0386250000000001,-0.1861875,-0.30346875,1.29275,0.017476400528194037,0.0240243483761963,True
16071,81180,0,81181,4377.0,42676.0,32259.0,0.000549,-6.1e-05,0.0013419999999999999,0.07,-1.1900000000000002,-3.8150000000000004,1.0685,0.2378125,0.26628125,1.3348125,1.0325,-0.18703125,-0.30371875,1.28996875,0.01756493988901594,0.023453200963329944,True
16072,81181,0,81182,4378.0,42677.0,32263.0,0.000366,-0.0011589999999999999,-0.000244,0.0,-1.5225000000000002,-3.8150000000000004,1.06090625,0.237125,0.2694375,1.32953125,1.03596875,-0.18909375,-0.30446875,1.290375,0.01762028600182675,0.023613198704456356,True
16073,81182,0,81183,4379.0,42677.0,32265.0,0.000976,-0.00061,-0.00061,0.08750000000000001,-1.7675,-3.8675,1.068375,0.236875,0.270125,1.338125,1.042625,-0.18946875,-0.304125,1.2899375,0.017625180379374807,0.02362767637180931,True
