frame_seq,absolute_seq_u64,segment_id,sample_seq,PPG_G,PPG_R,PPG_IR,ACC_X,ACC_Y,ACC_Z,GYRO_X,GYRO_Y,GYRO_Z,Uh1,Uh2,Uh3,Uh4,Uc1,Uc2,Uc3,Uc4,UD1,UD2,parser_valid
21983,112993,0,112994,3728.0,42414.0,30392.0,-0.000976,-0.0023179999999999997,-0.000183,0.07,-1.4875,-4.077500000000001,1.12790625,0.13165625,-0.0125,1.36196875,1.0806875,-0.36803125000000003,-0.727125,1.3344375,0.02050586257353064,0.028900448394222945,True
21984,112994,0,112995,3724.0,42416.0,30392.0,-0.0034159999999999998,-0.000549,0.000366,0.22750000000000004,-1.0675000000000001,-3.8850000000000002,1.11415625,0.13378125,-0.012,1.3635625,1.08096875,-0.36784375,-0.72778125,1.3349375,0.020585530880219964,0.02894644055458878,True
21985,112995,0,112996,3723.0,42415.0,30390.0,-0.0051849999999999995,0.000244,0.00122,0.385,-0.805,-3.7450000000000006,1.12175,0.13140625,-0.014375,1.37490625,1.07825,-0.36940625,-0.730125,1.33675,0.02055087000734784,0.028942433570392386,True
21986,112996,0,112997,3721.0,42414.0,30388.0,-0.003355,0.003111,0.002379,0.8575,-1.3125000000000002,-3.6750000000000003,1.12825,0.12796875,-0.015875,1.36821875,1.08096875,-0.36762500000000004,-0.728,1.3356875000000001,0.02033820489276243,0.02879832578453575,True
21987,112997,0,112998,3717.0,42412.0,30388.0,-0.000305,0.0021349999999999997,0.000915,0.77,-1.9250000000000003,-3.7450000000000006,1.11834375,0.13253125,-0.012937500000000001,1.36490625,1.08115625,-0.36721875,-0.72871875,1.33478125,0.0205091112419221,0.028945343154909712,True
21988,112998,0,112999,3715.0,42415.0,30390.0,0.0026839999999999998,0.002379,-0.000915,0.7350000000000001,-2.4325,-3.8675,1.1159375,0.13375,-0.0123125,1.3606562500000001,1.08028125,-0.3675625,-0.7251875,1.33515625,0.02057294405215951,0.02883193504599308,True
21989,112999,0,113000,3715.0,42416.0,30390.0,0.005124,0.000488,-0.003294,0.6125,-2.5900000000000003,-3.99,1.1246875,0.13246875,-0.01434375,1.37109375,1.0826875,-0.36871875,-0.73,1.34040625,0.020566838377581918,0.02893878892033967,True
21990,113000,0,113001,3712.0,42416.0,30392.0,0.0035989999999999998,-0.00042699999999999997,-0.0025009999999999998,0.49000000000000005,-2.3975000000000004,-3.9375000000000004,1.1173125,0.13315625,-0.0155,1.3718125,1.08103125,-0.36734375,-0.72753125,1.3491875,0.020539784932446733,0.028795080382316776,True
21991,113001,0,113002,3714.0,42416.0,30390.0,-0.000305,-0.002989,0.0,0.47250000000000003,-1.4175000000000002,-3.7100000000000004,1.11796875,0.13353125,-0.01215625,1.36859375,1.0821875,-0.36740625,-0.71721875,1.33478125,0.02055768656132616,0.028525155161318465,True
21992,113002,0,113003,3715.0,42416.0,30389.0,-0.002989,-0.00183,0.001464,0.43750000000000006,-1.2600000000000002,-3.6925000000000003,1.115,0.13209375,-0.01228125,1.36746875,1.07478125,-0.37490625,-0.73209375,1.3174062500000001,0.020800080000307693,0.029104389918463733,True
21993,113003,0,113004,3714.0,42415.0,30391.0,-0.002562,-0.000793,0.001647,0.5425000000000001,-1.4875,-3.6575,1.1274375,0.133125,-0.01240625,1.37171875,1.0784375,-0.37365625,-0.72578125,1.32425,0.02079217187614189,0.028851464501248068,True
21994,113004,0,113005,3716.0,42417.0,30396.0,-0.00122,0.001769,0.00061,0.6825000000000001,-1.8725000000000003,-3.5875000000000004,1.12159375,0.13834375000000002,-0.01234375,1.3675,1.0911250000000001,-0.375,-0.72490625,1.3291250000000001,0.021060256410256408,0.028819623936895616,True
21995,113005,0,113006,3716.0,42420.0,30396.0,0.003172,0.002562,-0.000183,0.805,-2.2750000000000004,-3.7275000000000005,1.1175,0.13309375,-0.011625,1.36896875,1.10515625,-0.37028125,-0.723375,1.344,0.02065528070177688,0.028788545253226955,True
21996,113006,0,113007,3719.0,42423.0,30400.0,0.003172,0.00183,-0.00183,0.7000000000000001,-2.31,-3.7800000000000002,1.11734375,0.13443750000000002,-0.01246875,1.371,1.1048125,-0.36496875,-0.72046875,1.3237812500000001,0.020496896799836857,0.028640233612075013,True
21997,113007,0,113008,3721.0,42423.0,30400.0,0.0008539999999999999,-0.0008539999999999999,-0.002196,0.5425000000000001,-2.0650000000000004,-3.7100000000000004,1.12459375,0.13475,-0.012968750000000001,1.365875,1.0878125,-0.37575000000000003,-0.73178125,1.33453125,0.02094294534527143,0.029064323864663004,True
21998,113008,0,113009,3719.0,42424.0,30404.0,-0.000244,-0.00244,-0.000488,0.31500000000000006,-1.61,-3.6400000000000006,1.1178125,0.13343750000000001,-0.01546875,1.37190625,1.0703125,-0.3631875,-0.7281875,1.35040625,0.020384237489450015,0.028822118483208686,True
21999,113009,0,113010,3724.0,42423.0,30404.0,-0.001952,-0.002928,0.000244,0.2625,-1.3825,-3.6575,1.1168125,0.13359375,-0.01303125,1.36859375,1.09759375,-0.36793750000000003,-0.7226875,1.3219687500000001,0.0205816044135865,0.02870465640112953,True
22000,113010,0,113011,3724.0,42423.0,30405.0,-0.001769,0.000488,0.0,0.5950000000000001,-1.4175000000000002,-3.5000000000000004,1.1244687500000001,0.1323125,-0.012937500000000001,1.3653125,1.08984375,-0.37665625,-0.73484375,1.32934375,0.020879350505670767,0.029185801911524104,True
22001,113011,0,113012,3725.0,42424.0,30406.0,0.0008539999999999999,0.0021349999999999997,0.000793,0.5950000000000001,-1.6275000000000002,-3.4650000000000003,1.12034375,0.13034375,-0.0134375,1.36596875,1.06771875,-0.37546875,-0.73153125,1.32253125,0.020750882995839826,0.029035555572403143,True
22002,113012,0,113013,3728.0,42427.0,30406.0,0.003111,0.002013,0.0006709999999999999,0.5075000000000001,-1.7500000000000002,-3.5525,1.12525,0.131375,-0.0165,1.3646562500000001,1.08475,-0.37128125,-0.7341875,1.3375937500000001,0.020624941497484874,0.029016012755624175,True
22003,113013,0,113014,3729.0,42427.0,30409.0,0.0030499999999999998,0.001464,-6.1e-05,0.47250000000000003,-1.7500000000000002,-3.5875000000000004,1.11009375,0.13328125,-0.01334375,1.3658125,1.0754062500000001,-0.36462500000000003,-0.7254375000000001,1.3318125,0.02043562131573952,0.028800046510804915,True
22004,113014,0,113015,3730.0,42426.0,30407.0,0.0034159999999999998,0.001281,0.000244,0.28,-1.6450000000000002,-3.535,1.11771875,0.13343750000000001,-0.012375,1.3715625,1.079,-0.36943750000000003,-0.7291562500000001,1.34259375,0.0206354783527523,0.028985269159759547,True
22005,113015,0,113016,3731.0,42430.0,30410.0,-0.000366,-0.0011589999999999999,0.0006709999999999999,0.21000000000000002,-1.0850000000000002,-3.5000000000000004,1.12359375,0.13303125,-0.012718750000000001,1.3658125,1.0815937500000001,-0.36665625,-0.7276875,1.32878125,0.020507019710593242,0.028913692394406068,True
22006,113016,0,113017,3732.0,42427.0,30408.0,-0.002196,-0.0021349999999999997,0.0006709999999999999,0.21000000000000002,-0.8750000000000001,-3.5000000000000004,1.11940625,0.132625,-0.01559375,1.36609375,1.0758125,-0.37021875,-0.72840625,1.33475,0.02063353452664433,0.02882565470631574,True
22007,113017,0,113018,3734.0,42428.0,30411.0,-0.0040869999999999995,-0.0018909999999999999,0.0025009999999999998,0.21000000000000002,-0.5950000000000001,-3.4650000000000003,1.1176875,0.13403125,-0.01446875,1.370875,1.08015625,-0.36759375,-0.73209375,1.3414375,0.02058574207804166,0.0290159420894157,True
22008,113018,0,113019,3736.0,42429.0,30414.0,-0.005856,-0.001647,0.002196,0.2625,-0.5425000000000001,-3.3425000000000002,1.11371875,0.13284375,-0.012125,1.36609375,1.08253125,-0.36746875,-0.7273125,1.3255625,0.020531984882508573,0.028922977375725727,True
22009,113019,0,113020,3737.0,42429.0,30411.0,-0.0064659999999999995,-0.00122,0.000732,0.43750000000000006,-0.5950000000000001,-3.3075,1.11815625,0.13378125,-0.013625,1.37071875,1.070625,-0.368875,-0.73059375,1.33728125,0.02062697806115383,0.028991166053180587,True
22010,113020,0,113021,3740.0,42431.0,30413.0,-0.002257,0.001586,-0.001647,0.7350000000000001,-1.5225000000000002,-3.325,1.1203750000000001,0.1330625,-0.012843750000000001,1.3666875,1.0808125,-0.36471875,-0.7273125,1.33471875,0.020430412314937963,0.028893910326890558,True
22011,113021,0,113022,3738.0,42432.0,30414.0,0.001769,0.002928,-0.000244,0.7350000000000001,-2.1,-3.3600000000000003,1.113625,0.13393750000000001,-0.01425,1.3667500000000001,1.080125,-0.37084375,-0.7306875,1.3381875,0.020712506106810524,0.02896957474392898,True
22012,113022,0,113023,3741.0,42433.0,30416.0,0.004941,0.001098,-0.0023179999999999997,0.665,-2.4675000000000002,-3.43,1.11765625,0.13353125,-0.01246875,1.36615625,1.08115625,-0.367875,-0.7273437500000001,1.3415000000000001,0.020576527497781404,0.028910302992006573,True
22013,113023,0,113024,3743.0,42435.0,30418.0,0.006588,0.00122,-0.0028669999999999998,0.5425000000000001,-2.7475,-3.5525,1.12290625,0.1249375,-0.012937500000000001,1.3645,1.08834375,-0.371125,-0.72778125,1.3345,0.020354517897717073,0.02890852773133457,True
22014,113024,0,113025,3746.0,42437.0,30423.0,0.006771,-0.000122,-0.0034159999999999998,0.4025,-2.5025000000000004,-3.4825000000000004,1.113875,0.12775,-0.0164375,1.36915625,1.07975,-0.3705625,-0.7290625000000001,1.3348125,0.020447312202990803,0.02881730757079853,True
22015,113025,0,113026,3747.0,42440.0,30424.0,0.001952,-0.0011589999999999999,-0.000366,0.1925,-1.5050000000000001,-3.5875000000000004,1.1236875,0.13396875,-0.01115625,1.3568437500000001,1.0811875,-0.36743750000000003,-0.72675,1.3381875,0.020576896934689996,0.028940064909460404,True
22016,113026,0,113027,3748.0,42439.0,30427.0,-0.000976,-0.0011589999999999999,0.000793,0.10500000000000001,-0.8925000000000001,-3.5175000000000005,1.11071875,0.12890625,-0.0189375,1.368875,1.0865625,-0.36603125000000003,-0.7294375,1.3354062500000001,0.02031260220106629,0.0287309406046943,True
22017,113027,0,113028,3751.0,42440.0,30430.0,-0.001952,-0.0006709999999999999,0.000915,0.0175,-0.5075000000000001,-3.535,1.10659375,0.1355625,-0.00925,1.38234375,1.0796875000000001,-0.3665625,-0.7316875,1.34128125,0.02060713323842869,0.02921100713406637,True
22018,113028,0,113029,3753.0,42443.0,30430.0,-0.003904,0.000122,0.00122,0.0,-0.2625,-3.6925000000000003,1.1338125000000001,0.1314375,-0.01071875,1.3610312500000001,1.08028125,-0.36775,-0.72371875,1.34009375,0.020485580326456074,0.028838703724535775,True
22019,113029,0,113030,3755.0,42441.0,30433.0,-0.002379,0.00061,0.001037,0.0175,-0.22750000000000004,-3.6925000000000003,1.1308125,0.128875,-0.01165625,1.3550625,1.08728125,-0.367375,-0.7271875,1.3372187500000001,0.02036534505665875,0.028937025288460323,True
22020,113030,0,113031,3757.0,42444.0,30434.0,6.1e-05,0.00042699999999999997,0.001403,-0.0175,-0.8750000000000001,-3.8150000000000004,1.11259375,0.1285,-0.0183125,1.3650625,1.086375,-0.370875,-0.72865625,1.334375,0.020490647135156206,0.028725529718178683,True
22021,113031,0,113032,3759.0,42445.0,30436.0,0.0015249999999999999,-0.000244,0.00183,-0.052500000000000005,-0.9800000000000001,-3.8325000000000005,1.11025,0.13528125,-0.008375,1.3655,1.080375,-0.3685,-0.7245625,1.3421875,0.020673461641052996,0.028966639955712057,True
22022,113032,0,113033,3762.0,42448.0,30440.0,0.000305,-0.000793,0.001464,0.10500000000000001,-1.05,-3.8325000000000005,1.1334375,0.130875,-0.017843750000000002,1.38234375,1.0874375,-0.36828125,-0.72921875,1.3343125,0.0204838513179915,0.028766577997940187,True
22023,113033,0,113034,3764.0,42448.0,30441.0,-0.00061,-0.001769,0.001037,0.052500000000000005,-1.12,-3.8675,1.12084375,0.13475,-0.009000000000000001,1.37521875,1.08046875,-0.3665,-0.7291875,1.33984375,0.02057127613731968,0.02912297462259931,True
22024,113034,0,113035,3765.0,42448.0,30445.0,-0.0017079999999999999,-0.001769,-0.000549,0.15750000000000003,-1.0325000000000002,-3.7800000000000002,1.131125,0.13178125000000002,-0.0096875,1.36296875,1.0806875,-0.36803125000000003,-0.722,1.3350625,0.020510992245218827,0.028812899441792734,True
22025,113035,0,113036,3768.0,42452.0,30450.0,-0.004575,-0.000244,-0.000183,0.42000000000000004,-0.9625000000000001,-3.8675,1.113375,0.13428125,-0.01384375,1.3715,1.08215625,-0.37028125,-0.72890625,1.34190625,0.020704008083616186,0.028916058509461974,True
22026,113036,0,113037,3771.0,42451.0,30447.0,-0.004392,0.001464,0.0,0.49000000000000005,-0.9800000000000001,-3.7625,1.1120625,0.13393750000000001,-0.01265625,1.36534375,1.0803125,-0.367875,-0.7272500000000001,1.3419375,0.02059319903766742,0.028899038510145688,True
22027,113037,0,113038,3772.0,42451.0,30452.0,-0.0051849999999999995,0.0032329999999999998,0.0023179999999999997,0.43750000000000006,-0.9450000000000001,-3.5700000000000003,1.12375,0.1301875,-0.015375,1.36928125,1.08640625,-0.36621875,-0.72865625,1.3346875,0.020372724019807133,0.028844319027646316,True
22028,113038,0,113039,3775.0,42453.0,30455.0,-0.0037819999999999998,0.002989,0.000976,0.47250000000000003,-0.9975,-3.5700000000000003,1.11853125,0.13290625,-0.01234375,1.3665,1.08021875,-0.36740625,-0.726875,1.3371875,0.020532037545030052,0.02889694916967874,True
22029,113039,0,113040,3777.0,42455.0,30455.0,-0.0023179999999999997,0.002806,-0.000244,0.36750000000000005,-1.1375000000000002,-3.5700000000000003,1.125875,0.1320625,-0.012843750000000001,1.3658125,1.08646875,-0.36815625,-0.7276875,1.33475,0.020527558378570395,0.028908637332140337,True
22030,113040,0,113041,3779.0,42452.0,30457.0,0.0046359999999999995,0.00061,-0.002257,0.15750000000000003,-1.7850000000000001,-3.7800000000000002,1.117875,0.1333125,-0.01446875,1.36815625,1.08075,-0.36790625,-0.7301875,1.341,0.020568806562935624,0.0289410967870745,True
22031,113041,0,113042,3781.0,42458.0,30460.0,0.008723,-0.001403,-0.001281,-0.035,-2.765,-4.025,1.11878125,0.1380625,-0.0074062500000000005,1.3585625000000001,1.08115625,-0.36759375,-0.7225,1.33534375,0.020751176960178926,0.028924815451511782,True
22032,113042,0,113043,3784.0,42459.0,30464.0,0.013847,-0.003111,-0.0015249999999999999,-0.3325,-3.4475000000000002,-4.2875000000000005,1.1176875,0.132875,-0.0163125,1.3721875000000001,1.08021875,-0.36978125,-0.7290625000000001,1.3432187500000001,0.020626210996456937,0.02882236235198969,True
22033,113043,0,113044,3787.0,42460.0,30468.0,0.016165,-0.004392,-0.0015249999999999999,-0.525,-3.4125000000000005,-4.445,1.12546875,0.13040625,-0.01428125,1.36584375,1.08528125,-0.37134375000000003,-0.7309375,1.33690625,0.020587703540146406,0.028978127092836654,True
22034,113044,0,113045,3789.0,42464.0,30470.0,0.012688,-0.0051849999999999995,-0.001769,-0.6125,-2.6250000000000004,-4.4625,1.12578125,0.1299375,-0.01371875,1.36596875,1.08175,-0.36784375,-0.728,1.3349375,0.020427792262087206,0.028885524506632156,True
22035,113045,0,113046,3789.0,42465.0,30473.0,-0.0051849999999999995,-0.002989,0.002257,-0.3325,0.14,-3.9200000000000004,1.1162812500000001,0.13368750000000001,-0.0121875,1.36578125,1.08,-0.366875,-0.72721875,1.3338125,0.02054274501756996,0.028916768085775924,True
22036,113046,0,113047,3793.0,42465.0,30471.0,-0.01525,0.000488,0.0050019999999999995,0.22750000000000004,1.435,-3.5700000000000003,1.11746875,0.13934375000000002,-0.01253125,1.3684375,1.0815937500000001,-0.369625,-0.727625,1.34034375,0.02088537472365701,0.02891882054989106,True
22037,113047,0,113048,3795.0,42466.0,30474.0,-0.022021,0.003355,0.0062829999999999995,0.7175,2.2225,-3.22,1.123125,0.13228125,-0.01440625,1.3743750000000001,1.087625,-0.36903125000000003,-0.73190625,1.34034375,0.020571704096772416,0.02901110786799946,True
22038,113048,0,113049,3798.0,42465.0,30476.0,-0.021716,0.006527,0.005429,0.9275000000000001,1.9775000000000003,-3.1850000000000005,1.1184375,0.13315625,-0.01303125,1.36634375,1.0856875,-0.36712500000000003,-0.7273437500000001,1.33475,0.02053099206410276,0.02888755489557992,True
22039,113049,0,113050,3798.0,42464.0,30478.0,-0.01586,0.007259,0.002806,0.9625000000000001,0.525,-3.325,1.11825,0.13171875,-0.0155,1.37175,1.08065625,-0.3681875,-0.727625,1.339375,0.02051470795683922,0.028798762517629573,True
22040,113050,0,113051,3803.0,42465.0,30480.0,0.005673,0.003904,-0.006222,0.8575,-2.975,-3.4125000000000005,1.12259375,0.13253125,-0.012812500000000001,1.3679375,1.0800625,-0.3659375,-0.7222500000000001,1.3341875,0.020457606033012273,0.02869631607155498,True
22041,113051,0,113052,3802.0,42467.0,30483.0,0.015616,-0.000793,-0.007991,0.42000000000000004,-4.077500000000001,-3.8325000000000005,1.1204375,0.132625,-0.01359375,1.3658125,1.08040625,-0.3665625,-0.7275625,1.33465625,0.02048657868749439,0.028873397853104204,True
22042,113052,0,113053,3804.0,42467.0,30482.0,0.020313,-0.004392,-0.008113,-0.10500000000000001,-4.4975000000000005,-4.1475,1.11825,0.13309375,-0.01184375,1.366875,1.08090625,-0.36662500000000003,-0.7268125,1.34003125,0.02050832850261372,0.02891471555421872,True
22043,113053,0,113054,3808.0,42468.0,30478.0,0.019215,-0.008173999999999999,-0.0046359999999999995,-0.525,-4.130000000000001,-4.2,1.12134375,0.13196875,-0.0135625,1.36071875,1.08778125,-0.3693125,-0.730125,1.3394062500000001,0.020570184325060463,0.028975288236513158,True
22044,113054,0,113055,3807.0,42464.0,30472.0,0.012322,-0.00915,-0.001464,-0.5950000000000001,-3.08,-4.112500000000001,1.12221875,0.13209375,-0.0139375,1.36965625,1.0866875,-0.36762500000000004,-0.7269375,1.33665625,0.02050748688064594,0.028834949738518974,True
22045,113055,0,113056,3806.0,42460.0,30462.0,-0.003721,-0.00244,0.0042699999999999995,-0.14,-0.1925,-3.8675,1.1191875,0.13325,-0.01253125,1.3663750000000001,1.08084375,-0.36675,-0.72303125,1.33546875,0.020519765664276116,0.02873838538710742,True
22046,113056,0,113057,3801.0,42453.0,30453.0,-0.009637999999999999,0.004392,0.003294,0.3325,0.8400000000000001,-3.8325000000000005,1.11821875,0.13353125,-0.01215625,1.3702812500000001,1.08115625,-0.367,-0.728125,1.34596875,0.020541357163376697,0.028953620624289148,True
22047,113057,0,113058,3797.0,42448.0,30441.0,-0.013481,0.007076,0.003355,0.6125,1.2425000000000002,-3.8850000000000002,1.1202812500000001,0.13275,-0.01415625,1.36753125,1.0928125,-0.3676875,-0.7292500000000001,1.33396875,0.02053693030986219,0.028916920246267075,True
22048,113058,0,113059,3792.0,42442.0,30432.0,-0.014945,0.008357,0.004758,0.6300000000000001,0.9800000000000001,-3.7975000000000003,1.1181875000000001,0.13615625,-0.01046875,1.36625,1.0805625,-0.36653125000000003,-0.7276875,1.32628125,0.02063024461062754,0.029004683515189197,True
22049,113059,0,113060,3782.0,42437.0,30423.0,-0.012078,0.0057339999999999995,0.0044529999999999995,0.43750000000000006,0.56,-3.7625,1.1175625,0.13318750000000001,-0.01196875,1.365625,1.078125,-0.3663125,-0.7200625,1.3305625,0.02049961396497726,0.02864449675238483,True
22050,113060,0,113061,3777.0,42430.0,30416.0,-0.0023179999999999997,-0.000732,0.001464,-0.052500000000000005,-1.3475000000000001,-4.095000000000001,1.11253125,0.13428125,-0.012750000000000001,1.36596875,1.06628125,-0.36246875,-0.7205312500000001,1.3330312500000001,0.020389969715199737,0.028631312282174356,True
22051,113061,0,113062,3771.0,42429.0,30409.0,0.005673,-0.004026,-0.000244,-0.24500000000000002,-2.3800000000000003,-4.2,1.110875,0.14150000000000001,-0.012718750000000001,1.36128125,1.07771875,-0.36578125,-0.72575,1.3420625,0.02081941247010087,0.02883759845505192,True
22052,113062,0,113063,3764.0,42429.0,30409.0,0.010065,-0.003477,-0.003538,-0.2625,-3.2550000000000003,-4.095000000000001,1.10815625,0.12096875,-0.0175625,1.35540625,1.093,-0.36925,-0.7266875,1.33234375,0.020116283841316415,0.02867852800744135,True
22053,113063,0,113064,3761.0,42430.0,30406.0,0.012993,-0.004209,-0.0050019999999999995,-0.1925,-3.5000000000000004,-4.095000000000001,1.105375,0.13165625,-0.018625,1.35953125,1.08803125,-0.37140625,-0.72821875,1.3321875,0.020641504837251645,0.02869570821796455,True
22054,113064,0,113065,3754.0,42429.0,30406.0,0.010675,-0.0035989999999999998,-0.004331,-0.07,-2.9400000000000004,-4.0425,1.1050312500000001,0.12965625,-0.0174375,1.35490625,1.08625,-0.37109375,-0.72790625,1.3316875000000001,0.020546882513223275,0.028731455984066585,True
22055,113065,0,113066,3751.0,42425.0,30402.0,-0.0011589999999999999,-0.001281,-0.001952,0.14,-1.4875,-3.9375000000000004,1.11328125,0.12403125,-0.01159375,1.37325,1.09,-0.36984375,-0.726125,1.3445625,0.020265825463078726,0.028897825680327997,True
22056,113066,0,113067,3748.0,42427.0,30400.0,-0.0050019999999999995,0.000488,0.00061,0.45500000000000007,-0.9275000000000001,-3.9025000000000003,1.1409375,0.132875,-0.00696875,1.3800937500000001,1.0761875,-0.3655,-0.7255625,1.34428125,0.020454125710533337,0.029062786741454318,True
22057,113067,0,113068,3746.0,42425.0,30400.0,-0.0066489999999999995,0.00244,0.0013419999999999999,0.6300000000000001,-0.6475000000000001,-3.8850000000000002,1.12390625,0.13734375000000001,-0.013375,1.37146875,1.07909375,-0.36496875,-0.73140625,1.3323125,0.020616176657316666,0.02903317517579495,True
22058,113068,0,113069,3744.0,42424.0,30399.0,-0.005978,0.002196,0.0023179999999999997,0.5775,-0.8750000000000001,-3.8850000000000002,1.1046875,0.1275625,-0.01175,1.35934375,1.0778125,-0.37278125,-0.72609375,1.3312187500000001,0.020528791723349177,0.028890279120615238,True
22059,113069,0,113070,3742.0,42423.0,30398.0,0.000549,0.0037819999999999998,-0.0018909999999999999,0.6300000000000001,-1.4525000000000001,-4.2875000000000005,1.143,0.136875,-0.0185625,1.3583125,1.0865,-0.36628125,-0.7289375,1.3281875,0.020649693928982287,0.028726466715361304,True
22060,113070,0,113071,3740.0,42424.0,30398.0,0.0021349999999999997,0.002379,-0.000549,0.4025,-1.7325000000000002,-4.375,1.1229375,0.12378125000000001,-0.01190625,1.3561875,1.0866875,-0.36771875,-0.7275,1.3346875,0.020170127743287417,0.028939187139824084,True
22061,113071,0,113072,3742.0,42422.0,30398.0,0.0021349999999999997,-0.000366,-0.000244,-0.035,-1.3825,-4.4975000000000005,1.1206562500000001,0.12621875,-0.01509375,1.3693125,1.0871250000000001,-0.37093750000000003,-0.7290625000000001,1.3343125,0.02039955377178248,0.02887164646860349,True
22062,113072,0,113073,3742.0,42427.0,30402.0,-0.000793,-0.0025009999999999998,0.0017079999999999999,-0.2625,-1.0675000000000001,-4.4275,1.105375,0.13296875,-0.01459375,1.36634375,1.08153125,-0.36825,-0.7308125,1.34096875,0.020568516409672423,0.02896058307829555,True
22063,113073,0,113074,3741.0,42423.0,30399.0,-0.0023179999999999997,-0.00488,0.002013,-0.24500000000000002,-0.7000000000000001,-4.1825,1.11134375,0.13521875,-0.01209375,1.36940625,1.0801875,-0.3680625,-0.7285625,1.3410625,0.020653314148385823,0.02897332790775849,True
22064,113074,0,113075,3741.0,42425.0,30402.0,-0.001647,-0.002989,0.002989,0.08750000000000001,-1.0675000000000001,-4.077500000000001,1.1175,0.1333125,-0.01409375,1.3715625,1.08046875,-0.36453125000000003,-0.7296875,1.33725,0.02043313474376816,0.028936627282491946,True
22065,113075,0,113076,3742.0,42424.0,30404.0,-0.000915,0.000244,0.00122,0.31500000000000006,-1.6275000000000002,-4.1825,1.1184687500000001,0.1343125,-0.011625,1.37184375,1.08125,-0.36653125000000003,-0.7279375,1.34021875,0.020554577295444958,0.028967741446289243,True
22066,113076,0,113077,3744.0,42427.0,30407.0,0.001952,0.00183,-0.000549,0.385,-2.1525000000000003,-4.1475,1.1242812500000001,0.1368125,-0.01415625,1.3662812500000001,1.0891250000000001,-0.3686875,-0.7309687500000001,1.3351250000000001,0.020743833659486177,0.028984408465600447,True
22067,113077,0,113078,3744.0,42429.0,30407.0,0.0044529999999999995,0.0018909999999999999,-0.002013,0.49000000000000005,-2.6250000000000004,-4.077500000000001,1.1180625,0.13290625,-0.0125,1.37259375,1.0805,-0.3660625,-0.72103125,1.340375,0.020478021428369887,0.028661071734214165,True
22068,113078,0,113079,3747.0,42433.0,30409.0,0.00549,0.002257,-0.00244,0.45500000000000007,-2.7475,-4.0075,1.1245625000000001,0.1320625,-0.012875000000000001,1.3666562500000001,1.0881875,-0.37040625,-0.7281562500000001,1.33525,0.020617988261890385,0.028925781718966617,True
22069,113079,0,113080,3749.0,42433.0,30412.0,0.004026,0.000915,-0.000122,0.42000000000000004,-2.5725000000000002,-3.9375000000000004,1.1179375,0.13290625,-0.01575,1.36753125,1.0801875,-0.369625,-0.7293125,1.340125,0.020621213908708073,0.02885492671905052,True
22070,113080,0,113081,3750.0,42435.0,30414.0,0.002074,0.000976,-0.001464,0.35000000000000003,-2.31,-3.8325000000000005,1.11784375,0.13325,-0.01365625,1.37175,1.0805,-0.36609375,-0.72859375,1.34365625,0.02049338540364107,0.028911369050251795,True
22071,113081,0,113082,3750.0,42435.0,30413.0,0.002074,-0.000366,-0.0030499999999999998,0.385,-1.9600000000000002,-3.7800000000000002,1.123375,0.13334375,-0.01234375,1.3658125,1.0886875,-0.368,-0.7268125,1.33453125,0.020573857107682208,0.02889449458962816,True
22072,113082,0,113083,3753.0,42436.0,30415.0,-0.0011589999999999999,0.000305,0.00061,0.36750000000000005,-1.435,-3.7800000000000002,1.1241875000000001,0.130875,-0.00759375,1.36690625,1.0861875,-0.3688125,-0.7276875,1.334875,0.020505205167465585,0.029120949947300977,True
22073,113083,0,113084,3754.0,42435.0,30414.0,-0.0035989999999999998,-0.0006709999999999999,6.1e-05,0.17500000000000002,-1.155,-3.6400000000000006,1.1180625,0.13065625,-0.0165,1.37271875,1.0708125,-0.3664375,-0.729875,1.34096875,0.02040075616306241,0.028846688468906537,True
22074,113084,0,113085,3757.0,42435.0,30414.0,-0.005612,-0.00061,0.000122,0.12250000000000001,-0.6125,-3.6575,1.12353125,0.136375,-0.01209375,1.37196875,1.08871875,-0.3669375,-0.72690625,1.3345625,0.02065555016915852,0.028908286899013095,True
22075,113085,0,113086,3757.0,42435.0,30418.0,-0.004148,-6.1e-05,0.000366,0.14,-0.6125,-3.7450000000000006,1.1243750000000001,0.12896875,-0.01234375,1.3628437500000001,1.0855000000000001,-0.37003125000000003,-0.72728125,1.33446875,0.020475968819284956,0.02891290363755619,True
22076,113086,0,113087,3758.0,42436.0,30417.0,-0.00244,-0.000305,0.000793,0.035,-0.8400000000000001,-3.8150000000000004,1.1184375,0.13359375,-0.012718750000000001,1.3707500000000001,1.08046875,-0.3655,-0.72628125,1.3311250000000001,0.02048362438694055,0.028858464108912456,True
22077,113087,0,113088,3760.0,42436.0,30418.0,-0.000122,-0.000732,0.0011589999999999999,-0.12250000000000001,-1.12,-3.7800000000000002,1.1238125,0.1330625,-0.012843750000000001,1.36659375,1.085875,-0.36978125,-0.728125,1.3289375,0.020633904951444734,0.02892581827372678,True
22078,113088,0,113089,3760.0,42436.0,30417.0,0.002623,-0.0013419999999999999,-6.1e-05,-0.12250000000000001,-1.2075,-3.8675,1.10678125,0.130375,-0.01525,1.3668125,1.0805,-0.36659375,-0.728,1.3394062500000001,0.020395495369556937,0.02882360077644775,True
22079,113089,0,113090,3763.0,42436.0,30421.0,0.003294,0.000183,-0.000122,-0.052500000000000005,-1.4175000000000002,-3.9025000000000003,1.1175625,0.13396875,-0.014812500000000001,1.37378125,1.08059375,-0.3664375,-0.7281562500000001,1.3389375000000001,0.020536701354065403,0.02884742973912582,True
22080,113090,0,113091,3762.0,42438.0,30423.0,0.003294,-0.000244,-0.0008539999999999999,-0.10500000000000001,-1.2950000000000002,-3.8325000000000005,1.11709375,0.13425,-0.01240625,1.35890625,1.0764375,-0.36621875,-0.72746875,1.3344375,0.02053945075084742,0.02891773950780951,True
22081,113091,0,113092,3766.0,42439.0,30424.0,0.002562,0.00061,0.000549,0.0,-1.0850000000000002,-3.8325000000000005,1.12325,0.1305625,-0.014,1.36640625,1.0821875,-0.366875,-0.73053125,1.3344375,0.02041449714007233,0.028973548637375106,True
22082,113092,0,113093,3767.0,42440.0,30424.0,-0.000732,0.000244,-0.000305,-0.035,-0.665,-3.8325000000000005,1.1059375,0.133625,-0.01128125,1.3725,1.08096875,-0.36615625,-0.7271562500000001,1.33628125,0.020511288069902284,0.028950963578757666,True
22083,113093,0,113094,3769.0,42439.0,30429.0,-0.0021349999999999997,0.000793,0.000732,-0.035,-0.5075000000000001,-3.7275000000000005,1.1254375,0.13334375,-0.01209375,1.3610312500000001,1.08675,-0.36596875,-0.72696875,1.335375,0.020492208010403856,0.028910741434895856,True
22084,113094,0,113095,3770.0,42439.0,30429.0,-0.002074,0.000732,-0.000305,-0.035,-0.36750000000000005,-3.7100000000000004,1.124625,0.1308125,-0.0125625,1.3662812500000001,1.0852187500000001,-0.3624375,-0.7325,1.33225,0.020246332083971485,0.029108965935509955,True
22085,113095,0,113096,3772.0,42439.0,30432.0,-0.001952,0.0008539999999999999,0.000122,0.0,-0.45500000000000007,-3.6575,1.12371875,0.1311875,-0.009125,1.36575,1.0774375,-0.3651875,-0.72646875,1.3493125000000001,0.02037230372226768,0.029011168446768203,True
22086,113096,0,113097,3773.0,42440.0,30433.0,-0.002989,-0.000366,0.00183,-0.052500000000000005,-0.36750000000000005,-3.6400000000000006,1.11790625,0.134,-0.01165625,1.3731875,1.0695937500000001,-0.357,-0.7245625,1.32878125,0.020158476002791807,0.028833927799531332,True
22087,113097,0,113098,3775.0,42444.0,30435.0,-0.003843,-0.001647,0.00122,-0.08750000000000001,-0.3325,-3.5875000000000004,1.12471875,0.13309375,-0.012812500000000001,1.36715625,1.09540625,-0.37593750000000004,-0.7295625,1.32640625,0.020882530159096448,0.02898352932851117,True
22088,113098,0,113099,3779.0,42444.0,30438.0,-0.004514,-0.0021349999999999997,0.001586,-0.035,-0.49000000000000005,-3.7100000000000004,1.1180625,0.13340625,-0.01396875,1.37253125,1.0735000000000001,-0.36390625,-0.7235312500000001,1.3300625,0.020411854113089933,0.028699884851602665,True
22089,113099,0,113100,3781.0,42444.0,30439.0,-0.000366,-0.000793,-0.000244,0.10500000000000001,-1.225,-3.6050000000000004,1.125375,0.1330625,-0.011125,1.3644375,1.0755000000000001,-0.36353125000000003,-0.73009375,1.3370312500000001,0.020382667229324566,0.029072625331232314,True
22090,113100,0,113101,3782.0,42444.0,30441.0,0.0021349999999999997,0.000122,-0.000915,0.08750000000000001,-1.6800000000000002,-3.7625,1.12321875,0.13184375,-0.01334375,1.36696875,1.09375,-0.37409375,-0.73275,1.3495,0.020757181997792227,0.029087192083371242,True
22091,113101,0,113102,3783.0,42443.0,30441.0,0.003721,-0.000305,-0.001769,0.08750000000000001,-2.0300000000000002,-3.8150000000000004,1.1175,0.133375,-0.012968750000000001,1.36740625,1.09553125,-0.37171875,-0.7254375000000001,1.32903125,0.020724584719737916,0.02881521307762502,True
22092,113102,0,113103,3786.0,42444.0,30448.0,0.003904,0.00061,-0.0018909999999999999,0.2625,-2.0650000000000004,-3.7450000000000006,1.11684375,0.13478125,-0.01571875,1.37184375,1.0716875000000001,-0.359125,-0.7231562500000001,1.33778125,0.02027602592457652,0.028614368361644767,True
22093,113103,0,113104,3789.0,42447.0,30446.0,0.003843,0.0018909999999999999,-0.00122,0.2625,-1.8550000000000002,-3.7625,1.1183750000000001,0.12978125000000001,-0.01584375,1.37484375,1.08971875,-0.36362500000000003,-0.73275,1.34775,0.020251758512947072,0.028986111532280073,True
22094,113104,0,113105,3791.0,42448.0,30450.0,0.000122,0.0008539999999999999,0.000793,0.22750000000000004,-1.5050000000000001,-3.5700000000000003,1.1170625,0.133125,-0.01234375,1.365125,1.0924375,-0.37271875,-0.726625,1.3283125,0.020754506511506843,0.0288871307750249,True
22095,113105,0,113106,3793.0,42451.0,30452.0,-0.000183,0.000976,0.0,0.28,-1.4000000000000001,-3.5525,1.118625,0.13421875,-0.012625,1.3729375,1.07284375,-0.36403125000000003,-0.72540625,1.33915625,0.020450228243735324,0.02882788831831631,True
22096,113106,0,113107,3798.0,42452.0,30456.0,-0.001281,0.000244,6.1e-05,0.28,-1.2425000000000002,-3.535,1.1255625,0.13090625,-0.0138125,1.3662812500000001,1.0838125,-0.36953125000000003,-0.72990625,1.33553125,0.02053537652678486,0.02895658975658268,True
22097,113107,0,113108,3798.0,42455.0,30459.0,-0.001403,0.000122,-0.000366,0.17500000000000002,-1.12,-3.5525,1.118125,0.13196875,-0.01565625,1.3705625000000001,1.08040625,-0.36528125,-0.730375,1.342125,0.0204081370905579,0.028900441258978078,True
22098,113108,0,113109,3799.0,42455.0,30461.0,-0.001952,-0.001281,0.0,0.14,-1.2425000000000002,-3.6050000000000004,1.118125,0.13368750000000001,-0.013125,1.3720625,1.0801875,-0.36475,-0.7263437500000001,1.34165625,0.02045732051426754,0.0288444889875803,True
22099,113109,0,113110,3804.0,42455.0,30461.0,6.1e-05,-0.001586,-0.000366,0.15750000000000003,-1.225,-3.43,1.111,0.13365625,-0.01221875,1.36896875,1.08053125,-0.36609375,-0.71928125,1.3410625,0.02051005816227724,0.028603683612362308,True
22100,113110,0,113111,3805.0,42454.0,30463.0,-0.000244,-0.000549,-0.000488,0.12250000000000001,-1.3475000000000001,-3.5525,1.1234375,0.13840625,-0.0124375,1.3702812500000001,1.0880625,-0.36634375,-0.72475,1.3410625,0.020715048805793855,0.02880969473907724,True
22101,113111,0,113112,3807.0,42456.0,30465.0,0.000488,-0.000976,-0.000488,0.10500000000000001,-1.3650000000000002,-3.535,1.12140625,0.1333125,-0.010843750000000001,1.37390625,1.08778125,-0.36646875,-0.72740625,1.34134375,0.020511025012600565,0.02897847403627301,True
22102,113112,0,113113,3809.0,42457.0,30467.0,0.002257,0.001586,-0.000183,0.24500000000000002,-1.33,-3.5175000000000005,1.1083125,0.13396875,-0.012843750000000001,1.3707500000000001,1.082125,-0.36559375,-0.7263437500000001,1.34071875,0.02050278376655607,0.0288558634957908,True
22103,113113,0,113114,3813.0,42459.0,30470.0,0.002379,0.000976,0.00061,0.29750000000000004,-1.4000000000000001,-3.6050000000000004,1.1163750000000001,0.13425,-0.01228125,1.3745625000000001,1.08390625,-0.36534375,-0.72665625,1.34159375,0.02050427669422887,0.028890885721760295,True
22104,113114,0,113115,3816.0,42461.0,30472.0,0.00061,0.000793,0.000305,0.17500000000000002,-1.1725,-3.7450000000000006,1.11196875,0.1350625,-0.01178125,1.370875,1.08665625,-0.3618125,-0.7265,1.33465625,0.020395649954205994,0.028904970375912484,True
22105,113115,0,113116,3820.0,42461.0,30475.0,-0.00061,-0.000549,0.000244,0.07,-0.8925000000000001,-3.7625,1.127125,0.12871875,-0.01265625,1.364875,1.0872187500000001,-0.368875,-0.7274375000000001,1.33440625,0.020419233550994866,0.02890640204833194,True
22106,113116,0,113117,3821.0,42463.0,30479.0,-0.002379,-0.001464,0.0023179999999999997,-0.2625,-0.665,-3.8150000000000004,1.11634375,0.13484375,-0.01375,1.37484375,1.08075,-0.365375,-0.727875,1.33978125,0.020529901550868805,0.028879351743730505,True
22107,113117,0,113118,3826.0,42466.0,30480.0,-0.0030499999999999998,-0.002562,0.001281,-0.24500000000000002,-0.45500000000000007,-3.7450000000000006,1.12325,0.13803125,-0.0110625,1.36453125,1.08103125,-0.36528125,-0.7270625000000001,1.33546875,0.02065695424714213,0.02895612853326189,True
22108,113118,0,113119,3827.0,42467.0,30484.0,-0.003111,-0.002196,0.000366,-0.14,-0.5075000000000001,-3.5875000000000004,1.11453125,0.13546875,-0.0115625,1.36803125,1.07646875,-0.36384375,-0.72565625,1.34009375,0.020493995328631182,0.028880679355072728,True
22109,113119,0,113120,3830.0,42469.0,30483.0,-0.001647,0.00042699999999999997,0.0006709999999999999,0.24500000000000002,-0.7875000000000001,-3.535,1.126625,0.12828125,-0.0175,1.37671875,1.0870625,-0.36743750000000003,-0.73075,1.34225,0.020343491185726856,0.028840613406386786,True
22110,113120,0,113121,3831.0,42469.0,30489.0,-0.0006709999999999999,0.002074,0.0011589999999999999,0.42000000000000004,-1.2425000000000002,-3.4825000000000004,1.1245625000000001,0.136,-0.01146875,1.364625,1.07025,-0.36521875,-0.7268125,1.3351250000000001,0.020571075316120443,0.028929881277661645,True
22111,113121,0,113122,3834.0,42470.0,30492.0,0.000183,0.0026839999999999998,-0.001037,0.525,-1.6625,-3.4825000000000004,1.12290625,0.13103125000000002,-0.01125,1.3642812500000001,1.08496875,-0.36428125,-0.72659375,1.33353125,0.02032945256696214,0.028930137213096733,True
22112,113122,0,113123,3837.0,42471.0,30492.0,0.002623,0.002379,-0.002074,0.7000000000000001,-2.1700000000000004,-3.43,1.1265625000000001,0.137125,-0.0118125,1.36509375,1.0756875000000001,-0.36612500000000003,-0.7271562500000001,1.3350312500000001,0.02065367390177962,0.028929479102555517,True
22113,113123,0,113124,3838.0,42472.0,30493.0,0.006405,0.001952,-0.0026839999999999998,0.7875000000000001,-2.45,-3.43,1.116125,0.13225,-0.0133125,1.36203125,1.0831875,-0.365875,-0.728625,1.33471875,0.020443550662555727,0.02892649712630605,True
22114,113124,0,113125,3840.0,42470.0,30489.0,0.003843,-0.0021349999999999997,-0.0008539999999999999,0.35000000000000003,-2.0300000000000002,-3.4650000000000003,1.11765625,0.13440625,-0.01115625,1.36378125,1.0805,-0.36434375,-0.72140625,1.3256875000000001,0.020470487738870457,0.028730161739888887,True
22115,113125,0,113126,3841.0,42469.0,30485.0,-0.000488,-0.0035989999999999998,0.000183,0.12250000000000001,-1.6450000000000002,-3.325,1.1148125,0.13296875,-0.01403125,1.36540625,1.0735937500000001,-0.36362500000000003,-0.728375,1.33496875,0.020382588797849256,0.028887613925298365,True
22116,113126,0,113127,3840.0,42463.0,30476.0,-0.003172,-0.003355,0.001281,0.21000000000000002,-1.1725,-3.2900000000000005,1.1160625,0.13518750000000002,-0.0135,1.37371875,1.081,-0.36346875,-0.728375,1.33884375,0.020467374950457334,0.02890909734262765,True
22117,113127,0,113128,3836.0,42454.0,30467.0,-0.0050019999999999995,0.0,0.000183,0.43750000000000006,-0.8225000000000001,-3.3075,1.12503125,0.1340625,-0.013000000000000001,1.37234375,1.0710625,-0.36434375,-0.72690625,1.33528125,0.020456379006719608,0.02887163653965,True
22118,113128,0,113129,3833.0,42450.0,30455.0,-0.004026,0.0013419999999999999,-0.00042699999999999997,0.6475000000000001,-0.9100000000000001,-3.4125000000000005,1.12521875,0.13434375,-0.00425,1.366125,1.08675,-0.363375,-0.72671875,1.3352187500000001,0.020428973818282563,0.029218140801637905,True
22119,113129,0,113130,3827.0,42446.0,30447.0,-0.0018909999999999999,0.002257,-0.000488,0.45500000000000007,-1.225,-3.6225000000000005,1.12515625,0.1335625,-0.012843750000000001,1.36715625,1.0836875,-0.36703125000000003,-0.72803125,1.3353125000000001,0.020543895760793594,0.028922136694566006,True
22120,113130,0,113131,3821.0,42443.0,30438.0,-0.0006709999999999999,0.000244,-0.000366,0.21000000000000002,-1.2950000000000002,-3.6750000000000003,1.12278125,0.13134375,-0.012812500000000001,1.36353125,1.0811250000000001,-0.37559375,-0.73690625,1.33078125,0.020796929305568198,0.029271799095733728,True
22121,113131,0,113132,3813.0,42438.0,30431.0,-0.000915,-0.001098,0.000183,0.0175,-1.225,-3.6575,1.12096875,0.1319375,-0.0051875,1.3663125,1.07209375,-0.36234375,-0.7360625000000001,1.34184375,0.020288739666108686,0.029546941838459538,True
22122,113132,0,113133,3808.0,42433.0,30426.0,0.000122,-0.002074,0.000366,0.07,-1.2775,-3.7275000000000005,1.11790625,0.13153125000000002,-0.01396875,1.35959375,1.0618125,-0.35890625,-0.7296875,1.35590625,0.020133806295182074,0.02894168193593227,True
22123,113133,0,113134,3804.0,42433.0,30421.0,0.004148,-0.0011589999999999999,-0.000366,0.0,-1.4525000000000001,-3.99,1.11325,0.13428125,-0.01209375,1.37053125,1.0991250000000001,-0.36275,-0.7195,1.32425,0.020401278591292038,0.028617336515706224,True
22124,113134,0,113135,3798.0,42431.0,30418.0,0.003843,-0.001098,-0.000366,-0.08750000000000001,-1.715,-4.095000000000001,1.1243750000000001,0.1328125,-0.01303125,1.36609375,1.0733125000000001,-0.36446875,-0.7331562500000001,1.3430312500000001,0.020410100261266727,0.029115774498048547,True
22125,113135,0,113136,3793.0,42431.0,30416.0,0.0030499999999999998,0.0,0.000366,-0.035,-1.6450000000000002,-4.112500000000001,1.1183750000000001,0.13028125000000002,-0.01378125,1.369625,1.06946875,-0.35840625,-0.73040625,1.35490625,0.020062375796856578,0.028977485964267167,True
22126,113136,0,113137,3789.0,42428.0,30415.0,0.000976,-6.1e-05,0.00183,0.0175,-1.2950000000000002,-4.0425,1.1173125,0.13409375,-0.012906250000000001,1.3664375,1.09184375,-0.36646875,-0.7238125,1.32421875,0.02054308751652822,0.028753908807551423,True
22127,113137,0,113138,3785.0,42431.0,30413.0,-0.00122,0.00042699999999999997,0.0018909999999999999,0.07,-0.9975,-4.0600000000000005,1.1171875,0.13225,-0.01546875,1.37271875,1.06746875,-0.35878125,-0.72871875,1.3554375,0.02015828480745522,0.02884298241290807,True
22128,113138,0,113139,3781.0,42426.0,30410.0,-0.002379,-0.00042699999999999997,0.000305,0.2625,-0.8575,-3.9725000000000006,1.11753125,0.1340625,-0.0116875,1.370625,1.0906875,-0.36396875,-0.72140625,1.32525,0.02044130228167363,0.028708672266570597,True
22129,113139,0,113140,3780.0,42428.0,30409.0,-0.001769,0.000122,-0.000732,0.4025,-1.12,-3.9025000000000003,1.11890625,0.13228125,-0.01503125,1.3664687500000001,1.08859375,-0.36690625,-0.73625,1.33728125,0.020486289678239313,0.029156349487088784,True
22130,113140,0,113141,3777.0,42427.0,30408.0,0.000122,0.000244,-0.000244,0.35000000000000003,-1.4175000000000002,-3.9725000000000006,1.11378125,0.13375,-0.01196875,1.37140625,1.06746875,-0.36028125,-0.720875,1.3335000000000001,0.020280194835599445,0.028676422254471173,True
22131,113141,0,113142,3777.0,42426.0,30407.0,-0.00122,-0.000732,0.000305,0.22750000000000004,-1.54,-3.99,1.11184375,0.13265625,-0.012,1.36634375,1.08915625,-0.36484375,-0.72278125,1.3318125,0.02041876422868503,0.02875005214067491,True
22132,113142,0,113143,3776.0,42430.0,30409.0,-0.000244,-0.00061,-0.00061,0.31500000000000006,-1.6275000000000002,-3.99,1.12190625,0.13153125000000002,-0.01525,1.3663125,1.0843125,-0.367875,-0.72784375,1.3299375,0.020494452224496394,0.028817464118762882,True
22133,113143,0,113144,3774.0,42426.0,30407.0,-0.000976,0.002989,0.000366,0.7525000000000001,-1.6800000000000002,-3.8675,1.1176875,0.13553125,-0.01234375,1.37321875,1.08046875,-0.362875,-0.72846875,1.33984375,0.02045761224814395,0.028959536768729362,True
22134,113144,0,113145,3772.0,42427.0,30407.0,-0.0006709999999999999,0.0035989999999999998,0.0008539999999999999,0.77,-1.7500000000000002,-3.8325000000000005,1.12403125,0.1345,-0.014,1.36759375,1.08684375,-0.36384375,-0.72203125,1.33496875,0.020454233540222896,0.02863968752567611,True
22135,113145,0,113146,3773.0,42427.0,30407.0,0.001098,0.0037819999999999998,0.000732,0.7000000000000001,-1.9250000000000003,-3.7625,1.1181875000000001,0.13371875,-0.0075625,1.3707500000000001,1.0806875,-0.362,-0.72359375,1.3411875,0.020348031770790576,0.028961455087814652,True
22136,113146,0,113147,3774.0,42428.0,30409.0,0.002989,0.000244,-0.000549,0.5075000000000001,-2.3800000000000003,-3.6925000000000003,1.11234375,0.1424375,-0.01196875,1.3663125,1.08615625,-0.36334375,-0.7263125,1.32846875,0.020759927503793484,0.028890023532623398,True
22137,113147,0,113148,3774.0,42429.0,30411.0,0.003172,-0.0034159999999999998,-0.002562,0.29750000000000004,-2.555,-3.6575,1.11825,0.13465625,-0.0116875,1.3700625,1.08440625,-0.36503125000000003,-0.7281562500000001,1.33390625,0.020508387404592394,0.02897380390015936,True
22138,113148,0,113149,3775.0,42431.0,30412.0,0.0035989999999999998,-0.005978,-0.002379,-0.0175,-2.4325,-3.9550000000000005,1.12325,0.13318750000000001,-0.01509375,1.3666875,1.08421875,-0.36596875,-0.72765625,1.3350625,0.02048579537803109,0.028816418862988684,True
22139,113149,0,113150,3776.0,42429.0,30413.0,0.0013419999999999999,-0.004148,-0.0034159999999999998,0.17500000000000002,-1.995,-4.0075,1.11853125,0.1345,-0.0125,1.36784375,1.08046875,-0.36315625,-0.72953125,1.3423125,0.020426591895292716,0.02899493899626585,True
22140,113150,0,113151,3777.0,42432.0,30415.0,-0.002745,-0.0011589999999999999,-0.001281,0.49000000000000005,-1.3825,-3.9550000000000005,1.126875,0.13090625,-0.008906250000000001,1.3664687500000001,1.088875,-0.3599375,-0.7261875,1.33565625,0.02014963092577721,0.029008970752163063,True
22141,113151,0,113152,3780.0,42432.0,30418.0,-0.003843,0.00366,0.002013,0.7000000000000001,-0.9800000000000001,-3.9375000000000004,1.113125,0.13415625,-0.01103125,1.37634375,1.08028125,-0.36359375,-0.72903125,1.34328125,0.020430073047002766,0.029034699853032052,True
22142,113152,0,113153,3783.0,42433.0,30421.0,-0.0062829999999999995,0.005246,0.0035989999999999998,0.8575,-0.9100000000000001,-3.9725000000000006,1.13946875,0.131375,-0.0130625,1.3618125,1.080625,-0.36296875,-0.72565625,1.34053125,0.02029078455391443,0.02882001362451199,True
22143,113153,0,113154,3782.0,42433.0,30420.0,-0.001464,0.0040869999999999995,0.003538,0.6300000000000001,-1.6625,-3.8500000000000005,1.0991250000000001,0.132125,-0.016,1.381375,1.0825625,-0.3655625,-0.7281562500000001,1.3352187500000001,0.02042585719086108,0.028799407557933074,True
22144,113154,0,113155,3785.0,42432.0,30421.0,0.001586,0.001281,0.001647,0.5075000000000001,-2.1175,-3.9550000000000005,1.1189375,0.13518750000000002,-0.00946875,1.3668125,1.08025,-0.36309375,-0.72971875,1.3415625,0.02045229785318213,0.02912487631910492,True
22145,113155,0,113156,3785.0,42436.0,30421.0,0.003965,-0.000793,-0.0018909999999999999,0.29750000000000004,-2.3275,-4.0075,1.128125,0.13084375,-0.01665625,1.36125,1.0821875,-0.36378125,-0.7271562500000001,1.33590625,0.020301651657621905,0.028733591231300606,True
22146,113156,0,113157,3788.0,42434.0,30423.0,0.004697,-0.002562,-0.003111,0.15750000000000003,-2.31,-3.9550000000000005,1.111875,0.12984375,-0.0175,1.38065625,1.08415625,-0.36612500000000003,-0.72796875,1.33534375,0.020354847149474938,0.028731383365243057,True
22147,113157,0,113158,3787.0,42435.0,30424.0,0.003965,-0.002623,-0.002745,0.12250000000000001,-2.1525000000000003,-3.8325000000000005,1.121625,0.135125,-0.0104375,1.36015625,1.0735937500000001,-0.36315625,-0.72559375,1.34203125,0.020452245385899046,0.02892372402583861,True
22148,113158,0,113159,3793.0,42435.0,30425.0,0.000122,-0.0017079999999999999,-0.000305,0.2625,-1.5925000000000002,-3.7625,1.11934375,0.1305,-0.019375,1.38371875,1.08609375,-0.3665,-0.72721875,1.33490625,0.020396856339646646,0.028626096495385275,True
22149,113159,0,113160,3794.0,42435.0,30426.0,-0.0011589999999999999,-0.000793,0.0015249999999999999,0.35000000000000003,-1.33,-3.9025000000000003,1.1215,0.137125,-0.01059375,1.3614375,1.0771875,-0.36353125000000003,-0.72453125,1.336375,0.020549412351709075,0.028875673831025614,True
22150,113160,0,113161,3795.0,42436.0,30426.0,-0.001586,0.00061,0.002074,0.47250000000000003,-1.1900000000000002,-3.9550000000000005,1.1103750000000001,0.135125,-0.014656250000000001,1.378875,1.08784375,-0.36728125,-0.7294375,1.34278125,0.020618067516251937,0.02890406423518529,True
22151,113161,0,113162,3795.0,42437.0,30427.0,-0.001769,0.0017079999999999999,0.001952,0.49000000000000005,-1.3475000000000001,-3.9025000000000003,1.11809375,0.13409375,-0.0105,1.36053125,1.079875,-0.3633125,-0.72628125,1.33390625,0.020416199562354256,0.028948196567164748,True
22152,113162,0,113163,3796.0,42438.0,30428.0,-0.000915,0.0023179999999999997,0.000244,0.5950000000000001,-1.5050000000000001,-3.8675,1.117875,0.1325,-0.014781250000000001,1.36309375,1.0865625,-0.365,-0.726375,1.3351875,0.020418633285450443,0.02877873323525992,True
22153,113163,0,113164,3795.0,42435.0,30429.0,-0.000244,0.0006709999999999999,-0.000488,0.3325,-1.7850000000000001,-3.8850000000000002,1.1140625,0.1350625,-0.013875,1.37328125,1.0772187500000001,-0.36462500000000003,-0.7295,1.33325,0.02050872935659794,0.028938110354030613,True
22154,113164,0,113165,3800.0,42440.0,30433.0,0.000366,-0.00042699999999999997,-0.000122,0.24500000000000002,-1.715,-3.8325000000000005,1.1133125,0.13396875,-0.012125,1.36696875,1.07996875,-0.36284375,-0.726125,1.34003125,0.020392221248802286,0.02887634030807496,True
22155,113165,0,113166,3799.0,42443.0,30435.0,-0.000305,-0.0006709999999999999,-0.001037,0.2625,-1.5575,-3.7100000000000004,1.12465625,0.13209375,-0.0145,1.37071875,1.08746875,-0.36609375,-0.72703125,1.3250625,0.02044593216752275,0.02881588342717042,True
22156,113166,0,113167,3802.0,42444.0,30435.0,-0.000488,-0.00061,-0.000488,0.35000000000000003,-1.4525000000000001,-3.5875000000000004,1.1183750000000001,0.133625,-0.012,1.36653125,1.0809375,-0.36046875,-0.72178125,1.33575,0.020282604373119874,0.028710764925160885,True
22157,113167,0,113168,3805.0,42446.0,30439.0,-0.000793,-0.0013419999999999999,-0.000122,0.3325,-1.4525000000000001,-3.5875000000000004,1.1179375,0.13518750000000002,-0.01459375,1.3746875,1.08565625,-0.36609375,-0.72871875,1.34309375,0.020572901637136647,0.02887836637310617,True
22158,113168,0,113169,3807.0,42446.0,30440.0,-0.00042699999999999997,0.000549,-0.000305,0.24500000000000002,-1.5925000000000002,-3.8150000000000004,1.12546875,0.132375,-0.015375,1.3665625000000001,1.0884375,-0.365,-0.7193125,1.32890625,0.020413502975579728,0.028477228078248533,True
22159,113169,0,113170,3810.0,42445.0,30444.0,-0.000488,-0.000793,-0.000183,0.31500000000000006,-1.54,-3.9200000000000004,1.113875,0.13468750000000002,-0.015375,1.3725,1.08009375,-0.36665625,-0.72753125,1.33946875,0.020574991695875382,0.028800135476524772,True
22160,113170,0,113171,3810.0,42446.0,30445.0,0.001464,0.000244,-0.000732,0.22750000000000004,-1.6450000000000002,-3.9025000000000003,1.11915625,0.13440625,-0.01225,1.3704375,1.08003125,-0.36259375,-0.7259375,1.33978125,0.020400126731169584,0.02886392073101374,True
22161,113171,0,113172,3812.0,42447.0,30449.0,0.0011589999999999999,-0.001098,0.0,0.2625,-1.61,-3.9200000000000004,1.12396875,0.1365,-0.01584375,1.3584687500000001,1.08803125,-0.36096875,-0.72646875,1.3340625,0.02042072936857242,0.02873944545761311,True
22162,113172,0,113173,3815.0,42450.0,30452.0,0.00061,-0.000549,0.00042699999999999997,0.1925,-1.6275000000000002,-3.9375000000000004,1.11709375,0.134875,-0.007,1.3661875,1.080625,-0.3626875,-0.726,1.3355625,0.020423136815263095,0.029078702580279867,True
22163,113173,0,113174,3818.0,42454.0,30456.0,0.000183,-0.0006709999999999999,0.00061,0.28,-1.3825,-3.8850000000000002,1.1179375,0.13125,-0.011625,1.3744687500000001,1.08565625,-0.36562500000000003,-0.7216875,1.33775,0.02039245863793767,0.028722250453169913,True
22164,113174,0,113175,3820.0,42453.0,30456.0,-0.000549,0.001098,-0.000122,0.2625,-1.2775,-3.9550000000000005,1.1086875,0.13446875,-0.0120625,1.366875,1.080375,-0.36325,-0.72546875,1.33978125,0.020429078632776824,0.028853093027811656,True
22165,113175,0,113176,3820.0,42455.0,30458.0,-0.000488,0.000915,0.000732,0.31500000000000006,-1.3475000000000001,-3.9550000000000005,1.12728125,0.132,-0.0110625,1.3685,1.087875,-0.3628125,-0.7273125,1.3310625,0.020310155077538767,0.028965946056612502,True
22166,113176,0,113177,3823.0,42456.0,30461.0,-0.000732,0.001647,0.000976,0.43750000000000006,-1.2950000000000002,-3.9025000000000003,1.11903125,0.13440625,-0.0121875,1.36678125,1.0808125,-0.3630625,-0.72553125,1.33990625,0.020418974420806087,0.02885049234280861,True
22167,113177,0,113178,3824.0,42456.0,30461.0,-0.000732,0.002074,-6.1e-05,0.47250000000000003,-1.3475000000000001,-3.9550000000000005,1.1240625,0.1325,-0.0150625,1.37309375,1.0856875,-0.36528125,-0.727375,1.334875,0.020429940655825592,0.028806636369610606,True
22168,113178,0,113179,3828.0,42457.0,30464.0,0.000793,0.0008539999999999999,-6.1e-05,0.21000000000000002,-1.3125000000000002,-3.99,1.11840625,0.13453125,-0.01209375,1.3710625,1.08009375,-0.362375,-0.7260625,1.34225,0.020396461757115222,0.028875149450099464,True
22169,113179,0,113180,3830.0,42460.0,30466.0,-0.000305,-0.001403,0.000976,0.14,-1.435,-3.99,1.117625,0.134125,-0.0119375,1.3669375000000001,1.08534375,-0.36315625,-0.7256875,1.3353125000000001,0.020411199800928915,0.028866740308029857,True
22170,113180,0,113181,3834.0,42459.0,30470.0,0.000488,-0.00183,0.000549,0.035,-1.4700000000000002,-3.8500000000000005,1.1124375,0.133125,-0.01259375,1.3673125,1.08690625,-0.36646875,-0.72675,1.33484375,0.020503330011657928,0.02888192948931825,True
22171,113181,0,113182,3835.0,42461.0,30472.0,0.0011589999999999999,-0.001586,0.000305,0.17500000000000002,-1.4000000000000001,-3.7100000000000004,1.12303125,0.1315625,-0.01034375,1.36015625,1.086375,-0.3644375,-0.72271875,1.33509375,0.020357539549189264,0.028814589819333686,True
22172,113182,0,113183,3838.0,42462.0,30471.0,-0.000732,-0.001281,-0.000305,0.15750000000000003,-1.4000000000000001,-3.8675,1.122625,0.13465625,-0.01165625,1.3696875,1.08759375,-0.36346875,-0.72565625,1.34046875,0.020445569763131534,0.02887688774691268,True
22173,113183,0,113184,3838.0,42462.0,30473.0,0.0,-0.0006709999999999999,-0.000305,0.3325,-1.5225000000000002,-3.8500000000000005,1.11971875,0.1345,-0.01203125,1.3698125,1.0854062500000001,-0.3629375,-0.7210625,1.335375,0.02041779649929324,0.02868126117152125,True
22174,113184,0,113185,3842.0,42463.0,30475.0,-0.000305,-0.000366,-0.00042699999999999997,0.36750000000000005,-1.6450000000000002,-3.8500000000000005,1.11803125,0.1345625,-0.0113125,1.3703750000000001,1.0826875,-0.3625625,-0.72496875,1.34421875,0.020405283721693892,0.028863787744928905,True
22175,113185,0,113186,3843.0,42463.0,30478.0,-0.000488,0.0013419999999999999,-0.000122,0.36750000000000005,-1.5750000000000002,-3.8150000000000004,1.1175,0.13543750000000002,-0.01175,1.3666562500000001,1.08103125,-0.35934375,-0.72946875,1.33546875,0.02031176435120507,0.029022813116436237,True
22176,113186,0,113187,3846.0,42463.0,30479.0,0.000244,0.000549,0.001464,0.3325,-1.61,-3.7975000000000003,1.11925,0.13490625,-0.01365625,1.36678125,1.08096875,-0.36215625,-0.732,1.33675,0.020403058534689433,0.029045113617984796,True
22177,113187,0,113188,3848.0,42466.0,30479.0,0.000122,0.001647,-0.0006709999999999999,0.4025,-1.61,-3.8150000000000004,1.11853125,0.135,-0.0111875,1.37440625,1.0784375,-0.36190625,-0.729125,1.34628125,0.02039685420758074,0.029032062396061323,True
22178,113188,0,113189,3848.0,42469.0,30485.0,6.1e-05,0.000244,0.0,0.525,-1.5575,-3.7800000000000002,1.10971875,0.134875,-0.01178125,1.3625625000000001,1.08253125,-0.36328125,-0.72403125,1.3469375000000001,0.02044700978034311,0.02880800435810807,True
22179,113189,0,113190,3852.0,42471.0,30487.0,-0.00042699999999999997,-0.000488,-0.000183,0.24500000000000002,-1.5050000000000001,-3.8850000000000002,1.1436250000000001,0.13318750000000001,-0.0070625,1.35959375,1.08115625,-0.36315625,-0.7235312500000001,1.3468437500000001,0.020372719565019414,0.02897922399333631,True
22180,113190,0,113191,3855.0,42472.0,30489.0,0.000732,-0.0008539999999999999,-0.0013419999999999999,0.08750000000000001,-1.4700000000000002,-3.8500000000000005,1.14853125,0.13496875,-0.01396875,1.38553125,1.08759375,-0.36171875000000003,-0.7272500000000001,1.3355625,0.020388031940480392,0.028845959417242113,True
22181,113191,0,113192,3858.0,42476.0,30492.0,0.000122,-0.002196,0.00042699999999999997,0.10500000000000001,-1.6275000000000002,-3.7975000000000003,1.116125,0.13734375000000001,-0.0061875,1.38165625,1.07753125,-0.3613125,-0.72890625,1.347625,0.02046918654321273,0.029225665813666948,True
22182,113192,0,113193,3860.0,42475.0,30497.0,-0.000366,-0.001281,0.000244,0.24500000000000002,-1.5750000000000002,-3.6925000000000003,1.13353125,0.13543750000000002,-0.00603125,1.3822812500000001,1.0801875,-0.36190625,-0.72753125,1.3452187500000001,0.020414812572394657,0.02917800376857273,True
22183,113193,0,113194,3862.0,42477.0,30496.0,-0.000976,0.001098,0.0018909999999999999,0.47250000000000003,-1.3650000000000002,-3.7275000000000005,1.1386875,0.1375625,-0.00559375,1.3885625,1.08115625,-0.3625,-0.72871875,1.345,0.02052591072344792,0.02924231567800091,True
22184,113194,0,113195,3864.0,42479.0,30501.0,-0.000183,0.001769,0.000366,0.5775,-1.7500000000000002,-3.7275000000000005,1.11971875,0.13765625,-0.014687500000000001,1.388875,1.07121875,-0.362375,-0.727875,1.3416875,0.020524733323413667,0.02884143906421397,True
22185,113195,0,113196,3867.0,42480.0,30504.0,0.00042699999999999997,0.001952,-0.001647,0.6475000000000001,-2.1875,-3.6575,1.1067500000000001,0.13878125,-0.021718750000000002,1.36915625,1.06953125,-0.3620625,-0.7289375,1.3329375,0.020558347635796437,0.028598832845123247,True
22186,113196,0,113197,3868.0,42480.0,30501.0,0.0042699999999999995,0.0018909999999999999,-0.0028669999999999998,0.805,-2.555,-3.5700000000000003,1.10575,0.1286875,-0.019,1.34584375,1.0772187500000001,-0.3678125,-0.72571875,1.3335625,0.02037523885248214,0.028582333931142043,True
22187,113197,0,113198,3870.0,42480.0,30503.0,0.005612,0.001037,-0.00183,0.6825000000000001,-2.5900000000000003,-3.8500000000000005,1.1241875000000001,0.13390625,-0.016125,1.35728125,1.08428125,-0.36396875,-0.7250625,1.335625,0.020434889122897926,0.028672829441786042,True
22188,113198,0,113199,3871.0,42476.0,30498.0,0.001952,-0.002928,-0.000793,0.17500000000000002,-1.4875,-3.7800000000000002,1.1050312500000001,0.1390625,-0.0154375,1.38621875,1.0815625,-0.3644375,-0.72878125,1.337,0.020665365248017733,0.028846700643607337,True
22189,113199,0,113200,3869.0,42473.0,30494.0,-0.0044529999999999995,-0.0032329999999999998,0.0018909999999999999,0.052500000000000005,-0.7875000000000001,-3.6050000000000004,1.1133125,0.1380625,-0.01146875,1.371625,1.08115625,-0.36234375,-0.72928125,1.34075,0.0205401522585445,0.029026824222802672,True
22190,113200,0,113201,3869.0,42467.0,30482.0,-0.009516,-0.0037819999999999998,0.003111,0.24500000000000002,-0.17500000000000002,-3.4650000000000003,1.12753125,0.136375,-0.007125,1.36878125,1.08034375,-0.36312500000000003,-0.7259375,1.33915625,0.020502295990354278,0.02907119295274446,True
22191,113201,0,113202,3865.0,42460.0,30472.0,-0.009821,-0.001464,0.004026,0.45500000000000007,-0.07,-3.3775000000000004,1.1162812500000001,0.13328125,-0.01178125,1.37096875,1.08815625,-0.3633125,-0.72103125,1.34225,0.020382850238447665,0.028690146168558403,True
22192,113202,0,113203,3860.0,42453.0,30461.0,-0.0040869999999999995,0.0018909999999999999,-0.000488,0.5425000000000001,-1.1900000000000002,-3.7625,1.125125,0.13421875,-0.010843750000000001,1.36746875,1.0861875,-0.36303125,-0.7269375,1.33603125,0.02041002184405933,0.02896006632442857,True
22193,113203,0,113204,3855.0,42452.0,30454.0,-0.000488,0.002379,-0.000976,0.42000000000000004,-1.8550000000000002,-3.8850000000000002,1.1182812500000001,0.13746875,-0.01509375,1.3685,1.07990625,-0.36265625,-0.72809375,1.342375,0.020528344482141598,0.028833601457856007,True
22194,113204,0,113205,3850.0,42450.0,30450.0,0.003721,0.000488,-0.001037,0.43750000000000006,-2.2925000000000004,-3.8850000000000002,1.11853125,0.1345,-0.01121875,1.3720937500000001,1.075375,-0.3628125,-0.725625,1.3415625,0.020412770487808006,0.02889335456636586,True
22195,113205,0,113206,3844.0,42446.0,30443.0,0.005612,-0.000366,-0.000244,0.28,-2.6425,-3.8500000000000005,1.12434375,0.13393750000000001,-0.01175,1.3571875,1.0889375000000001,-0.36671875,-0.72640625,1.3360625,0.020546724207583345,0.028902552306807626,True
22196,113206,0,113207,3838.0,42448.0,30440.0,0.005673,-0.0006709999999999999,-0.0013419999999999999,0.31500000000000006,-2.8000000000000003,-3.9375000000000004,1.11815625,0.13184375,-0.01246875,1.3668437500000001,1.079875,-0.36446875,-0.7226875,1.33525,0.02037033949283216,0.028727408781913374,True
22197,113207,0,113208,3833.0,42444.0,30437.0,0.006893,-6.1e-05,-0.002379,0.12250000000000001,-2.6950000000000003,-4.025,1.11878125,0.13540625,-0.01384375,1.3735,1.08078125,-0.36303125,-0.72790625,1.341,0.020458763726291244,0.028876787738549434,True
22198,113208,0,113209,3829.0,42446.0,30433.0,0.0050019999999999995,6.1e-05,-0.001769,0.17500000000000002,-2.2925000000000004,-4.112500000000001,1.1256875,0.1376875,-0.0116875,1.3668437500000001,1.08875,-0.36546875,-0.72675,1.33528125,0.020650382521370532,0.028918580080277437,True
22199,113209,0,113210,3822.0,42445.0,30431.0,0.002989,-0.000183,0.001281,0.21000000000000002,-1.7500000000000002,-4.130000000000001,1.12534375,0.1324375,-0.01159375,1.37278125,1.082625,-0.36546875,-0.7173125,1.33565625,0.020434913652133204,0.028551597185171328,True
22200,113210,0,113211,3819.0,42444.0,30430.0,-0.003172,0.000122,0.001769,0.22750000000000004,-1.0850000000000002,-3.99,1.1253125,0.13434375,-0.01140625,1.3646875,1.08890625,-0.36275,-0.7255625,1.33609375,0.020403843983129985,0.02888331660806504,True
22201,113211,0,113212,3817.0,42444.0,30428.0,-0.004941,-0.000488,0.002196,0.31500000000000006,-0.7000000000000001,-3.7975000000000003,1.1253125,0.13365625,-0.0118125,1.37190625,1.08315625,-0.36634375,-0.72584375,1.335625,0.020520107781866127,0.028877932628689366,True
22202,113212,0,113213,3815.0,42442.0,30425.0,-0.0060999999999999995,0.001464,0.0017079999999999999,0.56,-0.8225000000000001,-3.8150000000000004,1.124625,0.13471875,-0.01253125,1.37515625,1.0871250000000001,-0.363,-0.72571875,1.33584375,0.020429288264991997,0.02884395423287746,True
22203,113213,0,113214,3811.0,42441.0,30426.0,-0.002989,0.000366,0.002196,0.49000000000000005,-1.1375000000000002,-3.9550000000000005,1.11884375,0.1363125,-0.014375,1.37196875,1.08665625,-0.3624375,-0.72603125,1.34190625,0.020472089461491694,0.028781661027788275,True
22204,113214,0,113215,3807.0,42443.0,30423.0,0.000305,-0.000976,0.0011589999999999999,0.43750000000000006,-1.6275000000000002,-3.9025000000000003,1.1184375,0.13518750000000002,-0.011375,1.375375,1.083875,-0.36171875000000003,-0.72596875,1.34053125,0.020397011191995638,0.02890053600023255,True
22205,113215,0,113216,3808.0,42441.0,30425.0,0.0013419999999999999,-0.00061,-0.001403,0.5075000000000001,-1.9600000000000002,-3.9025000000000003,1.1203750000000001,0.1358125,-0.01175,1.3727500000000001,1.08146875,-0.3625,-0.72596875,1.3359375,0.020454079014879424,0.028885369759273843,True
22206,113216,0,113217,3807.0,42440.0,30423.0,0.002196,-0.001281,-0.001586,0.45500000000000007,-2.1175,-3.9725000000000006,1.1250625,0.13346875,-0.01215625,1.36734375,1.08625,-0.3595625,-0.7258125,1.336,0.020239741579923698,0.028862802789594882,True
22207,113217,0,113218,3806.0,42439.0,30423.0,0.00244,-0.00061,6.1e-05,0.43750000000000006,-2.1,-3.99,1.11784375,0.13393750000000001,-0.01375,1.36625,1.0811875,-0.36275,-0.72721875,1.33946875,0.020387168936183316,0.028853578609604042,True
22208,113218,0,113219,3806.0,42442.0,30425.0,0.000122,-0.0013419999999999999,0.001403,0.4025,-1.9775000000000003,-3.9725000000000006,1.1178125,0.1348125,-0.011625,1.37134375,1.08115625,-0.36315625,-0.7258125,1.3399375,0.02043941864059588,0.02888428843339324,True
22209,113219,0,113220,3805.0,42442.0,30426.0,-0.00061,-0.000915,-0.000305,0.47250000000000003,-2.0650000000000004,-3.99,1.116125,0.1343125,-0.011375,1.37346875,1.08434375,-0.36309375,-0.7256875,1.3421875,0.020416382874198807,0.02888948992823759,True
22210,113220,0,113221,3805.0,42443.0,30428.0,-0.00042699999999999997,0.001769,0.000793,0.7000000000000001,-2.205,-3.7625,1.118625,0.1345625,-0.01403125,1.37328125,1.08796875,-0.36253125,-0.726125,1.34515625,0.020404027188266817,0.028799245737049374,True
22211,113221,0,113222,3807.0,42446.0,30431.0,0.0017079999999999999,0.0025009999999999998,0.000183,0.8400000000000001,-2.4675000000000002,-3.7275000000000005,1.1179375,0.1345625,-0.0115,1.37496875,1.082125,-0.36278125,-0.7254375000000001,1.3411250000000001,0.020414079365425487,0.028874615464337085,True
22212,113222,0,113223,3807.0,42446.0,30432.0,0.0034159999999999998,0.0013419999999999999,-0.00183,0.7350000000000001,-2.5900000000000003,-3.7450000000000006,1.12478125,0.13984375000000002,-0.011375,1.372125,1.0876875,-0.36562500000000003,-0.72721875,1.3321875,0.0207451583942542,0.028949626613385303,True
22213,113223,0,113224,3808.0,42448.0,30434.0,0.00244,0.0017079999999999999,-0.002013,0.6125,-2.4325,-3.8850000000000002,1.12253125,0.13396875,-0.01175,1.3603125,1.09275,-0.37040625,-0.72553125,1.328125,0.020696208131532483,0.028868186603675097,True
22214,113224,0,113225,3809.0,42449.0,30435.0,0.000915,-0.000549,-0.001769,0.43750000000000006,-2.2225,-3.8675,1.11884375,0.13518750000000002,-0.014781250000000001,1.3649375000000001,1.0739375,-0.36090625,-0.715125,1.3428437500000001,0.020364338867729932,0.028336646082105593,True
22215,113225,0,113226,3811.0,42451.0,30436.0,0.000244,-0.001952,-0.000793,0.3325,-1.8375000000000001,-3.7975000000000003,1.1124687500000001,0.13468750000000002,-0.01171875,1.37234375,1.0955625,-0.361,-0.7244375000000001,1.3295937500000001,0.02034758425351997,0.028826489985869244,True
22216,113226,0,113227,3812.0,42450.0,30439.0,-0.001769,-0.001586,0.000549,0.28,-1.435,-3.7100000000000004,1.12546875,0.13396875,-0.00684375,1.36815625,1.095875,-0.3718125,-0.724,1.32953125,0.020752713816422144,0.029006481556382458,True
22217,113227,0,113228,3814.0,42451.0,30440.0,-0.0018909999999999999,-0.000305,0.0011589999999999999,0.49000000000000005,-1.3475000000000001,-3.8325000000000005,1.1188125,0.1325625,-0.0145,1.3676875,1.07534375,-0.35096875,-0.7323125,1.33846875,0.01985675621221435,0.02902326662741303,True
22218,113228,0,113229,3816.0,42451.0,30440.0,-0.0021349999999999997,0.000183,0.001586,0.47250000000000003,-1.5050000000000001,-3.9025000000000003,1.1178125,0.130875,-0.01434375,1.37103125,1.07321875,-0.355375,-0.727875,1.3496875,0.019964792166000316,0.0288553403800367,True
22219,113229,0,113230,3817.0,42451.0,30441.0,-0.001647,0.000732,0.000915,0.47250000000000003,-1.435,-3.9725000000000006,1.1195,0.136375,-0.01165625,1.3665625000000001,1.09828125,-0.368,-0.7203437500000001,1.33003125,0.02069825180564675,0.028668189535187995,True
22220,113230,0,113231,3817.0,42453.0,30443.0,-0.000793,0.0011589999999999999,0.003843,0.5075000000000001,-1.4700000000000002,-3.8325000000000005,1.10953125,0.13146875,-0.01225,1.36703125,1.06771875,-0.367,-0.73453125,1.328875,0.020456713998440512,0.02920133164035603,True
22221,113231,0,113232,3818.0,42452.0,30444.0,-0.0013419999999999999,0.001098,-0.00061,0.47250000000000003,-1.5750000000000002,-3.7625,1.1180625,0.1320625,-0.01434375,1.3668125,1.06471875,-0.360375,-0.72590625,1.3473125000000001,0.02021469291831509,0.028778014961534523,True
22222,113232,0,113233,3819.0,42454.0,30444.0,0.001098,-0.00042699999999999997,-0.003294,0.49000000000000005,-2.0475000000000003,-3.6575,1.11696875,0.13209375,-0.01603125,1.36425,1.073625,-0.36062500000000003,-0.72975,1.33078125,0.020226030736075123,0.028860734540381523,True
22223,113233,0,113234,3819.0,42456.0,30446.0,0.001769,0.000549,0.002745,0.45500000000000007,-2.1175,-3.6750000000000003,1.1184687500000001,0.1325,-0.013125,1.36709375,1.0734375,-0.3623125,-0.7291875,1.3344375,0.0203105719130727,0.028956167686463617,True
22224,113234,0,113235,3822.0,42454.0,30447.0,0.002379,-0.0006709999999999999,0.001647,0.47250000000000003,-2.1350000000000002,-3.6925000000000003,1.1226875,0.13368750000000001,-0.012718750000000001,1.36696875,1.0784375,-0.3636875,-0.727375,1.33484375,0.02041460267457461,0.028901419984935724,True
22225,113235,0,113236,3820.0,42456.0,30449.0,0.001647,-0.000488,-0.000915,0.47250000000000003,-2.0300000000000002,-3.6050000000000004,1.11834375,0.133125,-0.0130625,1.36746875,1.0815625,-0.36575,-0.728625,1.3396875,0.020474436452807734,0.028936606867547225,True
22226,113236,0,113237,3824.0,42457.0,30450.0,0.0006709999999999999,-0.000183,-0.002196,0.5075000000000001,-1.8725000000000003,-3.535,1.11778125,0.135125,-0.01140625,1.3710625,1.08021875,-0.36234375,-0.7258125,1.3418125,0.020419576831559975,0.028893135463192565,True
22227,113237,0,113238,3824.0,42460.0,30451.0,-0.000488,0.000549,0.000793,0.43750000000000006,-1.7325000000000002,-3.5000000000000004,1.1239375,0.133625,-0.0116875,1.3729375,1.08578125,-0.36062500000000003,-0.72571875,1.34309375,0.020288888318752085,0.028878078620060338,True
22228,113238,0,113239,3826.0,42457.0,30455.0,0.000244,0.000732,-0.000488,0.47250000000000003,-1.7850000000000001,-3.3775000000000004,1.1180625,0.13675,-0.012968750000000001,1.3682812500000001,1.08328125,-0.36125,-0.7293125,1.3424375,0.02044230078505824,0.028967394463554137,True
22229,113239,0,113240,3828.0,42460.0,30457.0,6.1e-05,0.0015249999999999999,-0.000549,0.56,-1.7675,-3.4125000000000005,1.112,0.13653125,-0.0145625,1.36571875,1.0811250000000001,-0.3624375,-0.72703125,1.34125,0.020481068448097613,0.02881335582895743,True
22230,113240,0,113241,3829.0,42462.0,30457.0,0.0011589999999999999,0.0017079999999999999,-0.0011589999999999999,0.5075000000000001,-1.7500000000000002,-3.4825000000000004,1.11825,0.132375,-0.01065625,1.36715625,1.0804375,-0.36228125,-0.72865625,1.3366875,0.020304184362866268,0.02903514015242943,True
22231,113241,0,113242,3832.0,42463.0,30460.0,0.0,0.000915,-6.1e-05,0.385,-1.5575,-3.6575,1.11909375,0.1326875,-0.00475,1.36753125,1.08015625,-0.36703125000000003,-0.72975,1.33465625,0.020507986585358035,0.02931691586045148,True
22232,113242,0,113243,3834.0,42465.0,30462.0,-0.000488,-0.002379,0.00042699999999999997,0.17500000000000002,-1.1375000000000002,-3.5000000000000004,1.1186562500000001,0.13518750000000002,-0.014,1.367375,1.08,-0.36312500000000003,-0.7220625,1.335875,0.020453554295682515,0.02864091537670047,True
22233,113243,0,113244,3837.0,42464.0,30464.0,-0.002806,-0.0032329999999999998,0.000793,0.17500000000000002,-0.9275000000000001,-3.4825000000000004,1.1185,0.1325,-0.012781250000000001,1.364125,1.069,-0.3666875,-0.7263125,1.32628125,0.02048647359227634,0.02885716380070826,True
22234,113244,0,113245,3839.0,42467.0,30466.0,-0.002257,-0.002745,0.001037,0.14,-0.8750000000000001,-3.4475000000000002,1.1320625,0.1355625,-0.00903125,1.37596875,1.090125,-0.3629375,-0.7233437500000001,1.34225,0.020461407824897963,0.028892228625021645,True
22235,113245,0,113246,3839.0,42465.0,30465.0,-0.003355,-0.000244,0.000488,0.29750000000000004,-0.8750000000000001,-3.4650000000000003,1.1165,0.13368750000000001,-0.01528125,1.3649375000000001,1.072125,-0.363,-0.729125,1.3231875,0.020386959734022905,0.028866518730444365,True
22236,113246,0,113247,3841.0,42465.0,30470.0,-0.002074,0.001586,0.001769,0.31500000000000006,-1.0150000000000001,-3.5175000000000005,1.12884375,0.135375,-0.01709375,1.3656875,1.0865625,-0.36271875000000003,-0.72840625,1.33546875,0.020444916477148103,0.0287649957222779,True
22237,113247,0,113248,3843.0,42469.0,30471.0,0.000793,0.002013,-0.000122,0.5950000000000001,-1.61,-3.5875000000000004,1.10759375,0.13140625,-0.01340625,1.3645625000000001,1.08071875,-0.36303125,-0.72671875,1.3360625,0.020294580544036368,0.02884784298361464,True
22238,113248,0,113249,3845.0,42471.0,30474.0,0.002074,0.0013419999999999999,-0.000976,0.47250000000000003,-1.715,-3.6575,1.12475,0.12875,-0.01696875,1.3648437500000001,1.08621875,-0.3633125,-0.72871875,1.33534375,0.020196863624353214,0.028782324195425615,True
22239,113249,0,113250,3845.0,42473.0,30477.0,0.0023179999999999997,-6.1e-05,-0.000488,0.4025,-1.8375000000000001,-3.5875000000000004,1.12309375,0.12959375,-0.01196875,1.365125,1.08559375,-0.36075,-0.72603125,1.3355000000000001,0.02012843405888571,0.02887897749461916,True
22240,113250,0,113251,3849.0,42473.0,30479.0,0.0011589999999999999,-0.000305,0.000244,0.24500000000000002,-1.7500000000000002,-3.5700000000000003,1.1155,0.13296875,-0.014125,1.3645,1.08153125,-0.36412500000000003,-0.72921875,1.33625,0.020402692483313067,0.028916956788212322,True
22241,113251,0,113252,3852.0,42475.0,30481.0,0.0030499999999999998,-0.000122,0.000549,0.31500000000000006,-1.8725000000000003,-3.4825000000000004,1.11521875,0.12815625,-0.01378125,1.36390625,1.08240625,-0.36390625,-0.7260625,1.33571875,0.020196371425456456,0.02880690162455102,True
22242,113252,0,113253,3854.0,42478.0,30485.0,0.0021349999999999997,0.001098,0.000488,0.36750000000000005,-1.7500000000000002,-3.4125000000000005,1.115125,0.1299375,-0.01740625,1.3648125,1.0746875,-0.36184375,-0.7261562500000001,1.33528125,0.020186536579358864,0.028663978049560376,True
22243,113253,0,113254,3854.0,42479.0,30486.0,0.00122,0.000366,-0.001403,0.35000000000000003,-1.5925000000000002,-3.3950000000000005,1.114125,0.130375,-0.012812500000000001,1.3643125,1.08090625,-0.36428125,-0.7232500000000001,1.33584375,0.020302517645580043,0.02873560312661159,True
22244,113254,0,113255,3858.0,42480.0,30487.0,-0.0008539999999999999,0.000732,-0.000244,0.385,-1.3650000000000002,-3.4650000000000003,1.12184375,0.1309375,-0.010812500000000001,1.3655625,1.07309375,-0.36340625,-0.725375,1.33509375,0.02029042018703768,0.028899966127915146,True
22245,113255,0,113256,3860.0,42483.0,30490.0,-0.0021349999999999997,0.000122,-0.000915,0.43750000000000006,-1.2600000000000002,-3.2725000000000004,1.12403125,0.131,-0.0116875,1.3659375,1.08578125,-0.3646875,-0.7261562500000001,1.3360625,0.020344504726358587,0.02889526147033064,True
22246,113256,0,113257,3860.0,42482.0,30490.0,-0.0018909999999999999,-0.000122,-0.000366,0.28,-1.05,-3.2550000000000003,1.12340625,0.13465625,-0.0134375,1.367375,1.08365625,-0.3635625,-0.72784375,1.3291875,0.020449339048835738,0.028890762058458898,True
22247,113257,0,113258,3863.0,42485.0,30494.0,-0.001464,0.000366,0.0,0.17500000000000002,-1.225,-3.535,1.11803125,0.1323125,-0.014625,1.36634375,1.081,-0.36215625,-0.72896875,1.33534375,0.020296592178699287,0.028886920324973118,True
22248,113258,0,113259,3865.0,42487.0,30499.0,0.00042699999999999997,-0.001037,6.1e-05,0.22750000000000004,-1.155,-3.5700000000000003,1.1184687500000001,0.1324375,-0.01509375,1.36946875,1.07290625,-0.36234375,-0.7315,1.340625,0.02030926314304222,0.028967359440389785,True
22249,113259,0,113260,3866.0,42485.0,30497.0,0.0006709999999999999,-0.0011589999999999999,-0.000366,0.10500000000000001,-1.1025,-3.6225000000000005,1.11778125,0.13340625,-0.01403125,1.36709375,1.0826875,-0.36084375,-0.7300625000000001,1.350875,0.020288706133177344,0.02895387951405299,True
22250,113260,0,113261,3870.0,42489.0,30498.0,0.000915,-0.001098,-6.1e-05,0.0175,-1.0675000000000001,-3.5875000000000004,1.12371875,0.13115625,-0.01184375,1.3605,1.0718750000000001,-0.3698125,-0.73453125,1.325375,0.0205569390408728,0.029217756047024337,True
22251,113261,0,113262,3871.0,42489.0,30501.0,-0.0008539999999999999,-0.000732,0.0021349999999999997,0.08750000000000001,-0.8225000000000001,-3.5875000000000004,1.125625,0.1330625,-0.0123125,1.36634375,1.07265625,-0.372125,-0.72965625,1.3244375,0.020728085876795723,0.02900742908628178,True
22252,113262,0,113263,3873.0,42490.0,30506.0,-0.000549,0.000244,0.002989,0.035,-0.6475000000000001,-3.5700000000000003,1.1244687500000001,0.1404375,-0.00903125,1.3746562500000001,1.08434375,-0.368625,-0.72015625,1.34478125,0.02089007894372374,0.02876701072631772,True
22253,113263,0,113264,3875.0,42488.0,30506.0,-0.002623,0.000976,0.000244,0.15750000000000003,-0.6300000000000001,-3.4825000000000004,1.1047500000000001,0.13221875,-0.014843750000000001,1.3675625,1.09184375,-0.35909375,-0.7292500000000001,1.357,0.02016957219518891,0.028889119160508306,True
22254,113264,0,113265,3877.0,42489.0,30508.0,-0.001403,0.00061,-0.002074,0.24500000000000002,-0.77,-3.43,1.11728125,0.1315,-0.012781250000000001,1.3676875,1.06825,-0.35759375,-0.73171875,1.3280625,0.020079723597492057,0.029069451551967048,True
22255,113265,0,113266,3880.0,42492.0,30510.0,6.1e-05,0.0008539999999999999,-0.0018909999999999999,0.14,-0.9975,-3.4825000000000004,1.11903125,0.132,-0.0134375,1.3666562500000001,1.067375,-0.36475,-0.7319687500000001,1.332,0.020388060620363434,0.02905273159865205,True
22256,113266,0,113267,3882.0,42491.0,30514.0,0.0011589999999999999,-0.001769,0.0037819999999999998,-0.31500000000000006,-1.2950000000000002,-3.3075,1.1225625000000001,0.142125,-0.01175,1.3676875,1.06571875,-0.36771875,-0.7265625,1.325,0.02092291671742969,0.028908688783570297,True
22257,113267,0,113268,3884.0,42495.0,30517.0,0.000305,-0.0026839999999999998,0.003111,-0.22750000000000004,-1.2950000000000002,-3.1500000000000004,1.12671875,0.1348125,-0.01171875,1.3740625,1.089,-0.369625,-0.7214375000000001,1.343375,0.020699436285950234,0.028708635976366668,True
22258,113268,0,113269,3886.0,42498.0,30521.0,0.000183,-0.002745,-0.000549,-0.08750000000000001,-1.2950000000000002,-3.1500000000000004,1.1261875000000001,0.13434375,-0.011125,1.3675625,1.09628125,-0.36675,-0.7245,1.32484375,0.02056465265166672,0.028852959614956826,True
22259,113269,0,113270,3887.0,42498.0,30521.0,-0.000366,0.000366,-0.000366,0.24500000000000002,-1.3825,-3.22,1.1249375,0.13396875,-0.00878125,1.37371875,1.09509375,-0.36559375,-0.7209375,1.3351250000000001,0.02050278376655607,0.02880781726016661,True
22260,113270,0,113271,3891.0,42500.0,30522.0,-0.0011589999999999999,0.003965,-0.0006709999999999999,0.5950000000000001,-1.5750000000000002,-3.2550000000000003,1.11825,0.13571875,-0.01453125,1.36696875,1.07990625,-0.36,-0.72475,1.32821875,0.02034970238095238,0.02872501238637398,True
22261,113271,0,113272,3893.0,42500.0,30524.0,0.0017079999999999999,0.0035989999999999998,-0.003477,0.8575,-2.0475000000000003,-3.1500000000000004,1.12109375,0.13415625,-0.01196875,1.367375,1.08284375,-0.36512500000000003,-0.72584375,1.3355000000000001,0.020491635072670468,0.028871613329676568,True
22262,113272,0,113273,3897.0,42501.0,30525.0,0.005673,0.001281,-0.004209,0.7000000000000001,-1.8550000000000002,-3.1675000000000004,1.11021875,0.13493750000000002,-0.012625,1.3566875,1.088125,-0.36659375,-0.72503125,1.33565625,0.020582739431932295,0.028813158729576935,True
22263,113273,0,113274,3897.0,42501.0,30526.0,0.005429,-0.002196,-0.003294,0.21000000000000002,-1.5575,-3.2900000000000005,1.1183750000000001,0.13459375,-0.0131875,1.3667500000000001,1.08084375,-0.3648125,-0.7271562500000001,1.33578125,0.020497028245138355,0.02887387222297348,True
22264,113274,0,113275,3897.0,42497.0,30524.0,0.001769,-0.004575,-0.0008539999999999999,-0.15750000000000003,-1.2600000000000002,-3.3775000000000004,1.11790625,0.13215625,-0.014625,1.36521875,1.0812187500000001,-0.3645625,-0.7280625000000001,1.3250625,0.02038693491828552,0.028851330345836843,True
22265,113275,0,113276,3899.0,42492.0,30516.0,-0.001037,-0.0048189999999999995,0.0013419999999999999,-0.21000000000000002,-0.8575,-3.325,1.1190625,0.1323125,-0.01375,1.3704375,1.07284375,-0.3635625,-0.7294375,1.3291875,0.020353140063157842,0.028940710843099442,True
22266,113276,0,113277,3896.0,42487.0,30507.0,-0.0062829999999999995,0.0023179999999999997,0.001464,0.3325,-0.43750000000000006,-3.1500000000000004,1.1185625000000001,0.13609375,-0.01359375,1.372625,1.08059375,-0.36228125,-0.7280625000000001,1.3424375,0.020456828114157003,0.028893033977085755,True
22267,113277,0,113278,3895.0,42483.0,30494.0,-0.0013419999999999999,0.005063,0.002074,0.49000000000000005,-0.21000000000000002,-3.3075,1.1182812500000001,0.13493750000000002,-0.0113125,1.3695,1.080875,-0.3620625,-0.72496875,1.342625,0.02040057158543124,0.028863787744928905,True
22268,113278,0,113279,3890.0,42478.0,30489.0,0.002196,0.00366,-0.0011589999999999999,0.28,-0.052500000000000005,-3.3075,1.12359375,0.13846875,-0.01134375,1.3674375,1.0855625,-0.362,-0.7253437500000001,1.3283125,0.020543007552746084,0.0288772527176695,True
22269,113279,0,113280,3885.0,42474.0,30482.0,0.0044529999999999995,0.002196,0.000549,-0.21000000000000002,-0.12250000000000001,-3.6750000000000003,1.1264375,0.13290625,-0.01259375,1.367,1.08575,-0.36312500000000003,-0.7261875,1.33546875,0.020359918934865707,0.02885983736878158,True
22270,113280,0,113281,3880.0,42470.0,30474.0,0.002196,0.00042699999999999997,0.000122,-0.5075000000000001,0.0,-3.7975000000000003,1.10434375,0.13521875,-0.0208125,1.3615,1.0850312500000001,-0.36525,-0.729625,1.33515625,0.020540267389006887,0.028662484772818027,True
22271,113281,0,113282,3872.0,42471.0,30469.0,-0.005856,-0.003721,0.0018909999999999999,-0.77,0.8925000000000001,-3.7450000000000006,1.10728125,0.13634375,-0.012781250000000001,1.38084375,1.0724375,-0.36496875,-0.72828125,1.33728125,0.02057513412571071,0.02893448164740524,True
22272,113282,0,113283,3869.0,42468.0,30466.0,-0.010614,-0.00671,0.005795,-0.8750000000000001,1.7325000000000002,-3.6575,1.13421875,0.13375,-0.009625,1.3616875,1.08034375,-0.3584375,-0.72471875,1.33790625,0.020206037435693484,0.028922219792692282,True
22273,113283,0,113284,3861.0,42463.0,30458.0,-0.015006,-0.004209,0.008052,-0.8225000000000001,1.6275000000000002,-3.535,1.1125625000000001,0.13665625,-0.00940625,1.3670625,1.0854062500000001,-0.366,-0.7244375000000001,1.34434375,0.020629411885414103,0.02892002093070874,True
22274,113284,0,113285,3857.0,42461.0,30456.0,-0.011833999999999999,-0.002562,0.007076,-0.36750000000000005,0.49000000000000005,-3.2900000000000005,1.1300625,0.1274375,-0.01578125,1.38021875,1.08715625,-0.363,-0.72678125,1.33609375,0.02013042318269507,0.028754247987695533,True
22275,113285,0,113286,3854.0,42460.0,30455.0,-0.0030499999999999998,-0.0008539999999999999,0.000793,0.15750000000000003,-0.9800000000000001,-3.08,1.1219375,0.13596875,-0.0093125,1.37171875,1.08059375,-0.3621875,-0.726875,1.343,0.020447927756897855,0.02901953845764983,True
22276,113286,0,113287,3849.0,42462.0,30455.0,0.011529,0.005612,-0.003843,0.7525000000000001,-3.5175000000000005,-3.6750000000000003,1.1335,0.128625,-0.010875000000000001,1.3613125,1.0851875,-0.36259375,-0.72528125,1.33996875,0.02016282646423885,0.028893756264147655,True
22277,113287,0,113288,3844.0,42464.0,30452.0,0.011467999999999999,0.004697,-0.004392,0.805,-3.9200000000000004,-3.7100000000000004,1.131375,0.1260625,-0.0111875,1.360625,1.088125,-0.36228125,-0.7253125,1.33578125,0.020045074801851734,0.028882344763084388,True
22278,113288,0,113289,3843.0,42464.0,30452.0,0.009516,0.001403,-0.003111,0.8575,-3.8150000000000004,-3.2725000000000004,1.11234375,0.13778125,-0.014,1.382875,1.08678125,-0.36484375,-0.72746875,1.3378125,0.020629108282297113,0.028853286893750496,True
22279,113289,0,113290,3841.0,42463.0,30452.0,0.0048189999999999995,-0.00244,-0.001037,0.8400000000000001,-3.2375000000000003,-2.9575000000000005,1.12190625,0.13996875,-0.00846875,1.3713125,1.08109375,-0.36228125,-0.726625,1.3419375,0.02061588546844315,0.029043844438939807,True
22280,113290,0,113291,3838.0,42462.0,30450.0,-0.000976,-0.001647,0.0011589999999999999,0.8750000000000001,-2.6075000000000004,-2.9400000000000004,1.12925,0.12765625,-0.01184375,1.3609375000000001,1.08771875,-0.36234375,-0.72596875,1.33490625,0.02011300739486528,0.028881578199034162,True
22281,113291,0,113292,3835.0,42461.0,30450.0,-0.011224,-0.001037,0.001769,1.2425000000000002,-2.31,-2.9925,1.1119375,0.13434375,-0.0116875,1.369625,1.08559375,-0.3645625,-0.7284375,1.34071875,0.02047671695315686,0.028984847910427016,True
22282,113292,0,113293,3834.0,42460.0,30448.0,-0.010309,-0.000183,0.000732,1.5925000000000002,-3.0100000000000002,-2.7300000000000004,1.1204375,0.13509375,-0.0100625,1.37025,1.0755000000000001,-0.35965625,-0.7262500000000001,1.336125,0.020310220921118293,0.028964663060512617,True
22283,113293,0,113294,3832.0,42460.0,30448.0,-0.006344,-6.1e-05,-0.000366,1.9075000000000002,-3.9550000000000005,-2.4850000000000003,1.1185625000000001,0.13425,-0.01215625,1.36996875,1.080375,-0.3624375,-0.724875,1.34,0.02038743044492162,0.028825979908897417,True
22284,113294,0,113295,3832.0,42461.0,30451.0,0.003294,0.00122,-0.0015249999999999999,1.9250000000000003,-4.8825,-2.66,1.1198125,0.13171875,-0.011875,1.3668437500000001,1.08571875,-0.36228125,-0.72559375,1.33509375,0.020277247230285546,0.028865585887093207,True
22285,113295,0,113296,3833.0,42462.0,30450.0,0.008539999999999999,0.00183,-0.004697,1.8375000000000001,-6.0200000000000005,-2.9225000000000003,1.1184687500000001,0.13493750000000002,-0.01178125,1.3756875,1.0810625,-0.36221875000000003,-0.7281875,1.3429375000000001,0.020406854363377722,0.028971239804777442,True
22286,113296,0,113297,3834.0,42462.0,30453.0,0.013603,0.0011589999999999999,-0.00915,1.6625,-6.8775,-3.115,1.1265625000000001,0.13478125,-0.01253125,1.3675625,1.086875,-0.36196875,-0.72471875,1.33528125,0.020390388194714355,0.028804675482911202,True
22287,113297,0,113298,3832.0,42467.0,30455.0,0.015311,0.001952,-0.0057339999999999995,1.5050000000000001,-6.282500000000001,-3.0975,1.12375,0.132,-0.011875,1.3726875,1.082,-0.3654375,-0.72578125,1.34134375,0.020415701544452058,0.028872950172201334,True
22288,113298,0,113299,3833.0,42468.0,30456.0,0.011833999999999999,0.001403,-0.005856,1.3650000000000002,-5.1275,-3.22,1.112,0.1353125,-0.009125,1.3661875,1.08253125,-0.354375,-0.72484375,1.3390625,0.020106756999512407,0.02894735179064579,True
22289,113299,0,113300,3832.0,42471.0,30462.0,0.0073809999999999995,0.00183,-0.005063,1.1375000000000002,-3.8850000000000002,-3.4125000000000005,1.1127500000000001,0.13478125,-0.01165625,1.37534375,1.08790625,-0.3623125,-0.7253437500000001,1.33175,0.020404210396693663,0.028864613864064075,True
22290,113300,0,113301,3834.0,42472.0,30462.0,0.001281,0.000732,-0.0015249999999999999,0.8400000000000001,-2.4850000000000003,-3.4825000000000004,1.12153125,0.13471875,-0.012750000000000001,1.366,1.08621875,-0.362375,-0.72728125,1.336,0.020404158051093132,0.028896474415277658,True
22291,113301,0,113302,3836.0,42470.0,30461.0,-0.010248,-0.001952,0.004575,0.22750000000000004,0.42000000000000004,-3.4825000000000004,1.1085,0.13203125,-0.014687500000000001,1.3666875,1.08078125,-0.3629375,-0.72871875,1.33425,0.02031646430156462,0.028874575234513516,True
22292,113302,0,113303,3835.0,42471.0,30466.0,-0.012322,-0.00122,0.0077469999999999995,0.035,1.2075,-3.7275000000000005,1.1185625000000001,0.1355625,-0.0115625,1.3724375,1.07240625,-0.361375,-0.728125,1.34175,0.020398581771349115,0.02897763174522937,True
22293,113303,0,113304,3837.0,42469.0,30463.0,-0.013054,-0.002013,0.0071979999999999995,-0.052500000000000005,1.3125000000000002,-3.6750000000000003,1.108625,0.13371875,-0.009375,1.36740625,1.08725,-0.35875,-0.7255,1.33525,0.020217324370092882,0.02896301389254009,True
22294,113304,0,113305,3838.0,42468.0,30464.0,-0.012261,-0.0018909999999999999,0.006222,-0.07,0.9800000000000001,-3.8500000000000005,1.11334375,0.13203125,-0.01509375,1.3666562500000001,1.0871875,-0.36428125,-0.726375,1.33534375,0.020370496256687236,0.028766094908776556,True
22295,113305,0,113306,3837.0,42468.0,30465.0,-0.007076,-0.001403,0.004026,-0.0175,0.2625,-3.8325000000000005,1.1184375,0.13690625,-0.01371875,1.37403125,1.0814375,-0.3616875,-0.72665625,1.3375625,0.0204663059568431,0.02883275008120032,True
22296,113306,0,113307,3838.0,42468.0,30467.0,0.0018909999999999999,0.000183,0.00183,0.21000000000000002,-1.2950000000000002,-3.9550000000000005,1.1164687500000001,0.13484375,-0.0119375,1.3702812500000001,1.08071875,-0.36225,-0.724875,1.34046875,0.020404262742562778,0.02883482727415204,True
22297,113307,0,113308,3840.0,42470.0,30466.0,0.00549,0.001098,-0.00183,0.29750000000000004,-1.8900000000000001,-3.9550000000000005,1.12546875,0.13178125000000002,-0.01221875,1.36678125,1.0855000000000001,-0.36259375,-0.7258125,1.3360625,0.020292379582941576,0.028860275066795078,True
22298,113308,0,113309,3837.0,42471.0,30468.0,0.008418,0.000976,-0.002745,0.15750000000000003,-2.4675000000000002,-3.7975000000000003,1.11903125,0.13459375,-0.01403125,1.3593125,1.08265625,-0.36325,-0.72665625,1.3363125,0.02043420931115512,0.02882011189846989,True
22299,113309,0,113310,3840.0,42472.0,30467.0,0.009577,0.000549,-0.0037819999999999998,0.21000000000000002,-2.5900000000000003,-3.8325000000000005,1.1185,0.13415625,-0.01203125,1.36671875,1.080875,-0.365375,-0.72859375,1.33553125,0.02050168528085449,0.0289770824513626,True
22300,113310,0,113311,3840.0,42471.0,30468.0,0.009271999999999999,0.001281,-0.00244,0.35000000000000003,-2.24,-3.8850000000000002,1.11725,0.134625,-0.01246875,1.37128125,1.08125,-0.36221875000000003,-0.721625,1.33284375,0.020394027124479377,0.028685664878421217,True
22301,113311,0,113312,3840.0,42474.0,30470.0,0.001403,-0.000122,-0.001037,0.28,-1.3125000000000002,-3.6750000000000003,1.118125,0.13534375,-0.012875000000000001,1.369625,1.0812187500000001,-0.35853125,-0.72740625,1.34371875,0.020275237243624865,0.028896328340138788,True
22302,113312,0,113313,3842.0,42473.0,30470.0,-0.0028669999999999998,0.000244,0.00042699999999999997,0.29750000000000004,-0.805,-3.6750000000000003,1.1185,0.13546875,-0.01190625,1.36978125,1.08059375,-0.36184375,-0.7251562500000001,1.34378125,0.02041358220270172,0.028847138225870667,True
22303,113313,0,113314,3843.0,42474.0,30471.0,-0.006527,-0.0006709999999999999,0.0006709999999999999,0.31500000000000006,-0.385,-3.6750000000000003,1.12203125,0.13490625,-0.01115625,1.3676875,1.09425,-0.365,-0.7248125,1.33434375,0.02051739175046173,0.028863970151442,True
22304,113314,0,113315,3845.0,42474.0,30472.0,-0.008905999999999999,-0.0011589999999999999,0.000976,0.385,0.035,-3.535,1.1214375,0.13459375,-0.01146875,1.3583125,1.09190625,-0.36309375,-0.7239375,1.33771875,0.020427926974586303,0.02881696129510115,True
22305,113315,0,113316,3843.0,42475.0,30474.0,-0.008052,0.0,0.001403,0.29750000000000004,-0.035,-3.6225000000000005,1.13484375,0.1335625,-0.0120625,1.3608437500000001,1.09159375,-0.36496875,-0.7235312500000001,1.3335000000000001,0.020460984584681645,0.028776987510633217,True
22306,113316,0,113317,3845.0,42475.0,30477.0,-0.0018909999999999999,-0.001098,0.000488,0.14,-0.8575,-3.7625,1.11253125,0.1404375,-0.01928125,1.38334375,1.0886875,-0.3605,-0.73028125,1.3350312500000001,0.020563514706184196,0.02875017848816418,True
22307,113317,0,113318,3845.0,42475.0,30478.0,0.002257,-0.000793,-0.0008539999999999999,0.08750000000000001,-1.33,-3.8325000000000005,1.1074375,0.138625,-0.0055,1.37940625,1.0765,-0.363375,-0.72903125,1.346,0.020604698651151575,0.029258374203397074,True
22308,113318,0,113319,3848.0,42477.0,30480.0,0.003721,0.00061,-0.0013419999999999999,0.15750000000000003,-1.715,-3.9725000000000006,1.13709375,0.1243125,-0.00971875,1.35625,1.08534375,-0.35925,-0.72471875,1.33184375,0.01985128852489301,0.028918428040763857,True
22309,113319,0,113320,3848.0,42479.0,30481.0,0.0044529999999999995,0.000122,-0.000732,0.08750000000000001,-1.6275000000000002,-4.025,1.10525,0.12959375,-0.0195625,1.3788125,1.086625,-0.3681875,-0.72209375,1.3325625,0.020427504097298987,0.02841714205537304,True
22310,113320,0,113321,3852.0,42481.0,30484.0,0.000366,-0.0006709999999999999,0.001647,0.052500000000000005,-1.5575,-3.9375000000000004,1.10525,0.1361875,-0.022875,1.35928125,1.0776875000000001,-0.36375,-0.72678125,1.3265,0.02051972705351188,0.028467362689998325,True
22311,113321,0,113322,3853.0,42482.0,30487.0,-0.000488,-0.00042699999999999997,0.00061,0.2625,-1.05,-3.8150000000000004,1.0989375000000001,0.13746875,-0.0231875,1.36078125,1.08225,-0.36634375,-0.72703125,1.333,0.020676573603702855,0.028464547275565077,True
22312,113322,0,113323,3853.0,42479.0,30486.0,-0.00061,-0.000915,-0.000183,0.22750000000000004,-1.1725,-3.8850000000000002,1.105375,0.13365625,-0.01909375,1.3900625,1.081875,-0.3666875,-0.7256875,1.3371875,0.02053392567208817,0.02857731458427597,True
22313,113323,0,113324,3856.0,42480.0,30488.0,-0.0011589999999999999,-0.000244,0.000732,0.12250000000000001,-1.3125000000000002,-3.9375000000000004,1.11134375,0.13959375000000002,-0.00915625,1.37740625,1.076125,-0.362,-0.72478125,1.3413125000000001,0.020589186027419756,0.028943633222235286,True
22314,113324,0,113325,3855.0,42480.0,30490.0,-0.0015249999999999999,6.1e-05,0.000183,0.22750000000000004,-1.435,-4.0075,1.1126875,0.13784375000000001,-0.00665625,1.38178125,1.07978125,-0.362875,-0.72865625,1.3405625,0.02055253125913916,0.02919689580787472,True
22315,113325,0,113326,3857.0,42483.0,30493.0,0.0015249999999999999,0.000305,-0.0015249999999999999,0.28,-1.6800000000000002,-3.8675,1.1397187500000001,0.13415625,-0.006875,1.3664375,1.0823125,-0.3629375,-0.7253437500000001,1.341875,0.020403686952774065,0.029057988324227044,True
22316,113326,0,113327,3858.0,42483.0,30494.0,0.002013,0.001098,-0.000122,0.385,-1.5925000000000002,-3.9550000000000005,1.11671875,0.12803125,-0.01175,1.3606875,1.08925,-0.36653125000000003,-0.7256875,1.33584375,0.020296795425077174,0.02887432351476577,True
22317,113327,0,113328,3860.0,42484.0,30495.0,0.000793,0.0015249999999999999,-0.000915,0.42000000000000004,-1.5575,-3.99,1.11803125,0.13253125,-0.0113125,1.36759375,1.0824375,-0.363375,-0.729,1.3274375,0.020354579363491304,0.02902209955922197,True
22318,113328,0,113329,3862.0,42486.0,30496.0,0.000488,0.0017079999999999999,-0.001586,0.3325,-1.4175000000000002,-3.8850000000000002,1.12434375,0.1315625,-0.0113125,1.368,1.0806875,-0.3661875,-0.72590625,1.3360625,0.02042789829143357,0.02890060905249934,True
22319,113329,0,113330,3863.0,42488.0,30500.0,0.0006709999999999999,0.000488,-6.1e-05,0.24500000000000002,-1.4000000000000001,-3.9025000000000003,1.11721875,0.13146875,-0.011625,1.36778125,1.08759375,-0.36425,-0.72575,1.3355000000000001,0.02034615266219974,0.028881833715863017,True
22320,113330,0,113331,3865.0,42488.0,30501.0,-0.000732,-0.001098,0.000732,0.0,-1.0150000000000001,-4.025,1.1181875000000001,0.13184375,-0.0130625,1.3656875,1.08096875,-0.3631875,-0.72759375,1.342,0.02031882117231171,0.028896109230199564,True
22321,113331,0,113332,3866.0,42489.0,30504.0,-0.0013419999999999999,-0.000366,0.0011589999999999999,0.0,-0.805,-3.9375000000000004,1.118625,0.13515625,-0.01371875,1.3731875,1.0816875,-0.36225,-0.72496875,1.3375000000000001,0.02041708996500734,0.02876646709614143,True
22322,113332,0,113333,3869.0,42489.0,30504.0,-0.001647,-0.000305,0.001281,-0.0175,-0.8925000000000001,-3.9550000000000005,1.1228125,0.1348125,-0.0081875,1.3651875,1.08653125,-0.36171875000000003,-0.72553125,1.340625,0.02038161818939807,0.029012268442159355,True
22323,113333,0,113334,3870.0,42491.0,30509.0,-0.0013419999999999999,-0.001098,0.000732,0.052500000000000005,-0.8225000000000001,-4.077500000000001,1.12634375,0.13084375,-0.0121875,1.3671875,1.08646875,-0.36503125000000003,-0.72621875,1.33628125,0.020351913154225895,0.02887749466343292,True
22324,113334,0,113335,3873.0,42493.0,30509.0,-0.0017079999999999999,-0.001647,0.0,0.0175,-0.8225000000000001,-3.9025000000000003,1.12734375,0.13221875,-0.01178125,1.3662812500000001,1.07596875,-0.36403125000000003,-0.7278125,1.3355000000000001,0.020368140021984255,0.028956514046683264,True
22325,113335,0,113336,3872.0,42494.0,30509.0,0.000305,0.000183,0.000183,0.17500000000000002,-1.3650000000000002,-3.9375000000000004,1.117625,0.13493750000000002,-0.011125,1.37078125,1.08065625,-0.35931250000000003,-0.72465625,1.336,0.020289981500914694,0.028859096878242747,True
22326,113336,0,113337,3874.0,42494.0,30511.0,-0.000122,6.1e-05,0.0011589999999999999,0.15750000000000003,-1.5225000000000002,-3.9550000000000005,1.1240937500000001,0.13284375,-0.012625,1.3676875,1.0884375,-0.36628125,-0.7293437500000001,1.33778125,0.020484250135625437,0.028982522029117736,True
22327,113337,0,113338,3876.0,42493.0,30513.0,0.001586,0.000976,-0.000366,0.36750000000000005,-1.61,-4.0600000000000005,1.11853125,0.13493750000000002,-0.014781250000000001,1.3746562500000001,1.08134375,-0.355,-0.724875,1.342625,0.02011650585095463,0.028719811525841892,True
22328,113338,0,113339,3877.0,42494.0,30513.0,0.0013419999999999999,0.000549,-0.001403,0.2625,-1.6275000000000002,-3.9725000000000006,1.1204375,0.13503125,-0.01128125,1.36725,1.0869375000000001,-0.36296875,-0.72503125,1.33565625,0.020440858628938643,0.0288675064869736,True
22329,113339,0,113340,3878.0,42494.0,30516.0,0.0013419999999999999,0.000488,-0.000732,0.10500000000000001,-1.54,-3.99,1.118625,0.13225,-0.01453125,1.37184375,1.08015625,-0.36465625,-0.72784375,1.34153125,0.020394552047086647,0.028846530543125096,True
22330,113340,0,113341,3880.0,42498.0,30517.0,0.000488,-0.000793,6.1e-05,-0.10500000000000001,-1.3125000000000002,-3.9725000000000006,1.1185,0.13484375,-0.01203125,1.36775,1.08115625,-0.36209375,-0.72475,1.33234375,0.020397979956053656,0.028826125643333096,True
22331,113341,0,113342,3883.0,42498.0,30520.0,-0.000122,-0.0017079999999999999,-6.1e-05,-0.12250000000000001,-1.1025,-3.99,1.1081875,0.13196875,-0.01578125,1.37425,1.0813125000000001,-0.36212500000000003,-0.72659375,1.33834375,0.020281225467811203,0.028746883100305723,True
22332,113342,0,113343,3883.0,42499.0,30521.0,-0.0011589999999999999,-0.00061,0.001769,0.035,-0.8925000000000001,-3.8500000000000005,1.11653125,0.1353125,-0.01115625,1.367125,1.08171875,-0.36253125,-0.7253125,1.33621875,0.020434812166736576,0.02888360865004234,True
22333,113343,0,113344,3883.0,42497.0,30524.0,-0.003355,-6.1e-05,0.002379,0.24500000000000002,-0.8400000000000001,-3.7450000000000006,1.119,0.13403125,-0.01184375,1.3720625,1.08228125,-0.3659375,-0.72584375,1.3406875,0.020519167382744865,0.028876668768886806,True
22334,113344,0,113345,3884.0,42496.0,30525.0,-0.004148,0.001647,0.001769,0.42000000000000004,-1.0675000000000001,-3.8675,1.1216875,0.13434375,-0.01153125,1.366875,1.086625,-0.36284375,-0.724875,1.33509375,0.020407613540599095,0.02885125809533921,True
22335,113345,0,113346,3888.0,42497.0,30527.0,-0.000915,0.002013,-0.0017079999999999999,0.77,-2.0825,-3.6575,1.1256875,0.130875,-0.0115,1.36890625,1.08671875,-0.36465625,-0.7258125,1.3354375,0.020338117842315137,0.028889343878992856,True
22336,113346,0,113347,3888.0,42499.0,30530.0,0.003111,0.0018909999999999999,-0.0042699999999999995,0.8925000000000001,-2.5375,-3.7450000000000006,1.12553125,0.132375,-0.011625,1.36778125,1.08596875,-0.36412500000000003,-0.72665625,1.32903125,0.0203783226362531,0.028917425905494197,True
22337,113347,0,113348,3890.0,42499.0,30527.0,0.006954,0.000976,-0.005246,0.9100000000000001,-3.0450000000000004,-3.8850000000000002,1.1226562500000001,0.14240625,-0.0130625,1.37378125,1.072625,-0.3624375,-0.73121875,1.351,0.020722218374085107,0.02903844963160176,True
22338,113348,0,113349,3893.0,42498.0,30526.0,0.0075639999999999995,0.000122,-0.0030499999999999998,0.525,-2.9575000000000005,-4.0075,1.11459375,0.134875,-0.01146875,1.3668125,1.09978125,-0.365,-0.72403125,1.32565625,0.020516109172994047,0.02882064388265971,True
22339,113349,0,113350,3892.0,42495.0,30521.0,0.0050019999999999995,-0.0028669999999999998,0.000183,0.29750000000000004,-2.66,-3.8850000000000002,1.11696875,0.1335,-0.01146875,1.3675,1.07475,-0.3705625,-0.7260625,1.31896875,0.020683252592138573,0.028900426422524817,True
22340,113350,0,113351,3890.0,42488.0,30511.0,-0.000976,-0.000793,0.001098,0.36750000000000005,-1.4175000000000002,-3.5875000000000004,1.12590625,0.13434375,-0.0115,1.365125,1.08334375,-0.3678125,-0.72590625,1.32809375,0.020607358580094128,0.02889302591285203,True
22341,113351,0,113352,3887.0,42484.0,30502.0,-0.003965,0.001281,0.000793,0.49000000000000005,-0.8575,-3.6575,1.1181875000000001,0.133,-0.0138125,1.36825,1.07375,-0.35984375,-0.72984375,1.34353125,0.020231810805436717,0.028954135628131497,True
22342,113352,0,113353,3882.0,42477.0,30493.0,-0.004392,0.003843,0.000732,0.5775,-0.7525000000000001,-3.7800000000000002,1.11859375,0.13446875,-0.01059375,1.37309375,1.078,-0.3614375,-0.72240625,1.33184375,0.020356198192327524,0.02879220140636594,True
22343,113353,0,113354,3877.0,42472.0,30484.0,-0.004514,0.003843,0.00061,0.36750000000000005,-0.7175,-3.8850000000000002,1.124625,0.13478125,-0.010937500000000001,1.3684375,1.09025,-0.368,-0.7264375000000001,1.33096875,0.020632848407747865,0.028936639174163285,True
22344,113354,0,113355,3872.0,42470.0,30476.0,-0.0042699999999999995,0.001037,0.000366,0.15750000000000003,-0.77,-3.8675,1.1235,0.13178125000000002,-0.0114375,1.3674375,1.082375,-0.3664375,-0.73253125,1.3324375,0.02044692622793135,0.029155679324169455,True
22345,113355,0,113356,3864.0,42468.0,30472.0,-0.001769,-0.00366,0.000915,-0.31500000000000006,-1.05,-4.077500000000001,1.11796875,0.131625,-0.01425,1.367,1.074125,-0.36040625,-0.7291875,1.3395937500000001,0.020197990335239172,0.02891067488569934,True
22346,113356,0,113357,3856.0,42462.0,30465.0,-0.0006709999999999999,-0.0026839999999999998,0.001464,-0.14,-1.33,-4.0600000000000005,1.11775,0.13234375,-0.0105625,1.35984375,1.0745,-0.36078125,-0.725625,1.3485,0.02024257740091977,0.02891989585703091,True
22347,113357,0,113358,3851.0,42463.0,30465.0,0.0017079999999999999,-0.0013419999999999999,0.000183,-0.052500000000000005,-1.6625,-4.235,1.1185625000000001,0.13428125,-0.01234375,1.373125,1.07390625,-0.360375,-0.72171875,1.34296875,0.02030577320751425,0.028694404591104734,True
22348,113358,0,113359,3846.0,42460.0,30459.0,0.0032329999999999998,-0.0008539999999999999,-0.000793,0.0175,-1.8900000000000001,-4.2875000000000005,1.11759375,0.134875,-0.01053125,1.372875,1.08528125,-0.36178125,-0.72296875,1.3369375000000001,0.020386696888184234,0.02881682645818982,True
22349,113359,0,113360,3839.0,42458.0,30457.0,0.0040869999999999995,0.0006709999999999999,-0.0015249999999999999,0.08750000000000001,-1.9425000000000001,-4.305000000000001,1.1244687500000001,0.13409375,-0.01321875,1.36753125,1.08553125,-0.35590625000000004,-0.72703125,1.3353125000000001,0.020118323455937923,0.028867699190536677,True
22350,113360,0,113361,3833.0,42458.0,30453.0,0.00183,0.00122,6.1e-05,0.12250000000000001,-1.5575,-4.1475,1.11671875,0.1324375,-0.0133125,1.3684375,1.0812187500000001,-0.36353125000000003,-0.7273125,1.33990625,0.020357014133573107,0.028874953555911104,True
22351,113361,0,113362,3830.0,42456.0,30451.0,6.1e-05,-0.0006709999999999999,0.00122,0.052500000000000005,-1.435,-4.095000000000001,1.11396875,0.136375,-0.00971875,1.37334375,1.07371875,-0.36321875000000003,-0.72446875,1.3439375,0.020506065110957476,0.028908609007018603,True
22352,113362,0,113363,3825.0,42454.0,30450.0,-0.000915,-0.0006709999999999999,-0.0008539999999999999,0.12250000000000001,-1.4000000000000001,-4.165,1.12509375,0.1325625,-0.01225,1.36653125,1.08628125,-0.35884375,-0.72621875,1.33628125,0.020173627904649622,0.02887496698216342,True
22353,113363,0,113364,3823.0,42454.0,30447.0,-0.0011589999999999999,0.000122,0.000244,0.21000000000000002,-1.4700000000000002,-4.130000000000001,1.11871875,0.13296875,-0.01375,1.37090625,1.0811875,-0.3624375,-0.728125,1.34078125,0.020334839237658386,0.028889169720712753,True
22354,113364,0,113365,3820.0,42453.0,30449.0,-0.000122,0.000488,0.000732,0.35000000000000003,-1.61,-4.130000000000001,1.11890625,0.13559375,-0.0119375,1.372,1.08040625,-0.36184375,-0.7269375,1.341875,0.02041871317724054,0.028915833187995885,True
22355,113365,0,113366,3817.0,42454.0,30447.0,-0.000488,0.000793,0.00061,0.31500000000000006,-1.7675,-4.112500000000001,1.11596875,0.135125,-0.01134375,1.3718125,1.0695625,-0.3630625,-0.7239375,1.33265625,0.02044847604852633,0.028822017124092793,True
22356,113366,0,113367,3816.0,42454.0,30448.0,-0.000488,0.000976,0.000488,0.36750000000000005,-1.8550000000000002,-4.0425,1.12528125,0.13365625,-0.0119375,1.3675625,1.0912187500000001,-0.36703125000000003,-0.724625,1.33653125,0.020547743172447404,0.028825007457140398,True
22357,113367,0,113368,3815.0,42452.0,30449.0,-0.000488,-0.000305,-0.000976,0.43750000000000006,-1.8375000000000001,-4.0425,1.118875,0.1320625,-0.01659375,1.3671875,1.0809375,-0.36571875,-0.7295,1.3363125,0.020429573824905123,0.02882817080814412,True
22358,113368,0,113369,3813.0,42453.0,30448.0,-0.000488,-0.000549,-0.00122,0.28,-1.6450000000000002,-4.130000000000001,1.11890625,0.13546875,-0.01709375,1.365,1.07409375,-0.36309375,-0.728125,1.3255937500000001,0.02046384195356963,0.028753949197523065,True
22359,113369,0,113370,3812.0,42450.0,30447.0,-0.0013419999999999999,-0.001403,0.000366,0.15750000000000003,-1.8375000000000001,-4.130000000000001,1.11671875,0.1320625,-0.01190625,1.36290625,1.0813125000000001,-0.36615625,-0.7294375,1.33615625,0.0204471622396331,0.029015267735062716,True
22360,113370,0,113371,3814.0,42450.0,30448.0,0.000976,-0.000244,0.00061,0.31500000000000006,-2.205,-3.9550000000000005,1.11584375,0.13090625,-0.0161875,1.36715625,1.08071875,-0.365,-0.728875,1.33628125,0.02035322183459881,0.0288200534799905,True
22361,113371,0,113372,3811.0,42451.0,30449.0,0.00244,-6.1e-05,-0.002074,0.47250000000000003,-2.45,-3.9200000000000004,1.11634375,0.13128125000000002,-0.016875,1.3647500000000001,1.0811250000000001,-0.36703125000000003,-0.72746875,1.3363125,0.020450275410550885,0.028737019433095028,True
22362,113372,0,113373,3811.0,42451.0,30450.0,0.003843,0.001281,-0.001647,0.49000000000000005,-2.555,-4.130000000000001,1.1089375000000001,0.13165625,-0.012718750000000001,1.36040625,1.07853125,-0.36415625,-0.72975,1.33534375,0.020350078817114793,0.028994682518019795,True
22363,113373,0,113374,3812.0,42452.0,30450.0,0.00366,0.001098,-0.002074,0.42000000000000004,-2.4675000000000002,-4.165,1.1168125,0.13596875,-0.0164375,1.3765625000000001,1.08109375,-0.36321875000000003,-0.72678125,1.34240625,0.02048939038483985,0.02872770793812883,True
22364,113374,0,113375,3812.0,42452.0,30449.0,0.002257,0.000915,-0.002257,0.4025,-2.205,-4.2,1.11721875,0.1345625,-0.01028125,1.37521875,1.08134375,-0.363,-0.72465625,1.3415625,0.020422874851208802,0.028893222731863056,True
22365,113375,0,113376,3811.0,42454.0,30453.0,-0.001464,-0.000793,0.001037,0.3325,-1.4700000000000002,-4.2175,1.11878125,0.13584375,-0.014375,1.37728125,1.0795937500000001,-0.36275,-0.7268125,1.33978125,0.020465413387240772,0.028812346920978994,True
22366,113376,0,113377,3812.0,42453.0,30455.0,-0.002989,-0.00061,0.0011589999999999999,0.21000000000000002,-1.1900000000000002,-4.1475,1.1045,0.13575,-0.01603125,1.3698125,1.08096875,-0.36321875000000003,-0.72159375,1.33628125,0.020480411686161132,0.02854033227530082,True
22367,113377,0,113378,3813.0,42453.0,30454.0,-0.003965,-6.1e-05,0.0018909999999999999,0.1925,-0.9450000000000001,-4.2525,1.1154375,0.13253125,-0.01253125,1.363875,1.0795625,-0.3639375,-0.7245625,1.33515625,0.020377196830356343,0.028798537891216478,True
22368,113378,0,113379,3811.0,42453.0,30456.0,-0.0023179999999999997,-0.000915,0.001647,0.2625,-1.1025,-4.3925,1.11459375,0.133625,-0.01375,1.36534375,1.0806875,-0.36203125,-0.7271562500000001,1.33528125,0.02034544020215884,0.028851123954053554,True
22369,113379,0,113380,3812.0,42453.0,30457.0,-0.001464,-0.000793,0.001647,0.12250000000000001,-1.4525000000000001,-4.305000000000001,1.11703125,0.13253125,-0.01359375,1.36728125,1.08171875,-0.36546875,-0.7263437500000001,1.33590625,0.020438761310512442,0.02882553147389614,True
22370,113380,0,113381,3812.0,42452.0,30456.0,0.0015249999999999999,0.0008539999999999999,0.00042699999999999997,0.1925,-1.7500000000000002,-4.2175,1.1188125,0.13515625,-0.012,1.37384375,1.081,-0.36296875,-0.72740625,1.34040625,0.02044598936654631,0.02893171417847353,True
22371,113381,0,113382,3812.0,42454.0,30456.0,0.0015249999999999999,-0.000732,-0.000366,0.10500000000000001,-1.8725000000000003,-4.2175,1.1186875,0.13496875,-0.0123125,1.3681875000000001,1.08128125,-0.3644375,-0.72484375,1.34278125,0.020497343720740527,0.02881843287685084,True
22372,113382,0,113383,3812.0,42455.0,30456.0,0.000732,0.0011589999999999999,0.000915,0.1925,-1.8375000000000001,-4.1825,1.1184375,0.13784375000000001,-0.0113125,1.367625,1.07265625,-0.35828125,-0.72484375,1.3363125,0.020367816386880747,0.028858878026276708,True
22373,113383,0,113384,3813.0,42453.0,30458.0,0.00042699999999999997,0.000976,0.0011589999999999999,0.31500000000000006,-1.8550000000000002,-4.077500000000001,1.123625,0.13378125,-0.011875,1.36765625,1.10590625,-0.37446875,-0.7292500000000001,1.3240625,0.020851736512206037,0.02900916930355753,True
22374,113384,0,113385,3813.0,42454.0,30460.0,0.0015249999999999999,0.000488,-0.000549,0.36750000000000005,-2.0300000000000002,-3.9375000000000004,1.12709375,0.13484375,-0.01159375,1.3696875,1.07703125,-0.3723125,-0.72771875,1.32471875,0.020808704549475966,0.028960415121188646,True
22375,113385,0,113386,3814.0,42455.0,30460.0,0.0015249999999999999,6.1e-05,-0.000305,0.56,-2.24,-3.99,1.12540625,0.13253125,-0.01146875,1.36765625,1.07834375,-0.37490625,-0.73253125,1.3355000000000001,0.020818028787290208,0.029154415806105567,True
22376,113386,0,113387,3814.0,42454.0,30459.0,0.000366,0.000122,-0.000732,0.5950000000000001,-2.3275,-3.9550000000000005,1.1186562500000001,0.1326875,-0.01396875,1.36725,1.07090625,-0.35890625,-0.72471875,1.34075,0.02018127353316613,0.028746535286675402,True
22377,113387,0,113388,3815.0,42456.0,30459.0,-0.000183,0.000488,-0.000915,0.5950000000000001,-2.345,-3.9025000000000003,1.11934375,0.135125,-0.01246875,1.374125,1.1035,-0.35690625,-0.7166875,1.35034375,0.02020089271395048,0.028491631412987686,True
22378,113388,0,113389,3814.0,42455.0,30461.0,-0.000793,-0.000183,-0.001098,0.6300000000000001,-2.2225,-3.8150000000000004,1.1185,0.13540625,-0.013375,1.3647500000000001,1.10134375,-0.36034375,-0.71859375,1.35590625,0.02035069804792882,0.028529889569466307,True
22379,113389,0,113390,3815.0,42455.0,30462.0,0.000732,0.000976,-0.0017079999999999999,0.6125,-2.3625000000000003,-3.8675,1.11834375,0.134625,-0.00825,1.35925,1.08025,-0.35984375,-0.71815625,1.357375,0.02029851895088613,0.028720032466013724,True
22380,113390,0,113391,3815.0,42453.0,30462.0,0.00183,0.0011589999999999999,-0.002806,0.525,-2.3625000000000003,-3.9200000000000004,1.1185625000000001,0.13259375,-0.0143125,1.3679375,1.07690625,-0.3590625,-0.72665625,1.35753125,0.02018370986157616,0.02880873753401251,True
22381,113391,0,113392,3816.0,42455.0,30464.0,0.002013,0.0008539999999999999,-0.002257,0.385,-2.1350000000000002,-3.9200000000000004,1.119375,0.1389375,-0.0114375,1.37115625,1.0675937500000001,-0.3664375,-0.72646875,1.3184375,0.020740619140569894,0.028917645185384592,True
22382,113392,0,113393,3817.0,42456.0,30468.0,0.0017079999999999999,0.000366,-0.000183,0.24500000000000002,-1.9425000000000001,-3.99,1.12590625,0.13468750000000002,-0.0116875,1.37559375,1.09871875,-0.36353125000000003,-0.71965625,1.3434062500000001,0.02044936527827837,0.02863991079973048,True
22383,113393,0,113394,3820.0,42457.0,30466.0,-6.1e-05,-0.001769,0.000366,0.15750000000000003,-1.5750000000000002,-4.0600000000000005,1.1180625,0.13478125,-0.01415625,1.3735625,1.09603125,-0.35975,-0.7233125,1.34415625,0.02030116277876415,0.028683706926408023,True
22384,113394,0,113395,3820.0,42456.0,30468.0,-0.002806,-0.000915,0.001647,-0.12250000000000001,-0.8575,-4.025,1.11953125,0.132375,-0.01453125,1.3675,1.07234375,-0.3635,-0.72790625,1.3328125,0.0203531922753299,0.028848985142039672,True
22385,113395,0,113396,3823.0,42460.0,30473.0,-0.003111,-0.002379,0.003111,-0.0175,-0.6825000000000001,-4.0600000000000005,1.1224375,0.13403125,-0.0110625,1.369,1.0783125,-0.36403125000000003,-0.7211875,1.3413125000000001,0.02044253247294616,0.0287253595726338,True
22386,113396,0,113397,3824.0,42462.0,30474.0,-0.002257,0.0,0.0023179999999999997,-0.052500000000000005,-0.805,-4.0075,1.12546875,0.13328125,-0.0115625,1.36746875,1.0871875,-0.3633125,-0.71865625,1.331625,0.020382850238447665,0.028605671070813164,True
22387,113397,0,113398,3826.0,42461.0,30478.0,-0.003172,-0.000183,0.00122,0.12250000000000001,-1.0150000000000001,-4.0075,1.12390625,0.13496875,-0.0111875,1.3684375,1.089,-0.36225,-0.7246875,1.3420625,0.020409393631540602,0.0288577964837776,True
22388,113398,0,113399,3827.0,42460.0,30477.0,-0.0015249999999999999,0.000793,0.000976,0.29750000000000004,-1.2950000000000002,-3.99,1.124,0.13534375,-0.0115,1.37071875,1.08990625,-0.36284375,-0.724625,1.34271875,0.020448659652057246,0.028842702366567746,True
22389,113399,0,113400,3829.0,42462.0,30481.0,0.002196,0.000244,-0.0013419999999999999,0.10500000000000001,-1.9425000000000001,-3.9025000000000003,1.12309375,0.13453125,-0.0120625,1.372875,1.0868125,-0.36253125,-0.7243125,1.34153125,0.02040274448083058,0.028807676654305354,True
22390,113400,0,113401,3830.0,42462.0,30481.0,0.0028669999999999998,-0.0008539999999999999,-0.0017079999999999999,0.14,-2.0825,-3.9200000000000004,1.122125,0.135,-0.010875000000000001,1.3721875000000001,1.08075,-0.36209375,-0.72453125,1.34421875,0.020404393608410606,0.0288642984889754,True
22391,113401,0,113402,3832.0,42467.0,30482.0,0.002623,0.000488,-0.0011589999999999999,0.28,-1.995,-3.9375000000000004,1.1189375,0.1355,-0.0145625,1.37171875,1.08103125,-0.363,-0.72684375,1.33446875,0.020461355333907975,0.028805991464236107,True
22392,113402,0,113403,3832.0,42465.0,30487.0,0.0015249999999999999,0.000549,-0.000244,0.36750000000000005,-1.6975000000000002,-3.99,1.1195,0.135375,-0.0151875,1.367625,1.0814375,-0.36575,-0.72378125,1.33621875,0.02056677918799955,0.028660411724035943,True
22393,113403,0,113404,3834.0,42464.0,30488.0,0.000793,0.001098,0.000183,0.49000000000000005,-1.4700000000000002,-4.0075,1.1135625,0.12821875,-0.01725,1.3668437500000001,1.0890625,-0.363375,-0.725625,1.3365625,0.020177571867608653,0.028649427466444225,True
22394,113404,0,113405,3835.0,42466.0,30489.0,-0.00183,0.000549,0.00061,0.3325,-1.2600000000000002,-3.9375000000000004,1.116875,0.13525,-0.0138125,1.3856875,1.0805,-0.36353125000000003,-0.7263125,1.34240625,0.020472453064454686,0.028815457217892883,True
22395,113405,0,113406,3838.0,42466.0,30490.0,-0.001464,-0.000549,0.00061,0.21000000000000002,-1.33,-3.9375000000000004,1.1340625,0.1360625,-0.0045000000000000005,1.3740625,1.0814062500000001,-0.3621875,-0.726,1.33203125,0.020451775933503506,0.029179810725552053,True
22396,113406,0,113407,3839.0,42467.0,30490.0,-0.000549,-0.0008539999999999999,-0.000183,0.21000000000000002,-1.3650000000000002,-3.9550000000000005,1.1345625,0.13596875,-0.0085,1.37578125,1.08659375,-0.36309375,-0.727375,1.3419375,0.020484364798702952,0.029072030492520943,True
22397,113407,0,113408,3840.0,42466.0,30493.0,-0.000244,-0.000488,0.000366,0.29750000000000004,-1.4175000000000002,-3.9375000000000004,1.1319375,0.1365625,-0.0084375,1.3823750000000001,1.07403125,-0.35996875,-0.727125,1.343625,0.02038308238798541,0.029064741655166138,True
22398,113408,0,113409,3840.0,42469.0,30496.0,-0.0013419999999999999,-0.00061,0.00061,0.4025,-1.5050000000000001,-3.99,1.117125,0.136875,-0.01353125,1.37040625,1.08028125,-0.36275,-0.72621875,1.3349375,0.020507742352566933,0.028823149516138614,True
22399,113409,0,113410,3844.0,42469.0,30498.0,-0.000488,0.000793,0.000549,0.47250000000000003,-1.715,-3.9550000000000005,1.1141875,0.13765625,-0.00834375,1.3835625,1.080625,-0.36503125000000003,-0.72871875,1.3326875,0.02063151468356931,0.029131108945949738,True
22400,113410,0,113411,3844.0,42472.0,30499.0,0.001769,-0.000976,-0.000732,0.31500000000000006,-1.7325000000000002,-3.9725000000000006,1.13453125,0.13525,-0.00975,1.3734375,1.0824375,-0.36271875000000003,-0.724,1.3430625,0.020439785686890963,0.02888893382947743,True
22401,113411,0,113412,3847.0,42469.0,30501.0,0.00061,-0.0006709999999999999,-0.001769,0.24500000000000002,-1.6625,-4.0075,1.12475,0.132375,-0.01025,1.3760625,1.0850625,-0.36284375,-0.71978125,1.34425,0.020326804008665864,0.02870297446503496,True
22402,113412,0,113413,3849.0,42470.0,30503.0,0.0011589999999999999,-0.0011589999999999999,-0.00061,0.1925,-1.715,-4.0425,1.133,0.1323125,-0.01015625,1.362,1.0816875,-0.3630625,-0.724625,1.3365,0.020333034896577555,0.028897051016951725,True
22403,113413,0,113414,3850.0,42473.0,30505.0,-0.000549,-0.000183,0.0013419999999999999,0.31500000000000006,-1.6275000000000002,-3.9725000000000006,1.1054375,0.13040625,-0.010125,1.375875,1.08890625,-0.3663125,-0.72875,1.337,0.020385470719051148,0.02906030430167315,True
22404,113414,0,113415,3853.0,42471.0,30506.0,-0.00042699999999999997,6.1e-05,-0.000488,0.49000000000000005,-1.6975000000000002,-4.0425,1.12875,0.13228125,-0.01234375,1.36496875,1.0812187500000001,-0.36309375,-0.7248125,1.332,0.020333008815844662,0.02881594147579481,True
22405,113415,0,113416,3853.0,42476.0,30509.0,0.000549,0.0006709999999999999,0.0,0.3325,-1.6975000000000002,-4.0075,1.112,0.13568750000000002,-0.00278125,1.368625,1.0808125,-0.3625625,-0.72090625,1.33584375,0.02045146113016642,0.029049299112972448,True
22406,113416,0,113417,3856.0,42476.0,30511.0,0.00122,-0.000244,-0.000305,0.1925,-1.5050000000000001,-4.095000000000001,1.11909375,0.1355625,-0.01046875,1.36990625,1.07990625,-0.365375,-0.7223125,1.34165625,0.020559400378611044,0.028793574630205,True
22407,113417,0,113418,3858.0,42474.0,30514.0,0.0015249999999999999,-0.000793,-0.000915,0.07,-1.4525000000000001,-4.077500000000001,1.1246875,0.1325,-0.0145,1.36296875,1.0805,-0.36484375,-0.72578125,1.336,0.02041235130022125,0.028766785680432245,True
22408,113418,0,113419,3859.0,42475.0,30518.0,-0.000122,-0.000549,-0.000122,0.15750000000000003,-1.3650000000000002,-3.9375000000000004,1.1188125,0.13553125,-0.01115625,1.3740625,1.08146875,-0.3624375,-0.72784375,1.34528125,0.020440021652184847,0.0289830163618694,True
22409,113419,0,113420,3861.0,42477.0,30518.0,-0.002989,0.00061,0.0018909999999999999,0.42000000000000004,-0.9800000000000001,-3.8850000000000002,1.1266875,0.141375,-0.01,1.3593125,1.08571875,-0.36303125,-0.71996875,1.3361875,0.020703755818562194,0.028720454996529882,True
22410,113420,0,113421,3863.0,42478.0,30519.0,-0.002623,0.001037,0.00244,0.35000000000000003,-1.0850000000000002,-3.8675,1.12275,0.13209375,-0.007875,1.3716875,1.08446875,-0.3641875,-0.72765625,1.3355625,0.02036929201928035,0.029108349077765914,True
22411,113421,0,113422,3865.0,42478.0,30522.0,-0.0035989999999999998,0.00183,0.002074,0.45500000000000007,-1.3475000000000001,-3.6925000000000003,1.1185,0.1373125,-0.0111875,1.37540625,1.0810625,-0.36303125,-0.7184375000000001,1.34421875,0.020537007274084588,0.028612245413974894,True
22412,113422,0,113423,3867.0,42479.0,30522.0,-0.001037,0.001281,-0.000244,0.77,-1.8375000000000001,-3.6225000000000005,1.121375,0.13543750000000002,-0.014968750000000001,1.36775,1.08884375,-0.3626875,-0.72603125,1.3360625,0.02044622540103591,0.028757647873635203,True
22413,113423,0,113424,3868.0,42479.0,30523.0,0.003721,0.002562,-0.001769,0.9100000000000001,-2.3800000000000003,-3.5525,1.1193125,0.13096875,-0.0114375,1.37296875,1.08253125,-0.3656875,-0.72496875,1.342125,0.02038342854064758,0.028858732126810074,True
22414,113424,0,113425,3867.0,42477.0,30520.0,0.005978,-0.002379,-0.002074,0.49000000000000005,-2.7300000000000004,-3.6750000000000003,1.118875,0.13309375,-0.01015625,1.36746875,1.07778125,-0.36584375,-0.7256875,1.33571875,0.020476922741491356,0.028938780772021003,True
22415,113425,0,113426,3867.0,42473.0,30514.0,0.00244,-0.002928,-0.000488,0.4025,-2.555,-3.5875000000000004,1.12415625,0.13475,-0.0135625,1.36778125,1.08640625,-0.36246875,-0.721375,1.3354375,0.020409210376103614,0.02863159917278064,True
22416,113426,0,113427,3867.0,42466.0,30501.0,0.00061,-0.0028669999999999998,-0.000793,0.5775,-2.0475000000000003,-3.3600000000000003,1.12175,0.134625,-0.0105,1.37240625,1.0815937500000001,-0.3660625,-0.724625,1.34271875,0.020548560113067094,0.028883147873830242,True
22417,113427,0,113428,3863.0,42461.0,30491.0,-0.00061,-0.0008539999999999999,-0.000366,0.665,-1.6625,-3.3425000000000002,1.11796875,0.1393125,-0.0119375,1.36790625,1.0816875,-0.3660625,-0.72453125,1.3363125,0.020740938344059486,0.02882132497456347,True
22418,113428,0,113429,3857.0,42453.0,30482.0,-0.0013419999999999999,0.002623,-0.000915,0.8400000000000001,-1.4525000000000001,-3.4650000000000003,1.12721875,0.13434375,-0.006875,1.368125,1.0874062500000001,-0.362875,-0.7248125,1.3395625,0.020408870053308572,0.029037126166275278,True
22419,113429,0,113430,3849.0,42450.0,30473.0,-0.002745,0.002806,0.0006709999999999999,0.5425000000000001,-1.155,-3.6925000000000003,1.124625,0.134625,-0.0115625,1.36390625,1.08778125,-0.36284375,-0.72421875,1.33690625,0.0204191577594467,0.02882421714538503,True
22420,113430,0,113431,3843.0,42446.0,30465.0,-0.003843,0.00061,0.0006709999999999999,0.31500000000000006,-0.9800000000000001,-3.7100000000000004,1.1241875000000001,0.135,-0.010875000000000001,1.3703125,1.09021875,-0.362,-0.72446875,1.33965625,0.02040062392250226,0.028861843593707148,True
22421,113431,0,113432,3836.0,42442.0,30456.0,-0.0037819999999999998,-0.001098,0.001586,0.052500000000000005,-0.7175,-3.7800000000000002,1.11790625,0.13540625,-0.01421875,1.36759375,1.0814375,-0.3638125,-0.7268125,1.33584375,0.020490173695106213,0.02881866597241355,True
22422,113432,0,113433,3827.0,42439.0,30454.0,-0.003172,-0.0030499999999999998,0.002745,-0.08750000000000001,-0.8575,-3.8675,1.119,0.134,-0.01221875,1.3705625000000001,1.08034375,-0.36478125,-0.723125,1.3333125000000001,0.020471402754744617,0.028754708395479944,True
22423,113433,0,113434,3821.0,42434.0,30448.0,-0.00061,-0.002379,0.0034159999999999998,-0.17500000000000002,-0.9975,-3.9025000000000003,1.1221875000000001,0.13565625,-0.01115625,1.3707500000000001,1.0885,-0.36221875000000003,-0.72409375,1.342625,0.020436357012843916,0.02883573841811694,True
22424,113434,0,113435,3813.0,42435.0,30443.0,0.0044529999999999995,-0.000549,-0.0015249999999999999,-0.0175,-1.8550000000000002,-3.99,1.11884375,0.134,-0.01059375,1.3682812500000001,1.0805,-0.36390625,-0.72453125,1.3268125,0.02043622417895324,0.028875673831025614,True
22425,113435,0,113436,3808.0,42436.0,30440.0,0.005795,0.0006709999999999999,-0.001952,0.12250000000000001,-2.0125,-4.0075,1.12196875,0.13540625,-0.0115,1.37015625,1.0878125,-0.36353125000000003,-0.7251562500000001,1.3411875,0.020478866338392552,0.028863568860156348,True
22426,113436,0,113437,3802.0,42434.0,30438.0,0.004209,0.000732,-0.001281,0.12250000000000001,-1.8900000000000001,-4.077500000000001,1.1186562500000001,0.13403125,-0.0100625,1.372125,1.0755625,-0.36778125,-0.7245625,1.34528125,0.020593278265742802,0.02889838798967626,True
22427,113437,0,113438,3797.0,42432.0,30434.0,0.00183,6.1e-05,-0.000305,0.12250000000000001,-1.4000000000000001,-4.0425,1.1196875,0.13493750000000002,-0.01265625,1.368625,1.0800625,-0.3611875,-0.7253125,1.33325,0.020365386539551902,0.028822942076060714,True
22428,113438,0,113439,3794.0,42432.0,30433.0,-0.001403,0.001647,0.000488,0.15750000000000003,-0.9275000000000001,-3.8500000000000005,1.12603125,0.134625,-0.011875,1.3779375,1.08865625,-0.3638125,-0.7233125,1.345,0.020458107695583354,0.028775978138042793,True
