frame_seq,absolute_seq_u64,segment_id,sample_seq,PPG_G,PPG_R,PPG_IR,ACC_X,ACC_Y,ACC_Z,GYRO_X,GYRO_Y,GYRO_Z,Uh1,Uh2,Uh3,Uh4,Uc1,Uc2,Uc3,Uc4,UD1,UD2,parser_valid
63067,88541,0,88542,3288.0,38955.0,28952.0,0.0008539999999999999,0.002989,0.000549,0.7175,-3.6575,-4.0600000000000005,1.0385625,0.1469375,0.09321875,1.2806875,1.00365625,-0.34415625,-0.47625,1.24865625,0.02017296245377163,0.023266176395485418,True
63068,88542,0,88543,3289.0,38957.0,28954.0,-0.000366,0.000305,0.000488,0.6300000000000001,-3.2025,-3.9725000000000006,1.0370625,0.1375625,0.092125,1.288,0.99321875,-0.34784375,-0.4896875,1.2724375,0.019936313662272456,0.02375744892620618,True
63069,88543,0,88544,3289.0,38953.0,28952.0,0.002074,0.000366,-0.003538,0.525,-2.6075000000000004,-3.9725000000000006,1.0325,0.1414375,0.09403125,1.27478125,1.01615625,-0.3530625,-0.487,1.24340625,0.02030545439613601,0.023728151672315925,True
63070,88544,0,88545,3289.0,38955.0,28953.0,-0.001464,-0.000305,0.00183,0.43750000000000006,-1.61,-3.6400000000000006,1.0301875,0.14225000000000002,0.09393750000000001,1.28784375,0.98990625,-0.339625,-0.47659375,1.23690625,0.019797963197871783,0.023309258462485202,True
63071,88545,0,88546,3290.0,38954.0,28954.0,-0.00366,-0.001281,0.001586,0.35000000000000003,-1.2425000000000002,-3.6225000000000005,1.0365,0.13821875,0.09253125,1.2873125,1.00090625,-0.34353125,-0.4835,1.2669375,0.01978965151163104,0.023527324524679885,True
63072,88546,0,88547,3290.0,38955.0,28955.0,-0.005673,-0.001037,0.001769,0.4025,-1.2425000000000002,-3.6575,1.0254375,0.1413125,0.09446875,1.271375,1.02040625,-0.3451875,-0.479875,1.2394375,0.01998341561345543,0.02346187429470126,True
63073,88547,0,88548,3290.0,38955.0,28954.0,-0.004392,-0.000488,-0.000183,0.42000000000000004,-1.3475000000000001,-3.6050000000000004,1.03084375,0.14146875,0.09421875,1.28565625,0.98421875,-0.339375,-0.4748125,1.24196875,0.019755796933980434,0.023249667387645973,True
63074,88548,0,88549,3290.0,38954.0,28953.0,-0.0032329999999999998,0.001037,0.001403,0.45500000000000007,-1.8200000000000003,-3.6400000000000006,1.03315625,0.1444375,0.09803125,1.28115625,1.0065625,-0.35231250000000003,-0.4859375,1.2354687500000001,0.02039847345092997,0.02384914810797014,True
63075,88549,0,88550,3290.0,38956.0,28954.0,0.000976,-0.00042699999999999997,-0.000976,0.31500000000000006,-2.8875,-3.7625,1.036,0.1379375,0.0899375,1.28103125,0.984625,-0.3479375,-0.48809375,1.2724375,0.019955489042963084,0.023604583349816684,True
63076,88550,0,88551,3291.0,38956.0,28953.0,0.0032329999999999998,0.000366,-0.002074,0.385,-3.5000000000000004,-3.7800000000000002,1.03,0.141875,0.09384375,1.28078125,1.00034375,-0.342625,-0.47846875,1.237125,0.019903358820176544,0.023380241053681104,True
63077,88551,0,88552,3291.0,38955.0,28956.0,0.004026,0.000793,-0.001098,0.43750000000000006,-3.7275000000000005,-3.7450000000000006,1.03015625,0.1424375,0.091375,1.2871875,0.9838125,-0.3404375,-0.48128125,1.26503125,0.01983838622456971,0.02339159638550372,True
63078,88552,0,88553,3291.0,38956.0,28956.0,0.0057339999999999995,-0.000366,-0.001098,0.4025,-3.7450000000000006,-3.8150000000000004,1.03565625,0.13821875,0.09365625,1.28134375,1.0176875,-0.34903125,-0.48453125,1.2396562500000001,0.020011063068474236,0.023614399397578832,True
63079,88553,0,88554,3292.0,38955.0,28956.0,0.007503,-0.002745,-0.00122,0.24500000000000002,-3.5000000000000004,-3.6925000000000003,1.0299375,0.1403125,0.0906875,1.2887187500000001,0.98421875,-0.34215625,-0.47831250000000003,1.25271875,0.0198202963223523,0.023245066423594356,True
63080,88554,0,88555,3294.0,38954.0,28956.0,0.0037819999999999998,0.002257,-0.001281,0.525,-2.5375,-3.7800000000000002,1.037875,0.14075000000000001,0.09396875,1.28040625,1.01125,-0.34328125,-0.47840625000000003,1.24225,0.019883566435810702,0.023382854020571706,True
63081,88555,0,88556,3295.0,38959.0,28960.0,0.0,0.003111,0.002013,0.56,-1.8200000000000003,-3.6225000000000005,1.0299375,0.14846875,0.09409375,1.281125,0.99225,-0.34221875,-0.4809375,1.24740625,0.02015787899367226,0.023488939098022698,True
63082,88556,0,88557,3296.0,38959.0,28963.0,-0.003355,-0.000122,0.0018909999999999999,0.43750000000000006,-1.3825,-3.5700000000000003,1.0303125,0.14159375,0.094875,1.2811875,0.9975937500000001,-0.344625,-0.4834375,1.25065625,0.019972324486411272,0.02362055981722338,True
63083,88557,0,88558,3297.0,38960.0,28964.0,-0.005246,-0.002562,0.001037,0.36750000000000005,-1.155,-3.6750000000000003,1.03546875,0.1393125,0.09506250000000001,1.28178125,1.0044375,-0.3435625,-0.48103125,1.24784375,0.019835839557172455,0.023532250096694764,True
63084,88558,0,88559,3297.0,38964.0,28968.0,-0.0060999999999999995,-0.0006709999999999999,0.000549,0.43750000000000006,-1.1900000000000002,-3.6050000000000004,1.02540625,0.142875,0.09990625,1.2805625,0.9965,-0.34215625,-0.4805625,1.24271875,0.019925566372124493,0.023711413902356204,True
63085,88559,0,88560,3300.0,38965.0,28969.0,0.000122,0.001098,0.0046359999999999995,0.3325,0.6300000000000001,-3.4475000000000002,1.0285312500000001,0.1411875,0.095375,1.2854375,0.99609375,-0.34490625,-0.48328125,1.253125,0.019966959207329046,0.023634750754660386,True
63086,88560,0,88561,3300.0,38965.0,28972.0,-0.011346,-0.001647,0.002562,0.08750000000000001,2.2225,-3.6050000000000004,1.035375,0.1414375,0.09721875,1.28103125,1.00271875,-0.34290625,-0.481875,1.24846875,0.019896710155550966,0.02365397870873861,True
63087,88561,0,88562,3303.0,38967.0,28973.0,-0.025436999999999998,-0.000976,-0.0023179999999999997,-0.08750000000000001,2.3275,-3.6400000000000006,1.03109375,0.14203125,0.091125,1.2868125000000001,0.99725,-0.3434375,-0.484375,1.25565625,0.019942489634013273,0.02350478621569879,True
63088,88562,0,88563,3302.0,38969.0,28977.0,-0.024339,0.002989,-0.003111,0.1925,0.7525000000000001,-3.5525,1.0380625,0.13915625,0.0930625,1.282,0.99975,-0.34303125,-0.48121875000000003,1.2483125,0.019808030275605057,0.023458033518041255,True
63089,88563,0,88564,3304.0,38974.0,28982.0,-0.006161,0.004758,0.008052,0.3325,-2.0300000000000002,-3.7800000000000002,1.03021875,0.14300000000000002,0.09428125,1.2936875,0.997625,-0.3444375,-0.48421875000000003,1.2434687500000001,0.02002254108356375,0.023627464119107332,True
63090,88564,0,88565,3305.0,38973.0,28984.0,0.040320999999999996,-0.004026,-0.006954,0.49000000000000005,-7.035000000000001,-3.9550000000000005,1.042,0.1408125,0.0978125,1.26971875,0.9900625000000001,-0.34334375,-0.48046875,1.241,0.019888650259888806,0.023622147758097973,True
63091,88565,0,88566,3308.0,38970.0,28980.0,0.045933,0.000793,-0.01159,0.56,-7.280000000000001,-4.025,1.02975,0.14159375,0.093875,1.29315625,1.00396875,-0.34428125,-0.48390625000000004,1.25153125,0.019958486143434605,0.02359840966961716,True
63092,88566,0,88567,3308.0,38967.0,28979.0,0.034159999999999996,0.0028669999999999998,-0.008113,0.6300000000000001,-5.670000000000001,-3.9550000000000005,1.0482500000000001,0.1425625,0.0914375,1.27578125,1.0005625,-0.3425,-0.48103125,1.2483125,0.019926568758344462,0.023384176269126738,True
63093,88567,0,88568,3309.0,38966.0,28979.0,0.011895,-0.0030499999999999998,-0.0053679999999999995,0.29750000000000004,-2.6775,-3.6750000000000003,1.023875,0.14315625,0.09603125,1.27609375,0.99640625,-0.34368750000000003,-0.48103125,1.25059375,0.01999876764767047,0.023571821550613804,True
63094,88568,0,88569,3311.0,38969.0,28983.0,-0.012261,-0.006405,-0.0034159999999999998,-0.1925,0.8750000000000001,-3.535,1.024,0.1435625,0.09734375,1.2915,1.00178125,-0.34415625,-0.48278125,1.25621875,0.020034325486224233,0.023695224577477286,True
63095,88569,0,88570,3313.0,38972.0,28987.0,-0.041419,0.000244,0.010553,-0.21000000000000002,5.5475,-3.1850000000000005,1.0446875,0.13340625,0.08678125,1.2865312500000001,1.00284375,-0.34153125,-0.482375,1.235,0.019511406045993922,0.02324759137951281,True
63096,88570,0,88571,3314.0,38977.0,28993.0,-0.042273,0.002623,0.009211,0.035,5.5825000000000005,-3.2375000000000003,1.04646875,0.1353125,0.091,1.2941875,1.0011875000000001,-0.340875,-0.47621875,1.24875,0.019563286036348323,0.023174280136714336,True
63097,88571,0,88572,3316.0,38982.0,28997.0,-0.031964,0.004575,0.004941,0.21000000000000002,3.8675,-3.3600000000000003,1.03246875,0.14931250000000001,0.09590625,1.2695,0.99715625,-0.34225,-0.4805625,1.25325,0.020193798847682527,0.023548018964025027,True
63098,88572,0,88573,3318.0,38985.0,28999.0,-0.013786,0.003904,0.004148,0.17500000000000002,0.8400000000000001,-3.5525,1.0339375,0.13196875,0.09393750000000001,1.275625,1.00321875,-0.342125,-0.4806875,1.2476875,0.019476267992215142,0.02347258425646747,True
63099,88573,0,88574,3318.0,38983.0,28999.0,0.006893,0.002196,0.0034159999999999998,0.2625,-2.7300000000000004,-3.8150000000000004,1.027375,0.13590625,0.09278125,1.2663125,1.0055625,-0.34459375000000003,-0.4809375,1.23996875,0.019737441706128286,0.023435325955143672,True
63100,88574,0,88575,3321.0,38980.0,28997.0,0.040992,-0.000305,-0.010309,0.6475000000000001,-7.210000000000001,-4.0425,1.03984375,0.13271875,0.09546875,1.27565625,1.0031875000000001,-0.3419375,-0.48053125,1.24834375,0.019499526280518962,0.023528901154871797,True
63101,88575,0,88576,3321.0,38978.0,28994.0,0.042822,-0.00122,-0.009271999999999999,0.4025,-6.86,-3.9550000000000005,1.02346875,0.13921875,0.09621875,1.2859375,1.00525,-0.34575,-0.479625,1.2544375,0.01992005791565263,0.023523389349305802,True
63102,88576,0,88577,3323.0,38973.0,28995.0,0.02989,-0.002379,-0.004758,0.12250000000000001,-4.812500000000001,-3.8675,1.03484375,0.14175000000000001,0.09418750000000001,1.2815625,0.99921875,-0.3419375,-0.47984375,1.24896875,0.019870542351035123,0.023449138640846103,True
63103,88577,0,88578,3324.0,38974.0,28997.0,0.008052,-0.006588,-0.000549,-0.21000000000000002,-1.6800000000000002,-3.6225000000000005,1.03046875,0.1418125,0.09506250000000001,1.2809062500000001,0.9969375,-0.34459375000000003,-0.48234375,1.2545,0.019980052039274634,0.023584598594650483,True
63104,88578,0,88579,3324.0,38976.0,29001.0,-0.028426,-0.0011589999999999999,-6.1e-05,-0.31500000000000006,1.5050000000000001,-3.4650000000000003,1.035,0.139125,0.092375,1.2845312500000001,1.00209375,-0.34565625,-0.483875,1.2554375,0.01991243304439575,0.02353589862715767,True
63105,88579,0,88580,3326.0,38983.0,29006.0,-0.032757,0.0032329999999999998,0.008845,-0.14,4.6025,-3.2900000000000005,1.03571875,0.1371875,0.09153125000000001,1.2807187500000001,1.0050625,-0.3425625,-0.47509375000000004,1.24153125,0.019708278452607444,0.023151085989200758,True
63106,88580,0,88581,3329.0,38989.0,29012.0,-0.029768,0.0032329999999999998,0.010369999999999999,0.035,4.0075,-3.3425000000000002,1.0322500000000001,0.14046875,0.0910625,1.286375,0.9975,-0.3434375,-0.48071875000000003,1.2512812500000001,0.0198783039576888,0.023356391445818966,True
63107,88581,0,88582,3330.0,38990.0,29015.0,-0.02013,0.002379,0.00549,0.08750000000000001,2.5025000000000004,-3.325,1.03121875,0.14184375,0.09393750000000001,1.28125,0.99671875,-0.34221875,-0.4811875,1.25140625,0.019885718100368314,0.023492528701885885,True
63108,88582,0,88583,3331.0,38990.0,29015.0,-0.0040869999999999995,0.003111,0.000915,0.28,0.2625,-3.4125000000000005,1.03684375,0.13884375000000002,0.09234375,1.28709375,0.99690625,-0.34609375000000003,-0.48331250000000003,1.24796875,0.019918493084747937,0.02351218814856037,True
63109,88583,0,88584,3332.0,38985.0,29015.0,0.024583,0.002745,-0.003965,0.1925,-3.0625000000000004,-3.8500000000000005,1.03065625,0.1413125,0.09384375,1.2818125,0.98778125,-0.34228125,-0.48096875,1.251625,0.01986641042527598,0.023479973601943344,True
63110,88584,0,88585,3334.0,38980.0,29011.0,0.024949,-0.0017079999999999999,-0.002989,0.15750000000000003,-3.3775000000000004,-3.7975000000000003,1.03590625,0.13828125,0.09278125,1.2845312500000001,1.0053125,-0.34371875,-0.48131250000000003,1.248125,0.01979976867749509,0.023450284783546636,True
63111,88585,0,88586,3332.0,38975.0,29002.0,0.018727,-0.00366,-0.004514,-0.07,-2.345,-3.6925000000000003,1.0313125,0.1419375,0.09471875,1.2842500000000001,0.9969687500000001,-0.34190625,-0.48031250000000003,1.2536875,0.019876986832122072,0.023489538787546116,True
63112,88586,0,88587,3333.0,38967.0,28994.0,0.0075639999999999995,-0.002989,-0.0046359999999999995,-0.14,-0.6825000000000001,-3.7625,1.03746875,0.13840625,0.0935625,1.2821875,1.002125,-0.3438125,-0.48140625000000004,1.24903125,0.019808678283239328,0.023485936393053405,True
63113,88587,0,88588,3330.0,38962.0,28985.0,-0.004758,-0.003477,-0.000976,-0.17500000000000002,1.0325000000000002,-3.6225000000000005,1.0309375,0.1411875,0.09025,1.2745312500000001,1.00015625,-0.34471875,-0.4839375,1.24875,0.019959411114576955,0.023451599645686078,True
63114,88588,0,88589,3326.0,38958.0,28980.0,-0.023667999999999998,-0.003843,0.005246,-0.28,2.8350000000000004,-3.5875000000000004,1.03075,0.14259375,0.09171875,1.28678125,0.9969375,-0.344625,-0.480625,1.256,0.02001340131548545,0.023379458245040723,True
63115,88589,0,88590,3322.0,38954.0,28971.0,-0.022143,-0.0015249999999999999,0.002989,0.052500000000000005,2.1,-3.6050000000000004,1.0327187500000001,0.14100000000000001,0.09375,1.281125,0.9968750000000001,-0.34240625,-0.4794375,1.24846875,0.019858605802374203,0.02341506008869689,True
63116,88590,0,88591,3318.0,38951.0,28966.0,-0.013237,0.002074,0.000793,0.3325,0.6475000000000001,-3.7800000000000002,1.031875,0.141625,0.0914375,1.2845625,0.997375,-0.34565625,-0.48134375,1.252625,0.020015120767179977,0.023396642596466954,True
63117,88591,0,88592,3311.0,38948.0,28958.0,-0.0021349999999999997,0.003477,0.001586,0.525,-1.1025,-3.9200000000000004,1.03540625,0.13803125,0.0981875,1.2815,0.99971875,-0.34225,-0.4811875,1.2485625,0.01973035565734474,0.023666131391706386,True
63118,88592,0,88593,3308.0,38942.0,28951.0,0.008357,0.0046359999999999995,0.0,0.6125,-2.765,-4.025,1.03128125,0.1420625,0.09465625,1.2855,0.9973125,-0.34203125,-0.481625,1.25609375,0.019887155062295797,0.023539338177102218,True
63119,88593,0,88594,3303.0,38936.0,28944.0,0.022448,0.002379,-0.003721,0.7000000000000001,-3.7800000000000002,-3.8500000000000005,1.03584375,0.14065625,0.09259375,1.2810625,0.99703125,-0.3451875,-0.48146875,1.24334375,0.019956459567214258,0.023448858639251374,True
63120,88594,0,88595,3299.0,38932.0,28940.0,0.018239,0.000488,-0.003721,0.6300000000000001,-3.0450000000000004,-3.8150000000000004,1.02965625,0.13965625,0.09309375,1.2856875,0.9985,-0.34384375,-0.48271875000000003,1.2535625000000001,0.019861284231254564,0.023519140414093108,True
63121,88595,0,88596,3294.0,38930.0,28936.0,0.008296,0.000183,-0.002013,0.49000000000000005,-1.61,-3.8150000000000004,1.034125,0.141875,0.099125,1.28365625,0.9985625,-0.34371875,-0.4805625,1.2489375,0.019947394027463452,0.023679500828463398,True
63122,88596,0,88597,3292.0,38927.0,28936.0,-0.00488,-0.0023179999999999997,0.0011589999999999999,0.29750000000000004,-0.28,-3.6050000000000004,1.0354375,0.14090625,0.093625,1.2842500000000001,0.99353125,-0.3429375,-0.48340625000000004,1.2553125,0.01987614477505026,0.023568258603722674,True
63123,88597,0,88598,3290.0,38932.0,28936.0,-0.01769,-0.002013,0.0021349999999999997,0.12250000000000001,0.7525000000000001,-3.5000000000000004,1.03428125,0.14303125,0.0933125,1.2811875,1.0030000000000001,-0.3413125,-0.47790625000000003,1.249,0.019898012894744275,0.023336095177666594,True
63124,88598,0,88599,3290.0,38932.0,28940.0,-0.015493999999999999,-0.002379,0.0037819999999999998,0.1925,0.6125,-3.4825000000000004,1.0310625,0.14221875,0.09393750000000001,1.28675,0.99775,-0.3390625,-0.4855,1.24465625,0.019774025807279962,0.02366451573380164,True
63125,88599,0,88600,3288.0,38935.0,28941.0,-0.008113,-0.00042699999999999997,0.0028669999999999998,0.35000000000000003,-0.385,-3.4825000000000004,1.03553125,0.14100000000000001,0.09393750000000001,1.28209375,1.00846875,-0.34528125,-0.481875,1.24671875,0.01997435334619517,0.02351995098414644,True
63126,88600,0,88601,3288.0,38935.0,28939.0,-0.000183,6.1e-05,0.0,0.43750000000000006,-1.7850000000000001,-3.5875000000000004,1.03103125,0.14490625000000001,0.09409375,1.2826250000000001,0.9938750000000001,-0.34015625,-0.48,1.246875,0.01992848751741271,0.023451542075163395,True
63127,88601,0,88602,3289.0,38936.0,28940.0,0.005673,0.001037,-0.0021349999999999997,0.56,-3.0450000000000004,-3.6925000000000003,1.0303125,0.136,0.08525,1.3116875000000001,1.0012812500000001,-0.344625,-0.48703125,1.24815625,0.01974255097377758,0.02337078938468705,True
63128,88602,0,88603,3290.0,38937.0,28940.0,0.011956,0.0006709999999999999,-0.002013,0.7000000000000001,-3.9550000000000005,-3.7275000000000005,1.03596875,0.14221875,0.09559375,1.27553125,0.9937812500000001,-0.33940625,-0.47746875,1.2524375,0.01978786972258208,0.023411836650797484,True
63129,88603,0,88604,3288.0,38936.0,28940.0,0.012993,0.001464,-0.000793,0.7175,-4.0425,-3.8850000000000002,1.0314375,0.138375,0.089375,1.2991875,1.0064375,-0.34709375000000003,-0.47946875,1.24646875,0.019939494831903708,0.023237585578731155,True
63130,88604,0,88605,3289.0,38934.0,28941.0,0.007869,-0.000549,-0.0030499999999999998,0.6300000000000001,-3.3600000000000003,-3.8850000000000002,1.02865625,0.14578125,0.1001875,1.290125,0.9941562500000001,-0.339375,-0.48140625000000004,1.26075,0.019932978969262768,0.023756549932665738,True
63131,88605,0,88606,3291.0,38934.0,28944.0,0.0026839999999999998,-0.000366,-0.001281,0.6300000000000001,-2.3975000000000004,-3.7975000000000003,1.05484375,0.12928125000000001,0.09840625,1.27103125,1.0013125,-0.339875,-0.47671875,1.24671875,0.019275211972123934,0.02349681776688307,True
63132,88606,0,88607,3291.0,38937.0,28946.0,-0.004209,0.000122,0.000793,0.5950000000000001,-1.3825,-3.6575,1.017875,0.13815625,0.0925625,1.3022500000000001,1.0086875,-0.346125,-0.48071875000000003,1.241125,0.019891512509690967,0.02341766415661305,True
63133,88607,0,88608,3291.0,38939.0,28947.0,-0.008418,0.000183,0.001464,0.5950000000000001,-0.665,-3.7450000000000006,1.0266875,0.14246875,0.09759375,1.27096875,0.9921562500000001,-0.3395625,-0.47881250000000003,1.25290625,0.019804433625296266,0.023547149192796834,True
63134,88608,0,88609,3294.0,38939.0,28952.0,-0.010431,-0.000366,0.002257,0.47250000000000003,-0.8575,-3.7100000000000004,1.0190625,0.14625,0.09134375,1.3038750000000001,1.0039375,-0.34265625,-0.48296875,1.25396875,0.02008434268548651,0.023457633176123708,True
63135,88609,0,88610,3294.0,38942.0,28952.0,-0.005673,-6.1e-05,0.00122,0.6475000000000001,-1.4875,-3.7450000000000006,1.03553125,0.141125,0.0963125,1.2579375,0.99446875,-0.339125,-0.4794375,1.24803125,0.01973160497758239,0.023519739781602416,True
63136,88610,0,88611,3295.0,38941.0,28954.0,0.001647,0.0011589999999999999,-0.000244,0.56,-2.2750000000000004,-3.7975000000000003,1.01825,0.14028125,0.088,1.2959375,1.0015625,-0.34271875,-0.4810625,1.24846875,0.019841662098651163,0.02324500825893484,True
63137,88611,0,88612,3296.0,38941.0,28953.0,0.009821,0.000305,-0.0018909999999999999,0.5425000000000001,-2.7475,-3.7800000000000002,1.02484375,0.14453125,0.1034375,1.2894375,0.988,-0.336375,-0.4829375,1.2560625,0.019760800447889217,0.02395035317963786,True
63138,88612,0,88613,3297.0,38936.0,28951.0,0.013542,0.000244,-0.0015249999999999999,0.525,-2.8000000000000003,-3.8500000000000005,1.048875,0.13884375000000002,0.09406250000000001,1.27790625,1.0050000000000001,-0.34040625,-0.478375,1.24878125,0.01968948238076347,0.023385437146052384,True
63139,88613,0,88614,3298.0,38938.0,28952.0,0.007442,0.00042699999999999997,-0.00244,0.5075000000000001,-1.1375000000000002,-3.8150000000000004,1.02684375,0.140375,0.09690625,1.2660625,0.9973125,-0.34075,-0.47915625,1.24896875,0.019766235633659604,0.023532775971394033,True
63140,88614,0,88615,3297.0,38937.0,28951.0,6.1e-05,0.00061,-0.000244,0.49000000000000005,0.12250000000000001,-3.7275000000000005,1.0265,0.14378125,0.09178125000000001,1.28725,0.99740625,-0.34015625,-0.48171875000000003,1.24825,0.019882267600480175,0.0234256428585105,True
63141,88615,0,88616,3297.0,38937.0,28953.0,-0.008905999999999999,0.0006709999999999999,0.00244,0.35000000000000003,1.12,-3.6925000000000003,1.03721875,0.1386875,0.0924375,1.28296875,1.0052812500000001,-0.341625,-0.48071875000000003,1.2505,0.01973214606666564,0.023412558097380208,True
63142,88616,0,88617,3298.0,38942.0,28952.0,-0.013481,-0.0008539999999999999,0.002379,0.2625,1.6800000000000002,-3.6400000000000006,1.03090625,0.14309375,0.09453125,1.282,0.99709375,-0.3413125,-0.48028125,1.24884375,0.019900580545933997,0.023480633009475737,True
63143,88617,0,88618,3296.0,38943.0,28953.0,-0.012565999999999999,-0.001769,0.004148,0.22750000000000004,1.7850000000000001,-3.6400000000000006,1.0320625,0.1431875,0.091875,1.287,0.9993125,-0.34128125,-0.483,1.2478125,0.019903173749327593,0.02348057836049504,True
63144,88618,0,88619,3298.0,38942.0,28954.0,-0.000915,-0.000183,-0.0011589999999999999,0.4025,0.7350000000000001,-3.8325000000000005,1.03784375,0.14278125,0.09478125,1.28203125,1.00290625,-0.34168750000000003,-0.48153125,1.24934375,0.01990284157579461,0.02354070479149461,True
63145,88619,0,88620,3299.0,38940.0,28954.0,0.007503,-0.0021349999999999997,-0.001952,0.56,0.42000000000000004,-3.9025000000000003,1.03128125,0.13940625,0.091875,1.27534375,0.9979375,-0.343375,-0.48181250000000003,1.2543125,0.019832141188310986,0.023433211899649996,True
63146,88620,0,88621,3299.0,38942.0,28952.0,0.012383,-0.000305,-0.004514,0.6300000000000001,0.49000000000000005,-4.0425,1.03390625,0.14240625,0.0993125,1.27578125,1.00303125,-0.33703125,-0.48040625000000003,1.2486875,0.01969991717868218,0.02368092849766331,True
63147,88621,0,88622,3298.0,38938.0,28952.0,0.009516,0.001769,-0.001586,0.7525000000000001,1.05,-3.99,1.03140625,0.141625,0.0935625,1.28165625,0.9970625000000001,-0.34084375,-0.481875,1.24953125,0.019821365066689602,0.023504633529907334,True
63148,88622,0,88623,3299.0,38938.0,28951.0,0.002745,0.003538,-0.000793,0.8750000000000001,1.9425000000000001,-3.8150000000000004,1.03165625,0.14234375,0.09543750000000001,1.2823437500000001,0.99725,-0.34046875,-0.4816875,1.2492812500000001,0.019835793014462796,0.02357374261884521,True
63149,88623,0,88624,3300.0,38944.0,28955.0,-0.011101999999999999,0.000732,0.002257,0.5075000000000001,3.2550000000000003,-3.8675,1.03075,0.14225000000000002,0.092625,1.284875,0.9897812500000001,-0.3405625,-0.4815625,1.25359375,0.019835716615012492,0.023453874727154364,True
63150,88624,0,88625,3300.0,38944.0,28956.0,-0.016226,-0.0025009999999999998,0.0023179999999999997,0.15750000000000003,3.325,-3.8675,1.03878125,0.13934375000000002,0.09121875,1.281875,1.0050625,-0.3434375,-0.48315625,1.25021875,0.019832090270735184,0.023460006305355337,True
63151,88625,0,88626,3301.0,38947.0,28958.0,-0.019825,-0.002562,0.005063,0.0,2.5725000000000002,-3.9725000000000006,1.03465625,0.1395,0.09240625,1.28925,1.00021875,-0.34184375,-0.48365625,1.2548125,0.019774334062102425,0.023528450739460128,True
63152,88626,0,88627,3300.0,38949.0,28962.0,-0.017019,-0.000549,0.001586,0.08750000000000001,1.0325000000000002,-3.8850000000000002,1.032125,0.1433125,0.09459375,1.2898125,0.9878125,-0.336875,-0.4806875,1.25390625,0.019730861090423484,0.023499391101659217,True
63153,88627,0,88628,3300.0,38951.0,28964.0,-0.005246,0.000183,-0.00042699999999999997,0.24500000000000002,-0.5425000000000001,-3.7800000000000002,1.03328125,0.14200000000000002,0.096875,1.283125,1.00396875,-0.33815625,-0.48065625,1.25359375,0.019728538393289342,0.02359133039989482,True
63154,88628,0,88629,3303.0,38952.0,28966.0,0.014579,0.000183,-0.000793,0.47250000000000003,-3.43,-3.9200000000000004,1.0314375,0.14246875,0.09171875,1.2898125,0.998,-0.33425,-0.4831875,1.25446875,0.019590443510689663,0.023481674924884677,True
63155,88629,0,88630,3304.0,38952.0,28966.0,0.019642,0.00122,-0.0044529999999999995,0.47250000000000003,-3.8675,-4.0425,1.03140625,0.1424375,0.09159375,1.28165625,0.99703125,-0.340375,-0.483375,1.2501875,0.019835869414501623,0.023484047848795358,True
63156,88630,0,88631,3302.0,38948.0,28962.0,0.015921,0.000366,-0.0042699999999999995,0.525,-3.6750000000000003,-3.9375000000000004,1.03,0.14328125,0.09506250000000001,1.2888125,0.9965937500000001,-0.34025,-0.4815625,1.25271875,0.019865500559772393,0.023553439450606964,True
63157,88631,0,88632,3305.0,38945.0,28964.0,0.009943,-0.000122,-0.001769,0.5075000000000001,-3.1500000000000004,-3.8500000000000005,1.0398125,0.14150000000000001,0.09471875,1.2823437500000001,1.00259375,-0.34275,-0.481125,1.2495,0.019892986618192277,0.023521948031391533,True
63158,88632,0,88633,3305.0,38946.0,28964.0,0.002989,0.000732,0.0,0.43750000000000006,-2.2750000000000004,-3.8500000000000005,1.0313125,0.1424375,0.09478125,1.28540625,0.99803125,-0.33746875,-0.480625,1.2501875,0.019718823470497523,0.023504557175317214,True
63159,88633,0,88634,3307.0,38948.0,28968.0,-0.005978,-0.000122,-0.000793,0.42000000000000004,-0.6825000000000001,-3.5875000000000004,1.03715625,0.138625,0.09175,1.28209375,1.0026875,-0.34159375000000003,-0.4835625,1.24959375,0.019728319966723626,0.023497908035237925,True
63160,88634,0,88635,3308.0,38947.0,28969.0,-0.009028,-0.0008539999999999999,0.0015249999999999999,0.3325,-0.45500000000000007,-3.5000000000000004,1.0274375,0.14215625,0.09409375,1.282125,0.99725,-0.34103125,-0.48090625000000004,1.2495,0.019850740711735457,0.023487692576740292,True
63161,88635,0,88636,3307.0,38950.0,28969.0,-0.008357,-6.1e-05,0.00183,0.385,-0.45500000000000007,-3.5875000000000004,1.039625,0.13909375000000002,0.0913125,1.283375,1.0020625,-0.34378125,-0.485875,1.2534375,0.019835661314940547,0.02357226360095361,True
63162,88636,0,88637,3309.0,38947.0,28971.0,-0.0060999999999999995,0.000915,0.0018909999999999999,0.36750000000000005,-0.6825000000000001,-3.6400000000000006,1.03196875,0.14271875,0.09415625,1.2830625,0.9977812500000001,-0.341,-0.4765625,1.24684375,0.01987259151226326,0.02331694861155442,True
63163,88637,0,88638,3312.0,38951.0,28972.0,-0.004148,-0.0008539999999999999,0.000305,0.29750000000000004,-1.2600000000000002,-3.6225000000000005,1.032125,0.1431875,0.09115625000000001,1.28796875,0.991375,-0.34115625,-0.4795625,1.257125,0.019898140623455386,0.023314091091292993,True
63164,88638,0,88639,3311.0,38950.0,28975.0,0.002745,-6.1e-05,-0.000915,0.3325,-2.2750000000000004,-3.7275000000000005,1.0373125,0.1391875,0.0920625,1.28903125,1.01453125,-0.33821875,-0.48365625,1.26625,0.019615496717482663,0.023514410761260384,True
63165,88639,0,88640,3311.0,38952.0,28974.0,0.00488,0.00061,-0.001647,0.36750000000000005,-2.5375,-3.9025000000000003,1.0319375,0.14178125,0.09418750000000001,1.283,1.01390625,-0.342375,-0.48203125,1.25028125,0.019889441765645298,0.023536394677218624,True
63166,88640,0,88641,3312.0,38950.0,28974.0,0.005795,0.000549,0.00042699999999999997,0.29750000000000004,-2.3800000000000003,-3.9375000000000004,1.0318125,0.14184375,0.09525,1.282375,0.9815,-0.338,-0.47953125,1.244125,0.019715825047251213,0.02348007582865787,True
63167,88641,0,88642,3313.0,38952.0,28977.0,0.002806,6.1e-05,0.000366,0.24500000000000002,-2.3275,-3.9200000000000004,1.03153125,0.1419375,0.0915625,1.2873125,0.99059375,-0.33784375,-0.47240625,1.25325,0.019713383606548954,0.023045087771048262,True
63168,88642,0,88643,3316.0,38951.0,28979.0,-0.002806,-0.001098,-0.0062829999999999995,0.08750000000000001,-2.1350000000000002,-3.8850000000000002,1.036125,0.1458125,0.09359375,1.288375,1.0072812500000001,-0.34928125,-0.48512500000000003,1.26609375,0.020332992375288284,0.023635523608721624,True
63169,88643,0,88644,3315.0,38954.0,28980.0,-0.0023179999999999997,0.001647,0.0064659999999999995,0.07,-1.9775000000000003,-3.9025000000000003,1.03596875,0.141125,0.1023125,1.2829375,1.016125,-0.34953125,-0.488875,1.2457500000000001,0.020150541912382813,0.02414106405459622,True
63170,88644,0,88645,3316.0,38956.0,28982.0,0.001098,-0.002623,0.0011589999999999999,-0.035,-1.995,-3.7100000000000004,1.02659375,0.14259375,0.09246875,1.28925,0.990625,-0.3385625,-0.4780625,1.267375,0.019769296152967127,0.023307859843890832,True
63171,88645,0,88646,3317.0,38955.0,28982.0,0.004209,-0.0018909999999999999,-0.001281,-0.08750000000000001,-1.9250000000000003,-3.8150000000000004,1.031875,0.14290625,0.09328125,1.2890625,1.00784375,-0.33896875,-0.47215625,1.26065625,0.019798497009040288,0.023105340380457893,True
63172,88646,0,88647,3316.0,38956.0,28982.0,0.006527,-0.0008539999999999999,0.000122,0.0175,-1.8025000000000002,-3.8150000000000004,1.03065625,0.14275000000000002,0.0965,1.2824375000000001,1.0169375,-0.3409375,-0.478625,1.24428125,0.019871358693558952,0.02349498797420198,True
63173,88647,0,88648,3319.0,38956.0,28985.0,-0.004148,0.003538,0.002074,0.42000000000000004,-1.2600000000000002,-3.8675,1.031625,0.1418125,0.0901875,1.2785625,0.9909375,-0.34218750000000003,-0.48031250000000003,1.2590625,0.019883176070351113,0.02330444106871593,True
63174,88648,0,88649,3320.0,38960.0,28989.0,-0.005795,0.0017079999999999999,-0.00042699999999999997,0.29750000000000004,-1.2075,-3.7625,1.03184375,0.1420625,0.09434375,1.28153125,0.998625,-0.339375,-0.47990625000000003,1.24796875,0.01978019156202655,0.023458014672748186,True
63175,88649,0,88650,3318.0,38959.0,28988.0,-0.002379,-0.000976,-0.00122,0.28,-1.155,-3.6750000000000003,1.03875,0.140625,0.09246875,1.28196875,1.0020625,-0.34328125,-0.48353125,1.24940625,0.019878431548746123,0.02352601812698077,True
63176,88650,0,88651,3321.0,38960.0,28988.0,0.00183,0.000183,-0.001586,0.24500000000000002,-1.1375000000000002,-3.6575,1.02559375,0.14325000000000002,0.095,1.28678125,0.9971875,-0.34028125,-0.47746875,1.25659375,0.01986547505485377,0.02338757964914162,True
63177,88651,0,88652,3322.0,38956.0,28987.0,0.003172,0.0006709999999999999,-0.001098,0.31500000000000006,-1.0150000000000001,-3.5700000000000003,1.0376875,0.14009375,0.09403125,1.280125,1.00546875,-0.343,-0.47600000000000003,1.24853125,0.019845284065234357,0.02328939573459716,True
63178,88652,0,88653,3321.0,38955.0,28979.0,0.0,-0.000793,0.001647,0.21000000000000002,-0.36750000000000005,-3.6050000000000004,1.03140625,0.1436875,0.0925625,1.28328125,0.9979687500000001,-0.3388125,-0.48490625,1.249625,0.01982430326048159,0.023584682910517574,True
63179,88653,0,88654,3320.0,38946.0,28979.0,-0.003172,-0.00183,0.001403,0.08750000000000001,-0.29750000000000004,-3.6400000000000006,1.0325625,0.143625,0.0925625,1.2881562500000001,0.9985,-0.33971875,-0.4825,1.258,0.019858230695455347,0.023488716430103133,True
63180,88654,0,88655,3319.0,38944.0,28971.0,-0.006344,-0.001098,-6.1e-05,0.0175,-0.4025,-3.7625,1.03125,0.1440625,0.09396875,1.288375,0.997625,-0.33953125,-0.48071875000000003,1.25684375,0.019868655030075816,0.0234751073229825,True
63181,88655,0,88656,3316.0,38938.0,28963.0,-0.009089,-0.000244,0.000793,0.052500000000000005,-0.665,-3.6400000000000006,1.0293125,0.14325000000000002,0.09471875,1.2866875,0.9999375,-0.3408125,-0.47996875,1.2535,0.019886866964691507,0.02347582653674752,True
63182,88656,0,88657,3315.0,38934.0,28956.0,-0.007442,-0.000915,0.0032329999999999998,0.052500000000000005,-1.1725,-3.5700000000000003,1.0383125,0.14084375,0.09228125,1.28321875,0.9933125,-0.34321875,-0.47831250000000003,1.2510937500000001,0.019884901210937854,0.023310175078449544,True
63183,88657,0,88658,3310.0,38928.0,28946.0,0.004697,-0.00183,0.000488,-0.10500000000000001,-3.0450000000000004,-3.7800000000000002,1.032125,0.1428125,0.09431250000000001,1.2845,0.997625,-0.34,-0.48090625000000004,1.2544375,0.01983617502054232,0.023496628111959704,True
63184,88658,0,88659,3304.0,38922.0,28938.0,0.010187,0.002074,-0.0021349999999999997,0.1925,-3.4825000000000004,-3.7625,1.0426875,0.13815625,0.09271875,1.28284375,1.0060625,-0.34371875,-0.4815625,1.2495,0.019794633882713585,0.02345770413959485,True
63185,88659,0,88660,3300.0,38913.0,28928.0,0.011163,0.005673,-0.0034159999999999998,0.385,-3.5525,-3.6400000000000006,1.02046875,0.142625,0.09440625,1.27821875,0.99803125,-0.33753125,-0.48090625000000004,1.242125,0.019729045032042845,0.023500457627053738,True
63186,88660,0,88661,3295.0,38910.0,28922.0,0.008113,0.004941,-0.00061,0.42000000000000004,-3.115,-3.6925000000000003,1.0425625,0.13803125,0.09565625,1.2825312500000001,1.0009375,-0.3433125,-0.47909375,1.24409375,0.019773140980710823,0.023479218874268987,True
63187,88661,0,88662,3290.0,38907.0,28919.0,0.003965,0.0034159999999999998,0.00042699999999999997,0.43750000000000006,-2.4850000000000003,-3.7275000000000005,1.04171875,0.1463125,0.09521875,1.28084375,1.0070937500000001,-0.34115625,-0.47521875,1.2485,0.020026524007050815,0.023306737554694992,True
63188,88662,0,88663,3285.0,38907.0,28912.0,-0.002379,-0.001037,-0.000488,0.0,-0.8575,-3.6050000000000004,1.03553125,0.14378125,0.09475,1.27996875,1.0064375,-0.34096875,-0.48096875,1.24971875,0.019914983868503593,0.02351699215334361,True
63189,88663,0,88664,3281.0,38903.0,28910.0,-0.002806,-0.0025009999999999998,-0.003172,-0.12250000000000001,-0.15750000000000003,-3.4825000000000004,1.04128125,0.13746875,0.0901875,1.28209375,1.0046875,-0.34146875,-0.48396875,1.238625,0.019675784765452987,0.023450293367981857,True
63190,88664,0,88665,3277.0,38902.0,28908.0,-0.0028669999999999998,-0.004148,-0.0011589999999999999,-0.24500000000000002,0.47250000000000003,-3.2375000000000003,1.02803125,0.1434375,0.09581250000000001,1.28378125,0.99709375,-0.3409375,-0.47996875,1.2545625,0.01989960329177954,0.023520505923848453,True
63191,88665,0,88666,3276.0,38902.0,28906.0,-0.003965,-0.0050019999999999995,0.0046359999999999995,-0.385,0.9100000000000001,-3.1500000000000004,1.04128125,0.1386875,0.09415625,1.29325,1.00540625,-0.34390625,-0.48278125,1.2432812500000001,0.019824006264401384,0.023565031035842794,True
63192,88666,0,88667,3273.0,38905.0,28908.0,-0.006039,-0.006588,0.005429,-0.49000000000000005,0.7525000000000001,-3.1675000000000004,1.02828125,0.143625,0.09178125000000001,1.29165625,0.9975625,-0.34115625,-0.483375,1.25425,0.019916114297158748,0.023491706106694852,True
63193,88667,0,88668,3273.0,38903.0,28908.0,-0.009821,0.000183,0.001647,-0.2625,-0.3325,-3.6400000000000006,1.02903125,0.14234375,0.098625,1.2920625000000001,0.9979687500000001,-0.3408125,-0.48296875,1.2548125,0.01984963525765625,0.023755033792623698,True
63194,88668,0,88669,3270.0,38905.0,28908.0,-0.007625,0.0035989999999999998,-0.000305,-0.15750000000000003,-1.435,-3.6750000000000003,1.01828125,0.14300000000000002,0.093125,1.29121875,0.9973125,-0.33834375,-0.48246875,1.2505,0.019777177730099238,0.02351044561223018,True
63195,88669,0,88670,3271.0,38904.0,28909.0,0.0015249999999999999,0.002623,-0.0018909999999999999,0.0,-2.3625000000000003,-3.8675,1.0349375,0.14309375,0.09534375,1.27559375,0.99828125,-0.3409375,-0.4811875,1.24971875,0.019885480992669246,0.023549970768370607,True
63196,88670,0,88671,3271.0,38905.0,28910.0,0.008662,0.0013419999999999999,0.000183,0.29750000000000004,-2.9050000000000002,-3.9200000000000004,1.0334375,0.13959375000000002,0.09496875,1.2863125,0.9998125,-0.34146875,-0.48153125,1.2495,0.01976308434551633,0.02354836362615186,True
63197,88671,0,88672,3271.0,38905.0,28910.0,0.009211,0.0021349999999999997,-0.001647,0.45500000000000007,-3.2025,-3.9375000000000004,1.0303437500000001,0.142375,0.094875,1.285,1.0025625,-0.3413125,-0.47975,1.24975,0.019871052557252203,0.02347348318508155,True
63198,88672,0,88673,3269.0,38907.0,28914.0,0.002379,0.0028669999999999998,-0.000183,0.4025,-2.8175000000000003,-3.8850000000000002,1.03909375,0.1420625,0.09425,1.288125,1.00546875,-0.342625,-0.481375,1.24484375,0.019911061358419645,0.0235127724647819,True
63199,88673,0,88674,3270.0,38909.0,28914.0,0.0026839999999999998,0.001586,-6.1e-05,0.29750000000000004,-2.2925000000000004,-3.9025000000000003,1.03896875,0.143375,0.094875,1.28596875,1.0065,-0.34340625,-0.47703125,1.24975,0.019996431271815135,0.023365016948286983,True
63200,88674,0,88675,3272.0,38909.0,28913.0,0.0037819999999999998,-0.00183,6.1e-05,0.10500000000000001,-1.7675,-3.9200000000000004,1.03759375,0.13890625,0.095625,1.2826250000000001,1.00653125,-0.34784375,-0.49290625,1.25578125,0.01999150335437815,0.024028640945784045,True
63201,88675,0,88676,3271.0,38909.0,28916.0,0.003843,-0.004026,-0.001403,0.0175,-1.3125000000000002,-3.6925000000000003,1.02428125,0.14096875,0.09265625,1.28309375,0.99334375,-0.3378125,-0.48434375,1.27259375,0.019672320591671913,0.02356607985460096,True
63202,88676,0,88677,3275.0,38910.0,28917.0,0.00061,-0.002379,-0.001098,0.052500000000000005,-0.8750000000000001,-3.7450000000000006,1.032,0.14278125,0.09178125000000001,1.2870625,0.9998750000000001,-0.338,-0.47100000000000003,1.24140625,0.019754345057112335,0.022997885251930857,True
63203,88677,0,88678,3275.0,38910.0,28919.0,-0.00183,-0.000183,0.001098,-0.0175,-0.2625,-3.8150000000000004,1.039875,0.14209375,0.0945,1.2833125,1.00809375,-0.3466875,-0.49,1.24925,0.020075883012832852,0.023866884442629646,True
63204,88678,0,88679,3274.0,38910.0,28919.0,-0.002989,-0.000732,0.0006709999999999999,-0.10500000000000001,-0.052500000000000005,-3.7450000000000006,1.03284375,0.14340625,0.091875,1.28790625,0.9863125,-0.33678125000000003,-0.47496875,1.2670937500000001,0.019730937097525995,0.023160141930722588,True
63205,88679,0,88680,3275.0,38909.0,28919.0,-0.003721,0.000183,-0.001037,-0.10500000000000001,-0.035,-3.7275000000000005,1.03528125,0.14290625,0.093875,1.28703125,1.01809375,-0.3483125,-0.47771875,1.2378125,0.020174652760843285,0.02335159398789971,True
63206,88680,0,88681,3274.0,38910.0,28918.0,-0.004026,0.000793,0.0,0.0,0.07,-3.7100000000000004,1.0400625000000001,0.1429375,0.09443750000000001,1.2828125000000001,1.0051875000000001,-0.35359375,-0.484,1.23140625,0.02038841803378608,0.023625122528998524,True
63207,88681,0,88682,3277.0,38909.0,28917.0,-0.0050019999999999995,0.001647,0.000488,0.0175,-0.052500000000000005,-3.6400000000000006,1.03890625,0.1421875,0.09443750000000001,1.2795625,0.9954375,-0.34634375,-0.48431250000000003,1.22859375,0.020065897985195414,0.023637584269519517,True
63208,88682,0,88683,3275.0,38910.0,28919.0,-0.003538,-0.000488,-0.0008539999999999999,-0.07,-0.525,-3.6575,1.0394375,0.1390625,0.092625,1.2795,0.9861562500000001,-0.35021875,-0.48953125000000003,1.24628125,0.020093505320152413,0.023771637115349038,True
63209,88683,0,88684,3276.0,38912.0,28918.0,-0.00183,-0.001281,6.1e-05,-0.08750000000000001,-0.805,-3.6400000000000006,1.031875,0.14321875,0.09103125000000001,1.2851875,0.9883125,-0.33584375,-0.48140625000000004,1.26653125,0.01968546909329988,0.023382541597258125,True
63210,88684,0,88685,3276.0,38910.0,28918.0,0.000549,-0.000366,0.002013,-0.07,-1.1025,-3.7450000000000006,1.03109375,0.1424375,0.09153125000000001,1.28246875,0.990125,-0.33596875,-0.4820625,1.26596875,0.019658401722758623,0.023429143275816734,True
63211,88685,0,88686,3275.0,38913.0,28920.0,0.002379,0.0008539999999999999,-0.000183,0.10500000000000001,-1.5575,-3.7450000000000006,1.0236875,0.14375000000000002,0.09196875,1.28534375,0.9845625,-0.34146875,-0.481625,1.2592812500000001,0.019933832053581402,0.023429561967393913,True
63212,88686,0,88687,3277.0,38911.0,28919.0,0.0034159999999999998,6.1e-05,-0.0006709999999999999,0.052500000000000005,-1.9075000000000002,-3.8150000000000004,1.03203125,0.14271875,0.09493750000000001,1.2894375,0.99121875,-0.33784375,-0.48159375,1.25375,0.019745483820849986,0.023549579977814965,True
63213,88687,0,88688,3276.0,38911.0,28917.0,0.0037819999999999998,-0.0013419999999999999,-0.0017079999999999999,0.0,-2.2750000000000004,-3.8150000000000004,1.03903125,0.14296875,0.09446875,1.2883125,1.00271875,-0.33990625,-0.481,1.2585625,0.019838819223060897,0.02350675013275601,True
63214,88688,0,88689,3275.0,38909.0,28919.0,0.004209,-0.0011589999999999999,-0.00042699999999999997,0.14,-2.1525000000000003,-3.8675,1.03315625,0.14328125,0.09509375,1.284875,0.9979375,-0.3403125,-0.4815,1.25653125,0.01986801730668002,0.023552223107244245,True
63215,88689,0,88690,3277.0,38911.0,28918.0,0.00366,0.000488,-0.000366,0.10500000000000001,-1.8375000000000001,-3.7450000000000006,1.0323125,0.14971875,0.0923125,1.27640625,0.9985625,-0.34215625,-0.4840625,1.2496875,0.020206714431881934,0.02354082375014359,True
63216,88690,0,88691,3274.0,38911.0,28918.0,-0.000122,0.000366,0.000732,0.035,-1.6450000000000002,-3.7275000000000005,1.0313125,0.14078125,0.094625,1.28203125,0.99753125,-0.34265625,-0.48140625000000004,1.25040625,0.019859685608467643,0.02352933667770821,True
63217,88691,0,88692,3275.0,38909.0,28920.0,-0.0008539999999999999,0.00042699999999999997,0.000244,0.08750000000000001,-1.3650000000000002,-3.6925000000000003,1.03671875,0.14059375,0.09446875,1.28334375,0.99584375,-0.34175,-0.481625,1.24959375,0.0198154919017737,0.02353167937177373,True
63218,88692,0,88693,3276.0,38911.0,28920.0,-0.000305,6.1e-05,0.000183,0.07,-0.8225000000000001,-3.7800000000000002,1.0363125,0.14175000000000001,0.093625,1.2816875,0.99525,-0.34368750000000003,-0.480875,1.25003125,0.019941001132223704,0.023467298452363325,True
63219,88693,0,88694,3276.0,38914.0,28921.0,-0.000488,0.0006709999999999999,-0.000122,0.10500000000000001,-0.525,-3.7450000000000006,1.03534375,0.14175000000000001,0.094375,1.28334375,1.0070000000000001,-0.34390625,-0.47965625,1.24703125,0.01994980776760098,0.023449318247677597,True
63220,88694,0,88695,3277.0,38914.0,28923.0,-0.00183,0.001281,0.001037,0.2625,-0.31500000000000006,-3.7275000000000005,1.0380625,0.1461875,0.09459375,1.28371875,1.0030937500000001,-0.33971875,-0.4769375,1.256375,0.019963511287491766,0.023349785895396435,True
63221,88695,0,88696,3276.0,38916.0,28924.0,-0.003843,0.000488,-0.000488,0.1925,-0.24500000000000002,-3.6750000000000003,1.04321875,0.1411875,0.09121875,1.2833125,1.0063125,-0.33453125,-0.4815,1.2500625,0.019549123223813893,0.02339394032228417,True
63222,88696,0,88697,3278.0,38916.0,28924.0,-0.0037819999999999998,0.000488,0.0006709999999999999,0.052500000000000005,-0.1925,-3.6575,1.0322500000000001,0.14353125,0.08650000000000001,1.2779375,0.9979687500000001,-0.3428125,-0.48359375,1.24459375,0.019978946557633798,0.02328472510290692,True
63223,88697,0,88698,3278.0,38917.0,28926.0,-0.0021349999999999997,-0.0013419999999999999,0.000366,-0.08750000000000001,-0.805,-3.7800000000000002,1.0308125000000001,0.138625,0.08787500000000001,1.2865,0.998,-0.34440625,-0.47640625000000003,1.2504375,0.01984157038128626,0.02305408907813009,True
63224,88698,0,88699,3281.0,38918.0,28928.0,0.0011589999999999999,-0.0018909999999999999,-0.000793,-0.17500000000000002,-1.155,-3.7975000000000003,1.0251875,0.1450625,0.095125,1.2763125,0.997375,-0.338125,-0.48196875,1.25015625,0.01985311111681775,0.02357219535295747,True
63225,88699,0,88700,3282.0,38917.0,28931.0,0.001403,-0.0021349999999999997,-0.000244,-0.15750000000000003,-1.2950000000000002,-3.7800000000000002,1.01225,0.1451875,0.092125,1.2830625,0.9975937500000001,-0.3423125,-0.48381250000000003,1.24396875,0.020026856528113344,0.023523195172320488,True
63226,88700,0,88701,3283.0,38920.0,28931.0,0.001586,-0.0013419999999999999,-0.000732,0.035,-1.4875,-3.8675,1.0256875,0.1414375,0.090375,1.2781875,0.9991875,-0.33646875,-0.480625,1.2493750000000001,0.019637452537151674,0.02332456789808267,True
63227,88701,0,88702,3284.0,38920.0,28934.0,0.000244,0.000793,-0.000488,0.22750000000000004,-1.7325000000000002,-4.0075,1.02578125,0.1368125,0.08671875,1.2893125,1.0050000000000001,-0.34309375000000003,-0.48078125,1.25009375,0.019714267008481615,0.02318144973416647,True
63228,88702,0,88703,3286.0,38924.0,28938.0,-0.002074,0.00061,0.00042699999999999997,0.42000000000000004,-2.1525000000000003,-3.9025000000000003,1.02459375,0.14540625000000001,0.09453125,1.2940625000000001,0.99890625,-0.33575,-0.48462500000000003,1.251625,0.019771580904636182,0.023653874625402676,True
63229,88703,0,88704,3285.0,38925.0,28939.0,0.000183,0.001586,-0.000488,0.43750000000000006,-2.3800000000000003,-3.8675,1.03946875,0.14350000000000002,0.09659375,1.27790625,0.98921875,-0.33859375,-0.47725,1.25475,0.019807789839953266,0.023443963272017893,True
63230,88704,0,88705,3289.0,38925.0,28940.0,0.0023179999999999997,0.0013419999999999999,-0.00042699999999999997,0.49000000000000005,-2.6950000000000003,-3.8500000000000005,1.0419375,0.1338125,0.0868125,1.29209375,1.00540625,-0.34028125,-0.48159375,1.25003125,0.01947774329846743,0.023217697989943976,True
63231,88705,0,88706,3289.0,38927.0,28940.0,0.005246,0.00061,0.000549,0.42000000000000004,-2.6425,-3.6925000000000003,1.0346250000000001,0.1429375,0.10109375,1.27740625,0.9979687500000001,-0.3399375,-0.47846875,1.24625,0.019838793752038186,0.023676419710689622,True
63232,88706,0,88707,3290.0,38924.0,28942.0,0.008539999999999999,-0.000549,-0.002379,0.22750000000000004,-2.3800000000000003,-3.7275000000000005,1.02446875,0.14353125,0.09803125,1.27721875,1.00140625,-0.34090625,-0.4809375,1.2559375,0.01990219653386981,0.023649778526659775,True
63233,88707,0,88708,3292.0,38923.0,28939.0,0.003355,-0.000244,-0.000793,0.14,-0.9975,-3.7275000000000005,1.032125,0.13784375000000001,0.09390625,1.27753125,1.00659375,-0.34396875,-0.48171875000000003,1.24378125,0.019791863231010762,0.023512442319843254,True
63234,88708,0,88709,3293.0,38926.0,28944.0,-0.0028669999999999998,-0.000549,0.0013419999999999999,0.1925,-0.36750000000000005,-3.6575,1.0269375,0.1449375,0.09543750000000001,1.289625,0.99875,-0.342875,-0.4851875,1.24596875,0.020039231191878528,0.023713316469396038,True
63235,88709,0,88710,3296.0,38925.0,28945.0,-0.008723,-0.000793,0.001098,0.17500000000000002,-0.035,-3.7450000000000006,1.0303125,0.1421875,0.09478125,1.289625,0.99525,-0.33975,-0.48065625,1.2553125,0.019800429338838733,0.02350580368939252,True
63236,88710,0,88711,3292.0,38927.0,28947.0,-0.010003999999999999,-0.0017079999999999999,0.001037,0.12250000000000001,-0.035,-3.7625,1.03965625,0.1429375,0.0936875,1.28303125,1.0053750000000001,-0.33928125000000003,-0.48071875000000003,1.2500625,0.01981236606976634,0.023463618689708608,True
63237,88711,0,88712,3296.0,38931.0,28950.0,-0.0060999999999999995,-0.000488,-0.000122,0.21000000000000002,-1.05,-3.9025000000000003,1.0325625,0.143625,0.09503125,1.28928125,0.99840625,-0.339875,-0.48396875,1.25675,0.019864522722487277,0.023648126899361445,True
63238,88712,0,88713,3297.0,38929.0,28952.0,-0.000549,-0.00042699999999999997,-0.000976,0.3325,-1.7850000000000001,-3.9725000000000006,1.0398125,0.13934375000000002,0.09446875,1.284,1.00571875,-0.34340625,-0.48128125,1.243125,0.019830832014315992,0.023517968447831952,True
63239,88713,0,88714,3299.0,38931.0,28953.0,0.003111,6.1e-05,-0.00042699999999999997,0.47250000000000003,-2.3800000000000003,-3.9200000000000004,1.032375,0.14575,0.09503125,1.29003125,0.9976875000000001,-0.3423125,-0.48315625,1.25784375,0.020049964439491936,0.023615725607273368,True
63240,88714,0,88715,3298.0,38934.0,28956.0,0.0064659999999999995,0.001952,-0.000793,0.5425000000000001,-2.9050000000000002,-3.9550000000000005,1.0381562500000001,0.13925,0.092625,1.285375,1.00596875,-0.34240625,-0.48146875,1.25,0.019786714799404845,0.023450135114953016,True
63241,88715,0,88716,3301.0,38931.0,28957.0,0.008296,0.0023179999999999997,0.000183,0.5425000000000001,-3.1325000000000003,-3.8675,1.0321875,0.14584375,0.09581250000000001,1.283875,0.99809375,-0.3404375,-0.480625,1.2555,0.019978328244921646,0.023546682325308283,True
63242,88716,0,88717,3302.0,38928.0,28958.0,0.010187,0.0,-0.003172,0.49000000000000005,-2.2575000000000003,-3.6750000000000003,1.0380625,0.13975,0.09309375,1.2861562500000001,1.0074375,-0.34209375000000003,-0.48340625000000004,1.2495,0.019794671524506802,0.023546560234036062,True
63243,88717,0,88718,3302.0,38926.0,28956.0,0.008357,-0.00061,-0.0032329999999999998,0.3325,-1.2425000000000002,-3.7975000000000003,1.0314375,0.14325000000000002,0.09496875,1.28753125,0.9986875000000001,-0.339875,-0.48090625000000004,1.25840625,0.019849115905484317,0.02352343471761794,True
63244,88718,0,88719,3304.0,38925.0,28951.0,0.001281,0.000122,0.000183,0.31500000000000006,-0.035,-3.7450000000000006,1.03759375,0.1390625,0.093875,1.28428125,1.0058125,-0.34409375000000003,-0.4815,1.250625,0.01984695979902723,0.023502440618426157,True
63245,88719,0,88720,3302.0,38923.0,28951.0,-0.0070149999999999995,0.00061,0.004514,0.36750000000000005,0.7875000000000001,-3.6400000000000006,1.0415625,0.1410625,0.10025,1.28246875,1.0070625,-0.34165625,-0.48078125,1.25334375,0.019830973909180892,0.02373417923498663,True
63246,88720,0,88721,3302.0,38920.0,28945.0,-0.013725,-0.000366,0.00244,0.3325,1.2425000000000002,-3.6400000000000006,1.04096875,0.1395,0.09396875,1.2840625,1.0055,-0.34303125,-0.48115625,1.2506875,0.019822151360052994,0.023492558689910733,True
63247,88721,0,88722,3300.0,38916.0,28939.0,-0.010248,-0.0023179999999999997,0.0011589999999999999,0.052500000000000005,0.8575,-3.6050000000000004,1.03178125,0.1404375,0.09431250000000001,1.2829062500000001,1.00390625,-0.3430625,-0.48171875000000003,1.250625,0.01986192164605419,0.02352903633450981,True
63248,88722,0,88723,3297.0,38909.0,28930.0,-0.005124,-0.001647,0.0006709999999999999,0.035,0.08750000000000001,-3.7100000000000004,1.03159375,0.140375,0.09171875,1.291375,1.00084375,-0.341625,-0.4835,1.2539375,0.01980147175876713,0.02349413890987808,True
63249,88723,0,88724,3292.0,38904.0,28921.0,0.000366,-0.001098,-0.000366,0.08750000000000001,-0.7525000000000001,-3.7275000000000005,1.0382500000000001,0.14253125,0.09431250000000001,1.28228125,0.999,-0.3398125,-0.4815625,1.2493750000000001,0.019817069256388067,0.02352280415108309,True
63250,88724,0,88725,3287.0,38900.0,28914.0,0.0035989999999999998,0.000122,-0.00122,0.14,-1.3475000000000001,-3.8150000000000004,1.0328125,0.1403125,0.09053125000000001,1.2834375,1.00534375,-0.34084375,-0.48265625,1.24284375,0.019767443353314325,0.02341198169622628,True
63251,88725,0,88726,3280.0,38898.0,28905.0,0.003721,0.001403,0.000488,0.24500000000000002,-1.9075000000000002,-3.8150000000000004,1.03184375,0.14409375,0.0923125,1.2860625,0.9928750000000001,-0.338375,-0.4765625,1.25025,0.01982337563621236,0.023241621449090328,True
63252,88726,0,88727,3274.0,38892.0,28900.0,0.005429,0.000732,-0.002379,0.22750000000000004,-2.31,-3.8150000000000004,1.03196875,0.14428125,0.0928125,1.2825625,0.998375,-0.33928125000000003,-0.48309375,1.2496562500000001,0.019867575177471605,0.023522609351606147,True
63253,88727,0,88728,3270.0,38888.0,28892.0,0.0060999999999999995,-0.0015249999999999999,-0.0068319999999999995,0.22750000000000004,-2.205,-3.8500000000000005,1.031125,0.1410625,0.09381250000000001,1.28609375,0.99840625,-0.34153125,-0.4753125,1.25471875,0.01982594049008318,0.02325302281635832,True
63254,88728,0,88729,3264.0,38887.0,28889.0,0.006161,-0.002074,0.008113,0.08750000000000001,-1.7500000000000002,-3.7100000000000004,1.03171875,0.14396875,0.0935625,1.2854375,0.99809375,-0.3404375,-0.4814375,1.2479375,0.019901295940140767,0.023487182891119042,True
63255,88729,0,88730,3260.0,38883.0,28886.0,-0.0006709999999999999,-0.001037,-0.011956,0.052500000000000005,-1.4700000000000002,-3.7100000000000004,1.03184375,0.1434375,0.09393750000000001,1.2849375,0.9990625000000001,-0.34309375000000003,-0.47671875,1.2521875,0.019986418119102057,0.02331424631824885,True
63256,88730,0,88731,3257.0,38882.0,28883.0,-0.00122,0.0,0.014152,0.21000000000000002,-1.12,-3.7100000000000004,1.0315625,0.14340625,0.093125,1.28728125,0.99503125,-0.34003125,-0.484375,1.26040625,0.01986182741651164,0.02358647096362476,True
63257,88731,0,88732,3255.0,38886.0,28884.0,-0.004697,0.002745,6.1e-05,0.525,-1.0675000000000001,-3.7975000000000003,1.0328125,0.143625,0.09528125,1.28759375,0.9969375,-0.33984375,-0.47865625,1.26,0.019863264323543572,0.023446446330157522,True
63258,88732,0,88733,3253.0,38888.0,28886.0,-0.002379,0.004514,0.002745,0.6475000000000001,-1.2775,-3.8150000000000004,1.0323437500000001,0.1431875,0.09490625,1.2900625000000001,0.9951562500000001,-0.33903125,-0.47965625,1.25453125,0.01981256957381983,0.0234710199413033,True
63259,88733,0,88734,3251.0,38887.0,28886.0,-0.000732,0.0044529999999999995,-0.004758,0.56,-1.54,-3.7800000000000002,1.03665625,0.1430625,0.09465625,1.28384375,1.005625,-0.34153125,-0.4799375,1.24725,0.01990810458976364,0.02347202683830382,True
63260,88734,0,88735,3251.0,38892.0,28889.0,0.000549,-0.001464,0.006893,0.17500000000000002,-1.5050000000000001,-3.7450000000000006,1.032125,0.1451875,0.08221875000000001,1.29865625,1.00609375,-0.344375,-0.48678125,1.24990625,0.02010988164617083,0.02323702712049996,True
63261,88735,0,88736,3251.0,38887.0,28885.0,0.003111,-0.004331,-0.004514,0.10500000000000001,-1.4525000000000001,-3.6575,1.029625,0.14615625000000002,0.0980625,1.30640625,0.9955,-0.3390625,-0.48096875,1.2464375,0.01993580278615908,0.023652301341220414,True
63262,88736,0,88737,3251.0,38889.0,28886.0,0.001586,-0.0006709999999999999,-0.00488,0.24500000000000002,-1.1025,-3.6400000000000006,1.03090625,0.14609375,0.10459375,1.3016875,0.9955,-0.33815625,-0.48425,1.26103125,0.019896741356486277,0.02404989942514065,True
63263,88737,0,88738,3250.0,38888.0,28888.0,-0.002379,0.000976,0.001098,0.2625,-0.9800000000000001,-3.7800000000000002,1.052125,0.1394375,0.0929375,1.27225,0.989125,-0.33940625,-0.48034375,1.24784375,0.019673600295816586,0.023418022878048842,True
63264,88738,0,88739,3252.0,38889.0,28888.0,-0.00366,-0.0013419999999999999,0.00122,0.08750000000000001,-1.0150000000000001,-3.7975000000000003,1.02,0.14690625000000002,0.1015,1.29715625,1.00646875,-0.3435625,-0.48078125,1.2478125,0.020147780342338967,0.023785239696956156,True
63265,88739,0,88740,3252.0,38890.0,28890.0,-0.002623,-0.002074,-0.002196,0.10500000000000001,-1.2075,-3.7275000000000005,1.05534375,0.14046875,0.0971875,1.27459375,1.00078125,-0.338625,-0.48071875000000003,1.24771875,0.019684503541181966,0.023606588348228135,True
63266,88740,0,88741,3252.0,38891.0,28891.0,0.000244,-0.0018909999999999999,0.000793,0.24500000000000002,-1.3825,-3.7275000000000005,1.02003125,0.148,0.10296875,1.2727187500000001,1.0006875,-0.34371875,-0.4785625,1.25821875,0.020198998971757344,0.023756756549736125,True
63267,88741,0,88742,3254.0,38890.0,28893.0,0.0035989999999999998,-0.002013,-0.003172,0.14,-1.5925000000000002,-3.7450000000000006,1.03928125,0.13290625,0.0848125,1.29646875,1.0075,-0.34425,-0.482625,1.2478125,0.019600367643283323,0.023177151142902367,True
63268,88742,0,88743,3255.0,38892.0,28894.0,0.001403,0.000793,-0.000122,0.24500000000000002,-1.4700000000000002,-3.7100000000000004,1.038875,0.14109375,0.10246875,1.27346875,0.993625,-0.3384375,-0.48046875,1.2533125,0.019702630869380993,0.02381235040689325,True
63269,88743,0,88744,3256.0,38895.0,28899.0,-0.0013419999999999999,0.003294,0.004758,0.47250000000000003,-1.4000000000000001,-3.7275000000000005,1.0251875,0.13690625,0.0868125,1.30284375,0.99128125,-0.3425625,-0.48531250000000004,1.2496562500000001,0.019696724615578167,0.023366048523987597,True
63270,88744,0,88745,3256.0,38895.0,28900.0,-0.0053679999999999995,0.0026839999999999998,0.0034159999999999998,0.4025,-1.3475000000000001,-3.7275000000000005,1.032875,0.1449375,0.10003125,1.2913125,0.99884375,-0.3393125,-0.476125,1.24421875,0.01989579615282889,0.023539520655332494,True
63271,88745,0,88746,3257.0,38895.0,28901.0,-0.0057339999999999995,0.001647,-0.001586,0.4025,-1.5225000000000002,-3.7625,1.04409375,0.13468750000000002,0.08678125,1.28746875,1.0069062500000001,-0.34021875,-0.4771875,1.25003125,0.019511174278168723,0.023040586260165717,True
63272,88746,0,88747,3259.0,38897.0,28899.0,0.005612,0.000976,-0.00061,0.43750000000000006,-1.7675,-3.7450000000000006,1.02946875,0.145375,0.09875,1.28421875,0.99340625,-0.33965625,-0.4806875,1.25453125,0.019927612987549897,0.023669167787873608,True
63273,88747,0,88748,3259.0,38897.0,28900.0,0.0046359999999999995,-0.00122,0.001952,0.21000000000000002,-1.5050000000000001,-3.6225000000000005,1.03465625,0.13984375000000002,0.09084375,1.28884375,0.99465625,-0.34275,-0.48415625,1.25578125,0.019824947879758862,0.023484574846233466,True
63274,88748,0,88749,3260.0,38898.0,28903.0,0.0015249999999999999,-0.002379,-0.0008539999999999999,0.21000000000000002,-1.155,-3.7275000000000005,1.03378125,0.13975,0.09090625000000001,1.2875625,0.9969375,-0.3425625,-0.4850625,1.24265625,0.019813546745540863,0.023523270565472317,True
63275,88749,0,88750,3259.0,38897.0,28900.0,-0.000122,-0.0006709999999999999,-0.0035989999999999998,0.21000000000000002,-0.805,-3.8850000000000002,1.03446875,0.14350000000000002,0.094625,1.2835,0.99321875,-0.33559375,-0.48146875,1.2498125,0.019686955449772003,0.02353182955985841,True
63276,88750,0,88751,3261.0,38897.0,28905.0,-0.0015249999999999999,0.000488,0.000366,0.35000000000000003,-0.45500000000000007,-3.7800000000000002,1.0324375000000001,0.1441875,0.09071875,1.28321875,0.99803125,-0.34209375000000003,-0.48409375,1.2493750000000001,0.019976968908025836,0.0234769767616986,True
63277,88751,0,88752,3261.0,38899.0,28903.0,-0.005124,-0.002074,0.0017079999999999999,0.15750000000000003,-0.665,-3.7625,1.03275,0.14071875,0.0915,1.27721875,0.99865625,-0.3433125,-0.4844375,1.25053125,0.01988354091087645,0.02352259470939449,True
63278,88752,0,88753,3260.0,38900.0,28901.0,-0.0044529999999999995,-0.003172,-0.000549,0.17500000000000002,-1.0325000000000002,-3.7450000000000006,1.032375,0.14021875,0.09034375,1.2835,0.9988125,-0.34053125,-0.48096875,1.252,0.019751006872538987,0.023337005403432004,True
63279,88753,0,88754,3260.0,38900.0,28902.0,-0.000488,0.000488,-0.001464,0.2625,-1.4700000000000002,-3.7275000000000005,1.0322500000000001,0.14303125,0.09425,1.29,0.999125,-0.337625,-0.48359375,1.25628125,0.019749513356377216,0.0236012636012636,True
63280,88754,0,88755,3260.0,38900.0,28900.0,0.004575,0.002379,-0.000915,0.4025,-1.6275000000000002,-3.7625,1.03946875,0.14175000000000001,0.09378125,1.2773125,1.00290625,-0.33765625,-0.4831875,1.24996875,0.019698127259069987,0.0235659164069221,True
63281,88755,0,88756,3259.0,38901.0,28901.0,0.006588,0.002013,0.00042699999999999997,0.3325,-1.61,-3.8325000000000005,1.033125,0.14425,0.09446875,1.28784375,0.9985625,-0.33946875,-0.48131250000000003,1.256,0.019873841741102093,0.023519214911373727,True
63282,88756,0,88757,3261.0,38901.0,28904.0,0.002806,6.1e-05,-0.0013419999999999999,0.2625,-0.8925000000000001,-3.9200000000000004,1.0386875,0.142875,0.094,1.28328125,1.002875,-0.334125,-0.48221875000000003,1.2492812500000001,0.019602101986407976,0.02353621442092539,True
63283,88757,0,88758,3263.0,38901.0,28904.0,-0.002074,0.000122,6.1e-05,0.2625,-0.4025,-3.7800000000000002,1.03309375,0.1436875,0.09621875,1.28325,0.99815625,-0.3353125,-0.4815625,1.2508125,0.019683330551025387,0.023600668870706273,True
63284,88758,0,88759,3263.0,38902.0,28906.0,-0.006893,0.000488,0.000488,0.28,-0.17500000000000002,-3.7800000000000002,1.032875,0.14334375,0.09209375,1.29059375,0.9993125,-0.33965625,-0.4815625,1.2578125,0.019844158645420475,0.023432174723324952,True
63285,88759,0,88760,3263.0,38901.0,28907.0,-0.007869,0.0,0.002745,0.31500000000000006,-0.24500000000000002,-3.7450000000000006,1.03265625,0.1436875,0.09506250000000001,1.28553125,0.9994375,-0.3398125,-0.48103125,1.2503125,0.019864573730795997,0.023532250096694764,True
63286,88760,0,88761,3264.0,38902.0,28908.0,-0.006771,-0.000366,-0.000305,0.24500000000000002,-0.5425000000000001,-3.6925000000000003,1.039375,0.140875,0.09071875,1.29209375,1.00521875,-0.33646875,-0.484,1.25271875,0.01961433907702817,0.023473237624571146,True
63287,88761,0,88762,3264.0,38904.0,28910.0,0.002257,0.0,-0.0006709999999999999,0.10500000000000001,-1.61,-3.7450000000000006,1.040125,0.14003125,0.09028125000000001,1.28365625,1.00525,-0.34346875,-0.4814375,1.25534375,0.01986159018525246,0.023353152771359936,True
63288,88762,0,88763,3267.0,38905.0,28912.0,0.005429,-0.000305,0.00042699999999999997,0.15750000000000003,-1.9600000000000002,-3.5875000000000004,1.03690625,0.14353125,0.09434375,1.283875,0.9986875000000001,-0.34003125,-0.4825625,1.2504375,0.019866962989211447,0.02356396516908718,True
63289,88763,0,88764,3267.0,38907.0,28915.0,0.0071979999999999995,-0.001037,-0.000305,0.052500000000000005,-2.1525000000000003,-3.5875000000000004,1.032875,0.1433125,0.09484375,1.2843437500000001,0.99825,-0.33646875,-0.48165625,1.25,0.01971449740423002,0.023548243391416788,True
63290,88764,0,88765,3267.0,38908.0,28917.0,0.0064659999999999995,-0.000915,0.001037,0.0,-2.0300000000000002,-3.6750000000000003,1.0383437500000001,0.1423125,0.0915,1.284125,1.00403125,-0.341625,-0.48346875,1.25275,0.01988106792377255,0.02348395792569221,True
63291,88765,0,88766,3267.0,38909.0,28916.0,0.005978,-0.000793,-0.001769,0.17500000000000002,-1.6800000000000002,-3.7100000000000004,1.0325,0.14375000000000002,0.09109375,1.28753125,0.9984375,-0.33934375,-0.47840625000000003,1.254625,0.019848265218736637,0.023265403563600063,True
63292,88766,0,88767,3271.0,38909.0,28919.0,-0.002257,0.001037,0.000244,0.17500000000000002,-0.49000000000000005,-3.8675,1.04009375,0.14309375,0.09456250000000001,1.28359375,0.99259375,-0.33918750000000003,-0.47678125,1.24228125,0.019815010258662086,0.023342274630166093,True
63293,88767,0,88768,3272.0,38911.0,28923.0,-0.007686,0.00122,0.0032329999999999998,0.29750000000000004,-0.12250000000000001,-3.7625,1.0327187500000001,0.14590625000000002,0.09409375,1.29128125,0.9985,-0.33909375,-0.48125,1.2549062500000001,0.019926789591333902,0.02350140413581823,True
63294,88768,0,88769,3273.0,38913.0,28924.0,-0.008296,0.000488,0.0028669999999999998,0.21000000000000002,-0.17500000000000002,-3.7975000000000003,1.0408125,0.1405625,0.094,1.2841875,1.00071875,-0.34421875,-0.482875,1.25090625,0.01991360885220439,0.023562387995690867,True
63295,88769,0,88770,3274.0,38915.0,28925.0,-0.0059169999999999995,0.0,0.000122,0.21000000000000002,-0.5075000000000001,-3.7100000000000004,1.03321875,0.14378125,0.0929375,1.2886250000000001,0.999375,-0.335625,-0.47834375,1.24803125,0.019699771425636284,0.02333823137033117,True
63296,88770,0,88771,3273.0,38916.0,28928.0,-0.000366,0.000122,0.00061,0.31500000000000006,-0.9625000000000001,-3.8500000000000005,1.030875,0.1489375,0.093375,1.291,1.00071875,-0.3425625,-0.48481250000000004,1.25621875,0.020190972088497256,0.02361412814576383,True
63297,88771,0,88772,3276.0,38917.0,28930.0,0.0026839999999999998,0.000915,0.000488,0.24500000000000002,-1.6625,-3.7975000000000003,1.03925,0.14028125,0.09209375,1.28940625,1.01034375,-0.34434375,-0.4835,1.2615625,0.019907088273841845,0.023509455347478916,True
63298,88772,0,88773,3278.0,38916.0,28929.0,0.003904,-0.000366,-0.00042699999999999997,0.17500000000000002,-1.9250000000000003,-3.7450000000000006,1.040625,0.14215625,0.094125,1.2835625,1.01634375,-0.3454375,-0.49012500000000003,1.252875,0.020028136688855974,0.023856554427549883,True
63299,88773,0,88774,3278.0,38915.0,28930.0,0.0026839999999999998,-0.000732,-0.001098,0.10500000000000001,-2.1700000000000004,-3.7100000000000004,1.0323125,0.14084375,0.09190625000000001,1.28371875,0.9913125,-0.33778125000000003,-0.48646875,1.24984375,0.01966592579181802,0.02362018819067163,True
63300,88774,0,88775,3278.0,38917.0,28932.0,0.004392,-0.00183,-0.000183,0.08750000000000001,-2.0125,-3.6575,1.0325625,0.145375,0.0924375,1.287375,0.98484375,-0.33303125,-0.48209375,1.2655,0.019660774898318516,0.023467406663288344,True
63301,88775,0,88776,3281.0,38917.0,28933.0,0.005307,-0.0013419999999999999,-0.001952,0.10500000000000001,-1.2075,-3.7450000000000006,1.03321875,0.143625,0.0921875,1.29021875,1.00025,-0.33834375,-0.46690625,1.26621875,0.01980285737397394,0.02285101942547395,True
63302,88776,0,88777,3281.0,38918.0,28934.0,-0.000793,0.001037,0.000305,0.31500000000000006,-0.6475000000000001,-3.8500000000000005,1.03209375,0.14384375,0.09296875,1.28165625,0.98453125,-0.338125,-0.48209375,1.26209375,0.019803035361187438,0.023489106196237813,True
63303,88777,0,88778,3283.0,38919.0,28934.0,-0.005978,0.00183,0.001952,0.385,-0.29750000000000004,-3.8500000000000005,1.03190625,0.14396875,0.09384375,1.28696875,1.0175,-0.33971875,-0.478875,1.2595,0.019872353701704135,0.023396448978966557,True
63304,88778,0,88779,3285.0,38923.0,28940.0,-0.010614,0.001098,0.000366,0.4025,-0.2625,-3.8500000000000005,1.02746875,0.143625,0.09375,1.2914375,1.015375,-0.33365625,-0.47871875,1.2532812500000001,0.019614037656178362,0.023386385367902482,True
63305,88779,0,88780,3284.0,38924.0,28941.0,-0.009699,-0.000244,0.000976,0.29750000000000004,-0.5775,-3.8850000000000002,1.034125,0.14284375,0.09171875,1.28996875,1.01103125,-0.3379375,-0.47925,1.2593750000000001,0.019754395786413703,0.023324601448165283,True
63306,88780,0,88781,3286.0,38925.0,28943.0,-6.1e-05,0.001281,0.000366,0.5075000000000001,-1.8900000000000001,-3.8500000000000005,1.0267187500000001,0.14334375,0.09209375,1.29075,1.00825,-0.3379375,-0.47915625,1.2550000000000001,0.01977493984443012,0.02333618014305538,True
63307,88781,0,88782,3288.0,38925.0,28943.0,0.007442,0.000915,-0.001037,0.5075000000000001,-2.3625000000000003,-3.7800000000000002,1.0326875,0.143125,0.09184375,1.2910625,0.9886875,-0.3394375,-0.48453125,1.25703125,0.01982636205130049,0.023540373067178898,True
63308,88782,0,88783,3289.0,38923.0,28942.0,0.012931999999999999,0.000244,-0.0018909999999999999,0.43750000000000006,-2.45,-3.6925000000000003,1.03321875,0.1475625,0.09434375,1.2910625,0.9985625,-0.34071875,-0.48153125,1.24971875,0.02006026424342954,0.023522834177294366,True
63309,88783,0,88784,3290.0,38920.0,28939.0,0.012993,-0.001037,-0.0028669999999999998,0.35000000000000003,-2.0650000000000004,-3.6925000000000003,1.03875,0.1475625,0.09446875,1.28378125,1.00225,-0.3364375,-0.4820625,1.2512812500000001,0.019887873892799633,0.02354912908175118,True
63310,88784,0,88785,3288.0,38915.0,28935.0,0.008052,0.000122,-0.001647,0.385,-1.1725,-3.6050000000000004,1.03240625,0.14146875,0.09209375,1.2848125000000001,0.9995937500000001,-0.3404375,-0.4829375,1.2509375,0.01979858620043292,0.023487020297298884,True
63311,88785,0,88786,3286.0,38909.0,28930.0,-0.0060999999999999995,0.000183,0.002562,0.29750000000000004,0.45500000000000007,-3.5525,1.0324375000000001,0.143875,0.09493750000000001,1.285,0.9988125,-0.33978125000000003,-0.48178125,1.2514687500000001,0.019871018766859296,0.02355705837376518,True
63312,88786,0,88787,3286.0,38908.0,28921.0,-0.010003999999999999,0.0008539999999999999,0.001647,0.17500000000000002,0.9625000000000001,-3.5525,1.0315,0.14009375,0.09568750000000001,1.28415625,1.00725,-0.34115625,-0.48103125,1.24540625,0.01977104107369591,0.023557780066965114,True
63313,88787,0,88788,3282.0,38904.0,28915.0,-0.008479,-0.001098,0.000976,0.07,1.1725,-3.6400000000000006,1.03784375,0.14065625,0.09490625,1.28459375,0.999625,-0.34234375,-0.48253125,1.2503125,0.01984196776450501,0.023585694391792107,True
63314,88788,0,88789,3277.0,38896.0,28907.0,-0.005307,-0.002928,-0.001281,0.035,1.0150000000000001,-3.7275000000000005,1.028375,0.14325000000000002,0.09121875,1.2843125,0.9995,-0.34346875,-0.48434375,1.25078125,0.019993812508745285,0.023507368867094914,True
63315,88789,0,88790,3271.0,38892.0,28897.0,-0.004514,-0.000732,-0.0006709999999999999,0.10500000000000001,0.6300000000000001,-3.6400000000000006,1.0326875,0.14300000000000002,0.09431250000000001,1.287875,0.9988750000000001,-0.33965625,-0.48140625000000004,1.25290625,0.019830035602906266,0.023516571888103858,True
63316,88790,0,88791,3265.0,38886.0,28891.0,-0.003477,0.00042699999999999997,0.002257,0.28,-0.29750000000000004,-3.6225000000000005,1.03978125,0.140375,0.09940625,1.28384375,1.00446875,-0.34103125,-0.48403125,1.25075,0.01977756180728785,0.023829307112161115,True
63317,88791,0,88792,3260.0,38885.0,28884.0,-0.0023179999999999997,0.0006709999999999999,-0.00042699999999999997,0.22750000000000004,-0.8750000000000001,-3.7975000000000003,1.03278125,0.14346875,0.09471875,1.2776875,0.99971875,-0.33590625,-0.48196875,1.2511875000000001,0.019698259644635178,0.023555601507742305,True
63318,88792,0,88793,3253.0,38882.0,28879.0,-0.000366,0.000244,-0.00042699999999999997,0.15750000000000003,-1.5925000000000002,-3.7975000000000003,1.0459375,0.14278125,0.09393750000000001,1.27809375,1.0069062500000001,-0.34203125,-0.48228125,1.2512812500000001,0.019916682179101218,0.023536154336107874,True
63319,88793,0,88794,3251.0,38878.0,28874.0,0.0018909999999999999,0.000122,0.00042699999999999997,0.17500000000000002,-2.2225,-3.9025000000000003,1.02915625,0.14421875,0.09406250000000001,1.29103125,0.9994375,-0.33946875,-0.48384375,1.2604375,0.019872557818255584,0.02360357531688627,True
63320,88794,0,88795,3247.0,38878.0,28870.0,0.0042699999999999995,0.00061,-0.000122,0.17500000000000002,-2.6425,-3.7450000000000006,1.0366875,0.139625,0.09284375,1.28284375,1.008625,-0.3399375,-0.48246875,1.25075,0.019702700551305852,0.023498957800160574,True
63321,88795,0,88796,3243.0,38876.0,28868.0,0.007625,-0.000732,-0.00244,0.21000000000000002,-2.7475,-3.7800000000000002,1.031125,0.1444375,0.09568750000000001,1.273375,0.9986875000000001,-0.33803125,-0.479625,1.25021875,0.01982365562128202,0.023501687627976327,True
63322,88796,0,88797,3240.0,38877.0,28868.0,0.0066489999999999995,0.00042699999999999997,0.000122,0.17500000000000002,-2.4850000000000003,-3.8850000000000002,1.03009375,0.14465625000000001,0.0909375,1.29440625,0.99840625,-0.34084375,-0.48375,1.25753125,0.019945898547580134,0.023472200949609435,True
63323,88797,0,88798,3239.0,38875.0,28868.0,0.004697,0.000244,-0.000305,0.21000000000000002,-2.1175,-3.9025000000000003,1.04184375,0.1439375,0.095625,1.2821875,1.0028125,-0.33978125000000003,-0.48159375,1.25003125,0.019873586579583578,0.02357766229986559,True
63324,88798,0,88799,3238.0,38877.0,28869.0,0.0021349999999999997,0.00061,0.000183,0.22750000000000004,-1.4175000000000002,-3.7800000000000002,1.03746875,0.14040625,0.09778125,1.28603125,1.00421875,-0.34253125,-0.48434375,1.25284375,0.019839247407764958,0.02377539728831817,True
63325,88799,0,88800,3236.0,38875.0,28870.0,0.0006709999999999999,-0.000915,-0.000915,0.31500000000000006,-0.7525000000000001,-3.7975000000000003,1.0346875,0.144625,0.09575,1.2816875,0.99940625,-0.3395625,-0.48234375,1.24996875,0.01989302396047587,0.023612680056418214,True
63326,88800,0,88801,3237.0,38879.0,28870.0,-0.0077469999999999995,0.00183,0.00061,0.43750000000000006,-0.21000000000000002,-3.7975000000000003,1.03084375,0.144125,0.09221875,1.295625,0.9994375,-0.34065625,-0.48409375,1.2550937500000001,0.019916523409265106,0.02353824102638065,True
63327,88801,0,88802,3237.0,38878.0,28871.0,-0.009394,0.0006709999999999999,0.001952,0.29750000000000004,-0.22750000000000004,-3.7800000000000002,1.04140625,0.13790625,0.09434375,1.28259375,1.00121875,-0.33965625,-0.482125,1.2459375,0.019620757791104792,0.023546516080609835,True
63328,88802,0,88803,3237.0,38881.0,28872.0,-0.008784,-0.000122,0.001098,0.28,-0.5075000000000001,-3.6575,1.03015625,0.14878125,0.094125,1.2889375,0.999,-0.33984375,-0.48359375,1.25384375,0.020075108329321134,0.023596158141612686,True
63329,88803,0,88804,3237.0,38882.0,28875.0,-0.0046359999999999995,-0.001037,0.001098,0.17500000000000002,-1.0325000000000002,-3.6750000000000003,1.03696875,0.14315625,0.09434375,1.289625,1.00321875,-0.34071875,-0.48228125,1.25184375,0.019879240418896833,0.023552747969513663,True
63330,88804,0,88805,3237.0,38881.0,28874.0,0.000732,-0.000732,-0.000122,0.22750000000000004,-1.8725000000000003,-3.7100000000000004,1.0281875,0.14484375,0.09459375,1.28525,0.9997812500000001,-0.33946875,-0.481375,1.2514687500000001,0.01989823627518575,0.0235268137512701,True
63331,88805,0,88806,3238.0,38882.0,28877.0,0.005856,0.00042699999999999997,-0.00061,0.29750000000000004,-2.66,-3.7800000000000002,1.0347187500000001,0.14153125,0.09490625,1.291375,1.00196875,-0.34159375000000003,-0.48328125,1.25390625,0.01984771436751137,0.023615605036600228,True
63332,88806,0,88807,3240.0,38883.0,28876.0,0.007625,0.0006709999999999999,-0.000244,0.2625,-2.6775,-3.7100000000000004,1.0401562500000001,0.14403125,0.0978125,1.28359375,1.00546875,-0.3395625,-0.48231250000000003,1.24490625,0.01986862952035395,0.023695678257517547,True
63333,88807,0,88808,3241.0,38882.0,28876.0,0.007076,-0.00061,-0.000549,0.1925,-2.4850000000000003,-3.7625,1.03371875,0.14453125,0.09434375,1.27746875,1.00034375,-0.33821875,-0.48359375,1.24665625,0.019835058800266557,0.023605092696001785,True
63334,88808,0,88809,3242.0,38884.0,28876.0,0.00549,-0.0011589999999999999,-0.002379,0.15750000000000003,-1.9775000000000003,-3.7800000000000002,1.02778125,0.14446875,0.09440625,1.28609375,0.9841562500000001,-0.33921875,-0.47465625,1.2339375000000001,0.0198727619390002,0.023251092648134745,True
63335,88809,0,88810,3243.0,38883.0,28880.0,0.001586,-0.000366,-0.0021349999999999997,0.24500000000000002,-1.4700000000000002,-3.7625,1.03884375,0.14178125,0.09456250000000001,1.2894375,0.9865,-0.33528125000000003,-0.47590625000000003,1.26321875,0.01960373891302366,0.02330735966109529,True
63336,88810,0,88811,3244.0,38885.0,28879.0,-0.0034159999999999998,0.00042699999999999997,0.00244,0.4025,-0.43750000000000006,-3.6575,1.0347187500000001,0.14025,0.090875,1.28490625,1.01040625,-0.349625,-0.48884375,1.2708125000000001,0.0201183796465038,0.023672769360537898,True
63337,88811,0,88812,3245.0,38885.0,28881.0,-0.0068319999999999995,0.000244,0.000366,0.3325,-0.35000000000000003,-3.7450000000000006,1.029,0.1435625,0.0985,1.28028125,1.01034375,-0.348125,-0.4850625,1.2491875000000001,0.020194060117565523,0.023833408634345937,True
63338,88812,0,88813,3246.0,38887.0,28883.0,-0.007991,0.000793,0.000915,0.3325,-0.5775,-3.7625,1.03309375,0.14378125,0.09490625,1.2887187500000001,0.9924375,-0.340375,-0.476625,1.2398125,0.019891076041351045,0.02335008400872261,True
63339,88813,0,88814,3247.0,38887.0,28885.0,-0.007137,-0.00042699999999999997,0.0028669999999999998,0.36750000000000005,-1.0150000000000001,-3.8500000000000005,1.0421875,0.1410625,0.09171875,1.291375,1.00059375,-0.34553125,-0.486875,1.2673125,0.01998698426430929,0.023628729676612472,True
63340,88814,0,88815,3248.0,38888.0,28882.0,-0.003111,-0.00042699999999999997,0.000549,0.15750000000000003,-1.5925000000000002,-3.8325000000000005,1.03275,0.1441875,0.09490625,1.2839375,1.0168125000000001,-0.33834375,-0.47709375,1.24071875,0.019825969053461165,0.02336878739944361,True
63341,88815,0,88816,3246.0,38886.0,28885.0,0.006222,-0.000244,-0.000732,0.3325,-2.4850000000000003,-3.7975000000000003,1.0386250000000001,0.1435625,0.0924375,1.29209375,0.98675,-0.34450000000000003,-0.48975,1.27340625,0.020048162829386516,0.023772700823814046,True
63342,88816,0,88817,3249.0,38887.0,28882.0,0.010369999999999999,-0.00042699999999999997,-0.001952,0.36750000000000005,-2.4675000000000002,-3.8500000000000005,1.03596875,0.14396875,0.0976875,1.2842500000000001,1.02159375,-0.34075,-0.48509375,1.24415625,0.019913878988938302,0.023801471048073893,True
63343,88817,0,88818,3248.0,38886.0,28881.0,0.010369999999999999,0.000122,-0.003172,0.36750000000000005,-2.0125,-3.8150000000000004,1.0326250000000001,0.144375,0.095125,1.2843437500000001,0.9899375,-0.33646875,-0.475875,1.2397500000000001,0.01975815616224108,0.023329094465468547,True
63344,88818,0,88819,3247.0,38885.0,28880.0,0.005673,0.001037,0.00122,0.4025,-1.4875,-3.7275000000000005,1.02684375,0.14375000000000002,0.0934375,1.2904375000000001,0.9863437500000001,-0.33940625,-0.48021875,1.25965625,0.019850782103610274,0.02343346094487003,True
63345,88819,0,88820,3248.0,38885.0,28881.0,-0.000122,0.00042699999999999997,0.00122,0.42000000000000004,-0.8925000000000001,-3.7100000000000004,1.0322500000000001,0.145625,0.09559375,1.28509375,0.99965625,-0.3375,-0.47825,1.251125,0.01985105290190036,0.02344300552531329,True
63346,88820,0,88821,3248.0,38885.0,28884.0,-0.008113,-0.00042699999999999997,-0.000122,0.35000000000000003,-0.2625,-3.7275000000000005,1.0350625,0.139875,0.09128125000000001,1.28465625,0.99128125,-0.3398125,-0.4811875,1.25134375,0.019707937355721208,0.02338402702074807,True
63347,88821,0,88822,3248.0,38888.0,28884.0,-0.008357,0.000305,0.002379,0.35000000000000003,-0.1925,-3.6225000000000005,1.03325,0.14384375,0.0933125,1.288875,0.98546875,-0.33971875,-0.48253125,1.25959375,0.01986721806306821,0.02352059695624814,True
63348,88822,0,88823,3248.0,38889.0,28886.0,-0.007991,0.00061,0.000732,0.3325,-0.5775,-3.7100000000000004,1.0400625000000001,0.14340625,0.09459375,1.28396875,1.00425,-0.34018750000000003,-0.47959375,1.2535625000000001,0.019868119339672304,0.023455760984595588,True
63349,88823,0,88824,3250.0,38889.0,28886.0,-0.002562,0.00061,-0.001098,0.35000000000000003,-0.9800000000000001,-3.6225000000000005,1.0386250000000001,0.1418125,0.09421875,1.28559375,1.0055,-0.34128125,-0.4819375,1.2515,0.019846685350632477,0.023533931903878116,True
63350,88824,0,88825,3250.0,38891.0,28887.0,0.001769,0.0,6.1e-05,0.36750000000000005,-1.4000000000000001,-3.6400000000000006,1.03303125,0.14350000000000002,0.09484375,1.28584375,0.99603125,-0.33925,-0.483625,1.2569062500000001,0.01983421839210329,0.02362676074314976,True
63351,88825,0,88826,3252.0,38892.0,28886.0,0.0062829999999999995,-0.001464,-0.000183,0.21000000000000002,-1.5225000000000002,-3.6925000000000003,1.037,0.14603125,0.09321875,1.2896875,1.0081875,-0.3428125,-0.4845625,1.2578125,0.02008164627649332,0.02359777717081937,True
63352,88826,0,88827,3252.0,38890.0,28890.0,0.0073809999999999995,-0.0017079999999999999,-0.002562,0.14,-1.3125000000000002,-3.7100000000000004,1.03915625,0.14250000000000002,0.09328125,1.2842500000000001,1.00515625,-0.33971875,-0.482625,1.25125,0.01981200994773204,0.023523059720924538,True
63353,88827,0,88828,3253.0,38891.0,28889.0,0.000305,-0.000244,-0.000976,0.14,-1.0150000000000001,-3.7800000000000002,1.03334375,0.14396875,0.09453125,1.285375,0.999375,-0.33578125000000003,-0.4815,1.25259375,0.01971377023287469,0.02352924657394359,True
63354,88828,0,88829,3255.0,38894.0,28893.0,-0.004331,0.00122,0.001769,0.1925,-0.8575,-3.8150000000000004,1.02409375,0.14403125,0.09481250000000001,1.285125,1.00440625,-0.34209375000000003,-0.48396875,1.2595625,0.01997054998607094,0.02363919248181527,True
63355,88829,0,88830,3255.0,38894.0,28892.0,-0.0059169999999999995,0.001037,0.002379,0.24500000000000002,-0.77,-3.7975000000000003,1.0326875,0.14459375,0.095875,1.28709375,1.0073125,-0.34096875,-0.48528125,1.2513125,0.019948363805364158,0.02373492238321747,True
63356,88830,0,88831,3258.0,38895.0,28895.0,-0.002745,-0.000976,-0.000549,0.21000000000000002,-0.9800000000000001,-3.8850000000000002,1.02571875,0.14225000000000002,0.0899375,1.3043437500000001,1.00678125,-0.3385625,-0.48431250000000003,1.2515,0.019755172475777894,0.023453793117531888,True
63357,88831,0,88832,3260.0,38898.0,28897.0,0.000732,0.00061,-0.0008539999999999999,0.45500000000000007,-1.2950000000000002,-3.7625,1.0381562500000001,0.14228125,0.09506250000000001,1.27996875,0.99909375,-0.339375,-0.48196875,1.25765625,0.019789179056569857,0.0235696424536936,True
63358,88832,0,88833,3259.0,38897.0,28897.0,0.003355,0.0011589999999999999,-0.000488,0.43750000000000006,-1.5225000000000002,-3.7100000000000004,1.0415,0.13775,0.09103125000000001,1.28128125,1.00665625,-0.34168750000000003,-0.48231250000000003,1.2513125,0.019696148839311166,0.023418692576528465,True
63359,88833,0,88834,3260.0,38897.0,28899.0,0.003721,0.000915,-6.1e-05,0.43750000000000006,-1.5925000000000002,-3.7975000000000003,1.02578125,0.144875,0.0915625,1.29240625,0.999375,-0.34290625,-0.48584375,1.2513750000000001,0.020037921725143237,0.023581227418393535,True
63360,88834,0,88835,3262.0,38898.0,28900.0,0.0006709999999999999,-0.000366,0.000793,0.31500000000000006,-1.4875,-3.8150000000000004,1.0265,0.1483125,0.09821875000000001,1.29734375,0.99865625,-0.341125,-0.48521875000000003,1.25153125,0.02010743135331666,0.023828151422988615,True
63361,88835,0,88836,3264.0,38901.0,28902.0,0.00061,-0.00061,-0.000488,0.21000000000000002,-1.1025,-3.7450000000000006,1.0259375,0.1468125,0.08771875,1.28621875,0.9991875,-0.34225,-0.4845625,1.25040625,0.020091096755640914,0.02337314583423739,True
63362,88836,0,88837,3265.0,38902.0,28904.0,0.000122,-0.000366,-0.000488,0.21000000000000002,-0.8400000000000001,-3.7275000000000005,1.0270625,0.14596875,0.0918125,1.2845625,0.99953125,-0.34253125,-0.48103125,1.2515,0.020067756922361967,0.023399494251288944,True
63363,88837,0,88838,3266.0,38903.0,28905.0,-0.000549,0.000244,0.0008539999999999999,0.22750000000000004,-0.7875000000000001,-3.7275000000000005,1.02621875,0.145375,0.09334375,1.30109375,0.9990625000000001,-0.34109375000000003,-0.4829375,1.251125,0.01998549264040364,0.02353807626229492,True
63364,88838,0,88839,3268.0,38903.0,28907.0,-0.003172,-0.000183,6.1e-05,0.28,-0.7175,-3.7625,1.045125,0.14109375,0.09378125,1.28125,0.99609375,-0.33703125,-0.47528125,1.25171875,0.01964598701823995,0.023250498908975768,True
63365,88839,0,88840,3269.0,38904.0,28908.0,-0.004514,-0.00061,0.0006709999999999999,0.15750000000000003,-1.0150000000000001,-3.6575,1.03240625,0.14184375,0.09431250000000001,1.2848125000000001,0.9999687500000001,-0.33978125000000003,-0.47821875,1.252875,0.019787564853320116,0.023389416356122728,True
63366,88840,0,88841,3269.0,38906.0,28910.0,-0.001647,-0.000549,0.000305,0.21000000000000002,-1.435,-3.7275000000000005,1.0315625,0.1456875,0.09675,1.2790000000000001,0.9997812500000001,-0.34053125,-0.48303125,1.2594687500000001,0.01997568356278173,0.02368094228528177,True
63367,88841,0,88842,3270.0,38907.0,28911.0,0.003843,-0.001281,-0.000122,0.21000000000000002,-1.61,-3.8150000000000004,1.0273125,0.1465,0.096125,1.28525,1.00578125,-0.34290625,-0.481875,1.2584375,0.02010467628531413,0.023609302800541215,True
63368,88842,0,88843,3271.0,38908.0,28911.0,0.006954,-0.000732,-0.000793,0.3325,-1.5750000000000002,-3.8150000000000004,1.03521875,0.14365625,0.0968125,1.2886875,1.0063125,-0.34240625,-0.4845625,1.25375,0.019967726074738405,0.023744553328245092,True
63369,88843,0,88844,3274.0,38907.0,28912.0,0.004575,0.0013419999999999999,-0.0006709999999999999,0.45500000000000007,-1.5050000000000001,-3.7450000000000006,1.03696875,0.1400625,0.0911875,1.2849375,1.002875,-0.3415,-0.481625,1.25175,0.01978360002464926,0.023397650278525223,True
63370,88844,0,88845,3274.0,38909.0,28915.0,-0.003477,0.0006709999999999999,0.00042699999999999997,0.4025,-1.2600000000000002,-3.7625,1.023375,0.14359375,0.09409375,1.2858125,0.9999687500000001,-0.3395,-0.48171875000000003,1.25471875,0.019848137800694342,0.023520101095843203,True
63371,88845,0,88846,3275.0,38908.0,28918.0,-0.003477,-0.000732,-0.000244,0.43750000000000006,-1.3825,-3.7975000000000003,1.0335,0.1445625,0.09565625,1.28584375,1.0004375,-0.34003125,-0.48296875,1.2579375,0.019909331463984874,0.023633776030531423,True
63372,88846,0,88847,3277.0,38912.0,28917.0,-0.0013419999999999999,-0.000244,-6.1e-05,0.45500000000000007,-1.3650000000000002,-3.7450000000000006,1.03475,0.13984375000000002,0.09121875,1.29028125,1.0052812500000001,-0.34271875,-0.48409375,1.260125,0.019823689578634267,0.023497398183259285,True
63373,88847,0,88848,3277.0,38911.0,28919.0,0.001586,0.001281,0.0,0.56,-1.3125000000000002,-3.6750000000000003,1.0376875,0.14203125,0.09153125000000001,1.28646875,1.00615625,-0.33396875,-0.47596875,1.25053125,0.019561133035481522,0.02318600770398516,True
63374,88848,0,88849,3277.0,38910.0,28921.0,0.004697,0.0025009999999999998,-0.0030499999999999998,0.525,-1.2075,-3.6575,1.03378125,0.1446875,0.09490625,1.284875,0.99971875,-0.340375,-0.482125,1.2515,0.01992830841759833,0.023569492027346484,True
63375,88849,0,88850,3279.0,38908.0,28919.0,0.002623,-0.001281,0.002257,0.3325,-0.29750000000000004,-3.6400000000000006,1.03378125,0.14521875,0.09859375000000001,1.2883437500000001,0.99625,-0.34034375,-0.48275,1.259625,0.01994887603015056,0.02374503476937844,True
63376,88850,0,88851,3279.0,38903.0,28918.0,-0.00122,-0.003172,0.002806,0.28,0.2625,-3.5525,1.033,0.142625,0.0905,1.28509375,1.0053750000000001,-0.34325,-0.48215625,1.25140625,0.019959331642241687,0.023390760362457862,True
63377,88851,0,88852,3278.0,38900.0,28913.0,-0.0048189999999999995,-0.0011589999999999999,-0.001586,0.22750000000000004,0.5950000000000001,-3.7275000000000005,1.03334375,0.1435625,0.09534375,1.28021875,0.9989687500000001,-0.33968750000000003,-0.48128125,1.25215625,0.019854404457740064,0.023553710041217715,True
63378,88852,0,88853,3275.0,38894.0,28905.0,-0.008539999999999999,-0.000244,-0.0006709999999999999,0.28,0.7350000000000001,-3.7625,1.03315625,0.1449375,0.09184375,1.29171875,1.00409375,-0.33865625,-0.48462500000000003,1.2543125,0.019869369328883963,0.023544111866120068,True
63379,88853,0,88854,3273.0,38890.0,28896.0,-0.008479,0.0021349999999999997,0.0026839999999999998,0.22750000000000004,0.5775,-3.6575,1.03640625,0.143625,0.09434375,1.2848125000000001,0.9995,-0.33625,-0.4815,1.24790625,0.019718526888900304,0.023521587729510036,True
63380,88854,0,88855,3269.0,38884.0,28889.0,-0.001586,-0.00122,-0.001037,0.07,-0.385,-3.7100000000000004,1.0410625,0.14384375,0.09503125,1.28428125,1.00840625,-0.33534375,-0.4814375,1.25178125,0.01969101011774284,0.023547177325677873,True
63381,88855,0,88856,3262.0,38880.0,28881.0,0.0013419999999999999,-0.001037,0.000183,0.21000000000000002,-0.9450000000000001,-3.7800000000000002,1.03375,0.14146875,0.091875,1.2901875,1.0005,-0.34271875,-0.4840625,1.25196875,0.019890444652982734,0.02352295498347139,True
63382,88856,0,88857,3255.0,38875.0,28872.0,0.002074,0.0,-0.000244,0.31500000000000006,-1.4000000000000001,-3.7800000000000002,1.02009375,0.14378125,0.098625,1.285,0.9994375,-0.3374375,-0.48196875,1.2524375,0.01977277805027748,0.023715157711734276,True
63383,88857,0,88858,3251.0,38874.0,28866.0,0.0034159999999999998,0.001403,0.00061,0.42000000000000004,-1.7500000000000002,-3.7800000000000002,1.03375,0.14350000000000002,0.092375,1.2898125,1.00503125,-0.33759375,-0.484125,1.2535,0.01976751501984456,0.02354586900695859,True
63384,88858,0,88859,3245.0,38871.0,28862.0,0.004392,0.000183,0.001403,0.29750000000000004,-1.8900000000000001,-3.8150000000000004,1.034125,0.14521875,0.1018125,1.28775,0.99965625,-0.33203125,-0.48203125,1.2568125,0.019614063252528496,0.023847847592303028,True
63385,88859,0,88860,3239.0,38868.0,28857.0,0.001098,-0.00061,-0.001952,0.22750000000000004,-1.9250000000000003,-3.8500000000000005,1.04028125,0.1400625,0.09221875,1.2833125,1.00603125,-0.33234375,-0.4825625,1.2510937500000001,0.019414745034579746,0.02347716869915067,True
63386,88860,0,88861,3237.0,38866.0,28853.0,-0.000976,0.000793,-0.000549,0.24500000000000002,-1.8550000000000002,-3.8150000000000004,1.0328125,0.14459375,0.09421875,1.28525,0.9858750000000001,-0.34140625,-0.482,1.24646875,0.01996597875276824,0.0235364247202026,True
63387,88861,0,88862,3234.0,38865.0,28852.0,-0.0028669999999999998,0.000732,0.000915,0.43750000000000006,-1.9075000000000002,-3.8325000000000005,1.03359375,0.144375,0.09296875,1.28921875,1.00425,-0.34103125,-0.48309375,1.2551875000000001,0.019941893382187742,0.023528991306501046,True
63388,88862,0,88863,3232.0,38866.0,28851.0,-0.001952,0.001037,0.000793,0.4025,-2.0300000000000002,-3.7100000000000004,1.03684375,0.14259375,0.09296875,1.28803125,1.0070937500000001,-0.342375,-0.48284375,1.25803125,0.019922819774159255,0.023519020334392324,True
63389,88863,0,88864,3230.0,38864.0,28851.0,0.000366,-0.000793,-0.000976,0.35000000000000003,-2.0825,-3.7800000000000002,1.03740625,0.1449375,0.09468750000000001,1.2853125,1.00675,-0.342375,-0.48390625000000004,1.2514375,0.02001910249102645,0.023631594733785587,True
63390,88864,0,88865,3229.0,38865.0,28851.0,0.002074,-0.000183,-6.1e-05,0.49000000000000005,-2.24,-3.7275000000000005,1.03328125,0.14334375,0.09506250000000001,1.2851875,1.0,-0.33959375,-0.48246875,1.25240625,0.01984164176939067,0.023589583873154137,True
63391,88865,0,88866,3230.0,38868.0,28854.0,0.0008539999999999999,0.001464,0.000183,0.42000000000000004,-2.2225,-3.7275000000000005,1.03346875,0.14453125,0.09515625,1.2876875,0.9998125,-0.33903125,-0.48431250000000003,1.26103125,0.019867779248609163,0.023666939800739757,True
63392,88866,0,88867,3228.0,38868.0,28853.0,-0.000183,0.001281,0.00042699999999999997,0.525,-2.0300000000000002,-3.6400000000000006,1.02134375,0.14390625,0.09359375,1.2879375,1.01065625,-0.34396875,-0.4829375,1.25925,0.020040898220426775,0.023548287455294123,True
63393,88867,0,88868,3229.0,38866.0,28856.0,0.0006709999999999999,-0.000488,0.0011589999999999999,0.36750000000000005,-1.9600000000000002,-3.6575,1.0338125,0.14434375,0.095,1.2856875,1.0054375,-0.34215625,-0.48003125,1.25159375,0.019985904083579285,0.023489808657821874,True
63394,88868,0,88869,3230.0,38868.0,28855.0,0.002379,-0.000793,-0.000549,0.24500000000000002,-1.9250000000000003,-3.6400000000000006,1.0339375,0.1448125,0.09515625,1.285625,1.0025625,-0.34265625,-0.4849375,1.2634375,0.020025289968098693,0.02369186157816413,True
63395,88869,0,88870,3229.0,38869.0,28857.0,-0.0015249999999999999,-0.001037,0.000122,0.43750000000000006,-1.7850000000000001,-3.7100000000000004,1.02825,0.13946875,0.08396875000000001,1.3030625,1.0091875000000001,-0.3440625,-0.48781250000000004,1.25103125,0.019862389443011,0.0233496254514363,True
63396,88870,0,88871,3230.0,38870.0,28858.0,-0.0046359999999999995,0.001037,0.0006709999999999999,0.5075000000000001,-1.8375000000000001,-3.6925000000000003,1.04965625,0.14359375,0.09593750000000001,1.2786250000000001,0.989625,-0.3388125,-0.4804375,1.24996875,0.019820451388086417,0.023544309614564694,True
63397,88871,0,88872,3231.0,38872.0,28857.0,-0.0030499999999999998,0.00061,-0.000488,0.4025,-1.9250000000000003,-3.7450000000000006,1.01453125,0.14884375,0.094625,1.29328125,1.01028125,-0.345625,-0.48384375,1.26175,0.02031037404051036,0.02362654965072631,True
63398,88872,0,88873,3230.0,38874.0,28859.0,6.1e-05,-0.00042699999999999997,0.000183,0.4025,-2.1,-3.8325000000000005,1.04196875,0.137625,0.0846875,1.29328125,1.0130937500000001,-0.34328125,-0.4820625,1.24590625,0.019755194259196262,0.02314960187688435,True
63399,88873,0,88874,3233.0,38873.0,28860.0,0.002013,0.00061,-0.000366,0.36750000000000005,-2.205,-3.8150000000000004,1.026,0.1483125,0.100875,1.302375,0.99690625,-0.3384375,-0.4839375,1.264125,0.019999229613651245,0.023885557623237685,True
63400,88874,0,88875,3234.0,38873.0,28862.0,0.002013,-0.00061,0.000732,0.56,-2.24,-3.7975000000000003,1.05890625,0.14121875,0.10390625,1.27434375,0.9980625000000001,-0.33984375,-0.480625,1.2496875,0.019764403787514043,0.023877300926753303,True
63401,88875,0,88876,3236.0,38875.0,28863.0,0.001281,0.000244,-0.00183,0.56,-2.2225,-3.8325000000000005,1.0219375,0.13925,0.08940625,1.3035,0.99990625,-0.344875,-0.48465625,1.2503125,0.01988611566089372,0.023445805983083795,True
63402,88876,0,88877,3236.0,38875.0,28864.0,-0.00122,0.0008539999999999999,-0.002196,0.5950000000000001,-2.1525000000000003,-3.9025000000000003,1.03121875,0.14521875,0.0975625,1.27446875,0.99671875,-0.3414375,-0.48021875,1.2554375,0.01999291331910862,0.023601964341107045,True
63403,88877,0,88878,3237.0,38875.0,28864.0,-0.002196,0.000732,0.002074,0.6300000000000001,-2.2225,-3.8325000000000005,1.01384375,0.14815625,0.09396875,1.30690625,1.004875,-0.34065625,-0.47950000000000004,1.25821875,0.0200821413761184,0.023426489511632183,True
63404,88878,0,88879,3239.0,38877.0,28867.0,-6.1e-05,0.000549,0.000793,0.5950000000000001,-2.1350000000000002,-3.8500000000000005,1.0333125,0.14565625000000001,0.0981875,1.2784375000000001,0.9979687500000001,-0.340125,-0.48171875000000003,1.258,0.01995804253264928,0.02368731770517542,True
63405,88879,0,88880,3238.0,38877.0,28867.0,0.003172,0.000183,-0.000732,0.5775,-1.9425000000000001,-3.6750000000000003,1.04515625,0.1350625,0.09075,1.298875,0.99390625,-0.34434375,-0.4830625,1.25240625,0.019692716095499597,0.023437121070944457,True
63406,88880,0,88881,3239.0,38876.0,28867.0,0.0017079999999999999,0.0,0.00042699999999999997,0.7000000000000001,-1.8375000000000001,-3.5875000000000004,1.0310625,0.1471875,0.10034375,1.29003125,0.99984375,-0.34021875,-0.48128125,1.25965625,0.020024727592064064,0.023757947717707787,True
63407,88881,0,88882,3240.0,38876.0,28870.0,0.001952,-0.000549,0.000793,0.42000000000000004,-1.435,-3.7800000000000002,1.04084375,0.14640625000000002,0.09553125,1.285125,1.002125,-0.33946875,-0.48184375,1.25896875,0.019962432417511167,0.02358380381379568,True
63408,88882,0,88883,3239.0,38877.0,28868.0,-0.001098,6.1e-05,0.000305,0.42000000000000004,-1.12,-3.7450000000000006,1.0358125,0.14471875,0.09653125,1.28415625,1.00190625,-0.34,-0.47996875,1.25753125,0.01991449260476582,0.02354986666394335,True
63409,88883,0,88884,3239.0,38878.0,28870.0,-0.0035989999999999998,0.00042699999999999997,-0.000793,0.42000000000000004,-0.9800000000000001,-3.6750000000000003,1.04096875,0.141125,0.0976875,1.28546875,1.00703125,-0.34315625,-0.4830625,1.2514687500000001,0.019893938363066622,0.023720480229954894,True
63410,88884,0,88885,3241.0,38878.0,28869.0,-0.002379,-0.000976,0.0006709999999999999,0.385,-1.3650000000000002,-3.6750000000000003,1.0338125,0.14150000000000001,0.09321875,1.2843437500000001,1.00009375,-0.33940625,-0.4855625,1.2531875000000001,0.019758339421283133,0.02363765382151217,True
63411,88885,0,88886,3241.0,38880.0,28870.0,0.000549,-0.00061,-0.000244,0.35000000000000003,-1.5050000000000001,-3.7450000000000006,1.03959375,0.1473125,0.09434375,1.27815625,1.0013750000000001,-0.34318750000000003,-0.48259375,1.252375,0.020149374439974225,0.023565211508686658,True
63412,88886,0,88887,3241.0,38879.0,28871.0,0.00122,-6.1e-05,-0.000915,0.4025,-1.7325000000000002,-3.7800000000000002,1.0393125,0.14103125,0.09125,1.28590625,1.0020625,-0.34103125,-0.48540625,1.255125,0.01980452245629486,0.023551018272363767,True
63413,88887,0,88888,3242.0,38881.0,28871.0,0.000488,0.0011589999999999999,0.002013,0.5075000000000001,-1.8025000000000002,-3.7275000000000005,1.0345,0.1445,0.09525,1.28609375,0.994625,-0.34109375000000003,-0.48209375,1.24703125,0.01994954520069584,0.02358228654360904,True
63414,88888,0,88889,3241.0,38882.0,28872.0,-0.0011589999999999999,-0.000305,0.0018909999999999999,0.45500000000000007,-2.0475000000000003,-3.6925000000000003,1.0401875,0.1454375,0.0921875,1.28928125,1.00590625,-0.34315625,-0.48481250000000004,1.25803125,0.02007109287646297,0.023565628693297123,True
63415,88889,0,88890,3242.0,38883.0,28873.0,0.001952,-0.000305,-0.003355,0.49000000000000005,-2.1525000000000003,-3.7800000000000002,1.0335625,0.14425,0.0970625,1.29296875,0.99990625,-0.34025,-0.48175,1.25203125,0.019905300890500303,0.02364261133293167,True
63416,88890,0,88891,3244.0,38882.0,28873.0,0.001403,0.0013419999999999999,0.00122,0.6825000000000001,-2.1875,-3.8325000000000005,1.03725,0.14428125,0.09534375,1.2858125,1.0063125,-0.3418125,-0.4819375,1.25190625,0.019969496930436054,0.023579884149283525,True
63417,88891,0,88892,3245.0,38884.0,28876.0,0.001952,0.002623,0.000976,0.6825000000000001,-2.1525000000000003,-3.7275000000000005,1.03975,0.14371875,0.0931875,1.282875,1.00115625,-0.34218750000000003,-0.48525,1.25921875,0.01996148661659927,0.023623916439489082,True
63418,88892,0,88893,3247.0,38886.0,28877.0,0.001769,0.000244,-0.000488,0.5775,-1.9075000000000002,-3.6925000000000003,1.03759375,0.14615625000000002,0.09515625,1.28509375,1.00778125,-0.34075,-0.48031250000000003,1.2521875,0.020003748857368817,0.023507410291433165,True
63419,88893,0,88894,3247.0,38888.0,28879.0,0.000366,-0.000732,0.013176,0.45500000000000007,-1.7500000000000002,-3.7275000000000005,1.0383125,0.14103125,0.0923125,1.28690625,1.00621875,-0.3420625,-0.4851875,1.25603125,0.019846048378193096,0.023585688286030075,True
63420,88894,0,88895,3251.0,38890.0,28882.0,-0.003355,-0.00244,-0.014152,0.45500000000000007,-1.715,-3.5525,1.0289375,0.14409375,0.09721875,1.286375,0.9995625,-0.34046875,-0.48303125,1.2530937500000001,0.019907689739952113,0.023700088198841802,True
63421,88895,0,88896,3250.0,38886.0,28880.0,0.00183,0.0055509999999999995,-0.00122,0.6475000000000001,-1.6975000000000002,-3.535,1.0344375000000001,0.14421875,0.092875,1.29128125,0.999625,-0.34121875,-0.4851875,1.25034375,0.01994302360065681,0.02360866135903595,True
63422,88896,0,88897,3252.0,38890.0,28884.0,0.0042699999999999995,-6.1e-05,0.021716,0.45500000000000007,-1.6625,-3.8150000000000004,1.0416875,0.143875,0.09484375,1.285125,1.00696875,-0.33634375,-0.48278125,1.252375,0.019732575892794084,0.023593111995803176,True
63423,88897,0,88898,3254.0,38889.0,28885.0,-0.0011589999999999999,-0.007869,0.008173999999999999,0.3325,-1.5925000000000002,-3.7275000000000005,1.0329375,0.141375,0.09146875,1.294,0.999375,-0.34259375000000003,-0.48278125,1.2576875,0.019881560484901084,0.023455260010543127,True
63424,88898,0,88899,3255.0,38891.0,28887.0,-0.002623,0.009882,-0.009882,0.6125,-1.7675,-3.8500000000000005,1.04303125,0.14246875,0.09496875,1.2750625,1.00653125,-0.3418125,-0.48325,1.25203125,0.019895036575439895,0.023616911561986254,True
63425,88899,0,88900,3258.0,38890.0,28885.0,0.000122,0.008479,0.00366,1.1025,-2.0650000000000004,-3.6750000000000003,1.0283437500000001,0.14465625000000001,0.09421875,1.2921562500000001,1.00009375,-0.34046875,-0.48353125,1.2554687500000001,0.019930799401716538,0.023597494744554057,True
63426,88900,0,88901,3259.0,38890.0,28890.0,0.001769,-0.0032329999999999998,0.0068319999999999995,0.7525000000000001,-1.995,-3.6225000000000005,1.0413125,0.14384375,0.09515625,1.28571875,1.00459375,-0.34109375000000003,-0.48225,1.2516875,0.019922584620914993,0.02358468890726955,True
63427,88901,0,88902,3262.0,38889.0,28889.0,0.003477,-0.008052,-0.0026839999999999998,0.2625,-1.7850000000000001,-3.8325000000000005,1.03440625,0.14453125,0.09568750000000001,1.2807187500000001,1.00028125,-0.339875,-0.48175,1.252625,0.019901755863577772,0.023586447047290328,True
63428,88902,0,88903,3261.0,38889.0,28891.0,6.1e-05,-0.0021349999999999997,-0.006954,0.5075000000000001,-1.6975000000000002,-3.7275000000000005,1.03428125,0.14384375,0.09559375,1.28978125,0.9998125,-0.3409375,-0.48178125,1.2561875,0.01991629328163716,0.02358386402133219,True
63429,88903,0,88904,3264.0,38893.0,28893.0,-0.0023179999999999997,0.003172,0.0059169999999999995,0.6300000000000001,-1.5575,-3.5700000000000003,1.039875,0.146125,0.09575,1.28903125,1.002125,-0.34153125,-0.48209375,1.251625,0.02003391836739934,0.023602709633443828,True
63430,88904,0,88905,3265.0,38893.0,28898.0,0.000976,-0.00122,-0.0006709999999999999,0.31500000000000006,-1.54,-3.6400000000000006,1.04221875,0.14250000000000002,0.09371875,1.28796875,1.0025625,-0.34415625,-0.48859375,1.266875,0.019990680514959315,0.023778927689549343,True
63431,88905,0,88906,3268.0,38894.0,28898.0,0.003538,-0.00366,0.000244,0.17500000000000002,-1.5050000000000001,-3.6050000000000004,1.0345625,0.14409375,0.09471875,1.2854375,1.0058125,-0.33978125000000003,-0.47559375000000004,1.248125,0.019880006111394285,0.023301273334788864,True
63432,88906,0,88907,3269.0,38896.0,28900.0,0.00549,0.000244,0.0030499999999999998,0.2625,-1.5225000000000002,-3.6750000000000003,1.034125,0.14465625000000001,0.0980625,1.2856875,0.98971875,-0.339625,-0.4810625,1.24646875,0.019896824622400715,0.023656040255605738,True
63433,88907,0,88908,3270.0,38896.0,28899.0,0.002257,6.1e-05,0.000122,0.385,-1.435,-3.7275000000000005,1.03565625,0.14584375,0.09565625,1.29175,0.9889687500000001,-0.3374375,-0.47853125,1.24690625,0.01985752403062155,0.02345677909086151,True
63434,88908,0,88909,3269.0,38897.0,28903.0,-0.002562,0.0008539999999999999,0.000976,0.29750000000000004,-1.0675000000000001,-3.7800000000000002,1.0393125,0.140875,0.09493750000000001,1.28584375,1.00965625,-0.3468125,-0.489,1.26084375,0.020030856195241167,0.023844889542243456,True
63435,88909,0,88910,3273.0,38898.0,28904.0,-0.005063,-0.00042699999999999997,0.005673,0.31500000000000006,-0.8400000000000001,-3.9025000000000003,1.03325,0.14484375,0.09484375,1.2847187500000001,0.9876875,-0.339375,-0.480125,1.24675,0.019894461135505737,0.02348716560883574,True
63436,88910,0,88911,3276.0,38899.0,28907.0,-0.00793,-0.0018909999999999999,-0.000488,0.5075000000000001,-0.9625000000000001,-3.7975000000000003,1.03075,0.14931250000000001,0.09221875,1.29375,0.99375,-0.33803125,-0.4786875,1.2529375,0.020023959415369722,0.023322584186754293,True
63437,88911,0,88912,3275.0,38903.0,28911.0,-0.009333,0.00122,-0.0030499999999999998,0.7525000000000001,-1.4175000000000002,-3.8675,1.04121875,0.14100000000000001,0.09421875,1.2909375,1.01403125,-0.3449375,-0.48575,1.2669375,0.01996051540489681,0.023685970411361713,True
63438,88912,0,88913,3276.0,38905.0,28913.0,-0.0048189999999999995,0.004026,0.000122,0.77,-2.1525000000000003,-3.8325000000000005,1.042375,0.14103125,0.094125,1.288375,1.0165625,-0.3441875,-0.4908125,1.2635625,0.01993160585047252,0.02388395648368138,True
63439,88913,0,88914,3279.0,38906.0,28915.0,0.006344,-0.003721,0.002379,0.43750000000000006,-3.43,-3.7275000000000005,1.0345312500000001,0.14490625000000001,0.09425,1.2855,1.0151875000000001,-0.34365625,-0.48431250000000003,1.25065625,0.02006939692964158,0.023629926304853364,True
63440,88914,0,88915,3279.0,38906.0,28918.0,0.010614,-0.0018909999999999999,-0.004575,0.49000000000000005,-3.7975000000000003,-3.8150000000000004,1.03440625,0.14421875,0.09506250000000001,1.286125,0.9909687500000001,-0.33928125000000003,-0.4801875,1.247125,0.019865007311996943,0.023498594526696337,True
63441,88915,0,88916,3281.0,38907.0,28916.0,0.012565999999999999,0.003538,-0.008662,0.7525000000000001,-3.7450000000000006,-3.7800000000000002,1.03459375,0.14359375,0.09303125,1.29228125,0.99346875,-0.33846875,-0.48553125,1.26234375,0.01980660759522926,0.02362875014198436,True
63442,88916,0,88917,3282.0,38905.0,28914.0,0.013725,0.004941,0.000488,0.9275000000000001,-3.1500000000000004,-3.7450000000000006,1.03684375,0.1444375,0.09490625,1.29140625,1.01275,-0.34171875,-0.47953125,1.24871875,0.01997214144954329,0.023466033484607678,True
63443,88917,0,88918,3280.0,38901.0,28910.0,0.012322,0.000122,0.0028669999999999998,0.6300000000000001,-1.9775000000000003,-3.8325000000000005,1.03871875,0.145,0.09503125,1.28609375,1.003625,-0.34309375000000003,-0.48140625000000004,1.25140625,0.020050604701795555,0.023545930904193876,True
63444,88918,0,88919,3282.0,38894.0,28903.0,-0.0062829999999999995,-0.001952,-0.003904,0.36750000000000005,0.5950000000000001,-3.535,1.0366250000000001,0.14075000000000001,0.091875,1.29103125,1.00003125,-0.34318750000000003,-0.48596875,1.25515625,0.01987979183087671,0.023598974412641933,True
63445,88919,0,88920,3280.0,38889.0,28897.0,-0.013359,0.0042699999999999995,0.0040869999999999995,0.56,1.4000000000000001,-3.4825000000000004,1.0349375,0.14490625000000001,0.09406250000000001,1.28646875,1.00196875,-0.34071875,-0.48303125,1.253625,0.019951136405945286,0.023571172380870937,True
63446,88920,0,88921,3277.0,38887.0,28891.0,-0.016409,0.0013419999999999999,0.0055509999999999995,0.29750000000000004,1.6800000000000002,-3.4650000000000003,1.03409375,0.1444375,0.09834375000000001,1.293625,0.99934375,-0.34084375,-0.4821875,1.2601875,0.01993691159535092,0.023712392938743727,True
63447,88921,0,88922,3272.0,38882.0,28882.0,-0.014395999999999999,-0.003294,0.003355,0.10500000000000001,1.4175000000000002,-3.4825000000000004,1.03859375,0.1410625,0.09115625000000001,1.29146875,0.997125,-0.34015625,-0.48390625000000004,1.2563125,0.01977056946789321,0.023487367339515116,True
63448,88922,0,88923,3267.0,38879.0,28875.0,-0.010003999999999999,-0.003294,-0.001037,0.10500000000000001,0.7875000000000001,-3.4650000000000003,1.039625,0.14115625,0.10034375,1.29153125,1.008875,-0.34396875,-0.484125,1.25825,0.019927933895330853,0.023871334997677067,True
63449,88923,0,88924,3261.0,38874.0,28869.0,0.004392,0.001647,-0.000915,0.35000000000000003,-0.9100000000000001,-3.7800000000000002,1.03953125,0.144125,0.09515625,1.28725,1.00196875,-0.3410625,-0.48328125,1.25240625,0.01993288090854703,0.02362581608623231,True
63450,88924,0,88925,3256.0,38870.0,28861.0,0.007686,0.00042699999999999997,0.0,0.24500000000000002,-1.3650000000000002,-3.7625,1.0375625,0.1471875,0.094375,1.29046875,1.00178125,-0.34421875,-0.48321875000000003,1.25884375,0.02018574738612222,0.02359141401699889,True
63451,88925,0,88926,3250.0,38864.0,28853.0,0.007076,-0.00061,-0.000488,0.24500000000000002,-1.5225000000000002,-3.7975000000000003,1.03890625,0.140875,0.09515625,1.28590625,1.0085,-0.34396875,-0.483875,1.2515625000000001,0.01991638072571877,0.02364949379949048,True
63452,88926,0,88927,3248.0,38862.0,28850.0,0.005978,-0.000793,-0.000976,0.22750000000000004,-1.435,-3.7100000000000004,1.03465625,0.14515625000000001,0.09590625,1.29346875,0.9999687500000001,-0.34068750000000003,-0.4824375,1.2603125,0.01996014903030163,0.02362280103849954,True
63453,88927,0,88928,3243.0,38859.0,28847.0,0.004941,0.0006709999999999999,-0.0026839999999999998,0.24500000000000002,-0.9975,-3.8675,1.03971875,0.14075000000000001,0.0934375,1.2781875,1.0093125,-0.3438125,-0.48359375,1.2526875,0.019904955314620502,0.023568078113532658,True
63454,88928,0,88929,3241.0,38859.0,28844.0,-0.004575,-0.000549,0.002562,0.3325,-0.22750000000000004,-3.7275000000000005,1.03353125,0.14609375,0.09581250000000001,1.288375,0.99334375,-0.34046875,-0.47940625000000003,1.25828125,0.019989857426225614,0.023498067891250425,True
63455,88929,0,88930,3238.0,38861.0,28845.0,-0.00549,0.00042699999999999997,0.0023179999999999997,0.45500000000000007,-0.22750000000000004,-3.6925000000000003,1.044375,0.14115625,0.09271875,1.28334375,1.00234375,-0.34118750000000003,-0.483875,1.25275,0.01981594981756745,0.023549938479917903,True
63456,88930,0,88931,3238.0,38857.0,28845.0,-0.004941,0.0,0.000183,0.4025,-0.31500000000000006,-3.7450000000000006,1.03153125,0.14525,0.09409375,1.28296875,1.00078125,-0.343,-0.4835,1.25278125,0.020057100603869695,0.02359114301468336,True
63457,88931,0,88932,3235.0,38862.0,28843.0,-0.003965,6.1e-05,-0.000549,0.6125,-0.5950000000000001,-3.7100000000000004,1.0461562500000001,0.14515625000000001,0.095875,1.29709375,1.00784375,-0.34221875,-0.48309375,1.25925,0.020021798547020287,0.0236476956675461,True
63458,88932,0,88933,3235.0,38861.0,28845.0,-0.00183,0.001769,0.0,0.665,-0.9275000000000001,-3.6225000000000005,1.0315625,0.14334375,0.08971875,1.27903125,1.000625,-0.3433125,-0.48296875,1.25184375,0.019991373400805663,0.023391260506346885,True
63459,88933,0,88934,3236.0,38862.0,28845.0,0.002806,-0.001281,0.000915,0.36750000000000005,-1.4525000000000001,-3.6400000000000006,1.03284375,0.13821875,0.10259375,1.2761875,1.0009375,-0.34421875,-0.4831875,1.2558125,0.019817333427469306,0.02392585728471834,True
63460,88934,0,88935,3234.0,38862.0,28845.0,0.00366,-0.001769,-0.0017079999999999999,0.385,-1.6975000000000002,-3.4650000000000003,1.04675,0.14146875,0.0955,1.2835625,1.00790625,-0.3433125,-0.482375,1.251875,0.01991435019371337,0.023603714917364023,True
63461,88935,0,88936,3234.0,38859.0,28843.0,0.002989,-0.000915,-0.0035989999999999998,0.45500000000000007,-1.5225000000000002,-3.4825000000000004,1.0386875,0.14053125,0.0914375,1.29065625,1.0039375,-0.34409375000000003,-0.485375,1.25375,0.019907292708318626,0.02355742969017219,True
63462,88936,0,88937,3234.0,38860.0,28842.0,0.002196,0.00061,-0.00122,0.43750000000000006,-1.2950000000000002,-3.5525,1.02284375,0.145125,0.09646875,1.2926875,1.0010000000000001,-0.3410625,-0.483,1.25553125,0.01997396374952819,0.02366820855287342,True
63463,88937,0,88938,3237.0,38859.0,28846.0,0.002562,0.000183,0.001281,0.45500000000000007,-0.9800000000000001,-3.5700000000000003,1.04365625,0.14328125,0.09603125,1.2835625,1.005625,-0.34034375,-0.4834375,1.252375,0.019869275675287044,0.02366778562038112,True
63464,88938,0,88939,3236.0,38861.0,28845.0,-6.1e-05,-0.00061,0.000366,0.35000000000000003,-0.29750000000000004,-3.6925000000000003,1.0305312500000001,0.14628125,0.0945,1.29109375,0.99965625,-0.34059375000000003,-0.48434375,1.2569062500000001,0.020002593404279633,0.023641383077706545,True
63465,88939,0,88940,3237.0,38859.0,28847.0,-0.003965,0.00122,0.000244,0.42000000000000004,-0.052500000000000005,-3.7100000000000004,1.0404375000000001,0.1433125,0.092875,1.28553125,1.004625,-0.341625,-0.48290625000000004,1.25284375,0.01992214981538825,0.023517683894247646,True
63466,88940,0,88941,3238.0,38861.0,28850.0,-0.009089,0.001037,0.002196,0.42000000000000004,-0.10500000000000001,-3.6925000000000003,1.0326875,0.1443125,0.09506250000000001,1.28646875,1.00090625,-0.34115625,-0.4836875,1.2478125,0.01994435864154974,0.0236381876708727,True
63467,88941,0,88942,3238.0,38863.0,28851.0,-0.008784,-0.00122,0.002074,0.3325,-0.6125,-3.7625,1.0345625,0.1514375,0.094625,1.2910625,1.000875,-0.34028125,-0.48246875,1.2610937500000001,0.02020185161171874,0.02357171394326808,True
63468,88942,0,88943,3239.0,38865.0,28851.0,-0.00488,-0.000976,-0.000183,0.15750000000000003,-1.2075,-3.9200000000000004,1.04090625,0.14459375,0.0955,1.2861875,1.0093125,-0.3443125,-0.48340625000000004,1.2530625,0.020082976259855355,0.02364484108496954,True
63469,88943,0,88944,3240.0,38866.0,28854.0,0.005612,0.0011589999999999999,-6.1e-05,0.5075000000000001,-2.2925000000000004,-3.9025000000000003,1.0236875,0.14490625000000001,0.09265625,1.2881875,1.00140625,-0.33875,-0.4801875,1.28371875,0.01987186071593652,0.023400300753415388,True
63470,88944,0,88945,3242.0,38868.0,28853.0,0.007137,0.001098,-0.00061,0.5775,-2.4675000000000002,-3.8850000000000002,1.0346875,0.14428125,0.0914375,1.28659375,0.99725,-0.33346875,-0.4888125,1.28103125,0.019633452382328352,0.023694493148657163,True
63471,88945,0,88946,3242.0,38865.0,28856.0,0.0075639999999999995,-0.0006709999999999999,-0.0017079999999999999,0.525,-2.345,-3.7975000000000003,1.0345312500000001,0.14515625000000001,0.09259375,1.2905,0.986,-0.33809375,-0.47903125,1.27378125,0.019855704598886265,0.023351618540868528,True
63472,88946,0,88947,3243.0,38866.0,28857.0,0.006222,0.000305,0.000244,0.47250000000000003,-2.0650000000000004,-3.8150000000000004,1.03428125,0.14478125,0.09365625,1.29096875,1.023625,-0.3410625,-0.47846875,1.25834375,0.019959841522940915,0.023372581260827436,True
63473,88947,0,88948,3243.0,38868.0,28856.0,0.00366,0.000488,-0.000549,0.385,-1.6800000000000002,-3.8325000000000005,1.03428125,0.14515625000000001,0.09175,1.2918125,1.0225625,-0.34068750000000003,-0.47731250000000003,1.26403125,0.01996014903030163,0.023248569466112753,True
63474,88948,0,88949,3242.0,38867.0,28855.0,-0.00244,0.000183,-0.000305,0.28,-0.5775,-3.7275000000000005,1.0346875,0.14478125,0.09246875,1.2893125,1.005125,-0.33646875,-0.47646875,1.2725312500000001,0.01977484921677472,0.0232442639422813,True
63475,88949,0,88950,3244.0,38864.0,28852.0,-0.0057339999999999995,-6.1e-05,-0.001403,0.29750000000000004,-0.4025,-3.7100000000000004,1.0355,0.14621875,0.0921875,1.292875,1.00634375,-0.33759375,-0.47684375,1.26796875,0.01987922491310383,0.023247737976837803,True
63476,88950,0,88951,3242.0,38865.0,28854.0,-0.008967,0.000976,0.0025009999999999998,0.3325,-0.385,-3.6750000000000003,1.02859375,0.1445625,0.096375,1.286,1.00846875,-0.33703125,-0.47765625,1.2761875,0.019788516727980127,0.023451234225090486,True
63477,88951,0,88952,3244.0,38867.0,28855.0,-0.006771,0.000549,0.002196,0.24500000000000002,-0.42000000000000004,-3.5175000000000005,1.0343125,0.1448125,0.09431250000000001,1.282125,0.99484375,-0.33778125000000003,-0.48778125,1.27496875,0.019828995299232547,0.02377078364337316,True
63478,88952,0,88953,3244.0,38868.0,28855.0,-0.0017079999999999999,-0.0017079999999999999,-0.000549,0.14,-0.665,-3.4650000000000003,1.03428125,0.14459375,0.09725,1.29190625,0.9995625,-0.33618750000000003,-0.472625,1.266,0.01975581631264141,0.02328622287147374,True
63479,88953,0,88954,3245.0,38867.0,28853.0,0.0051849999999999995,-0.0008539999999999999,-0.000244,0.21000000000000002,-1.0675000000000001,-3.7100000000000004,1.04203125,0.1425625,0.09409375,1.286375,1.02128125,-0.3516875,-0.48475,1.24834375,0.020296334699597306,0.02364099082081704,True
63480,88954,0,88955,3244.0,38866.0,28854.0,0.0042699999999999995,0.000976,0.0,0.2625,-1.0325000000000002,-3.6575,1.0347187500000001,0.145,0.092,1.2818125,0.9871562500000001,-0.34171875,-0.4884375,1.2669375,0.019995249924576505,0.02370251266541608,True
63481,88955,0,88956,3245.0,38864.0,28854.0,0.00122,0.000183,0.000976,0.21000000000000002,-0.8575,-3.6575,1.0345625,0.145125,0.09528125,1.2925625,0.99765625,-0.3395,-0.48128125,1.2492812500000001,0.01991104993939892,0.02355115707026159,True
63482,88956,0,88957,3246.0,38866.0,28855.0,-0.0008539999999999999,6.1e-05,-0.0008539999999999999,0.2625,-0.6825000000000001,-3.6750000000000003,1.03859375,0.14515625000000001,0.09493750000000001,1.29340625,1.00134375,-0.339875,-0.4839375,1.25171875,0.019927433891916046,0.023643051694605902,True
63483,88957,0,88958,3247.0,38866.0,28857.0,-0.0011589999999999999,0.00042699999999999997,-0.001403,0.2625,-0.35000000000000003,-3.7275000000000005,1.03965625,0.14525,0.09509375,1.28675,1.00171875,-0.34028125,-0.48328125,1.25,0.019947643374087963,0.023623263323824292,True
63484,88958,0,88959,3246.0,38868.0,28857.0,-0.002074,0.00042699999999999997,0.000183,0.35000000000000003,-0.22750000000000004,-3.5700000000000003,1.03715625,0.14359375,0.09459375,1.2863437500000001,1.0080625,-0.343875,-0.47990625000000003,1.2529375,0.020024287423427864,0.023468227130159048,True
63485,88959,0,88960,3249.0,38866.0,28858.0,-0.002379,0.000549,-6.1e-05,0.2625,-0.07,-3.7275000000000005,1.0345312500000001,0.14984375,0.09290625,1.287,0.9999687500000001,-0.34521875,-0.48296875,1.2528125,0.02033510173327155,0.023521453050909115,True
63486,88960,0,88961,3251.0,38869.0,28859.0,-0.000793,-0.000488,-0.0011589999999999999,0.15750000000000003,0.052500000000000005,-3.6925000000000003,1.0344375000000001,0.14503125,0.09496875,1.289125,1.00015625,-0.34025,-0.48662500000000003,1.2586875,0.019937397931409907,0.02375148678104884,True
63487,88961,0,88962,3251.0,38870.0,28861.0,-0.000732,-0.000793,-0.001037,0.08750000000000001,0.0,-3.6925000000000003,1.040125,0.14253125,0.094125,1.288,0.99703125,-0.34384375,-0.48503125,1.252125,0.019979383904811663,0.02365348216576199,True
63488,88962,0,88963,3252.0,38873.0,28867.0,0.0018909999999999999,-0.00061,0.0017079999999999999,0.17500000000000002,-0.035,-3.6400000000000006,1.03475,0.14490625000000001,0.09559375,1.2879375,1.0005,-0.3405,-0.48509375,1.25540625,0.019942328629239336,0.023715959837809483,True
63489,88963,0,88964,3254.0,38876.0,28867.0,0.001037,-0.002928,0.0035989999999999998,0.12250000000000001,0.08750000000000001,-3.6750000000000003,1.02684375,0.14528125,0.093625,1.2905625,1.0008125,-0.34,-0.48478125,1.25484375,0.019937602711585865,0.0236230924056142,True
63490,88964,0,88965,3254.0,38876.0,28871.0,-0.003355,-0.0023179999999999997,-0.002562,0.07,-0.43750000000000006,-3.8150000000000004,1.03503125,0.14490625000000001,0.09543750000000001,1.28628125,1.00046875,-0.34009375000000003,-0.4826875,1.25571875,0.019925970909623142,0.02361362493394567,True
63491,88965,0,88966,3254.0,38879.0,28874.0,-0.006954,0.0008539999999999999,0.000549,0.1925,-0.6825000000000001,-3.9375000000000004,1.03878125,0.14059375,0.08903125,1.28015625,1.008125,-0.34303125,-0.48403125,1.25290625,0.019867082083296426,0.023405561533091084,True
63492,88966,0,88967,3257.0,38883.0,28878.0,-0.008235,0.0015249999999999999,0.000244,0.36750000000000005,-1.4525000000000001,-3.9550000000000005,1.034375,0.14584375,0.095375,1.30246875,1.0011875000000001,-0.34018750000000003,-0.4861875,1.25875,0.01996826236445385,0.02375063492428129,True
63493,88967,0,88968,3256.0,38887.0,28880.0,0.004758,-0.00042699999999999997,-0.000305,0.45500000000000007,-2.6425,-4.0075,1.0441875,0.145875,0.1024375,1.2804375000000001,1.000375,-0.339625,-0.4825,1.2588125000000001,0.019946897291967317,0.02389206576125804,True
63494,88968,0,88969,3259.0,38888.0,28880.0,0.008418,0.000793,-0.001952,0.42000000000000004,-2.9925,-3.99,1.0440625000000001,0.1390625,0.0936875,1.2800625,1.00646875,-0.34115625,-0.48190625000000004,1.24275,0.019728674557109423,0.023510985791802875,True
63495,88969,0,88970,3259.0,38886.0,28880.0,0.006771,0.00244,-0.001769,0.5075000000000001,-3.0275000000000003,-3.9200000000000004,1.0285625,0.140375,0.09234375,1.2998125,1.00871875,-0.34321875,-0.48496875,1.2534687500000001,0.019865645335007315,0.02357824124239489,True
63496,88970,0,88971,3260.0,38888.0,28883.0,0.005307,0.001952,-0.000488,0.3325,-2.7825,-3.8500000000000005,1.03171875,0.14559375,0.09784375000000001,1.30009375,1.00115625,-0.34068750000000003,-0.4850625,1.2609062500000001,0.01997812305013981,0.02380660657901118,True
63497,88971,0,88972,3262.0,38890.0,28883.0,0.0042699999999999995,-0.00122,-6.1e-05,0.24500000000000002,-2.5025000000000004,-3.7625,1.05284375,0.14253125,0.101125,1.2795,0.9999375,-0.34075,-0.482,1.26253125,0.019854821646826823,0.023818519728780328,True
63498,88972,0,88973,3261.0,38888.0,28883.0,0.004697,-0.001037,-0.0021349999999999997,0.15750000000000003,-1.12,-3.6050000000000004,1.04578125,0.13796875,0.09596875,1.28134375,1.0055,-0.340375,-0.4830625,1.2525,0.019652275283351218,0.023650278636506362,True
63499,88973,0,88974,3260.0,38887.0,28881.0,0.000793,0.0006709999999999999,0.0006709999999999999,0.21000000000000002,-0.29750000000000004,-3.6575,1.0303125,0.13728125,0.08915625,1.302875,1.0035,-0.34321875,-0.4835,1.2530625,0.01973855655386575,0.023389476586272388,True
63500,88974,0,88975,3261.0,38887.0,28882.0,-0.0075639999999999995,0.000122,0.003477,0.052500000000000005,0.22750000000000004,-3.6925000000000003,1.03628125,0.145125,0.10134375,1.28146875,1.00059375,-0.34078125,-0.48115625,1.255125,0.019962639859803184,0.023793810800909372,True
63501,88975,0,88976,3263.0,38889.0,28884.0,-0.011101999999999999,-0.001281,0.002379,-0.0175,0.42000000000000004,-3.6750000000000003,1.02775,0.14678125,0.09381250000000001,1.2849375,1.00796875,-0.3415,-0.48690625,1.2530625,0.02005962040137214,0.02371548059485873,True
63502,88976,0,88977,3265.0,38891.0,28887.0,-0.010187,-0.00061,0.000488,0.035,0.21000000000000002,-3.7275000000000005,1.02896875,0.1485,0.09803125,1.29240625,1.0009375,-0.34018750000000003,-0.48434375,1.256,0.020077392583767076,0.023785607894840962,True
63503,88977,0,88978,3265.0,38893.0,28887.0,-0.001098,0.000976,0.0,0.1925,-0.7175,-3.7450000000000006,1.0425312500000001,0.13846875,0.09418750000000001,1.2846250000000001,1.0075625,-0.34040625,-0.48028125,1.2484375,0.019674075900027347,0.023466591095639474,True
63504,88978,0,88979,3266.0,38894.0,28891.0,0.001403,0.000183,-0.00061,0.28,-1.2775,-3.6925000000000003,1.02984375,0.145125,0.09628125,1.2846875,1.00134375,-0.33990625,-0.4815,1.2599375,0.019927408307088286,0.023600729121990075,True
63505,88979,0,88980,3263.0,38891.0,28889.0,0.0013419999999999999,0.0,-0.000549,0.43750000000000006,-1.7325000000000002,-3.7450000000000006,1.04040625,0.14200000000000002,0.09971875000000001,1.2865,1.00759375,-0.343375,-0.484,1.25371875,0.0199386896845651,0.0238408246201601,True
63506,88980,0,88981,3267.0,38894.0,28892.0,0.002562,0.0008539999999999999,0.0,0.5775,-2.0125,-3.7975000000000003,1.03446875,0.14165625,0.09403125,1.2859375,1.00134375,-0.34221875,-0.48415625,1.246625,0.019878015433576698,0.023614761076359327,True
63507,88981,0,88982,3268.0,38890.0,28890.0,0.0057339999999999995,0.0006709999999999999,-0.001464,0.5425000000000001,-2.1,-3.7975000000000003,1.03484375,0.14400000000000002,0.09415625,1.2865312500000001,1.0014687500000001,-0.343625,-0.48512500000000003,1.2529375,0.020030911583628158,0.023658496740367876,True
63508,88982,0,88983,3268.0,38891.0,28894.0,0.0055509999999999995,0.000793,-0.000732,0.31500000000000006,-1.4000000000000001,-3.7450000000000006,1.0383437500000001,0.14221875,0.09393750000000001,1.28584375,1.007875,-0.343375,-0.47946875,1.2541875,0.019947675702321473,0.023423966257437676,True
63509,88983,0,88984,3271.0,38887.0,28890.0,0.00042699999999999997,0.001037,-0.000122,0.5075000000000001,-0.9275000000000001,-3.7450000000000006,1.0341875,0.14278125,0.09428125,1.285875,1.00015625,-0.343875,-0.483875,1.25378125,0.01999091147157139,0.02361375599246443,True
63510,88984,0,88985,3270.0,38886.0,28890.0,-0.004758,0.000183,0.000732,0.4025,-0.385,-3.6925000000000003,1.04265625,0.1415625,0.09478125,1.2866250000000001,1.010375,-0.34253125,-0.48303125,1.2534375,0.019886746576529505,0.02360052944832965,True
63511,88985,0,88986,3270.0,38884.0,28885.0,-0.009089,0.000183,0.001281,0.22750000000000004,-0.31500000000000006,-3.7100000000000004,1.04240625,0.14275000000000002,0.09528125,1.28678125,1.00225,-0.34090625,-0.47940625000000003,1.25375,0.019870100358321704,0.023476365975992577,True
63512,88986,0,88987,3267.0,38880.0,28881.0,-0.0059169999999999995,-0.000244,0.001098,0.22750000000000004,-0.42000000000000004,-3.6750000000000003,1.0341875,0.14446875,0.09506250000000001,1.29190625,1.0012812500000001,-0.34165625,-0.4844375,1.2612812500000001,0.019970908922847024,0.023668095295225795,True
