frame_seq,absolute_seq_u64,segment_id,sample_seq,PPG_G,PPG_R,PPG_IR,ACC_X,ACC_Y,ACC_Z,GYRO_X,GYRO_Y,GYRO_Z,Uh1,Uh2,Uh3,Uh4,Uc1,Uc2,Uc3,Uc4,UD1,UD2,parser_valid
13144,176,0,177,3642.0,40525.0,28401.0,0.002989,0.000305,0.0,0.3325,-1.5050000000000001,-3.6050000000000004,1.13115625,0.29559375,0.274375,1.4210625000000001,1.09375,-0.13675,-0.2001875,1.3918125000000001,0.017912260349881408,0.019609868725190664,True
13145,177,0,178,3643.0,40530.0,28402.0,0.001403,-0.000122,-0.001586,0.1925,-1.2075,-3.7625,1.1111875,0.2925625,0.27859375000000003,1.407375,1.098125,-0.13565625,-0.2015,1.3995625,0.017742163111889694,0.01983735512261637,True
13146,178,0,179,3644.0,40533.0,28406.0,-0.002562,-0.001037,0.000549,0.3325,-0.36750000000000005,-3.6750000000000003,1.1166562500000001,0.2911875,0.2731875,1.4101875,1.09234375,-0.1361875,-0.20409375,1.39878125,0.017706814715455786,0.01971902996781278,True
13147,179,0,180,3643.0,40532.0,28407.0,-0.006588,-0.0015249999999999999,0.001464,0.14,-0.21000000000000002,-3.7450000000000006,1.1209375,0.29246875,0.27403125,1.4098125000000001,1.09096875,-0.1361875,-0.20140625,1.39290625,0.017759898906983547,0.019645036122642665,True
13148,180,0,181,3644.0,40535.0,28407.0,-0.007625,0.00042699999999999997,0.000549,0.1925,-0.29750000000000004,-3.8150000000000004,1.1284375,0.29328125,0.27203125,1.4100625,1.0923125,-0.1396875,-0.20125,1.39934375,0.01793597162349347,0.019556066318888485,True
13149,181,0,182,3643.0,40534.0,28408.0,-0.006039,0.0013419999999999999,-0.000183,0.31500000000000006,-0.805,-3.6925000000000003,1.126125,0.2930625,0.27518750000000003,1.41584375,1.09171875,-0.13646875,-0.1973125,1.39853125,0.017795944156081243,0.01952696193017303,True
13150,182,0,183,3645.0,40534.0,28408.0,-0.002623,0.000122,0.0008539999999999999,0.29750000000000004,-1.3125000000000002,-3.6575,1.12078125,0.29040625000000003,0.27553125,1.4164375,1.09153125,-0.1368125,-0.19968750000000002,1.3784687500000001,0.01769988269992154,0.019637392011777013,True
13151,183,0,184,3644.0,40535.0,28410.0,0.006344,0.001098,0.000488,0.42000000000000004,-2.1175,-3.6750000000000003,1.1203750000000001,0.292375,0.27284375,1.4100625,1.0965,-0.13459375,-0.20284375000000002,1.3961875000000001,0.01769115131676911,0.01965419869307713,True
13152,184,0,185,3646.0,40538.0,28410.0,0.008052,-0.000244,-0.001403,0.5075000000000001,-2.2925000000000004,-3.6050000000000004,1.119125,0.29196875,0.27553125,1.4150625000000001,1.091375,-0.1376875,-0.199875,1.39503125,0.01780022423440522,0.01964498783568097,True
13153,185,0,186,3646.0,40541.0,28411.0,0.006954,0.00061,-0.001403,0.43750000000000006,-2.1875,-3.6750000000000003,1.12053125,0.2910625,0.27596875,1.40865625,1.0916875,-0.1363125,-0.20015625,1.39203125,0.017706723013302055,0.019674459746515067,True
13154,186,0,187,3647.0,40543.0,28412.0,0.004026,0.000122,-0.000366,0.35000000000000003,-1.6275000000000002,-3.7975000000000003,1.125625,0.293375,0.27496875,1.41475,1.09840625,-0.1365,-0.200625,1.3978125000000001,0.017810163031093985,0.01965212675292477,True
13155,187,0,188,3646.0,40544.0,28414.0,0.0006709999999999999,-0.000976,-0.000366,0.3325,-1.0325000000000002,-3.6575,1.1200625,0.29171875,0.2755,1.4149375,1.09246875,-0.13746875,-0.20350000000000001,1.38846875,0.017780965537241764,0.01979052616357139,True
13156,188,0,189,3646.0,40542.0,28414.0,-0.009394,-6.1e-05,0.001403,0.21000000000000002,-0.43750000000000006,-3.7450000000000006,1.1205625000000001,0.292875,0.27359375,1.41021875,1.09915625,-0.13603125,-0.2013125,1.391375,0.017770371837747767,0.019623160933936953,True
13157,189,0,190,3648.0,40540.0,28413.0,-0.010614,0.00042699999999999997,0.002623,0.2625,-0.7000000000000001,-3.6050000000000004,1.1279375,0.29381250000000003,0.2744375,1.41453125,1.09815625,-0.135375,-0.20071875,1.39778125,0.017782508040583584,0.01963397264802311,True
13158,190,0,191,3648.0,40538.0,28412.0,-0.006954,0.000549,0.001403,0.1925,-1.3125000000000002,-3.5875000000000004,1.12109375,0.29021875,0.27468750000000003,1.4114375000000001,1.09128125,-0.13809375000000002,-0.201125,1.3918125000000001,0.017744255384707006,0.019660759572127328,True
13159,191,0,192,3649.0,40537.0,28411.0,0.000244,-0.000305,-0.0013419999999999999,0.4025,-2.0475000000000003,-3.6400000000000006,1.12803125,0.29231250000000003,0.27571875,1.40865625,1.09678125,-0.13565625,-0.200375,1.39625,0.01773180499287232,0.019672990604484433,True
13160,192,0,193,3649.0,40537.0,28412.0,0.006222,0.0013419999999999999,0.00042699999999999997,0.56,-2.5725000000000002,-3.6575,1.1206562500000001,0.28996875,0.27615625,1.41446875,1.092125,-0.13671875,-0.20228125,1.3890625,0.01767794141446836,0.0197682811408532,True
13161,193,0,194,3649.0,40539.0,28413.0,0.010431,0.000366,-0.000976,0.525,-2.5900000000000003,-3.6400000000000006,1.11996875,0.29140625000000003,0.27309375,1.41015625,1.096,-0.1361875,-0.20209375000000002,1.39103125,0.01771587787010687,0.01963414838850461,True
13162,194,0,195,3650.0,40543.0,28413.0,0.005856,-0.000305,-0.001037,0.47250000000000003,-2.205,-3.7800000000000002,1.1268125,0.2919375,0.27378125000000003,1.41071875,1.09271875,-0.13809375000000002,-0.2005625,1.39628125,0.0178154602618527,0.019600525814224362,True
13163,195,0,196,3650.0,40544.0,28415.0,0.001769,-0.00061,-0.001098,0.28,-1.5575,-3.6925000000000003,1.1226875,0.297,0.2788125,1.41496875,1.0910625,-0.1384375,-0.20025,1.3934375,0.01803917507088021,0.019795766572659374,True
13164,196,0,197,3652.0,40547.0,28416.0,-0.003904,-0.001769,0.000915,0.14,-0.8225000000000001,-3.6400000000000006,1.1066875,0.29040625000000003,0.2760625,1.41009375,1.09490625,-0.13446875,-0.20071875,1.39159375,0.017604489429666855,0.01970111941406699,True
13165,197,0,198,3651.0,40545.0,28416.0,-0.007808,-0.0015249999999999999,0.000793,0.17500000000000002,-0.6300000000000001,-3.6750000000000003,1.124125,0.29331250000000003,0.27246875,1.4161875,1.09840625,-0.13615625,-0.2016875,1.3995312500000001,0.017793585090832353,0.0195918673026416,True
13166,198,0,199,3653.0,40543.0,28416.0,-0.006527,0.0008539999999999999,0.0013419999999999999,0.21000000000000002,-0.9800000000000001,-3.7450000000000006,1.12,0.289375,0.2731875,1.4085,1.0915,-0.13690625,-0.2065625,1.3863750000000001,0.01766097301720265,0.01981900569318754,True
13167,199,0,200,3652.0,40541.0,28414.0,-0.003355,0.00042699999999999997,0.002074,0.3325,-1.435,-3.7100000000000004,1.1264375,0.29434375,0.275375,1.4135312500000001,1.108625,-0.133625,-0.19096875,1.405875,0.017733297422165135,0.019277597140461768,True
13168,200,0,201,3653.0,40539.0,28415.0,0.001952,0.001403,0.000549,0.3325,-1.8550000000000002,-3.7275000000000005,1.12296875,0.2931875,0.27290625,1.4131562500000001,1.0855625,-0.13443750000000002,-0.2075625,1.3995625,0.01771845728743419,0.019847878116600957,True
13169,201,0,202,3652.0,40540.0,28415.0,0.0068319999999999995,0.001037,-0.003172,0.49000000000000005,-2.205,-3.7100000000000004,1.11975,0.29109375,0.274125,1.41015625,1.08465625,-0.14046875,-0.203,1.38621875,0.0178771383633551,0.019713465272900056,True
13170,202,0,203,3653.0,40545.0,28418.0,0.009699,0.000366,-0.000915,0.43750000000000006,-2.205,-3.7625,1.12584375,0.292875,0.27553125,1.41653125,1.108,-0.14003125,-0.19940625,1.4077187500000001,0.017933127157820063,0.019625998055220882,True
13171,203,0,204,3654.0,40547.0,28417.0,0.0,-0.000549,0.000122,0.385,-1.4175000000000002,-3.6925000000000003,1.122,0.29290625,0.2764375,1.41603125,1.0880625,-0.133875,-0.2016875,1.40246875,0.01768390902828493,0.019755853801516943,True
13172,204,0,205,3653.0,40546.0,28418.0,-0.0053679999999999995,-0.000366,-0.000488,0.22750000000000004,-1.0850000000000002,-3.7625,1.1220937500000001,0.29340625,0.27225,1.41559375,1.09725,-0.13359375,-0.2046875,1.4016875,0.017693179243145254,0.01970434445807243,True
13173,205,0,206,3653.0,40544.0,28418.0,-0.006893,-0.000366,0.0006709999999999999,0.07,-1.1025,-3.8150000000000004,1.121,0.29153125,0.27259375,1.4105625,1.0854375,-0.136125,-0.20715625000000001,1.38853125,0.017718513224471617,0.019818519575177277,True
13174,206,0,207,3653.0,40545.0,28417.0,-0.005673,-0.0013419999999999999,0.000976,0.22750000000000004,-1.155,-3.7100000000000004,1.1204375,0.28909375,0.272875,1.4104375,1.0759375,-0.14203125,-0.20134375000000002,1.3864687500000001,0.017857859412720296,0.01959472808198925,True
13175,207,0,208,3656.0,40544.0,28419.0,-0.002013,-0.001647,0.000183,0.3325,-1.225,-3.7100000000000004,1.10625,0.2909375,0.27518750000000003,1.41040625,1.09,-0.1389375,-0.19678125,1.3799062500000001,0.01780836459765472,0.019505435252881002,True
13176,208,0,209,3655.0,40546.0,28420.0,0.000732,0.0013419999999999999,-0.000793,0.31500000000000006,-1.9425000000000001,-3.7975000000000003,1.12234375,0.29281250000000003,0.273125,1.41034375,1.1005625,-0.13346875,-0.20115625,1.39365625,0.01766348859402982,0.01959746241463153,True
13177,209,0,210,3655.0,40548.0,28420.0,0.003721,0.0013419999999999999,-0.000122,0.35000000000000003,-2.0300000000000002,-3.7450000000000006,1.12115625,0.2890625,0.27621875,1.414875,1.0854375,-0.13721875,-0.19753125,1.3915,0.01766074436392967,0.019578443565394715,True
13178,210,0,211,3656.0,40549.0,28422.0,0.005429,0.00122,-0.0011589999999999999,0.36750000000000005,-1.9775000000000003,-3.7275000000000005,1.11228125,0.2921875,0.27475,1.4145,1.09803125,-0.136125,-0.20053125,1.393875,0.01774570275883142,0.019639289943273453,True
13179,211,0,212,3657.0,40550.0,28423.0,0.003721,-0.000366,-0.000976,0.29750000000000004,-1.7850000000000001,-3.8325000000000005,1.10625,0.29190625000000003,0.27418750000000003,1.41096875,1.09221875,-0.12796875,-0.198875,1.39715625,0.017402003639448514,0.01954894597372812,True
13180,212,0,213,3657.0,40552.0,28422.0,-0.0013419999999999999,0.0006709999999999999,-0.00061,0.22750000000000004,-1.5750000000000002,-3.8500000000000005,1.106625,0.29153125,0.27440625,1.4100625,1.092125,-0.13625,-0.2025625,1.398125,0.01772360039359884,0.019707365697330607,True
13181,213,0,214,3656.0,40551.0,28422.0,-0.002379,-0.000793,0.0011589999999999999,0.035,-0.9975,-3.7100000000000004,1.120875,0.2895625,0.27621875,1.41021875,1.0919375,-0.137,-0.20265625,1.39153125,0.017672556655756722,0.019786051376075718,True
13182,214,0,215,3657.0,40553.0,28422.0,-0.003843,-0.001647,0.000244,0.052500000000000005,-0.9275000000000001,-3.8500000000000005,1.1185625000000001,0.29328125,0.27725,1.41584375,1.09425,-0.13771875,-0.20059375000000002,1.39884375,0.01785587132172546,0.019745125055041265,True
13183,215,0,216,3656.0,40552.0,28421.0,-0.004758,-0.000183,0.001647,0.12250000000000001,-1.0325000000000002,-3.7450000000000006,1.1205,0.2966875,0.27484375,1.41075,1.0958125,-0.13659375,-0.202125,1.4009375,0.017951217743804468,0.019707721945903513,True
13184,216,0,217,3655.0,40554.0,28421.0,-0.002806,-0.000244,0.000122,0.07,-1.05,-3.7275000000000005,1.1198125,0.28965625,0.27546875,1.4093125,1.091625,-0.13778125,-0.2036875,1.38346875,0.01770823488592184,0.019796828479131535,True
13185,217,0,218,3653.0,40551.0,28420.0,-0.0018909999999999999,-0.001037,-0.000976,0.07,-1.3475000000000001,-3.8675,1.1264687500000001,0.29296875,0.2730625,1.4103125,1.09790625,-0.13559375,-0.19775,1.3999375,0.017756451506398097,0.01945687099007139,True
13186,218,0,219,3654.0,40551.0,28420.0,-0.000488,0.000183,0.000793,0.2625,-2.1350000000000002,-3.7975000000000003,1.108625,0.2895625,0.2815625,1.41096875,1.09065625,-0.13578125,-0.20221875,1.3917187500000001,0.017622953472865105,0.019989128062897127,True
13187,219,0,220,3653.0,40552.0,28417.0,0.004209,0.00061,0.000244,0.385,-2.4675000000000002,-3.7800000000000002,1.1144375,0.2924375,0.27265625,1.40903125,1.098625,-0.1365,-0.1973125,1.4000000000000001,0.017771321442628385,0.019422353205547103,True
13188,220,0,221,3653.0,40550.0,28416.0,0.008479,0.000915,-0.002623,0.47250000000000003,-2.6250000000000004,-3.7625,1.11896875,0.28975,0.27721875,1.42128125,1.09159375,-0.1378125,-0.19993750000000002,1.39084375,0.017713390556828627,0.019717251335876387,True
13189,221,0,222,3651.0,40552.0,28419.0,0.008539999999999999,0.0006709999999999999,-0.0017079999999999999,0.5075000000000001,-2.5900000000000003,-3.7625,1.11790625,0.2919375,0.274125,1.4085625,1.0870312500000001,-0.1358125,-0.20296875,1.3985625,0.017722626905557873,0.019712199562295432,True
13190,222,0,223,3652.0,40552.0,28418.0,-0.001403,-0.000183,-0.000122,0.42000000000000004,-2.0300000000000002,-3.7800000000000002,1.1182812500000001,0.28740625000000003,0.27703125,1.4075625,1.09134375,-0.1361875,-0.201375,1.39128125,0.01755015161362995,0.01976773013929994,True
13191,223,0,224,3652.0,40549.0,28414.0,-0.0042699999999999995,-0.00183,0.0008539999999999999,0.28,-1.7325000000000002,-3.7275000000000005,1.1323750000000001,0.29375,0.27818750000000003,1.41290625,1.0919375,-0.13890625,-0.1995625,1.3916875,0.017923606211445474,0.019742092444853084,True
13192,224,0,225,3650.0,40548.0,28416.0,-0.0035989999999999998,-0.000549,0.0,0.4025,-1.5050000000000001,-3.7275000000000005,1.13165625,0.29371875000000003,0.2745625,1.4209375,1.09796875,-0.13875,-0.2003125,1.39165625,0.01791595463725338,0.01962268049224571,True
13193,225,0,226,3650.0,40551.0,28416.0,-0.003538,-0.00061,0.001464,0.3325,-1.33,-3.7275000000000005,1.1098125,0.2931875,0.27075,1.39775,1.0975,-0.1360625,-0.200375,1.39521875,0.017784591003607155,0.01946767353811666,True
13194,226,0,227,3648.0,40548.0,28414.0,-0.003355,0.000183,0.0013419999999999999,0.36750000000000005,-1.3125000000000002,-3.7800000000000002,1.109875,0.2878125,0.27734375,1.4073125,1.0925625,-0.13578125,-0.20265625,1.39253125,0.017550447015258725,0.019832533877350754,True
13195,227,0,228,3648.0,40542.0,28410.0,-0.003355,-0.0008539999999999999,0.0015249999999999999,0.35000000000000003,-1.8900000000000001,-3.7625,1.1315,0.2931875,0.2734375,1.4083125,1.0918125,-0.13396875,-0.199875,1.39540625,0.017699378598888756,0.01955846879374377,True
13196,228,0,229,3646.0,40538.0,28409.0,0.000366,-0.0013419999999999999,0.0017079999999999999,0.1925,-1.6450000000000002,-3.8325000000000005,1.12,0.29071875,0.2770625,1.4165625,1.0909375000000001,-0.13825,-0.19965625,1.3928125,0.01777132766459872,0.019699401721873632,True
13197,229,0,230,3645.0,40543.0,28412.0,0.0032329999999999998,-0.0021349999999999997,-0.000183,0.07,-1.0675000000000001,-3.8500000000000005,1.12275,0.2926875,0.27603125,1.4091875,1.09525,-0.13609375,-0.20103125,1.391875,0.017765146856044176,0.01971248642555263,True
13198,230,0,231,3646.0,40546.0,28413.0,-0.001952,0.00122,-0.00366,0.052500000000000005,-0.45500000000000007,-3.8325000000000005,1.12653125,0.2939375,0.2760625,1.41709375,1.09178125,-0.13753125,-0.20115625,1.39684375,0.017875429990380647,0.019718840912817958,True
13199,231,0,232,3646.0,40543.0,28412.0,-0.008479,0.00488,-0.0025009999999999998,0.1925,-0.6300000000000001,-3.7625,1.1203750000000001,0.2929375,0.274,1.4099062500000001,1.0935,-0.135625,-0.2020625,1.389125,0.017756428515938578,0.01967032768384926,True
13200,232,0,233,3645.0,40534.0,28407.0,0.000488,0.003904,0.005246,0.5425000000000001,-2.7825,-3.6925000000000003,1.12084375,0.2900625,0.276125,1.4170625000000001,1.0920625,-0.14025,-0.19953125,1.385875,0.017825519619722247,0.01965559766782673,True
13201,233,0,234,3645.0,40531.0,28406.0,0.013725,0.001403,0.001098,0.7000000000000001,-3.7975000000000003,-3.7450000000000006,1.121,0.29090625000000003,0.27315625,1.4110625,1.096625,-0.1304375,-0.2090625,1.387125,0.017461090376003338,0.019918935316061908,True
13202,234,0,235,3646.0,40536.0,28407.0,0.021777,0.000366,-0.002745,0.7175,-4.375,-3.7450000000000006,1.1250625,0.290625,0.27590625,1.416375,1.10571875,-0.13828125,-0.1975625,1.41309375,0.017768715409263038,0.019566795209228202,True
13203,235,0,236,3646.0,40539.0,28408.0,0.020435,-0.00244,-0.006344,0.525,-4.112500000000001,-3.7100000000000004,1.12146875,0.29059375,0.27284375,1.4103125,1.07928125,-0.1365,-0.20153125,1.38071875,0.0176949329853127,0.01960103247599261,True
13204,236,0,237,3646.0,40547.0,28411.0,0.015921,-0.004514,-0.005673,0.35000000000000003,-3.0975,-3.7800000000000002,1.12534375,0.293,0.27196875,1.4105625,1.11684375,-0.13109375,-0.20259375000000002,1.3900625,0.017574576369958364,0.019607919089250508,True
13205,237,0,238,3647.0,40551.0,28415.0,-0.010126,-0.006405,0.001586,-0.10500000000000001,0.24500000000000002,-3.8500000000000005,1.128875,0.29353125,0.2739375,1.4095312500000001,1.1071875,-0.1315625,-0.20625000000000002,1.380625,0.017615674492689814,0.01983733539891557,True
13206,238,0,239,3648.0,40549.0,28416.0,-0.023241,-0.003111,0.0037819999999999998,-0.29750000000000004,1.5225000000000002,-3.8500000000000005,1.1275625,0.2929375,0.27225,1.4132500000000001,1.1170625,-0.131875,-0.20459375,1.40540625,0.017603791665587527,0.019700547545855835,True
13207,239,0,240,3647.0,40544.0,28412.0,-0.029523999999999998,-0.0006709999999999999,0.005978,-0.22750000000000004,1.6975000000000002,-3.8500000000000005,1.12034375,0.29053125,0.27609375,1.4163125,1.0743125,-0.14253125,-0.1951875,1.4014375000000001,0.017937742132983672,0.01947830534481289,True
13208,240,0,241,3646.0,40535.0,28409.0,-0.025986,0.001586,0.003477,0.0,0.8575,-3.8150000000000004,1.12090625,0.29134375,0.27540625,1.41053125,1.07984375,-0.14303125,-0.19843750000000002,1.37490625,0.01799173415724258,0.019581584554787885,True
13209,241,0,242,3644.0,40531.0,28406.0,-0.013297999999999999,0.004697,0.001403,0.29750000000000004,-0.6125,-3.7625,1.12478125,0.29265625,0.2734375,1.41021875,1.1154375,-0.12725,-0.21040625000000002,1.38053125,0.017403817260566373,0.019984949653622606,True
13210,242,0,243,3645.0,40530.0,28405.0,0.015433,0.0057339999999999995,0.000244,0.77,-3.9200000000000004,-3.6575,1.1289375,0.29371875000000003,0.27434375,1.4179375,1.0783125,-0.1381875,-0.1975625,1.40965625,0.017893068814715272,0.019502222589568678,True
13211,243,0,244,3646.0,40531.0,28406.0,0.021716,0.003904,-0.00244,0.805,-4.8475,-3.5525,1.11959375,0.29275,0.27659375,1.41015625,1.09090625,-0.13375,-0.20246875,1.38596875,0.017672346817216553,0.01979395180501989,True
13212,244,0,245,3647.0,40534.0,28405.0,0.022265,0.001952,-0.003843,0.6825000000000001,-4.8825,-3.6050000000000004,1.123625,0.29028125,0.2755625,1.4097187500000001,1.0811250000000001,-0.14209375,-0.19784375,1.38821875,0.017909589966694582,0.01956398491084562,True
13213,245,0,246,3647.0,40536.0,28405.0,0.018788,-0.0018909999999999999,-0.003477,0.56,-4.2175,-3.6400000000000006,1.1250625,0.29271875,0.2744375,1.4099062500000001,1.08965625,-0.13946875,-0.20078125,1.39240625,0.01790377014821422,0.01963650450334119,True
13214,246,0,247,3647.0,40540.0,28408.0,0.012383,-0.0042699999999999995,-0.001952,0.29750000000000004,-2.8350000000000004,-3.6925000000000003,1.12009375,0.293375,0.2744375,1.41009375,1.09725,-0.13343750000000001,-0.20390625,1.3961875000000001,0.01768552449272923,0.01976308059778574,True
13215,247,0,248,3647.0,40545.0,28408.0,-0.011346,-0.005063,0.000244,-0.14,0.24500000000000002,-3.6925000000000003,1.12440625,0.29331250000000003,0.27440625,1.4101875,1.0916875,-0.138375,-0.200875,1.39784375,0.017883867493151465,0.01963901098617302,True
13216,248,0,249,3648.0,40543.0,28410.0,-0.019581,-0.003721,0.001037,-0.17500000000000002,0.9975,-3.7975000000000003,1.121625,0.2931875,0.27315625,1.4076250000000001,1.08621875,-0.13946875,-0.200125,1.3988125,0.017923188554014886,0.019556975428845925,True
13217,249,0,250,3647.0,40541.0,28409.0,-0.019581,-0.00061,0.00366,-0.1925,1.0150000000000001,-3.7625,1.12153125,0.29359375,0.27678125,1.41215625,1.09134375,-0.1366875,-0.20159375000000002,1.39709375,0.017826855901415632,0.019766260228213275,True
13218,250,0,251,3645.0,40538.0,28410.0,-0.014518,0.001769,0.0035989999999999998,-0.07,0.385,-3.7100000000000004,1.12034375,0.29425,0.27521875,1.4151562500000001,1.0874062500000001,-0.13971875,-0.19993750000000002,1.393,0.017977373907887804,0.019634606494334957,True
13219,251,0,252,3646.0,40537.0,28409.0,-0.0073809999999999995,0.00366,0.002196,0.21000000000000002,-0.5950000000000001,-3.7800000000000002,1.120875,0.29215625,0.27615625,1.41021875,1.09340625,-0.136875,-0.2020625,1.39115625,0.017774929438877235,0.019759421330310174,True
13220,252,0,253,3647.0,40537.0,28408.0,0.010614,0.0048189999999999995,-0.0008539999999999999,0.5775,-2.8525000000000005,-3.6575,1.12375,0.29346875,0.2730625,1.41046875,1.092375,-0.13821875,-0.20009375000000001,1.3988125,0.01788398325787813,0.01955183541386074,True
13221,253,0,254,3646.0,40539.0,28409.0,0.01647,0.0018909999999999999,-0.0013419999999999999,0.525,-3.1675000000000004,-3.5700000000000003,1.12034375,0.28959375,0.27565625,1.42903125,1.0830625,-0.13615625,-0.19421875,1.38503125,0.01763951126227897,0.01942096187751464,True
13222,254,0,255,3648.0,40545.0,28415.0,0.015799,0.000122,-0.001403,0.385,-2.9925,-3.6050000000000004,1.11759375,0.28796875,0.27671875,1.42425,1.0986562500000001,-0.12946875,-0.203125,1.3918125000000001,0.017299904292339633,0.019825693996126534,True
13223,255,0,256,3650.0,40550.0,28416.0,0.010369999999999999,-0.002989,-0.002623,0.21000000000000002,-2.1350000000000002,-3.6050000000000004,1.1255,0.297375,0.27078125000000003,1.40528125,1.09553125,-0.13771875,-0.2005,1.3993125,0.01802547102758002,0.019474029462201194,True
13224,256,0,257,3651.0,40553.0,28418.0,0.001769,-0.0034159999999999998,-0.001647,0.07,-1.1900000000000002,-3.7100000000000004,1.11340625,0.28753125,0.27918750000000003,1.4045625,1.0979375,-0.1366875,-0.19903125,1.39915625,0.017575682247201484,0.019761896460214704,True
13225,257,0,258,3651.0,40554.0,28418.0,-0.011224,-0.003843,0.001952,-0.2625,0.29750000000000004,-3.7100000000000004,1.1374375,0.295,0.26821875,1.4035625,1.0921875,-0.13903125,-0.20009375000000001,1.3949375,0.017980475086381106,0.019351681230573747,True
13226,258,0,259,3651.0,40555.0,28420.0,-0.013847,-0.00244,0.001464,-0.10500000000000001,0.43750000000000006,-3.7625,1.12565625,0.290875,0.27790625,1.4244375,1.0923125,-0.1363125,-0.19553125000000002,1.3913125,0.017698954635261704,0.019567146309300405,True
13227,259,0,260,3650.0,40554.0,28422.0,-0.011163,0.000183,0.00183,0.035,-0.052500000000000005,-3.6925000000000003,1.1144687500000001,0.288875,0.27865625,1.4044375,1.100125,-0.13543750000000002,-0.20075,1.3981875000000001,0.017580476840330737,0.019809561687137798,True
13228,260,0,261,3651.0,40554.0,28422.0,-0.005063,0.002013,0.001037,0.15750000000000003,-0.7000000000000001,-3.6575,1.13815625,0.29578125,0.27978125,1.4251562500000001,1.09225,-0.1400625,-0.19918750000000002,1.38040625,0.018054789626166048,0.01979276163714174,True
13229,261,0,262,3651.0,40554.0,28421.0,0.0018909999999999999,0.002806,-0.000305,0.28,-1.4525000000000001,-3.6400000000000006,1.11528125,0.2864375,0.27528125000000003,1.40478125,1.092125,-0.13575,-0.20059375000000002,1.39896875,0.017492205545715383,0.019663773745220613,True
13230,262,0,263,3653.0,40558.0,28423.0,0.010187,0.0032329999999999998,0.000122,0.31500000000000006,-2.3800000000000003,-3.6400000000000006,1.122,0.29103125,0.277375,1.41975,1.09240625,-0.13534375,-0.20296875,1.3919375,0.017666000717309033,0.019846480609945833,True
13231,263,0,264,3652.0,40561.0,28425.0,0.009943,0.002379,-0.00061,0.31500000000000006,-2.1525000000000003,-3.6575,1.11540625,0.29303125,0.27384375,1.404625,1.099375,-0.13590625,-0.2009375,1.3926875,0.0177717586220737,0.019618299910902214,True
13232,264,0,265,3653.0,40564.0,28426.0,0.008296,-0.001403,-0.0015249999999999999,0.12250000000000001,-1.6800000000000002,-3.6925000000000003,1.1213125,0.29371875000000003,0.27625,1.4063125,1.08528125,-0.13734375000000001,-0.20025,1.39709375,0.017858738080904202,0.019689879236784745,True
13233,265,0,266,3655.0,40573.0,28432.0,0.0044529999999999995,-0.002013,-0.001403,0.0,-0.6475000000000001,-3.7450000000000006,1.1183750000000001,0.29090625000000003,0.27568750000000003,1.4166875,1.09215625,-0.13521875,-0.202125,1.38565625,0.017655733905457147,0.019742584587097208,True
13234,266,0,267,3656.0,40576.0,28435.0,-0.003172,-0.002379,-0.001037,-0.17500000000000002,0.2625,-3.6050000000000004,1.12084375,0.29281250000000003,0.27321875,1.410375,1.101625,-0.13625,-0.20359375000000002,1.392375,0.01777668444766689,0.01970007036661653,True
13235,267,0,268,3657.0,40577.0,28438.0,-0.01586,-0.002989,0.002379,-0.15750000000000003,0.9100000000000001,-3.7100000000000004,1.1263125,0.292875,0.275375,1.41375,1.0924375,-0.13715625,-0.19975,1.3929375,0.017816152223814684,0.019633467287885203,True
13236,268,0,269,3655.0,40576.0,28439.0,-0.011529,-0.0011589999999999999,0.001647,-0.10500000000000001,0.5775,-3.7275000000000005,1.1200625,0.29146875,0.27625,1.4059375,1.09396875,-0.1286875,-0.2018125,1.39134375,0.017413141514638953,0.01975316931324875,True
13237,269,0,270,3659.0,40578.0,28440.0,-0.0046359999999999995,0.00061,0.000244,0.052500000000000005,-0.08750000000000001,-3.6575,1.12696875,0.29325,0.27471875,1.4181875,1.09165625,-0.13865625,-0.2,1.3948125,0.017892721348148784,0.019616477272727275,True
13238,270,0,271,3659.0,40581.0,28445.0,0.001098,0.000183,0.000976,0.21000000000000002,-1.0150000000000001,-3.6925000000000003,1.1211875,0.2925625,0.274125,1.40871875,1.0991875,-0.13440625,-0.2004375,1.3975,0.017691288759175503,0.019609666147564483,True
13239,271,0,272,3659.0,40583.0,28446.0,0.006954,0.001281,0.00061,0.29750000000000004,-1.8200000000000003,-3.7275000000000005,1.12140625,0.290125,0.276,1.3978125000000001,1.09175,-0.137375,-0.20396875,1.3911875,0.01771112227406667,0.01983016731501936,True
13240,272,0,273,3661.0,40586.0,28450.0,0.008905999999999999,0.002379,-0.0025009999999999998,0.35000000000000003,-2.24,-3.5525,1.1288125,0.29384375,0.27521875,1.41690625,1.0912187500000001,-0.1388125,-0.2,1.385625,0.01792367582290968,0.01963713842975207,True
13241,273,0,274,3662.0,40592.0,28452.0,0.008113,0.0006709999999999999,-0.001098,0.31500000000000006,-1.9075000000000002,-3.535,1.12071875,0.292875,0.2740625,1.4072500000000001,1.100375,-0.13465625,-0.20090625,1.3995312500000001,0.017714412236552988,0.019626072887249834,True
13242,274,0,275,3663.0,40595.0,28454.0,0.005612,-0.001464,0.000976,0.24500000000000002,-1.2950000000000002,-3.5525,1.1201875000000001,0.290375,0.27640625,1.3986875,1.082875,-0.136125,-0.20053125,1.3920937500000001,0.017670607854409107,0.019707728523521564,True
13243,275,0,276,3663.0,40595.0,28455.0,-0.000732,-0.001403,0.00042699999999999997,0.15750000000000003,-0.6300000000000001,-3.6575,1.1285,0.2929375,0.27525,1.4177187500000001,1.0928437500000001,-0.1386875,-0.2005625,1.392125,0.01788104676362375,0.01966121655230121,True
13244,276,0,277,3665.0,40598.0,28459.0,-0.006405,-0.000732,-0.000244,0.0,0.0,-3.6400000000000006,1.1214375,0.2925625,0.273125,1.41528125,1.0952187500000001,-0.13575,-0.2005,1.3980000000000001,0.017745978475912284,0.01957087663478027,True
13245,277,0,278,3663.0,40598.0,28459.0,-0.009394,0.0006709999999999999,0.0008539999999999999,0.0,0.15750000000000003,-3.6575,1.12121875,0.2905,0.2764375,1.41028125,1.098625,-0.13625,-0.20278125,1.388625,0.017680874203739188,0.01980015210028806,True
13246,278,0,279,3665.0,40600.0,28459.0,-0.006588,0.000488,0.001098,0.07,-0.15750000000000003,-3.535,1.1281875000000001,0.29303125,0.27453125,1.415375,1.09178125,-0.13903125,-0.2,1.394125,0.017898916303859546,0.019608729338842976,True
13247,279,0,280,3665.0,40604.0,28464.0,6.1e-05,-0.000244,-0.000549,0.15750000000000003,-0.6300000000000001,-3.5875000000000004,1.11221875,0.29028125,0.27559375,1.40978125,1.09940625,-0.13653125,-0.203875,1.3905625,0.01768325761391252,0.019809586274924986,True
13248,280,0,281,3667.0,40610.0,28469.0,0.006039,-0.000732,-0.001952,0.17500000000000002,-0.77,-3.5525,1.12515625,0.293125,0.2763125,1.414625,1.09203125,-0.13890625,-0.2000625,1.3914375,0.01789771440037802,0.019684866516357136,True
13249,281,0,282,3668.0,40620.0,28474.0,0.00793,-0.000305,-0.0011589999999999999,0.07,-0.7525000000000001,-3.535,1.1215,0.29278125,0.27609375,1.41434375,1.09609375,-0.13725,-0.20184375000000002,1.3911875,0.017816083025199637,0.019747978911730642,True
13250,282,0,283,3671.0,40627.0,28480.0,0.0023179999999999997,0.0006709999999999999,0.00122,-0.035,0.07,-3.535,1.11528125,0.29103125,0.27534375,1.4137187500000001,1.09834375,-0.13575,-0.20109375000000002,1.39490625,0.01768253524336306,0.019686610238431893,True
13251,283,0,284,3669.0,40631.0,28483.0,-0.003904,-0.000183,0.001586,-0.07,0.42000000000000004,-3.6575,1.11309375,0.29125,0.27496875,1.41146875,1.0914375,-0.1381875,-0.20025,1.3860625,0.01779079311568029,0.01963693556884743,True
13252,284,0,285,3669.0,40632.0,28483.0,-0.009333,0.000488,0.001037,-0.035,0.7175,-3.7100000000000004,1.12134375,0.29065625,0.27525,1.4072500000000001,1.0926875,-0.1374375,-0.2000625,1.392125,0.017735675131214736,0.019640961671070066,True
13253,285,0,286,3670.0,40636.0,28487.0,-0.008052,-0.000183,0.0006709999999999999,-0.1925,0.7000000000000001,-3.7100000000000004,1.1211875,0.29325,0.27584375,1.4097187500000001,1.104125,-0.13575,-0.2010625,1.40284375,0.017774463192567043,0.019706004643391173,True
13254,286,0,287,3671.0,40639.0,28489.0,-0.002074,0.00061,0.0017079999999999999,-0.052500000000000005,0.24500000000000002,-3.7100000000000004,1.1215625,0.29131250000000003,0.2735625,1.4112500000000001,1.08125,-0.13671875,-0.2025625,1.394375,0.017733613853374335,0.01967250368633487,True
13255,287,0,288,3670.0,40641.0,28491.0,-0.000915,0.00061,0.0008539999999999999,0.0,-0.28,-3.7100000000000004,1.1253125,0.29359375,0.27596875,1.42309375,1.08884375,-0.13971875,-0.199875,1.390625,0.017950188421312904,0.019663066441458894,True
13256,288,0,289,3671.0,40643.0,28488.0,6.1e-05,0.000122,0.000183,0.07,-0.77,-3.6050000000000004,1.1209375,0.3018125,0.27615625,1.41284375,1.0947500000000001,-0.13568750000000002,-0.2000625,1.39015625,0.018126684810614985,0.01967840992146198,True
13257,289,0,290,3669.0,40647.0,28490.0,0.001464,0.000122,-0.0006709999999999999,0.17500000000000002,-1.1025,-3.7100000000000004,1.1254375,0.2966875,0.26690625,1.40221875,1.09471875,-0.13543750000000002,-0.2,1.39878125,0.017904170993378512,0.019293646694214878,True
13258,290,0,291,3668.0,40649.0,28492.0,0.00183,-0.001037,-0.0008539999999999999,0.28,-1.5050000000000001,-3.6925000000000003,1.148125,0.30728125,0.2769375,1.4251875,1.09034375,-0.14096875,-0.19753125,1.3896875,0.01856802039064816,0.019608147008798676,True
13259,291,0,292,3667.0,40649.0,28493.0,0.002257,-0.0017079999999999999,-0.001281,0.28,-1.8025000000000002,-3.7625,1.10771875,0.28453125,0.28059375000000003,1.410625,1.105375,-0.13215625,-0.20653125,1.38459375,0.017266898808514054,0.020123701118887078,True
13260,292,0,293,3667.0,40652.0,28492.0,0.0006709999999999999,0.00061,-0.002196,0.36750000000000005,-1.8200000000000003,-3.6400000000000006,1.1420000000000001,0.295875,0.27003125,1.40840625,1.08896875,-0.1361875,-0.2,1.3936250000000001,0.017901025172264676,0.019422778925619836,True
13261,293,0,294,3666.0,40651.0,28492.0,0.000976,0.000549,-0.00061,0.35000000000000003,-1.7325000000000002,-3.7450000000000006,1.1108437500000001,0.289375,0.27903125,1.43190625,1.10040625,-0.13596875,-0.20353125,1.38890625,0.017622816569150556,0.019937689877381013,True
13262,294,0,295,3667.0,40651.0,28492.0,0.000488,0.000305,-0.000122,0.31500000000000006,-1.6800000000000002,-3.7450000000000006,1.10871875,0.289375,0.28125,1.4176875,1.103375,-0.13475,-0.203,1.38859375,0.017573208755010925,0.02000785026649589,True
13263,295,0,296,3665.0,40650.0,28489.0,0.000183,0.000183,0.00183,0.42000000000000004,-1.8025000000000002,-3.6925000000000003,1.10771875,0.28928125,0.28178125,1.41046875,1.10096875,-0.13468750000000002,-0.20078125,1.3906875,0.01756678017894369,0.01993995545081835,True
13264,296,0,297,3666.0,40649.0,28488.0,-0.000549,0.000488,-0.000122,0.35000000000000003,-1.7675,-3.7275000000000005,1.13328125,0.2964375,0.2721875,1.4233437500000001,1.0890312500000001,-0.1395,-0.20003125,1.38984375,0.018059094016031816,0.019513146289842086,True
13265,297,0,298,3665.0,40646.0,28486.0,0.00042699999999999997,0.001037,-0.0006709999999999999,0.43750000000000006,-1.9075000000000002,-3.7100000000000004,1.10109375,0.288375,0.27146875,1.4000937500000001,1.09809375,-0.13415625,-0.20078125,1.398875,0.01750760397931873,0.01951383284372276,True
13266,298,0,299,3664.0,40644.0,28490.0,0.00122,0.000366,0.000366,0.35000000000000003,-1.7500000000000002,-3.5875000000000004,1.11709375,0.2828125,0.2798125,1.41278125,1.09165625,-0.1365625,-0.20140625,1.38909375,0.017375092248533737,0.019883916869500095,True
13267,299,0,300,3663.0,40645.0,28490.0,0.001037,0.000549,0.000732,0.28,-1.6450000000000002,-3.6575,1.1200625,0.295625,0.2745,1.4105,1.09715625,-0.13925,-0.20065625,1.3986875,0.018015265594415734,0.01963402335422206,True
13268,300,0,301,3664.0,40644.0,28487.0,0.001281,0.0008539999999999999,-0.001281,0.28,-1.5575,-3.7450000000000006,1.1129375,0.29096875,0.27640625,1.40996875,1.09803125,-0.1358125,-0.2015625,1.3975625,0.017682489454208347,0.019749499644909293,True
13269,301,0,302,3663.0,40646.0,28488.0,-0.001647,-0.0026839999999999998,0.000915,0.17500000000000002,-1.1900000000000002,-3.7625,1.11965625,0.2905625,0.2758125,1.40946875,1.09240625,-0.1376875,-0.1983125,1.39203125,0.01774196471803689,0.019593308417684085,True
13270,302,0,303,3664.0,40647.0,28488.0,-0.002013,-0.001769,0.0008539999999999999,0.31500000000000006,-1.2075,-3.6750000000000003,1.12434375,0.29321875000000003,0.27259375,1.4095625,1.09915625,-0.1355625,-0.20190625,1.39509375,0.01776553788626223,0.019605893647323753,True
13271,303,0,304,3663.0,40644.0,28490.0,-0.003172,-0.000488,0.001403,0.35000000000000003,-1.1900000000000002,-3.7800000000000002,1.120125,0.289625,0.27553125,1.41671875,1.09196875,-0.13640625,-0.200625,1.39671875,0.017650981077599322,0.019675369954288372,True
13272,304,0,305,3661.0,40643.0,28487.0,-0.001464,0.001464,0.0018909999999999999,0.29750000000000004,-1.33,-3.8500000000000005,1.12090625,0.28903125,0.27621875,1.4105625,1.092875,-0.13546875,-0.20390625,1.3916875,0.017588222727184445,0.019836674090571643,True
13273,305,0,306,3662.0,40641.0,28487.0,0.001281,0.0008539999999999999,-0.001647,0.43750000000000006,-1.6975000000000002,-3.7275000000000005,1.1215625,0.2926875,0.28234375,1.4157187500000001,1.09009375,-0.13625,-0.200625,1.39303125,0.01777150551556269,0.019956870948580875,True
13274,306,0,307,3661.0,40644.0,28487.0,0.0035989999999999998,0.0013419999999999999,-0.001769,0.28,-1.7500000000000002,-3.7275000000000005,1.1203125,0.29290625,0.27296875,1.413,1.085,-0.132625,-0.20146875,1.3895625,0.017633027903097984,0.019603665583312994,True
13275,307,0,308,3664.0,40646.0,28489.0,0.002074,0.00042699999999999997,0.001281,0.29750000000000004,-1.7850000000000001,-3.6925000000000003,1.1159375,0.29046875,0.2755625,1.4181875,1.09165625,-0.138125,-0.19534375,1.391375,0.017755884104502732,0.019462680706902543,True
13276,308,0,309,3662.0,40645.0,28487.0,-6.1e-05,-0.001586,0.000915,0.35000000000000003,-1.5750000000000002,-3.6400000000000006,1.115,0.29375,0.2731875,1.41015625,1.1010625,-0.1360625,-0.20140625,1.3920625,0.01780789637912149,0.019610172446074287,True
13277,309,0,310,3662.0,40644.0,28486.0,-0.001464,6.1e-05,-0.00061,0.4025,-1.3475000000000001,-3.7275000000000005,1.128125,0.29284375,0.27225,1.40565625,1.09215625,-0.13578125,-0.202,1.3957187500000001,0.01775890308087707,0.019595487976200313,True
13278,310,0,311,3664.0,40644.0,28486.0,-0.00366,-0.000122,0.000366,0.3325,-1.225,-3.7450000000000006,1.12571875,0.293625,0.27525,1.4166875,1.09165625,-0.139125,-0.2003125,1.39496875,0.01792732752326358,0.019651089216306608,True
13279,311,0,312,3663.0,40639.0,28485.0,-0.0040869999999999995,-0.000732,0.0015249999999999999,0.42000000000000004,-1.5575,-3.6225000000000005,1.1168125,0.28996875,0.2760625,1.41025,1.0915625,-0.1365,-0.20078125,1.39175,0.017669038593002298,0.019703651095974436,True
13280,312,0,313,3663.0,40639.0,28482.0,-0.003477,0.000915,-0.000976,0.47250000000000003,-1.8725000000000003,-3.6575,1.12334375,0.290625,0.27575,1.41034375,1.0916875,-0.13640625,-0.2029375,1.39253125,0.017692412266221282,0.019778074458937058,True
13281,313,0,314,3662.0,40636.0,28480.0,0.001037,0.000793,-0.003477,0.47250000000000003,-2.24,-3.6050000000000004,1.12375,0.2935,0.27325,1.4099062500000001,1.0996875,-0.12775,-0.2015625,1.3946875,0.017459149734227186,0.019619084511588867,True
13282,314,0,315,3663.0,40637.0,28481.0,0.003538,-0.000366,-0.001098,0.525,-2.5200000000000005,-3.7450000000000006,1.125875,0.2921875,0.27528125000000003,1.41575,1.0923125,-0.1390625,-0.2005625,1.39134375,0.01786523399572788,0.01966250784460072,True
13283,315,0,316,3661.0,40635.0,28481.0,0.00549,-0.002196,0.001586,0.49000000000000005,-2.5025000000000004,-3.6750000000000003,1.12390625,0.29321875000000003,0.2731875,1.41053125,1.09653125,-0.13534375,-0.19725,1.39640625,0.017756635432217536,0.019441775408362522,True
13284,316,0,317,3662.0,40634.0,28481.0,0.0028669999999999998,0.000976,-0.0017079999999999999,0.43750000000000006,-2.2925000000000004,-3.5875000000000004,1.12178125,0.29034375,0.27518750000000003,1.41609375,1.0914062500000001,-0.13696875,-0.19975,1.39178125,0.017703652203634724,0.019625719273959442,True
13285,317,0,318,3661.0,40631.0,28478.0,0.002074,0.0013419999999999999,-0.001281,0.45500000000000007,-2.0825,-3.7100000000000004,1.12025,0.29209375,0.2731875,1.40859375,1.097,-0.136,-0.20209375000000002,1.3938125000000001,0.01773673143851508,0.01963802202030558,True
13286,318,0,319,3662.0,40632.0,28477.0,0.001403,-0.000305,0.000122,0.36750000000000005,-1.8725000000000003,-3.7800000000000002,1.12825,0.29353125,0.2748125,1.4169375,1.0925625,-0.13703125,-0.19993750000000002,1.39646875,0.01783825423849505,0.01961781926089685,True
13287,319,0,320,3661.0,40634.0,28479.0,0.0006709999999999999,0.0011589999999999999,0.000305,0.36750000000000005,-1.54,-3.7975000000000003,1.1135625,0.29053125,0.27603125,1.4109375,1.09228125,-0.13603125,-0.20021875,1.392125,0.017673265980710895,0.019679574177402837,True
13288,320,0,321,3661.0,40628.0,28477.0,-0.001769,0.001037,0.0021349999999999997,0.43750000000000006,-1.435,-3.7450000000000006,1.12109375,0.291,0.2753125,1.4096250000000001,1.10496875,-0.13621875,-0.20540625,1.3919375,0.017700318116316373,0.019859974463349486,True
13289,321,0,322,3659.0,40629.0,28476.0,-0.002257,0.0006709999999999999,6.1e-05,0.22750000000000004,-1.2775,-3.7800000000000002,1.12825,0.29359375,0.2723125,1.410875,1.1065625000000001,-0.13493750000000002,-0.20359375000000002,1.37321875,0.017755639516365024,0.01966262757984029,True
13290,322,0,323,3660.0,40628.0,28476.0,-0.0023179999999999997,0.000244,-0.000122,0.15750000000000003,-1.2075,-3.6750000000000003,1.1261875000000001,0.29225,0.2759375,1.4145625,1.09559375,-0.14100000000000001,-0.19821875,1.40575,0.01794664678348039,0.01959467574446983,True
13291,323,0,324,3662.0,40630.0,28477.0,-0.001464,-0.0006709999999999999,0.000732,0.15750000000000003,-1.1725,-3.7450000000000006,1.12034375,0.292875,0.27534375,1.41040625,1.08996875,-0.135125,-0.20203125,1.38584375,0.017733490089651496,0.019724584067711257,True
13292,324,0,325,3661.0,40632.0,28477.0,-0.001464,-0.000732,-0.000244,0.24500000000000002,-1.1025,-3.6925000000000003,1.1249375,0.29346875,0.27246875,1.4108125,1.10871875,-0.13368750000000001,-0.20234375000000002,1.386875,0.0176995848645177,0.019618451208883437,True
13293,325,0,326,3662.0,40631.0,28477.0,-0.0011589999999999999,-0.002379,0.000244,0.17500000000000002,-1.2075,-3.7625,1.126625,0.29303125,0.27278125000000003,1.410125,1.09634375,-0.1335625,-0.20215625,1.38759375,0.017676368749951443,0.01962376802686744,True
13294,326,0,327,3661.0,40629.0,28477.0,-0.001037,-0.001098,-0.0015249999999999999,0.14,-1.7325000000000002,-3.6575,1.1275,0.29971875000000003,0.2754375,1.40775,1.0981875,-0.13778125,-0.20225,1.38925,0.018125112472796148,0.019737317811360518,True
13295,327,0,328,3662.0,40632.0,28479.0,0.0013419999999999999,0.000183,0.001098,0.21000000000000002,-1.8375000000000001,-3.6400000000000006,1.11565625,0.29278125,0.272625,1.4038125000000001,1.1066875,-0.13390625,-0.20628125,1.38525,0.017680001553830517,0.019784379312704218,True
13296,328,0,329,3661.0,40631.0,28478.0,0.0035989999999999998,0.0,0.000793,0.29750000000000004,-1.8375000000000001,-3.6400000000000006,1.12353125,0.29046875,0.276,1.417125,1.10721875,-0.1365625,-0.20121875,1.38996875,0.017692297732951823,0.019718789988624027,True
13297,329,0,330,3663.0,40633.0,28479.0,0.004941,0.0017079999999999999,-0.000244,0.42000000000000004,-1.9775000000000003,-3.7100000000000004,1.12084375,0.29096875,0.27525,1.41803125,1.0896875,-0.13984375000000002,-0.19634375,1.4059062500000001,0.017846532250234637,0.019490289726107897,True
13298,330,0,331,3662.0,40632.0,28480.0,0.002196,0.00244,-0.001952,0.3325,-1.8550000000000002,-3.6925000000000003,1.12128125,0.29,0.2808125,1.41178125,1.0821875,-0.1451875,-0.1980625,1.39853125,0.018023778030301068,0.019789807551740975,True
13299,331,0,332,3662.0,40633.0,28479.0,-0.000732,0.000366,0.000366,0.17500000000000002,-1.5225000000000002,-3.6050000000000004,1.1066875,0.29334375,0.27178125000000003,1.41034375,1.0856875,-0.13859375000000002,-0.19790625,1.39446875,0.017894062283557843,0.01941025372804724,True
13300,332,0,333,3663.0,40634.0,28482.0,0.002013,-0.0021349999999999997,0.00042699999999999997,0.08750000000000001,-1.1375000000000002,-3.6225000000000005,1.12771875,0.292875,0.27240625,1.41021875,1.0891250000000001,-0.13753125,-0.1985625,1.3975312500000001,0.017831411404179955,0.019462674694003004,True
13301,333,0,334,3663.0,40637.0,28484.0,0.001647,-0.000976,-0.00042699999999999997,0.14,-0.6300000000000001,-3.7450000000000006,1.1282812500000001,0.29281250000000003,0.27434375,1.4101875,1.09240625,-0.13571875,-0.20425000000000001,1.39246875,0.017755064783392872,0.019773128686077862,True
13302,334,0,335,3665.0,40637.0,28485.0,-0.002562,-0.00042699999999999997,0.000305,0.17500000000000002,-0.36750000000000005,-3.6225000000000005,1.121625,0.2926875,0.27240625,1.4096875,1.09025,-0.13553125,-0.202125,1.38040625,0.01774225500008416,0.01960700764912172,True
13303,335,0,336,3663.0,40638.0,28486.0,-0.005978,0.000488,0.002074,0.12250000000000001,-0.29750000000000004,-3.5525,1.12078125,0.28971875,0.27518750000000003,1.40890625,1.09975,-0.136,-0.202375,1.3853125,0.01763833070931389,0.019732051090027323,True
13304,336,0,337,3665.0,40636.0,28485.0,-0.005795,-0.000183,0.0008539999999999999,0.17500000000000002,-1.1025,-3.6575,1.12728125,0.2934375,0.27534375,1.41475,1.09975,-0.13493750000000002,-0.19990625,1.39853125,0.017749165499185572,0.019638505830988497,True
13305,337,0,338,3666.0,40635.0,28485.0,-0.000305,-0.000732,-0.00122,0.3325,-1.5575,-3.6225000000000005,1.1203750000000001,0.28971875,0.2755,1.41075,1.09384375,-0.13721875,-0.2021875,1.39125,0.01768793266622734,0.019737368781231036,True
13306,338,0,339,3667.0,40638.0,28486.0,0.0073809999999999995,0.0008539999999999999,-0.000976,0.3325,-2.0125,-3.6575,1.1284687500000001,0.29375,0.27515625,1.41590625,1.08453125,-0.138375,-0.2009375,1.3985,0.01790199215978706,0.019672533347106905,True
13307,339,0,340,3667.0,40646.0,28490.0,0.013542,-0.000122,-0.001647,0.3325,-1.8025000000000002,-3.6050000000000004,1.1215625,0.28981250000000003,0.275625,1.4109375,1.092125,-0.13665625,-0.19903125,1.39234375,0.017668924211488492,0.01961467982318507,True
13308,340,0,341,3668.0,40653.0,28493.0,0.010675,0.000366,-0.001586,0.29750000000000004,-1.2425000000000002,-3.6225000000000005,1.1280937500000001,0.2929375,0.2711875,1.40703125,1.10034375,-0.13640625,-0.2003125,1.3835625,0.017788221889909563,0.019483219483219485,True
13309,341,0,342,3670.0,40654.0,28493.0,-0.005612,0.001403,0.000122,0.07,0.14,-3.6400000000000006,1.13096875,0.29303125,0.27134375,1.4120625,1.0918125,-0.138125,-0.20025,1.39728125,0.017862043965718135,0.019487143727854053,True
13310,342,0,343,3670.0,40653.0,28497.0,-0.010675,-0.000122,0.003111,0.10500000000000001,0.6300000000000001,-3.6575,1.1196875,0.28800000000000003,0.2750625,1.412,1.09196875,-0.136125,-0.203125,1.3917187500000001,0.01757220763482125,0.019757262750161392,True
13311,343,0,344,3671.0,40654.0,28498.0,-0.00976,-0.001281,0.0017079999999999999,-0.08750000000000001,0.6125,-3.6225000000000005,1.12034375,0.29375,0.2719375,1.40809375,1.09946875,-0.13571875,-0.19721875,1.39746875,0.01779390762912333,0.01938885021651507,True
13312,344,0,345,3673.0,40656.0,28501.0,-0.0059169999999999995,-0.0008539999999999999,0.0,0.0,0.43750000000000006,-3.7625,1.1283125,0.29378125,0.27037500000000003,1.40803125,1.09259375,-0.13940625,-0.20053125,1.39278125,0.017945242542989227,0.01945850878790109,True
13313,345,0,346,3671.0,40659.0,28504.0,0.0013419999999999999,-0.000305,-0.001647,0.12250000000000001,0.12250000000000001,-3.7100000000000004,1.13025,0.29425,0.2739375,1.4080625,1.0915,-0.13765625,-0.2015,1.38225,0.017893462626471866,0.019644960023139063,True
13314,346,0,347,3673.0,40665.0,28506.0,0.004575,-0.000366,-0.000793,0.24500000000000002,-0.5425000000000001,-3.6050000000000004,1.1268125,0.29271875,0.2769375,1.42053125,1.09978125,-0.13503125,-0.20284375000000002,1.39115625,0.01772320058628472,0.019823342040127003,True
13315,347,0,348,3673.0,40671.0,28510.0,0.00671,0.000549,-0.00122,0.36750000000000005,-0.45500000000000007,-3.7275000000000005,1.10978125,0.29278125,0.2759375,1.42121875,1.09825,-0.13634375,-0.20278125,1.39153125,0.01777920485574788,0.019779493317529363,True
13316,348,0,349,3676.0,40674.0,28515.0,0.0023179999999999997,0.000793,0.000488,0.29750000000000004,-0.385,-3.7625,1.12003125,0.2944375,0.2704375,1.40809375,1.09171875,-0.13246875,-0.19993750000000002,1.39490625,0.017690119250646497,0.019437033670024972,True
13317,349,0,350,3676.0,40677.0,28514.0,-0.00183,0.000244,0.000976,0.1925,-0.17500000000000002,-3.7800000000000002,1.1319062500000001,0.29246875,0.27003125,1.4077187500000001,1.09228125,-0.13728125,-0.20065625,1.39578125,0.017804407859729435,0.019449369270719673,True
13318,350,0,351,3678.0,40676.0,28518.0,-0.003355,-0.000793,-0.0006709999999999999,0.0,-0.21000000000000002,-3.6400000000000006,1.1300625,0.29353125,0.2705,1.40709375,1.09278125,-0.13368750000000001,-0.20028125,1.394875,0.017702174605517703,0.019453544573991264,True
13319,351,0,352,3676.0,40680.0,28520.0,-0.0015249999999999999,-0.0011589999999999999,0.000122,0.17500000000000002,-0.5075000000000001,-3.6575,1.1206875,0.29440625,0.2754375,1.4118125000000001,1.093375,-0.1375,-0.19940625,1.39484375,0.017893578456758156,0.01962212399322814,True
13320,352,0,353,3679.0,40684.0,28522.0,0.001586,-0.000305,6.1e-05,0.28,-0.6825000000000001,-3.6750000000000003,1.11965625,0.29221875,0.275125,1.41071875,1.09203125,-0.13515625,-0.200625,1.3950625,0.017707571294468004,0.019658583197747992,True
13321,353,0,354,3679.0,40688.0,28524.0,0.002806,0.000976,0.0,0.24500000000000002,-0.6300000000000001,-3.7275000000000005,1.11859375,0.29381250000000003,0.27565625,1.4148125,1.08728125,-0.13684375000000001,-0.20009375000000001,1.3955,0.017842276913277035,0.01965901475071765,True
13322,354,0,355,3679.0,40693.0,28530.0,0.002379,0.0008539999999999999,-0.0008539999999999999,0.21000000000000002,-0.525,-3.7100000000000004,1.11203125,0.2929375,0.2783125,1.4134375000000001,1.0932187500000001,-0.131875,-0.19440625,1.4000625,0.017603791665587527,0.019538348869379673,True
13323,355,0,356,3680.0,40698.0,28531.0,-0.000976,-6.1e-05,-0.000488,0.14,-0.10500000000000001,-3.6750000000000003,1.121,0.29171875,0.2754375,1.41521875,1.09296875,-0.13925,-0.20046875,1.3843750000000001,0.01785344407966279,0.01966516660963437,True
13324,356,0,357,3683.0,40701.0,28535.0,-0.002806,-0.000793,0.001281,0.10500000000000001,-0.07,-3.6400000000000006,1.12140625,0.2929375,0.27315625,1.40984375,1.117125,-0.13568750000000002,-0.21028125,1.38871875,0.017758972061599657,0.019968272776674165,True
13325,357,0,358,3681.0,40701.0,28536.0,-0.004697,-0.00061,0.001464,0.07,-0.12250000000000001,-3.5875000000000004,1.12603125,0.29284375,0.27296875,1.4104375,1.1241875000000001,-0.1340625,-0.20350000000000001,1.37415625,0.017688951041707132,0.019685944181626624,True
13326,358,0,359,3680.0,40704.0,28535.0,-0.0046359999999999995,-0.0006709999999999999,-0.000366,0.12250000000000001,-0.3325,-3.6575,1.125375,0.29259375,0.27390625,1.410375,1.11128125,-0.13265625,-0.209625,1.38084375,0.01762135073713653,0.01997268648316527,True
13327,359,0,360,3680.0,40703.0,28537.0,-0.002623,0.00042699999999999997,0.0011589999999999999,0.15750000000000003,-0.6125,-3.6575,1.124875,0.29303125,0.27468750000000003,1.4153125,1.1038125,-0.13171875,-0.20175,1.40684375,0.017601315695758304,0.019686076420093592,True
13328,360,0,361,3682.0,40704.0,28538.0,0.0017079999999999999,-6.1e-05,0.0006709999999999999,0.21000000000000002,-1.6450000000000002,-3.6750000000000003,1.1205625000000001,0.290625,0.27540625,1.4190625000000001,1.07965625,-0.1471875,-0.19475,1.41071875,0.01813099351632566,0.019432159869393156,True
13329,361,0,362,3681.0,40704.0,28536.0,0.0028669999999999998,0.001647,0.000244,0.29750000000000004,-1.9425000000000001,-3.7625,1.12184375,0.29275,0.27259375,1.410875,1.10153125,-0.13253125,-0.212625,1.3920625,0.017622736943518926,0.02003990686676889,True
13330,362,0,363,3681.0,40706.0,28536.0,0.0032329999999999998,0.00042699999999999997,-0.001403,0.12250000000000001,-2.2575000000000003,-3.6925000000000003,1.12775,0.29040625000000003,0.27590625,1.41671875,1.09409375,-0.146,-0.19553125000000002,1.41559375,0.018073645738424585,0.01948448641730072,True
13331,363,0,364,3679.0,40707.0,28536.0,0.004697,0.000305,-0.001281,0.28,-2.2225,-3.7100000000000004,1.117625,0.29281250000000003,0.2738125,1.4098125000000001,1.09559375,-0.13418750000000002,-0.20721875,1.37384375,0.01769274395502231,0.019871396832814595,True
13332,364,0,365,3678.0,40710.0,28536.0,0.0035989999999999998,-0.000732,-0.0015249999999999999,0.36750000000000005,-2.0475000000000003,-3.6750000000000003,1.12778125,0.29331250000000003,0.27178125000000003,1.41084375,1.11896875,-0.1321875,-0.20271875,1.4046875,0.017632052626808076,0.019605235465540417,True
13333,365,0,366,3679.0,40708.0,28536.0,-0.001403,-0.000122,0.000732,0.29750000000000004,-1.435,-3.7800000000000002,1.127125,0.29546875,0.2755625,1.41603125,1.08975,-0.14350000000000002,-0.19578125000000002,1.4099062500000001,0.018181653447097563,0.019480410453785204,True
13334,366,0,367,3677.0,40708.0,28534.0,-0.0026839999999999998,-0.0006709999999999999,0.000915,0.21000000000000002,-1.3125000000000002,-3.7625,1.1215625,0.29225,0.27371875,1.41053125,1.0955,-0.133875,-0.19809375,1.38325,0.017656716959046154,0.019497920161582975,True
13335,367,0,368,3677.0,40704.0,28532.0,-0.004758,-0.000915,0.000915,0.24500000000000002,-1.2950000000000002,-3.7800000000000002,1.1280625,0.3008125,0.27275,1.41040625,1.09421875,-0.138375,-0.198625,1.39515625,0.018194576064047393,0.019479412569929078,True
13336,368,0,369,3674.0,40702.0,28532.0,-0.00366,-6.1e-05,-0.000183,0.3325,-1.4875,-3.7100000000000004,1.12675,0.29334375,0.2750625,1.4161875,1.092125,-0.135875,-0.199875,1.3924375,0.017783434410395316,0.01962561790091891,True
13337,369,0,370,3674.0,40701.0,28529.0,-0.000732,0.0011589999999999999,-6.1e-05,0.43750000000000006,-1.7850000000000001,-3.7275000000000005,1.12184375,0.299875,0.27590625,1.4160625,1.0935,-0.13568750000000002,-0.20309375000000002,1.391875,0.01804640949216798,0.019790858348429113,True
13338,370,0,371,3673.0,40699.0,28527.0,0.001647,-0.000244,6.1e-05,0.6300000000000001,-2.415,-3.6750000000000003,1.12196875,0.2916875,0.27371875,1.41071875,1.099375,-0.13115625,-0.20196875,1.39309375,0.017522730598538972,0.01965490927261858,True
13339,371,0,372,3673.0,40697.0,28525.0,0.0030499999999999998,-0.000305,-0.000976,0.5775,-2.555,-3.7275000000000005,1.12559375,0.29303125,0.27503125,1.403875,1.09203125,-0.13753125,-0.19993750000000002,1.3937187500000001,0.017837884725680056,0.019626858540440446,True
13340,372,0,373,3674.0,40696.0,28523.0,0.003965,0.0015249999999999999,-0.0006709999999999999,0.6125,-2.4850000000000003,-3.6925000000000003,1.1206875,0.2919375,0.276,1.40996875,1.0968125,-0.13603125,-0.2033125,1.3925625,0.017731529494933018,0.019803590934092185,True
13341,373,0,374,3672.0,40697.0,28525.0,0.003721,0.0006709999999999999,-6.1e-05,0.385,-2.205,-3.7625,1.12540625,0.293375,0.275625,1.4144375,1.0851250000000001,-0.1379375,-0.20025,1.3936875,0.01786865592803859,0.01966405305730313,True
13342,374,0,375,3673.0,40693.0,28521.0,0.000122,-0.000549,0.000366,0.29750000000000004,-2.1,-3.7975000000000003,1.12146875,0.29365625,0.27534375,1.4125625,1.09234375,-0.137375,-0.199375,1.39625,0.017857420287003038,0.01961698390970841,True
13343,375,0,376,3672.0,40689.0,28520.0,-0.004758,0.000244,-0.00061,0.45500000000000007,-1.9425000000000001,-3.8150000000000004,1.1104687500000001,0.29571875000000003,0.27778125,1.41590625,1.0924375,-0.13625,-0.2015625,1.3900625,0.017897094619089542,0.019806314158435017,True
13344,376,0,377,3671.0,40685.0,28517.0,-0.0034159999999999998,6.1e-05,0.000488,0.42000000000000004,-2.1,-3.8150000000000004,1.1215625,0.2895,0.27578125000000003,1.4245625,1.0971250000000001,-0.13596875,-0.2019375,1.39259375,0.017627995561603466,0.019738863882282152,True
13345,377,0,378,3672.0,40681.0,28514.0,-0.001647,-0.000488,0.000915,0.43750000000000006,-2.4675000000000002,-3.7625,1.10621875,0.29015625,0.27146875,1.40296875,1.1001875,-0.13565625,-0.2006875,1.399,0.017642466216347442,0.019510034580629162,True
13346,378,0,379,3669.0,40678.0,28512.0,0.0025009999999999998,0.000122,0.000183,0.525,-2.6775,-3.7275000000000005,1.1360625,0.302375,0.2713125,1.40453125,1.0928125,-0.13825,-0.2006875,1.3995312500000001,0.01825422306919516,0.01950357815248017,True
13347,379,0,380,3669.0,40681.0,28511.0,0.005124,-0.000305,-0.001037,0.4025,-2.765,-3.7800000000000002,1.13334375,0.29559375,0.26996875,1.4044375,1.086875,-0.13659375,-0.19918750000000002,1.3888125,0.017905902733271965,0.019387272816494355,True
13348,380,0,381,3671.0,40680.0,28512.0,0.004941,-6.1e-05,-0.000305,0.49000000000000005,-2.2225,-3.7275000000000005,1.11709375,0.28565625,0.277,1.4216875,1.09434375,-0.1355625,-0.2015625,1.39175,0.01745220356890377,0.019774033184840854,True
13349,381,0,382,3669.0,40680.0,28512.0,0.000732,-0.00042699999999999997,-0.000488,0.47250000000000003,-1.8725000000000003,-3.7275000000000005,1.1299062500000001,0.29481250000000003,0.268,1.4159375,1.09171875,-0.137125,-0.20053125,1.39178125,0.017895151141654193,0.019360370446413238,True
13350,382,0,383,3669.0,40677.0,28511.0,-0.005673,0.00042699999999999997,0.000915,0.31500000000000006,-1.4525000000000001,-3.8325000000000005,1.1143125,0.28465625,0.27796875,1.400875,1.09778125,-0.13603125,-0.20034375000000001,1.3966875,0.017429853965738464,0.019764698590283458,True
13351,383,0,384,3671.0,40670.0,28507.0,-0.008052,-0.000793,0.001464,0.31500000000000006,-1.5050000000000001,-3.8325000000000005,1.12784375,0.29131250000000003,0.2778125,1.4250625000000001,1.08603125,-0.13571875,-0.20265625,1.39290625,0.017692916230224138,0.019851901586215356,True
13352,384,0,385,3667.0,40663.0,28503.0,-0.008357,-0.000976,0.001647,0.4025,-1.8025000000000002,-3.8150000000000004,1.12509375,0.29996875,0.26678125,1.41625,1.09221875,-0.13371875,-0.2004375,1.39471875,0.01797018952994967,0.019306210889782467,True
13353,385,0,386,3668.0,40663.0,28500.0,0.003904,0.000366,-0.000366,0.5075000000000001,-2.6250000000000004,-3.6400000000000006,1.11790625,0.29296875,0.28821875,1.4039062500000001,1.09734375,-0.1358125,-0.20296875,1.3989375,0.01776535386989769,0.02029451449008709,True
13354,386,0,387,3667.0,40664.0,28500.0,0.007442,0.000488,-0.000366,0.5775,-2.8875,-3.7800000000000002,1.135375,0.289,0.28300000000000003,1.4048125,1.07915625,-0.13628125,-0.2008125,1.3994375000000001,0.01761999893832029,0.019991580861179765,True
13355,387,0,388,3669.0,40665.0,28502.0,0.008296,0.00122,-0.0017079999999999999,0.6300000000000001,-2.8875,-3.7450000000000006,1.13296875,0.29546875,0.27846875,1.4195,1.0931875,-0.13825,-0.20275,1.3901875000000001,0.017968110778536144,0.01988281290349237,True
13356,388,0,389,3669.0,40665.0,28502.0,0.006771,0.001586,-0.001952,0.5950000000000001,-2.4850000000000003,-3.7275000000000005,1.12353125,0.29396875,0.276125,1.4151562500000001,1.09984375,-0.13825,-0.19315625,1.39203125,0.017905968742555903,0.01939727273079551,True
13357,389,0,390,3669.0,40665.0,28505.0,0.003843,0.000793,-0.000488,0.43750000000000006,-1.8725000000000003,-3.7100000000000004,1.1275,0.2985,0.27540625,1.4185,1.09265625,-0.1365,-0.19968750000000002,1.39125,0.018022497048039276,0.019632226655819422,True
13358,390,0,391,3668.0,40666.0,28502.0,-0.003477,-0.001586,0.001403,0.2625,-0.7525000000000001,-3.6925000000000003,1.127,0.29331250000000003,0.27378125000000003,1.41009375,1.09965625,-0.13425,-0.20134375000000002,1.39859375,0.017716005262231063,0.019632174349823034,True
13359,391,0,392,3669.0,40663.0,28503.0,-0.008905999999999999,-0.001098,0.0018909999999999999,0.22750000000000004,-0.6125,-3.6750000000000003,1.1253125,0.293625,0.27475,1.4173125,1.0894375,-0.13584375,-0.19978125,1.39196875,0.017793815474132745,0.019608906588773397,True
13360,392,0,393,3667.0,40659.0,28500.0,-0.008173999999999999,-0.000244,0.00061,0.14,-0.7175,-3.6750000000000003,1.12021875,0.29115625,0.27553125,1.4176875,1.092875,-0.136,-0.20171875,1.3915,0.017697889045409348,0.01971967383514859,True
13361,393,0,394,3668.0,40658.0,28501.0,-0.007808,-0.0006709999999999999,0.00122,0.08750000000000001,-1.155,-3.6575,1.113875,0.28915625,0.2758125,1.4164375,1.09946875,-0.135875,-0.20303125,1.3923125,0.017609937489318286,0.019784453651854043,True
13362,394,0,395,3668.0,40654.0,28500.0,-0.002745,-0.001098,0.000976,0.21000000000000002,-1.7850000000000001,-3.6050000000000004,1.1215,0.29021875,0.27634375,1.41703125,1.0987500000000001,-0.135875,-0.2021875,1.39234375,0.01765395909615873,0.019772231332395054,True
13363,395,0,396,3667.0,40661.0,28502.0,0.009821,0.00042699999999999997,-0.0026839999999999998,0.385,-2.2575000000000003,-3.6050000000000004,1.12853125,0.29309375,0.27440625,1.41096875,1.101,-0.1364375,-0.20090625,1.3980937500000001,0.01779596719689888,0.01964027690078755,True
13364,396,0,397,3668.0,40663.0,28503.0,0.007991,-0.0017079999999999999,-0.0017079999999999999,0.385,-2.1700000000000004,-3.6575,1.12878125,0.297875,0.27284375,1.4180625,1.09309375,-0.13765625,-0.20084375000000002,1.397875,0.01804364290754203,0.019573181203651216,True
13365,397,0,398,3667.0,40663.0,28503.0,0.002745,-0.0013419999999999999,-0.000732,0.29750000000000004,-1.9425000000000001,-3.5875000000000004,1.1209375,0.29396875,0.27521875,1.41090625,1.09271875,-0.1399375,-0.2004375,1.39128125,0.01797462193098056,0.019654861611489462,True
13366,398,0,399,3670.0,40661.0,28503.0,-0.00061,-0.000244,0.000732,0.3325,-1.7675,-3.6750000000000003,1.1215,0.29,0.275625,1.41684375,1.092375,-0.12996875,-0.2014375,1.38334375,0.01740444649353307,0.019712155527951594,True
13367,399,0,400,3668.0,40657.0,28502.0,-0.001952,0.005246,0.001464,0.47250000000000003,-1.2425000000000002,-3.7275000000000005,1.12103125,0.29740625,0.278125,1.4101875,1.0978125,-0.13546875,-0.20121875,1.39821875,0.017935222409964587,0.019806595483956774,True
13368,400,0,401,3669.0,40656.0,28499.0,-0.005856,0.0053679999999999995,0.000793,0.43750000000000006,-1.0325000000000002,-3.7800000000000002,1.121,0.289625,0.2785,1.4099062500000001,1.09378125,-0.1365625,-0.20325000000000001,1.392375,0.01765734039385269,0.019904351688306322,True
13369,401,0,402,3668.0,40654.0,28501.0,-0.0055509999999999995,0.000732,0.000122,0.29750000000000004,-0.9625000000000001,-3.6575,1.126625,0.2929375,0.27468750000000003,1.417,1.09225,-0.13846875,-0.200875,1.3914375,0.017872146508879107,0.019650632466801304,True
13370,402,0,403,3667.0,40654.0,28500.0,-0.002806,-0.0034159999999999998,-0.001281,0.17500000000000002,-1.0325000000000002,-3.5875000000000004,1.12178125,0.29290625,0.27253125,1.4119062500000001,1.09928125,-0.13534375,-0.19984375000000001,1.39109375,0.017743687615802032,0.019519754130643923,True
13371,403,0,404,3669.0,40656.0,28501.0,0.000793,-0.0057339999999999995,0.0,0.07,-1.225,-3.6050000000000004,1.12084375,0.291625,0.2739375,1.4103125,1.09296875,-0.13484375,-0.20321875,1.396875,0.017670251128101878,0.01971457825211781,True
13372,404,0,405,3668.0,40661.0,28505.0,0.002989,-0.0051849999999999995,-0.000549,0.07,-1.33,-3.5525,1.12553125,0.29296875,0.2753125,1.4136250000000001,1.09271875,-0.13803125,-0.19968750000000002,1.3956250000000001,0.01785564015292258,0.019628352638851227,True
13373,405,0,406,3668.0,40666.0,28505.0,0.004392,-0.0030499999999999998,-0.0017079999999999999,0.07,-1.2600000000000002,-3.7275000000000005,1.12090625,0.293875,0.27521875,1.4096250000000001,1.09265625,-0.13896875,-0.20103125,1.393,0.017931327327311775,0.019678913476052804,True
13374,406,0,407,3671.0,40671.0,28509.0,0.0032329999999999998,-0.00244,-0.001037,0.14,-1.1375000000000002,-3.7100000000000004,1.122,0.2921875,0.275625,1.41528125,1.0990625,-0.13546875,-0.20246875,1.38834375,0.017718994995694872,0.019753924896607912,True
13375,407,0,408,3670.0,40669.0,28510.0,-0.000793,-0.0006709999999999999,0.000183,0.21000000000000002,-1.0675000000000001,-3.7450000000000006,1.12346875,0.29381250000000003,0.27540625,1.4135625,1.1008437500000001,-0.13828125,-0.200125,1.3917187500000001,0.01790076706476357,0.01964995015521614,True
13376,408,0,409,3669.0,40666.0,28509.0,-0.0035989999999999998,0.003294,0.002074,0.4025,-1.2775,-3.6400000000000006,1.12096875,0.29331250000000003,0.274625,1.41403125,1.08821875,-0.13159375,-0.2008125,1.39921875,0.017607881783605776,0.019645518099857182,True
13377,409,0,410,3672.0,40662.0,28506.0,0.000122,0.005429,0.000915,0.5425000000000001,-1.5750000000000002,-3.5000000000000004,1.11975,0.29390625,0.28021875,1.4104375,1.093375,-0.135875,-0.20371875,1.3825,0.0178067399669579,0.019994344877272217,True
13378,410,0,411,3674.0,40660.0,28505.0,0.001403,0.002257,0.000732,0.49000000000000005,-1.8025000000000002,-3.6925000000000003,1.1260625,0.293375,0.2749375,1.41584375,1.09253125,-0.1375,-0.19925,1.396625,0.01785085447954428,0.019595132080539687,True
13379,411,0,412,3672.0,40659.0,28505.0,0.002013,0.000244,-0.000244,0.385,-1.8375000000000001,-3.7625,1.1215625,0.29325,0.28040625,1.411375,1.10178125,-0.13503125,-0.205625,1.39025,0.017745212159192874,0.020079268765008134,True
13380,412,0,413,3672.0,40661.0,28504.0,0.0,0.000305,0.000244,0.2625,-1.5050000000000001,-3.6925000000000003,1.122625,0.293125,0.2723125,1.4100625,1.1030625,-0.1333125,-0.20065625,1.38715625,0.017670077408561302,0.019543633243416694,True
13381,413,0,414,3672.0,40660.0,28505.0,-0.001586,-0.001403,-0.0008539999999999999,0.2625,-1.1375000000000002,-3.7450000000000006,1.13425,0.2975,0.26825,1.402875,1.09015625,-0.13725,-0.1998125,1.40278125,0.018011579612424777,0.019341575477082724,True
13382,414,0,415,3673.0,40663.0,28508.0,-0.004209,-0.001647,-0.00061,0.28,-0.8575,-3.6750000000000003,1.14115625,0.2990625,0.27071875,1.39978125,1.08978125,-0.137875,-0.1990625,1.403125,0.01810173845046426,0.01941320040807366,True
13383,415,0,416,3674.0,40665.0,28509.0,-0.0023179999999999997,-0.0023179999999999997,0.000488,0.17500000000000002,-1.1025,-3.6750000000000003,1.14259375,0.29621875000000003,0.27103125,1.4128125,1.089,-0.13109375,-0.19868750000000002,1.383,0.017707962367018694,0.01941091846406959,True
13384,416,0,417,3675.0,40663.0,28509.0,-0.0011589999999999999,-0.001952,-0.000549,0.21000000000000002,-1.5925000000000002,-3.8150000000000004,1.117,0.28740625000000003,0.2793125,1.43075,1.09725,-0.135375,-0.2011875,1.3803750000000001,0.017517078147739572,0.019854397640611646,True
13385,417,0,418,3674.0,40661.0,28507.0,-0.000366,-0.001098,0.00061,0.29750000000000004,-2.2575000000000003,-3.6400000000000006,1.10859375,0.281,0.28228125,1.40515625,1.1025625000000001,-0.13553125,-0.203375,1.39128125,0.017258010428090328,0.020065641671874274,True
13386,418,0,419,3674.0,40662.0,28509.0,0.001647,0.000549,-0.000549,0.47250000000000003,-2.8350000000000004,-3.7800000000000002,1.1379062500000001,0.29521875000000003,0.2715625,1.4004375,1.09015625,-0.13884375000000002,-0.1993125,1.40090625,0.017981909344767188,0.019458197417798542,True
13387,419,0,420,3675.0,40660.0,28507.0,0.009577,0.002013,-0.001281,0.56,-3.1325000000000003,-3.6925000000000003,1.13546875,0.2974375,0.2720625,1.420375,1.08834375,-0.139625,-0.19475,1.3901875000000001,0.018105604374550145,0.01929395840006613,True
13388,420,0,421,3674.0,40661.0,28507.0,0.009516,0.0021349999999999997,-0.0017079999999999999,0.5075000000000001,-2.7475,-3.7800000000000002,1.10871875,0.28440625,0.2795625,1.43075,1.0975,-0.13546875,-0.2020625,1.3904375,0.017396596036693922,0.01990016346747307,True
13389,421,0,422,3674.0,40662.0,28505.0,0.004392,6.1e-05,0.000366,0.45500000000000007,-2.1350000000000002,-3.7275000000000005,1.12703125,0.292375,0.26737500000000003,1.3973125,1.1005,-0.13525,-0.20078125,1.39703125,0.017717860805253727,0.019344675081512094,True
13390,422,0,423,3674.0,40660.0,28506.0,-0.0037819999999999998,0.0,0.000732,0.28,-1.5050000000000001,-3.6225000000000005,1.1362812500000001,0.2873125,0.27440625,1.4135625,1.09265625,-0.13759375000000001,-0.20003125,1.39353125,0.017603504906117663,0.019604830055746314,True
13391,423,0,424,3675.0,40654.0,28501.0,-0.00915,-0.000183,0.003355,0.22750000000000004,-0.9975,-3.7100000000000004,1.11871875,0.29081250000000003,0.27309375,1.4055625,1.09446875,-0.138625,-0.2,1.39675,0.017790470666825473,0.019549328512396696,True
13392,424,0,425,3675.0,40652.0,28502.0,-0.0048189999999999995,0.000732,0.001464,0.35000000000000003,-1.33,-3.6400000000000006,1.12671875,0.2945625,0.27578125000000003,1.41709375,1.0810625,-0.13871875,-0.197125,1.3985,0.017949637447099383,0.019543902426424627,True
13393,425,0,426,3675.0,40652.0,28501.0,0.000366,-0.0028669999999999998,0.000366,0.3325,-1.7675,-3.535,1.1225625000000001,0.28909375,0.27575,1.418375,1.0930312500000001,-0.13675,-0.2015625,1.392375,0.01764296145918568,0.019722383627090192,True
13394,426,0,427,3675.0,40653.0,28503.0,0.006771,-0.001647,-0.000549,0.3325,-2.1350000000000002,-3.6050000000000004,1.12153125,0.29259375,0.27603125,1.41159375,1.092125,-0.13546875,-0.202875,1.3916250000000001,0.017735827069859583,0.019787163715054512,True
13395,427,0,428,3677.0,40654.0,28503.0,0.007442,-0.000122,-0.000122,0.36750000000000005,-2.3800000000000003,-3.6750000000000003,1.1215625,0.29296875,0.27878125,1.41284375,1.1014375,-0.1355,-0.20350000000000001,1.3873125,0.01775263615835595,0.019926095399425706,True
13396,428,0,429,3676.0,40654.0,28501.0,0.0055509999999999995,0.001281,-0.00122,0.47250000000000003,-2.4675000000000002,-3.5875000000000004,1.12125,0.2916875,0.27540625,1.41328125,1.10021875,-0.1378125,-0.20053125,1.39453125,0.017793658808145933,0.01966640711657931,True
13397,429,0,430,3678.0,40654.0,28503.0,0.0011589999999999999,0.000915,0.000122,0.35000000000000003,-2.0300000000000002,-3.6575,1.12128125,0.29059375,0.27578125000000003,1.4105,1.084625,-0.13896875,-0.20028125,1.3993125,0.017795395671159314,0.019671775508807363,True
13398,430,0,431,3677.0,40655.0,28505.0,6.1e-05,0.00061,-0.000915,0.3325,-1.5750000000000002,-3.5875000000000004,1.12346875,0.2936875,0.27321875,1.4077187500000001,1.0933125000000001,-0.13578125,-0.20059375000000002,1.39934375,0.017793861551508715,0.019578548563503738,True
13399,431,0,432,3678.0,40660.0,28504.0,-0.0021349999999999997,6.1e-05,0.000305,0.24500000000000002,-1.1725,-3.6225000000000005,1.1244687500000001,0.2940625,0.27946875,1.41225,1.09265625,-0.13909375000000002,-0.20034375000000001,1.398375,0.01794418027810178,0.01982668118092331,True
13400,432,0,433,3680.0,40659.0,28504.0,-0.005978,-0.0008539999999999999,0.000976,0.28,-1.05,-3.535,1.11496875,0.29103125,0.27475,1.415,1.09228125,-0.1390625,-0.19996875,1.3917187500000001,0.01781733445530455,0.019616502603954807,True
13401,433,0,434,3678.0,40658.0,28506.0,-0.003843,-0.000549,-0.000122,0.17500000000000002,-1.0675000000000001,-3.6575,1.12090625,0.2925625,0.27609375,1.4153437500000001,1.09896875,-0.1358125,-0.20409375,1.39175,0.01774852203546079,0.01983910263114065,True
13402,434,0,435,3679.0,40659.0,28505.0,-0.000305,-0.00061,0.002379,0.28,-1.155,-3.7450000000000006,1.121,0.29765625,0.27603125,1.4123125,1.101625,-0.13609375,-0.201875,1.39178125,0.01797101073987998,0.01974666219042946,True
13403,435,0,436,3680.0,40661.0,28505.0,-0.001647,-0.000122,0.00061,0.2625,-1.3825,-3.6925000000000003,1.1209375,0.2921875,0.2759375,1.41528125,1.1006562500000001,-0.13609375,-0.20103125,1.39146875,0.01774443099351982,0.019708612623687265,True
13404,436,0,437,3678.0,40662.0,28506.0,0.000549,0.000793,-0.00244,0.21000000000000002,-1.5925000000000002,-3.6925000000000003,1.12165625,0.29303125,0.27518750000000003,1.410625,1.099625,-0.13515625,-0.20196875,1.38284375,0.01774123587867802,0.019715596484273623,True
13405,437,0,438,3679.0,40663.0,28508.0,0.002806,0.0015249999999999999,-0.0008539999999999999,0.2625,-1.7850000000000001,-3.7450000000000006,1.12825,0.29253125,0.27915625,1.417,1.099875,-0.1363125,-0.20065625,1.3918125000000001,0.017767575307951453,0.019826425161507757,True
13406,438,0,439,3680.0,40663.0,28507.0,0.004026,-0.000244,0.000549,0.2625,-1.6975000000000002,-3.7450000000000006,1.1144375,0.29281250000000003,0.276875,1.4101875,1.0990312500000001,-0.13578125,-0.2025625,1.3949375,0.017757608322705527,0.019809369359132942,True
13407,439,0,440,3679.0,40666.0,28508.0,-0.001464,-0.001464,-0.000915,0.22750000000000004,-1.435,-3.8150000000000004,1.12984375,0.29296875,0.27225,1.4111562500000001,1.09271875,-0.136875,-0.20015625,1.397,0.01780859162588363,0.019520793383307186,True
13408,440,0,441,3678.0,40662.0,28505.0,-0.002623,0.000549,0.000366,0.31500000000000006,-1.3825,-3.7100000000000004,1.123625,0.29365625,0.275875,1.41596875,1.0924375,-0.1391875,-0.20009375000000001,1.3970625,0.017931164833116277,0.01966805397189835,True
13409,441,0,442,3676.0,40663.0,28505.0,-0.003111,-0.00122,0.001098,0.24500000000000002,-1.435,-3.6225000000000005,1.1215,0.29,0.28009375000000003,1.4138125000000001,1.09309375,-0.1375,-0.20059375000000002,1.3965625,0.01771103055411704,0.019862632502559985,True
13410,442,0,443,3675.0,40660.0,28503.0,-0.0021349999999999997,-0.000976,0.0,0.22750000000000004,-1.4525000000000001,-3.5875000000000004,1.116875,0.2911875,0.274625,1.4171562500000001,1.0865625,-0.1380625,-0.20065625,1.39578125,0.01778311743123542,0.019639188503410933,True
13411,443,0,444,3672.0,40661.0,28503.0,-0.000793,0.0013419999999999999,-0.000183,0.35000000000000003,-1.6450000000000002,-3.6575,1.12040625,0.29046875,0.2739375,1.41621875,1.09234375,-0.1385,-0.20025,1.397,0.017771143608757794,0.019594322372702762,True
13412,444,0,445,3673.0,40658.0,28502.0,0.0028669999999999998,0.0015249999999999999,0.000732,0.5075000000000001,-2.0650000000000004,-3.7275000000000005,1.121375,0.29009375,0.275625,1.41465625,1.09309375,-0.1399375,-0.19953125,1.41228125,0.01781409956011692,0.019634936110590986,True
13413,445,0,446,3673.0,40659.0,28500.0,0.0042699999999999995,0.000183,-0.000305,0.43750000000000006,-2.1700000000000004,-3.7450000000000006,1.120875,0.29009375,0.27528125000000003,1.41003125,1.09040625,-0.142375,-0.197625,1.3864687500000001,0.017913264540046284,0.019543498587154734,True
13414,446,0,447,3670.0,40656.0,28498.0,0.004026,0.000244,-0.001037,0.4025,-1.9775000000000003,-3.7275000000000005,1.12921875,0.293375,0.2826875,1.41409375,1.10925,-0.13615625,-0.19771875,1.3965625,0.01779617456694249,0.01985336944210908,True
13415,447,0,448,3672.0,40656.0,28500.0,0.0008539999999999999,-0.00042699999999999997,-0.000488,0.3325,-1.61,-3.6400000000000006,1.12240625,0.29381250000000003,0.27278125000000003,1.410125,1.0915625,-0.13468750000000002,-0.20459375,1.386125,0.017754528621926433,0.019722495858869763,True
13416,448,0,449,3672.0,40653.0,28497.0,-0.0021349999999999997,-0.000549,0.000122,0.4025,-1.4525000000000001,-3.6575,1.1240937500000001,0.291375,0.274875,1.4175,1.08859375,-0.136375,-0.19784375,1.4073125,0.017722213878430374,0.01953557328842575,True
13417,449,0,450,3671.0,40652.0,28497.0,-0.0042699999999999995,-0.0008539999999999999,0.00042699999999999997,0.42000000000000004,-1.6450000000000002,-3.5875000000000004,1.110125,0.2915,0.27509375,1.41378125,1.08575,-0.1424375,-0.19871875,1.40159375,0.017974055022406083,0.01958006557681902,True
13418,450,0,451,3670.0,40650.0,28496.0,-0.002074,-6.1e-05,0.0011589999999999999,0.47250000000000003,-1.9425000000000001,-3.5700000000000003,1.121125,0.290625,0.27590625,1.41009375,1.08534375,-0.14034375,-0.1978125,1.39578125,0.017852635176332152,0.01957692456704506,True
13419,451,0,452,3668.0,40645.0,28492.0,0.0017079999999999999,0.000549,0.000549,0.49000000000000005,-2.205,-3.6400000000000006,1.1219375,0.29381250000000003,0.2733125,1.41075,1.10515625,-0.13221875,-0.20650000000000002,1.38565625,0.017654043932450264,0.019821638816020493,True
13420,452,0,453,3668.0,40644.0,28491.0,0.004026,0.0006709999999999999,-0.000976,0.4025,-2.2750000000000004,-3.7100000000000004,1.12521875,0.29378125,0.27484375,1.41821875,1.1104375,-0.13503125,-0.20203125,1.39353125,0.017767223732101028,0.019703924644754765,True
13421,453,0,454,3669.0,40642.0,28490.0,0.001952,-0.000183,-0.0011589999999999999,0.5075000000000001,-2.3975000000000004,-3.5525,1.1223125,0.29015625,0.2754375,1.41903125,1.0861875,-0.14059375,-0.19846875,1.40715625,0.017843388794030798,0.019584142075105473,True
13422,454,0,455,3668.0,40638.0,28487.0,0.0013419999999999999,-0.00061,-0.0006709999999999999,0.525,-2.3800000000000003,-3.5525,1.1215,0.2929375,0.27634375,1.41078125,1.07225,-0.1401875,-0.1983125,1.3979375,0.017942072736593283,0.019615262427906906,True
13423,455,0,456,3668.0,40639.0,28487.0,0.00122,0.000122,-0.0006709999999999999,0.56,-2.2750000000000004,-3.535,1.1256875,0.29315625,0.27475,1.41621875,1.0871875,-0.13575,-0.19821875,1.3953125,0.017770578913023215,0.019545601884436225,True
13424,456,0,457,3667.0,40639.0,28488.0,0.001769,0.000732,-0.000305,0.385,-2.1350000000000002,-3.5700000000000003,1.1219375,0.2919375,0.27521875,1.41675,1.0900625,-0.1389375,-0.19953125,1.3936875,0.01784979144173185,0.019618148595336945,True
13425,457,0,458,3666.0,40638.0,28489.0,0.0015249999999999999,0.000366,0.000549,0.35000000000000003,-1.8550000000000002,-3.5525,1.122,0.28975,0.27521875,1.4166875,1.0991875,-0.13609375,-0.199875,1.39175,0.017643441163713577,0.019632074545839595,True
13426,458,0,459,3665.0,40639.0,28489.0,0.000183,-0.000305,-0.000915,0.3325,-1.5225000000000002,-3.6225000000000005,1.12140625,0.291125,0.275125,1.41765625,1.09209375,-0.1395,-0.19684375,1.393875,0.017839019035191285,0.019505384870702407,True
13427,459,0,460,3666.0,40637.0,28485.0,-0.004392,0.0,0.000549,0.36750000000000005,-1.4000000000000001,-3.7450000000000006,1.12234375,0.290375,0.27553125,1.41378125,1.1006875,-0.1355625,-0.20046875,1.3919375,0.017647713824776198,0.01966904050153987,True
13428,460,0,461,3665.0,40631.0,28482.0,-0.00488,-0.000305,0.002745,0.29750000000000004,-1.4175000000000002,-3.6575,1.11603125,0.29581250000000003,0.27518750000000003,1.4153437500000001,1.08996875,-0.13621875,-0.20196875,1.39196875,0.01789970726048379,0.019715596484273623,True
13429,461,0,462,3667.0,40629.0,28484.0,-0.0030499999999999998,-0.001281,0.0011589999999999999,0.29750000000000004,-1.8375000000000001,-3.6225000000000005,1.1214375,0.2915625,0.2758125,1.4135625,1.09496875,-0.1360625,-0.2015625,1.3926875,0.017717264363232406,0.019724966104977724,True
13430,462,0,463,3667.0,40630.0,28483.0,0.000976,-0.000183,-0.000915,0.35000000000000003,-2.1,-3.6925000000000003,1.12121875,0.29090625000000003,0.27584375,1.4166875,1.10003125,-0.13525,-0.20246875,1.39175,0.017657005831719166,0.019762963230765457,True
13431,463,0,464,3667.0,40631.0,28484.0,0.0042699999999999995,0.000305,-0.0021349999999999997,0.47250000000000003,-2.24,-3.7100000000000004,1.122125,0.29031250000000003,0.275375,1.4173437500000001,1.09309375,-0.13453125,-0.19953125,1.3800937500000001,0.017603149014961707,0.019624605331973112,True
13432,464,0,465,3667.0,40627.0,28481.0,0.002928,0.000366,0.0006709999999999999,0.525,-2.1700000000000004,-3.6400000000000006,1.12215625,0.28990625000000003,0.27559375,1.41209375,1.0993125,-0.13553125,-0.202125,1.39203125,0.017627020329208622,0.01973871096029791,True
13433,465,0,466,3667.0,40627.0,28481.0,0.0013419999999999999,0.000183,-0.000793,0.525,-2.0475000000000003,-3.6400000000000006,1.1218125,0.2929375,0.2723125,1.4100625,1.10059375,-0.1350625,-0.2031875,1.39709375,0.017733536012181448,0.019646172637385058,True
13434,466,0,467,3667.0,40627.0,28478.0,-0.000915,-0.000122,0.000366,0.42000000000000004,-1.715,-3.7625,1.13503125,0.29390625,0.2748125,1.4203125,1.09328125,-0.13915625,-0.20040625,1.3985,0.017940250086413027,0.019636808782910412,True
13435,467,0,468,3668.0,40621.0,28478.0,-0.002196,0.00061,0.001403,0.36750000000000005,-1.5050000000000001,-3.6750000000000003,1.118,0.29421875000000003,0.276625,1.4092500000000001,1.09275,-0.1366875,-0.20359375000000002,1.39121875,0.017852750092571736,0.019840803599672056,True
13436,468,0,469,3667.0,40622.0,28476.0,-0.0025009999999999998,0.00042699999999999997,0.001098,0.36750000000000005,-1.3125000000000002,-3.6575,1.1325625,0.2934375,0.27171875,1.41046875,1.0975625,-0.13875,-0.2005625,1.39778125,0.017904303246854127,0.019515300522456865,True
13437,469,0,470,3666.0,40622.0,28478.0,0.000793,0.000549,-0.000366,0.35000000000000003,-1.12,-3.6400000000000006,1.11984375,0.28890625000000003,0.27675,1.4093125,1.0929375000000001,-0.13725,-0.2004375,1.39175,0.017655542781385616,0.019718135260984433,True
13438,470,0,471,3668.0,40624.0,28477.0,0.000488,0.00042699999999999997,-0.000122,0.35000000000000003,-1.0850000000000002,-3.7100000000000004,1.1262812500000001,0.29340625,0.272625,1.40825,1.097875,-0.13603125,-0.20025,1.39628125,0.017792382498676124,0.019540087395791366,True
13439,471,0,472,3667.0,40622.0,28479.0,-0.001403,0.000305,0.000915,0.42000000000000004,-1.1375000000000002,-3.5525,1.1162812500000001,0.2876875,0.27684375,1.40890625,1.09265625,-0.1353125,-0.20240625,1.3923125,0.017526186992606784,0.019801750084250405,True
13440,472,0,473,3668.0,40623.0,28478.0,-0.0013419999999999999,-0.000488,-0.001281,0.385,-1.33,-3.4125000000000005,1.13303125,0.29403125,0.26965625,1.40828125,1.09309375,-0.136875,-0.20046875,1.396125,0.017852611408891998,0.019426276608795028,True
13441,473,0,474,3668.0,40625.0,28482.0,0.002806,-0.00042699999999999997,-0.001403,0.22750000000000004,-1.3475000000000001,-3.4825000000000004,1.11990625,0.28690625000000003,0.27671875,1.4016875,1.09359375,-0.136375,-0.20203125,1.391875,0.017537068014563083,0.019781397480841612,True
13442,474,0,475,3667.0,40627.0,28482.0,0.002196,-0.00122,0.000732,0.3325,-1.0675000000000001,-3.6575,1.1299375,0.29284375,0.2770625,1.40796875,1.0933125000000001,-0.1361875,-0.20015625,1.3895625,0.01777543574352826,0.019719655735693856,True
13443,475,0,476,3667.0,40628.0,28483.0,-0.000183,-0.000793,-0.001037,0.28,-0.8925000000000001,-3.5525,1.12946875,0.29078125,0.27725,1.407,1.09309375,-0.13765625,-0.20115625,1.39153125,0.017749755633378862,0.019767908816340128,True
13444,476,0,477,3667.0,40629.0,28484.0,-0.0015249999999999999,-0.000488,-6.1e-05,0.2625,-0.5075000000000001,-3.5525,1.1274375,0.290625,0.276125,1.40959375,1.09290625,-0.13703125,-0.19965625,1.3910625,0.017717847964421888,0.019660661502164934,True
13445,477,0,478,3666.0,40633.0,28486.0,-0.002257,-0.000732,0.00061,0.14,-0.43750000000000006,-3.5875000000000004,1.1189375,0.29378125,0.27490625,1.4185625,1.0854062500000001,-0.13815625,-0.20071875,1.3940625,0.01789438661041064,0.019653341907458845,True
13446,478,0,479,3668.0,40630.0,28485.0,-0.005612,0.001403,0.000366,0.15750000000000003,-0.665,-3.7275000000000005,1.1215625,0.29290625,0.2723125,1.41540625,1.093,-0.13584375,-0.20103125,1.400875,0.017764036113301403,0.019558825618226496,True
13447,479,0,480,3666.0,40629.0,28486.0,-0.0032329999999999998,0.000732,0.000915,0.2625,-0.805,-3.6400000000000006,1.11696875,0.28903125,0.273,1.4108125,1.09315625,-0.13565625,-0.2026875,1.3830625,0.017595854680769244,0.019654325578512717,True
13448,480,0,481,3670.0,40628.0,28487.0,-0.000549,0.0006709999999999999,0.00042699999999999997,0.29750000000000004,-1.1900000000000002,-3.6225000000000005,1.1233125,0.28909375,0.27584375,1.41078125,1.09309375,-0.14640625000000002,-0.1975,1.38728125,0.018035810194322398,0.019561679925612148,True
13449,481,0,482,3667.0,40632.0,28489.0,0.004331,-0.000366,-0.000305,0.385,-1.2600000000000002,-3.5000000000000004,1.11740625,0.29309375,0.27475,1.4106875,1.0993125,-0.132625,-0.20946875,1.381,0.01764079746815773,0.020001213368219823,True
13450,482,0,483,3669.0,40636.0,28493.0,0.005307,-0.00042699999999999997,-0.0006709999999999999,0.29750000000000004,-1.2950000000000002,-3.5175000000000005,1.12225,0.29175,0.2734375,1.4115312500000001,1.09584375,-0.1441875,-0.20384375000000002,1.38090625,0.018055587913239985,0.019719233644449552,True
13451,483,0,484,3669.0,40638.0,28492.0,0.001647,-0.000305,0.000244,0.2625,-0.9625000000000001,-3.5000000000000004,1.1215625,0.2910625,0.27503125,1.41778125,1.09409375,-0.1393125,-0.193625,1.4077187500000001,0.017828801048082873,0.019371063658298413,True
13452,484,0,485,3669.0,40640.0,28495.0,-0.000305,-0.001281,0.000122,0.22750000000000004,-0.6475000000000001,-3.4825000000000004,1.12125,0.2926875,0.2760625,1.4105,1.08115625,-0.13825,-0.2028125,1.375,0.017852889086822782,0.01978592364007282,True
13453,485,0,486,3670.0,40642.0,28498.0,-6.1e-05,-0.0018909999999999999,-0.0028669999999999998,0.1925,-0.47250000000000003,-3.6225000000000005,1.12884375,0.29275,0.2780625,1.413,1.10678125,-0.13071875,-0.19740625,1.4059062500000001,0.017548948889058683,0.019649575044845973,True
13454,486,0,487,3670.0,40645.0,28498.0,-0.000244,-0.000366,0.000488,0.1925,-0.15750000000000003,-3.6050000000000004,1.1204687500000001,0.29025,0.27571875,1.4111562500000001,1.08053125,-0.14759375,-0.19734375,1.38175,0.01813198261213915,0.019550183065031673,True
13455,487,0,488,3670.0,40644.0,28499.0,-0.005124,-0.001098,0.0,0.07,-0.10500000000000001,-3.4825000000000004,1.1178125,0.293125,0.275125,1.41078125,1.1165,-0.13375,-0.2004375,1.39640625,0.017687885222976124,0.019650987714581607,True
13456,488,0,489,3672.0,40641.0,28499.0,-0.0055509999999999995,0.000549,0.0018909999999999999,0.24500000000000002,-0.7175,-3.3950000000000005,1.1218125,0.29175,0.2749375,1.418125,1.08003125,-0.14240625,-0.19565625,1.4075,0.01798313910818231,0.019449513794443995,True
13457,489,0,490,3672.0,40641.0,28500.0,-0.003538,0.002562,-0.004514,0.28,-1.33,-3.6400000000000006,1.12009375,0.28931250000000003,0.27496875,1.41575,1.08,-0.14015625,-0.201875,1.38753125,0.017790636711392457,0.0197027606332154,True
13458,490,0,491,3672.0,40641.0,28502.0,0.000732,0.001037,0.002379,0.35000000000000003,-1.9600000000000002,-3.7100000000000004,1.121625,0.29340625,0.27315625,1.4115,1.10253125,-0.13284375,-0.2083125,1.38784375,0.017662651132857064,0.019888571332677567,True
13459,491,0,492,3672.0,40642.0,28499.0,0.005124,-0.0013419999999999999,-0.000488,0.36750000000000005,-2.1,-3.3600000000000003,1.12503125,0.29078125,0.27534375,1.4123125,1.08496875,-0.13759375000000001,-0.19946875,1.38875,0.017747212271314327,0.019620781964480107,True
13460,492,0,493,3674.0,40645.0,28501.0,0.008113,0.000915,-0.001586,0.42000000000000004,-2.31,-3.6925000000000003,1.1262812500000001,0.29371875000000003,0.2774375,1.4160625,1.09353125,-0.13940625,-0.1983125,1.3997187500000001,0.017942653415512242,0.019660461860718594,True
13461,493,0,494,3674.0,40646.0,28500.0,0.001281,-0.0006709999999999999,0.001037,0.4025,-1.5050000000000001,-3.5700000000000003,1.12240625,0.29065625,0.275625,1.41046875,1.100125,-0.13553125,-0.20346875,1.3916875,0.01765809484719753,0.01979442512759664,True
13462,494,0,495,3673.0,40648.0,28504.0,-0.005612,0.00042699999999999997,0.000122,0.49000000000000005,-1.4525000000000001,-3.6750000000000003,1.12815625,0.29303125,0.274625,1.41025,1.09596875,-0.13515625,-0.20065625,1.387625,0.01774123587867802,0.019639188503410933,True
13463,495,0,496,3675.0,40644.0,28502.0,-0.0075639999999999995,0.00061,0.001281,0.4025,-1.61,-3.7625,1.1260937500000001,0.2934375,0.275125,1.416375,1.09296875,-0.13878125,-0.199875,1.391875,0.017905574665249512,0.019628200558887185,True
13464,496,0,497,3674.0,40640.0,28498.0,-0.00549,-0.001037,0.0017079999999999999,0.45500000000000007,-1.8200000000000003,-3.6225000000000005,1.1218125,0.29165625,0.276375,1.41509375,1.10078125,-0.13584375,-0.20259375000000002,1.39253125,0.017712245920551255,0.019789976022714508,True
13465,497,0,498,3674.0,40640.0,28495.0,0.0023179999999999997,0.0006709999999999999,0.000793,0.47250000000000003,-2.0300000000000002,-3.6925000000000003,1.12221875,0.29284375,0.275625,1.41084375,1.09828125,-0.13521875,-0.20421875,1.39215625,0.017736010782997358,0.019824798104669254,True
13466,498,0,499,3675.0,40641.0,28497.0,0.0046359999999999995,0.0015249999999999999,-0.00183,0.665,-2.1525000000000003,-3.7450000000000006,1.1259375,0.29325,0.2735,1.41065625,1.0855000000000001,-0.138125,-0.200125,1.390625,0.017871106392895058,0.019571179900930265,True
13467,499,0,500,3675.0,40639.0,28498.0,-0.000549,0.001403,-0.000183,0.5775,-2.1700000000000004,-3.6750000000000003,1.12734375,0.29403125,0.27246875,1.41146875,1.0895625,-0.132625,-0.20109375000000002,1.3965,0.01767964529345647,0.01956781395468955,True
13468,500,0,501,3676.0,40637.0,28498.0,-0.001464,0.00061,0.000305,0.525,-2.0475000000000003,-3.6925000000000003,1.1309375,0.29490625,0.26946875,1.408875,1.0863125,-0.13703125,-0.20059375000000002,1.400375,0.017895220647733967,0.019423593687654873,True
13469,501,0,502,3675.0,40634.0,28496.0,-0.000183,-6.1e-05,0.000488,0.43750000000000006,-1.8025000000000002,-3.6400000000000006,1.14434375,0.29559375,0.2670625,1.405125,1.093375,-0.13971875,-0.19984375000000001,1.39925,0.018033039428017362,0.01929377126660167,True
13470,502,0,503,3675.0,40633.0,28493.0,0.00366,-0.000976,-0.000732,0.29750000000000004,-1.715,-3.7100000000000004,1.13096875,0.29371875000000003,0.27721875,1.42278125,1.092375,-0.128,-0.1963125,1.39253125,0.017478396468832893,0.01957038908304726,True
13471,503,0,504,3677.0,40638.0,28496.0,0.001586,-0.00061,-0.0006709999999999999,0.385,-0.8575,-3.7275000000000005,1.1155625,0.28675,0.28315625,1.42359375,1.1023125,-0.13625,-0.20259375000000002,1.3825625000000001,0.017525506240613185,0.020070162934499532,True
13472,504,0,505,3679.0,40640.0,28498.0,-0.003172,-0.001403,0.001281,0.2625,-0.665,-3.6225000000000005,1.1034375,0.2886875,0.27678125,1.423,1.0991875,-0.12996875,-0.202625,1.38903125,0.017350053551146848,0.019808027021862296,True
13473,505,0,506,3679.0,40639.0,28499.0,-0.0059169999999999995,0.00061,0.000549,0.21000000000000002,-0.45500000000000007,-3.6050000000000004,1.10453125,0.285625,0.28459375,1.41446875,1.09740625,-0.13509375,-0.20271875,1.391875,0.0174318258034527,0.020134618140782223,True
13474,506,0,507,3679.0,40640.0,28500.0,-0.004209,-0.000244,0.000793,0.2625,-0.525,-3.6575,1.1161875,0.289125,0.27715625,1.4238125,1.1011875,-0.13534375,-0.2020625,1.39153125,0.017587019037174478,0.01980074012287176,True
13475,507,0,508,3678.0,40638.0,28498.0,-0.002562,6.1e-05,0.000793,0.29750000000000004,-0.8400000000000001,-3.6400000000000006,1.1150625,0.287875,0.278,1.4229375,1.0893125000000001,-0.13390625,-0.200875,1.39203125,0.017476708727995494,0.019787507683089973,True
13476,508,0,509,3680.0,40639.0,28502.0,0.000183,-0.00042699999999999997,-0.000732,0.35000000000000003,-1.2950000000000002,-3.6050000000000004,1.1159375,0.2848125,0.27846875,1.4133125,1.094625,-0.135,-0.20315625,1.39271875,0.017394344313238035,0.019899264171382606,True
13477,509,0,510,3680.0,40642.0,28502.0,6.1e-05,0.000915,-0.000305,0.525,-1.5050000000000001,-3.5875000000000004,1.13303125,0.29381250000000003,0.27496875,1.4054375000000001,1.0924375,-0.1375,-0.19296875,1.39896875,0.017868979803210772,0.01934188006587658,True
13478,510,0,511,3681.0,40642.0,28501.0,0.002623,0.000305,-0.00061,0.43750000000000006,-1.5050000000000001,-3.5525,1.1373125,0.29503125,0.27421875,1.40434375,1.09346875,-0.13953125,-0.20040625,1.3985,0.01800211012796696,0.019612274070812345,True
13479,511,0,512,3680.0,40645.0,28504.0,0.0051849999999999995,-0.0006709999999999999,-0.001403,0.35000000000000003,-1.4000000000000001,-3.5700000000000003,1.13240625,0.29534375,0.27515625,1.40409375,1.0931875,-0.1325,-0.200125,1.39871875,0.017728944369626024,0.019639619630063894,True
13480,512,0,513,3681.0,40647.0,28504.0,0.0025009999999999998,0.000305,-0.000732,0.35000000000000003,-1.1025,-3.5875000000000004,1.1241875000000001,0.29431250000000003,0.27375,1.40959375,1.0933125000000001,-0.13903125,-0.19809375,1.39984375,0.01795199424169104,0.01949921158562335,True
13481,513,0,514,3685.0,40649.0,28505.0,-0.006344,0.001464,0.001403,0.35000000000000003,-0.8225000000000001,-3.7450000000000006,1.12884375,0.29403125,0.27440625,1.4159375,1.0938125,-0.1385,-0.19659375,1.39334375,0.017918729415663776,0.019465549773922206,True
13482,514,0,515,3682.0,40648.0,28507.0,-0.0051849999999999995,-0.0006709999999999999,0.001769,0.28,-0.7525000000000001,-3.7450000000000006,1.1221875000000001,0.29071875,0.27465625,1.4093125,1.0928125,-0.136625,-0.20046875,1.39546875,0.017705199049162842,0.019632884177088514,True
13483,515,0,516,3682.0,40646.0,28506.0,-0.002562,-0.0008539999999999999,-0.0008539999999999999,0.15750000000000003,-0.9450000000000001,-3.6925000000000003,1.1203125,0.29712500000000003,0.27465625,1.3979375,1.09525,-0.135875,-0.200625,1.40003125,0.017940099540621587,0.019639213863278326,True
13484,516,0,517,3681.0,40648.0,28506.0,0.001281,0.000244,-0.000183,0.21000000000000002,-1.225,-3.8325000000000005,1.12959375,0.2935625,0.27203125,1.4055,1.0928437500000001,-0.1395,-0.20078125,1.3995,0.017939994614635763,0.019537075895018886,True
13485,517,0,518,3682.0,40650.0,28507.0,0.0018909999999999999,6.1e-05,-0.00061,0.24500000000000002,-1.4700000000000002,-3.6925000000000003,1.1215,0.29203125,0.27559375,1.4168125,1.092375,-0.13568750000000002,-0.2025625,1.3845,0.01772142392877767,0.019756430749843124,True
13486,518,0,519,3682.0,40649.0,28510.0,0.001464,0.0,0.000183,0.22750000000000004,-1.6975000000000002,-3.6575,1.12171875,0.2906875,0.27571875,1.41084375,1.0974375,-0.13525,-0.20284375000000002,1.3920625,0.01764794232502253,0.01977298638718849,True
13487,519,0,520,3681.0,40651.0,28510.0,0.0011589999999999999,-0.000122,-0.00042699999999999997,0.24500000000000002,-1.6800000000000002,-3.6925000000000003,1.12734375,0.29331250000000003,0.27090625,1.410875,1.095625,-0.13543750000000002,-0.2016875,1.40128125,0.017764335119261877,0.01952730568891116,True
13488,520,0,521,3680.0,40651.0,28510.0,-0.000732,-0.000793,0.000244,0.35000000000000003,-1.7325000000000002,-3.6925000000000003,1.1224687500000001,0.29340625,0.2745,1.4175,1.0933125000000001,-0.13909375000000002,-0.19993750000000002,1.3991875,0.017916994087650868,0.019604906004406005,True
13489,521,0,522,3681.0,40650.0,28509.0,0.0008539999999999999,-0.0006709999999999999,6.1e-05,0.29750000000000004,-1.5750000000000002,-3.6575,1.121125,0.29015625,0.27565625,1.41653125,1.0935625,-0.13628125,-0.20040625,1.3981875000000001,0.017667903998259883,0.0196716739001024,True
13490,522,0,523,3678.0,40652.0,28508.0,0.000183,6.1e-05,-0.001464,0.4025,-1.3825,-3.6400000000000006,1.12159375,0.29175,0.27475,1.41846875,1.09421875,-0.135875,-0.20128125,1.3920000000000001,0.017717402000134656,0.01966967141460744,True
13491,523,0,524,3678.0,40651.0,28509.0,-0.00122,0.0008539999999999999,-0.000183,0.4025,-1.0325000000000002,-3.7100000000000004,1.12240625,0.29109375,0.27440625,1.417,1.098375,-0.13621875,-0.20375000000000001,1.385625,0.017704202320423534,0.019755461447089815,True
13492,524,0,525,3678.0,40653.0,28509.0,-0.003172,0.000122,-0.00042699999999999997,0.4025,-1.155,-3.6750000000000003,1.12253125,0.294625,0.27465625,1.4105,1.0895625,-0.13903125,-0.20053125,1.39778125,0.017964940080186526,0.019635416061372618,True
13493,525,0,526,3675.0,40649.0,28504.0,-0.0046359999999999995,0.000366,0.0,0.42000000000000004,-1.3475000000000001,-3.6400000000000006,1.12175,0.29503125,0.274625,1.4143125,1.0931250000000001,-0.1394375,-0.19975,1.3985625,0.01799829635632562,0.01960247523218215,True
13494,526,0,527,3677.0,40645.0,28504.0,-0.002196,0.000183,0.0,0.42000000000000004,-1.54,-3.5875000000000004,1.1218125,0.29546875,0.27768750000000003,1.40403125,1.0926875,-0.1363125,-0.20053125,1.3981875000000001,0.017889279897250254,0.01976067157616633,True
13495,527,0,528,3674.0,40644.0,28502.0,0.001098,-0.001464,0.000793,0.42000000000000004,-1.8900000000000001,-3.6225000000000005,1.12515625,0.29331250000000003,0.27468750000000003,1.41046875,1.0884375,-0.13734375000000001,-0.2013125,1.393,0.017841907314262783,0.019668354763817047,True
13496,528,0,529,3675.0,40645.0,28500.0,0.003355,-0.000244,-0.000549,0.42000000000000004,-1.995,-3.6750000000000003,1.12675,0.2931875,0.27203125,1.41028125,1.09340625,-0.1378125,-0.197375,1.39603125,0.017855801970456105,0.019399056715862773,True
13497,529,0,530,3673.0,40641.0,28501.0,0.002013,0.001464,-0.001098,0.5075000000000001,-2.0825,-3.6225000000000005,1.12678125,0.29359375,0.27478125000000003,1.411375,1.092875,-0.1371875,-0.20134375000000002,1.3920000000000001,0.017847201543261824,0.019673494369501696,True
13498,530,0,531,3675.0,40642.0,28500.0,0.001464,-0.000122,-0.000305,0.43750000000000006,-1.8550000000000002,-3.6050000000000004,1.11821875,0.290625,0.2748125,1.408125,1.098625,-0.13575,-0.2011875,1.3863125,0.017665703365339798,0.019668456351573656,True
13499,531,0,532,3673.0,40641.0,28499.0,0.0006709999999999999,0.000793,0.001098,0.35000000000000003,-1.6625,-3.6050000000000004,1.110875,0.29340625,0.2733125,1.41025,1.0939375,-0.13434375,-0.20040625,1.40053125,0.017723705456047463,0.019574826352346874,True
13500,532,0,533,3673.0,40639.0,28496.0,-0.001403,6.1e-05,0.000793,0.385,-1.5750000000000002,-3.5525,1.1246875,0.29353125,0.2734375,1.4100625,1.0930625,-0.1386875,-0.2006875,1.40028125,0.017905644207043155,0.019591385575306486,True
13501,533,0,534,3674.0,40635.0,28496.0,-6.1e-05,0.0013419999999999999,-0.00183,0.28,-1.1900000000000002,-3.6050000000000004,1.12546875,0.29315625,0.273875,1.4111562500000001,1.09334375,-0.13840625,-0.201875,1.39646875,0.017878665870908524,0.01965756785373034,True
13502,534,0,535,3672.0,40638.0,28497.0,-6.1e-05,-0.000976,-0.000915,0.2625,-1.0675000000000001,-3.6225000000000005,1.12540625,0.293375,0.274625,1.410875,1.0928437500000001,-0.137625,-0.19990625,1.390125,0.01785594067353354,0.019608805302706492,True
13503,535,0,536,3673.0,40638.0,28498.0,-0.00183,-0.0013419999999999999,0.000488,0.1925,-1.0150000000000001,-3.535,1.11765625,0.29084375,0.2755,1.41865625,1.090375,-0.13778125,-0.199625,1.3900000000000001,0.01775743161977657,0.01963356870199435,True
13504,536,0,537,3673.0,40640.0,28499.0,-0.002196,-0.0008539999999999999,0.000915,0.1925,-0.9275000000000001,-3.6575,1.1216875,0.29109375,0.27625,1.40984375,1.1038125,-0.1353125,-0.20371875,1.3821875000000001,0.017667318374270064,0.01983037214064471,True
13505,537,0,538,3672.0,40639.0,28499.0,-0.0018909999999999999,0.000366,-0.0021349999999999997,0.28,-1.05,-3.6750000000000003,1.1224375,0.2884375,0.2801875,1.422,1.10575,-0.13478125,-0.2054375,1.389125,0.017535636458275335,0.020062640883892306,True
13506,538,0,539,3674.0,40642.0,28500.0,-0.001281,-0.001403,0.0008539999999999999,0.29750000000000004,-1.435,-3.6400000000000006,1.10696875,0.280125,0.281125,1.4236875,1.10425,-0.13465625,-0.20140625,1.3829375,0.01718612627847144,0.01993814925527313,True
13507,539,0,540,3672.0,40640.0,28499.0,-0.000122,-0.000976,0.001647,0.2625,-1.5925000000000002,-3.6225000000000005,1.1182812500000001,0.29171875,0.2754375,1.41775,1.09759375,-0.13534375,-0.20115625,1.39353125,0.01769448591342313,0.01969301570043787,True
13508,540,0,541,3673.0,40640.0,28502.0,0.001037,-0.00122,0.0006709999999999999,0.28,-1.7325000000000002,-3.6575,1.10953125,0.283875,0.28415625,1.4213125,1.1010625,-0.13453125,-0.207125,1.3899375,0.01733641501738303,0.02029490284368755,True
13509,541,0,542,3673.0,40640.0,28500.0,0.0028669999999999998,0.000366,-0.0006709999999999999,0.28,-1.7850000000000001,-3.6225000000000005,1.11125,0.28550000000000003,0.27571875,1.417,1.099375,-0.13515625,-0.20240625,1.387875,0.017429191078885187,0.019755267102831976,True
13510,542,0,543,3674.0,40641.0,28502.0,0.001464,0.0017079999999999999,-6.1e-05,0.385,-1.7325000000000002,-3.6925000000000003,1.105875,0.2861875,0.27965625,1.43175,1.094875,-0.13484375,-0.2056875,1.39015625,0.017444954455112224,0.020050814503822706,True
13511,543,0,544,3675.0,40640.0,28501.0,0.0011589999999999999,0.0006709999999999999,0.000183,0.4025,-1.5925000000000002,-3.7275000000000005,1.10221875,0.28496875,0.28059375000000003,1.42971875,1.10584375,-0.13393750000000001,-0.20409375,1.389,0.017357559246186,0.020025021593712843,True
13512,544,0,545,3673.0,40642.0,28502.0,0.0,0.0008539999999999999,0.001281,0.28,-1.4000000000000001,-3.7100000000000004,1.10921875,0.29278125,0.275125,1.40359375,1.10034375,-0.13415625,-0.2015625,1.39678125,0.01769017717368926,0.019696558848214862,True
13513,545,0,546,3674.0,40639.0,28501.0,0.000732,0.000976,-0.000976,0.4025,-1.2775,-3.6050000000000004,1.134125,0.30162500000000003,0.26578125,1.400125,1.09040625,-0.13753125,-0.20059375000000002,1.39959375,0.018193917408185645,0.01927122139307016,True
13514,546,0,547,3672.0,40640.0,28500.0,0.000305,-0.000122,-0.001403,0.3325,-1.12,-3.5525,1.1429375,0.2963125,0.272,1.40628125,1.09328125,-0.13865625,-0.19978125,1.39603125,0.018019592536349244,0.01949526919793955,True
13515,547,0,548,3674.0,40641.0,28506.0,-0.000488,-0.001647,-0.000244,0.12250000000000001,-0.9100000000000001,-3.6400000000000006,1.12765625,0.29025,0.274625,1.42359375,1.092875,-0.136,-0.20409375,1.3925625,0.01766034139874047,0.01977842074752334,True
13516,548,0,549,3674.0,40646.0,28505.0,-0.000366,-0.001098,-0.000122,0.17500000000000002,-0.7525000000000001,-3.6925000000000003,1.1145,0.29196875,0.2795625,1.4172500000000001,1.10175,-0.13503125,-0.20271875,1.38775,0.017692125424532027,0.01992673860245556,True
13517,549,0,550,3675.0,40648.0,28506.0,-0.002013,-0.000244,-0.000366,0.052500000000000005,-0.7525000000000001,-3.6925000000000003,1.1175625,0.29015625,0.27628125,1.41059375,1.09934375,-0.130125,-0.20365625,1.3930625,0.017417284411083655,0.019829132220467723,True
13518,550,0,551,3673.0,40649.0,28509.0,-0.001586,-0.0018909999999999999,0.000793,0.07,-0.7175,-3.6925000000000003,1.1270625,0.29309375,0.2735625,1.4113437500000001,1.0935625,-0.13534375,-0.2015625,1.39140625,0.017751456305651333,0.019631996901026533,True
13519,551,0,552,3674.0,40651.0,28509.0,-0.0026839999999999998,0.000122,0.000122,0.08750000000000001,-0.7525000000000001,-3.6050000000000004,1.12940625,0.29303125,0.2731875,1.4098125000000001,1.09803125,-0.13525,-0.1993125,1.3923125,0.01774505132534364,0.019525348085818555,True
13520,552,0,553,3674.0,40654.0,28511.0,0.0006709999999999999,0.001037,0.000366,0.29750000000000004,-1.12,-3.6925000000000003,1.1268125,0.29309375,0.2733125,1.4111562500000001,1.09559375,-0.135125,-0.20146875,1.39240625,0.017742553643289603,0.01961786926671548,True
13521,553,0,554,3674.0,40652.0,28511.0,0.002196,0.002196,0.000488,0.31500000000000006,-1.1725,-3.7100000000000004,1.12765625,0.294625,0.27271875,1.3986875,1.0938125,-0.13509375,-0.20115625,1.39321875,0.017804726778821816,0.019580676026584476,True
13522,554,0,555,3675.0,40656.0,28511.0,0.001281,0.000305,-0.000122,0.43750000000000006,-1.2950000000000002,-3.5875000000000004,1.12553125,0.2934375,0.27690625,1.41053125,1.0984375,-0.135375,-0.2024375,1.391375,0.017766970681002473,0.01980559809316727,True
13523,555,0,556,3675.0,40657.0,28512.0,-0.000793,0.000793,6.1e-05,0.3325,-1.435,-3.6750000000000003,1.12684375,0.293875,0.2745,1.4165625,1.0936875,-0.1381875,-0.2,1.40025,0.017899541960223815,0.01960743801652893,True
13524,556,0,557,3676.0,40660.0,28513.0,-0.000244,-0.000305,-0.00042699999999999997,0.21000000000000002,-1.3650000000000002,-3.6400000000000006,1.1219375,0.29046875,0.27540625,1.41584375,1.0934375,-0.13484375,-0.2034375,1.39346875,0.017622343214879935,0.01978412157364011,True
13525,557,0,558,3676.0,40659.0,28512.0,0.000122,-0.00122,0.001769,0.2625,-1.5575,-3.5875000000000004,1.12171875,0.293,0.27209375,1.4108125,1.102875,-0.13603125,-0.203375,1.3936250000000001,0.01777555081678973,0.019644729299116342,True
13526,558,0,559,3676.0,40659.0,28514.0,0.001769,-0.000122,-0.000488,0.12250000000000001,-1.4000000000000001,-3.6575,1.12184375,0.28959375,0.27475,1.4151562500000001,1.1019375,-0.1363125,-0.19968750000000002,1.39784375,0.017645870718652652,0.01960510853704206,True
13527,559,0,560,3676.0,40660.0,28514.0,0.004148,-0.00042699999999999997,-0.001403,0.15750000000000003,-1.0325000000000002,-3.6750000000000003,1.122,0.29603125,0.2774375,1.4157187500000001,1.09278125,-0.13959375000000002,-0.19975,1.39215625,0.0180460783437998,0.019718695441068603,True
13528,560,0,561,3677.0,40668.0,28516.0,0.0030499999999999998,-0.00042699999999999997,-0.000732,0.14,-0.805,-3.6225000000000005,1.11565625,0.29146875,0.275,1.41728125,1.094,-0.136375,-0.20278125,1.3925625,0.017726098057392625,0.01974075809985681,True
13529,561,0,562,3678.0,40669.0,28520.0,-0.000122,-0.00042699999999999997,0.0006709999999999999,0.07,-0.56,-3.6400000000000006,1.12203125,0.2905625,0.27196875,1.4075625,1.099625,-0.13553125,-0.20275,1.39278125,0.01765421053244892,0.01961424838086581,True
13530,562,0,563,3677.0,40670.0,28522.0,-0.00366,0.000366,6.1e-05,0.17500000000000002,-0.45500000000000007,-3.5875000000000004,1.1258125,0.29084375,0.27465625,1.41034375,1.092375,-0.13771875,-0.199625,1.3940625,0.01775488829075863,0.01959870245923232,True
13531,563,0,564,3678.0,40669.0,28523.0,-0.002379,0.000122,0.001464,0.2625,-0.5075000000000001,-3.6400000000000006,1.12225,0.29325,0.2726875,1.4124375,1.10025,-0.1330625,-0.20046875,1.39775,0.017665080840858882,0.019551532447072955,True
13532,564,0,565,3678.0,40672.0,28523.0,-0.0023179999999999997,-0.000122,0.0021349999999999997,0.12250000000000001,-0.7875000000000001,-3.6400000000000006,1.12134375,0.2915625,0.27590625,1.41034375,1.09325,-0.1348125,-0.20115625,1.38465625,0.01766638957729628,0.019712384609722935,True
13533,565,0,566,3677.0,40671.0,28524.0,-0.0032329999999999998,-0.00042699999999999997,-0.000793,0.15750000000000003,-1.12,-3.6050000000000004,1.129875,0.293375,0.272125,1.4105625,1.0980625,-0.1365,-0.20078125,1.38746875,0.017810163031093985,0.019540949736901573,True
13534,566,0,567,3677.0,40670.0,28524.0,-0.0021349999999999997,6.1e-05,-0.002928,0.15750000000000003,-1.435,-3.7800000000000002,1.1224687500000001,0.29021875,0.27528125000000003,1.41215625,1.0943125,-0.1366875,-0.19821875,1.39271875,0.01768702726917271,0.019567555979714418,True
13535,567,0,568,3679.0,40674.0,28525.0,0.003355,-0.001037,0.002013,0.21000000000000002,-2.0475000000000003,-3.6575,1.12953125,0.29384375,0.27384375,1.4128125,1.08884375,-0.1384375,-0.20065625,1.39740625,0.017908418885853736,0.019606906320980447,True
13536,568,0,569,3679.0,40674.0,28527.0,0.004575,-0.00183,0.002379,0.1925,-2.1175,-3.6575,1.12240625,0.289875,0.27565625,1.4040000000000001,1.08696875,-0.1390625,-0.19978125,1.39265625,0.01776943491488122,0.0196463552743891,True
13537,569,0,570,3679.0,40677.0,28527.0,0.001647,0.000549,-0.000793,0.29750000000000004,-1.8025000000000002,-3.6575,1.12896875,0.29646875,0.27171875,1.4050625,1.1035,-0.13478125,-0.202,1.3965625,0.017868403095636098,0.019573537310966036,True
13538,570,0,571,3679.0,40679.0,28530.0,0.00122,0.002074,-0.001586,0.24500000000000002,-1.61,-3.7975000000000003,1.1224687500000001,0.294875,0.27521875,1.41584375,1.09275,-0.14309375,-0.20071875,1.40675,0.018140539672965486,0.019666254747082668,True
13539,571,0,572,3682.0,40678.0,28529.0,-0.001586,0.00183,0.000305,0.12250000000000001,-1.33,-3.6575,1.12153125,0.29378125,0.2715625,1.41159375,1.0951250000000001,-0.1345,-0.20546875,1.3863125,0.017745602767822,0.019707581576993836,True
13540,572,0,573,3680.0,40678.0,28530.0,-0.00042699999999999997,0.0006709999999999999,-0.001769,0.1925,-0.9450000000000001,-3.7100000000000004,1.12334375,0.291,0.2749375,1.41975,1.0895,-0.1393125,-0.19846875,1.3970625,0.017826211910550477,0.019563479610667515,True
13541,573,0,574,3682.0,40678.0,28530.0,-0.000244,0.00061,0.00042699999999999997,0.22750000000000004,-0.9625000000000001,-3.7800000000000002,1.1225,0.28996875,0.27953125,1.41084375,1.08646875,-0.137625,-0.19621875,1.38734375,0.01771482281293209,0.019662163122078736,True
13542,574,0,575,3681.0,40682.0,28533.0,-0.00061,-0.000549,0.0013419999999999999,0.29750000000000004,-1.1725,-3.6925000000000003,1.1303125,0.2931875,0.2764375,1.41003125,1.11078125,-0.13384375,-0.20759375,1.38584375,0.017694290823441663,0.019995017059471265,True
13543,575,0,576,3682.0,40681.0,28533.0,-0.001647,-0.0026839999999999998,0.00122,0.3325,-1.435,-3.5875000000000004,1.12540625,0.2934375,0.27275,1.41309375,1.08378125,-0.1326875,-0.19878125,1.4015312500000001,0.017657585795199975,0.01948574372934587,True
13544,576,0,577,3682.0,40682.0,28533.0,-0.000122,-0.0015249999999999999,-0.001769,0.22750000000000004,-1.4525000000000001,-3.5875000000000004,1.1220937500000001,0.292625,0.27546875,1.41034375,1.0803125,-0.1391875,-0.20159375000000002,1.3855,0.017888443842610697,0.019712028262601506,True
13545,577,0,578,3684.0,40683.0,28534.0,0.00244,0.000488,0.001281,0.24500000000000002,-1.5750000000000002,-3.7450000000000006,1.1291875,0.294,0.2725625,1.41078125,1.10896875,-0.13275,-0.2023125,1.39284375,0.017683438480902505,0.01962105893806635,True
13546,578,0,579,3683.0,40686.0,28535.0,0.00122,-0.0006709999999999999,-6.1e-05,0.24500000000000002,-1.4525000000000001,-3.6750000000000003,1.12415625,0.29331250000000003,0.2713125,1.41184375,1.0859375,-0.13359375,-0.20075,1.39725,0.017689294616554985,0.0195061103478198,True
13547,579,0,580,3684.0,40687.0,28535.0,-0.001403,0.0011589999999999999,-0.001098,0.22750000000000004,-1.155,-3.6400000000000006,1.127875,0.29328125,0.2745,1.4110625,1.095,-0.13890625,-0.19896875,1.40015625,0.017904187353144883,0.019565658144006653,True
13548,580,0,581,3684.0,40688.0,28537.0,-0.002379,0.001647,0.000244,0.17500000000000002,-1.2425000000000002,-3.6750000000000003,1.12590625,0.29309375,0.2743125,1.41040625,1.0858125,-0.13540625,-0.19759375,1.39521875,0.01775399989382818,0.019502197403409173,True
13549,581,0,582,3683.0,40686.0,28536.0,-0.0028669999999999998,0.000488,0.002562,0.2625,-1.1900000000000002,-3.6050000000000004,1.127,0.29325,0.27278125000000003,1.410875,1.089875,-0.13446875,-0.20046875,1.395125,0.017722318830821582,0.019555406338978457,True
13550,582,0,583,3684.0,40688.0,28538.0,0.000915,0.001464,-0.002257,0.29750000000000004,-1.3125000000000002,-3.5700000000000003,1.12928125,0.29328125,0.27546875,1.4160625,1.0931250000000001,-0.13553125,-0.19790625,1.3919375,0.017766855660158714,0.019562642945606088,True
13551,583,0,584,3682.0,40689.0,28537.0,0.003477,0.0013419999999999999,-0.001037,0.3325,-1.3650000000000002,-3.5175000000000005,1.1216875,0.28959375,0.27525,1.41796875,1.10128125,-0.136625,-0.2018125,1.39421875,0.017658589384389904,0.0197118500938721,True
13552,584,0,585,3686.0,40692.0,28539.0,0.001647,-6.1e-05,0.000793,0.31500000000000006,-1.2075,-3.5525,1.1223750000000001,0.29365625,0.27296875,1.411125,1.093625,-0.1380625,-0.19818750000000002,1.3960625,0.017885393659909533,0.019470724821848744,True
13553,585,0,586,3685.0,40694.0,28542.0,-0.0006709999999999999,-0.002623,0.000915,0.12250000000000001,-1.12,-3.5525,1.12775,0.293625,0.275125,1.40978125,1.09278125,-0.137375,-0.19821875,1.3960937500000001,0.01785612561432219,0.01956109889286789,True
13554,586,0,587,3687.0,40698.0,28544.0,-0.002257,-0.001952,-0.001464,0.08750000000000001,-1.155,-3.7100000000000004,1.1264687500000001,0.29346875,0.27275,1.4113437500000001,1.09390625,-0.13765625,-0.20109375000000002,1.399,0.017861096186586052,0.01957943533027304,True
13555,587,0,588,3688.0,40700.0,28546.0,-0.001403,0.00042699999999999997,0.001769,0.21000000000000002,-1.225,-3.6925000000000003,1.12578125,0.29296875,0.27490625,1.4129375,1.0933125000000001,-0.13628125,-0.201125,1.39140625,0.017784429819734555,0.019669798408131853,True
13556,588,0,589,3687.0,40701.0,28544.0,-0.000793,-0.001281,0.0021349999999999997,0.052500000000000005,-1.3475000000000001,-3.7800000000000002,1.12240625,0.29225,0.2754375,1.41675,1.09315625,-0.13625,-0.20021875,1.39290625,0.01775337925319799,0.019655039275213164,True
13557,589,0,590,3687.0,40701.0,28546.0,-0.001647,-0.001647,-0.000549,0.0175,-1.6275000000000002,-3.6750000000000003,1.12184375,0.29384375,0.27453125,1.419125,1.0930625,-0.1389375,-0.20009375000000001,1.3995625,0.017928761363253873,0.019612527327502606,True
13558,590,0,591,3689.0,40703.0,28548.0,-0.0021349999999999997,0.0006709999999999999,0.000122,0.22750000000000004,-1.995,-3.7975000000000003,1.1223750000000001,0.29403125,0.27446875,1.41921875,1.09128125,-0.135875,-0.20009375000000001,1.39978125,0.017811918979527365,0.019609944692879546,True
13559,591,0,592,3688.0,40701.0,28548.0,0.001037,0.001952,-0.0008539999999999999,0.29750000000000004,-2.3625000000000003,-3.7275000000000005,1.11575,0.28909375,0.27578125000000003,1.41875,1.0930625,-0.1371875,-0.199875,1.39146875,0.017660767228990532,0.01965531846755407,True
13560,592,0,593,3686.0,40701.0,28544.0,0.00488,-6.1e-05,-0.000732,0.21000000000000002,-2.5375,-3.7100000000000004,1.11915625,0.28828125,0.27640625,1.3995625,1.1000625,-0.13553125,-0.2025625,1.39159375,0.01755969220689932,0.019790001575246425,True
13561,593,0,594,3688.0,40701.0,28545.0,0.004331,0.001281,-0.000915,0.28,-2.3800000000000003,-3.7100000000000004,1.12721875,0.29425,0.2700625,1.4083125,1.0968125,-0.1361875,-0.1978125,1.39846875,0.01783369888057093,0.019335425464595195,True
13562,594,0,595,3685.0,40701.0,28541.0,0.00183,0.000793,-0.000793,0.36750000000000005,-2.1,-3.7275000000000005,1.11903125,0.29121875,0.2765,1.40928125,1.0936875,-0.130875,-0.20309375000000002,1.3918125000000001,0.017491854315270377,0.019815390336204438,True
13563,595,0,596,3686.0,40699.0,28542.0,0.00061,-6.1e-05,-6.1e-05,0.42000000000000004,-1.8550000000000002,-3.7275000000000005,1.12984375,0.29365625,0.27475,1.4036250000000001,1.1005625,-0.13603125,-0.2004375,1.39225,0.017802740456760058,0.019635492126950184,True
13564,596,0,597,3683.0,40700.0,28539.0,0.0011589999999999999,-6.1e-05,-0.00122,0.28,-1.5050000000000001,-3.7975000000000003,1.1127500000000001,0.28940625000000003,0.27659375,1.4118125000000001,1.09296875,-0.1364375,-0.20153125,1.3917187500000001,0.017643189886659954,0.019755981349320616,True
13565,597,0,598,3684.0,40701.0,28539.0,-0.003538,-0.0008539999999999999,0.000732,0.29750000000000004,-0.9975,-3.7625,1.130125,0.29471875000000003,0.27215625,1.4110625,1.09871875,-0.1355,-0.20109375000000002,1.39725,0.017825143460877133,0.019554901315152338,True
13566,598,0,599,3682.0,40700.0,28540.0,-0.005978,-0.00122,0.00244,0.29750000000000004,-1.0150000000000001,-3.7275000000000005,1.118625,0.28653125,0.275125,1.4092500000000001,1.0929375000000001,-0.13446875,-0.202375,1.3961875000000001,0.017443930685236236,0.019729468698836378,True
13567,599,0,600,3681.0,40698.0,28537.0,-0.007503,-0.00042699999999999997,0.0008539999999999999,0.28,-1.2600000000000002,-3.6750000000000003,1.1215625,0.2939375,0.275875,1.41346875,1.09059375,-0.13515625,-0.19759375,1.3917187500000001,0.01777878483798919,0.019566769939676338,True
13568,600,0,601,3679.0,40693.0,28532.0,-0.005978,0.000793,0.000366,0.4025,-1.8550000000000002,-3.6575,1.12478125,0.29531250000000003,0.271125,1.410375,1.09753125,-0.1355625,-0.19721875,1.3945,0.01785228746999371,0.019355271977280444,True
13569,601,0,602,3678.0,40691.0,28531.0,0.004392,0.0006709999999999999,0.000366,0.5075000000000001,-2.3625000000000003,-3.7100000000000004,1.11959375,0.2900625,0.278625,1.41528125,1.09334375,-0.13621875,-0.20259375000000002,1.39225,0.017661476075244802,0.019882941265334426,True
13570,602,0,603,3677.0,40689.0,28532.0,0.005795,0.001464,-0.0011589999999999999,0.5775,-2.975,-3.6750000000000003,1.12475,0.29353125,0.2734375,1.41021875,1.09753125,-0.13640625,-0.2011875,1.39646875,0.017812821658153854,0.01961164095770094,True
13571,603,0,604,3676.0,40692.0,28532.0,0.006527,0.001647,-0.000793,0.5950000000000001,-2.9925,-3.7800000000000002,1.1215,0.29709375,0.275375,1.41946875,1.09353125,-0.13609375,-0.19915625,1.39165625,0.017947705394540076,0.01960941303480364,True
13572,604,0,605,3676.0,40689.0,28529.0,0.00366,0.000976,-0.000549,0.49000000000000005,-2.6775,-3.7800000000000002,1.12178125,0.29081250000000003,0.27590625,1.40984375,1.10171875,-0.13515625,-0.20534375,1.39340625,0.017649305667950668,0.019881973376230197,True
13573,605,0,606,3675.0,40687.0,28527.0,0.002196,-0.0008539999999999999,-0.00061,0.385,-2.3975000000000004,-3.5700000000000003,1.12790625,0.29331250000000003,0.274875,1.4115312500000001,1.11315625,-0.1358125,-0.20415625,1.38825,0.017779596191344296,0.01979128068139124,True
13574,606,0,607,3673.0,40687.0,28528.0,-0.000305,-0.000732,0.000366,0.29750000000000004,-1.715,-3.6925000000000003,1.1240937500000001,0.2930625,0.27540625,1.4181875,1.080375,-0.1403125,-0.198,1.41678125,0.017952335952568964,0.019563858583353997,True
13575,607,0,608,3673.0,40684.0,28525.0,-6.1e-05,-0.000183,0.000244,0.24500000000000002,-1.4175000000000002,-3.7625,1.1214375,0.29453125,0.27490625,1.40984375,1.0805625,-0.1391875,-0.20196875,1.38203125,0.01796741294627253,0.019703975528850316,True
13576,608,0,609,3673.0,40685.0,28527.0,-0.00042699999999999997,-0.00061,-0.00061,0.24500000000000002,-1.0850000000000002,-3.7450000000000006,1.12796875,0.29353125,0.27328125000000003,1.4040000000000001,1.1146875,-0.128375,-0.20253125,1.40128125,0.01748589575551607,0.01965961721462502,True
13577,609,0,610,3673.0,40687.0,28529.0,-0.0023179999999999997,-0.000793,0.000305,0.29750000000000004,-1.05,-3.6575,1.12140625,0.29025,0.27465625,1.4154375000000001,1.0810625,-0.1453125,-0.19665625,1.4114375000000001,0.01803921568627451,0.019478414502003764,True
13578,610,0,611,3672.0,40687.0,28529.0,-0.005246,-0.000122,0.000244,0.22750000000000004,-1.0850000000000002,-3.6925000000000003,1.12290625,0.2915,0.27546875,1.41590625,1.08034375,-0.14765625000000002,-0.1945,1.400875,0.018186288783202303,0.01942461096530203,True
13579,611,0,612,3671.0,40689.0,28532.0,-0.002745,-0.000366,0.0,0.29750000000000004,-1.33,-3.5875000000000004,1.1148437500000001,0.29046875,0.27425,1.40940625,1.09440625,-0.1393125,-0.2025,1.3780625,0.017804204241525106,0.019698378266707985,True
13580,612,0,613,3672.0,40687.0,28531.0,0.000366,0.000976,0.00042699999999999997,0.29750000000000004,-1.4700000000000002,-3.535,1.1305,0.30012500000000003,0.27284375,1.4185625,1.11703125,-0.1338125,-0.19478125000000002,1.41340625,0.01798047863345255,0.019327515102042926,True
13581,613,0,614,3673.0,40690.0,28531.0,0.002928,0.001098,-0.000915,0.28,-1.6975000000000002,-3.5875000000000004,1.12165625,0.28975,0.27137500000000003,1.41075,1.08109375,-0.1399375,-0.2106875,1.3819375,0.01779985967237902,0.019911144613303528,True
13582,614,0,615,3672.0,40692.0,28531.0,0.0034159999999999998,0.000366,-0.000122,0.2625,-1.9250000000000003,-3.7625,1.12103125,0.2970625,0.27209375,1.41090625,1.10528125,-0.1394375,-0.2001875,1.40221875,0.01808244289039461,0.019515602926630217,True
13583,615,0,616,3671.0,40693.0,28532.0,0.002257,-0.0006709999999999999,0.001098,0.31500000000000006,-1.9425000000000001,-3.6225000000000005,1.129625,0.29940625,0.27509375,1.41496875,1.086125,-0.13946875,-0.1968125,1.400875,0.01818080607097039,0.019502827076913542,True
13584,616,0,617,3671.0,40691.0,28531.0,-0.000488,0.001403,-0.000793,0.385,-1.61,-3.7450000000000006,1.121875,0.29109375,0.2748125,1.41140625,1.0850625,-0.1385,-0.1995,1.38421875,0.017797035855583402,0.01960009504328602,True
13585,617,0,618,3672.0,40691.0,28533.0,-0.002745,-0.0006709999999999999,-0.000549,0.47250000000000003,-1.4875,-3.7275000000000005,1.12865625,0.29315625,0.27503125,1.41678125,1.08915625,-0.1373125,-0.19946875,1.39053125,0.01783416235755327,0.019607868457856125,True
13586,618,0,619,3671.0,40691.0,28530.0,-0.003172,-0.00061,0.0,0.36750000000000005,-1.6275000000000002,-3.6925000000000003,1.12159375,0.29234375,0.27271875,1.4106875,1.09925,-0.135875,-0.2029375,1.3936875,0.017742002309839605,0.01965283139701534,True
13587,619,0,620,3672.0,40688.0,28530.0,-0.002013,-0.000366,0.001037,0.3325,-1.6975000000000002,-3.6575,1.12603125,0.293625,0.2750625,1.40690625,1.0935,-0.13734375000000001,-0.199375,1.3990625,0.017854854057833103,0.019605361708721816,True
13588,620,0,621,3672.0,40688.0,28528.0,-0.001098,0.000244,-0.001586,0.42000000000000004,-1.8725000000000003,-3.7100000000000004,1.12146875,0.29021875,0.274625,1.4150625000000001,1.09653125,-0.13565625,-0.19659375,1.3919375,0.017645055746101788,0.019474590302612324,True
13589,621,0,622,3671.0,40686.0,28528.0,0.0018909999999999999,0.000549,0.000732,0.45500000000000007,-2.5725000000000002,-3.6750000000000003,1.123,0.29371875000000003,0.273875,1.4117187500000001,1.08953125,-0.1345625,-0.20109375000000002,1.3902812500000001,0.017745556812973098,0.019625920832607,True
13590,622,0,623,3671.0,40685.0,28527.0,0.002257,0.000305,-0.000915,0.525,-2.6250000000000004,-3.7450000000000006,1.1263750000000001,0.29303125,0.275125,1.41184375,1.093875,-0.13728125,-0.20175,1.3977187500000001,0.017827712058498715,0.019704153625254375,True
13591,623,0,624,3670.0,40684.0,28525.0,0.00488,0.000549,-0.001098,0.45500000000000007,-2.5725000000000002,-3.6750000000000003,1.125375,0.2985625,0.27271875,1.410375,1.08684375,-0.13593750000000002,-0.20065625,1.39384375,0.018002201074642326,0.019560419978280546,True
13592,624,0,625,3670.0,40686.0,28523.0,0.005307,0.000122,-0.000976,0.43750000000000006,-2.3800000000000003,-3.5875000000000004,1.1280937500000001,0.29315625,0.276875,1.4175625,1.0925625,-0.135375,-0.203375,1.39265625,0.017755317661316636,0.019842274063018066,True
13593,625,0,626,3670.0,40686.0,28527.0,0.0051849999999999995,-6.1e-05,0.00061,0.5075000000000001,-1.8550000000000002,-3.6750000000000003,1.122875,0.29215625,0.27125,1.4114375000000001,1.1009375000000001,-0.13475,-0.2001875,1.39015625,0.01768844715607164,0.019480737494285943,True
13594,626,0,627,3669.0,40688.0,28525.0,-0.002928,-0.000915,0.000244,0.22750000000000004,-1.1025,-3.6750000000000003,1.1444375,0.29384375,0.26909375,1.4057187500000001,1.09346875,-0.14,-0.20090625,1.39840625,0.017971986329743166,0.019420760327931937,True
13595,627,0,628,3670.0,40689.0,28528.0,-0.00549,-0.000488,0.0013419999999999999,0.15750000000000003,-0.8400000000000001,-3.6400000000000006,1.13315625,0.29390625,0.27918750000000003,1.4091875,1.08746875,-0.1365625,-0.201,1.3931875,0.01783471652187423,0.01984163877525722,True
13596,628,0,629,3673.0,40688.0,28527.0,-0.005978,-0.000732,0.0008539999999999999,0.08750000000000001,-0.7175,-3.6050000000000004,1.12528125,0.2945625,0.2739375,1.40440625,1.0925625,-0.13909375000000002,-0.20121875,1.40015625,0.017964893566064385,0.019633567007859884,True
13597,629,0,630,3671.0,40688.0,28528.0,-0.0037819999999999998,-0.0011589999999999999,0.0006709999999999999,0.14,-0.8750000000000001,-3.6400000000000006,1.1320937500000001,0.2940625,0.27175,1.40459375,1.09446875,-0.1379375,-0.200375,1.3990625,0.01789713806326659,0.019508995211851055,True
13598,630,0,631,3672.0,40687.0,28530.0,-0.002013,0.000366,0.000366,0.22750000000000004,-1.155,-3.6925000000000003,1.13728125,0.29453125,0.26925,1.399875,1.09353125,-0.13765625,-0.2004375,1.39490625,0.01790511454483076,0.019408223508355995,True
13599,631,0,632,3669.0,40690.0,28530.0,0.002928,0.000366,-6.1e-05,0.3325,-1.4875,-3.6225000000000005,1.12515625,0.2989375,0.274875,1.42428125,1.09615625,-0.135875,-0.20340625,1.39078125,0.01801519522287881,0.019760906587270127,True
13600,632,0,633,3671.0,40694.0,28532.0,0.0034159999999999998,-0.000549,-0.0006709999999999999,0.28,-1.5225000000000002,-3.6225000000000005,1.1162812500000001,0.28878125,0.27678125,1.42665625,1.10171875,-0.13546875,-0.202125,1.39225,0.017577864527698474,0.019787776899755704,True
13601,633,0,634,3670.0,40696.0,28533.0,0.002257,-0.001037,-0.0006709999999999999,0.3325,-1.435,-3.6750000000000003,1.1158125,0.28371875,0.2770625,1.425375,1.101375,-0.13515625,-0.204125,1.392625,0.017355387951963227,0.01988039228850454,True
13602,634,0,635,3672.0,40697.0,28533.0,0.001281,0.001098,-0.0008539999999999999,0.35000000000000003,-1.2600000000000002,-3.6400000000000006,1.11603125,0.286875,0.28503125,1.417375,1.09984375,-0.13471875,-0.2023125,1.39184375,0.01746835148016796,0.02013624731107823,True
13603,635,0,636,3672.0,40696.0,28532.0,-6.1e-05,0.000366,0.000305,0.2625,-0.9975,-3.7450000000000006,1.11640625,0.2876875,0.27559375,1.40609375,1.10115625,-0.13521875,-0.20234375000000002,1.3944375,0.017522370705672596,0.019747570935149616,True
