frame_seq,absolute_seq_u64,segment_id,sample_seq,PPG_G,PPG_R,PPG_IR,ACC_X,ACC_Y,ACC_Z,GYRO_X,GYRO_Y,GYRO_Z,Uh1,Uh2,Uh3,Uh4,Uc1,Uc2,Uc3,Uc4,UD1,UD2,parser_valid
11533,168079,0,168080,3923.0,43288.0,30261.0,0.001098,-0.000793,-0.001281,0.36750000000000005,-2.1,-3.7800000000000002,1.130625,0.11175,-0.19884375,1.30490625,1.07675,-0.41040625000000003,-0.98428125,1.2414375,0.021390723474747575,0.031437266181111374,True
11534,168080,0,168081,3924.0,43287.0,30261.0,0.001647,-0.000732,-0.0013419999999999999,0.35000000000000003,-2.1525000000000003,-3.8325000000000005,1.1231875,0.11621875,-0.1914375,1.2884375000000001,1.08109375,-0.40909375000000003,-0.9808125,1.23753125,0.02152117999055168,0.03159925242623714,True
11535,168081,0,168082,3923.0,43287.0,30259.0,0.002074,-0.000366,6.1e-05,0.35000000000000003,-2.1,-3.7800000000000002,1.12003125,0.11565625,-0.19593750000000001,1.30771875,1.0765,-0.40846875,-0.980625,1.23828125,0.02147307991206945,0.03141184417923891,True
11536,168082,0,168083,3921.0,43291.0,30260.0,0.0018909999999999999,0.000244,0.0023179999999999997,0.525,-1.8725000000000003,-3.7100000000000004,1.1210625,0.11521875000000001,-0.1930625,1.295125,1.08040625,-0.40159375,-0.97990625,1.23475,0.02117945677216268,0.03149906737540298,True
11537,168083,0,168084,3922.0,43283.0,30260.0,-0.0011589999999999999,0.0008539999999999999,-0.0023179999999999997,0.47250000000000003,-1.12,-3.8325000000000005,1.13278125,0.11103125,-0.194,1.295375,1.07634375,-0.40871875,-0.9790625000000001,1.238375,0.021293620747709262,0.031428821638121926,True
11538,168084,0,168085,3921.0,43287.0,30259.0,-0.002928,-0.00042699999999999997,-0.003538,0.45500000000000007,-0.36750000000000005,-3.7450000000000006,1.11978125,0.11528125,-0.19615625,1.30265625,1.07646875,-0.40921875,-0.9800625000000001,1.236875,0.021487783176182152,0.031381276568063034,True
11539,168085,0,168086,3923.0,43284.0,30260.0,-0.004941,0.0011589999999999999,0.004331,0.36750000000000005,0.49000000000000005,-3.6400000000000006,1.1260625,0.11540625,-0.192625,1.2969375,1.0804375,-0.4000625,-0.980125,1.23471875,0.02112571432962518,0.03152506242462758,True
11540,168086,0,168087,3920.0,43283.0,30259.0,-0.010187,-0.000122,0.005307,0.385,0.77,-3.6575,1.12259375,0.1188125,-0.19390625,1.290875,1.07746875,-0.40821875,-0.98046875,1.23521875,0.02159236834928809,0.031487099296325254,True
11541,168087,0,168088,3920.0,43286.0,30261.0,-0.015493999999999999,0.0008539999999999999,0.0006709999999999999,0.385,0.385,-3.5700000000000003,1.12975,0.11146875,-0.195625,1.29765625,1.08025,-0.41103125,-0.98290625,1.23578125,0.021404257552617732,0.031512796874863185,True
11542,168088,0,168089,3922.0,43288.0,30266.0,-0.003965,0.001769,0.001403,0.5075000000000001,-2.7300000000000004,-3.7450000000000006,1.12253125,0.114625,-0.19353125000000002,1.30440625,1.0775000000000001,-0.4086875,-0.98153125,1.25515625,0.021439600142367343,0.03154330261480669,True
11543,168089,0,168090,3923.0,43292.0,30268.0,0.011773,0.001403,0.001098,0.29750000000000004,-4.2175,-3.9375000000000004,1.1289375,0.11496875000000001,-0.18803125,1.29184375,1.08190625,-0.4079375,-0.98075,1.2311875,0.021423614756470106,0.03173318455210512,True
11544,168090,0,168091,3924.0,43296.0,30273.0,0.024522,-0.0015249999999999999,-0.003355,0.0,-5.285,-4.112500000000001,1.12584375,0.11621875,-0.19696875,1.30521875,1.10384375,-0.41809375,-0.9839375,1.242375,0.02188182687274677,0.03149898809985416,True
11545,168091,0,168092,3923.0,43300.0,30277.0,0.030683,-0.002562,-0.007137,-0.28,-5.1275,-4.235,1.122125,0.1149375,-0.18790625,1.29321875,1.0641875,-0.40525,-0.9754375000000001,1.240375,0.02131457370852583,0.031532230416384095,True
11546,168092,0,168093,3924.0,43301.0,30275.0,0.02745,-0.0050019999999999995,-0.007137,-0.43750000000000006,-3.7450000000000006,-4.112500000000001,1.1213125,0.11490625,-0.19371875,1.2895625,1.08046875,-0.40471875,-0.97596875,1.22453125,0.021291988869980318,0.0313201064523273,True
11547,168093,0,168094,3925.0,43297.0,30274.0,-0.0030499999999999998,-0.00244,0.000549,-0.17500000000000002,0.665,-3.5525,1.12321875,0.1145625,-0.19321875,1.29865625,1.0694062500000001,-0.4058125,-0.97509375,1.2238437500000001,0.021321765050845983,0.03130618879058262,True
11548,168094,0,168095,3925.0,43294.0,30272.0,-0.020313,0.0,0.0048189999999999995,0.12250000000000001,2.765,-3.3775000000000004,1.11825,0.115125,-0.19340625,1.29878125,1.06303125,-0.40465625,-0.9734375000000001,1.22465625,0.02129844586522295,0.031234436588875685,True
11549,168095,0,168096,3925.0,43292.0,30273.0,-0.031415,0.002745,0.006161,0.49000000000000005,3.7625,-3.1850000000000005,1.113875,0.12165625000000001,-0.196875,1.3035625,1.05703125,-0.409375,-0.991125,1.25571875,0.02175521700166432,0.03178128235523611,True
11550,168096,0,168097,3926.0,43291.0,30271.0,-0.034709,0.005307,0.005307,0.6825000000000001,3.7100000000000004,-3.22,1.1184687500000001,0.11471875000000001,-0.19378125000000002,1.2981562500000001,1.1016875,-0.4130625,-0.9830625000000001,1.2444375,0.02161880550627354,0.03159265402310065,True
11551,168097,0,168098,3928.0,43291.0,30275.0,-0.027206,0.005795,0.0034159999999999998,0.7175,2.5025000000000004,-3.3600000000000003,1.1219375,0.11465625,-0.19315625,1.29734375,1.062625,-0.40750000000000003,-0.97778125,1.22484375,0.021393270511113387,0.03141291823107787,True
11552,168098,0,168099,3927.0,43293.0,30277.0,0.004331,0.0015249999999999999,0.000183,0.15750000000000003,-1.54,-3.6750000000000003,1.1128125,0.1155,-0.19325,1.29925,1.06365625,-0.40503125,-0.9735312500000001,1.2443125,0.021328849968180227,0.03124432993431796,True
11553,168099,0,168100,3927.0,43295.0,30279.0,0.016836,-0.00183,-0.0025009999999999998,-0.1925,-3.2725000000000004,-3.9200000000000004,1.11796875,0.1135625,-0.19496875,1.295875,1.08653125,-0.40828125,-0.9851562500000001,1.24253125,0.021379782732551065,0.03162627810262344,True
11554,168100,0,168101,3930.0,43301.0,30284.0,0.02562,-0.004148,-0.008052,-0.35000000000000003,-4.0425,-3.99,1.12825,0.11021875,-0.19775,1.300375,1.086,-0.417125,-0.9803437500000001,1.2291875,0.021597290835837554,0.03132838194030057,True
11555,168101,0,168102,3931.0,43302.0,30285.0,0.024827,-0.0046359999999999995,-0.00488,-0.3325,-4.095000000000001,-3.9725000000000006,1.12278125,0.11415625,-0.1903125,1.300125,1.0645625,-0.4073125,-0.9801875,1.2348125,0.02136526706903925,0.031620058896675615,True
11556,168102,0,168103,3934.0,43304.0,30286.0,0.019459,-0.0035989999999999998,-0.000183,-0.35000000000000003,-3.3600000000000003,-3.8675,1.127375,0.113375,-0.196125,1.30446875,1.07115625,-0.40928125,-0.98353125,1.24296875,0.0214121933639484,0.03151701183154403,True
11557,168103,0,168104,3936.0,43306.0,30286.0,0.001769,-0.000915,-0.002013,-0.2625,0.3325,-3.7100000000000004,1.12890625,0.11559375000000001,-0.19309375,1.29821875,1.08403125,-0.41115625,-0.97721875,1.2308125,0.02157824867472224,0.03139360742476582,True
11558,168104,0,168105,3933.0,43305.0,30285.0,-0.008479,-0.000183,0.000122,0.0,1.8550000000000002,-3.5525,1.12346875,0.11503125,-0.19246875,1.2980625000000001,1.0750625,-0.40815625,-0.979375,1.2351875,0.021434945542025526,0.03150223934746166,True
11559,168105,0,168106,3935.0,43304.0,30286.0,-0.017811999999999998,0.0021349999999999997,0.0044529999999999995,0.35000000000000003,2.8350000000000004,-3.3075,1.12296875,0.11421875000000001,-0.1935625,1.29359375,1.0733125000000001,-0.40815625,-0.980375,1.2356562500000001,0.021401657488979733,0.031497225321877674,True
11560,168106,0,168107,3937.0,43300.0,30286.0,-0.02257,0.0042699999999999995,0.0059169999999999995,0.49000000000000005,3.0975,-3.3075,1.12375,0.11409375000000001,-0.19590625,1.30075,1.0771875,-0.41028125,-0.98265625,1.24234375,0.021481727089891683,0.031491847469181745,True
11561,168107,0,168108,3937.0,43297.0,30284.0,-0.022021,0.003843,0.0048189999999999995,0.5425000000000001,2.5725000000000002,-3.3950000000000005,1.12078125,0.1155625,-0.19325,1.2985312500000001,1.08365625,-0.4131875,-0.9814375000000001,1.242,0.021658376236204303,0.03155092656297301,True
11562,168108,0,168109,3938.0,43296.0,30284.0,-0.0066489999999999995,0.0017079999999999999,0.0015249999999999999,0.21000000000000002,-0.24500000000000002,-3.6225000000000005,1.1231875,0.11575,-0.19275,1.29790625,1.07828125,-0.40840625,-0.9794375000000001,1.2286875,0.021474415192511802,0.031493403324234184,True
11563,168109,0,168110,3938.0,43298.0,30287.0,0.003843,-0.0017079999999999999,-6.1e-05,0.07,-1.8725000000000003,-3.8325000000000005,1.123125,0.11446875000000001,-0.19315625,1.3011875,1.0771875,-0.40859375000000003,-0.9803437500000001,1.2335,0.021429440194603588,0.03151227652741968,True
11564,168110,0,168111,3940.0,43302.0,30291.0,0.012261,-0.0032329999999999998,-0.003294,-0.22750000000000004,-3.0275000000000003,-3.7975000000000003,1.12734375,0.10975,-0.19759375,1.31615625,1.0728125,-0.40878125,-0.980125,1.2353750000000001,0.021243635423214748,0.03132615429266267,True
11565,168111,0,168112,3941.0,43305.0,30297.0,0.01525,-0.0050019999999999995,-0.0051849999999999995,-0.43750000000000006,-3.5525,-3.8500000000000005,1.14490625,0.109125,-0.19271875,1.2862500000000001,1.07653125,-0.4100625,-0.98078125,1.2366875,0.02126940477927904,0.031546751565265804,True
11566,168112,0,168113,3943.0,43307.0,30299.0,0.013054,-0.001586,-0.002257,-0.2625,-3.3425000000000002,-3.9200000000000004,1.13909375,0.117125,-0.19115625,1.2923437500000001,1.07715625,-0.41065625,-0.98184375,1.23640625,0.021620936553067883,0.03165048616557775,True
11567,168113,0,168114,3945.0,43307.0,30300.0,0.008418,-0.000183,-0.0015249999999999999,0.10500000000000001,-1.9600000000000002,-3.8325000000000005,1.1199375,0.10884375,-0.19865625,1.30984375,1.076125,-0.408625,-0.98021875,1.23715625,0.021200241717835397,0.03128725604134271,True
11568,168114,0,168115,3946.0,43309.0,30302.0,0.001647,0.001281,0.000488,0.31500000000000006,-0.9450000000000001,-3.7275000000000005,1.1176875,0.116875,-0.19015625,1.2923125,1.08415625,-0.4119375,-0.98178125,1.2435625000000001,0.021662045464437226,0.03168809269755334,True
11569,168115,0,168116,3946.0,43310.0,30300.0,-0.0064659999999999995,0.0025009999999999998,0.001403,0.525,-0.07,-3.535,1.11521875,0.115625,-0.19146875,1.29296875,1.08228125,-0.40815625,-0.97896875,1.23271875,0.021459271426943604,0.03152652168636866,True
11570,168116,0,168117,3947.0,43310.0,30302.0,-0.009577,0.0032329999999999998,0.00183,0.6125,0.385,-3.6050000000000004,1.13090625,0.109875,-0.19425,1.29496875,1.0764375,-0.40850000000000003,-0.980625,1.2433750000000001,0.021237478747157753,0.03147939653231254,True
11571,168117,0,168118,3949.0,43313.0,30304.0,-0.0060999999999999995,0.0017079999999999999,0.001647,0.36750000000000005,0.49000000000000005,-3.535,1.1142812500000001,0.11709375,-0.1831875,1.29221875,1.08375,-0.4106875,-0.9833125,1.2345,0.0216209088744428,0.03202637760705271,True
11572,168118,0,168119,3951.0,43311.0,30303.0,-0.004575,0.000976,-0.000549,0.21000000000000002,0.31500000000000006,-3.4475000000000002,1.113125,0.112375,-0.19618750000000001,1.31225,1.076875,-0.408875,-0.9798125,1.23515625,0.021354937497119388,0.031370331542720745,True
11573,168119,0,168120,3952.0,43311.0,30304.0,-0.0023179999999999997,-0.001098,0.002928,0.0175,-0.15750000000000003,-3.43,1.13678125,0.10496875,-0.20096875,1.312375,1.07590625,-0.40940625,-0.9799375,1.23521875,0.021072819008041213,0.031183774979420986,True
11574,168120,0,168121,3951.0,43309.0,30301.0,-0.000366,-0.0025009999999999998,-0.006588,-0.14,-0.4025,-3.3950000000000005,1.13834375,0.1143125,-0.19384375,1.29840625,1.0775000000000001,-0.40934375,-0.9822500000000001,1.24359375,0.021453106456415898,0.03155865664621882,True
11575,168121,0,168122,3950.0,43303.0,30295.0,-0.004514,0.0,0.003843,0.035,-1.1375000000000002,-3.6225000000000005,1.1223125,0.1159375,-0.18996875,1.2923125,1.08403125,-0.4114375,-0.9815,1.2320625,0.02160360281937514,0.0316846966755399,True
11576,168122,0,168123,3949.0,43301.0,30295.0,0.009577,-0.00244,-0.007503,-0.43750000000000006,-0.8400000000000001,-3.2550000000000003,1.1154375,0.11615625,-0.19121875,1.2894375,1.08478125,-0.40959375000000003,-0.9791562500000001,1.23315625,0.02153866243677243,0.031543799642952314,True
11577,168123,0,168124,3945.0,43303.0,30290.0,0.011101999999999999,-0.003721,-0.0075639999999999995,-0.5425000000000001,-0.7350000000000001,-3.5525,1.1183750000000001,0.122,-0.1925625,1.2979687500000001,1.0759375,-0.40803125,-0.9815,1.2418437500000001,0.021715444583429888,0.03158086984368433,True
11578,168124,0,168125,3942.0,43300.0,30284.0,0.0064659999999999995,0.00042699999999999997,0.007076,-0.3325,0.052500000000000005,-3.5175000000000005,1.1222812500000001,0.11503125,-0.19390625,1.2980625000000001,1.0838125,-0.41203125,-0.98003125,1.23553125,0.021590276310989077,0.03147013677174643,True
11579,168125,0,168126,3937.0,43301.0,30285.0,-0.00061,-0.00042699999999999997,-0.002562,-0.07,0.7525000000000001,-3.08,1.1223750000000001,0.1211875,-0.19718750000000002,1.2940625000000001,1.07684375,-0.40875,-0.9745,1.23971875,0.021710964305832945,0.031124246731666305,True
11580,168126,0,168127,3932.0,43297.0,30277.0,-0.01159,0.000366,-0.000305,0.052500000000000005,0.45500000000000007,-3.0975,1.12284375,0.11475,-0.19459375,1.29865625,1.08490625,-0.40768750000000004,-0.9795312500000001,1.236,0.021404629176770638,0.03142322776773483,True
11581,168127,0,168128,3928.0,43292.0,30268.0,-0.005063,0.0034159999999999998,0.002379,-0.0175,0.5425000000000001,-3.2550000000000003,1.13153125,0.112875,-0.19375,1.2983125,1.08396875,-0.41103125,-0.9811562500000001,1.235625,0.021461864705121788,0.03152000820618541,True
11582,168128,0,168129,3924.0,43290.0,30269.0,-0.000793,-0.001952,-0.005307,-0.17500000000000002,-0.2625,-3.0975,1.12271875,0.1105,-0.19540625,1.29728125,1.076875,-0.40771875,-0.98059375,1.2433125,0.021231756859702428,0.03143189901160776,True
11583,168129,0,168130,3920.0,43286.0,30264.0,0.0042699999999999995,-0.000549,0.002013,-0.2625,-0.6475000000000001,-3.2725000000000004,1.11434375,0.1143125,-0.19334375,1.298,1.08534375,-0.41075,-0.9801875,1.23571875,0.021509478406030128,0.031498712729838396,True
11584,168130,0,168131,3917.0,43286.0,30262.0,0.007076,0.000122,-0.000244,-0.36750000000000005,0.052500000000000005,-3.2725000000000004,1.12225,0.115,-0.19334375,1.3058125,1.076,-0.40778125,-0.9789375,1.2346875,0.02141863058527698,0.03145024683295677,True
11585,168131,0,168132,3913.0,43285.0,30260.0,0.004331,-0.003111,-0.0066489999999999995,-0.35000000000000003,-0.10500000000000001,-3.2025,1.12103125,0.114,-0.194,1.305,1.083625,-0.41221875,-0.98078125,1.24240625,0.02155554787497552,0.031495462136517445,True
11586,168132,0,168133,3910.0,43280.0,30256.0,0.000366,0.0006709999999999999,0.002196,-0.22750000000000004,0.9975,-2.9575000000000005,1.12725,0.1146875,-0.192875,1.29821875,1.0843125,-0.40928125,-0.982125,1.2356875,0.021465963894369073,0.03159258870092116,True
11587,168133,0,168134,3907.0,43280.0,30255.0,-0.002196,-0.000793,-0.005246,-0.10500000000000001,1.2600000000000002,-2.765,1.12284375,0.11440625,-0.1881875,1.2981875,1.07784375,-0.4081875,-0.9771875,1.2364375,0.021410592244917814,0.0315888248026324,True
11588,168134,0,168135,3903.0,43276.0,30251.0,-0.005307,0.00061,0.007442,-0.052500000000000005,1.225,-2.9225000000000003,1.12309375,0.114125,-0.1978125,1.3039375,1.0764375,-0.40828125,-0.980125,1.2375625000000001,0.021402828189715322,0.031317397330878044,True
11589,168135,0,168136,3902.0,43276.0,30247.0,-0.0017079999999999999,-0.00061,0.000244,-0.0175,1.6975000000000002,-2.7825,1.1303750000000001,0.11156250000000001,-0.19365625,1.3019375,1.08184375,-0.4104375,-0.9824375000000001,1.2418437500000001,0.02138429514014241,0.03157343033481021,True
11590,168136,0,168137,3900.0,43271.0,30249.0,-0.003294,-0.001403,0.000366,0.0,1.5225000000000002,-2.87,1.115,0.11503125,-0.1924375,1.2981875,1.08365625,-0.40840625,-0.9793125,1.2358437500000001,0.021444968370272027,0.031501067133052604,True
11591,168137,0,168138,3901.0,43273.0,30244.0,-0.007503,0.000915,0.002074,0.29750000000000004,0.9275000000000001,-3.2725000000000004,1.12275,0.11390625,-0.1940625,1.3018125,1.076,-0.4084375,-0.97975,1.236375,0.021400130590087954,0.03145297691129815,True
11592,168138,0,168139,3898.0,43269.0,30239.0,-0.009089,-6.1e-05,0.0053679999999999995,0.36750000000000005,0.29750000000000004,-3.2550000000000003,1.12221875,0.1138125,-0.19321875,1.2985,1.0755000000000001,-0.4069375,-0.9798125,1.23609375,0.021336146741064915,0.03148917751084,True
11593,168139,0,168140,3898.0,43269.0,30243.0,-0.0051849999999999995,-0.0015249999999999999,-0.002196,0.1925,-0.43750000000000006,-3.2900000000000005,1.122875,0.114,-0.19290625,1.2980625000000001,1.07653125,-0.40871875,-0.9800625000000001,1.235,0.021415247369344203,0.031511380325809836,True
11594,168140,0,168141,3898.0,43270.0,30242.0,0.0021349999999999997,-0.0011589999999999999,-0.004575,0.052500000000000005,-0.9450000000000001,-3.5525,1.1231875,0.1145,-0.19378125000000002,1.30359375,1.07603125,-0.40846875,-0.97496875,1.2358125,0.021425709058459474,0.031278817916438835,True
11595,168141,0,168142,3899.0,43274.0,30244.0,0.0070149999999999995,-0.000183,-0.0008539999999999999,0.12250000000000001,-1.4175000000000002,-3.7100000000000004,1.127,0.1129375,-0.1958125,1.29390625,1.07584375,-0.4091875,-0.97978125,1.235125,0.02139051125728785,0.031384131916687624,True
11596,168142,0,168143,3898.0,43274.0,30247.0,0.002196,0.002013,0.001952,0.43750000000000006,-1.9075000000000002,-3.6575,1.1186875,0.11265625,-0.19434375,1.2978750000000001,1.0796875000000001,-0.40965625,-0.9800625000000001,1.234875,0.021397781871672197,0.031453834432960286,True
11597,168143,0,168144,3899.0,43273.0,30247.0,-0.0042699999999999995,0.0015249999999999999,-0.0023179999999999997,0.5775,-2.205,-3.7450000000000006,1.1224375,0.11503125,-0.19309375,1.29790625,1.07671875,-0.408125,-0.979875,1.23621875,0.02143369267405833,0.031496604766837306,True
11598,168144,0,168145,3900.0,43275.0,30245.0,-0.006039,0.000732,0.0035989999999999998,0.6125,-2.5725000000000002,-3.7800000000000002,1.12290625,0.11459375000000001,-0.19315625,1.29896875,1.0700625,-0.408125,-0.97946875,1.235875,0.021415768314854176,0.03147835159624842,True
11599,168145,0,168146,3899.0,43274.0,30248.0,-0.0028669999999999998,-0.000915,-0.000793,0.45500000000000007,-2.9575000000000005,-3.7800000000000002,1.1119375,0.11525,-0.18646875000000002,1.29840625,1.064625,-0.40696875,-0.9798125,1.23434375,0.021396296908029595,0.031759395712037466,True
11600,168146,0,168147,3901.0,43276.0,30246.0,0.003721,-0.0011589999999999999,-0.001952,0.385,-3.6225000000000005,-4.025,1.12303125,0.11453125,-0.193625,1.298625,1.07446875,-0.40796875,-0.97809375,1.23334375,0.021406943173015985,0.03140626974386306,True
11601,168147,0,168148,3901.0,43279.0,30252.0,0.009943,0.000122,-0.000244,0.29750000000000004,-3.7975000000000003,-4.0425,1.1233125,0.1146875,-0.1928125,1.2985625,1.0730625,-0.4078125,-0.9776875,1.22909375,0.02140708021253441,0.03142304506772294,True
11602,168148,0,168149,3903.0,43278.0,30250.0,0.00732,-0.000366,-0.0017079999999999999,0.22750000000000004,-3.6050000000000004,-3.99,1.12328125,0.113375,-0.19040625,1.296,1.08653125,-0.4115625,-0.98209375,1.24559375,0.021503641972938033,0.03169019810439227,True
11603,168149,0,168150,3902.0,43281.0,30252.0,0.0053679999999999995,0.000122,-0.001952,0.12250000000000001,-2.975,-4.0425,1.1185625000000001,0.11634375,-0.18987500000000002,1.28971875,1.0850312500000001,-0.41259375,-0.981625,1.2393750000000001,0.021666583461661053,0.03169329457151006,True
11604,168150,0,168151,3903.0,43282.0,30254.0,0.003721,-0.000122,0.000549,0.21000000000000002,-2.1175,-3.9025000000000003,1.11015625,0.1181875,-0.18803125,1.2882500000000001,1.07253125,-0.4085625,-0.97571875,1.239875,0.021580541664426165,0.03153813141013209,True
11605,168151,0,168152,3904.0,43283.0,30253.0,0.0011589999999999999,0.000549,-0.001464,0.35000000000000003,-1.4000000000000001,-3.7625,1.11078125,0.11675,-0.19015625,1.29153125,1.07375,-0.40700000000000003,-0.97803125,1.232625,0.02145900766173639,0.03154271816358625,True
11606,168152,0,168153,3904.0,43282.0,30254.0,-0.011407,0.000488,-0.00122,0.3325,-0.7525000000000001,-3.7450000000000006,1.11578125,0.105125,-0.20165625,1.29753125,1.060625,-0.40746875,-0.9790625000000001,1.23284375,0.02100151208838483,0.031122314938761213,True
11607,168153,0,168154,3904.0,43280.0,30251.0,-0.014945,0.0017079999999999999,0.009821,0.6300000000000001,-1.0850000000000002,-3.6050000000000004,1.1445,0.1156875,-0.1935625,1.31921875,1.06775,-0.4083125,-0.97821875,1.23034375,0.021468096166009018,0.03141361911565452,True
11608,168154,0,168155,3904.0,43277.0,30252.0,-0.008723,-0.00122,0.00042699999999999997,0.4025,-1.4700000000000002,-3.4825000000000004,1.14565625,0.10387500000000001,-0.20109375000000002,1.30828125,1.07428125,-0.40875,-0.98159375,1.23846875,0.021001689967736978,0.031243002660708945,True
11609,168155,0,168156,3905.0,43281.0,30254.0,0.0006709999999999999,-0.002562,-0.00244,0.14,-2.0825,-3.9725000000000006,1.135875,0.10784375,-0.19659375,1.3118125,1.08884375,-0.41184375,-0.98075,1.2436562500000001,0.021288334683856068,0.03139042062388039,True
11610,168156,0,168157,3906.0,43282.0,30257.0,0.007259,-0.0023179999999999997,-0.00122,0.21000000000000002,-2.5200000000000005,-4.0600000000000005,1.1356875,0.11181250000000001,-0.2020625,1.31953125,1.07115625,-0.41359375,-0.978875,1.23590625,0.02152105320422152,0.0310987784678053,True
11611,168157,0,168158,3907.0,43285.0,30255.0,0.001403,0.002074,-0.000366,0.7875000000000001,-3.3600000000000003,-3.9200000000000004,1.1354375,0.11225,-0.19125,1.2903437500000001,1.06484375,-0.408125,-0.97878125,1.2359375000000001,0.021319744961974755,0.03152800939797653,True
11612,168158,0,168159,3908.0,43284.0,30259.0,-0.002928,0.0035989999999999998,0.000732,1.0150000000000001,-3.6050000000000004,-4.0425,1.1098125,0.11815625,-0.18721875000000002,1.3004375000000001,1.07265625,-0.40940625,-0.974,1.2395625000000001,0.021613082047008007,0.03150401417474173,True
11613,168159,0,168160,3908.0,43289.0,30260.0,-0.0023179999999999997,0.001464,0.000122,0.9100000000000001,-3.8675,-3.9550000000000005,1.1119375,0.11821875,-0.18821875,1.28953125,1.08571875,-0.411875,-0.978375,1.2355,0.02171458562687217,0.031633613075310145,True
11614,168160,0,168161,3909.0,43290.0,30259.0,0.002257,0.0,-0.000488,0.7525000000000001,-4.077500000000001,-4.077500000000001,1.11884375,0.11215625,-0.19353125000000002,1.303,1.077,-0.40875,-0.9801562500000001,1.2360625,0.021340963793721513,0.031489995183677046,True
11615,168161,0,168162,3909.0,43289.0,30263.0,0.006527,-0.000976,-0.002623,0.5425000000000001,-4.2525,-4.165,1.13075,0.11440625,-0.19278125000000002,1.2943125,1.0788125,-0.40828125,-0.9793437500000001,1.239875,0.02141435091829745,0.031488517387491415,True
11616,168162,0,168163,3910.0,43290.0,30263.0,0.004697,0.000915,0.000122,0.6825000000000001,-4.0425,-4.095000000000001,1.1294375,0.112125,-0.1940625,1.3046875,1.082,-0.4114375,-0.981875,1.24353125,0.02144742602724645,0.03153536313827525,True
11617,168163,0,168164,3913.0,43292.0,30263.0,0.00122,0.001281,0.000976,0.9100000000000001,-3.7800000000000002,-4.0600000000000005,1.1202812500000001,0.11503125,-0.19109375,1.298875,1.08271875,-0.4096875,-0.9794375000000001,1.2365,0.021496332142719975,0.03155970785971462,True
11618,168164,0,168165,3913.0,43290.0,30265.0,-0.0013419999999999999,0.001281,6.1e-05,0.8575,-3.4825000000000004,-4.1475,1.129,0.114375,-0.19303125000000002,1.29871875,1.0685625,-0.410125,-0.97365625,1.23534375,0.021486985421008697,0.03125793805222253,True
11619,168165,0,168166,3914.0,43291.0,30265.0,-0.002013,0.000122,0.000732,0.7875000000000001,-3.2550000000000003,-4.2175,1.1179375,0.11475,-0.19375,1.30403125,1.067,-0.411625,-0.98165625,1.24078125,0.02156247279728408,0.03153939202890121,True
11620,168166,0,168167,3916.0,43292.0,30265.0,-0.0032329999999999998,-0.000549,0.001098,0.6125,-3.3950000000000005,-4.1825,1.121875,0.1144375,-0.19503125000000002,1.30153125,1.077,-0.40746875,-0.97971875,1.23240625,0.021383055135531005,0.03141298378309403,True
11621,168167,0,168168,3916.0,43296.0,30265.0,-0.006161,-0.000488,0.001098,0.6475000000000001,-3.9725000000000006,-4.095000000000001,1.130875,0.11228125,-0.1939375,1.30540625,1.08559375,-0.41184375,-0.98271875,1.2415,0.02147011120370619,0.03157307488801634,True
11622,168168,0,168169,3919.0,43295.0,30268.0,-0.002928,-0.000488,0.0015249999999999999,0.7000000000000001,-4.655,-4.077500000000001,1.12859375,0.11453125,-0.19271875,1.29821875,1.0835937500000001,-0.4101875,-0.97903125,1.2355,0.021495891827950933,0.031478902929832395,True
11623,168169,0,168170,3918.0,43297.0,30271.0,0.0023179999999999997,0.00061,-0.00122,0.6825000000000001,-5.1275,-4.165,1.12271875,0.11453125,-0.19315625,1.2965312500000001,1.076875,-0.4080625,-0.97859375,1.2356875,0.02141070189409749,0.03144442428829685,True
11624,168170,0,168171,3920.0,43299.0,30273.0,0.007869,0.000488,-0.0018909999999999999,0.6475000000000001,-5.5825000000000005,-4.2175,1.1221875000000001,0.1160625,-0.19296875,1.299,1.066375,-0.4083125,-0.97878125,1.2358437500000001,0.021483459784448433,0.03145920099684607,True
11625,168171,0,168172,3921.0,43304.0,30276.0,0.011712,0.000366,-0.001647,0.665,-5.5825000000000005,-4.2,1.125375,0.11609375,-0.19546875,1.30278125,1.07928125,-0.41053125,-0.9815,1.2438437500000001,0.021573680417135536,0.03146453375497869,True
11626,168172,0,168173,3924.0,43307.0,30279.0,0.010065,0.00042699999999999997,-0.0025009999999999998,0.56,-4.445,-4.0075,1.129625,0.1115,-0.19618750000000001,1.3018125,1.08271875,-0.4115625,-0.9839375,1.24109375,0.02142683410781264,0.031530258190887644,True
11627,168173,0,168174,3926.0,43306.0,30281.0,0.006222,0.000305,-0.0013419999999999999,0.5075000000000001,-3.5175000000000005,-3.99,1.11071875,0.11453125,-0.19615625,1.3045625,1.07934375,-0.4080625,-0.98059375,1.24275,0.02141070189409749,0.031401875706016796,True
11628,168174,0,168175,3927.0,43305.0,30282.0,0.00061,0.000732,0.000793,0.45500000000000007,-2.5900000000000003,-3.8850000000000002,1.12759375,0.11446875000000001,-0.19296875,1.2993125,1.08353125,-0.4078125,-0.9790625000000001,1.2356875,0.02139811791818706,0.031470106213954185,True
11629,168175,0,168176,3928.0,43306.0,30281.0,-0.005246,-0.00042699999999999997,0.0015249999999999999,0.43750000000000006,-1.715,-3.8325000000000005,1.1313125,0.112625,-0.19278125000000002,1.2906875,1.08296875,-0.41009375000000003,-0.97928125,1.2297500000000001,0.02141404106651577,0.03148609410048578,True
11630,168176,0,168177,3929.0,43306.0,30284.0,-0.009637999999999999,0.000244,0.001037,0.4025,-1.1025,-3.7100000000000004,1.1224687500000001,0.11440625,-0.19390625,1.3059375,1.0761875,-0.4083125,-0.97921875,1.23921875,0.021415603803007683,0.031438633363983816,True
11631,168177,0,168178,3932.0,43309.0,30285.0,-0.007808,0.000122,0.000244,0.1925,-0.9275000000000001,-3.6050000000000004,1.1286875,0.114625,-0.19275,1.29771875,1.0828125,-0.40959375000000003,-0.9791562500000001,1.2354375,0.0214759309544019,0.03148249853315202,True
11632,168178,0,168179,3934.0,43310.0,30288.0,-0.0040869999999999995,-6.1e-05,6.1e-05,0.2625,-1.1025,-3.6575,1.12253125,0.1144375,-0.19340625,1.29109375,1.0772187500000001,-0.40846875,-0.979375,1.23553125,0.021423148471777852,0.031464708384417145,True
11633,168179,0,168180,3934.0,43311.0,30291.0,0.0008539999999999999,-0.000488,0.0008539999999999999,0.2625,-1.33,-3.6575,1.1245625000000001,0.1138125,-0.19593750000000001,1.3055,1.0765625,-0.4080625,-0.97959375,1.2325,0.02138125465714454,0.031371857278503584,True
11634,168180,0,168181,3934.0,43314.0,30294.0,0.005795,-0.000305,-0.0008539999999999999,0.22750000000000004,-1.4875,-3.7100000000000004,1.123,0.11175,-0.19640625,1.29540625,1.0831875,-0.409125,-0.98103125,1.239875,0.02133935567129096,0.031408831450863345,True
11635,168181,0,168182,3937.0,43313.0,30296.0,0.006344,0.000366,-0.000976,0.21000000000000002,-0.7350000000000001,-3.7450000000000006,1.123625,0.11475,-0.19334375,1.2986875,1.0766875,-0.4078125,-0.9795,1.23325,0.021409640868062227,0.03147205708681118,True
11636,168182,0,168183,3938.0,43315.0,30295.0,0.00244,0.000122,-0.000976,0.12250000000000001,-0.3325,-3.6400000000000006,1.122125,0.11131250000000001,-0.193875,1.29159375,1.0810625,-0.4105625,-0.982875,1.24153125,0.021379064902744455,0.03158163341889194,True
11637,168183,0,168184,3940.0,43318.0,30300.0,-0.002196,-0.000549,0.0006709999999999999,0.10500000000000001,0.12250000000000001,-3.6050000000000004,1.12203125,0.11415625,-0.19371875,1.2982500000000001,1.0772187500000001,-0.4081875,-0.9781875,1.22490625,0.0214003497801711,0.0314061518675044,True
11638,168184,0,168185,3940.0,43315.0,30297.0,-0.006344,-0.000305,0.0008539999999999999,0.12250000000000001,0.5425000000000001,-3.535,1.12465625,0.11106250000000001,-0.19509375,1.29290625,1.07903125,-0.416625,-0.9821875,1.24634375,0.021611811624251923,0.03150619816619341,True
11639,168185,0,168186,3943.0,43316.0,30299.0,-0.008479,-0.0008539999999999999,0.000793,0.07,0.5950000000000001,-3.5875000000000004,1.12275,0.1179375,-0.1934375,1.29784375,1.07021875,-0.40609375000000003,-0.9799375,1.232125,0.02147132824153804,0.03148526692670869,True
11640,168186,0,168187,3945.0,43318.0,30301.0,-0.003965,-0.000488,0.001281,0.3325,0.2625,-3.6400000000000006,1.122125,0.1163125,-0.19621875,1.30428125,1.084625,-0.41515625,-0.9835,1.248375,0.021767984794281218,0.03151204795164809,True
11641,168187,0,168188,3946.0,43318.0,30302.0,-0.005246,6.1e-05,0.001769,0.4025,-0.31500000000000006,-3.6225000000000005,1.13128125,0.12015625,-0.19593750000000001,1.301375,1.08696875,-0.4126875,-0.9771562500000001,1.23159375,0.021826509269002026,0.03127732965997681,True
11642,168188,0,168189,3946.0,43316.0,30302.0,-0.002379,0.0013419999999999999,-0.0006709999999999999,0.6475000000000001,-0.9800000000000001,-3.6400000000000006,1.12425,0.114625,-0.19284375,1.296875,1.0699375,-0.40559375000000003,-0.9736250000000001,1.23009375,0.021315553939350484,0.031264233766623795,True
11643,168189,0,168190,3946.0,43318.0,30304.0,-0.001464,0.001403,0.0,0.6825000000000001,-1.5925000000000002,-3.7100000000000004,1.1262812500000001,0.1138125,-0.1918125,1.29946875,1.0703125,-0.4054375,-0.97565625,1.2300625,0.02127599638400254,0.03138431047232242,True
11644,168190,0,168191,3949.0,43319.0,30303.0,0.002562,0.001037,-0.000976,0.7175,-1.995,-3.6750000000000003,1.1224375,0.1149375,-0.18996875,1.29784375,1.0709375,-0.39828125000000003,-0.97878125,1.2339375000000001,0.021035037047947795,0.031579302933364695,True
11645,168191,0,168192,3950.0,43320.0,30305.0,0.008173999999999999,-0.001647,-0.0011589999999999999,0.35000000000000003,-2.3975000000000004,-3.7800000000000002,1.1245625000000001,0.11028125,-0.19384375,1.30509375,1.09371875,-0.41209375,-0.9865,1.24978125,0.02139820555129566,0.03172338062553779,True
11646,168192,0,168193,3953.0,43320.0,30308.0,0.007503,-0.002745,-0.000915,0.42000000000000004,-2.2225,-3.8675,1.1270625,0.11096875,-0.19240625,1.2983437500000001,1.0888125,-0.41431250000000003,-0.97571875,1.2295,0.021515299683331244,0.03136296127613945,True
11647,168193,0,168194,3954.0,43324.0,30307.0,0.004758,0.000122,-0.000305,0.56,-1.7675,-3.8850000000000002,1.1223125,0.1139375,-0.19603125,1.2887187500000001,1.06925,-0.4111875,-0.9849375,1.2366875,0.021511653212282277,0.03157527410264684,True
11648,168194,0,168195,3953.0,43319.0,30304.0,0.000488,0.00122,-0.0006709999999999999,0.6125,-1.4700000000000002,-3.7800000000000002,1.118,0.11509375000000001,-0.19328125000000002,1.3048125,1.07040625,-0.40718750000000004,-0.9775312500000001,1.24725,0.02139866586430739,0.03139821914946058,True
11649,168195,0,168196,3952.0,43316.0,30296.0,-0.002074,0.001769,-0.0008539999999999999,0.5950000000000001,-1.0325000000000002,-3.6925000000000003,1.1280000000000001,0.1146875,-0.1929375,1.29078125,1.081,-0.40996875,-0.976375,1.2316562500000001,0.02149352403411004,0.03136714194914194,True
11650,168196,0,168197,3950.0,43313.0,30295.0,-0.002745,-0.000976,0.0015249999999999999,0.28,-0.43750000000000006,-3.6750000000000003,1.12253125,0.11075,-0.19618750000000001,1.2954375,1.074125,-0.4094375,-0.97909375,1.2374375,0.02131091714014303,0.03134246013228562,True
11651,168197,0,168198,3946.0,43311.0,30288.0,-0.0050019999999999995,-0.002623,0.0015249999999999999,0.29750000000000004,-0.49000000000000005,-3.7800000000000002,1.12240625,0.11850000000000001,-0.1925625,1.29515625,1.07653125,-0.40303125,-0.979875,1.2374687500000001,0.021371576533140733,0.031517871886868935,True
11652,168198,0,168199,3944.0,43309.0,30283.0,-0.0060999999999999995,0.00042699999999999997,0.002806,0.525,-0.7175,-3.7450000000000006,1.12796875,0.11421875000000001,-0.19265625,1.29884375,1.0820625,-0.4116875,-0.979375,1.23328125,0.021543215724025636,0.03149473315485275,True
11653,168199,0,168200,3940.0,43306.0,30278.0,-0.005307,0.00366,0.001403,0.6475000000000001,-1.05,-3.7625,1.1226875,0.11503125,-0.1933125,1.30284375,1.0770625,-0.40825,-0.97940625,1.2349375,0.021438704126678483,0.031469673143251754,True
11654,168200,0,168201,3938.0,43304.0,30274.0,-0.0042699999999999995,0.006405,0.000793,0.9100000000000001,-1.4525000000000001,-3.8675,1.12909375,0.1131875,-0.19521875,1.30459375,1.07975,-0.41153125,-0.9820625000000001,1.24234375,0.02149470857138468,0.031496348630142126,True
11655,168201,0,168202,3933.0,43299.0,30268.0,0.006344,0.0015249999999999999,0.0006709999999999999,0.31500000000000006,-1.8200000000000003,-3.8500000000000005,1.12859375,0.1199375,-0.1944375,1.29890625,1.0840625,-0.4090625,-0.97946875,1.2399375000000001,0.021672278482633242,0.03142705947259187,True
11656,168202,0,168203,3931.0,43298.0,30265.0,0.008052,-0.0034159999999999998,-0.002745,-0.21000000000000002,-1.61,-3.8850000000000002,1.12196875,0.11453125,-0.19025,1.2985625,1.0765,-0.40825,-0.9791875,1.2348125,0.021418219249638954,0.03158379350809549,True
11657,168203,0,168204,3926.0,43298.0,30262.0,0.0071979999999999995,-0.008052,-0.005124,-0.5950000000000001,-1.3475000000000001,-3.7975000000000003,1.1226562500000001,0.11471875000000001,-0.194375,1.29890625,1.07728125,-0.4048125,-0.979875,1.2359375000000001,0.02128806562230298,0.03144531347734927,True
11658,168204,0,168205,3925.0,43294.0,30257.0,0.0044529999999999995,-0.009516,-0.002379,-0.7175,-0.7875000000000001,-3.8150000000000004,1.12321875,0.112875,-0.19625,1.3045,1.076625,-0.40990625,-0.9838125,1.24421875,0.021416765990242177,0.03152291108492749,True
11659,168205,0,168206,3922.0,43291.0,30254.0,0.000915,-0.008052,0.000305,-0.5075000000000001,-0.21000000000000002,-3.7450000000000006,1.12378125,0.11075,-0.19696875,1.3006875,1.0834062500000001,-0.41165625,-0.98253125,1.2433750000000001,0.021399869171105503,0.031444471824687494,True
11660,168206,0,168207,3919.0,43286.0,30249.0,-0.008296,0.002196,0.0013419999999999999,0.56,-0.15750000000000003,-3.6575,1.13421875,0.1170625,-0.19340625,1.29759375,1.08559375,-0.40425,-0.98084375,1.2438437500000001,0.02136154563242058,0.03152165346696907,True
11661,168207,0,168208,3918.0,43286.0,30244.0,-0.008173999999999999,0.0077469999999999995,0.001403,1.0325000000000002,-0.525,-3.8325000000000005,1.12115625,0.1143125,-0.19265625,1.296125,1.07596875,-0.40850000000000003,-0.978625,1.22915625,0.02141928016879366,0.03146565313342908,True
11662,168208,0,168209,3915.0,43283.0,30243.0,-0.008113,0.007503,0.002074,1.1025,-1.1900000000000002,-3.9375000000000004,1.119625,0.11503125,-0.1940625,1.3021562500000001,1.0764375,-0.40803125,-0.97921875,1.2301250000000001,0.021429934050907935,0.031432378164349115,True
11663,168209,0,168210,3915.0,43284.0,30241.0,-0.0034159999999999998,0.004758,0.001464,0.9450000000000001,-1.6800000000000002,-3.9725000000000006,1.132125,0.11090625,-0.19203125000000001,1.30875,1.0772187500000001,-0.41000000000000003,-0.98246875,1.24309375,0.021339870954526833,0.031639687330740685,True
11664,168210,0,168211,3914.0,43281.0,30240.0,0.001586,0.000244,0.001098,0.665,-2.1175,-3.99,1.12971875,0.110875,-0.19071875,1.29671875,1.084375,-0.41153125,-0.97965625,1.2276875,0.021399978749796777,0.03158320082967515,True
11665,168211,0,168212,3912.0,43278.0,30238.0,0.005124,-0.001464,-0.002562,0.45500000000000007,-2.5900000000000003,-4.0600000000000005,1.113375,0.115875,-0.19196875,1.2907187500000001,1.07975,-0.40796875,-0.97896875,1.2351875,0.02146199691442984,0.03150650484720271,True
11666,168212,0,168213,3912.0,43280.0,30242.0,0.0035989999999999998,-0.001403,-0.001281,0.5425000000000001,-2.3625000000000003,-4.0425,1.1196875,0.11534375000000001,-0.19428125000000002,1.30875,1.07640625,-0.40715625,-0.9745312500000001,1.23534375,0.021407655797672044,0.03124182761187961,True
11667,168213,0,168214,3910.0,43280.0,30239.0,0.002257,0.000183,-0.001464,0.5775,-2.2575000000000003,-4.025,1.135125,0.115625,-0.19140625,1.296125,1.06865625,-0.41000000000000003,-0.978125,1.2359375000000001,0.021533183121671448,0.03149630927061179,True
11668,168214,0,168215,3911.0,43281.0,30240.0,0.00366,-0.0011589999999999999,-0.000732,0.43750000000000006,-1.9250000000000003,-3.9375000000000004,1.11984375,0.11415625,-0.19584375,1.29621875,1.07684375,-0.40778125,-0.979,1.2363125,0.02138406169139196,0.0313525861723848,True
11669,168215,0,168216,3911.0,43282.0,30240.0,0.0046359999999999995,-0.0006709999999999999,-0.0023179999999999997,0.31500000000000006,-1.5050000000000001,-3.99,1.13290625,0.11328125,-0.19134375,1.2963125,1.07709375,-0.40975,-0.98128125,1.23609375,0.021427144890873526,0.0316211763557964,True
11670,168216,0,168217,3910.0,43280.0,30239.0,0.003843,-0.000793,0.003477,0.22750000000000004,-0.5775,-4.0600000000000005,1.1093125,0.11428125,-0.19859375,1.30696875,1.07715625,-0.40809375000000003,-0.98003125,1.23725,0.021401712290620812,0.031282486886400514,True
11671,168217,0,168218,3912.0,43279.0,30240.0,-0.008784,-0.0030499999999999998,0.001037,0.28,-0.6825000000000001,-3.99,1.12746875,0.1141875,-0.18778125,1.29671875,1.07846875,-0.41040625000000003,-0.9809687500000001,1.2356875,0.02149057842902553,0.03175167095951793,True
11672,168218,0,168219,3912.0,43278.0,30240.0,-0.017873,-0.0026839999999999998,0.00183,0.49000000000000005,-1.4700000000000002,-3.9550000000000005,1.12059375,0.11346875000000001,-0.19590625,1.30496875,1.0769375,-0.40850000000000003,-0.9774375000000001,1.2314375,0.021384712292848808,0.03128948876360916,True
11673,168219,0,168220,3913.0,43278.0,30239.0,-0.017324,0.000915,0.000915,0.8400000000000001,-2.2575000000000003,-3.8675,1.12675,0.11315625,-0.19265625,1.29828125,1.08021875,-0.40800000000000003,-0.9779375,1.23625,0.02135186209439528,0.031438994913010734,True
11674,168220,0,168221,3912.0,43278.0,30241.0,-0.0064659999999999995,0.004697,-0.000549,1.0325000000000002,-3.2725000000000004,-3.8325000000000005,1.1226562500000001,0.11415625,-0.197375,1.30675,1.07640625,-0.40909375000000003,-0.980375,1.24109375,0.02143668279368217,0.031344605515329534,True
11675,168221,0,168222,3914.0,43283.0,30244.0,0.017629,0.002928,-0.0018909999999999999,0.56,-4.2700000000000005,-4.112500000000001,1.12853125,0.11165625,-0.1938125,1.30384375,1.08371875,-0.41209375,-0.9846875,1.23940625,0.021454530093306723,0.03165438831284161,True
11676,168222,0,168223,3915.0,43283.0,30247.0,0.019032,0.000305,-0.0023179999999999997,0.29750000000000004,-4.0425,-4.0425,1.12721875,0.11478125,-0.19246875,1.298375,1.077625,-0.40703125,-0.980125,1.23259375,0.02137959732402932,0.03153131739733088,True
11677,168223,0,168224,3917.0,43287.0,30249.0,0.012383,-0.001647,-0.0035989999999999998,0.31500000000000006,-3.22,-3.9200000000000004,1.11184375,0.1143125,-0.1926875,1.29746875,1.0725,-0.40318750000000003,-0.980375,1.2533750000000001,0.02120624611026736,0.031532252818462496,True
11678,168224,0,168225,3918.0,43287.0,30247.0,0.002928,-0.000915,-0.002013,0.3325,-2.2575000000000003,-3.7625,1.1105,0.11190625,-0.1866875,1.3055,1.0998125,-0.41590625000000003,-0.98809375,1.248875,0.021617567441306836,0.03207152406333516,True
11679,168225,0,168226,3916.0,43286.0,30247.0,-0.003477,0.00122,-0.000244,0.47250000000000003,-1.33,-3.5875000000000004,1.1265625000000001,0.11465625,-0.192625,1.29928125,1.08278125,-0.40375,-0.97384375,1.22475,0.021242892998002357,0.03128147824661552,True
11680,168226,0,168227,3917.0,43285.0,30247.0,-0.00549,-0.000244,0.000915,0.15750000000000003,-0.035,-3.7100000000000004,1.12259375,0.114,-0.19359375,1.30453125,1.06746875,-0.4121875,-0.9845,1.24571875,0.021554295369884405,0.03165587664351898,True
11681,168227,0,168228,3918.0,43284.0,30246.0,-0.004392,-0.0030499999999999998,0.001464,-0.07,0.10500000000000001,-3.7100000000000004,1.12359375,0.113875,-0.19528125000000002,1.30340625,1.064875,-0.40053125,-0.9825,1.25228125,0.021081764357077263,0.03151080756529571,True
11682,168228,0,168229,3918.0,43283.0,30245.0,-0.002745,-0.003294,6.1e-05,-0.17500000000000002,0.21000000000000002,-3.7275000000000005,1.1231875,0.11446875000000001,-0.1931875,1.30665625,1.06446875,-0.399,-0.97890625,1.2571875000000001,0.021044663715726056,0.03145529040127608,True
11683,168229,0,168230,3919.0,43281.0,30246.0,-0.002257,-0.002623,-0.0018909999999999999,0.052500000000000005,0.3325,-3.6750000000000003,1.120875,0.1148125,-0.1930625,1.30028125,1.0871875,-0.403,-0.97328125,1.23684375,0.02121921485063312,0.031242140037164717,True
11684,168230,0,168231,3920.0,43281.0,30246.0,-0.002562,-0.001098,-0.001037,0.17500000000000002,0.35000000000000003,-3.8675,1.122,0.11109375,-0.193375,1.29875,1.10153125,-0.41221875,-0.97165625,1.2170625,0.021436498884395753,0.031166585115875126,True
11685,168231,0,168232,3919.0,43281.0,30247.0,-0.002379,0.0026839999999999998,0.001403,0.525,0.5425000000000001,-3.9550000000000005,1.1249375,0.11131250000000001,-0.19184375,1.30621875,1.0785,-0.42025,-0.9855625,1.25053125,0.02176728329972052,0.031767095497649896,True
11686,168232,0,168233,3921.0,43280.0,30247.0,0.000122,0.003904,-0.001647,0.49000000000000005,0.5950000000000001,-4.0075,1.1233125,0.11484375000000001,-0.1928125,1.298375,1.08228125,-0.40365625,-0.9736875,1.2250625,0.021246816242955394,0.03126790947472215,True
11687,168233,0,168234,3921.0,43277.0,30247.0,0.0023179999999999997,0.003904,0.000305,0.525,0.9100000000000001,-3.9725000000000006,1.1279375,0.11018750000000001,-0.19478125000000002,1.29771875,1.07646875,-0.41909375,-0.98384375,1.2354687500000001,0.021674893238001515,0.031582910455882116,True
11688,168234,0,168235,3920.0,43279.0,30247.0,0.004758,0.000793,0.001464,0.21000000000000002,1.2075,-4.025,1.11528125,0.11453125,-0.1930625,1.30153125,1.0696875000000001,-0.40703125,-0.9754375000000001,1.23015625,0.02136935437405973,0.03132577757646888,True
11689,168235,0,168236,3921.0,43277.0,30248.0,0.003172,-0.0015249999999999999,0.00122,-0.1925,1.6800000000000002,-4.1825,1.12934375,0.1150625,-0.19228125000000001,1.29921875,1.0737812500000001,-0.41109375000000004,-0.9823125,1.23840625,0.021553980964085232,0.0316236237137775,True
11690,168236,0,168237,3922.0,43278.0,30248.0,-0.00671,-0.0028669999999999998,0.0035989999999999998,-0.035,2.0650000000000004,-4.2700000000000005,1.1225625000000001,0.114,-0.19625,1.30421875,1.076875,-0.40809375000000003,-0.97971875,1.2364375,0.02139018947352249,0.03136419420254681,True
11691,168237,0,168238,3923.0,43280.0,30250.0,-0.012505,-0.002257,0.001037,0.17500000000000002,1.6975000000000002,-4.1475,1.12659375,0.11753125,-0.19240625,1.2983125,1.077625,-0.41046875,-0.980125,1.244375,0.021630063945412767,0.0315338193864122,True
11692,168238,0,168239,3925.0,43276.0,30250.0,-0.011773,0.000366,-0.000976,0.47250000000000003,1.0325000000000002,-4.025,1.1118125,0.11475,-0.19309375,1.303,1.0808125,-0.407875,-0.97903125,1.23490625,0.021412146694458244,0.031463890338021015,True
11693,168239,0,168240,3927.0,43277.0,30250.0,-0.004148,0.002928,-0.0015249999999999999,0.6825000000000001,0.385,-3.99,1.12796875,0.11409375000000001,-0.19221875,1.29840625,1.0715937500000001,-0.410875,-0.97975,1.2395,0.021505527761704567,0.03152678669722475,True
11694,168240,0,168241,3927.0,43279.0,30252.0,0.008357,-0.000488,0.000488,0.6300000000000001,0.14,-3.9725000000000006,1.1224375,0.1148125,-0.19425,1.29840625,1.07653125,-0.4083125,-0.9795625,1.2365625,0.02143224772298372,0.03143820072909603,True
11695,168241,0,168242,3928.0,43283.0,30257.0,0.0050019999999999995,-0.003111,-0.000305,-0.08750000000000001,-0.8750000000000001,-4.112500000000001,1.12284375,0.11425,-0.1926875,1.30325,1.08409375,-0.41015625,-0.97821875,1.228,0.0214831172987678,0.03144864963599536,True
11696,168242,0,168243,3930.0,43283.0,30255.0,0.0,-0.003294,0.000122,-0.0175,-1.1375000000000002,-4.025,1.1288125,0.11459375000000001,-0.19215625,1.29878125,1.0740625,-0.41190625000000003,-0.9780625000000001,1.2363125,0.021567344827895202,0.031463859536743494,True
11697,168243,0,168244,3931.0,43285.0,30258.0,-0.0044529999999999995,0.000122,0.002074,0.4025,-1.435,-3.8500000000000005,1.12959375,0.112375,-0.18975,1.28675,1.07646875,-0.41075,-0.98303125,1.23821875,0.021430107637004193,0.0317528022145031,True
11698,168244,0,168245,3934.0,43285.0,30263.0,-0.004758,0.004575,-0.000366,0.665,-1.9250000000000003,-3.7800000000000002,1.114875,0.1141875,-0.19959375000000001,1.29159375,1.0794062500000001,-0.40825,-0.9795,1.2397500000000001,0.02140413589667428,0.03122185191857323,True
11699,168245,0,168246,3935.0,43289.0,30266.0,0.00549,0.0021349999999999997,-0.00244,0.08750000000000001,-2.5200000000000005,-3.7800000000000002,1.1223125,0.11415625,-0.1975,1.3165,1.08125,-0.4068125,-0.9779375,1.235875,0.021345218676138065,0.03124507377760874,True
11700,168246,0,168247,3936.0,43293.0,30269.0,0.008113,-0.002928,-0.002013,-0.24500000000000002,-2.415,-3.6225000000000005,1.1373125,0.1169375,-0.19246875,1.31084375,1.07875,-0.40671875,-0.977625,1.2354687500000001,0.021455413788467572,0.031434383773477265,True
11701,168247,0,168248,3940.0,43295.0,30273.0,0.007503,-0.004209,-0.001952,-0.2625,-2.0475000000000003,-3.5875000000000004,1.12315625,0.11653125,-0.194375,1.3144375,1.0769375,-0.41234375,-0.9784375000000001,1.23615625,0.021664245162859464,0.03138957350714992,True
11702,168248,0,168249,3940.0,43297.0,30274.0,0.005246,-0.002989,-0.003172,-0.1925,-1.6450000000000002,-3.5875000000000004,1.13021875,0.11596875000000001,-0.1903125,1.3129375,1.07403125,-0.41084375,-0.9782500000000001,1.227875,0.021581085250279398,0.0315449441013682,True
11703,168249,0,168250,3941.0,43296.0,30275.0,0.001403,-0.000183,-0.00244,0.0175,-0.9800000000000001,-3.6050000000000004,1.123,0.1165,-0.1905,1.3071875,1.0748125,-0.41234375,-0.98078125,1.23509375,0.02166296507274112,0.03163556984431782,True
11704,168250,0,168251,3943.0,43299.0,30277.0,-0.003538,0.001464,0.0,0.21000000000000002,0.052500000000000005,-3.5175000000000005,1.13125,0.1225,-0.18328125,1.3019687500000001,1.08,-0.41190625000000003,-0.9813125,1.23665625,0.02189121343197031,0.03194512898391547,True
11705,168251,0,168252,3944.0,43301.0,30279.0,-0.006527,0.000488,0.0023179999999999997,0.29750000000000004,0.29750000000000004,-3.6050000000000004,1.139125,0.11737500000000001,-0.19062500000000002,1.28946875,1.07671875,-0.401125,-0.98040625,1.23578125,0.021249020280827213,0.03161602906277795,True
11706,168252,0,168253,3945.0,43299.0,30277.0,-0.00793,-6.1e-05,0.0018909999999999999,0.22750000000000004,0.4025,-3.6225000000000005,1.1416250000000001,0.11678125,-0.19128125,1.3003437500000001,1.07690625,-0.41234375,-0.9812500000000001,1.2363125,0.021674485883806223,0.03162246685013761,True
11707,168253,0,168254,3947.0,43298.0,30278.0,-0.007808,-0.0013419999999999999,0.001464,0.14,0.1925,-3.6400000000000006,1.1320625,0.10540625,-0.1965,1.29371875,1.07625,-0.409125,-0.9746875,1.24440625,0.021079463110619492,0.03115904853664335,True
11708,168254,0,168255,3948.0,43296.0,30281.0,-0.00671,-0.000488,0.001647,0.15750000000000003,-0.31500000000000006,-3.8150000000000004,1.11575,0.113625,-0.19440625,1.3118125,1.0840625,-0.40865625,-0.97884375,1.23525,0.021397378235436457,0.031404075699060334,True
11709,168255,0,168256,3951.0,43301.0,30283.0,0.001952,6.1e-05,0.000305,0.3325,-1.5050000000000001,-3.9725000000000006,1.1340625,0.10828125,-0.19709375,1.300125,1.0765625,-0.4081875,-0.97928125,1.2417500000000001,0.02115965185862326,0.031313451022534924,True
11710,168256,0,168257,3952.0,43303.0,30285.0,0.005795,0.000305,0.00061,0.29750000000000004,-1.8725000000000003,-4.0075,1.1159375,0.116625,-0.1899375,1.29709375,1.08371875,-0.41175,-0.9774375000000001,1.23646875,0.02164429014716274,0.03152845443012319,True
11711,168257,0,168258,3954.0,43304.0,30288.0,0.006527,0.000793,-0.002074,0.24500000000000002,-2.2750000000000004,-3.9550000000000005,1.12415625,0.1143125,-0.19115625,1.2911875,1.07653125,-0.41025,-0.97971875,1.2370625,0.021489435790293013,0.03156810962893647,True
11712,168258,0,168259,3956.0,43303.0,30290.0,0.006039,-0.001281,-0.0017079999999999999,0.17500000000000002,-2.3800000000000003,-3.99,1.11890625,0.11496875000000001,-0.18971875,1.29671875,1.0720625,-0.40768750000000004,-0.97928125,1.2355625000000001,0.021413591517016925,0.03160869570656682,True
11713,168259,0,168260,3957.0,43304.0,30292.0,0.004514,0.00042699999999999997,-0.002806,0.29750000000000004,-2.1350000000000002,-3.8325000000000005,1.1295,0.112625,-0.19590625,1.303,1.0779375,-0.410625,-0.9785625,1.2434687500000001,0.02143533809560386,0.03133311814881261,True
11714,168260,0,168261,3958.0,43306.0,30295.0,0.00244,0.002013,-0.000244,0.42000000000000004,-1.4525000000000001,-3.8150000000000004,1.1245,0.11475,-0.1929375,1.2950625,1.07440625,-0.41228125,-0.9785,1.2365625,0.021588775117032537,0.03144954661008467,True
11715,168261,0,168262,3960.0,43309.0,30299.0,0.001586,0.000488,-0.000549,0.3325,-1.0675000000000001,-3.8325000000000005,1.12271875,0.114125,-0.19575,1.30475,1.0698125,-0.40796875,-0.9800625000000001,1.23903125,0.021390299018635053,0.031397539537781384,True
11716,168262,0,168263,3961.0,43310.0,30300.0,-0.002196,-0.0006709999999999999,0.001098,0.35000000000000003,-0.5950000000000001,-3.8675,1.12965625,0.1123125,-0.19265625,1.2985,1.0843125,-0.40940625,-0.97721875,1.23690625,0.021373676387560638,0.031411123386185666,True
11717,168263,0,168264,3962.0,43308.0,30298.0,-0.006222,-0.001098,0.002074,0.43750000000000006,-0.31500000000000006,-3.7275000000000005,1.1234375,0.1140625,-0.19315625,1.2985625,1.077125,-0.40846875,-0.979125,1.23609375,0.02140778495168813,0.03146502329445087,True
11718,168264,0,168265,3964.0,43308.0,30297.0,-0.009637999999999999,-0.000488,0.002623,0.45500000000000007,-0.28,-3.7800000000000002,1.1295625,0.11084375,-0.19565625,1.3025625,1.075375,-0.4090625,-0.98084375,1.24065625,0.0212997221831031,0.03143158445158603,True
11719,168265,0,168266,3963.0,43304.0,30295.0,-0.004941,0.000793,0.001281,0.43750000000000006,-1.1375000000000002,-3.8325000000000005,1.10971875,0.11628125,-0.19246875,1.29946875,1.08225,-0.40896875,-0.978375,1.23596875,0.02151872966775788,0.03146346589800177,True
11720,168266,0,168267,3961.0,43302.0,30292.0,-0.00042699999999999997,0.000549,-0.001403,0.2625,-1.6625,-3.8850000000000002,1.12196875,0.11109375,-0.19396875,1.2981562500000001,1.0764375,-0.4081875,-0.98321875,1.24134375,0.021274879587023822,0.03159120559675682,True
11721,168267,0,168268,3959.0,43302.0,30290.0,0.003965,-6.1e-05,-0.00122,0.15750000000000003,-2.1175,-3.9375000000000004,1.1229375,0.11503125,-0.19671875,1.30390625,1.08109375,-0.40859375000000003,-0.979,1.2392812500000001,0.021452485356719904,0.03131755674766804,True
11722,168268,0,168269,3958.0,43303.0,30288.0,0.005673,-0.00183,-0.001098,0.12250000000000001,-2.5900000000000003,-3.99,1.12328125,0.11440625,-0.1920625,1.2980625000000001,1.0831250000000001,-0.40946875,-0.9785625,1.2346875,0.021461958282070356,0.03148700010258797,True
11723,168269,0,168270,3956.0,43304.0,30286.0,0.0057339999999999995,-0.000915,-0.000732,0.08750000000000001,-2.765,-3.9550000000000005,1.12965625,0.11709375,-0.18490625,1.293125,1.0763125,-0.41000000000000003,-0.98184375,1.23215625,0.021593353133961494,0.03190066786003335,True
11724,168270,0,168271,3951.0,43305.0,30282.0,0.006405,0.00042699999999999997,-0.001281,0.1925,-2.2750000000000004,-3.9550000000000005,1.1220625,0.11425,-0.1968125,1.3056875000000001,1.077,-0.40825,-0.97946875,1.23803125,0.02140669650630422,0.03133198138971631,True
11725,168271,0,168272,3949.0,43301.0,30278.0,0.00488,0.000122,-0.0017079999999999999,0.052500000000000005,-1.8375000000000001,-3.99,1.130125,0.11225,-0.19428125000000002,1.3043437500000001,1.08403125,-0.41046875,-0.9815,1.242625,0.021413712098420887,0.03151206893100895,True
11726,168272,0,168273,3945.0,43301.0,30275.0,0.0030499999999999998,-0.000793,0.001098,0.07,-1.155,-3.8850000000000002,1.12271875,0.115125,-0.19253125000000001,1.30525,1.08415625,-0.40809375000000003,-0.97903125,1.23653125,0.021436280741915788,0.03148640922573809,True
11727,168273,0,168274,3941.0,43297.0,30270.0,-0.0006709999999999999,-0.000366,0.000793,0.052500000000000005,-0.47250000000000003,-3.8150000000000004,1.1283750000000001,0.1149375,-0.19209375,1.29921875,1.0819375,-0.41078125,-0.975875,1.23553125,0.021536334483354565,0.031381533179518244,True
11728,168274,0,168275,3939.0,43295.0,30269.0,-0.004941,-0.00122,0.001037,0.15750000000000003,-0.035,-3.8500000000000005,1.123125,0.11425,-0.19221875,1.2976875,1.07734375,-0.4079375,-0.9770625000000001,1.2357500000000001,0.021394167368709464,0.03142258021734942,True
11729,168275,0,168276,3936.0,43293.0,30265.0,-0.008235,0.000976,0.001769,0.17500000000000002,0.29750000000000004,-3.8150000000000004,1.12259375,0.11528125,-0.193375,1.2995,1.0766875,-0.4084375,-0.97865625,1.24278125,0.021456463569206344,0.03143809026956765,True
11730,168276,0,168277,3936.0,43291.0,30262.0,-0.0057339999999999995,0.001098,0.000793,0.28,0.1925,-3.7450000000000006,1.1220625,0.1160625,-0.194,1.30315625,1.0769375,-0.40846875,-0.97371875,1.2286875,0.021489723725499985,0.031221571677225685,True
11731,168277,0,168278,3933.0,43289.0,30259.0,-0.0023179999999999997,0.000366,-0.000244,0.17500000000000002,-0.052500000000000005,-3.8850000000000002,1.12509375,0.1139375,-0.1919375,1.299375,1.08334375,-0.4109375,-0.98103125,1.24115625,0.021501632208922743,0.03158771718041064,True
11732,168278,0,168279,3931.0,43287.0,30259.0,0.000732,-0.000122,-0.000183,0.14,-0.3325,-3.9025000000000003,1.12215625,0.1158125,-0.19221875,1.30228125,1.0761875,-0.40190625,-0.9795625,1.23684375,0.021216324032062046,0.031519517205315345,True
11733,168279,0,168280,3930.0,43289.0,30259.0,0.003843,-6.1e-05,-0.000183,0.035,-0.5775,-3.9375000000000004,1.1251875,0.11459375000000001,-0.19234375,1.2990625,1.0728125,-0.41103125,-0.983125,1.24490625,0.021532273447071187,0.031652615515472944,True
11734,168280,0,168281,3930.0,43286.0,30259.0,0.004392,-0.001037,-0.000244,0.052500000000000005,-0.525,-4.0075,1.12253125,0.115125,-0.1924375,1.299625,1.07715625,-0.40875,-0.97840625,1.2350625,0.021462590259640497,0.0314659286959111,True
11735,168281,0,168282,3930.0,43286.0,30258.0,0.0021349999999999997,-0.001464,-0.00042699999999999997,-0.0175,-0.28,-3.99,1.122625,0.1145625,-0.19265625,1.29846875,1.0756875000000001,-0.40471875,-0.9755625,1.2349375,0.021277903479219568,0.03134689158652583,True
11736,168282,0,168283,3930.0,43286.0,30260.0,-0.000488,0.000183,-0.000122,0.07,-0.035,-3.9025000000000003,1.12284375,0.11496875000000001,-0.18840625,1.2998750000000001,1.0740625,-0.40746875,-0.977125,1.23396875,0.021404821014059477,0.03157764354384262,True
11737,168283,0,168284,3929.0,43287.0,30258.0,-0.000915,0.000122,0.000366,0.12250000000000001,0.17500000000000002,-3.8675,1.12071875,0.11425,-0.1896875,1.29240625,1.074125,-0.40753125,-0.976875,1.2336562500000001,0.021377879010192804,0.03151665290393614,True
11738,168284,0,168285,3930.0,43286.0,30260.0,-0.0017079999999999999,-0.000122,0.00061,0.12250000000000001,0.43750000000000006,-3.9200000000000004,1.1184687500000001,0.1140625,-0.19684375,1.3171875,1.07375,-0.407375,-0.97671875,1.23359375,0.021363932008255704,0.03122407742209933,True
11739,168285,0,168286,3930.0,43286.0,30259.0,-0.0025009999999999998,0.000732,0.000244,0.14,0.5075000000000001,-3.8675,1.14684375,0.1075625,-0.2015,1.3153125,1.07403125,-0.40828125,-0.97946875,1.23715625,0.021133964522798993,0.0311443272787777,True
11740,168286,0,168287,3931.0,43285.0,30262.0,-0.0018909999999999999,0.000122,0.002074,0.07,0.49000000000000005,-3.9550000000000005,1.1320625,0.10709375,-0.195375,1.2894375,1.0788125,-0.40996875,-0.9846875,1.246625,0.02118243187017599,0.03159185000812998,True
11741,168287,0,168288,3933.0,43284.0,30263.0,-0.0028669999999999998,-0.000732,-6.1e-05,0.0175,0.385,-3.9725000000000006,1.10371875,0.1145625,-0.19521875,1.313375,1.0854375,-0.4070625,-0.9771562500000001,1.234,0.02137188774765501,0.03130610595431576,True
11742,168288,0,168289,3932.0,43286.0,30263.0,-0.004148,-0.001281,0.000244,0.10500000000000001,0.17500000000000002,-3.9375000000000004,1.1475312500000001,0.10771875,-0.20175,1.31184375,1.07328125,-0.40953125,-0.9783437500000001,1.2343125,0.021190492955492538,0.03109068230354545,True
11743,168289,0,168290,3934.0,43289.0,30267.0,-0.00244,-0.000366,0.000366,0.12250000000000001,-0.035,-3.8150000000000004,1.1459062500000001,0.10934375,-0.19471875,1.3081562500000001,1.07909375,-0.41040625000000003,-0.9824375000000001,1.2475625000000001,0.02129214871219114,0.03153090045757145,True
11744,168290,0,168291,3935.0,43291.0,30270.0,0.008905999999999999,0.000305,-0.0035989999999999998,0.12250000000000001,0.08750000000000001,-3.9025000000000003,1.122875,0.10821875,-0.19593750000000001,1.300625,1.0834375,-0.41153125,-0.98165625,1.2434687500000001,0.02129116746824311,0.03145182777863257,True
11745,168291,0,168292,3937.0,43297.0,30275.0,0.014152,0.000122,-0.0028669999999999998,-0.10500000000000001,0.7875000000000001,-4.1475,1.1204687500000001,0.11853125,-0.1864375,1.28784375,1.07946875,-0.4111875,-0.972375,1.24153125,0.02169983537261348,0.03147227686593686,True
11746,168292,0,168293,3937.0,43295.0,30277.0,0.01281,-0.001037,-0.0021349999999999997,-0.21000000000000002,1.9250000000000003,-4.2525,1.10459375,0.1184375,-0.186875,1.28759375,1.08115625,-0.40990625,-0.980875,1.24196875,0.021644644784328086,0.03178431500097575,True
11747,168293,0,168294,3938.0,43297.0,30278.0,0.00549,-0.00183,-0.0059169999999999995,-0.10500000000000001,3.1850000000000005,-4.322500000000001,1.10996875,0.1179375,-0.1870625,1.29084375,1.08325,-0.4091875,-0.97778125,1.2355625000000001,0.021595352159919288,0.03165688505659405,True
11748,168294,0,168295,3940.0,43294.0,30277.0,-0.002562,0.0025009999999999998,0.0046359999999999995,0.22750000000000004,4.69,-4.550000000000001,1.123375,0.1055,-0.19246875,1.30446875,1.076625,-0.4079375,-0.9786875,1.2440625,0.021035677430753828,0.03147558293445162,True
11749,168295,0,168296,3942.0,43295.0,30276.0,-0.019215,0.000976,0.00488,-0.0175,6.2125,-4.515000000000001,1.11975,0.11546875000000001,-0.19025,1.30065625,1.0825,-0.41153125,-0.9785625,1.24209375,0.021588158260248423,0.031559562324693424,True
11750,168296,0,168297,3941.0,43296.0,30276.0,-0.025681,-0.0044529999999999995,0.00671,-0.31500000000000006,5.565,-4.6025,1.1116875,0.114875,-0.1919375,1.29871875,1.0669375,-0.408375,-0.97771875,1.23621875,0.021437314036677986,0.03145928809051066,True
11751,168297,0,168298,3943.0,43293.0,30277.0,-0.024644,-0.006405,0.006527,-0.35000000000000003,4.112500000000001,-4.2700000000000005,1.1225625000000001,0.1149375,-0.19328125000000002,1.3046875,1.0763125,-0.40850000000000003,-0.979,1.2396875,0.021444886002826884,0.031455172344769605,True
11752,168298,0,168299,3943.0,43294.0,30278.0,-0.019215,-0.005673,0.0048189999999999995,0.10500000000000001,1.9425000000000001,-3.7450000000000006,1.12934375,0.1124375,-0.1951875,1.298375,1.0836875,-0.41103125,-0.98209375,1.24475,0.021443942479898306,0.0314988110233955,True
11753,168299,0,168300,3945.0,43297.0,30280.0,-0.009821,0.000976,0.000244,0.665,-0.525,-3.5700000000000003,1.12925,0.11896875,-0.19471875,1.30246875,1.0840625,-0.41115625,-0.98121875,1.23909375,0.021716505132771003,0.03148365209363534,True
11754,168300,0,168301,3946.0,43302.0,30285.0,0.014518,0.004758,-0.00732,0.8400000000000001,-4.7075000000000005,-3.8150000000000004,1.1284375,0.1128125,-0.19140625,1.29928125,1.08253125,-0.41078125,-0.9750625,1.2356875,0.021449282783606118,0.03137754910523247,True
11755,168301,0,168302,3946.0,43307.0,30288.0,0.022509,0.002623,-0.0060999999999999995,0.5425000000000001,-5.845000000000001,-3.7450000000000006,1.1209375,0.11459375000000001,-0.18775,1.30346875,1.07709375,-0.40796875,-0.9795625,1.232875,0.021409503812151516,0.03169841345299783,True
11756,168302,0,168303,3949.0,43312.0,30293.0,0.024399999999999998,0.0,-0.0057339999999999995,0.29750000000000004,-6.16,-3.8150000000000004,1.12821875,0.11296875,-0.19453125000000002,1.30371875,1.0836875,-0.4120625,-0.9821562500000001,1.2421875,0.021507041856868917,0.03152750275509145,True
11757,168303,0,168304,3951.0,43315.0,30295.0,0.021655,-0.00042699999999999997,-0.006588,0.14,-5.687500000000001,-3.9375000000000004,1.129375,0.11171875,-0.1914375,1.29846875,1.08525,-0.409625,-0.9781875,1.23753125,0.02135812205226422,0.03149748155265469,True
11758,168304,0,168305,3951.0,43318.0,30295.0,0.00732,0.000305,-0.001952,0.035,-4.4625,-3.8500000000000005,1.1224687500000001,0.11321875,-0.194125,1.3016875,1.075625,-0.4089375,-0.9818125,1.2425625,0.021392010610867433,0.03153043839393158,True
11759,168305,0,168306,3953.0,43316.0,30293.0,-0.000549,0.0,0.001647,0.052500000000000005,-1.54,-3.7800000000000002,1.1235,0.1143125,-0.1933125,1.307375,1.07790625,-0.40834375,-0.97846875,1.240875,0.021413015784817437,0.031433321948528166,True
11760,168306,0,168307,3953.0,43314.0,30291.0,-0.0066489999999999995,-0.000183,0.0034159999999999998,-0.035,-0.1925,-3.7625,1.12615625,0.11475,-0.19240625,1.29875,1.08346875,-0.40178125000000003,-0.97778125,1.2358437500000001,0.021167768234132498,0.03144294491729525,True
11761,168307,0,168308,3954.0,43313.0,30288.0,-0.010309,-0.0008539999999999999,0.0040869999999999995,-0.10500000000000001,0.665,-3.7450000000000006,1.129,0.112125,-0.19275,1.30509375,1.07371875,-0.409875,-0.98184375,1.2435625000000001,0.02138478791882384,0.031586689833491575,True
11762,168308,0,168309,3955.0,43310.0,30290.0,-0.013969,-0.000915,0.004758,-0.08750000000000001,1.0850000000000002,-3.6575,1.1163750000000001,0.11534375000000001,-0.19196875,1.298875,1.07575,-0.40800000000000003,-0.97771875,1.23665625,0.02144148434939364,0.03145803697545437,True
11763,168309,0,168310,3955.0,43308.0,30287.0,-0.011346,-0.002562,0.002989,0.0,0.47250000000000003,-3.6925000000000003,1.1283750000000001,0.1125625,-0.19187500000000002,1.2986875,1.08065625,-0.41159375000000004,-0.978625,1.236375,0.021471611209325486,0.031496929875043156,True
11764,168310,0,168311,3956.0,43306.0,30289.0,-0.008784,-6.1e-05,0.0015249999999999999,0.035,-0.43750000000000006,-3.6575,1.1183750000000001,0.11428125,-0.19187500000000002,1.298125,1.07109375,-0.40890625,-0.97740625,1.236375,0.0214342869213978,0.03144967264164989,True
11765,168311,0,168312,3957.0,43310.0,30293.0,-0.00244,-0.000183,0.000549,0.15750000000000003,-1.435,-3.7625,1.123,0.11143750000000001,-0.19509375,1.30428125,1.07678125,-0.40990625,-0.97671875,1.23853125,0.02135787596480425,0.03129414267036178,True
11766,168312,0,168313,3959.0,43311.0,30296.0,0.0034159999999999998,0.0006709999999999999,-0.002257,0.21000000000000002,-2.3975000000000004,-3.8150000000000004,1.12559375,0.11834375,-0.19078125,1.2994375,1.08115625,-0.40790625,-0.9779375,1.2360625,0.021560636730157876,0.031514061158972796,True
11767,168313,0,168314,3962.0,43311.0,30297.0,0.0064659999999999995,0.000793,-0.002196,0.31500000000000006,-3.0625000000000004,-3.8850000000000002,1.12296875,0.1148125,-0.1925625,1.2988125,1.077,-0.40871875,-0.9783125,1.236625,0.021448534655265347,0.0314572891983796,True
11768,168314,0,168315,3962.0,43314.0,30299.0,0.008173999999999999,-0.00061,-0.002196,0.42000000000000004,-3.4650000000000003,-4.025,1.1176875,0.11390625,-0.1871875,1.29790625,1.07678125,-0.40796875,-0.97409375,1.2369375,0.021381336781660702,0.031508901098763586,True
11769,168315,0,168316,3964.0,43314.0,30302.0,0.0075639999999999995,0.000915,-0.0006709999999999999,0.29750000000000004,-3.2550000000000003,-4.025,1.12309375,0.11134375,-0.1940625,1.30565625,1.0801875,-0.410875,-0.98053125,1.242125,0.021392873053505863,0.031483267594639326,True
11770,168316,0,168317,3964.0,43318.0,30303.0,0.0042699999999999995,0.000244,-0.0015249999999999999,0.42000000000000004,-2.9400000000000004,-3.9725000000000006,1.12746875,0.11215625,-0.19171875,1.29240625,1.08325,-0.4110625,-0.971,1.2355,0.021433673769832837,0.03120745064274558,True
11771,168317,0,168318,3966.0,43318.0,30305.0,0.001403,0.000793,-0.000183,0.47250000000000003,-2.4325,-3.99,1.11915625,0.11428125,-0.19159375,1.2994375,1.07515625,-0.40796875,-0.97859375,1.23753125,0.021396700616473873,0.031506977849783874,True
11772,168318,0,168319,3968.0,43318.0,30309.0,-0.001037,0.000122,0.00061,0.42000000000000004,-1.9775000000000003,-3.9550000000000005,1.1203125,0.11525,-0.19196875,1.29915625,1.0778125,-0.4058125,-0.9784375000000001,1.232625,0.02134993456988986,0.03148590659443771,True
11773,168319,0,168320,3968.0,43319.0,30308.0,-0.001464,-0.000244,0.000793,0.29750000000000004,-1.2425000000000002,-3.99,1.11271875,0.114,-0.1846875,1.29846875,1.07596875,-0.41025,-0.97965625,1.23534375,0.02147663379113282,0.03182464730674586,True
11774,168320,0,168321,3971.0,43319.0,30309.0,-0.0013419999999999999,-0.000244,-0.000366,0.36750000000000005,-1.05,-3.99,1.1225625000000001,0.11478125,-0.19390625,1.3051875,1.07390625,-0.40765625,-0.9783437500000001,1.25103125,0.021404656581887088,0.03140470432512164,True
11775,168321,0,168322,3972.0,43320.0,30312.0,-0.001647,-0.000183,0.00061,0.35000000000000003,-0.8575,-3.9200000000000004,1.13034375,0.11006250000000001,-0.19553125000000002,1.30775,1.09346875,-0.414625,-0.98490625,1.25253125,0.02149070485416016,0.0315940749227346,True
11776,168322,0,168323,3975.0,43320.0,30313.0,-0.001464,-0.000244,0.000488,0.28,-0.7175,-3.9550000000000005,1.13078125,0.111875,-0.19471875,1.3039687500000001,1.0945625,-0.41140625000000003,-0.9846875,1.2474687500000001,0.021435932229426562,0.03161811609610887,True
11777,168323,0,168324,3975.0,43323.0,30315.0,-0.001403,-0.0011589999999999999,0.002623,0.2625,-0.6300000000000001,-3.99,1.13065625,0.11156250000000001,-0.19528125000000002,1.298,1.092,-0.4135625,-0.975,1.2356875,0.021509560515799366,0.03121996996996997,True
11778,168324,0,168325,3976.0,43324.0,30318.0,-0.004209,-0.000915,-0.00061,0.21000000000000002,-0.8575,-3.9025000000000003,1.12196875,0.1144375,-0.19234375,1.2989375,1.0704375,-0.40728125,-0.9780625000000001,1.2365625,0.0213755372692319,0.03145635294971338,True
11779,168325,0,168326,3981.0,43326.0,30321.0,-0.0044529999999999995,-0.000244,0.000122,0.17500000000000002,-1.225,-4.025,1.12453125,0.11159375,-0.18725,1.2985,1.08715625,-0.41425,-0.98146875,1.23096875,0.02153839458512959,0.03179231605427523,True
11780,168326,0,168327,3980.0,43326.0,30324.0,-0.0017079999999999999,0.000549,-0.000122,0.43750000000000006,-1.6625,-3.99,1.12165625,0.11465625,-0.1960625,1.3064375,1.069375,-0.40909375000000003,-0.9863125,1.24953125,0.021457166962620233,0.03162731595548563,True
11781,168327,0,168328,3982.0,43326.0,30327.0,0.00244,0.0018909999999999999,-0.000244,0.6300000000000001,-2.0125,-4.0075,1.1296875,0.1145625,-0.19171875,1.294375,1.08609375,-0.40728125,-0.9745312500000001,1.23046875,0.02138065869175822,0.03134443214024288,True
11782,168328,0,168329,3983.0,43329.0,30327.0,0.0042699999999999995,0.00061,-0.0006709999999999999,0.56,-2.2225,-4.095000000000001,1.1223125,0.11403125,-0.19378125000000002,1.30471875,1.068875,-0.405625,-0.9770625000000001,1.2412812500000001,0.021292478680632027,0.031360022820938215,True
11783,168329,0,168330,3985.0,43330.0,30330.0,0.0048189999999999995,0.000793,6.1e-05,0.525,-2.1,-4.1475,1.1306875,0.11253125,-0.19259375,1.3045625,1.081875,-0.41150000000000003,-0.9774375000000001,1.23778125,0.021466573131515888,0.031422108452878725,True
11784,168330,0,168331,3988.0,43333.0,30334.0,0.005063,-6.1e-05,-0.002257,0.5075000000000001,-1.6625,-4.025,1.12190625,0.11459375000000001,-0.19275,1.3041875,1.0768125,-0.40790625,-0.9773125,1.23396875,0.02140699798861281,0.03141100548747989,True
11785,168331,0,168332,3987.0,43335.0,30335.0,0.0040869999999999995,-0.000183,-0.00042699999999999997,0.385,-1.1375000000000002,-4.0075,1.12125,0.11140625,-0.19596875,1.3058125,1.0771875,-0.41015625,-0.98175,1.24246875,0.02136661865898544,0.031454211574449345,True
11786,168332,0,168333,3990.0,43333.0,30334.0,0.001586,-0.0013419999999999999,0.003538,0.385,-0.56,-4.0075,1.13065625,0.1149375,-0.1918125,1.2983437500000001,1.0835937500000001,-0.411625,-0.9776875,1.23671875,0.021570153564131844,0.03146308079961366,True
11787,168333,0,168334,3994.0,43334.0,30336.0,-0.0051849999999999995,-0.001586,0.006161,0.45500000000000007,-0.1925,-3.8850000000000002,1.12271875,0.11425,-0.1909375,1.30484375,1.07725,-0.4083125,-0.97846875,1.2374687500000001,0.021409202295324597,0.03152840383780531,True
11788,168334,0,168335,3992.0,43334.0,30333.0,-0.017811999999999998,-0.000488,0.000244,0.5775,-1.1900000000000002,-3.7625,1.128625,0.11346875000000001,-0.19121875,1.298625,1.0831250000000001,-0.40875,-0.9795,1.238,0.02139473549444359,0.03155712684401209,True
11789,168335,0,168336,3993.0,43332.0,30328.0,-0.012139,0.0018909999999999999,0.000549,0.9625000000000001,-2.3625000000000003,-3.7450000000000006,1.123,0.11478125,-0.1926875,1.30353125,1.07690625,-0.408125,-0.979,1.242375,0.021423450183084527,0.0314789423115417,True
11790,168336,0,168337,3993.0,43330.0,30326.0,-0.001098,0.003965,0.0,0.9625000000000001,-3.535,-3.7800000000000002,1.1280000000000001,0.1130625,-0.1940625,1.30325,1.0854375,-0.41200000000000003,-0.9809687500000001,1.24378125,0.0215083770276913,0.03150022954974475,True
11791,168337,0,168338,3992.0,43333.0,30324.0,0.011224,0.002196,-0.004026,0.6300000000000001,-4.2175,-3.9550000000000005,1.122,0.11621875,-0.19084375,1.29884375,1.06771875,-0.4068125,-0.978875,1.23734375,0.02142972377077097,0.031547907982245,True
11792,168338,0,168339,3988.0,43335.0,30319.0,0.017446,0.0,-0.00488,0.42000000000000004,-4.532500000000001,-4.0075,1.12253125,0.11471875000000001,-0.18721875000000002,1.30259375,1.0765,-0.408625,-0.9783437500000001,1.2355625000000001,0.02144093532511561,0.03167243624789975,True
11793,168339,0,168340,3988.0,43332.0,30316.0,0.010919,-0.001464,-0.002806,0.24500000000000002,-4.0075,-3.8500000000000005,1.13196875,0.11103125,-0.19490625,1.30853125,1.08290625,-0.41071875,-0.9802500000000001,1.2436875,0.021373807356655568,0.031438586483321825,True
11794,168340,0,168341,3982.0,43332.0,30314.0,0.005856,0.00061,-0.0048189999999999995,0.24500000000000002,-3.08,-3.8675,1.13303125,0.10978125,-0.19325,1.29971875,1.086,-0.41003125,-0.978375,1.241,0.021295036236383354,0.031432188843349494,True
11795,168341,0,168342,3980.0,43329.0,30308.0,0.001281,-6.1e-05,0.000305,0.15750000000000003,-2.0125,-3.8500000000000005,1.121375,0.11925000000000001,-0.1911875,1.29628125,1.07584375,-0.408875,-0.9776875,1.2363125,0.021636597344203697,0.03148810313204535,True
11796,168342,0,168343,3977.0,43327.0,30305.0,-0.001952,-0.000366,0.0026839999999999998,0.14,-0.9800000000000001,-3.7275000000000005,1.11490625,0.1153125,-0.19084375,1.2968125,1.0766875,-0.4033125,-0.9773125,1.23659375,0.021252237785341643,0.03148732474720809,True
11797,168343,0,168344,3974.0,43324.0,30297.0,-0.007869,-0.001403,0.003538,0.07,-0.1925,-3.7625,1.11725,0.115125,-0.19096875,1.29609375,1.0768125,-0.40765625,-0.97809375,1.23609375,0.021418740277448802,0.03151261292707735,True
11798,168344,0,168345,3971.0,43316.0,30293.0,-0.007991,-0.000976,0.00183,0.0,0.035,-3.7800000000000002,1.1202812500000001,0.1136875,-0.19515625,1.30859375,1.06634375,-0.4075625,-0.9782500000000001,1.2421875,0.021356085844295183,0.03135102539209112,True
11799,168345,0,168346,3965.0,43314.0,30289.0,-0.005124,-0.00122,0.0025009999999999998,0.052500000000000005,0.0,-3.8500000000000005,1.13425,0.10981250000000001,-0.194875,1.303625,1.0815000000000001,-0.41096875,-0.9793437500000001,1.24203125,0.021333903432242934,0.03140469813183142,True
11800,168346,0,168347,3966.0,43313.0,30284.0,-0.0013419999999999999,-0.0015249999999999999,0.002745,0.15750000000000003,-0.29750000000000004,-3.9725000000000006,1.12059375,0.1149375,-0.19084375,1.283625,1.0824375,-0.40771875,-0.978,1.2365625,0.021413564100495875,0.031513982304427895,True
11801,168347,0,168348,3963.0,43311.0,30283.0,-0.000549,0.00061,0.000183,0.28,-0.7000000000000001,-3.9200000000000004,1.1226562500000001,0.1080625,-0.19628125,1.3111875,1.07753125,-0.40878125,-0.9781875,1.238625,0.021174500467941226,0.03130356235815749,True
11802,168348,0,168349,3960.0,43313.0,30283.0,-0.000122,0.0015249999999999999,0.00061,0.29750000000000004,-1.1375000000000002,-3.9025000000000003,1.13478125,0.11096875,-0.19534375,1.3064375,1.0824375,-0.4100625,-0.9794375000000001,1.24065625,0.021344937154503398,0.031389567919613885,True
11803,168349,0,168350,3960.0,43308.0,30281.0,6.1e-05,0.00042699999999999997,0.000976,0.4025,-1.8025000000000002,-3.8675,1.123125,0.11446875000000001,-0.19062500000000002,1.295875,1.08075,-0.40890625,-0.9775312500000001,1.2326875,0.02144196854375644,0.03150456472754889,True
11804,168350,0,168351,3959.0,43306.0,30278.0,-0.001037,-0.000122,-0.0032329999999999998,0.4025,-2.1,-3.9200000000000004,1.12040625,0.11496875000000001,-0.1873125,1.2963125,1.0745625,-0.40768750000000004,-0.9703437500000001,1.23678125,0.021413591517016925,0.031358448960078895,True
11805,168351,0,168352,3959.0,43304.0,30277.0,-0.00244,0.000305,-0.003111,0.49000000000000005,-2.5900000000000003,-3.9375000000000004,1.11878125,0.12259375,-0.19134375,1.30540625,1.07734375,-0.4088125,-0.9779375,1.23634375,0.02177108165339875,0.03149154128518417,True
11806,168352,0,168353,3956.0,43306.0,30276.0,-0.000183,-0.000488,0.000183,0.43750000000000006,-2.8875,-3.7625,1.1283125,0.11296875,-0.18421875000000001,1.306375,1.078375,-0.40990625,-0.97984375,1.24053125,0.021420606644075087,0.03185067961043592,True
11807,168353,0,168354,3956.0,43306.0,30282.0,0.005856,-0.0013419999999999999,0.000549,0.17500000000000002,-3.08,-3.8325000000000005,1.12784375,0.11709375,-0.19575,1.30665625,1.0791875,-0.407875,-0.979625,1.24190625,0.021508171030866063,0.03138057516876254,True
11808,168354,0,168355,3956.0,43311.0,30283.0,0.010858,-0.00122,0.000244,-0.08750000000000001,-2.3975000000000004,-3.9725000000000006,1.1263750000000001,0.11515625,-0.1923125,1.29909375,1.08309375,-0.40765625,-0.97778125,1.23696875,0.02142002061340896,0.03144669825307242,True
11809,168355,0,168356,3958.0,43311.0,30282.0,0.005246,0.00122,-0.00366,0.31500000000000006,-1.8550000000000002,-3.7625,1.116125,0.11446875000000001,-0.1950625,1.30678125,1.0725,-0.40890625,-0.98121875,1.2566875,0.02144196854375644,0.03146989175618183,True
11810,168356,0,168357,3959.0,43311.0,30283.0,-0.002257,0.0023179999999999997,-0.001952,0.6125,-1.1375000000000002,-3.8150000000000004,1.12959375,0.11465625,-0.19246875,1.3048125,1.0988125,-0.40634375,-0.97628125,1.2638125,0.021346909038761696,0.03138227393239336,True
11811,168357,0,168358,3959.0,43310.0,30282.0,-0.005429,0.003721,0.003294,0.5950000000000001,-0.5775,-3.7625,1.1285625,0.1153125,-0.19109375,1.2994375,1.0834375,-0.40540625,-0.9650625,1.2128125,0.021336204964832333,0.031002075400372024,True
11812,168358,0,168359,3960.0,43310.0,30284.0,-0.0077469999999999995,6.1e-05,0.0053679999999999995,0.2625,-0.22750000000000004,-3.6925000000000003,1.1220625,0.1144375,-0.18921875,1.304625,1.0678125,-0.41350000000000003,-0.9892500000000001,1.25721875,0.021624818235812155,0.03201501645707655,True
11813,168359,0,168360,3960.0,43311.0,30284.0,-0.00793,-0.003538,-0.002379,0.052500000000000005,-0.7350000000000001,-3.6400000000000006,1.13075,0.113375,-0.1933125,1.3018750000000001,1.09309375,-0.4141875,-0.9725,1.2185,0.02160884936269126,0.031201822004204627,True
11814,168360,0,168361,3961.0,43313.0,30284.0,-0.005673,0.000183,-0.000732,0.29750000000000004,-1.3475000000000001,-3.7100000000000004,1.12440625,0.115375,-0.19112500000000002,1.303375,1.0614375,-0.403375,-0.9717187500000001,1.22659375,0.021257305598098623,0.03125911187030328,True
11815,168361,0,168362,3963.0,43312.0,30288.0,-0.000732,0.0008539999999999999,-0.000183,0.29750000000000004,-1.995,-3.6750000000000003,1.131,0.11225,-0.19071875,1.2993125,1.07684375,-0.404625,-0.9713437500000001,1.22340625,0.021179387103878875,0.031260832729516214,True
11816,168362,0,168363,3964.0,43313.0,30288.0,0.006161,0.00042699999999999997,-0.000244,0.385,-2.5200000000000005,-3.6925000000000003,1.11871875,0.1149375,-0.1915625,1.2995625,1.06284375,-0.40646875,-0.97596875,1.22825,0.02136344488589731,0.031406439439911615,True
11817,168363,0,168364,3966.0,43317.0,30291.0,0.008905999999999999,0.001281,-0.001586,0.2625,-2.6250000000000004,-3.8675,1.122625,0.1133125,-0.19184375,1.29915625,1.0710625,-0.40615625,-0.9752500000000001,1.2396562500000001,0.0212843327183075,0.03136730363059429,True
11818,168364,0,168365,3965.0,43318.0,30292.0,0.0053679999999999995,-0.000549,-0.0021349999999999997,0.15750000000000003,-1.9600000000000002,-3.7800000000000002,1.1127500000000001,0.114625,-0.19171875,1.29903125,1.0774375,-0.4114375,-0.97796875,1.2274375,0.021549837038478376,0.031477739758161885,True
11819,168365,0,168366,3967.0,43318.0,30292.0,0.0015249999999999999,-0.001281,0.00042699999999999997,0.1925,-1.4175000000000002,-3.7275000000000005,1.122,0.1141875,-0.19103125,1.2991875,1.05653125,-0.4048125,-0.96784375,1.22571875,0.021266297374749346,0.0311125184768909,True
11820,168366,0,168367,3966.0,43317.0,30294.0,-0.0034159999999999998,-0.000122,0.0023179999999999997,0.35000000000000003,-0.9275000000000001,-3.7625,1.1104687500000001,0.113875,-0.19187500000000002,1.29646875,1.06353125,-0.40528125,-0.97603125,1.23415625,0.021272291217705182,0.03139635125176263,True
11821,168367,0,168368,3966.0,43317.0,30292.0,-0.006405,0.001464,0.0015249999999999999,0.47250000000000003,-0.665,-3.7100000000000004,1.12725,0.11278125,-0.19403125000000002,1.303375,1.07678125,-0.4105625,-0.98353125,1.23528125,0.021439233528518647,0.031600817038223934,True
11822,168368,0,168369,3969.0,43319.0,30294.0,-0.002257,0.000244,-0.000488,0.525,-0.5950000000000001,-3.6575,1.1240625,0.11525,-0.19084375,1.2926250000000001,1.07278125,-0.40796875,-0.9773437500000001,1.23853125,0.02143639052307456,0.03148853648619061,True
11823,168369,0,168370,3970.0,43319.0,30296.0,-0.0011589999999999999,-0.00042699999999999997,0.0011589999999999999,0.35000000000000003,-0.9450000000000001,-3.6925000000000003,1.12296875,0.1150625,-0.19121875,1.2998750000000001,1.08075,-0.40940625,-0.97840625,1.23921875,0.0214863378743594,0.03151472084012566,True
11824,168370,0,168371,3970.0,43318.0,30295.0,0.0017079999999999999,-0.00183,0.0015249999999999999,0.17500000000000002,-1.0850000000000002,-3.7625,1.12284375,0.1143125,-0.19165625,1.29840625,1.07859375,-0.40903125,-0.9786875,1.2379375000000001,0.021440578474412005,0.03150811066434135,True
11825,168371,0,168372,3971.0,43320.0,30294.0,0.0028669999999999998,-0.000793,-0.001098,0.2625,-1.05,-3.7100000000000004,1.1225625000000001,0.114625,-0.19090625,1.29871875,1.07290625,-0.40750000000000003,-0.977875,1.23678125,0.021391990166956882,0.03150663337053292,True
11826,168372,0,168373,3973.0,43323.0,30298.0,0.002623,0.000732,-0.003355,0.35000000000000003,-0.9975,-3.7275000000000005,1.1228125,0.11540625,-0.19128125,1.29903125,1.0768125,-0.40815625,-0.97746875,1.2359375000000001,0.021450309258815893,0.031475867625697665,True
11827,168373,0,168374,3974.0,43324.0,30302.0,0.002379,0.0008539999999999999,0.001769,0.29750000000000004,-0.36750000000000005,-3.5525,1.12290625,0.1145625,-0.1920625,1.30265625,1.07653125,-0.40121875,-0.9775,1.23,0.02113752002653556,0.03144580122109899,True
11828,168374,0,168375,3974.0,43325.0,30301.0,0.001769,0.000122,6.1e-05,0.22750000000000004,0.07,-3.5875000000000004,1.12703125,0.11246875,-0.192,1.29865625,1.07884375,-0.4110625,-0.9800625000000001,1.24053125,0.021446475342890136,0.03154765925825847,True
11829,168375,0,168376,3975.0,43323.0,30301.0,-0.000244,0.000122,-0.0026839999999999998,0.10500000000000001,0.7175,-3.5700000000000003,1.1178125,0.1133125,-0.19125,1.29778125,1.07640625,-0.40925,-0.97796875,1.2356562500000001,0.021408380019869517,0.0314965062961735,True
11830,168376,0,168377,3976.0,43323.0,30301.0,-0.0006709999999999999,0.000732,-0.001281,0.10500000000000001,1.2425000000000002,-3.6400000000000006,1.12721875,0.11496875000000001,-0.18771875000000002,1.29921875,1.08378125,-0.410125,-0.97709375,1.231625,0.021511309343970997,0.03160395712571643,True
11831,168377,0,168378,3978.0,43322.0,30301.0,-0.003294,0.000366,0.001952,0.14,1.6625,-3.6050000000000004,1.1230625,0.11006250000000001,-0.19765625,1.30940625,1.0763125,-0.40850000000000003,-0.97740625,1.24434375,0.021245160497367722,0.03121821346041485,True
11832,168378,0,168379,3978.0,43322.0,30301.0,-0.004331,-0.000549,0.000366,0.0,2.205,-3.6750000000000003,1.12853125,0.1165625,-0.191,1.29609375,1.08325,-0.41009375000000003,-0.977875,1.23621875,0.021575347288455213,0.031502880048843225,True
11833,168379,0,168380,3978.0,43322.0,30302.0,-0.0034159999999999998,-0.000793,-0.0035989999999999998,-0.035,2.3275,-3.7625,1.11678125,0.11384375000000001,-0.193875,1.31078125,1.06953125,-0.40746875,-0.978375,1.23671875,0.021358728565410944,0.031407167199627675,True
11834,168380,0,168381,3981.0,43321.0,30305.0,0.00183,-0.001098,0.00244,0.0,2.6250000000000004,-4.1475,1.1286875,0.11346875000000001,-0.18912500000000002,1.292875,1.07678125,-0.4089375,-0.9770625000000001,1.24228125,0.021402252760899566,0.03154644386224361,True
11835,168381,0,168382,3981.0,43321.0,30304.0,0.003477,0.000488,0.001037,-0.1925,2.9925,-4.865,1.12346875,0.10978125,-0.196375,1.308125,1.07621875,-0.40771875,-0.97765625,1.231125,0.021202309208024614,0.03127920579017497,True
11836,168382,0,168383,3982.0,43319.0,30304.0,-0.0046359999999999995,-0.000976,0.002379,-0.31500000000000006,2.8175000000000003,-5.0925,1.1221875000000001,0.11675,-0.18865625,1.29309375,1.0766875,-0.41075,-0.98065625,1.24321875,0.02160933195415954,0.03170453138115617,True
11837,168383,0,168384,3983.0,43319.0,30305.0,-0.020618,-0.0071979999999999995,0.002257,-0.07,1.2950000000000002,-3.7100000000000004,1.1164375,0.116375,-0.18725,1.29325,1.085375,-0.405375,-0.98071875,1.2383125,0.02137848732092828,0.03176324740456076,True
11838,168384,0,168385,3984.0,43315.0,30304.0,-0.023607,-0.002074,0.005124,0.45500000000000007,-0.7875000000000001,-3.5000000000000004,1.11634375,0.114,-0.196625,1.3131875,1.07634375,-0.40734375,-0.97746875,1.23596875,0.021360118304557415,0.031261924809734776,True
11839,168385,0,168386,3985.0,43319.0,30310.0,-0.011407,0.005429,0.002928,0.9450000000000001,-2.7125000000000004,-3.535,1.1395,0.10590625000000001,-0.1953125,1.30828125,1.07625,-0.40828125,-0.9783437500000001,1.24171875,0.02106610845448202,0.03134840555631316,True
11840,168386,0,168387,3986.0,43325.0,30313.0,0.006161,0.005124,-0.008296,0.8750000000000001,-4.8475,-3.6050000000000004,1.1341875000000001,0.1125,-0.1853125,1.307625,1.08353125,-0.41234375,-0.9739375,1.245625,0.021499113537593047,0.0315779199815808,True
11841,168387,0,168388,3988.0,43332.0,30320.0,0.023424,0.0046359999999999995,-0.0077469999999999995,0.665,-6.0025,-3.9550000000000005,1.1314375,0.10968750000000001,-0.1901875,1.30103125,1.07784375,-0.41128125,-0.98,1.2434375,0.021341311202172152,0.03161779423538831,True
11842,168388,0,168389,3993.0,43338.0,30325.0,0.028243,-0.0013419999999999999,-0.006527,0.052500000000000005,-5.565,-3.8675,1.12971875,0.110125,-0.19375,1.30440625,1.08296875,-0.41128125,-0.98165625,1.24353125,0.02135923324385114,0.03153939202890121,True
11843,168389,0,168390,3994.0,43344.0,30331.0,0.017385,-0.0028669999999999998,-0.003477,0.10500000000000001,-4.2875000000000005,-3.7275000000000005,1.12690625,0.11193750000000001,-0.19075,1.295375,1.0846875,-0.4096875,-0.97909375,1.2416562500000001,0.021369589430425932,0.031560142168888736,True
11844,168390,0,168391,3996.0,43344.0,30332.0,0.0048189999999999995,-0.00061,-0.00549,0.17500000000000002,-2.6075000000000004,-3.6750000000000003,1.1181875000000001,0.11503125,-0.18887500000000002,1.2965,1.080625,-0.40484375,-0.9806875,1.2363125,0.021302123681902284,0.03169698592162446,True
11845,168391,0,168392,3999.0,43341.0,30332.0,-0.004758,0.002928,0.001403,0.35000000000000003,-0.805,-3.6750000000000003,1.12259375,0.11446875000000001,-0.19165625,1.3019375,1.07609375,-0.40434375,-0.9780625000000001,1.23628125,0.02125902279179296,0.031483877102157144,True
11846,168392,0,168393,4000.0,43342.0,30332.0,-0.010735999999999999,0.001952,0.003843,0.28,0.77,-3.43,1.1305,0.11578125,-0.192,1.2954375,1.0759375,-0.409125,-0.97721875,1.24321875,0.021504509071914705,0.03143739732831543,True
11847,168393,0,168394,4001.0,43341.0,30333.0,-0.013847,-0.003538,0.0066489999999999995,-0.31500000000000006,1.9775000000000003,-3.4125000000000005,1.1276875,0.11475,-0.19134375,1.29915625,1.08440625,-0.4100625,-0.97809375,1.23725,0.021499842534200807,0.03149759977180004,True
11848,168394,0,168395,4003.0,43339.0,30334.0,-0.017141,-0.006954,0.011895,-0.4025,1.61,-3.5875000000000004,1.12315625,0.11259375,-0.19446875,1.30359375,1.076125,-0.40903125,-0.9744375000000001,1.2414687500000001,0.021370163963389574,0.031230683373749662,True
11849,168395,0,168396,4004.0,43339.0,30334.0,-0.024278,-0.006893,0.006527,-0.0175,-0.17500000000000002,-3.4825000000000004,1.1298125,0.11115625,-0.19346875,1.30528125,1.08215625,-0.41215625,-0.9805625,1.24315625,0.02143655376611806,0.03150824766255764,True
11850,168396,0,168397,4004.0,43340.0,30339.0,-0.029219,-0.002989,0.008723,0.6825000000000001,-2.9225000000000003,-3.5000000000000004,1.13021875,0.1125625,-0.19096875,1.3021562500000001,1.082375,-0.4096875,-0.97978125,1.24271875,0.021395194018768163,0.031578038738830035,True
11851,168397,0,168398,4008.0,43343.0,30342.0,-0.028121,-0.00042699999999999997,0.001403,1.3825,-6.597500000000001,-3.6575,1.12278125,0.11484375000000001,-0.19112500000000002,1.298875,1.0830625,-0.4075625,-0.977375,1.23625,0.02140345845677953,0.03147848803166866,True
11852,168398,0,168399,4008.0,43350.0,30348.0,0.010735999999999999,0.007808,-0.005795,2.0125,-14.735000000000001,-3.9025000000000003,1.1264687500000001,0.112375,-0.19540625,1.306875,1.076375,-0.4088125,-0.97984375,1.243625,0.02135243162689705,0.03140281852243371,True
11853,168399,0,168400,4014.0,43361.0,30360.0,0.035318999999999996,0.008479,-0.011285,2.0650000000000004,-17.360000000000003,-3.8150000000000004,1.1303750000000001,0.1136875,-0.1915,1.29915625,1.0835625,-0.4119375,-0.9771562500000001,1.2396562500000001,0.02153147409950562,0.03145499199893903,True
11854,168400,0,168401,4015.0,43371.0,30369.0,0.054229,0.0057339999999999995,-0.014091,1.7500000000000002,-18.1825,-3.7800000000000002,1.116625,0.114375,-0.19134375,1.29884375,1.07296875,-0.40746875,-0.97678125,1.2365625,0.021380494443939416,0.031446706128316675,True
11855,168401,0,168402,4019.0,43378.0,30371.0,0.061183,0.002745,-0.012444,1.2425000000000002,-17.0975,-4.095000000000001,1.1229375,0.11375,-0.1909375,1.29975,1.07265625,-0.40715625,-0.9769375,1.2373750000000001,0.021342357326040392,0.03146903018034137,True
11856,168402,0,168403,4019.0,43378.0,30372.0,0.051362,-0.000793,-0.009637999999999999,0.9450000000000001,-14.437500000000002,-4.095000000000001,1.11575,0.1144375,-0.19159375,1.29928125,1.07525,-0.407375,-0.97696875,1.23621875,0.021379296216819714,0.031443967755294566,True
11857,168403,0,168404,4021.0,43375.0,30368.0,0.005795,-0.0015249999999999999,-0.0025009999999999998,0.7525000000000001,-6.16,-3.6575,1.1225625000000001,0.114125,-0.19196875,1.30346875,1.076,-0.40815625,-0.97821875,1.2374687500000001,0.021397816559782144,0.03147742470627534,True
11858,168404,0,168405,4020.0,43365.0,30358.0,-0.012931999999999999,0.00122,0.001281,0.9275000000000001,-1.9250000000000003,-3.6050000000000004,1.1226562500000001,0.113625,-0.18921875,1.298125,1.0765625,-0.40284375,-0.97775,1.24271875,0.021164285412432725,0.031569346718579534,True
11859,168405,0,168406,4018.0,43361.0,30349.0,-0.021228,0.00244,0.004026,0.8575,1.6800000000000002,-3.6050000000000004,1.128875,0.114875,-0.1908125,1.2999375,1.08475,-0.40978125,-0.976625,1.232125,0.02149368913332642,0.0314619168922943,True
11860,168406,0,168407,4017.0,43354.0,30337.0,-0.025193,0.000305,0.006344,0.5075000000000001,4.0600000000000005,-3.4825000000000004,1.1230625,0.113375,-0.194125,1.301,1.07475,-0.40825,-0.97771875,1.2415,0.021370847971485054,0.03137171003657009,True
11861,168407,0,168408,4013.0,43345.0,30331.0,-0.027877,-0.0018909999999999999,0.010675,0.12250000000000001,5.477500000000001,-3.43,1.12884375,0.1120625,-0.192625,1.302125,1.079875,-0.4101875,-0.978375,1.24271875,0.02139475577563671,0.03145721048707131,True
11862,168408,0,168409,4009.0,43340.0,30324.0,-0.028975,-0.005124,0.010187,-0.35000000000000003,4.760000000000001,-3.6225000000000005,1.1208125,0.11434375000000001,-0.19015625,1.28928125,1.08134375,-0.40875,-0.977375,1.2360625,0.021430583294924976,0.03151727313218463,True
11863,168409,0,168410,4006.0,43335.0,30319.0,-0.026291,-0.004514,0.0064659999999999995,-0.28,2.7825,-3.6225000000000005,1.1223750000000001,0.1126875,-0.192375,1.3015625,1.066625,-0.40846875,-0.9768125,1.24121875,0.02135145204469248,0.03140662964899944,True
11864,168410,0,168411,4002.0,43332.0,30315.0,-0.015799,-0.0018909999999999999,0.003477,-0.052500000000000005,0.2625,-3.7625,1.1255,0.11225,-0.187,1.29971875,1.08271875,-0.410125,-0.97984375,1.2418125,0.02139993138093312,0.03173933984274822,True
11865,168411,0,168412,3999.0,43336.0,30316.0,-0.0015249999999999999,0.0013419999999999999,-0.002196,0.29750000000000004,-2.5025000000000004,-3.8850000000000002,1.12290625,0.1141875,-0.19171875,1.3019687500000001,1.07653125,-0.40809375000000003,-0.97675,1.23725,0.02139787135158804,0.03143048034672245,True
11866,168412,0,168413,3997.0,43340.0,30318.0,0.011651,0.002623,-0.002013,0.43750000000000006,-4.795000000000001,-4.0075,1.12521875,0.1166875,-0.192125,1.3037812500000001,1.07646875,-0.41053125,-0.9800625000000001,1.2486875,0.021598003935289205,0.031542655267575895,True
11867,168413,0,168414,3997.0,43340.0,30321.0,0.030378,0.001769,-0.0066489999999999995,0.35000000000000003,-6.317500000000001,-4.1475,1.12821875,0.11378125,-0.1921875,1.306125,1.08975,-0.41059375000000004,-0.98340625,1.24334375,0.021481452084712197,0.031669770810375385,True
11868,168414,0,168415,3993.0,43347.0,30319.0,0.027816,6.1e-05,-0.009394,0.29750000000000004,-5.897500000000001,-4.0075,1.12796875,0.11221875,-0.1946875,1.30934375,1.0823125,-0.41146875,-0.978125,1.2451875000000001,0.02145251911563084,0.031364944326285504,True
11869,168415,0,168416,3993.0,43346.0,30318.0,0.019886,-0.000488,-0.006527,0.4025,-4.532500000000001,-3.9025000000000003,1.13825,0.10956250000000001,-0.19040625,1.2914375,1.080125,-0.41478125,-0.98071875,1.2453125,0.021476487732201163,0.03163689995909345,True
11870,168416,0,168417,3992.0,43343.0,30318.0,0.008967,-0.000244,-0.003294,0.49000000000000005,-2.5900000000000003,-3.8150000000000004,1.11796875,0.12025,-0.19162500000000002,1.29159375,1.0839375,-0.40603125,-0.97521875,1.23428125,0.021563573553156048,0.03137485032038008,True
11871,168417,0,168418,3988.0,43338.0,30312.0,-0.002806,-0.000732,0.0018909999999999999,0.6125,-0.8400000000000001,-3.6750000000000003,1.1244375,0.108375,-0.1915625,1.3184375,1.066125,-0.403,-0.97628125,1.2305,0.0209554153177888,0.03141855835724144,True
11872,168418,0,168419,3989.0,43332.0,30309.0,-0.023851,0.000976,0.004758,0.8400000000000001,0.7175,-3.4825000000000004,1.14403125,0.10334375,-0.19021875,1.30859375,1.07671875,-0.408625,-0.9778125,1.24534375,0.02097491153229647,0.03153173441429268,True
11873,168419,0,168420,3988.0,43331.0,30305.0,-0.019459,0.002074,0.005063,0.7000000000000001,0.7350000000000001,-3.6925000000000003,1.11971875,0.11887500000000001,-0.1869375,1.29475,1.08915625,-0.41334375,-0.97028125,1.2426875,0.021800321801473836,0.03137104232656571,True
11874,168420,0,168421,3987.0,43333.0,30306.0,-0.009943,0.0015249999999999999,0.003111,0.4025,0.36750000000000005,-3.7975000000000003,1.1195,0.12221875,-0.184125,1.31534375,1.0874375,-0.4138125,-0.98278125,1.24903125,0.021956064830103865,0.031968268144684654,True
11875,168421,0,168422,3986.0,43334.0,30304.0,-0.001647,-0.002074,0.002562,0.12250000000000001,-0.43750000000000006,-3.8325000000000005,1.14703125,0.10928125,-0.19865625,1.31903125,1.0845625,-0.414125,-0.98146875,1.23825,0.021438665117017305,0.031335727608089496,True
11876,168422,0,168423,3987.0,43335.0,30307.0,0.0040869999999999995,-0.0026839999999999998,0.001647,-0.035,-1.1900000000000002,-3.9025000000000003,1.14625,0.10287500000000001,-0.19678125,1.30878125,1.081,-0.40471875,-0.9811562500000001,1.2445,0.020799000193354,0.03139866674505909,True
11877,168423,0,168424,3988.0,43338.0,30310.0,0.006954,0.00122,-0.003294,0.36750000000000005,-2.2225,-3.7100000000000004,1.11784375,0.11925000000000001,-0.1849375,1.2885,1.08446875,-0.4124375,-0.97975,1.2341875,0.021779369634842893,0.031818272800968786,True
11878,168424,0,168425,3988.0,43336.0,30311.0,0.009089,0.001586,-0.002745,0.525,-2.1,-3.7625,1.1091875,0.1188125,-0.18684375,1.28771875,1.0798125,-0.41015625,-0.97628125,1.23653125,0.021670027204352696,0.03160748760386417,True
11879,168425,0,168426,3991.0,43337.0,30312.0,0.005978,0.001769,-0.0023179999999999997,0.45500000000000007,-1.8550000000000002,-3.6575,1.1099375,0.11509375000000001,-0.1894375,1.29821875,1.07465625,-0.40778125,-0.9769375,1.2373125,0.021422471573486427,0.03152908558144889,True
11880,168426,0,168427,3989.0,43340.0,30312.0,0.0051849999999999995,0.000305,-0.0006709999999999999,0.31500000000000006,-1.3475000000000001,-3.535,1.125125,0.108375,-0.19946875,1.3066875,1.07678125,-0.40809375000000003,-0.9771875,1.236625,0.021159733131556006,0.031137162660928096,True
11881,168427,0,168428,3991.0,43337.0,30313.0,0.004697,-0.0011589999999999999,-0.003477,0.08750000000000001,-0.47250000000000003,-3.6050000000000004,1.1248125,0.11775000000000001,-0.18937500000000002,1.3001875,1.08328125,-0.406125,-0.97778125,1.24215625,0.021464898667854893,0.031564302774090475,True
11882,168428,0,168429,3991.0,43341.0,30312.0,-0.003294,-0.001647,0.00042699999999999997,0.24500000000000002,0.9975,-3.5175000000000005,1.11775,0.116125,-0.1911875,1.29965625,1.078875,-0.40675,-0.9783437500000001,1.2361875,0.02142337672979811,0.0315135486114847,True
11883,168429,0,168430,3992.0,43339.0,30313.0,-0.008296,6.1e-05,0.00122,0.42000000000000004,1.4875,-3.4475000000000002,1.1236875,0.11143750000000001,-0.19121875,1.30471875,1.07596875,-0.41225,-0.97909375,1.2429375,0.021451832584051037,0.03154137647607812,True
11884,168430,0,168431,3991.0,43338.0,30313.0,-0.010248,0.001281,0.0030499999999999998,0.45500000000000007,1.8900000000000001,-3.5000000000000004,1.13065625,0.11800000000000001,-0.1906875,1.299625,1.08578125,-0.41078125,-0.9763125,1.2366875,0.021661791344756737,0.03145480342624637,True
11885,168431,0,168432,3992.0,43339.0,30314.0,-0.009699,0.0011589999999999999,0.0023179999999999997,0.385,1.8375000000000001,-3.5700000000000003,1.12865625,0.1189375,-0.1931875,1.2999375,1.077375,-0.41150000000000003,-0.9801562500000001,1.24303125,0.021729000675910944,0.031503756106409465,True
11886,168432,0,168433,3993.0,43338.0,30311.0,-0.004758,-0.000183,0.003172,0.28,1.5750000000000002,-3.7275000000000005,1.1296875,0.114375,-0.19028125,1.299625,1.07621875,-0.41053125,-0.975,1.2373750000000001,0.021503270233006504,0.03142017017017017,True
11887,168433,0,168434,3996.0,43342.0,30317.0,-0.001037,-0.0017079999999999999,0.001464,0.14,0.36750000000000005,-3.8150000000000004,1.1225625000000001,0.11478125,-0.19137500000000002,1.2989375,1.07640625,-0.4081875,-0.9775312500000001,1.23603125,0.021425955942037892,0.03147453774079455,True
11888,168434,0,168435,3996.0,43344.0,30318.0,0.003843,-0.0013419999999999999,-0.00183,0.17500000000000002,-0.14,-3.7800000000000002,1.1138125,0.11425,-0.1944375,1.306875,1.0763125,-0.40840625,-0.978,1.244125,0.02141296095479401,0.031370105693009846,True
11889,168435,0,168436,3997.0,43346.0,30321.0,0.00549,-0.000732,0.00183,0.2625,-0.43750000000000006,-3.8325000000000005,1.1206875,0.11303125,-0.19190625,1.299625,1.0835625,-0.41096875,-0.9782500000000001,1.23653125,0.021465760141125084,0.031481138590573804,True
11890,168436,0,168437,3997.0,43347.0,30322.0,0.004575,0.000549,0.002257,0.45500000000000007,-0.805,-3.7625,1.12165625,0.11453125,-0.18837500000000001,1.30803125,1.07625,-0.40800000000000003,-0.97765625,1.2437500000000001,0.021408196083251393,0.03159949204601613,True
11891,168437,0,168438,3999.0,43350.0,30325.0,-0.001769,0.0018909999999999999,-0.0028669999999999998,0.47250000000000003,-1.1375000000000002,-3.535,1.13103125,0.11178125,-0.19453125000000002,1.30521875,1.08490625,-0.40925,-0.979875,1.2438125,0.02134564765406557,0.03143905844204585,True
11892,168438,0,168439,4000.0,43350.0,30327.0,-0.001403,0.00042699999999999997,-0.002074,0.3325,-1.3825,-3.43,1.1224687500000001,0.11421875000000001,-0.19209375,1.29871875,1.076,-0.40734375,-0.9795,1.24321875,0.021369080771028188,0.03152209812045878,True
11893,168439,0,168440,4000.0,43351.0,30327.0,-0.001098,-0.000915,-0.002196,0.3325,-1.4700000000000002,-3.5525,1.1248125,0.1160625,-0.193125,1.305375,1.08290625,-0.4105625,-0.98028125,1.24334375,0.021573652798865244,0.03151110438358255,True
11894,168440,0,168441,4000.0,43353.0,30328.0,0.001464,-0.001098,-0.000976,0.4025,-1.4525000000000001,-3.5525,1.1276875,0.11156250000000001,-0.1941875,1.3054375,1.0819375,-0.4105625,-0.978875,1.24290625,0.02138930637096134,0.03141404486791339,True
11895,168441,0,168442,4002.0,43353.0,30328.0,0.003538,-0.000732,-0.002196,0.47250000000000003,-1.3125000000000002,-3.5875000000000004,1.1313125,0.11253125,-0.19359375,1.3011875,1.0826875,-0.410625,-0.97821875,1.22875,0.021431497554855725,0.03141236802564234,True
11896,168442,0,168443,4002.0,43352.0,30330.0,0.001464,0.000366,-0.000915,0.42000000000000004,-1.05,-3.6400000000000006,1.126125,0.1143125,-0.19137500000000002,1.2995,1.07890625,-0.40809375000000003,-0.9771875,1.237,0.02140299260363174,0.03146120835262177,True
11897,168443,0,168444,4003.0,43353.0,30330.0,-0.000732,0.000793,0.000488,0.4025,-0.7175,-3.7450000000000006,1.12253125,0.1153125,-0.191,1.3005625,1.0718750000000001,-0.4074375,-0.9763125,1.2365,0.021417651894017963,0.03144229157126378,True
11898,168444,0,168445,4003.0,43350.0,30331.0,-0.002562,0.000976,0.001586,0.4025,-0.5775,-3.7975000000000003,1.1223125,0.11496875000000001,-0.19075,1.2991875,1.0771875,-0.40790625,-0.976875,1.23675,0.021422361862767313,0.031474113555038416,True
11899,168445,0,168446,4003.0,43352.0,30330.0,-0.0037819999999999998,0.001403,0.0037819999999999998,0.35000000000000003,-0.42000000000000004,-3.7450000000000006,1.1233125,0.11484375000000001,-0.18953125,1.298875,1.07734375,-0.4078125,-0.97659375,1.237625,0.02141348185135395,0.031512003112914466,True
11900,168446,0,168447,4006.0,43352.0,30331.0,-0.0068319999999999995,-0.000122,0.004758,0.21000000000000002,-0.5425000000000001,-3.7625,1.12278125,0.11490625,-0.1908125,1.29990625,1.07684375,-0.4078125,-0.9768125,1.23153125,0.021416042506881762,0.031469187671565375,True
11901,168447,0,168448,4005.0,43351.0,30332.0,-0.004514,-0.002013,-0.000549,0.07,-1.5925000000000002,-3.8850000000000002,1.1203125,0.1140625,-0.19037500000000002,1.3002500000000001,1.07725,-0.40684375,-0.97640625,1.23753125,0.02134263058901256,0.031470950709732305,True
11902,168448,0,168449,4008.0,43353.0,30336.0,0.000793,-0.000488,0.001586,0.29750000000000004,-2.24,-3.7975000000000003,1.12190625,0.11415625,-0.19009375,1.29278125,1.07728125,-0.408375,-0.97678125,1.23790625,0.021407867176737493,0.031496752608985594,True
11903,168449,0,168450,4008.0,43356.0,30340.0,0.003843,0.001037,-0.0006709999999999999,0.5950000000000001,-2.87,-3.6050000000000004,1.12284375,0.11421875000000001,-0.19071875,1.29865625,1.07709375,-0.4064375,-0.97409375,1.235625,0.021332742642182007,0.031367504576617515,True
11904,168450,0,168451,4010.0,43360.0,30339.0,0.00915,0.004148,-0.0035989999999999998,0.525,-3.115,-3.7100000000000004,1.1216875,0.11521875000000001,-0.1901875,1.30003125,1.07509375,-0.40759375000000003,-0.9748125,1.23321875,0.02142007546319473,0.03141665227716925,True
11905,168451,0,168452,4010.0,43359.0,30343.0,0.012627,0.002196,-0.004575,0.31500000000000006,-2.8000000000000003,-3.9025000000000003,1.12278125,0.11471875000000001,-0.1910625,1.29971875,1.07,-0.40546875,-0.974,1.23075,0.02131438266269727,0.0313501041082726,True
11906,168452,0,168453,4012.0,43359.0,30344.0,0.0034159999999999998,-0.0030499999999999998,-6.1e-05,0.0,-1.5925000000000002,-3.7450000000000006,1.1226562500000001,0.11453125,-0.1906875,1.298375,1.069625,-0.4035625,-0.9762500000000001,1.22534375,0.021230250706223735,0.03145237976077274,True
11907,168453,0,168454,4014.0,43361.0,30345.0,-0.003965,-0.002257,0.00061,0.035,-0.8925000000000001,-3.6050000000000004,1.12321875,0.1143125,-0.18696875000000002,1.3003125,1.06921875,-0.40746875,-0.974125,1.24078125,0.021377933752347835,0.03151887203255369,True
11908,168454,0,168455,4014.0,43361.0,30345.0,-0.0077469999999999995,0.000488,0.0013419999999999999,0.1925,-0.22750000000000004,-3.6050000000000004,1.1271875,0.110625,-0.193375,1.306625,1.0928437500000001,-0.4131875,-0.98128125,1.25253125,0.021456128987662918,0.031539865474273863,True
11909,168455,0,168456,4014.0,43357.0,30343.0,-0.009637999999999999,0.0015249999999999999,0.004575,0.35000000000000003,-0.14,-3.6400000000000006,1.13065625,0.1138125,-0.1928125,1.3055,1.09365625,-0.4138125,-0.975,1.2321875,0.021611741304230957,0.03131881881881882,True
11910,168456,0,168457,4016.0,43362.0,30347.0,-0.011833999999999999,0.00061,0.005612,0.385,-0.43750000000000006,-3.6225000000000005,1.12359375,0.11521875000000001,-0.19034375,1.29696875,1.0720625,-0.40490625,-0.97309375,1.23253125,0.021312312969856216,0.031343733693387506,True
11911,168457,0,168458,4018.0,43361.0,30347.0,-0.014091,-0.0028669999999999998,0.002196,0.3325,-2.6250000000000004,-3.6225000000000005,1.12296875,0.1148125,-0.19275,1.30459375,1.0705,-0.40650000000000003,-0.9859687500000001,1.2531875000000001,0.021359576342367813,0.03174656776115595,True
11912,168458,0,168459,4020.0,43361.0,30352.0,-0.014213,-0.0030499999999999998,-0.000976,0.385,-4.515000000000001,-3.7625,1.12190625,0.11290625,-0.19112500000000002,1.30740625,1.090625,-0.40971875,-0.97859375,1.2370625,0.02141052936138398,0.03152574391822999,True
11913,168459,0,168460,4021.0,43365.0,30352.0,-0.012444,-0.002257,-0.000732,0.7525000000000001,-6.982500000000001,-3.8150000000000004,1.1260000000000001,0.11515625,-0.19071875,1.30146875,1.084375,-0.4049375,-0.97371875,1.23075,0.02131100520130404,0.03135295979898868,True
11914,168460,0,168461,4024.0,43369.0,30357.0,-0.000732,-0.000366,-6.1e-05,1.12,-9.555000000000001,-4.095000000000001,1.12978125,0.11271875,-0.194,1.304375,1.074375,-0.4084375,-0.97646875,1.2397500000000001,0.021351479380849345,0.031328237703738646,True
11915,168461,0,168462,4024.0,43374.0,30361.0,0.012565999999999999,0.002196,-0.00244,1.3475000000000001,-11.8825,-4.41,1.1274375,0.11515625,-0.1905625,1.2985625,1.07784375,-0.40728125,-0.97440625,1.23525,0.021404985448758247,0.031385881295976754,True
11916,168462,0,168463,4027.0,43381.0,30364.0,0.032452,0.001952,-0.006771,1.4000000000000001,-13.7725,-4.41,1.1226562500000001,0.115125,-0.18978125,1.29465625,1.074375,-0.40775,-0.9769375,1.23634375,0.021422499001341785,0.03151532288536175,True
11917,168463,0,168464,4029.0,43381.0,30367.0,0.033367,0.002379,-0.006893,1.4525000000000001,-13.2825,-4.322500000000001,1.1280937500000001,0.11221875,-0.19259375,1.299375,1.0775625,-0.409375,-0.97846875,1.2429375,0.02136858276789143,0.03146209673080941,True
11918,168464,0,168465,4030.0,43382.0,30370.0,0.027572,0.00244,-0.005795,1.3825,-11.672500000000001,-4.2175,1.1223125,0.115,-0.19025,1.30465625,1.0766875,-0.40690625,-0.977125,1.23615625,0.02138354794557381,0.03150382600079072,True
11919,168465,0,168466,4032.0,43384.0,30369.0,0.01952,0.002928,-0.004026,1.2950000000000002,-9.2925,-4.2700000000000005,1.12884375,0.113625,-0.1901875,1.2990625,1.0841875,-0.41028125,-0.97184375,1.24215625,0.021462524115735047,0.03130150331811202,True
11920,168466,0,168467,4032.0,43382.0,30368.0,0.010126,0.003355,-0.000305,1.1900000000000002,-6.492500000000001,-4.235,1.123,0.115,-0.1939375,1.3040625000000001,1.077,-0.40800000000000003,-0.9771875,1.2444375,0.021427400852179614,0.031358614735946554,True
11921,168467,0,168468,4035.0,43378.0,30362.0,-0.007442,-0.000122,0.004514,0.42000000000000004,-0.7525000000000001,-3.9725000000000006,1.1263125,0.11862500000000001,-0.19090625,1.3004375000000001,1.08590625,-0.4068125,-0.9765312500000001,1.2300312500000001,0.021528313047842685,0.03145452793810189,True
11922,168468,0,168469,4034.0,43373.0,30359.0,-0.015493999999999999,-0.004148,0.005612,0.035,1.3125000000000002,-3.7975000000000003,1.123125,0.111,-0.1928125,1.29959375,1.076375,-0.40815625,-0.9795312500000001,1.24134375,0.021269785586529092,0.031494536151474024,True
11923,168469,0,168470,4036.0,43370.0,30359.0,-0.024095,-0.004697,0.004331,0.0175,2.45,-3.6750000000000003,1.12325,0.1203125,-0.1921875,1.29603125,1.076625,-0.40328125000000004,-0.97721875,1.2353125,0.021455874914362186,0.031429890487706925,True
11924,168470,0,168471,4037.0,43364.0,30354.0,-0.026291,-0.003355,0.0046359999999999995,0.1925,2.555,-3.535,1.1300937500000001,0.11528125,-0.1905625,1.2995625,1.0824375,-0.41059375000000004,-0.9703437500000001,1.2353125,0.02154290081534785,0.031228294564427054,True
11925,168471,0,168472,4037.0,43362.0,30351.0,-0.02379,0.000305,0.0021349999999999997,0.31500000000000006,1.995,-3.43,1.13240625,0.11553125,-0.1910625,1.2995,1.0834062500000001,-0.41071875,-0.9765312500000001,1.23715625,0.021558152604580723,0.0314482720654014,True
11926,168472,0,168473,4037.0,43360.0,30349.0,-0.004941,0.00244,0.0026839999999999998,0.17500000000000002,-0.3325,-3.5000000000000004,1.12334375,0.10984375,-0.19521875,1.2929375,1.07671875,-0.40784375,-0.98090625,1.24396875,0.021209882581291105,0.03145152109923954,True
11927,168473,0,168474,4035.0,43362.0,30347.0,0.003355,-6.1e-05,0.002196,-0.29750000000000004,-1.6625,-3.5875000000000004,1.12025,0.11525,-0.19090625,1.30421875,1.08115625,-0.40740625,-0.9775625,1.23475,0.021413838268865625,0.03149451632840474,True
11928,168474,0,168475,4033.0,43364.0,30346.0,0.010369999999999999,-0.002928,0.001281,-0.6825000000000001,-2.7475,-3.6750000000000003,1.13265625,0.110875,-0.194875,1.31040625,1.07684375,-0.41003125,-0.9789375,1.24309375,0.02133984363498101,0.031388945186319475,True
11929,168475,0,168476,4030.0,43366.0,30346.0,0.013481,-0.005307,0.00042699999999999997,-0.6825000000000001,-3.5000000000000004,-3.7275000000000005,1.1308125,0.111,-0.19084375,1.2955625,1.08290625,-0.40768750000000004,-0.97709375,1.2434687500000001,0.021250989058262896,0.03147884248943094,True
11930,168476,0,168477,4029.0,43365.0,30345.0,0.012078,-0.0035989999999999998,-0.000915,-0.42000000000000004,-3.8325000000000005,-3.5875000000000004,1.11028125,0.115625,-0.1898125,1.297375,1.08109375,-0.4074375,-0.9760625,1.23675,0.02143045536836876,0.03148014223619116,True
11931,168477,0,168478,4026.0,43367.0,30343.0,0.006161,0.004392,-0.0062829999999999995,0.36750000000000005,-3.325,-3.0275000000000003,1.11990625,0.11478125,-0.19109375,1.2946875,1.076375,-0.40825,-0.9707187500000001,1.236125,0.02142846168815872,0.031221568261826666,True
11932,168478,0,168479,4023.0,43368.0,30340.0,0.0050019999999999995,0.006161,-0.006893,0.5425000000000001,-2.4850000000000003,-2.8000000000000003,1.1299375,0.10965625,-0.1965,1.3111875,1.07634375,-0.40775,-0.9768125,1.242375,0.02119844106892278,0.031241476469425388,True
11933,168479,0,168480,4019.0,43364.0,30334.0,0.003721,0.002623,-0.0051849999999999995,0.17500000000000002,-1.61,-2.6950000000000003,1.13328125,0.11118750000000001,-0.18521875000000002,1.3106875,1.08325,-0.4104375,-0.979375,1.23959375,0.021368932859150928,0.03179247879500588,True
11934,168480,0,168481,4018.0,43362.0,30328.0,0.00061,-0.001098,-0.003111,-0.08750000000000001,-0.7175,-2.7125000000000004,1.13534375,0.112,-0.19521875,1.3088125,1.0806875,-0.40934375,-0.979875,1.2416875,0.02135836814539514,0.031411536286710805,True
11935,168481,0,168482,4015.0,43359.0,30325.0,-0.000915,-0.004392,-0.008052,-0.29750000000000004,0.47250000000000003,-2.6950000000000003,1.12984375,0.11184375,-0.1885,1.3061562500000001,1.0734375,-0.40934375,-0.9778125,1.2395625000000001,0.02135196690816401,0.03160054548411716,True
11936,168482,0,168483,4012.0,43359.0,30325.0,-0.001403,-0.004392,0.020923,0.5425000000000001,4.742500000000001,-2.3800000000000003,1.12425,0.11375,-0.19065625,1.3043437500000001,1.0799375,-0.40903125,-0.9746250000000001,1.24015625,0.02141753372535012,0.031390611470642704,True
11937,168483,0,168484,4011.0,43358.0,30324.0,0.003904,0.000732,0.003355,0.8575,4.585000000000001,-2.4675000000000002,1.127625,0.11131250000000001,-0.1869375,1.304625,1.08128125,-0.40875,-0.97859375,1.24003125,0.02130639627182875,0.031693387463015206,True
11938,168484,0,168485,4010.0,43352.0,30316.0,0.005978,0.017202,0.008052,0.29750000000000004,7.280000000000001,-3.9200000000000004,1.1245625000000001,0.11193750000000001,-0.1933125,1.3001562500000001,1.0805625,-0.40846875,-0.9788125,1.2366875,0.02132072500451303,0.03144665103675365,True
11939,168485,0,168486,4010.0,43344.0,30311.0,-0.024704999999999998,0.006771,0.005612,-0.43750000000000006,6.755000000000001,-3.8500000000000005,1.1230625,0.11525,-0.19065625,1.3,1.0776875000000001,-0.40725,-0.9755,1.238,0.021407573569328785,0.031424546055134034,True
11940,168486,0,168487,4007.0,43337.0,30304.0,-0.046543,-0.012688,0.002989,-0.8925000000000001,5.355,-2.4675000000000002,1.11546875,0.1145,-0.19015625,1.29971875,1.0703125,-0.40734375,-0.97740625,1.236625,0.0213806039422049,0.03151848483066571,True
11941,168487,0,168488,4008.0,43335.0,30306.0,-0.019398,-0.0051849999999999995,0.003843,-0.8750000000000001,1.2425000000000002,-4.095000000000001,1.1235,0.11762500000000001,-0.19075,1.30571875,1.078375,-0.4055,-0.969875,1.2296562500000001,0.021434717584151115,0.031202599131954004,True
11942,168488,0,168489,4007.0,43338.0,30307.0,0.013054,0.002196,0.000549,-0.12250000000000001,-1.0675000000000001,-4.2,1.1275,0.111875,-0.1936875,1.3048125,1.07221875,-0.4113125,-0.9794375000000001,1.259625,0.02143217412009289,0.03145587245509432,True
11943,168489,0,168490,4006.0,43343.0,30311.0,0.026535,0.005978,-0.0011589999999999999,0.47250000000000003,-3.535,-3.9725000000000006,1.12390625,0.113625,-0.188,1.30146875,1.100625,-0.4185625,-0.9872500000000001,1.2556875,0.021794382859351365,0.03198631301964002,True
11944,168490,0,168491,4008.0,43345.0,30316.0,0.026657,0.0075639999999999995,-0.00366,0.6475000000000001,-4.795000000000001,-4.0075,1.125,0.11340625,-0.19265625,1.304375,1.0919375,-0.419875,-0.9831562500000001,1.24865625,0.02183800080876745,0.03164131833823038,True
11945,168491,0,168492,4009.0,43348.0,30316.0,0.020801,0.0035989999999999998,-0.0057339999999999995,0.28,-4.952500000000001,-4.0600000000000005,1.12484375,0.1134375,-0.19415625,1.3048125,1.1013125,-0.41390625000000003,-0.98153125,1.25203125,0.02160013824088474,0.03151828413240281,True
11946,168492,0,168493,4010.0,43348.0,30320.0,0.011895,-0.004331,-0.004331,-0.035,-3.3425000000000002,-3.7975000000000003,1.12271875,0.112625,-0.194625,1.294375,1.1009375000000001,-0.4159375,-0.98290625,1.25740625,0.02164825741383062,0.03155282424357655,True
11947,168493,0,168494,4008.0,43347.0,30321.0,0.0051849999999999995,-0.0023179999999999997,-0.001647,0.10500000000000001,-2.0125,-3.7625,1.12615625,0.11750000000000001,-0.19253125000000001,1.30546875,1.100375,-0.4199375,-0.9805625,1.25315625,0.022008143960237408,0.03154577684149426,True
11948,168494,0,168495,4009.0,43347.0,30321.0,-0.00061,0.0018909999999999999,-0.000366,0.4025,-0.7175,-3.6750000000000003,1.12909375,0.11340625,-0.18971875,1.29959375,1.085,-0.41034375,-0.96703125,1.22609375,0.021456068188306445,0.031133557378793284,True
11949,168495,0,168496,4010.0,43347.0,30319.0,-0.007076,0.002257,0.000366,0.6125,0.31500000000000006,-3.6575,1.12284375,0.115125,-0.19128125,1.29934375,1.06509375,-0.40328125000000004,-0.97178125,1.22925,0.021243301041740038,0.031255279396618936,True
11950,168496,0,168497,4010.0,43345.0,30321.0,-0.014213,0.000122,0.003538,0.49000000000000005,0.9275000000000001,-3.6050000000000004,1.1235,0.112625,-0.19284375,1.30084375,1.0814375,-0.412375,-0.98590625,1.2555625000000001,0.021505486459224062,0.03174039364691845,True
11951,168497,0,168498,4011.0,43346.0,30323.0,-0.010248,-0.001586,0.002379,0.1925,0.8750000000000001,-3.6050000000000004,1.125,0.11471875000000001,-0.18696875000000002,1.30384375,1.0849375,-0.40325,-0.97109375,1.2326875,0.021225400305287204,0.03140130776209993,True
11952,168498,0,168499,4010.0,43347.0,30326.0,-0.00671,-0.0021349999999999997,0.001098,0.08750000000000001,0.49000000000000005,-3.7275000000000005,1.12965625,0.1156875,-0.19090625,1.3039375,1.0885,-0.41196875,-0.97346875,1.2309375,0.021614653672698967,0.03133575507006811,True
11953,168499,0,168500,4012.0,43347.0,30328.0,-0.00183,-0.001037,0.00042699999999999997,0.1925,-0.0175,-3.7450000000000006,1.1309375,0.1151875,-0.19025,1.2989375,1.0800625,-0.40740625,-0.9780625000000001,1.23709375,0.02141127757071688,0.031540176504883034,True
11954,168500,0,168501,4014.0,43347.0,30329.0,0.002745,0.00122,0.00061,0.24500000000000002,-0.5950000000000001,-3.8850000000000002,1.12825,0.11215625,-0.1904375,1.29965625,1.07665625,-0.40446875,-0.98009375,1.2415,0.021169278679749996,0.03161142059364769,True
11955,168501,0,168502,4014.0,43350.0,30331.0,0.002562,-0.000549,0.0015249999999999999,0.035,-1.5050000000000001,-3.9200000000000004,1.123625,0.11403125,-0.19037500000000002,1.29921875,1.07675,-0.40768750000000004,-0.9756875,1.24221875,0.021375181487389986,0.03144307839373792,True
11956,168502,0,168503,4014.0,43349.0,30334.0,0.000366,-0.002257,-0.001037,-0.07,-1.8375000000000001,-3.7975000000000003,1.12259375,0.11421875000000001,-0.1914375,1.30271875,1.0765625,-0.4074375,-0.97628125,1.244875,0.02137283973379016,0.031423563105496335,True
11957,168503,0,168504,4016.0,43354.0,30337.0,-0.000244,-0.0008539999999999999,-0.002623,0.21000000000000002,-2.2925000000000004,-3.8150000000000004,1.12365625,0.11503125,-0.19153125000000001,1.30475,1.08284375,-0.40665625,-0.9761562500000001,1.23740625,0.021374804260620498,0.0314149620200266,True
11958,168504,0,168505,4018.0,43356.0,30341.0,0.000305,0.001281,-0.002196,0.36750000000000005,-2.5725000000000002,-3.8500000000000005,1.12765625,0.11465625,-0.19012500000000002,1.30171875,1.083625,-0.40971875,-0.97646875,1.23646875,0.021482222116959052,0.031483383734940515,True
11959,168505,0,168506,4017.0,43357.0,30343.0,0.004209,0.0017079999999999999,-0.000915,0.525,-2.66,-3.8150000000000004,1.1282812500000001,0.114875,-0.1901875,1.2970625,1.07928125,-0.4096875,-0.9716875,1.23740625,0.02148993099563442,0.03129544208816485,True
11960,168506,0,168507,4019.0,43357.0,30343.0,0.007869,0.000244,-0.0017079999999999999,0.21000000000000002,-2.1875,-3.9375000000000004,1.127625,0.11190625,-0.18978125,1.3002500000000001,1.07271875,-0.40925,-0.9784375000000001,1.2454375,0.02135076866351895,0.031573482128335696,True
11961,168507,0,168508,4020.0,43359.0,30347.0,0.0055509999999999995,-0.001281,-0.00042699999999999997,0.14,-1.6800000000000002,-3.8675,1.123625,0.11484375000000001,-0.19090625,1.29665625,1.08384375,-0.41090625000000003,-0.97528125,1.23790625,0.02153750436856477,0.03140605273464138,True
11962,168508,0,168509,4021.0,43360.0,30347.0,0.000488,-0.000793,-0.001098,0.21000000000000002,-0.9800000000000001,-3.7275000000000005,1.12390625,0.10956250000000001,-0.198625,1.30021875,1.07640625,-0.403375,-0.9755312500000001,1.23915625,0.021019121330553666,0.031106695678395236,True
11963,168509,0,168510,4022.0,43357.0,30348.0,-0.002196,-0.000122,0.000915,0.3325,-0.36750000000000005,-3.7450000000000006,1.11346875,0.11665625,-0.18359375,1.2965312500000001,1.08196875,-0.4086875,-0.97671875,1.2365,0.021522818463712973,0.031754571444657834,True
11964,168510,0,168511,4022.0,43361.0,30348.0,-0.004575,0.001037,0.00122,0.4025,0.08750000000000001,-3.5875000000000004,1.12178125,0.11143750000000001,-0.1955,1.3153125,1.07671875,-0.40721875,-0.9768125,1.2364375,0.02125011683275056,0.031281513603867585,True
11965,168511,0,168512,4024.0,43360.0,30349.0,-0.0040869999999999995,-0.000793,-0.000183,0.12250000000000001,0.42000000000000004,-3.6575,1.13221875,0.11715625,-0.1884375,1.2993125,1.0779375,-0.4069375,-0.97865625,1.2375,0.021473146723139682,0.03163575902927124,True
11966,168512,0,168513,4023.0,43361.0,30353.0,-0.004941,-0.000976,0.0018909999999999999,0.07,0.22750000000000004,-3.8150000000000004,1.13553125,0.11165625,-0.19446875,1.28921875,1.07696875,-0.4038125,-0.9770625000000001,1.2319375000000001,0.021122468056989047,0.031332497566517285,True
11967,168513,0,168514,4026.0,43363.0,30354.0,-0.0050019999999999995,-0.0015249999999999999,0.004209,0.035,0.0175,-3.7625,1.11653125,0.11603125,-0.19115625,1.31071875,1.0824375,-0.407125,-0.97596875,1.2373125,0.021434570847652067,0.03142270507525359,True
11968,168514,0,168515,4026.0,43360.0,30354.0,-0.005429,-0.001281,0.0023179999999999997,0.07,-0.43750000000000006,-3.7450000000000006,1.13878125,0.1155625,-0.18703125,1.29421875,1.07709375,-0.41096875,-0.97946875,1.2324375,0.021569453281119786,0.03172355296787487,True
11969,168515,0,168516,4028.0,43365.0,30359.0,-0.006771,-0.000976,0.000488,0.22750000000000004,-1.225,-3.7800000000000002,1.117625,0.11328125,-0.1923125,1.3155000000000001,1.0768125,-0.40725,-0.97575,1.237,0.021326911061262534,0.03136792688908241,True
11970,168516,0,168517,4029.0,43366.0,30363.0,0.001647,0.001098,-0.00183,0.49000000000000005,-2.7825,-3.8150000000000004,1.14028125,0.113875,-0.19012500000000002,1.3171875,1.07646875,-0.40846875,-0.977125,1.23659375,0.021400103191643267,0.03150883057998068,True
11971,168517,0,168518,4031.0,43366.0,30366.0,0.0068319999999999995,0.002379,-0.002379,0.6300000000000001,-3.3600000000000003,-3.8500000000000005,1.13984375,0.11118750000000001,-0.19203125000000001,1.2875,1.07771875,-0.40759375000000003,-0.97940625,1.24478125,0.021254911701404408,0.031520965395244335,True
11972,168518,0,168519,4031.0,43371.0,30368.0,0.009821,0.000732,-0.002074,0.45500000000000007,-3.6925000000000003,-3.9375000000000004,1.1164375,0.1170625,-0.188,1.29440625,1.0845625,-0.41015625,-0.97828125,1.24215625,0.021598335733717392,0.03163873615203208,True
11973,168519,0,168520,4033.0,43373.0,30372.0,0.011101999999999999,0.00122,-0.002928,0.36750000000000005,-3.5875000000000004,-4.0600000000000005,1.1160625,0.11659375,-0.1871875,1.2945625,1.08075,-0.406625,-0.9756875,1.23265625,0.02143757074155071,0.03157070250818921,True
11974,168520,0,168521,4033.0,43375.0,30376.0,0.010248,-0.00122,-0.00183,0.21000000000000002,-3.115,-4.0075,1.11459375,0.11678125,-0.1875625,1.2965312500000001,1.0804375,-0.40996875,-0.97884375,1.2431875000000001,0.021579298416758524,0.031678057556206944,True
11975,168521,0,168522,4036.0,43376.0,30377.0,0.002013,-0.000305,0.000488,0.35000000000000003,-1.5575,-3.99,1.12090625,0.114375,-0.18987500000000002,1.3001875,1.08384375,-0.40846875,-0.9780625000000001,1.2435,0.021420587885096234,0.031555189678943274,True
11976,168522,0,168523,4035.0,43375.0,30377.0,0.0,-0.000488,-0.0018909999999999999,0.24500000000000002,-0.6300000000000001,-3.9200000000000004,1.12684375,0.11390625,-0.1925,1.3058125,1.0851875,-0.410875,-0.9798125,1.2424375,0.021497846758872837,0.031517950745226765,True
11977,168523,0,168524,4038.0,43377.0,30380.0,-0.0048189999999999995,0.000549,-0.001647,0.17500000000000002,0.052500000000000005,-3.9375000000000004,1.1230625,0.11475,-0.18940625,1.2998125,1.0858125,-0.4089375,-0.975875,1.23109375,0.021454743779814257,0.03148913701722162,True
11978,168524,0,168525,4039.0,43379.0,30383.0,-0.002013,-0.00042699999999999997,0.005978,0.2625,0.9450000000000001,-3.7800000000000002,1.1215,0.1206875,-0.19012500000000002,1.29946875,1.076875,-0.40734375,-0.9785312500000001,1.2434375,0.021634113708092467,0.031563355031132986,True
11979,168525,0,168526,4041.0,43377.0,30384.0,-0.00732,-0.0018909999999999999,-0.002745,0.2625,1.12,-3.7450000000000006,1.11540625,0.1149375,-0.18578125,1.3,1.0789375,-0.40653125,-0.97396875,1.2417500000000001,0.02136595096855478,0.03156036222716904,True
