frame_seq,absolute_seq_u64,segment_id,sample_seq,PPG_G,PPG_R,PPG_IR,ACC_X,ACC_Y,ACC_Z,GYRO_X,GYRO_Y,GYRO_Z,Uh1,Uh2,Uh3,Uh4,Uc1,Uc2,Uc3,Uc4,UD1,UD2,parser_valid
60558,21584,0,21585,8214.0,83088.0,123677.0,0.004026,0.001647,-0.0017079999999999999,0.49000000000000005,-2.5375,-3.7975000000000003,0.63896875,-0.26834375,-0.2775,0.88778125,0.61,-0.887875,-1.11934375,0.856375,0.02489289463242643,0.033513763670677106,True
60559,21585,0,21586,8218.0,83083.0,123666.0,0.0075639999999999995,0.000915,-0.000488,0.31500000000000006,-2.6425,-3.8150000000000004,0.6404375,-0.266625,-0.28109375000000003,0.88796875,0.61065625,-0.8884062500000001,-1.11915625,0.85540625,0.024982766825416957,0.033363481307219466,True
60560,21586,0,21587,8215.0,83081.0,123661.0,0.002745,-0.001098,-0.0025009999999999998,0.2625,-1.6450000000000002,-3.535,0.64075,-0.269625,-0.2841875,0.88665625,0.60253125,-0.88790625,-1.12315625,0.85475,0.024842638178934798,0.0333942416172331,True
60561,21587,0,21588,8218.0,83082.0,123662.0,-0.000244,-0.00183,0.001769,0.29750000000000004,-0.9450000000000001,-3.4125000000000005,0.637875,-0.2705625,-0.2829375,0.8866875000000001,0.6023125,-0.8885000000000001,-1.1233125,0.85603125,0.02482823392329791,0.03345000783634721,True
60562,21588,0,21589,8215.0,83088.0,123666.0,-0.00488,-0.000976,0.002623,0.43750000000000006,-0.45500000000000007,-3.2900000000000005,0.6382187500000001,-0.2663125,-0.28046875,0.89009375,0.604125,-0.88346875,-1.119125,0.85990625,0.02480185765901308,0.03338716018173403,True
60563,21589,0,21590,8214.0,83094.0,123682.0,-0.007442,-0.00061,0.003294,0.5950000000000001,-0.4025,-3.3075,0.6348125,-0.2680625,-0.28146875,0.87653125,0.6119687500000001,-0.8905937500000001,-1.1214375,0.854875,0.02501070308939497,0.033436333012392315,True
60564,21590,0,21591,8213.0,83095.0,123693.0,-0.004941,0.000244,0.003477,0.665,-0.43750000000000006,-3.3600000000000003,0.6395000000000001,-0.26865625,-0.28434375,0.8924062500000001,0.6040625000000001,-0.886375,-1.11978125,0.8511875,0.024821564008418263,0.03325815187980588,True
60565,21591,0,21592,8215.0,83102.0,123701.0,-0.0018909999999999999,-0.00061,-6.1e-05,0.45500000000000007,-1.1375000000000002,-3.5175000000000005,0.64403125,-0.26665625,-0.28075,0.88728125,0.59865625,-0.8878125,-1.11975,0.85565625,0.024958250147537078,0.033400013933259684,True
60566,21592,0,21593,8213.0,83110.0,123704.0,-0.00042699999999999997,0.000122,-0.000976,0.5775,-1.7325000000000002,-3.6225000000000005,0.639625,-0.2666875,-0.28040625,0.8911875,0.6034375,-0.8865937500000001,-1.117875,0.86071875,0.0249092445606382,0.03334154461713023,True
60567,21593,0,21594,8213.0,83108.0,123700.0,0.003111,0.00183,-0.001464,0.6300000000000001,-2.24,-3.8500000000000005,0.6464375,-0.2688125,-0.28271875,0.8876875000000001,0.61025,-0.8905000000000001,-1.12196875,0.85578125,0.024976898816817663,0.03340701552301708,True
60568,21594,0,21595,8214.0,83103.0,123699.0,0.002562,0.003477,-0.0030499999999999998,0.7350000000000001,-2.4675000000000002,-4.2175,0.636625,-0.26587500000000003,-0.27659375,0.8856875000000001,0.60303125,-0.8874375,-1.11871875,0.8555,0.024974949711074113,0.033525794383919366,True
60569,21595,0,21596,8212.0,83096.0,123687.0,0.0057339999999999995,0.0044529999999999995,-0.005246,0.7525000000000001,-2.7125000000000004,-4.2875000000000005,0.64371875,-0.27028125000000003,-0.28425,0.88778125,0.6068125,-0.88809375,-1.12240625,0.8558125,0.024823616714317463,0.03336289691597516,True
60570,21596,0,21597,8214.0,83091.0,123681.0,0.005795,0.001952,-0.0006709999999999999,0.36750000000000005,-1.8725000000000003,-4.1475,0.63365625,-0.2638125,-0.27825,0.8875625,0.60359375,-0.8817812500000001,-1.1176875,0.85446875,0.024836194153101482,0.03342017452840752,True
60571,21597,0,21598,8215.0,83089.0,123672.0,0.0015249999999999999,-0.0006709999999999999,0.002074,0.22750000000000004,-1.225,-3.8675,0.64203125,-0.26846875,-0.27784375,0.8865937500000001,0.60609375,-0.8845000000000001,-1.1199375,0.85984375,0.02475562096887621,0.033522923773198085,True
60572,21598,0,21599,8210.0,83089.0,123679.0,-0.002623,-0.003355,0.004148,0.12250000000000001,-0.5950000000000001,-3.2725000000000004,0.6393125000000001,-0.2661875,-0.28271875,0.89278125,0.6036875,-0.88421875,-1.11778125,0.86053125,0.024836272989281614,0.03324587039311046,True
60573,21599,0,21600,8214.0,83097.0,123693.0,-0.0066489999999999995,-0.0048189999999999995,0.002623,-0.035,-0.21000000000000002,-2.8525000000000005,0.64284375,-0.2675625,-0.28300000000000003,0.89296875,0.6094375,-0.88965625,-1.1188125,0.850375,0.024994067565718193,0.03327436358705253,True
60574,21600,0,21601,8215.0,83103.0,123715.0,-0.009271999999999999,-0.004392,0.003843,-0.035,-0.15750000000000003,-2.7125000000000004,0.6460625,-0.26878125,-0.2804375,0.8866875000000001,0.60871875,-0.88925,-1.1183750000000001,0.8551875,0.024929186295288123,0.03335954256595023,True
60575,21601,0,21602,8215.0,83115.0,123724.0,-0.0030499999999999998,-0.002989,0.001647,0.17500000000000002,-1.0150000000000001,-2.9575000000000005,0.639,-0.26859375,-0.283625,0.88709375,0.6036875,-0.8884375,-1.1189375,0.8442500000000001,0.024904888062981054,0.033254292702468005,True
60576,21602,0,21603,8213.0,83113.0,123732.0,0.0013419999999999999,-0.00061,-0.001769,0.43750000000000006,-1.5925000000000002,-3.3425000000000002,0.63725,-0.266625,-0.28046875,0.8918125,0.6039375,-0.8871875,-1.11759375,0.85903125,0.024935019274476073,0.03332823232719097,True
60577,21603,0,21604,8213.0,83110.0,123727.0,0.0032329999999999998,0.0011589999999999999,-0.002989,0.5950000000000001,-2.1525000000000003,-3.5875000000000004,0.64365625,-0.2665625,-0.28096875,0.88803125,0.6086875,-0.888,-1.117125,0.85559375,0.02496936274509804,0.0332902850147061,True
60578,21604,0,21605,8213.0,83106.0,123719.0,0.003111,0.00366,-0.0037819999999999998,0.7350000000000001,-2.6250000000000004,-3.9550000000000005,0.64490625,-0.26853125,-0.2805625,0.8869375,0.60825,-0.8885937500000001,-1.11809375,0.8559687500000001,0.024913520877409962,0.033343742496382715,True
60579,21605,0,21606,8210.0,83102.0,123718.0,0.004941,0.0034159999999999998,-0.00488,0.77,-2.7125000000000004,-4.130000000000001,0.6454375,-0.2670625,-0.281,0.8866875000000001,0.6110625000000001,-0.8885625,-1.11759375,0.855,0.02497130961259816,0.03330708181391778,True
60580,21606,0,21607,8209.0,83099.0,123706.0,0.0066489999999999995,0.00183,-0.001952,0.525,-2.3975000000000004,-4.2875000000000005,0.63803125,-0.2660625,-0.27725,0.8865000000000001,0.60371875,-0.88715625,-1.11696875,0.8466875,0.024956396936672908,0.03343232849306308,True
60581,21607,0,21608,8212.0,83096.0,123695.0,0.004026,0.001769,0.0006709999999999999,0.4025,-1.8200000000000003,-4.1475,0.6385000000000001,-0.26721875,-0.282875,0.88625,0.6023437500000001,-0.885625,-1.122125,0.86984375,0.024849938468493357,0.03340680774416973,True
60582,21608,0,21609,8212.0,83094.0,123697.0,0.001037,-0.000549,0.004392,0.35000000000000003,-1.2075,-3.8500000000000005,0.6430625,-0.26715625,-0.28028125,0.88684375,0.6218750000000001,-0.8905937500000001,-1.11659375,0.8498125,0.025047112425753207,0.03329721013622717,True
60583,21609,0,21610,8210.0,83096.0,123702.0,-0.0050019999999999995,-0.001769,0.0,0.31500000000000006,-0.5950000000000001,-3.5000000000000004,0.63959375,-0.26925,-0.27915625,0.89271875,0.59459375,-0.87821875,-1.11278125,0.85959375,0.024477988400998366,0.03319524793774087,True
60584,21610,0,21611,8212.0,83104.0,123723.0,-0.00976,-0.0006709999999999999,0.000366,0.35000000000000003,-0.36750000000000005,-3.43,0.646,-0.2665625,-0.27996875,0.8875937500000001,0.6114375,-0.8929375,-1.117625,0.84678125,0.025162759517634276,0.033349341348953176,True
60585,21611,0,21612,8212.0,83113.0,123734.0,-0.0030499999999999998,-0.0013419999999999999,0.005307,0.49000000000000005,-0.8750000000000001,-3.2550000000000003,0.6451250000000001,-0.2693125,-0.28350000000000003,0.8885625,0.5990625,-0.8864375,-1.11925,0.86865625,0.02479764329466602,0.033271295918468904,True
60586,21612,0,21613,8211.0,83111.0,123733.0,0.000488,-0.000549,0.001281,0.31500000000000006,-1.435,-3.4475000000000002,0.63909375,-0.26578125,-0.27984375,0.89225,0.60534375,-0.885125,-1.1143125,0.8625,0.024888110869445104,0.033226820363886134,True
60587,21613,0,21614,8209.0,83104.0,123732.0,0.003538,0.000305,-0.0026839999999999998,0.24500000000000002,-1.8725000000000003,-3.6050000000000004,0.64171875,-0.26596875000000003,-0.27609375,0.8886875,0.6188125,-0.8880625,-1.1096875,0.84978125,0.024995668103935366,0.033198093365359484,True
60588,21614,0,21615,8211.0,83105.0,123728.0,0.002257,0.000915,-0.00183,0.29750000000000004,-2.1350000000000002,-3.7450000000000006,0.6398125,-0.26709375,-0.27978125,0.8861875,0.6186875000000001,-0.89528125,-1.11603125,0.84115625,0.025233195547851063,0.03329546741187464,True
60589,21615,0,21616,8211.0,83101.0,123724.0,0.0021349999999999997,0.000549,-0.001403,0.42000000000000004,-2.345,-3.9550000000000005,0.64271875,-0.269625,-0.274875,0.8875000000000001,0.59740625,-0.88953125,-1.12425,0.86009375,0.024906304734043552,0.03380697931281531,True
60590,21616,0,21617,8210.0,83101.0,123718.0,0.0032329999999999998,0.000549,-0.003904,0.385,-2.31,-3.9025000000000003,0.63609375,-0.268625,-0.28296875,0.89034375,0.59759375,-0.88403125,-1.1106562500000001,0.8671875,0.02473097079075562,0.03296160370161573,True
60591,21617,0,21618,8211.0,83102.0,123720.0,0.0021349999999999997,-0.000183,-0.004697,0.43750000000000006,-2.0300000000000002,-3.8675,0.6391875,-0.2683125,-0.2795625,0.87865625,0.5963125,-0.8843125000000001,-1.1163125,0.866,0.024754551687935927,0.033315001953411756,True
60592,21618,0,21619,8211.0,83097.0,123719.0,0.0023179999999999997,-0.0018909999999999999,-0.002013,0.42000000000000004,-1.54,-3.6400000000000006,0.6383125000000001,-0.26640625,-0.27925,0.8885625,0.60396875,-0.88446875,-1.1135625,0.85221875,0.02483727927685818,0.03322159092323122,True
60593,21619,0,21620,8211.0,83099.0,123726.0,0.001952,-0.002379,0.000366,0.47250000000000003,-1.0325000000000002,-3.5000000000000004,0.63859375,-0.26587500000000003,-0.2833125,0.88865625,0.60184375,-0.88584375,-1.1155,0.8611875,0.02491250673387355,0.03313441898429256,True
60594,21620,0,21621,8210.0,83099.0,123727.0,-0.0025009999999999998,0.0,0.002074,0.6300000000000001,-0.08750000000000001,-3.7100000000000004,0.63915625,-0.26640625,-0.28046875,0.88609375,0.604,-0.8859375,-1.11809375,0.856,0.02489483267407547,0.033347474865603605,True
60595,21621,0,21622,8212.0,83106.0,123737.0,-0.004575,0.002257,0.001464,0.77,0.035,-3.6400000000000006,0.6383125000000001,-0.2685625,-0.2803125,0.8875625,0.60471875,-0.88834375,-1.1148125,0.855375,0.024902470659583363,0.0332274031510289,True
60596,21622,0,21623,8211.0,83110.0,123747.0,-0.006588,0.0015249999999999999,0.000976,0.9800000000000001,-0.2625,-3.7100000000000004,0.64103125,-0.2674375,-0.28,0.88703125,0.6091562500000001,-0.8891875,-1.11821875,0.8554375000000001,0.024980727072749967,0.03337094713374132,True
60597,21623,0,21624,8214.0,83111.0,123755.0,-0.003477,0.002257,0.004575,0.8750000000000001,-0.5075000000000001,-3.6750000000000003,0.64125,-0.2684375,-0.2805,0.887125,0.60346875,-0.88203125,-1.1202812500000001,0.8482500000000001,0.02466011491726585,0.03343040794975176,True
60598,21624,0,21625,8218.0,83112.0,123754.0,-0.001464,0.0018909999999999999,0.004331,0.8575,-0.8225000000000001,-3.6925000000000003,0.63871875,-0.2659375,-0.28075,0.8923125000000001,0.60375,-0.88665625,-1.1175,0.86190625,0.02494183002186161,0.033313426893600076,True
60599,21625,0,21626,8216.0,83112.0,123757.0,0.002379,0.001037,-0.001464,0.385,-1.9075000000000002,-3.43,0.6436875,-0.26625,-0.27978125,0.89175,0.6111562500000001,-0.88321875,-1.1175625,0.86165625,0.024794571642786367,0.03335440092962843,True
60600,21626,0,21627,8215.0,83109.0,123749.0,0.002257,-0.000488,-0.003721,0.17500000000000002,-2.24,-3.43,0.64384375,-0.26637500000000003,-0.2795625,0.89303125,0.61109375,-0.88753125,-1.1166875,0.86309375,0.024958532196719993,0.033329434862777986,True
60601,21627,0,21628,8215.0,83110.0,123744.0,0.0015249999999999999,-0.00366,-0.001647,0.0175,-2.2225,-3.3775000000000004,0.63978125,-0.26940625,-0.27953125,0.88684375,0.60446875,-0.886875,-1.1206875,0.85603125,0.024811019864888623,0.033484603078637876,True
60602,21628,0,21629,8217.0,83110.0,123742.0,0.0026839999999999998,-0.0046359999999999995,-0.001769,-0.12250000000000001,-2.2575000000000003,-3.2375000000000003,0.6394375,-0.2703125,-0.2808125,0.8799375,0.60959375,-0.89028125,-1.11825,0.85540625,0.02490806527146012,0.03333980273307256,True
60603,21629,0,21630,8212.0,83109.0,123738.0,0.002562,-0.003172,-0.0008539999999999999,-0.10500000000000001,-2.2225,-3.2725000000000004,0.6394375,-0.273625,-0.28453125,0.88015625,0.6045,-0.8900625,-1.1180625,0.8554375000000001,0.024766410289246962,0.03318453602860491,True
60604,21630,0,21631,8212.0,83104.0,123733.0,0.0013419999999999999,0.000122,-0.0018909999999999999,0.31500000000000006,-1.715,-3.6575,0.63096875,-0.26990625,-0.28159375000000003,0.88875,0.6039375,-0.8882187500000001,-1.1139375,0.855125,0.024843581865415743,0.033142702135019644,True
60605,21631,0,21632,8211.0,83100.0,123730.0,-0.000183,0.000915,-0.001281,0.56,-1.3475000000000001,-3.8325000000000005,0.6334375,-0.2648125,-0.28515625,0.88353125,0.59584375,-0.88771875,-1.11959375,0.8445625,0.025028659969086157,0.03321859056737333,True
60606,21632,0,21633,8205.0,83100.0,123718.0,-0.001037,0.002074,0.00183,0.5775,-1.0850000000000002,-4.025,0.63371875,-0.26937500000000003,-0.28490625,0.88175,0.6038125,-0.88790625,-1.11421875,0.85546875,0.02485268321838041,0.03302163241689531,True
60607,21633,0,21634,8204.0,83095.0,123715.0,0.000122,0.001281,0.002379,0.5425000000000001,-0.7875000000000001,-4.077500000000001,0.63403125,-0.2725625,-0.28434375,0.88321875,0.60421875,-0.88884375,-1.11909375,0.85540625,0.02476134513078777,0.03323169252473529,True
60608,21634,0,21635,8200.0,83099.0,123712.0,-0.001647,0.00061,0.002562,0.6825000000000001,-0.665,-3.99,0.634125,-0.2704375,-0.2821875,0.8824062500000001,0.6034375,-0.8893125000000001,-1.1196875,0.855375,0.02486509018680207,0.033340382916785885,True
60609,21635,0,21636,8196.0,83101.0,123714.0,-0.003111,0.000549,0.000793,0.6300000000000001,-0.77,-3.8500000000000005,0.6326875,-0.27334375,-0.27696875,0.88284375,0.608125,-0.89034375,-1.118625,0.856375,0.02478872956505472,0.03350725806050291,True
60610,21636,0,21637,8193.0,83098.0,123714.0,-0.0040869999999999995,0.0015249999999999999,0.000244,0.6825000000000001,-1.0150000000000001,-3.7800000000000002,0.648625,-0.27190625,-0.28440625,0.88603125,0.6081562500000001,-0.8899375,-1.1171875,0.85503125,0.02483056656932144,0.03315583203732504,True
60611,21637,0,21638,8189.0,83094.0,123708.0,-0.0018909999999999999,0.001281,-0.000488,0.5950000000000001,-1.435,-3.7800000000000002,0.63453125,-0.2645,-0.27746875,0.8754375,0.60346875,-0.88728125,-1.11753125,0.8504375000000001,0.025024077308564995,0.03344526544582283,True
60612,21638,0,21639,8183.0,83090.0,123701.0,0.00183,0.000366,-0.000732,0.49000000000000005,-1.8550000000000002,-3.6575,0.64784375,-0.27484375,-0.2780625,0.88265625,0.6066875,-0.88915625,-1.11840625,0.85546875,0.024681933522756525,0.03345529734793584,True
60613,21639,0,21640,8181.0,83083.0,123692.0,0.00488,0.000915,-0.0015249999999999999,0.42000000000000004,-2.0125,-3.6750000000000003,0.64415625,-0.2693125,-0.28009375000000003,0.882625,0.60828125,-0.888875,-1.11796875,0.8541562500000001,0.024893150051981058,0.03335759385400143,True
60614,21640,0,21641,8177.0,83079.0,123677.0,0.003721,0.0,-0.002562,0.12250000000000001,-1.8025000000000002,-3.5175000000000005,0.6419375,-0.27053125,-0.277625,0.8784375,0.60746875,-0.88946875,-1.11871875,0.85496875,0.024867445192055377,0.03348473934403999,True
60615,21641,0,21642,8175.0,83074.0,123670.0,0.000183,-0.00122,-0.001464,0.0,-1.4875,-3.4825000000000004,0.64303125,-0.26771875,-0.27946875,0.8875937500000001,0.6084375,-0.88765625,-1.1191875,0.85540625,0.024909436781537033,0.033429375452530066,True
60616,21642,0,21643,8172.0,83073.0,123669.0,-0.003721,-0.001586,0.000366,0.24500000000000002,-1.2425000000000002,-3.3075,0.6441250000000001,-0.26737500000000003,-0.27915625,0.89275,0.60846875,-0.8886875,-1.11940625,0.85490625,0.024963650654539333,0.033450233323090585,True
60617,21643,0,21644,8169.0,83076.0,123667.0,-0.003843,-0.002562,0.00366,0.14,-0.9625000000000001,-3.2025,0.6389375,-0.2665625,-0.27968750000000003,0.89128125,0.6042500000000001,-0.8874062500000001,-1.11890625,0.86,0.024946101002389517,0.03340984442744198,True
60618,21644,0,21645,8168.0,83075.0,123672.0,-0.0030499999999999998,-0.00042699999999999997,0.002379,0.12250000000000001,-0.9800000000000001,-3.2375000000000003,0.6441875,-0.26815625,-0.28128125,0.88628125,0.6199375,-0.89075,-1.1295625,0.85371875,0.025013057059349357,0.03375630793413137,True
60619,21645,0,21646,8163.0,83075.0,123669.0,-0.000366,-0.002074,0.000488,-0.0175,-1.3475000000000001,-3.43,0.639625,-0.2663125,-0.27928125,0.88571875,0.5855,-0.88678125,-1.1127500000000001,0.86346875,0.024931659251836755,0.03318906730644793,True
60620,21646,0,21647,8162.0,83072.0,123669.0,-0.000793,-0.00122,-0.00061,0.052500000000000005,-1.5575,-3.4825000000000004,0.6385625,-0.26665625,-0.273125,0.89446875,0.6281875,-0.88784375,-1.1142812500000001,0.85575,0.02495947444221639,0.03349314446337181,True
60621,21647,0,21648,8157.0,83073.0,123660.0,-0.0017079999999999999,-0.001281,0.000366,0.07,-1.8900000000000001,-3.5875000000000004,0.64559375,-0.26696875000000003,-0.27965625,0.88784375,0.62184375,-0.89675,-1.1173125,0.8400625,0.025295721329089135,0.033349756268709084,True
60622,21648,0,21649,8158.0,83074.0,123655.0,-0.000366,0.001403,-0.001281,0.29750000000000004,-2.2925000000000004,-3.8150000000000004,0.64296875,-0.26971875,-0.28128125,0.8875000000000001,0.59121875,-0.88803125,-1.12253125,0.85840625,0.024843769030545557,0.03348587734366934,True
60623,21649,0,21650,8150.0,83068.0,123648.0,0.00183,0.002745,-0.002806,0.5775,-2.6425,-3.8850000000000002,0.63825,-0.2691875,-0.2795,0.88703125,0.58965625,-0.8924062500000001,-1.1275,0.8484375000000001,0.02503650084049227,0.033747885782509195,True
60624,21650,0,21651,8152.0,83057.0,123636.0,0.0060999999999999995,0.0028669999999999998,-0.002989,0.4025,-2.6075000000000004,-3.8500000000000005,0.644625,-0.2641875,-0.2801875,0.8875000000000001,0.5876875,-0.89734375,-1.1240937500000001,0.84096875,0.025430674708019803,0.03358952002000072,True
60625,21651,0,21652,8145.0,83055.0,123623.0,0.005429,0.0008539999999999999,-0.0008539999999999999,0.3325,-2.2750000000000004,-3.5875000000000004,0.64590625,-0.26871875,-0.28109375000000003,0.8853125000000001,0.597375,-0.89328125,-1.12875,0.8629375,0.02508960123527307,0.03373252748346017,True
60626,21652,0,21653,8143.0,83048.0,123615.0,0.0044529999999999995,-0.000549,-0.000793,0.22750000000000004,-1.5050000000000001,-3.4125000000000005,0.6392187500000001,-0.2661875,-0.282875,0.88678125,0.59165625,-0.8829375,-1.125875,0.85265625,0.024786060729365254,0.0335510703607337,True
60627,21653,0,21654,8140.0,83049.0,123617.0,0.000244,-0.00244,0.0006709999999999999,0.17500000000000002,-0.77,-3.2025,0.64425,-0.27046875,-0.27909375000000003,0.88615625,0.5805,-0.896375,-1.11821875,0.84671875,0.025140457195073584,0.03340702652332781,True
60628,21654,0,21655,8139.0,83057.0,123634.0,-0.0042699999999999995,-0.003538,0.0017079999999999999,0.2625,-0.17500000000000002,-2.9925,0.63728125,-0.26975,-0.27896875,0.88778125,0.6004375,-0.8935000000000001,-1.12053125,0.845125,0.025056741719726036,0.033500983383860566,True
60629,21655,0,21656,8136.0,83062.0,123646.0,-0.009333,-0.002928,0.001403,0.385,0.17500000000000002,-3.08,0.64665625,-0.266625,-0.2793125,0.89153125,0.61728125,-0.8905937500000001,-1.113125,0.85109375,0.025068455829825274,0.033202259774520286,True
60630,21656,0,21657,8135.0,83071.0,123661.0,-0.0053679999999999995,-0.002196,0.00366,0.6125,-0.12250000000000001,-3.3075,0.6444375,-0.26665625,-0.27903125,0.89184375,0.60784375,-0.8855000000000001,-1.1163125,0.8584375,0.02486764380864359,0.03333615354562896,True
60631,21657,0,21658,8133.0,83070.0,123663.0,0.000549,-0.00061,0.002379,0.7875000000000001,-0.6125,-3.6925000000000003,0.64071875,-0.26534375,-0.2788125,0.89290625,0.6012500000000001,-0.887625,-1.12015625,0.86103125,0.025003641367948932,0.03349277534848136,True
60632,21658,0,21659,8133.0,83070.0,123655.0,0.003477,0.001464,-0.001769,0.8400000000000001,-1.05,-4.0600000000000005,0.6392187500000001,-0.26678125,-0.28171875,0.887375,0.6025,-0.887125,-1.11671875,0.8561875,0.0249262922093251,0.03324478839418465,True
60633,21659,0,21660,8132.0,83063.0,123647.0,0.005246,0.002074,-0.0018909999999999999,0.805,-1.4000000000000001,-4.375,0.6405,-0.27025,-0.279875,0.88696875,0.60365625,-0.89125,-1.11978125,0.8544375000000001,0.02494852608848491,0.03343604952770041,True
60634,21660,0,21661,8128.0,83065.0,123648.0,0.001281,0.002745,-0.002623,1.0675000000000001,-1.155,-4.4975000000000005,0.6434062500000001,-0.26937500000000003,-0.27990625,0.88665625,0.611625,-0.8881875,-1.11884375,0.85546875,0.024863702911270658,0.03339873078353775,True
60635,21661,0,21662,8127.0,83064.0,123645.0,-0.00122,0.001952,0.000183,1.155,-0.805,-4.305000000000001,0.64234375,-0.26834375,-0.27759375000000003,0.88703125,0.6098125,-0.890125,-1.119,0.85196875,0.024981041678175584,0.03349680520721366,True
60636,21662,0,21663,8123.0,83065.0,123645.0,0.000793,0.002928,0.001464,1.1375000000000002,-0.43750000000000006,-4.1475,0.6440625,-0.26696875000000003,-0.2785,0.8904375,0.61059375,-0.88803125,-1.1190625,0.862,0.024954263909484607,0.03346313183463755,True
60637,21663,0,21664,8123.0,83066.0,123649.0,0.000305,0.001586,0.002196,1.1375000000000002,-0.17500000000000002,-4.0425,0.6431250000000001,-0.26784375,-0.27990625,0.89134375,0.6108750000000001,-0.8874062500000001,-1.1194375,0.86175,0.02489461914095608,0.033421578409150283,True
60638,21664,0,21665,8121.0,83068.0,123653.0,-0.0008539999999999999,0.001586,0.000976,0.9975,-0.10500000000000001,-3.8150000000000004,0.6459375,-0.26690625,-0.27453125,0.887875,0.6115625,-0.88828125,-1.11946875,0.86090625,0.02496656935681326,0.03363675834107758,True
60639,21665,0,21666,8118.0,83071.0,123660.0,-0.003111,-0.000976,0.0021349999999999997,0.665,-0.17500000000000002,-3.4825000000000004,0.64640625,-0.2621875,-0.278875,0.8859375,0.611125,-0.88815625,-1.11934375,0.85984375,0.02515127049638319,0.0334590249795041,True
60640,21666,0,21667,8119.0,83079.0,123671.0,-0.0040869999999999995,-0.001586,0.002989,0.5950000000000001,-0.42000000000000004,-3.3075,0.65246875,-0.27071875,-0.27921875,0.88621875,0.61109375,-0.888125,-1.1198125,0.8612500000000001,0.024807262499686098,0.033463376766844896,True
60641,21667,0,21668,8117.0,83086.0,123677.0,-0.0023179999999999997,-0.0006709999999999999,0.0021349999999999997,0.49000000000000005,-0.8750000000000001,-3.2025,0.65671875,-0.266,-0.278,0.9005625,0.60921875,-0.887625,-1.1219375,0.8614375,0.02497727284142219,0.033593646986821775,True
60642,21668,0,21669,8116.0,83084.0,123678.0,-0.000244,-6.1e-05,6.1e-05,0.5075000000000001,-1.4000000000000001,-3.3775000000000004,0.643625,-0.2655625,-0.27690625,0.9015625,0.6035625,-0.88746875,-1.12015625,0.86240625,0.024988730523267864,0.03356866062487171,True
60643,21669,0,21670,8117.0,83082.0,123670.0,0.002989,-0.000244,-0.002196,0.42000000000000004,-1.7325000000000002,-3.43,0.6530312500000001,-0.26603125,-0.27434375,0.9009375000000001,0.60371875,-0.887375,-1.1188125,0.8543125,0.024966222833866573,0.033618975817427676,True
60644,21670,0,21671,8113.0,83077.0,123669.0,0.001769,-0.001098,-0.002074,0.15750000000000003,-1.995,-3.43,0.64615625,-0.2654375,-0.275625,0.89671875,0.603875,-0.88809375,-1.11953125,0.8628750000000001,0.025018237887343222,0.03359562093739309,True
60645,21671,0,21672,8111.0,83079.0,123664.0,0.000183,-0.0021349999999999997,0.000549,0.1925,-1.7325000000000002,-3.2550000000000003,0.6525,-0.262625,-0.2769375,0.89384375,0.60471875,-0.8882187500000001,-1.1190625,0.86209375,0.025136139965822184,0.03352533558925617,True
60646,21672,0,21673,8110.0,83076.0,123671.0,-0.00061,-0.0008539999999999999,-0.000244,0.21000000000000002,-1.4700000000000002,-3.3425000000000002,0.6535625,-0.27553125,-0.27853125,0.88065625,0.59415625,-0.8878125,-1.1191875,0.85509375,0.02460164990394395,0.03346669751957543,True
60647,21673,0,21674,8106.0,83078.0,123676.0,0.0,0.00061,0.000244,0.4025,-1.3650000000000002,-3.4650000000000003,0.63521875,-0.27290625,-0.28425,0.88265625,0.61128125,-0.8855625,-1.11996875,0.855875,0.024618943212555474,0.033269099906822135,True
60648,21674,0,21675,8107.0,83080.0,123674.0,-0.000915,0.00122,-0.00061,0.28,-1.3475000000000001,-3.3950000000000005,0.63225,-0.26509375,-0.28403125,0.889,0.6075,-0.89028125,-1.12371875,0.85575,0.025117735461506686,0.03342210237089205,True
60649,21675,0,21676,8109.0,83082.0,123677.0,-0.0006709999999999999,-0.000305,0.000244,0.35000000000000003,-1.2600000000000002,-3.3775000000000004,0.63265625,-0.26440625,-0.27434375,0.8843125000000001,0.60403125,-0.89078125,-1.1233125,0.8549375,0.02516493932869222,0.03379207061170775,True
60650,21676,0,21677,8103.0,83084.0,123682.0,-0.000793,-0.000976,0.002013,0.43750000000000006,-1.3825,-3.43,0.63690625,-0.2694375,-0.27828125,0.89078125,0.60753125,-0.89175,-1.11934375,0.86078125,0.025000753261622828,0.03348266214160153,True
60651,21677,0,21678,8105.0,83083.0,123684.0,0.000244,0.000549,0.0013419999999999999,0.45500000000000007,-1.435,-3.6750000000000003,0.65046875,-0.26534375,-0.27859375000000003,0.88996875,0.60640625,-0.88765625,-1.11684375,0.85509375,0.025004865614856764,0.03337401818251945,True
60652,21678,0,21679,8104.0,83083.0,123680.0,0.001403,0.001464,-0.000305,0.35000000000000003,-1.435,-3.8325000000000005,0.63553125,-0.26603125,-0.2774375,0.89265625,0.6038125,-0.889625,-1.12009375,0.8600625000000001,0.02505436502157023,0.033545107688939264,True
60653,21679,0,21680,8104.0,83081.0,123686.0,-0.0018909999999999999,0.0011589999999999999,-0.000793,0.42000000000000004,-1.54,-3.6750000000000003,0.632,-0.2664375,-0.28084375,0.88296875,0.60646875,-0.887875,-1.12003125,0.85546875,0.024969488154372357,0.03340710414124186,True
60654,21680,0,21681,8100.0,83085.0,123688.0,-0.000183,-0.000793,0.000183,0.42000000000000004,-1.5575,-3.5175000000000005,0.639125,-0.2678125,-0.27921875,0.88675,0.60328125,-0.8901875,-1.1154375,0.85146875,0.025004833732168552,0.03329501028998599,True
60655,21681,0,21682,8105.0,83085.0,123692.0,0.00042699999999999997,-0.001098,0.0013419999999999999,0.28,-1.61,-3.4125000000000005,0.64646875,-0.2674375,-0.2794375,0.8933125000000001,0.6111875,-0.888125,-1.118625,0.85165625,0.024939102483614178,0.033408974416394205,True
60656,21682,0,21683,8101.0,83084.0,123693.0,0.000549,-0.000122,0.0,0.12250000000000001,-1.6450000000000002,-3.4650000000000003,0.6395000000000001,-0.26696875000000003,-0.281875,0.88715625,0.60403125,-0.8824062500000001,-1.12009375,0.8545625,0.024733841808406296,0.033368456278153824,True
60657,21683,0,21684,8099.0,83087.0,123693.0,0.002623,-0.000915,-0.000915,0.15750000000000003,-1.6975000000000002,-3.4825000000000004,0.638875,-0.27034375,-0.2794375,0.8929375,0.60403125,-0.88965625,-1.1193125,0.8575625,0.024882324359140156,0.033435429413125856,True
60658,21684,0,21685,8099.0,83084.0,123697.0,-0.000915,-0.000366,-0.000915,0.2625,-1.435,-3.4125000000000005,0.6421250000000001,-0.26709375,-0.280625,0.88815625,0.6105,-0.8872187500000001,-1.119,0.8568125,0.0249174086598166,0.03337612962299454,True
60659,21685,0,21686,8099.0,83090.0,123701.0,-0.000488,-0.000122,-0.0006709999999999999,0.43750000000000006,-1.4700000000000002,-3.3425000000000002,0.6392187500000001,-0.26946875,-0.27928125,0.8872187500000001,0.60375,-0.8900625,-1.1191875,0.8525,0.024933394602765665,0.03343683986593914,True
60660,21686,0,21687,8100.0,83090.0,123704.0,-0.000244,0.000366,0.000244,0.49000000000000005,-1.4525000000000001,-3.4125000000000005,0.63284375,-0.26703125,-0.279,0.891875,0.6105,-0.88865625,-1.1188125,0.86128125,0.024976237919634575,0.03343360678376018,True
60661,21687,0,21688,8097.0,83086.0,123698.0,-0.000305,0.001098,-0.0008539999999999999,0.42000000000000004,-1.3650000000000002,-3.5525,0.63934375,-0.2695625,-0.2795,0.88715625,0.60371875,-0.88971875,-1.11996875,0.85565625,0.024916161417050966,0.03345819249874664,True
60662,21688,0,21689,8096.0,83091.0,123708.0,-6.1e-05,-0.000488,0.00061,0.3325,-1.3125000000000002,-3.5000000000000004,0.63765625,-0.267125,-0.27953125,0.89303125,0.6031875,-0.88396875,-1.1160625,0.86084375,0.024788801022746818,0.033306623998088876,True
60663,21689,0,21690,8095.0,83092.0,123709.0,-0.000488,-0.0023179999999999997,0.001769,0.3325,-1.2075,-3.4475000000000002,0.6281875,-0.26165625,-0.28103125,0.8864062500000001,0.6043125,-0.8878125,-1.12134375,0.85565625,0.02515915169322334,0.03345014137629481,True
60664,21690,0,21691,8092.0,83092.0,123714.0,-0.0011589999999999999,-0.000915,0.0017079999999999999,0.36750000000000005,-1.225,-3.5175000000000005,0.6390625,-0.2694375,-0.28025,0.8874062500000001,0.6030625000000001,-0.89009375,-1.1191875,0.85575,0.024935874337556486,0.03339827372999226,True
60665,21691,0,21692,8094.0,83099.0,123721.0,-0.000305,-0.00042699999999999997,0.000183,0.5425000000000001,-1.3125000000000002,-3.6050000000000004,0.6430625,-0.26421875,-0.2804375,0.88725,0.60659375,-0.89078125,-1.118125,0.8555625,0.025172472238090153,0.03334992162034388,True
60666,21692,0,21693,8095.0,83100.0,123726.0,-6.1e-05,0.0011589999999999999,-0.001098,0.7000000000000001,-1.33,-3.7100000000000004,0.64565625,-0.267,-0.28103125,0.888375,0.607125,-0.88778125,-1.118125,0.85684375,0.024943213851174456,0.03332628331135385,True
60667,21693,0,21694,8091.0,83100.0,123723.0,-0.0006709999999999999,0.002013,-0.000122,0.6475000000000001,-1.3650000000000002,-3.7800000000000002,0.63928125,-0.26796875000000003,-0.27890625,0.88703125,0.604125,-0.88484375,-1.11703125,0.855375,0.024789185184254974,0.033368792340854374,True
60668,21694,0,21695,8093.0,83099.0,123727.0,0.0008539999999999999,0.00061,-0.00042699999999999997,0.5075000000000001,-1.2425000000000002,-3.6750000000000003,0.6454375,-0.2670625,-0.276,0.8855937500000001,0.607875,-0.8882187500000001,-1.1187500000000001,0.8604375,0.024957842754415684,0.0335506344861906,True
60669,21695,0,21696,8093.0,83104.0,123729.0,0.002013,0.000305,-0.000366,0.47250000000000003,-1.12,-3.6750000000000003,0.6391875,-0.268625,-0.2814375,0.88696875,0.60509375,-0.88896875,-1.121,0.8549375,0.024924445694440432,0.0334207436009713,True
60670,21696,0,21697,8091.0,83104.0,123732.0,-0.0006709999999999999,0.000183,-0.00061,0.47250000000000003,-1.155,-3.5175000000000005,0.63903125,-0.269,-0.2795,0.8868125,0.604,-0.88984375,-1.1205625000000001,0.85540625,0.024943657993031797,0.03348103769571243,True
60671,21697,0,21698,8091.0,83103.0,123737.0,-0.001586,-0.0006709999999999999,0.000488,0.43750000000000006,-1.0150000000000001,-3.4125000000000005,0.64253125,-0.2670625,-0.279,0.89003125,0.6095,-0.88896875,-1.1186562500000001,0.8603125,0.02498722451085885,0.03342759428064549,True
60672,21698,0,21699,8089.0,83107.0,123744.0,-0.001586,-0.0013419999999999999,0.00042699999999999997,0.525,-1.0675000000000001,-3.4475000000000002,0.641625,-0.263375,-0.279125,0.89009375,0.6065,-0.8881875,-1.11853125,0.864,0.025104781133620115,0.03341780781867968,True
60673,21699,0,21700,8090.0,83109.0,123753.0,0.000549,-0.000732,0.0021349999999999997,0.49000000000000005,-1.1375000000000002,-3.5525,0.6389375,-0.26675,-0.27918750000000003,0.87875,0.60759375,-0.88909375,-1.1104687500000001,0.86884375,0.025004676998333857,0.033104967425189945,True
60674,21700,0,21701,8092.0,83114.0,123757.0,-0.000244,-0.000305,0.000183,0.47250000000000003,-1.1375000000000002,-3.6400000000000006,0.63996875,-0.2665,-0.27871875,0.89228125,0.60765625,-0.8883125000000001,-1.11775,0.8637812500000001,0.024984116540645335,0.03340391754834728,True
60675,21701,0,21702,8091.0,83113.0,123759.0,-0.001098,-6.1e-05,-0.000305,0.56,-1.1375000000000002,-3.6750000000000003,0.64403125,-0.2678125,-0.27921875,0.88590625,0.6190625,-0.8896875,-1.1171875,0.85740625,0.0249852474041709,0.03336236391912908,True
60676,21702,0,21703,8091.0,83115.0,123766.0,-0.0006709999999999999,0.0011589999999999999,-0.000915,0.6475000000000001,-1.1025,-3.7800000000000002,0.6434375,-0.26809375,-0.27890625,0.891,0.61815625,-0.88528125,-1.1155625,0.8575,0.024801306997484708,0.03331226405938549,True
60677,21703,0,21704,8089.0,83118.0,123773.0,-6.1e-05,0.001586,-0.000244,0.665,-1.1900000000000002,-3.7975000000000003,0.65765625,-0.268,-0.2805,0.89003125,0.6188125,-0.8895937500000001,-1.11621875,0.86740625,0.024974041611265756,0.033274067180196064,True
60678,21704,0,21705,8089.0,83118.0,123771.0,0.001098,0.000183,-6.1e-05,0.5950000000000001,-1.2775,-3.8325000000000005,0.65671875,-0.264375,-0.27596875,0.9078125,0.6086875,-0.886875,-1.11565625,0.86903125,0.025013184660589164,0.033432831363902744,True
60679,21705,0,21706,8091.0,83116.0,123777.0,0.002196,-0.0006709999999999999,-0.000549,0.45500000000000007,-1.2950000000000002,-3.6925000000000003,0.64109375,-0.26371875,-0.284125,0.88578125,0.6013437500000001,-0.886125,-1.119375,0.84125,0.02501017133041002,0.03325122539872111,True
60680,21706,0,21707,8091.0,83122.0,123778.0,0.0015249999999999999,-0.000244,0.000244,0.43750000000000006,-1.3125000000000002,-3.6050000000000004,0.62328125,-0.27471875,-0.28440625,0.87684375,0.5981875,-0.89475,-1.12015625,0.84946875,0.02490610470079033,0.03327009560300804,True
60681,21707,0,21708,8091.0,83124.0,123785.0,0.0,-0.00061,-0.00061,0.5425000000000001,-1.3650000000000002,-3.5875000000000004,0.6470625,-0.26765625,-0.27340625,0.899625,0.61284375,-0.88953125,-1.11553125,0.8697812500000001,0.02498540425505201,0.033530049259857884,True
60682,21708,0,21709,8090.0,83125.0,123784.0,-0.001586,-0.000793,-6.1e-05,0.42000000000000004,-1.3475000000000001,-3.5875000000000004,0.639125,-0.26440625,-0.27509375,0.9068437500000001,0.6059687500000001,-0.8864375,-1.1206562500000001,0.8686875000000001,0.02499478882825234,0.033660048192411376,True
60683,21709,0,21710,8090.0,83128.0,123792.0,-0.001281,0.000549,6.1e-05,0.525,-1.435,-3.6400000000000006,0.63478125,-0.26271875,-0.284875,0.896625,0.59753125,-0.88584375,-1.11965625,0.85428125,0.02503933586740454,0.0332321924190344,True
60684,21710,0,21711,8092.0,83126.0,123798.0,0.001586,0.00042699999999999997,0.000244,0.43750000000000006,-1.1900000000000002,-3.7800000000000002,0.62771875,-0.2738125,-0.28275,0.87671875,0.58803125,-0.8896875,-1.11775,0.85103125,0.024744183710623122,0.03324342347543072,True
60685,21711,0,21712,8091.0,83129.0,123796.0,0.002013,0.00042699999999999997,0.0015249999999999999,0.42000000000000004,-0.9800000000000001,-3.7625,0.6482187500000001,-0.27821875,-0.27468750000000003,0.8951875,0.6045625,-0.89078125,-1.11528125,0.8603125,0.024610015003044546,0.03346941416393655,True
60686,21712,0,21713,8091.0,83129.0,123800.0,0.000305,0.000122,0.0028669999999999998,0.5075000000000001,-0.805,-3.5700000000000003,0.651875,-0.26278125,-0.272375,0.9055625,0.60375,-0.88784375,-1.1184687500000001,0.860625,0.025115172944622816,0.03368412933212738,True
60687,21713,0,21714,8091.0,83136.0,123807.0,-0.00061,-6.1e-05,0.0015249999999999999,0.47250000000000003,-0.7175,-3.43,0.6385000000000001,-0.2638125,-0.27903125,0.89946875,0.6039375,-0.88890625,-1.11871875,0.85875,0.025115356364846284,0.03342875519874993,True
60688,21714,0,21715,8090.0,83142.0,123819.0,-0.002257,-0.001403,0.000305,0.3325,-1.12,-3.4475000000000002,0.62825,-0.2666875,-0.283375,0.88328125,0.6039375,-0.89003125,-1.12078125,0.8553437500000001,0.025043911907503134,0.0333351993182935,True
60689,21715,0,21716,8091.0,83142.0,123830.0,-0.002379,-0.000244,-0.002013,0.43750000000000006,-1.54,-3.5700000000000003,0.63728125,-0.26871875,-0.276875,0.8896875,0.6048125,-0.89225,-1.11709375,0.8541875,0.025049212104168966,0.03345206887241881,True
60690,21716,0,21717,8090.0,83147.0,123830.0,-0.000976,-0.000488,-0.00244,0.42000000000000004,-1.995,-3.7100000000000004,0.6345000000000001,-0.26678125,-0.2755625,0.88634375,0.6074375,-0.888,-1.11728125,0.8553437500000001,0.024960573368691733,0.03351153899270049,True
60691,21717,0,21718,8091.0,83147.0,123830.0,0.002745,0.000732,-0.004026,0.35000000000000003,-2.2750000000000004,-3.7800000000000002,0.6392187500000001,-0.26821875,-0.27834375,0.88778125,0.60390625,-0.8899375,-1.115875,0.85559375,0.02497871880955909,0.03334668810065347,True
60692,21718,0,21719,8094.0,83142.0,123828.0,0.0044529999999999995,0.001769,-0.00183,0.525,-2.2925000000000004,-4.025,0.6460625,-0.26787500000000003,-0.27034375,0.89290625,0.6124375,-0.88975,-1.11584375,0.86034375,0.02498518466436987,0.03366400939645916,True
60693,21719,0,21720,8093.0,83143.0,123822.0,0.004026,0.0021349999999999997,0.001769,0.5775,-1.6975000000000002,-4.077500000000001,0.63278125,-0.27025,-0.27825,0.8895937500000001,0.60365625,-0.890625,-1.11696875,0.85621875,0.024924042686754553,0.03339251477151278,True
60694,21720,0,21721,8092.0,83145.0,123823.0,-0.000366,0.0008539999999999999,-0.00042699999999999997,0.385,-1.3825,-4.0075,0.64228125,-0.26653125,-0.28053125,0.88715625,0.61146875,-0.88834375,-1.11884375,0.8562500000000001,0.024984085170392262,0.03337384906500722,True
60695,21721,0,21722,8094.0,83148.0,123832.0,-0.003111,0.000305,0.00122,0.42000000000000004,-0.9975,-3.8150000000000004,0.6450312500000001,-0.26715625,-0.279375,0.8921250000000001,0.60390625,-0.88590625,-1.117125,0.8579375,0.024863470664243943,0.03335373773869422,True
60696,21722,0,21723,8096.0,83155.0,123841.0,-0.0030499999999999998,-0.000366,0.002257,0.31500000000000006,-0.8575,-3.6400000000000006,0.63859375,-0.26690625,-0.27915625,0.891625,0.6071562500000001,-0.8881875,-1.11884375,0.8585625,0.02496289655484153,0.0334285888457744,True
60697,21723,0,21724,8097.0,83160.0,123855.0,-0.003965,-0.002013,0.002623,0.1925,-0.9450000000000001,-3.5175000000000005,0.63859375,-0.269125,-0.2828125,0.879125,0.6044375,-0.889125,-1.11925,0.85553125,0.02491047796979605,0.03329866536620321,True
60698,21724,0,21725,8093.0,83165.0,123860.0,-0.001464,-0.000366,0.001586,0.08750000000000001,-1.225,-3.22,0.64353125,-0.27059375,-0.2790625,0.8824375,0.60096875,-0.89065625,-1.117125,0.85640625,0.024911456482791607,0.033366179449280116,True
60699,21725,0,21726,8093.0,83168.0,123863.0,-0.001647,-0.002379,-0.0013419999999999999,-0.052500000000000005,-1.6975000000000002,-3.3600000000000003,0.63734375,-0.2694375,-0.27890625,0.8866875000000001,0.6070625000000001,-0.892,-1.1190625,0.85421875,0.0250105455568054,0.0334469588584367,True
60700,21726,0,21727,8096.0,83168.0,123866.0,0.000366,-0.00366,-0.003843,-0.10500000000000001,-2.1350000000000002,-3.5175000000000005,0.64028125,-0.2693125,-0.2799375,0.88678125,0.604125,-0.89071875,-1.11915625,0.8603125,0.024965379916962016,0.033409511913840666,True
60701,21727,0,21728,8096.0,83167.0,123869.0,0.0055509999999999995,-0.002562,-0.0042699999999999995,-0.0175,-2.2225,-3.8675,0.63934375,-0.26671875,-0.28015625,0.89378125,0.60465625,-0.8889375,-1.11765625,0.8618125,0.024999811663314275,0.033343079133826434,True
60702,21728,0,21729,8095.0,83163.0,123864.0,0.007076,-0.000366,-0.002196,0.28,-2.0825,-4.130000000000001,0.63984375,-0.26671875,-0.28025,0.88778125,0.60428125,-0.8888125,-1.1180625,0.8545,0.02499491488394635,0.033354981101747,True
60703,21729,0,21730,8093.0,83161.0,123861.0,-6.1e-05,0.004026,-0.001769,0.8750000000000001,-1.3825,-4.340000000000001,0.637625,-0.27053125,-0.27871875,0.88671875,0.60484375,-0.89234375,-1.11715625,0.855375,0.02498007042828179,0.03338106797022454,True
60704,21730,0,21731,8099.0,83159.0,123864.0,-0.002562,0.004514,-0.000366,0.9450000000000001,-1.0325000000000002,-4.2875000000000005,0.6361875,-0.26740625,-0.27778125,0.8935625,0.609625,-0.890625,-1.1164375,0.8594375,0.02503829252981795,0.03339073266262383,True
60705,21731,0,21732,8097.0,83166.0,123873.0,-0.001403,0.004026,0.001647,0.9275000000000001,-0.5950000000000001,-4.235,0.64075,-0.26671875,-0.27859375000000003,0.89228125,0.6085625,-0.88984375,-1.1168125,0.85984375,0.02503531184280737,0.033372815519485205,True
60706,21732,0,21733,8098.0,83167.0,123877.0,-0.0021349999999999997,0.0011589999999999999,0.0021349999999999997,0.7000000000000001,-0.4025,-3.9375000000000004,0.63925,-0.263,-0.280375,0.88671875,0.6036875,-0.88984375,-1.1138125,0.8515625,0.025184720173263443,0.033186418828284235,True
60707,21733,0,21734,8101.0,83175.0,123889.0,-0.0026839999999999998,0.000183,0.004575,0.525,-0.31500000000000006,-3.6225000000000005,0.63978125,-0.2688125,-0.278875,0.8869375,0.60353125,-0.89075,-1.117125,0.85565625,0.024986691843355464,0.03337364447563166,True
60708,21734,0,21735,8098.0,83177.0,123898.0,-0.00549,-0.0017079999999999999,0.0030499999999999998,0.31500000000000006,-0.7175,-3.1850000000000005,0.639375,-0.26946875,-0.27784375,0.8872187500000001,0.6041875,-0.89290625,-1.1175,0.85578125,0.025044785600315356,0.033429133074549616,True
60709,21735,0,21736,8099.0,83178.0,123910.0,-0.003843,-0.00061,0.002013,0.1925,-1.3650000000000002,-3.08,0.64728125,-0.26715625,-0.2780625,0.89053125,0.60646875,-0.890125,-1.1164375,0.864625,0.025028751362237034,0.03337953481659172,True
60710,21736,0,21737,8097.0,83179.0,123902.0,0.000244,-0.000488,-0.0011589999999999999,0.0175,-2.0825,-3.2900000000000005,0.6385625,-0.267625,-0.280875,0.88703125,0.60465625,-0.8889375,-1.11546875,0.85771875,0.024963399904073848,0.03323026770105575,True
60711,21737,0,21738,8097.0,83179.0,123898.0,0.0025009999999999998,-0.0021349999999999997,-0.0013419999999999999,-0.14,-2.555,-3.3425000000000002,0.64009375,-0.26937500000000003,-0.2785,0.886375,0.6035625,-0.8921875,-1.120875,0.85109375,0.025020400477057312,0.033532868580413704,True
60712,21738,0,21739,8095.0,83173.0,123891.0,0.004575,-0.002196,-0.003355,-0.28,-2.9225000000000003,-3.4475000000000002,0.64609375,-0.26787500000000003,-0.27137500000000003,0.89209375,0.6125,-0.8931875,-1.11225,0.8688750000000001,0.025119824449962462,0.033484653903971165,True
60713,21739,0,21740,8094.0,83171.0,123884.0,0.004148,-0.002745,-0.0035989999999999998,-0.28,-2.8525000000000005,-3.6050000000000004,0.63959375,-0.2705625,-0.27984375,0.88584375,0.6032500000000001,-0.880125,-1.12096875,0.85671875,0.024499977391592688,0.033482984210153124,True
60714,21740,0,21741,8090.0,83169.0,123873.0,0.00366,-0.001281,-0.003355,-0.07,-2.555,-3.7625,0.64159375,-0.27025,-0.278125,0.88834375,0.597625,-0.89403125,-1.11778125,0.84215625,0.02505746231840213,0.03342875876029058,True
60715,21741,0,21742,8088.0,83159.0,123868.0,0.001952,0.0006709999999999999,-0.00183,0.24500000000000002,-2.1,-3.9725000000000006,0.6454375,-0.26778125,-0.278125,0.89378125,0.614,-0.89528125,-1.112875,0.85071875,0.025205579872691734,0.03323992175328393,True
60716,21742,0,21743,8085.0,83165.0,123862.0,-0.001403,0.00183,-0.000305,0.43750000000000006,-1.6975000000000002,-4.0600000000000005,0.6441875,-0.26778125,-0.27846875,0.88546875,0.62275,-0.89209375,-1.11259375,0.8575,0.02508075480793977,0.033215406114710876,True
60717,21743,0,21744,8080.0,83158.0,123862.0,-0.001464,0.0017079999999999999,0.0030499999999999998,0.56,-1.33,-4.0600000000000005,0.64478125,-0.267125,-0.27768750000000003,0.893375,0.619,-0.8965,-1.10709375,0.8505312500000001,0.025279657783222543,0.0330347374434765,True
60718,21744,0,21745,8080.0,83157.0,123861.0,-0.002379,0.001769,0.00244,0.42000000000000004,-0.9450000000000001,-4.0600000000000005,0.6396875,-0.2671875,-0.2798125,0.8875625,0.6095,-0.889,-1.11425,0.86803125,0.02498342641327494,0.03322565873956021,True
60719,21745,0,21746,8075.0,83156.0,123854.0,-0.003477,0.001403,0.0025009999999999998,0.36750000000000005,-0.9800000000000001,-3.9725000000000006,0.643375,-0.27103125,-0.27768750000000003,0.89375,0.5976875,-0.89346875,-1.11584375,0.84746875,0.025004048501677773,0.0333716142823193,True
60720,21746,0,21747,8073.0,83154.0,123853.0,-0.0030499999999999998,0.0,0.001952,0.2625,-1.3475000000000001,-3.8675,0.63890625,-0.26875,-0.27859375000000003,0.887625,0.62021875,-0.88778125,-1.11771875,0.85003125,0.024872898221893522,0.03340769153249636,True
60721,21747,0,21748,8066.0,83153.0,123844.0,-0.000793,0.0008539999999999999,0.00061,0.1925,-1.6800000000000002,-3.9200000000000004,0.6461875,-0.26306250000000003,-0.2804375,0.8866875000000001,0.610375,-0.8892187500000001,-1.11546875,0.85665625,0.025157730191912912,0.03324768724453928,True
60722,21748,0,21749,8064.0,83150.0,123841.0,0.001769,-0.00042699999999999997,-0.0011589999999999999,0.052500000000000005,-2.1875,-3.6750000000000003,0.63725,-0.26709375,-0.27771875,0.8944062500000001,0.59696875,-0.890875,-1.1124687500000001,0.85790625,0.0250606396922567,0.0332404594829013,True
60723,21749,0,21750,8062.0,83149.0,123834.0,0.001464,-0.001281,-0.000976,-0.0175,-2.3800000000000003,-3.6225000000000005,0.632875,-0.2668125,-0.28065625,0.8870625,0.60825,-0.88853125,-1.11659375,0.8551875,0.02498013015533008,0.033282279767733236,True
60724,21750,0,21751,8060.0,83138.0,123830.0,0.000488,-0.00042699999999999997,-0.002013,-0.07,-2.4850000000000003,-3.6050000000000004,0.63903125,-0.2695,-0.279875,0.8874062500000001,0.59759375,-0.89153125,-1.1164375,0.8559375,0.0249896739478412,0.03330737091994038,True
60725,21751,0,21752,8053.0,83141.0,123826.0,0.002196,-0.000793,-0.00122,-0.052500000000000005,-2.4850000000000003,-3.5700000000000003,0.6444375,-0.26746875000000003,-0.27940625,0.88615625,0.606,-0.89128125,-1.1134375,0.86365625,0.02506148613784194,0.033210557097171585,True
60726,21752,0,21753,8052.0,83138.0,123818.0,0.001647,-0.000793,-0.001464,-0.052500000000000005,-2.3625000000000003,-3.43,0.6395000000000001,-0.26878125,-0.28034375,0.887,0.60446875,-0.8891875,-1.11575,0.85559375,0.024926737765144005,0.03326224580193703,True
60727,21753,0,21754,8050.0,83134.0,123812.0,0.000915,-0.001037,-0.000244,-0.08750000000000001,-1.995,-3.4125000000000005,0.6432187500000001,-0.26175,-0.2775,0.8914375,0.60740625,-0.89325,-1.1141875,0.85965625,0.025368322738091652,0.033315332220084766,True
60728,21754,0,21755,8050.0,83135.0,123813.0,0.000488,-0.000976,0.0008539999999999999,-0.052500000000000005,-1.6800000000000002,-3.4825000000000004,0.63959375,-0.259375,-0.27971875,0.8871875,0.61065625,-0.888,-1.1175625,0.8553125,0.025258156541305043,0.033356889228403436,True
60729,21755,0,21756,8049.0,83129.0,123804.0,-0.001952,-0.0013419999999999999,0.000183,-0.0175,-1.54,-3.5700000000000003,0.640375,-0.26915625,-0.27765625,0.89196875,0.6039375,-0.89065625,-1.1145,0.85509375,0.024969209078205806,0.03332113918254395,True
60730,21756,0,21757,8044.0,83129.0,123812.0,-0.003294,-0.000244,0.00042699999999999997,0.15750000000000003,-1.5050000000000001,-3.8150000000000004,0.64334375,-0.2671875,-0.27653125,0.8933125000000001,0.6065,-0.89015625,-1.113375,0.862375,0.02502871993822859,0.033322631864494516,True
60731,21757,0,21758,8045.0,83130.0,123805.0,-0.003172,-0.000122,0.00042699999999999997,0.31500000000000006,-1.5050000000000001,-3.8850000000000002,0.640375,-0.26734375,-0.2769375,0.88690625,0.60978125,-0.88978125,-1.110625,0.85684375,0.02500775293073337,0.03320058740075167,True
60732,21758,0,21759,8041.0,83128.0,123799.0,0.000549,0.001037,6.1e-05,0.31500000000000006,-1.9075000000000002,-3.9025000000000003,0.64284375,-0.27015625,-0.27940625,0.88590625,0.60975,-0.8934375,-1.11521875,0.85559375,0.02503797436573394,0.03327912483342395,True
60733,21759,0,21760,8038.0,83117.0,123790.0,0.000793,0.000976,-0.000549,0.385,-2.0825,-3.8675,0.63909375,-0.27378125000000003,-0.273875,0.884375,0.60759375,-0.8926875,-1.1145,0.85553125,0.024862974317256824,0.033471699615759826,True
60734,21760,0,21761,8036.0,83118.0,123783.0,0.002257,0.000915,-0.0008539999999999999,0.36750000000000005,-2.1,-3.7800000000000002,0.6334375,-0.2656875,-0.281125,0.89715625,0.60409375,-0.8844375,-1.11509375,0.85909375,0.024864938176721894,0.03320587843714499,True
60735,21761,0,21762,8035.0,83115.0,123784.0,0.001037,0.001586,-0.001586,0.42000000000000004,-2.0825,-3.7625,0.6339375,-0.26509375,-0.28200000000000003,0.9006875,0.60434375,-0.8893125000000001,-1.1155625,0.8581562500000001,0.02507979077365034,0.0331890834616983,True
60736,21762,0,21763,8033.0,83115.0,123778.0,0.000183,0.00042699999999999997,-0.000244,0.385,-2.2225,-3.6575,0.63915625,-0.26534375,-0.2749375,0.89653125,0.604375,-0.8854375,-1.1128437500000001,0.8621875,0.0249179364437535,0.033365645816197144,True
60737,21763,0,21764,8033.0,83117.0,123768.0,0.002257,0.000793,-0.000976,0.29750000000000004,-2.0650000000000004,-3.6225000000000005,0.6525625,-0.27187500000000003,-0.275375,0.8824062500000001,0.6104375,-0.89096875,-1.113625,0.8545,0.024872223986862705,0.03337829564628763,True
60738,21764,0,21765,8026.0,83111.0,123765.0,0.00244,-0.001037,-0.000915,0.14,-1.7500000000000002,-3.6225000000000005,0.6450625,-0.2709375,-0.27965625,0.88290625,0.6096875,-0.8920625,-1.1141875,0.8554375000000001,0.02495273342656921,0.03322947437578859,True
60739,21765,0,21766,8027.0,83112.0,123763.0,-0.00042699999999999997,-0.002257,-0.000305,0.0175,-1.3125000000000002,-3.4475000000000002,0.6449375,-0.27390625,-0.27890625,0.883,0.6061562500000001,-0.89296875,-1.11134375,0.8550625000000001,0.024868970279006995,0.03314985881629692,True
60740,21766,0,21767,8022.0,83114.0,123767.0,-0.0017079999999999999,-0.0030499999999999998,0.000488,0.035,-1.1025,-3.325,0.63478125,-0.27196875,-0.2846875,0.88646875,0.596875,-0.8915625,-1.11509375,0.85484375,0.024891717826070584,0.03306403146514235,True
60741,21767,0,21768,8019.0,83110.0,123771.0,-0.0023179999999999997,-0.0028669999999999998,0.000366,0.1925,-1.0675000000000001,-3.3950000000000005,0.63390625,-0.26471875,-0.28046875,0.8980625,0.60440625,-0.8918125,-1.1156875,0.85721875,0.02519277171961664,0.033254863120907995,True
60742,21768,0,21769,8017.0,83114.0,123770.0,-0.0018909999999999999,0.000183,0.001464,0.525,-0.8750000000000001,-3.6750000000000003,0.63959375,-0.266,-0.27709375,0.89625,0.60446875,-0.8900625,-1.10934375,0.85809375,0.025072757450890288,0.033145031916654535,True
60743,21769,0,21770,8015.0,83115.0,123766.0,-0.001586,0.001037,0.001037,0.805,-0.9450000000000001,-3.9025000000000003,0.63928125,-0.26590625,-0.27668750000000003,0.8950625,0.60475,-0.88975,-1.1147500000000001,0.85853125,0.025064283490191748,0.03336933475348153,True
60744,21770,0,21771,8013.0,83112.0,123767.0,0.000549,0.001464,-0.0006709999999999999,0.9100000000000001,-1.12,-4.130000000000001,0.63571875,-0.26509375,-0.27425,0.8854375,0.6032500000000001,-0.884375,-1.1155625,0.85378125,0.024886349365816903,0.03349765708014702,True
60745,21771,0,21772,8009.0,83111.0,123764.0,0.000549,0.0023179999999999997,0.000732,0.9275000000000001,-1.3125000000000002,-4.340000000000001,0.63903125,-0.2701875,-0.27925,0.88709375,0.6036875,-0.89203125,-1.1168125,0.8451875,0.024981639455398004,0.033346687602178814,True
60746,21772,0,21773,8010.0,83110.0,123757.0,0.001952,0.0028669999999999998,0.001403,0.9275000000000001,-1.2950000000000002,-4.41,0.6443125000000001,-0.271,-0.2785,0.88790625,0.60371875,-0.8934062500000001,-1.115,0.85496875,0.02500285592695857,0.033306788771650414,True
60747,21773,0,21774,8008.0,83104.0,123749.0,0.000732,0.001586,-0.000488,0.7875000000000001,-1.3125000000000002,-4.112500000000001,0.646875,-0.26675,-0.2769375,0.887375,0.60446875,-0.893625,-1.115375,0.8545625,0.025182150048456184,0.033383435445419385,True
60748,21774,0,21775,8006.0,83107.0,123752.0,-0.001647,0.001464,-0.000915,0.6125,-1.3125000000000002,-3.9550000000000005,0.6465,-0.27065625,-0.2775625,0.887125,0.60565625,-0.90046875,-1.1166562500000001,0.83975,0.025293198546714107,0.03340786057061239,True
60749,21775,0,21776,8003.0,83104.0,123751.0,-0.001769,0.000366,6.1e-05,0.5775,-1.2775,-3.7450000000000006,0.63275,-0.264125,-0.27665625,0.8911250000000001,0.596875,-0.8994062500000001,-1.11528125,0.84490625,0.025513911601807777,0.0333910256330496,True
60750,21776,0,21777,8002.0,83106.0,123750.0,-0.0011589999999999999,-0.00122,-0.000305,0.45500000000000007,-1.3125000000000002,-3.5175000000000005,0.64453125,-0.26875,-0.2789375,0.8879375,0.60246875,-0.89234375,-1.11996875,0.855,0.025051628575553476,0.03348058504252717,True
60751,21777,0,21778,8001.0,83105.0,123754.0,0.000244,-0.000793,0.00183,0.385,-1.3475000000000001,-3.4125000000000005,0.63878125,-0.2688125,-0.27509375,0.88634375,0.5911875,-0.88421875,-1.11803125,0.87690625,0.024730784445463054,0.03355905929132085,True
60752,21778,0,21779,7999.0,83104.0,123751.0,-0.000183,-0.000366,0.000549,0.31500000000000006,-1.5050000000000001,-3.2725000000000004,0.63896875,-0.26665625,-0.2785625,0.8928125,0.5973125,-0.88515625,-1.10921875,0.86171875,0.02485417386117477,0.03308172421732555,True
60753,21779,0,21780,8001.0,83105.0,123756.0,-0.000793,-0.000793,-0.00122,0.31500000000000006,-1.715,-3.2900000000000005,0.64003125,-0.268125,-0.27809375000000003,0.88703125,0.62421875,-0.8929375,-1.11721875,0.8501562500000001,0.025099990710216503,0.033408356568141125,True
60754,21780,0,21781,7998.0,83105.0,123755.0,0.000122,-0.001098,-0.0021349999999999997,0.22750000000000004,-1.6450000000000002,-3.3950000000000005,0.63915625,-0.2671875,-0.2789375,0.8934062500000001,0.593625,-0.88621875,-1.1013125,0.873125,0.024874459885554128,0.03276223105863488,True
60755,21781,0,21782,7995.0,83104.0,123753.0,-6.1e-05,-0.0018909999999999999,-0.001464,0.21000000000000002,-1.7500000000000002,-3.4125000000000005,0.6391875,-0.26725,-0.2773125,0.8864062500000001,0.60103125,-0.8884375,-1.10384375,0.8448125,0.024958878997526465,0.03292448990007755,True
60756,21782,0,21783,7996.0,83107.0,123757.0,0.00042699999999999997,-0.001403,0.000488,0.4025,-1.8550000000000002,-3.3950000000000005,0.640875,-0.26871875,-0.28103125,0.89425,0.60175,-0.89228125,-1.1220625,0.8684375,0.025050436066401106,0.033477794667535754,True
60757,21783,0,21784,7996.0,83107.0,123757.0,0.000488,-0.000793,-0.000732,0.5075000000000001,-1.7850000000000001,-3.3950000000000005,0.6368125,-0.26715625,-0.27721875,0.8865000000000001,0.6298125,-0.888,-1.11365625,0.843125,0.02494550586628094,0.033306082223690546,True
60758,21784,0,21785,7997.0,83108.0,123758.0,0.001586,0.000793,-0.000732,0.5950000000000001,-1.8375000000000001,-3.6925000000000003,0.6461250000000001,-0.26940625,-0.27309375,0.88775,0.607875,-0.89475,-1.11278125,0.84459375,0.025119503108085042,0.03343665887266071,True
60759,21785,0,21786,7995.0,83106.0,123757.0,-0.000244,0.0008539999999999999,-0.000244,0.6475000000000001,-1.8025000000000002,-3.7800000000000002,0.6454375,-0.26759375,-0.27718750000000003,0.88728125,0.6123125,-0.8931875,-1.11278125,0.84790625,0.025131122721829012,0.03327364427227669,True
60760,21786,0,21787,7995.0,83107.0,123758.0,0.000976,0.000549,0.000976,0.56,-1.7850000000000001,-4.0075,0.6394062500000001,-0.26790625,-0.28071875,0.89215625,0.5985625,-0.89025,-1.11546875,0.85609375,0.025003515432749767,0.03323648896658558,True
60761,21787,0,21788,7996.0,83105.0,123754.0,0.001952,0.0013419999999999999,0.0013419999999999999,0.5950000000000001,-1.7675,-4.0075,0.63803125,-0.26628125,-0.27703125,0.88871875,0.6034375,-0.8895625,-1.1144375,0.8600625000000001,0.025041872471643484,0.03334361958136629,True
60762,21788,0,21789,7992.0,83104.0,123753.0,-0.000183,0.0006709999999999999,0.000183,0.665,-1.6450000000000002,-4.2175,0.6454375,-0.26178125,-0.277625,0.88753125,0.61175,-0.890125,-1.1149375,0.8559687500000001,0.025244700458515172,0.03333922292261328,True
60763,21789,0,21790,7993.0,83105.0,123754.0,-0.000732,6.1e-05,-6.1e-05,0.5775,-1.5225000000000002,-3.8850000000000002,0.6451250000000001,-0.2700625,-0.277125,0.88728125,0.6095625,-0.89309375,-1.11215625,0.8555,0.02502827717024928,0.03325207288800618,True
60764,21790,0,21791,7992.0,83109.0,123753.0,-0.0015249999999999999,0.000305,-0.0017079999999999999,0.5075000000000001,-1.6275000000000002,-3.7625,0.63896875,-0.2685625,-0.27975,0.88665625,0.6059687500000001,-0.89246875,-1.1146562500000001,0.848125,0.02506405677420003,0.033243785687888924,True
60765,21791,0,21792,7993.0,83109.0,123751.0,-0.001403,-0.000793,-0.001464,0.42000000000000004,-1.6800000000000002,-3.6575,0.63971875,-0.26753125,-0.27903125,0.88478125,0.6063125,-0.89165625,-1.11334375,0.8545,0.02507366298696978,0.03322188030018902,True
60766,21792,0,21793,7990.0,83108.0,123759.0,-0.001098,-0.000793,-0.001098,0.42000000000000004,-1.7500000000000002,-3.6050000000000004,0.63965625,-0.26725,-0.2755625,0.89175,0.602875,-0.8895937500000001,-1.1144687500000001,0.8616875,0.025004174686459078,0.03340330461897587,True
60767,21793,0,21794,7993.0,83108.0,123757.0,0.003172,0.000549,0.000732,0.56,-1.8900000000000001,-3.5000000000000004,0.64378125,-0.2655625,-0.27746875,0.88775,0.6100625000000001,-0.88978125,-1.11375,0.84875,0.02507931844519526,0.03329973620028869,True
60768,21794,0,21795,7991.0,83108.0,123753.0,0.0025009999999999998,0.0013419999999999999,0.000366,0.665,-1.9425000000000001,-3.6750000000000003,0.64028125,-0.26178125,-0.27718750000000003,0.89103125,0.604875,-0.89003125,-1.11371875,0.8605,0.0252410289762091,0.03330973235495042,True
60769,21795,0,21796,7990.0,83105.0,123749.0,0.001098,0.002379,-0.000732,0.6825000000000001,-1.7675,-3.8325000000000005,0.64390625,-0.27053125,-0.2813125,0.90084375,0.60975,-0.8920625,-1.117375,0.85953125,0.02496905389017081,0.03328622119150588,True
60770,21796,0,21797,7991.0,83101.0,123747.0,0.000366,0.000976,-0.00042699999999999997,0.525,-1.5750000000000002,-3.6925000000000003,0.65559375,-0.26996875,-0.2846875,0.8874375,0.6036875,-0.88946875,-1.11078125,0.85465625,0.02489004511195122,0.0328979708665974,True
60771,21797,0,21798,7989.0,83098.0,123744.0,0.000305,-0.000732,-0.000915,0.385,-1.5225000000000002,-3.5700000000000003,0.63528125,-0.2663125,-0.27215625,0.88734375,0.60375,-0.88903125,-1.116625,0.86040625,0.025019806666842448,0.03362190381868583,True
60772,21798,0,21799,7987.0,83103.0,123748.0,-0.0026839999999999998,-0.001586,0.0,0.28,-1.4175000000000002,-3.3775000000000004,0.6468125,-0.2714375,-0.27925,0.881625,0.6108125,-0.89046875,-1.11378125,0.855125,0.024870212619037158,0.03323001190830234,True
60773,21799,0,21800,7987.0,83107.0,123754.0,-0.000793,-0.002074,0.001586,0.2625,-1.33,-3.325,0.6323125,-0.27153125,-0.27871875,0.88515625,0.60953125,-0.8915937500000001,-1.1163750000000001,0.8481875,0.0249105182346952,0.0333510010899264,True
60774,21800,0,21801,7989.0,83108.0,123763.0,-0.0013419999999999999,-0.0011589999999999999,0.002013,0.22750000000000004,-1.4700000000000002,-3.3075,0.63325,-0.2619375,-0.2794375,0.9028125,0.6040625000000001,-0.8910625,-1.1162812500000001,0.85803125,0.025275136406893033,0.03331877604293033,True
60775,21801,0,21802,7985.0,83110.0,123758.0,-0.00122,-0.0006709999999999999,0.0011589999999999999,0.28,-1.6625,-3.3425000000000002,0.64809375,-0.2639375,-0.27553125,0.8824062500000001,0.60440625,-0.88953125,-1.11309375,0.8610625000000001,0.025134814461401315,0.03335162558376544,True
60776,21802,0,21803,7988.0,83107.0,123762.0,0.001586,0.0,0.000549,0.49000000000000005,-1.8375000000000001,-3.5700000000000003,0.6435625,-0.2744375,-0.2755,0.8813125,0.60934375,-0.8898125,-1.114125,0.85821875,0.02472397090174946,0.03339256295013264,True
60777,21803,0,21804,7983.0,83113.0,123762.0,0.0025009999999999998,0.00122,-0.002562,0.43750000000000006,-2.0475000000000003,-3.9200000000000004,0.6480312500000001,-0.27403125,-0.27615625,0.8820625,0.60984375,-0.890375,-1.1128125,0.85940625,0.02476233282945717,0.033315911947337636,True
60778,21804,0,21805,7984.0,83107.0,123769.0,0.0008539999999999999,0.002074,-0.0015249999999999999,0.6300000000000001,-2.0650000000000004,-4.077500000000001,0.64846875,-0.27534375,-0.27709375,0.882125,0.61146875,-0.889125,-1.113875,0.85571875,0.024660619849030452,0.033319479769649246,True
60779,21805,0,21806,7986.0,83107.0,123760.0,0.002562,0.001647,0.0,0.6825000000000001,-1.995,-4.0600000000000005,0.65209375,-0.2703125,-0.278625,0.8815625,0.610625,-0.885625,-1.1138125,0.8554375000000001,0.024725619710174042,0.03325610159747749,True
60780,21806,0,21807,7987.0,83103.0,123754.0,0.0028669999999999998,0.001769,-0.000915,0.5775,-1.8200000000000003,-3.9550000000000005,0.63653125,-0.2728125,-0.27809375000000003,0.88215625,0.6066875,-0.88728125,-1.1142812500000001,0.85484375,0.024690071359240978,0.033295298865063085,True
60781,21807,0,21808,7984.0,83098.0,123749.0,-0.00042699999999999997,-0.000488,-0.001403,0.6300000000000001,-1.54,-3.7100000000000004,0.632625,-0.26928125,-0.2783125,0.8954375,0.60503125,-0.8911250000000001,-1.1108437500000001,0.853375,0.024982549000898916,0.0331542523337154,True
60782,21808,0,21809,7986.0,83102.0,123750.0,-0.002806,-0.001647,0.000488,0.4025,-0.9100000000000001,-3.6225000000000005,0.6386875,-0.26625,-0.2715,0.88971875,0.603875,-0.88575,-1.1144375,0.86140625,0.024893764503782286,0.03356386142433012,True
60783,21809,0,21810,7985.0,83107.0,123760.0,-0.003477,-0.0018909999999999999,0.002562,0.45500000000000007,-0.8225000000000001,-3.5875000000000004,0.6451250000000001,-0.26778125,-0.2775,0.887375,0.6111875,-0.89071875,-1.11378125,0.85528125,0.025026898831517267,0.03329969476420441,True
60784,21810,0,21811,7982.0,83108.0,123769.0,-0.002379,-0.001586,0.003111,0.45500000000000007,-0.8225000000000001,-3.6400000000000006,0.63909375,-0.26896875,-0.27884375,0.893875,0.6054375,-0.8888125,-1.1168125,0.8562500000000001,0.024904512820770375,0.033362862027178,True
60785,21811,0,21812,7984.0,83112.0,123776.0,-0.0017079999999999999,-0.000305,0.000549,0.525,-1.12,-3.8500000000000005,0.63934375,-0.26678125,-0.2764375,0.8924062500000001,0.6043125,-0.886125,-1.11371875,0.86246875,0.024887110789646845,0.033339596510373444,True
60786,21812,0,21813,7982.0,83110.0,123776.0,0.000915,0.001281,0.000183,0.56,-1.6450000000000002,-4.0425,0.64434375,-0.26928125,-0.27878125,0.8930625,0.61084375,-0.8914062500000001,-1.1165625000000001,0.8604375,0.02499356580145005,0.033355728913938766,True
60787,21813,0,21814,7985.0,83111.0,123774.0,0.000732,0.000366,0.000244,0.7175,-1.7675,-4.077500000000001,0.6458125,-0.26978125000000003,-0.2789375,0.89271875,0.6071875,-0.89265625,-1.11596875,0.86140625,0.025022440102188775,0.03332665597459783,True
60788,21814,0,21815,7986.0,83112.0,123778.0,0.000549,0.001281,-0.000488,0.7000000000000001,-1.9075000000000002,-4.077500000000001,0.64559375,-0.269,-0.2798125,0.885625,0.605875,-0.889625,-1.11328125,0.8551875,0.024935088415353787,0.03318836522009644,True
60789,21815,0,21816,7984.0,83110.0,123776.0,0.002013,0.000488,-0.000488,0.6300000000000001,-1.9600000000000002,-4.025,0.6326875,-0.26721875,-0.27690625,0.8920625,0.604625,-0.88490625,-1.11184375,0.8533437500000001,0.02482177323854696,0.03324875338952362,True
60790,21816,0,21817,7986.0,83108.0,123776.0,0.002379,0.001098,-0.0006709999999999999,0.525,-1.9075000000000002,-4.0425,0.644875,-0.2686875,-0.278125,0.8882187500000001,0.611625,-0.89271875,-1.11309375,0.854875,0.025068826602156504,0.033248342809216805,True
60791,21817,0,21818,7985.0,83105.0,123772.0,-0.001403,-0.0008539999999999999,0.00042699999999999997,0.56,-1.7500000000000002,-3.7625,0.6453125000000001,-0.2629375,-0.27721875,0.88671875,0.609,-0.89284375,-1.11296875,0.8559375,0.0253047123231953,0.03327961772739434,True
60792,21818,0,21819,7988.0,83107.0,123779.0,-0.000244,-0.00122,0.002074,0.45500000000000007,-1.7325000000000002,-3.6925000000000003,0.6349375,-0.27078125000000003,-0.28103125,0.881625,0.6003125,-0.89278125,-1.115,0.8550625000000001,0.024987163698311127,0.03320600238901055,True
60793,21819,0,21820,7988.0,83108.0,123786.0,0.000488,0.0,0.00122,0.35000000000000003,-1.6975000000000002,-3.7100000000000004,0.63928125,-0.2688125,-0.27753125,0.88728125,0.60484375,-0.8911875,-1.10715625,0.85528125,0.02500382916644696,0.03304336786449083,True
60794,21820,0,21821,7986.0,83107.0,123783.0,0.0008539999999999999,-0.000183,-0.000183,0.35000000000000003,-1.6625,-3.6750000000000003,0.64159375,-0.271125,-0.277,0.88771875,0.60665625,-0.8911875,-1.11334375,0.85553125,0.024910924800192837,0.033302763595548686,True
60795,21821,0,21822,7986.0,83111.0,123784.0,-0.000976,-0.000122,-0.000244,0.42000000000000004,-1.61,-3.6400000000000006,0.64509375,-0.27096875,-0.2775625,0.8906875,0.61059375,-0.89203125,-1.1119375,0.8588125,0.0249502539090698,0.03322622955715783,True
60796,21822,0,21823,7987.0,83110.0,123782.0,-0.001281,0.000366,0.001586,0.45500000000000007,-1.54,-3.6925000000000003,0.64534375,-0.2675,-0.27671875,0.89278125,0.61003125,-0.88934375,-1.11215625,0.860125,0.0249843369212979,0.033268250312037624,True
60797,21823,0,21824,7987.0,83110.0,123782.0,-0.000183,0.000305,0.000366,0.47250000000000003,-1.715,-3.8325000000000005,0.63865625,-0.26690625,-0.27715625,0.88578125,0.603875,-0.88928125,-1.11403125,0.85128125,0.025005744189579602,0.03332300544143028,True
60798,21824,0,21825,7988.0,83109.0,123786.0,0.0008539999999999999,0.000488,-0.000549,0.42000000000000004,-1.8725000000000003,-3.7975000000000003,0.64490625,-0.26740625,-0.27740625,0.8910625,0.60765625,-0.88615625,-1.11278125,0.8596875,0.02486322089213757,0.033264933568439375,True
60799,21825,0,21826,7987.0,83109.0,123785.0,-0.000244,0.000549,-0.00183,0.385,-1.7325000000000002,-3.9200000000000004,0.64440625,-0.2661875,-0.27718750000000003,0.88684375,0.6098125,-0.89009375,-1.11290625,0.85490625,0.025066448373662717,0.033278456172311795,True
60800,21826,0,21827,7992.0,83110.0,123792.0,0.000488,0.000305,-0.00061,0.43750000000000006,-1.9600000000000002,-3.8500000000000005,0.63946875,-0.26865625,-0.27809375000000003,0.8885625,0.604625,-0.89046875,-1.1140625,0.85571875,0.02498195217797978,0.03328687861631307,True
60801,21827,0,21828,7991.0,83106.0,123788.0,0.001403,0.000183,0.000122,0.35000000000000003,-1.8550000000000002,-3.7975000000000003,0.63928125,-0.26640625,-0.27715625,0.889,0.6043125,-0.88853125,-1.11421875,0.8585,0.024996452934521803,0.03333022254574414,True
60802,21828,0,21829,7990.0,83105.0,123784.0,0.000122,-0.0011589999999999999,-0.000732,0.36750000000000005,-1.7850000000000001,-3.8500000000000005,0.64009375,-0.26725,-0.27809375000000003,0.8905625,0.6043125,-0.88871875,-1.1146562500000001,0.8612500000000001,0.02496989725515702,0.033309733235946645,True
60803,21829,0,21830,7988.0,83102.0,123786.0,-0.000549,0.000305,-0.001037,0.47250000000000003,-1.8725000000000003,-3.7975000000000003,0.638875,-0.26596875000000003,-0.27718750000000003,0.8888125,0.60384375,-0.88184375,-1.1156875,0.8631875,0.024751984064685716,0.03338550855914257,True
60804,21830,0,21831,7990.0,83104.0,123788.0,-0.001586,0.000244,-0.001037,0.43750000000000006,-1.8375000000000001,-3.7800000000000002,0.639625,-0.26534375,-0.27896875,0.89109375,0.5846875,-0.8889375,-1.11496875,0.8710625000000001,0.025055057091127333,0.03328692176851704,True
60805,21831,0,21832,7993.0,83108.0,123788.0,0.0008539999999999999,0.00122,0.00042699999999999997,0.47250000000000003,-1.7325000000000002,-3.8850000000000002,0.63984375,-0.26721875,-0.27978125,0.88934375,0.60340625,-0.884375,-1.1038125,0.86790625,0.02480095441416552,0.032824944418303,True
60806,21832,0,21833,7991.0,83103.0,123792.0,0.001403,0.00061,0.00183,0.4025,-1.8375000000000001,-3.6575,0.63959375,-0.2668125,-0.278875,0.8913125000000001,0.59846875,-0.8849375,-1.11296875,0.86703125,0.024839322984034018,0.033213665747901674,True
60807,21833,0,21834,7991.0,83104.0,123796.0,0.000305,0.0,-0.000549,0.21000000000000002,-1.7500000000000002,-3.5875000000000004,0.63928125,-0.26453125,-0.2764375,0.9005,0.60609375,-0.8875625,-1.1104687500000001,0.869375,0.025033839694023872,0.03321448350102983,True
60808,21834,0,21835,7992.0,83097.0,123792.0,0.000549,-0.000915,-0.001403,0.14,-1.5925000000000002,-3.5525,0.64659375,-0.26590625,-0.2758125,0.903625,0.606125,-0.88790625,-1.11225,0.8689687500000001,0.02499205814068831,0.033307947316548694,True
60809,21835,0,21836,7989.0,83098.0,123790.0,0.000122,-0.002745,-0.002257,0.07,-1.4875,-3.6225000000000005,0.64265625,-0.2653125,-0.2713125,0.9075,0.59609375,-0.88646875,-1.113375,0.868375,0.024959597773388405,0.03353043945706222,True
60810,21836,0,21837,7994.0,83099.0,123793.0,-0.002745,-0.002806,-0.000183,0.14,-1.33,-3.7450000000000006,0.6359375,-0.26115625,-0.27315625,0.90225,0.5906875,-0.8865937500000001,-1.11584375,0.866375,0.025131502779483436,0.033552028288916236,True
60811,21837,0,21838,7993.0,83095.0,123793.0,-0.00061,-0.000976,0.001769,0.5425000000000001,-1.225,-3.8500000000000005,0.64265625,-0.26378125,-0.27453125,0.894,0.6001562500000001,-0.88690625,-1.1183750000000001,0.8541562500000001,0.025038266859706594,0.03359467919401634,True
60812,21838,0,21839,7993.0,83096.0,123800.0,-0.001769,0.0028669999999999998,-0.00061,0.6825000000000001,-1.2600000000000002,-4.0425,0.62303125,-0.27121875,-0.28853125,0.8794062500000001,0.59878125,-0.89196875,-1.1113125,0.8506875,0.024937762305362043,0.03276536222469454,True
60813,21839,0,21840,7996.0,83096.0,123801.0,-0.001281,0.0034159999999999998,-0.0015249999999999999,0.7350000000000001,-1.3650000000000002,-4.077500000000001,0.6469375,-0.27215625,-0.27034375,0.87709375,0.607875,-0.88928125,-1.11021875,0.8513125,0.024794810014853282,0.03344753816611016,True
60814,21840,0,21841,7993.0,83097.0,123801.0,-0.000488,0.00366,-0.0025009999999999998,0.805,-1.4700000000000002,-4.0425,0.64490625,-0.277125,-0.27540625,0.8757812500000001,0.6171875,-0.89034375,-1.10953125,0.843875,0.02463681322199497,0.033219457252910686,True
60815,21841,0,21842,7995.0,83092.0,123804.0,-0.000488,0.002806,-0.00042699999999999997,0.7350000000000001,-1.6975000000000002,-3.9725000000000006,0.65490625,-0.27271875,-0.27153125,0.89878125,0.61215625,-0.88896875,-1.1087500000000001,0.8605,0.024759965195424175,0.03334370488375567,True
60816,21842,0,21843,7998.0,83093.0,123800.0,0.002379,0.0017079999999999999,0.001952,0.6300000000000001,-1.995,-3.6925000000000003,0.6354375,-0.26278125,-0.2855625,0.88234375,0.60046875,-0.89,-1.11459375,0.855125,0.02519962836480514,0.03300994068438794,True
60817,21843,0,21844,7997.0,83091.0,123801.0,0.003538,0.0018909999999999999,0.000366,0.47250000000000003,-2.0475000000000003,-3.5000000000000004,0.62753125,-0.26971875,-0.2841875,0.9042187500000001,0.6036875,-0.89115625,-1.1139375,0.85009375,0.024966196578353,0.03303942283045022,True
60818,21844,0,21845,7997.0,83087.0,123792.0,0.0025009999999999998,-0.000976,-0.00061,0.17500000000000002,-2.0650000000000004,-3.2725000000000004,0.63284375,-0.26565625,-0.278,0.89546875,0.60396875,-0.88809375,-1.11425,0.85659375,0.02500944854404528,0.03329782892182725,True
60819,21845,0,21846,7996.0,83085.0,123789.0,-0.000732,-0.0030499999999999998,-0.001769,-0.08750000000000001,-1.9425000000000001,-3.08,0.6304062500000001,-0.267125,-0.2764375,0.8944062500000001,0.6029375,-0.8892187500000001,-1.1153125,0.85959375,0.024994506908739354,0.033400938172678515,True
60820,21846,0,21847,7998.0,83085.0,123784.0,-0.001952,-0.0044529999999999995,0.000122,-0.22750000000000004,-1.9600000000000002,-2.975,0.63478125,-0.26584375,-0.27921875,0.8804375,0.6042500000000001,-0.88834375,-1.1153125,0.8571875,0.02501170854328143,0.033290198957309405,True
60821,21847,0,21848,7994.0,83078.0,123785.0,-0.0025009999999999998,-0.004209,-0.002196,-0.1925,-1.8900000000000001,-3.22,0.6415,-0.26915625,-0.27159375,0.8835937500000001,0.60528125,-0.89128125,-1.1125,0.85621875,0.02499369131510657,0.03348556495769039,True
60822,21848,0,21849,7993.0,83086.0,123790.0,-0.0013419999999999999,-0.002989,-0.001586,0.17500000000000002,-1.9250000000000003,-3.4650000000000003,0.645375,-0.26990625,-0.2773125,0.87934375,0.61109375,-0.88765625,-1.11153125,0.8505625,0.024821541803479386,0.03322054484431331,True
60823,21849,0,21850,7991.0,83084.0,123780.0,0.0021349999999999997,-0.0006709999999999999,0.0006709999999999999,0.4025,-1.995,-3.7975000000000003,0.64184375,-0.26971875,-0.2769375,0.883625,0.60440625,-0.88828125,-1.112625,0.855625,0.02485356436575949,0.033277584481909,True
60824,21850,0,21851,7987.0,83078.0,123771.0,0.003904,0.002257,0.0006709999999999999,0.56,-2.0825,-4.112500000000001,0.64028125,-0.27037500000000003,-0.28046875,0.8922187500000001,0.6055625,-0.89003125,-1.113875,0.86309375,0.024895760225291,0.033185091906366496,True
60825,21851,0,21852,7982.0,83069.0,123754.0,0.004697,0.00244,-0.000122,0.6125,-1.8025000000000002,-4.2875000000000005,0.64315625,-0.2628125,-0.2778125,0.88746875,0.60540625,-0.888625,-1.1123750000000001,0.85521875,0.025144518831393858,0.033233117138462616,True
60826,21852,0,21853,7975.0,83064.0,123739.0,-0.0011589999999999999,0.002745,-0.000366,0.8225000000000001,-1.0325000000000002,-4.2525,0.6396875,-0.26696875000000003,-0.27925,0.892625,0.6041875,-0.88784375,-1.114125,0.8630625000000001,0.024946918111377166,0.03324324458845371,True
60827,21853,0,21854,7973.0,83056.0,123730.0,-0.0062829999999999995,0.0030499999999999998,0.0023179999999999997,0.7000000000000001,-0.8575,-4.2525,0.640125,-0.2688125,-0.27796875,0.88753125,0.6095,-0.89184375,-1.11240625,0.85521875,0.02502953402156078,0.03322809816363177,True
60828,21854,0,21855,7970.0,83060.0,123727.0,-0.004575,0.000793,0.004514,0.7000000000000001,-0.9450000000000001,-3.8850000000000002,0.62625,-0.2664375,-0.2735,0.89125,0.604125,-0.8886875,-1.1115,0.8595625,0.025001318370042613,0.033371164605857866,True
60829,21855,0,21856,7966.0,83059.0,123724.0,-0.001403,0.000366,0.001952,0.43750000000000006,-1.1900000000000002,-3.8500000000000005,0.64671875,-0.27046875,-0.276625,0.87821875,0.61071875,-0.89153125,-1.1128125,0.855625,0.024950755088640843,0.033297246176627965,True
60830,21856,0,21857,7961.0,83052.0,123720.0,-0.000549,-0.000122,-0.001281,0.21000000000000002,-1.3475000000000001,-3.6400000000000006,0.63896875,-0.26678125,-0.27968750000000003,0.89290625,0.603375,-0.88815625,-1.112625,0.86234375,0.02496669475064068,0.03316807780946834,True
60831,21857,0,21858,7958.0,83049.0,123711.0,0.001769,-0.0025009999999999998,0.000976,0.12250000000000001,-1.9075000000000002,-3.3950000000000005,0.641,-0.2666875,-0.27628125,0.8825000000000001,0.6105,-0.8834375,-1.1126875,0.852625,0.024785562686023582,0.033306122652145456,True
60832,21858,0,21859,7953.0,83042.0,123710.0,0.000793,-0.0011589999999999999,-0.001281,0.2625,-1.9775000000000003,-3.4650000000000003,0.6375625,-0.26459375,-0.27884375,0.889375,0.600875,-0.89090625,-1.11471875,0.8596875,0.02516230199533213,0.033282275956205955,True
60833,21859,0,21860,7952.0,83040.0,123692.0,0.001647,0.000366,-0.002196,0.28,-2.0475000000000003,-3.6400000000000006,0.640125,-0.2669375,-0.27328125000000003,0.8884062500000001,0.59965625,-0.88803125,-1.11196875,0.8593437500000001,0.02495551953310891,0.03339791906996539,True
60834,21860,0,21861,7948.0,83036.0,123683.0,0.001037,0.001037,-0.0026839999999999998,0.21000000000000002,-2.1175,-3.6225000000000005,0.646625,-0.26753125,-0.27721875,0.88715625,0.609,-0.88971875,-1.1125625000000001,0.85475,0.024997771419172827,0.03326397893484586,True
60835,21861,0,21862,7946.0,83024.0,123676.0,0.00183,0.00042699999999999997,-0.004392,0.12250000000000001,-2.1525000000000003,-3.6225000000000005,0.638625,-0.26621875,-0.27596875,0.8876875000000001,0.60440625,-0.8885000000000001,-1.1125625000000001,0.84703125,0.025002762319946966,0.03331375481892778,True
60836,21862,0,21863,7943.0,83024.0,123676.0,0.0021349999999999997,-0.0021349999999999997,0.001647,0.07,-1.8900000000000001,-3.5000000000000004,0.6418125,-0.26984375,-0.27828125,0.8854062500000001,0.60678125,-0.890375,-1.11453125,0.8595625,0.02493057055186995,0.033297456029564555,True
60837,21863,0,21864,7939.0,83019.0,123662.0,0.003172,-0.00042699999999999997,0.0023179999999999997,0.1925,-1.33,-3.7450000000000006,0.64096875,-0.2666875,-0.27665625,0.88734375,0.60490625,-0.888875,-1.11196875,0.85578125,0.024998618860836416,0.033263521005297524,True
60838,21864,0,21865,7933.0,83010.0,123645.0,0.000976,0.000488,0.0021349999999999997,0.2625,-0.8575,-3.9200000000000004,0.6394375,-0.26715625,-0.2760625,0.8924062500000001,0.60165625,-0.889,-1.11190625,0.8551875,0.024984681988026843,0.033284759097091644,True
60839,21865,0,21866,7931.0,83002.0,123641.0,-0.0035989999999999998,0.000366,0.001647,0.36750000000000005,-0.42000000000000004,-3.8850000000000002,0.6455625,-0.262875,-0.277,0.88665625,0.61171875,-0.882,-1.11209375,0.8559375,0.024882445141065825,0.03325464448777793,True
60840,21866,0,21867,7925.0,83006.0,123641.0,-0.0066489999999999995,0.000915,0.003111,0.525,-0.28,-3.9200000000000004,0.64378125,-0.26896875,-0.27778125,0.8869375,0.60590625,-0.8915625,-1.1155,0.85465625,0.025012240593574632,0.03335465151002369,True
60841,21867,0,21868,7925.0,83008.0,123650.0,-0.00488,0.000549,0.00122,0.56,-1.0675000000000001,-3.8150000000000004,0.63996875,-0.26775,-0.275875,0.89225,0.5933437500000001,-0.8870625,-1.1106875,0.85784375,0.02488491761532724,0.03324530640588793,True
60842,21868,0,21869,7922.0,83005.0,123653.0,-0.001037,0.000488,-0.000244,0.42000000000000004,-1.8375000000000001,-3.7800000000000002,0.6443125000000001,-0.26740625,-0.277,0.8874375,0.619,-0.8973125000000001,-1.1158125,0.84984375,0.025300170450123886,0.03339778476208962,True
60843,21869,0,21870,7921.0,83002.0,123643.0,0.003904,0.000366,-0.003111,0.385,-2.5025000000000004,-3.7625,0.63665625,-0.26446875000000003,-0.27684375,0.88625,0.59765625,-0.89253125,-1.11759375,0.8531875,0.0252309615961615,0.03347255347658451,True
60844,21870,0,21871,7918.0,82996.0,123633.0,0.007259,0.001098,-0.0040869999999999995,0.4025,-2.7825,-3.7275000000000005,0.640375,-0.2665625,-0.279125,0.89271875,0.59753125,-0.88628125,-1.11440625,0.8699375,0.02490202307747366,0.03325904828030724,True
60845,21871,0,21872,7912.0,82991.0,123614.0,0.0053679999999999995,0.000793,-0.0037819999999999998,0.4025,-2.7825,-3.6575,0.63890625,-0.26678125,-0.2764375,0.89303125,0.61584375,-0.88675,-1.10834375,0.862,0.02491159954594312,0.03313266132896559,True
60846,21872,0,21873,7908.0,82983.0,123605.0,0.002623,0.000183,-0.0006709999999999999,0.14,-1.995,-3.5175000000000005,0.6438125,-0.26690625,-0.2765,0.89090625,0.6204375,-0.890375,-1.110125,0.8506875,0.025048588058637127,0.03319875946455862,True
60847,21873,0,21874,7910.0,82978.0,123594.0,-0.0011589999999999999,-0.000793,0.000244,0.15750000000000003,-1.435,-3.4825000000000004,0.63996875,-0.27034375,-0.27834375,0.882875,0.61459375,-0.89296875,-1.116875,0.85821875,0.025012082980259233,0.03338517431010028,True
60848,21874,0,21875,7905.0,82978.0,123595.0,-0.000793,-0.002623,0.002257,0.035,-0.7350000000000001,-3.3950000000000005,0.6354062500000001,-0.2668125,-0.279125,0.887625,0.5994375000000001,-0.886625,-1.1091875,0.8715,0.024905446198510244,0.033058118666723084,True
60849,21875,0,21876,7904.0,82974.0,123595.0,-0.001647,-0.0032329999999999998,0.003294,-0.07,-0.29750000000000004,-3.325,0.64034375,-0.2678125,-0.27834375,0.8931875,0.602375,-0.88715625,-1.1108437500000001,0.8698125,0.024886079541530583,0.03315300785143869,True
60850,21876,0,21877,7901.0,82981.0,123607.0,-0.0071979999999999995,-0.001464,0.001464,0.29750000000000004,-0.14,-3.4650000000000003,0.6395625,-0.26640625,-0.278875,0.89028125,0.6156875,-0.88196875,-1.10953125,0.86675,0.024739300422117926,0.03308131249961108,True
60851,21877,0,21878,7900.0,82987.0,123612.0,-0.005063,-0.0017079999999999999,0.001464,0.49000000000000005,-0.35000000000000003,-3.6225000000000005,0.63925,-0.2675625,-0.2758125,0.89371875,0.6035,-0.88671875,-1.1084687500000001,0.8571875,0.024878982891225872,0.03316236678112838,True
60852,21878,0,21879,7896.0,82987.0,123623.0,-0.003721,0.000366,0.0006709999999999999,0.5775,-0.8575,-3.8325000000000005,0.6459375,-0.26690625,-0.276875,0.88696875,0.614,-0.88978125,-1.11078125,0.85371875,0.02502533042551348,0.03320909221014381,True
60853,21879,0,21880,7895.0,82990.0,123621.0,-0.00061,0.001586,-0.00122,0.665,-1.5050000000000001,-4.0600000000000005,0.6442187500000001,-0.26590625,-0.2799375,0.88453125,0.60346875,-0.8921875,-1.11615625,0.8502500000000001,0.025159751428033394,0.033294057485408424,True
60854,21880,0,21881,7892.0,82985.0,123612.0,0.004209,0.002623,-0.001281,0.6825000000000001,-1.9075000000000002,-4.322500000000001,0.63946875,-0.26509375,-0.27859375000000003,0.89271875,0.604625,-0.8878125,-1.11215625,0.8629375,0.02502103188056403,0.03319358527804637,True
60855,21881,0,21882,7891.0,82985.0,123604.0,0.0059169999999999995,0.00366,-0.001769,0.9275000000000001,-2.0475000000000003,-4.515000000000001,0.644875,-0.26778125,-0.27575,0.8873125000000001,0.60921875,-0.8894375,-1.1125,0.85621875,0.024976709497753817,0.03332005973120956,True
60856,21882,0,21883,7889.0,82979.0,123596.0,0.001769,0.003355,-0.0017079999999999999,0.8575,-1.9250000000000003,-4.340000000000001,0.6434062500000001,-0.26784375,-0.27715625,0.8831875,0.60971875,-0.89103125,-1.11221875,0.856625,0.02503662840405618,0.03325323454344312,True
60857,21883,0,21884,7888.0,82973.0,123589.0,0.000793,0.001769,-0.001281,0.7350000000000001,-1.5225000000000002,-4.0600000000000005,0.63946875,-0.2665625,-0.27734375,0.8909375,0.60453125,-0.88834375,-1.11459375,0.8632500000000001,0.024982829562533664,0.033337190652347304,True
60858,21884,0,21885,7889.0,82974.0,123587.0,0.000305,0.0006709999999999999,-0.00042699999999999997,0.6125,-1.2600000000000002,-3.7450000000000006,0.64065625,-0.266625,-0.27596875,0.887625,0.60859375,-0.88965625,-1.11196875,0.85121875,0.025031733815126515,0.03329089838884098,True
60859,21885,0,21886,7886.0,82972.0,123579.0,-0.001403,-0.0008539999999999999,0.001769,0.45500000000000007,-0.9450000000000001,-3.5000000000000004,0.63859375,-0.26775,-0.27959375000000003,0.89178125,0.605,-0.88803125,-1.10890625,0.85584375,0.024922873318876923,0.03302861907814084,True
60860,21886,0,21887,7885.0,82974.0,123587.0,-0.002257,-0.002806,0.002623,0.14,-0.7175,-3.1500000000000004,0.64203125,-0.26687500000000003,-0.27603125,0.88771875,0.60765625,-0.88834375,-1.111625,0.8561562500000001,0.02497027348394768,0.03327517633765239,True
60861,21887,0,21888,7884.0,82981.0,123590.0,-0.002379,-0.002989,0.002806,0.08750000000000001,-0.7525000000000001,-3.1675000000000004,0.64384375,-0.27215625,-0.2790625,0.88746875,0.6050625000000001,-0.89178125,-1.1143750000000001,0.856625,0.02489275451108988,0.03326033397207775,True
60862,21888,0,21889,7888.0,82980.0,123593.0,-0.00244,-0.0032329999999999998,0.00183,0.17500000000000002,-0.9625000000000001,-3.2375000000000003,0.6375000000000001,-0.273,-0.28240625,0.88909375,0.60465625,-0.89184375,-1.1154375,0.856,0.024861306226060496,0.033168096315264274,True
60863,21889,0,21890,7884.0,82981.0,123601.0,-0.0040869999999999995,-0.0011589999999999999,0.000976,0.22750000000000004,-1.2600000000000002,-3.2900000000000005,0.636375,-0.26521875,-0.2780625,0.89459375,0.6051562500000001,-0.88803125,-1.108875,0.8533125,0.025024578832445816,0.03308840001792195,True
60864,21890,0,21891,7883.0,82982.0,123603.0,-0.0006709999999999999,-0.000732,-0.001769,0.47250000000000003,-1.61,-3.5175000000000005,0.6358125,-0.2651875,-0.27346875,0.889375,0.603875,-0.88890625,-1.11209375,0.86403125,0.025060110867668198,0.03339526398510678,True
60865,21891,0,21892,7880.0,82981.0,123604.0,0.004209,0.000976,-0.0015249999999999999,0.385,-2.1175,-3.8500000000000005,0.6525625,-0.2683125,-0.27425,0.87840625,0.612625,-0.888875,-1.1110625,0.85678125,0.024933328645830716,0.03332445610375905,True
60866,21892,0,21893,7878.0,82975.0,123603.0,0.0051849999999999995,0.00042699999999999997,-0.001098,0.56,-1.9775000000000003,-3.9200000000000004,0.64828125,-0.2721875,-0.27503125,0.8868125,0.611625,-0.889625,-1.11159375,0.86071875,0.024807023006574024,0.033313795545135395,True
60867,21893,0,21894,7878.0,82974.0,123588.0,0.003843,0.0017079999999999999,-0.000732,0.6825000000000001,-1.8200000000000003,-3.8850000000000002,0.6512187500000001,-0.27384375,-0.27746875,0.87390625,0.6095,-0.89234375,-1.11184375,0.8569375,0.0248469973824783,0.03322635360057941,True
60868,21894,0,21895,7878.0,82970.0,123589.0,0.000793,0.000976,-0.001403,0.5425000000000001,-1.4700000000000002,-3.9200000000000004,0.6334375,-0.27409375,-0.27759375000000003,0.87540625,0.6001875,-0.891375,-1.1128125,0.8573437500000001,0.024799001662222358,0.033258670250494636,True
60869,21895,0,21896,7878.0,82978.0,123590.0,-0.001769,0.000488,0.0011589999999999999,0.5950000000000001,-1.1725,-3.8500000000000005,0.639,-0.274375,-0.2734375,0.88253125,0.6080625000000001,-0.889375,-1.11128125,0.8569375,0.024709338824297516,0.03336523300657946,True
60870,21896,0,21897,7877.0,82979.0,123595.0,-0.003904,0.00042699999999999997,0.001464,0.5425000000000001,-0.805,-3.6750000000000003,0.63890625,-0.2735625,-0.27778125,0.88253125,0.60640625,-0.89134375,-1.11175,0.8570625000000001,0.024819120100737828,0.033210299959182454,True
60871,21897,0,21898,7877.0,82983.0,123607.0,-0.003172,0.000732,0.001952,0.525,-0.8750000000000001,-3.6750000000000003,0.6329375,-0.25915625000000003,-0.27728125,0.89725,0.6041875,-0.89046875,-1.11278125,0.8594375,0.025363624379311858,0.03326991111348927,True
60872,21898,0,21899,7875.0,82984.0,123611.0,-0.001647,0.000793,0.000244,0.6300000000000001,-0.9975,-3.5875000000000004,0.6375625,-0.265125,-0.2733125,0.8895000000000001,0.60409375,-0.8889375,-1.10821875,0.8598125,0.025063846136461232,0.03325230906712568,True
60873,21899,0,21900,7874.0,82983.0,123613.0,-0.0008539999999999999,0.000183,-6.1e-05,0.47250000000000003,-1.2950000000000002,-3.6050000000000004,0.6455,-0.26928125,-0.27534375,0.8855625,0.6090625000000001,-0.88990625,-1.1123750000000001,0.856875,0.024934806654806102,0.03333142524353033,True
60874,21900,0,21901,7874.0,82985.0,123614.0,-0.000122,-0.000549,0.00042699999999999997,0.42000000000000004,-1.6975000000000002,-3.8500000000000005,0.63925,-0.26659375,-0.27684375,0.893625,0.60409375,-0.8888125,-1.11378125,0.86259375,0.024999937220789463,0.03332582583516769,True
60875,21901,0,21902,7872.0,82983.0,123610.0,0.002806,-0.000793,0.000244,0.24500000000000002,-2.0125,-3.5700000000000003,0.640125,-0.2670625,-0.27665625,0.89278125,0.60675,-0.8894375,-1.1124687500000001,0.86175,0.025005587209433723,0.033282769142320985,True
60876,21902,0,21903,7872.0,82980.0,123610.0,0.001098,-0.000244,-0.0011589999999999999,0.24500000000000002,-2.1350000000000002,-3.6225000000000005,0.645875,-0.2670625,-0.2755,0.8924062500000001,0.6153125,-0.88934375,-1.11190625,0.86240625,0.025001914725051762,0.033307158830285934,True
60877,21903,0,21904,7873.0,82979.0,123608.0,0.001098,0.0,-0.002074,0.29750000000000004,-2.1525000000000003,-3.6225000000000005,0.6414062500000001,-0.26721875,-0.27565625,0.882875,0.62775,-0.89109375,-1.1108437500000001,0.85140625,0.025064185859651103,0.03326003332723538,True
60878,21904,0,21905,7872.0,82982.0,123608.0,0.0011589999999999999,-0.000305,-0.00183,0.42000000000000004,-2.0125,-3.5700000000000003,0.64178125,-0.268625,-0.27834375,0.88753125,0.59540625,-0.8866875000000001,-1.117875,0.87334375,0.024835064931803402,0.033423657455099204,True
60879,21905,0,21906,7872.0,82981.0,123605.0,0.000305,6.1e-05,-0.000915,0.385,-1.8900000000000001,-3.3600000000000003,0.6392187500000001,-0.26687500000000003,-0.2789375,0.89471875,0.602875,-0.885125,-1.1059375,0.86890625,0.024844158910192333,0.03294041499147363,True
60880,21906,0,21907,7871.0,82982.0,123605.0,0.002562,0.000183,-0.001647,0.45500000000000007,-1.4700000000000002,-3.4825000000000004,0.64125,-0.26746875000000003,-0.27615625,0.89353125,0.62446875,-0.8931875,-1.10690625,0.84703125,0.025136144175991925,0.03308850527929939,True
60881,21907,0,21908,7875.0,82980.0,123608.0,-0.0011589999999999999,-0.000183,-6.1e-05,0.42000000000000004,-1.2600000000000002,-3.5175000000000005,0.63859375,-0.26921875,-0.2759375,0.8834375,0.6148750000000001,-0.8959375,-1.11353125,0.8515,0.025173534838766366,0.033352288917951355,True
60882,21908,0,21909,7872.0,82983.0,123609.0,-0.000732,0.000122,0.0013419999999999999,0.47250000000000003,-1.0850000000000002,-3.6225000000000005,0.6405625,-0.26834375,-0.27618750000000003,0.8873125000000001,0.5920625,-0.892,-1.12084375,0.8486875,0.025054485376827897,0.033623721336987336,True
60883,21909,0,21910,7871.0,82985.0,123618.0,-0.000976,-0.001037,0.002806,0.525,-1.0150000000000001,-3.5700000000000003,0.6440625,-0.2623125,-0.276125,0.88690625,0.59171875,-0.89275,-1.1164687500000001,0.83946875,0.025326149179982122,0.033457878110353396,True
60884,21910,0,21911,7872.0,82989.0,123622.0,-0.001586,-0.00042699999999999997,0.001464,0.6300000000000001,-1.12,-3.6050000000000004,0.64528125,-0.2705625,-0.2774375,0.8859375,0.61109375,-0.8953125000000001,-1.11890625,0.85503125,0.02509508567124836,0.03349941839127649,True
60885,21911,0,21912,7867.0,82995.0,123617.0,-0.002196,0.001098,0.0008539999999999999,0.525,-1.3825,-3.7275000000000005,0.64365625,-0.26940625,-0.27968750000000003,0.88796875,0.5806250000000001,-0.8925000000000001,-1.11775,0.86990625,0.025031384955307826,0.0333653492052433,True
60886,21912,0,21913,7871.0,82996.0,123627.0,-0.000549,-0.000183,0.000244,0.47250000000000003,-1.5750000000000002,-3.6400000000000006,0.63971875,-0.26659375,-0.2765625,0.892625,0.59896875,-0.8875625,-1.10565625,0.8669375,0.02495096697396541,0.03302418155271285,True
60887,21913,0,21914,7869.0,82995.0,123632.0,0.001769,-0.00042699999999999997,-0.000549,0.47250000000000003,-1.8200000000000003,-3.6050000000000004,0.63975,-0.2670625,-0.27315625,0.8934062500000001,0.6245937500000001,-0.88509375,-1.10553125,0.8606875,0.024835399705898237,0.0331550442693779,True
60888,21914,0,21915,7870.0,82995.0,123632.0,0.00183,0.0006709999999999999,-0.000732,0.35000000000000003,-1.9250000000000003,-3.6750000000000003,0.64053125,-0.267,-0.2759375,0.8869375,0.6126875,-0.8890625,-1.10596875,0.8592500000000001,0.0249934082491054,0.03306111221061725,True
60889,21915,0,21916,7871.0,82997.0,123629.0,0.0023179999999999997,0.000488,-0.001403,0.385,-1.8200000000000003,-3.7450000000000006,0.6345625,-0.2669375,-0.27521875,0.89253125,0.607875,-0.88115625,-1.1128437500000001,0.86134375,0.024686101555268358,0.03335444636770776,True
60890,21916,0,21917,7868.0,83000.0,123628.0,0.001037,0.000488,-0.001037,0.5075000000000001,-1.61,-3.6925000000000003,0.6394062500000001,-0.267125,-0.27615625,0.8922187500000001,0.60409375,-0.8879375,-1.10978125,0.863125,0.024944312882495788,0.03319921395173444,True
60891,21917,0,21918,7869.0,82998.0,123625.0,-0.000549,0.0011589999999999999,-0.00122,0.43750000000000006,-1.435,-3.7100000000000004,0.64571875,-0.2663125,-0.27603125,0.88725,0.6084375,-0.88890625,-1.11140625,0.85603125,0.025014910006340676,0.03326675502292907,True
60892,21918,0,21919,7868.0,82995.0,123623.0,0.000244,-0.00061,-0.0008539999999999999,0.29750000000000004,-1.225,-3.6750000000000003,0.6436875,-0.2683125,-0.27634375,0.8878125,0.61165625,-0.88615625,-1.1109375000000001,0.852875,0.02482680506355818,0.0332362640781532,True
60893,21919,0,21920,7871.0,83003.0,123631.0,0.0006709999999999999,-0.001037,0.001586,0.35000000000000003,-1.2075,-3.6225000000000005,0.639625,-0.2686875,-0.27603125,0.88690625,0.608,-0.8895937500000001,-1.108375,0.8564375,0.024946419625671873,0.03315004455684608,True
60894,21920,0,21921,7872.0,83005.0,123634.0,-0.001586,-0.001281,0.00061,0.43750000000000006,-1.1900000000000002,-3.5700000000000003,0.63990625,-0.2666875,-0.2768125,0.89128125,0.6041875,-0.8909375,-1.11334375,0.8618750000000001,0.02507940892141969,0.033310229745889576,True
60895,21921,0,21922,7873.0,83014.0,123637.0,-0.001098,-0.0013419999999999999,0.000793,0.5075000000000001,-1.1900000000000002,-3.5175000000000005,0.6444375,-0.268625,-0.27765625,0.87703125,0.61140625,-0.8891875,-1.1116875,0.85603125,0.024933015591609813,0.03321287149658899,True
60896,21922,0,21923,7874.0,83017.0,123641.0,6.1e-05,6.1e-05,-0.000793,0.525,-1.33,-3.7100000000000004,0.63871875,-0.26640625,-0.275625,0.88503125,0.6043125,-0.8888125,-1.11165625,0.862375,0.025007470726054127,0.03329255711677719,True
60897,21923,0,21924,7868.0,83016.0,123643.0,-0.0006709999999999999,0.001098,0.000122,0.45500000000000007,-1.3475000000000001,-3.6575,0.646625,-0.2698125,-0.28065625,0.8989375000000001,0.61215625,-0.89090625,-1.11403125,0.85746875,0.024952637070014275,0.033183641116955286,True
60898,21924,0,21925,7872.0,83017.0,123644.0,0.001281,0.000122,-0.001098,0.29750000000000004,-1.4875,-3.8325000000000005,0.64953125,-0.269125,-0.2749375,0.888625,0.60378125,-0.88790625,-1.1110625,0.85375,0.02486272825782603,0.033297077732174815,True
60899,21925,0,21926,7876.0,83021.0,123641.0,0.002074,-0.0006709999999999999,-0.000122,0.31500000000000006,-1.3825,-3.8500000000000005,0.6323125,-0.26446875000000003,-0.27053125,0.881875,0.6004375,-0.888375,-1.10946875,0.8628750000000001,0.02506817942111528,0.03341120070491336,True
60900,21926,0,21927,7876.0,83016.0,123641.0,-0.000122,0.001098,0.000305,0.56,-1.3650000000000002,-3.7975000000000003,0.6335625,-0.2650625,-0.2735625,0.88175,0.60953125,-0.8874062500000001,-1.11196875,0.8612500000000001,0.025006372449921335,0.033386719231243076,True
60901,21927,0,21928,7874.0,83021.0,123644.0,-0.001769,0.000793,0.0,0.56,-1.2775,-3.8150000000000004,0.628375,-0.26525,-0.27375,0.88184375,0.608375,-0.8881875,-1.11090625,0.8589375,0.02502944418913591,0.033338352732689605,True
60902,21928,0,21929,7874.0,83022.0,123644.0,-0.001952,0.001464,0.000488,0.6300000000000001,-1.33,-3.8150000000000004,0.63365625,-0.26734375,-0.274875,0.8820625,0.60446875,-0.88803125,-1.1095,0.8571875,0.02493919642599292,0.03323941137816364,True
60903,21929,0,21930,7875.0,83025.0,123655.0,-0.002013,0.000549,0.000244,0.5425000000000001,-1.4000000000000001,-3.7800000000000002,0.633125,-0.26496875000000003,-0.2785,0.90228125,0.6065625,-0.8900625,-1.1126562500000001,0.86209375,0.0251141896489814,0.03321656784116575,True
60904,21930,0,21931,7875.0,83026.0,123655.0,0.0018909999999999999,-0.00061,0.000305,0.3325,-1.4700000000000002,-3.6750000000000003,0.6555,-0.27046875,-0.2769375,0.88228125,0.59428125,-0.8884062500000001,-1.110625,0.8579375,0.02482832744663994,0.03320058740075167,True
60905,21931,0,21932,7875.0,83026.0,123652.0,0.000915,-0.000793,-0.000549,0.1925,-1.5575,-3.5875000000000004,0.63384375,-0.26590625,-0.27725,0.90390625,0.60353125,-0.8920625,-1.11225,0.86171875,0.025154856091173638,0.033250704337524514,True
60906,21932,0,21933,7878.0,83026.0,123652.0,0.000915,-0.000244,-0.001281,0.1925,-1.6450000000000002,-3.535,0.65828125,-0.26809375,-0.274,0.8824375,0.60428125,-0.88796875,-1.1104375,0.8614375,0.024906612758423687,0.033310351522150894,True
60907,21933,0,21934,7878.0,83029.0,123657.0,0.000122,-0.00061,0.000366,0.28,-1.6450000000000002,-3.4475000000000002,0.63571875,-0.2703125,-0.28190625,0.89809375,0.6119375,-0.8914375,-1.1145625000000001,0.8595,0.02495335996565084,0.03315432032710106,True
60908,21934,0,21935,7879.0,83028.0,123659.0,-0.000305,-0.000549,0.000488,0.28,-1.5925000000000002,-3.3600000000000003,0.63825,-0.267,-0.27384375,0.882,0.60384375,-0.8884375,-1.103625,0.8611562500000001,0.024968923822558168,0.0330542401744768,True
60909,21935,0,21936,7878.0,83030.0,123657.0,-0.000305,6.1e-05,-0.001769,0.31500000000000006,-1.61,-3.4825000000000004,0.63653125,-0.26603125,-0.2763125,0.8908125,0.60934375,-0.8866875000000001,-1.1126875,0.857875,0.024939287319776893,0.03330487826123748,True
60910,21936,0,21937,7879.0,83030.0,123653.0,-0.000244,-0.00042699999999999997,-0.000549,0.14,-1.6625,-3.3600000000000003,0.6363125000000001,-0.26434375,-0.27746875,0.893875,0.6043125,-0.8836875000000001,-1.1129375,0.863625,0.024889548624977713,0.03326845973315547,True
60911,21937,0,21938,7879.0,83028.0,123661.0,-0.0018909999999999999,-6.1e-05,-0.000793,0.1925,-1.54,-3.3775000000000004,0.6371875,-0.26953125,-0.27665625,0.8871875,0.60759375,-0.88878125,-1.1086562500000001,0.85759375,0.02488068796056456,0.033135982735037844,True
60912,21938,0,21939,7882.0,83029.0,123665.0,0.0,-0.00042699999999999997,0.001769,0.2625,-1.4525000000000001,-3.4125000000000005,0.63334375,-0.25921875,-0.2759375,0.88809375,0.60496875,-0.88771875,-1.109625,0.86459375,0.02525341941996994,0.03320190962628873,True
60913,21939,0,21940,7881.0,83030.0,123661.0,0.0015249999999999999,-0.000549,0.00183,0.31500000000000006,-1.54,-3.3075,0.64109375,-0.26671875,-0.27968750000000003,0.8946875,0.61103125,-0.88946875,-1.11071875,0.864625,0.025020622426904955,0.03309468192741396,True
60914,21940,0,21941,7884.0,83026.0,123660.0,-6.1e-05,-6.1e-05,-0.001647,0.385,-1.54,-3.4125000000000005,0.647625,-0.2645,-0.27865625,0.888875,0.6095625,-0.891625,-1.11190625,0.85840625,0.02519421693039325,0.03318147143847353,True
60915,21941,0,21942,7885.0,83030.0,123663.0,-0.000183,-0.000183,-0.001952,0.385,-1.54,-3.5175000000000005,0.64653125,-0.268125,-0.2765625,0.8845625,0.6060625000000001,-0.88803125,-1.11140625,0.85784375,0.024907805835385235,0.03324559929812771,True
60916,21942,0,21943,7880.0,83034.0,123670.0,-0.002989,0.000549,-0.0021349999999999997,0.36750000000000005,-1.6275000000000002,-3.5000000000000004,0.6459375,-0.2705,-0.276875,0.8875625,0.6028125,-0.8916875,-1.11134375,0.857,0.02495562022462318,0.03323074855362928,True
60917,21943,0,21944,7886.0,83032.0,123680.0,-0.001464,0.000366,0.001281,0.43750000000000006,-1.5925000000000002,-3.4125000000000005,0.6419375,-0.26965625,-0.27971875,0.88834375,0.611625,-0.89115625,-1.11240625,0.856875,0.024968707510323065,0.03315841149232762,True
60918,21944,0,21945,7885.0,83039.0,123678.0,0.0021349999999999997,0.000976,0.0032329999999999998,0.385,-1.61,-3.43,0.639,-0.2663125,-0.2755,0.889625,0.60396875,-0.8879375,-1.11040625,0.863,0.02497695921970232,0.033249412283005174,True
60919,21945,0,21946,7884.0,83035.0,123677.0,0.0028669999999999998,-0.001281,-0.002745,0.10500000000000001,-1.6275000000000002,-3.6575,0.64746875,-0.27009375,-0.2775625,0.88715625,0.6100625000000001,-0.88828125,-1.1107500000000001,0.8573437500000001,0.024838497033618987,0.03318051033919736,True
60920,21946,0,21947,7887.0,83032.0,123670.0,0.001037,-0.001769,-0.002745,0.08750000000000001,-1.3825,-3.4650000000000003,0.63978125,-0.2685625,-0.27746875,0.88865625,0.60528125,-0.8891875,-1.1130625,0.8581875,0.024935526722196136,0.03327327162905759,True
60921,21947,0,21948,7885.0,83029.0,123673.0,-0.000488,-0.004148,-0.001281,0.3325,-0.8925000000000001,-3.43,0.6396875,-0.26678125,-0.27909375000000003,0.88809375,0.60459375,-0.8876875000000001,-1.10984375,0.8582500000000001,0.024948330374206122,0.033084634387659226,True
60922,21948,0,21949,7888.0,83035.0,123685.0,-0.002074,-0.002745,0.002257,0.6125,-0.665,-3.5175000000000005,0.63928125,-0.26634375,-0.27518750000000003,0.89371875,0.5915,-0.888375,-1.11315625,0.86175,0.02499284304419232,0.03336771936024569,True
60923,21949,0,21950,7887.0,83035.0,123688.0,-0.001769,0.000183,0.002074,0.8925000000000001,-0.5075000000000001,-3.8150000000000004,0.640375,-0.26671875,-0.27840625,0.8874062500000001,0.60471875,-0.8882187500000001,-1.115375,0.858125,0.024971654510228862,0.03332495533114676,True
60924,21950,0,21951,7890.0,83036.0,123694.0,-0.0021349999999999997,0.005063,-0.001037,1.225,-0.47250000000000003,-4.130000000000001,0.6398125,-0.26903125,-0.280125,0.8878125,0.6041562500000001,-0.89103125,-1.11453125,0.85840625,0.024988920457042135,0.03322404235595677,True
60925,21951,0,21952,7892.0,83038.0,123695.0,-0.0017079999999999999,0.004392,-0.000915,1.2600000000000002,-0.5775,-3.9725000000000006,0.64065625,-0.26687500000000003,-0.27868750000000003,0.8864375,0.60440625,-0.89003125,-1.1173125,0.85803125,0.025036378771119465,0.033388325283606676,True
60926,21952,0,21953,7892.0,83041.0,123699.0,-0.001037,0.0013419999999999999,0.0017079999999999999,1.05,-0.6825000000000001,-3.8850000000000002,0.64046875,-0.267625,-0.27828125,0.8838125,0.6038125,-0.89025,-1.11809375,0.85771875,0.02501481503801689,0.033434563480757774,True
60927,21953,0,21954,7891.0,83040.0,123709.0,-0.00042699999999999997,0.000915,0.003965,0.8750000000000001,-0.7525000000000001,-3.7275000000000005,0.63984375,-0.26734375,-0.277375,0.8915937500000001,0.60475,-0.88834375,-1.1150625,0.86278125,0.024951439366068702,0.03335398826899197,True
60928,21954,0,21955,7895.0,83042.0,123709.0,-0.000244,0.000488,0.002623,0.8575,-1.0675000000000001,-3.5175000000000005,0.63965625,-0.26834375,-0.27884375,0.887125,0.60928125,-0.8885625,-1.11734375,0.8574375,0.02491983014286181,0.03338330710228864,True
60929,21955,0,21956,7894.0,83038.0,123712.0,0.000122,-0.000183,-0.001281,0.43750000000000006,-1.54,-3.1850000000000005,0.6394062500000001,-0.2661875,-0.275625,0.8909375,0.59521875,-0.88828125,-1.11890625,0.86284375,0.024995448410082558,0.033571575195476516,True
60930,21956,0,21957,7896.0,83040.0,123707.0,0.000305,-0.001586,0.000488,0.21000000000000002,-1.6275000000000002,-3.1675000000000004,0.641375,-0.2684375,-0.27796875,0.88778125,0.60371875,-0.88965625,-1.1167500000000001,0.854875,0.024958912399603753,0.03339529397712682,True
60931,21957,0,21958,7896.0,83039.0,123704.0,0.001098,-0.0035989999999999998,0.0008539999999999999,-0.052500000000000005,-1.7850000000000001,-2.9575000000000005,0.6398125,-0.267,-0.27728125,0.887875,0.6003125,-0.88834375,-1.11659375,0.855875,0.024965251052513286,0.03341665308417867,True
60932,21958,0,21959,7894.0,83038.0,123701.0,6.1e-05,-0.0042699999999999995,-0.001464,-0.1925,-1.8900000000000001,-2.9225000000000003,0.63996875,-0.26637500000000003,-0.27315625,0.8933125000000001,0.6044375,-0.8881875,-1.1198125,0.87075,0.024984242022445386,0.03370472012878281,True
60933,21959,0,21960,7893.0,83036.0,123697.0,0.000488,-0.004026,-0.002013,-0.21000000000000002,-1.9250000000000003,-3.1675000000000004,0.645375,-0.26878125,-0.2804375,0.8817812500000001,0.6180625,-0.89459375,-1.12053125,0.85875,0.025138490159133442,0.033442515273238896,True
60934,21960,0,21961,7889.0,83034.0,123694.0,0.000244,-0.000488,-0.00183,0.21000000000000002,-1.7675,-3.5000000000000004,0.63978125,-0.2651875,-0.280375,0.88196875,0.60321875,-0.88790625,-1.1141875,0.8523437500000001,0.02502093762909445,0.03320085509435653,True
60935,21961,0,21962,7886.0,83033.0,123684.0,0.0015249999999999999,0.0013419999999999999,-0.00122,0.49000000000000005,-1.7500000000000002,-3.6750000000000003,0.6412187500000001,-0.2650625,-0.27728125,0.8837812500000001,0.5995,-0.88621875,-1.11375,0.85371875,0.024959848510533567,0.033307202229854165,True
60936,21962,0,21963,7880.0,83027.0,123679.0,0.0021349999999999997,0.000793,-0.000549,0.5425000000000001,-1.6275000000000002,-3.8850000000000002,0.63184375,-0.2654375,-0.27278125000000003,0.8768125,0.59296875,-0.88734375,-1.115375,0.8546875,0.024988856032496436,0.03354892172623344,True
60937,21963,0,21964,7881.0,83022.0,123663.0,0.002257,0.001647,-0.000549,0.7000000000000001,-1.4875,-3.9375000000000004,0.6421875,-0.27087500000000003,-0.28321875,0.90828125,0.6177812500000001,-0.88953125,-1.1183750000000001,0.86028125,0.024856082815942943,0.033248816852204814,True
60938,21964,0,21965,7874.0,83015.0,123652.0,0.0015249999999999999,0.002074,0.000915,0.7175,-1.155,-3.9200000000000004,0.654625,-0.26703125,-0.27390625,0.8793125,0.59753125,-0.88653125,-1.11384375,0.8649375,0.024892983026712487,0.033445198925393486,True
60939,21965,0,21966,7872.0,83015.0,123651.0,-0.003721,0.001769,0.000915,0.7000000000000001,-0.8225000000000001,-3.8325000000000005,0.6495625,-0.27784375,-0.280375,0.87165625,0.61875,-0.89271875,-1.11521875,0.8542500000000001,0.024700998158347007,0.033240552603190046,True
60940,21966,0,21967,7871.0,83013.0,123643.0,-0.003111,0.0013419999999999999,0.000976,0.6300000000000001,-0.7875000000000001,-3.7450000000000006,0.6278125,-0.2640625,-0.27690625,0.90953125,0.5995625,-0.8851875,-1.11984375,0.86365625,0.02495962708739888,0.033556637867223994,True
60941,21967,0,21968,7865.0,83017.0,123643.0,-0.001464,-0.000366,0.0013419999999999999,0.525,-0.7525000000000001,-3.6400000000000006,0.63778125,-0.263625,-0.27240625,0.8861875,0.59009375,-0.8864375,-1.1123125,0.86303125,0.025026181429141876,0.03344599387252767,True
60942,21968,0,21969,7863.0,83017.0,123636.0,-0.000976,0.0,0.00122,0.45500000000000007,-1.05,-3.5175000000000005,0.6608437500000001,-0.278875,-0.27796875,0.8790625,0.61434375,-0.8893125000000001,-1.11271875,0.85521875,0.024526089260199536,0.03324012857030862,True
60943,21969,0,21970,7860.0,83015.0,123632.0,0.000549,-0.0006709999999999999,0.000549,0.4025,-1.2600000000000002,-3.3075,0.6190625,-0.26725,-0.27775,0.91025,0.6038125,-0.89015625,-1.1156875,0.8608750000000001,0.025026208905378003,0.033363112198302354,True
60944,21970,0,21971,7859.0,83012.0,123627.0,0.000183,-0.0008539999999999999,-0.000549,0.24500000000000002,-1.6275000000000002,-3.2900000000000005,0.64740625,-0.2676875,-0.2720625,0.8942187500000001,0.60465625,-0.88878125,-1.1155,0.8649375,0.024954767522013557,0.03358234954510163,True
60945,21971,0,21972,7856.0,83009.0,123620.0,0.001464,-0.00061,-0.000366,0.29750000000000004,-1.5750000000000002,-3.325,0.657875,-0.27334375,-0.27690625,0.8798125,0.6105,-0.88946875,-1.11553125,0.85828125,0.02475444559257618,0.03339069325877787,True
60946,21972,0,21973,7849.0,83009.0,123620.0,0.001037,-0.000549,-0.0008539999999999999,0.28,-1.6275000000000002,-3.4825000000000004,0.63065625,-0.26659375,-0.2813125,0.88909375,0.6051562500000001,-0.8905625,-1.11959375,0.8586875,0.025068487303169622,0.03337160856751514,True
60947,21973,0,21974,7849.0,83009.0,123611.0,6.1e-05,0.0006709999999999999,-0.000366,0.2625,-1.7500000000000002,-3.6575,0.6351875,-0.26625,-0.27546875,0.89246875,0.60471875,-0.88725,-1.11528125,0.8558125,0.024952535937076213,0.03343830760406078,True
60948,21974,0,21975,7846.0,83007.0,123605.0,0.000244,-0.000244,0.0,0.28,-1.7850000000000001,-3.6225000000000005,0.6465,-0.27037500000000003,-0.2706875,0.887375,0.61190625,-0.89134375,-1.1160625,0.8582500000000001,0.02494717666658715,0.033658739302786816,True
60949,21975,0,21976,7844.0,83008.0,123602.0,0.00061,-0.00061,-0.000366,0.2625,-1.8025000000000002,-3.6400000000000006,0.63959375,-0.266625,-0.2784375,0.88746875,0.6038125,-0.88790625,-1.117125,0.85875,0.024963178652282172,0.033391062870451925,True
60950,21976,0,21977,7840.0,83005.0,123595.0,0.001464,-0.0011589999999999999,0.00042699999999999997,0.14,-1.715,-3.8500000000000005,0.63990625,-0.26584375,-0.27753125,0.8879375,0.59984375,-0.8873125000000001,-1.11590625,0.857375,0.024971308171583412,0.033380240858320614,True
60951,21977,0,21978,7839.0,83005.0,123590.0,0.00042699999999999997,-0.0008539999999999999,-6.1e-05,0.31500000000000006,-1.7325000000000002,-3.7800000000000002,0.6409375,-0.2685,-0.27868750000000003,0.8905000000000001,0.604125,-0.8880625,-1.11928125,0.8612500000000001,0.02489396271807016,0.03346408448689192,True
60952,21978,0,21979,7835.0,83008.0,123588.0,-0.000915,0.000549,0.000122,0.47250000000000003,-1.6975000000000002,-3.7275000000000005,0.64746875,-0.267625,-0.27640625,0.89065625,0.61103125,-0.8912187500000001,-1.1176875,0.86209375,0.025052760825542142,0.033493578976965935,True
60953,21979,0,21980,7836.0,83003.0,123580.0,-0.001098,0.001281,-0.0015249999999999999,0.47250000000000003,-1.6975000000000002,-3.7450000000000006,0.63678125,-0.2670625,-0.27871875,0.8873125000000001,0.6074375,-0.8882187500000001,-1.11153125,0.8585625,0.024957842754415684,0.03316454467506835,True
60954,21980,0,21981,7831.0,83002.0,123577.0,0.0011589999999999999,0.000915,-0.000122,0.5425000000000001,-1.7325000000000002,-3.6050000000000004,0.639,-0.26646875000000003,-0.27803125,0.8875625,0.6041562500000001,-0.88409375,-1.11625,0.8514375000000001,0.024820072059083924,0.03337356293236451,True
60955,21981,0,21982,7830.0,83001.0,123574.0,0.0013419999999999999,0.000244,0.001098,0.5425000000000001,-1.4525000000000001,-3.5175000000000005,0.640625,-0.2699375,-0.28065625,0.8911250000000001,0.60409375,-0.8925000000000001,-1.1190625,0.859,0.02501004318569851,0.033377290653263836,True
60956,21982,0,21983,7827.0,83001.0,123572.0,0.001769,0.001037,0.00122,0.5425000000000001,-1.4000000000000001,-3.4650000000000003,0.64525,-0.265,-0.273125,0.88878125,0.61246875,-0.891625,-1.11884375,0.8601562500000001,0.025174129852912373,0.03366869742959406,True
60957,21983,0,21984,7823.0,83003.0,123572.0,-0.000488,0.000183,0.0011589999999999999,0.6125,-1.1900000000000002,-3.4825000000000004,0.63915625,-0.2669375,-0.27846875,0.888125,0.60503125,-0.8883125000000001,-1.115875,0.8593125,0.02496653800855321,0.03334171116873292,True
60958,21984,0,21985,7824.0,83000.0,123570.0,-0.002074,-0.0017079999999999999,0.0008539999999999999,0.49000000000000005,-1.1900000000000002,-3.4125000000000005,0.64028125,-0.26553125,-0.2774375,0.88675,0.6045,-0.8875000000000001,-1.1107500000000001,0.8600625000000001,0.024991210447011556,0.03318548828688909,True
60959,21985,0,21986,7823.0,83000.0,123574.0,-0.0013419999999999999,-0.002379,-0.000183,0.3325,-1.3125000000000002,-3.535,0.63925,-0.2664375,-0.27775,0.8874062500000001,0.603875,-0.8817812500000001,-1.11509375,0.859375,0.024730695275282998,0.03334025977904224,True
60960,21986,0,21987,7819.0,82996.0,123572.0,0.000976,-0.000915,-0.000488,0.31500000000000006,-1.3125000000000002,-3.6400000000000006,0.640375,-0.267,-0.2785,0.884875,0.60534375,-0.8825625,-1.11525,0.8589687500000001,0.024738710090650835,0.03331641134370552,True
60961,21987,0,21988,7818.0,83001.0,123573.0,0.00183,-0.00042699999999999997,-6.1e-05,0.43750000000000006,-1.225,-3.6575,0.63978125,-0.2673125,-0.27790625,0.8850625,0.603875,-0.887875,-1.1155625,0.858875,0.024934330472167667,0.033352080010153065,True
60962,21988,0,21989,7819.0,82998.0,123573.0,6.1e-05,-0.000122,-0.000488,0.47250000000000003,-1.3125000000000002,-3.7625,0.63990625,-0.26737500000000003,-0.277875,0.8873125000000001,0.60390625,-0.8884375,-1.115625,0.8583437500000001,0.02495385658501061,0.033355729749906686,True
60963,21989,0,21990,7819.0,82995.0,123570.0,-0.0026839999999999998,0.001098,-0.000183,0.6125,-1.3650000000000002,-3.8500000000000005,0.64009375,-0.26790625,-0.28096875,0.893875,0.60534375,-0.8905937500000001,-1.1147500000000001,0.86309375,0.02501698056118087,0.033198867199554054,True
60964,21990,0,21991,7816.0,82998.0,123573.0,0.00061,0.001647,0.0011589999999999999,0.8225000000000001,-1.2600000000000002,-4.0425,0.647625,-0.264,-0.27821875,0.888,0.6098125,-0.88775,-1.1156875,0.8593437500000001,0.025062530763126437,0.033344448564268846,True
60965,21991,0,21992,7815.0,82998.0,123573.0,0.000915,0.001281,0.000183,0.7000000000000001,-1.1375000000000002,-3.9200000000000004,0.64753125,-0.26490625,-0.279125,0.88690625,0.60953125,-0.89128125,-1.11575,0.859,0.025164433831625282,0.03331077112966963,True
60966,21992,0,21993,7813.0,82993.0,123574.0,0.0008539999999999999,0.000793,-0.001037,0.7000000000000001,-1.2075,-3.9200000000000004,0.64634375,-0.2701875,-0.27440625,0.8876875000000001,0.609375,-0.89065625,-1.11621875,0.8579687500000001,0.024927777868452145,0.03351668929066005,True
60967,21993,0,21994,7812.0,82996.0,123573.0,-0.000549,0.0011589999999999999,0.000244,0.7350000000000001,-1.1900000000000002,-3.7800000000000002,0.64034375,-0.2663125,-0.28028125,0.89296875,0.5994375000000001,-0.8827812500000001,-1.11515625,0.87021875,0.024774913375087446,0.03324187959212876,True
60968,21994,0,21995,7809.0,82996.0,123573.0,-0.00183,0.0006709999999999999,0.000793,0.8400000000000001,-1.1375000000000002,-3.7450000000000006,0.6432187500000001,-0.267125,-0.27203125,0.88878125,0.61709375,-0.8905000000000001,-1.113,0.85675,0.025044695767461482,0.033487387010711585,True
60969,21995,0,21996,7808.0,83001.0,123580.0,0.0006709999999999999,-0.000549,0.001769,0.5775,-1.2775,-3.4825000000000004,0.6466875,-0.269625,-0.27821875,0.88534375,0.60321875,-0.89171875,-1.1171875,0.8603125,0.024991996585209692,0.03340217729393468,True
60970,21996,0,21997,7808.0,83001.0,123578.0,0.0025009999999999998,-0.00042699999999999997,-0.000305,0.5075000000000001,-1.3475000000000001,-3.4475000000000002,0.63959375,-0.26778125,-0.280875,0.8923125000000001,0.5980625,-0.8854062500000001,-1.11678125,0.869125,0.024818763004923826,0.03328078712315099,True
60971,21997,0,21998,7809.0,83002.0,123579.0,0.0008539999999999999,-0.0011589999999999999,-0.000915,0.42000000000000004,-1.4000000000000001,-3.3950000000000005,0.645625,-0.267625,-0.27884375,0.88825,0.62009375,-0.8961250000000001,-1.11634375,0.8528125,0.025244892528455735,0.03334482153677324,True
60972,21998,0,21999,7808.0,83010.0,123582.0,0.000915,-0.0011589999999999999,0.0,0.36750000000000005,-1.2425000000000002,-3.2550000000000003,0.64453125,-0.269,-0.28059375000000003,0.8904375,0.597625,-0.89153125,-1.11528125,0.87490625,0.025009761100976864,0.03323424857127571,True
60973,21999,0,22000,7807.0,83008.0,123579.0,-0.00183,-0.00183,-0.0011589999999999999,0.3325,-1.0675000000000001,-3.2725000000000004,0.64034375,-0.26703125,-0.278125,0.887875,0.61703125,-0.88878125,-1.10228125,0.85353125,0.02498113482354625,0.03283192638119295,True
60974,22000,0,22001,7805.0,83008.0,123582.0,-0.000549,-0.000976,6.1e-05,0.5425000000000001,-0.9975,-3.43,0.6474375,-0.26965625,-0.27875,0.88753125,0.60121875,-0.89459375,-1.1236875,0.8538125,0.0251033419655623,0.03363111008286502,True
60975,22001,0,22002,7805.0,83011.0,123591.0,-0.001952,-0.001098,0.000549,0.5075000000000001,-1.0325000000000002,-3.4825000000000004,0.639375,-0.26465625,-0.2811875,0.888625,0.5986875,-0.8836875000000001,-1.119125,0.855125,0.02487699019689104,0.03335854652580454,True
60976,22002,0,22003,7805.0,83013.0,123594.0,-0.0006709999999999999,-0.000183,0.000366,0.6825000000000001,-1.05,-3.6225000000000005,0.64,-0.2668125,-0.2816875,0.89353125,0.59771875,-0.88590625,-1.1161875,0.87515625,0.024877283703501854,0.03322558409790499,True
60977,22003,0,22004,7806.0,83016.0,123598.0,0.001647,0.000366,-0.000244,0.805,-1.0675000000000001,-3.8150000000000004,0.640625,-0.26778125,-0.2806875,0.8951875,0.58221875,-0.88565625,-1.1079375,0.8701875,0.024828559624582934,0.032947748097588665,True
60978,22004,0,22005,7804.0,83019.0,123599.0,-0.000305,0.0011589999999999999,0.000305,0.9275000000000001,-1.225,-3.8150000000000004,0.6395625,-0.26690625,-0.2720625,0.89246875,0.61534375,-0.8853125000000001,-1.1123125,0.86821875,0.024850250524280134,0.03345968237692168,True
60979,22005,0,22006,7806.0,83022.0,123602.0,-0.000305,0.002196,0.000366,1.0325000000000002,-1.1025,-3.8675,0.63934375,-0.26675,-0.27718750000000003,0.89390625,0.6085,-0.8861875,-1.11315625,0.86228125,0.024890815437278214,0.03328807982867546,True
60980,22006,0,22007,7805.0,83022.0,123606.0,0.0,0.001647,0.000732,0.8750000000000001,-1.1025,-3.9375000000000004,0.64609375,-0.26696875000000003,-0.2780625,0.8845937500000001,0.61003125,-0.8888125,-1.113375,0.8585,0.02498487021026013,0.033261658379250096,True
60981,22007,0,22008,7804.0,83023.0,123612.0,0.000305,0.000305,0.000488,0.7175,-1.155,-4.0075,0.6448125,-0.26725,-0.2778125,0.8818125,0.61215625,-0.889,-1.115,0.84665625,0.024980915263771147,0.033334162850885925,True
60982,22008,0,22009,7807.0,83027.0,123610.0,0.001586,0.0,0.0,0.6300000000000001,-1.225,-3.9375000000000004,0.6452187500000001,-0.265,-0.27728125,0.89265625,0.61090625,-0.8885625,-1.1108125,0.85928125,0.025054179002905453,0.03319411707606036,True
60983,22009,0,22010,7806.0,83033.0,123619.0,-0.000488,-0.000366,0.000366,0.6825000000000001,-1.0150000000000001,-3.9025000000000003,0.6449375,-0.2668125,-0.27765625,0.89184375,0.61165625,-0.88834375,-1.1143125,0.8663125,0.024972784699664876,0.03331392209123782,True
60984,22010,0,22011,7805.0,83033.0,123623.0,-0.0021349999999999997,-0.000183,0.000732,0.6300000000000001,-1.1025,-3.9200000000000004,0.63946875,-0.26678125,-0.28021875,0.89078125,0.60565625,-0.88828125,-1.1131875,0.86653125,0.02497159180086009,0.03316857925741207,True
60985,22011,0,22012,7805.0,83040.0,123628.0,-0.001586,0.000488,0.000793,0.7000000000000001,-1.2425000000000002,-3.7800000000000002,0.63990625,-0.2676875,-0.2789375,0.88696875,0.60421875,-0.887875,-1.1166562500000001,0.86525,0.024919262894079943,0.033353116022360664,True
60986,22012,0,22013,7805.0,83043.0,123634.0,-0.000793,0.000122,0.000488,0.6125,-1.2950000000000002,-3.6925000000000003,0.63528125,-0.26678125,-0.278625,0.88871875,0.604375,-0.88678125,-1.11359375,0.8594375,0.02491282395147022,0.033247680850137185,True
60987,22013,0,22014,7807.0,83041.0,123634.0,0.00061,0.001281,-0.000732,0.43750000000000006,-1.5575,-3.6750000000000003,0.646375,-0.26675,-0.277625,0.89025,0.61303125,-0.8884375,-1.11421875,0.8595,0.024978968647589868,0.03331155782020892,True
60988,22014,0,22015,7807.0,83045.0,123636.0,0.002379,-0.000793,-0.000793,0.29750000000000004,-1.7850000000000001,-3.5525,0.64740625,-0.2671875,-0.27859375000000003,0.8882187500000001,0.61171875,-0.890125,-1.11471875,0.8588125,0.025027495844235415,0.0332922302783104,True
60989,22015,0,22016,7810.0,83048.0,123643.0,0.000732,-0.000976,0.000183,0.31500000000000006,-1.6800000000000002,-3.43,0.6413125000000001,-0.27271875,-0.27840625,0.88621875,0.5979375,-0.8902187500000001,-1.1156875,0.85275,0.024808942267733187,0.033336983110655444,True
60990,22016,0,22017,7813.0,83047.0,123643.0,-0.00061,-0.000122,0.00061,0.43750000000000006,-1.5225000000000002,-3.2900000000000005,0.648,-0.27265625,-0.2773125,0.8833125000000001,0.6100625000000001,-0.892,-1.111625,0.85903125,0.02488123694359634,0.03322415415171261,True
60991,22017,0,22018,7815.0,83053.0,123648.0,-6.1e-05,-0.000122,-0.00042699999999999997,0.4025,-1.54,-3.4475000000000002,0.6526875,-0.272375,-0.27684375,0.88371875,0.61425,-0.88953125,-1.114125,0.85903125,0.024795816514222222,0.033339057203864354,True
60992,22018,0,22019,7812.0,83051.0,123648.0,0.00183,-0.000305,-0.0008539999999999999,0.3325,-1.4700000000000002,-3.5000000000000004,0.6388125,-0.267625,-0.28134375,0.89746875,0.6091562500000001,-0.891625,-1.1181875000000001,0.858875,0.025068672696137755,0.033316247440226335,True
60993,22019,0,22020,7813.0,83049.0,123645.0,-0.0006709999999999999,-0.00183,-0.000488,0.47250000000000003,-1.155,-3.3950000000000005,0.6389375,-0.26628125,-0.2759375,0.8941250000000001,0.6045625,-0.888375,-1.11315625,0.8649375,0.02499535425675642,0.03333785453590686,True
60994,22020,0,22021,7815.0,83058.0,123661.0,-0.001403,-0.000976,0.0013419999999999999,0.5775,-1.155,-3.3075,0.65371875,-0.266125,-0.2744375,0.9021875,0.61190625,-0.88865625,-1.11403125,0.86334375,0.02501265009033985,0.03343126165776353,True
60995,22021,0,22022,7815.0,83059.0,123671.0,6.1e-05,-6.1e-05,0.000183,0.6300000000000001,-1.1375000000000002,-3.4825000000000004,0.64190625,-0.26503125,-0.26553125,0.9013125000000001,0.60528125,-0.883,-1.1146562500000001,0.86371875,0.02483497769561548,0.03380993916649765,True
60996,22022,0,22023,7813.0,83064.0,123673.0,-0.001281,0.000732,0.000183,0.665,-0.9975,-3.6750000000000003,0.6538125,-0.26896875,-0.27790625,0.88390625,0.60559375,-0.8880625,-1.11384375,0.85271875,0.024875128387354378,0.03328592422257146,True
60997,22023,0,22024,7817.0,83064.0,123679.0,0.000915,0.0008539999999999999,0.000183,0.7525000000000001,-0.9625000000000001,-3.6925000000000003,0.64859375,-0.27278125000000003,-0.2765625,0.883625,0.6095625,-0.88971875,-1.114,0.858125,0.02478684095215017,0.033345444771840406,True
60998,22024,0,22025,7815.0,83066.0,123683.0,0.000183,0.000793,0.001098,0.77,-1.0150000000000001,-3.6750000000000003,0.63390625,-0.26365625,-0.2803125,0.8904375,0.604875,-0.8900625,-1.1163125,0.86359375,0.025166921537460987,0.03328514088204628,True
60999,22025,0,22026,7819.0,83067.0,123685.0,6.1e-05,0.000915,0.000915,0.8575,-1.0325000000000002,-3.7800000000000002,0.65196875,-0.26359375,-0.277375,0.8827812500000001,0.60553125,-0.88884375,-1.11434375,0.8584375,0.02512169734682834,0.033326323726854304,True
61000,22026,0,22027,7818.0,83072.0,123693.0,-0.001586,0.000732,0.0006709999999999999,0.8750000000000001,-0.9450000000000001,-3.7450000000000006,0.63828125,-0.27109375,-0.27890625,0.884875,0.607,-0.8904062500000001,-1.11425,0.85671875,0.02488157460266443,0.03326174383069373,True
61001,22027,0,22028,7816.0,83074.0,123694.0,0.000732,0.000305,0.000244,0.7175,-1.0150000000000001,-3.6925000000000003,0.6379375,-0.2680625,-0.2784375,0.87696875,0.60521875,-0.88978125,-1.11425,0.85928125,0.02497887561788033,0.03328040853300417,True
61002,22028,0,22029,7816.0,83073.0,123705.0,0.0,0.000793,-0.000244,0.7000000000000001,-1.0850000000000002,-3.7100000000000004,0.641625,-0.27034375,-0.278125,0.88825,0.604875,-0.8898125,-1.1138125,0.85990625,0.02488844582497357,0.03327601096010413,True
61003,22029,0,22030,7816.0,83078.0,123708.0,0.000549,-0.000488,-0.00122,0.525,-1.1725,-3.6225000000000005,0.6451250000000001,-0.27034375,-0.271,0.887375,0.61059375,-0.88928125,-1.114875,0.8594375,0.024867632527556416,0.03360060521901861,True
61004,22030,0,22031,7819.0,83079.0,123717.0,-0.000549,0.0006709999999999999,-0.0013419999999999999,0.5775,-1.2075,-3.5875000000000004,0.640625,-0.269625,-0.2813125,0.8874375,0.604125,-0.8904062500000001,-1.12184375,0.85821875,0.024940583281962303,0.0334581831797278,True
