frame_seq,absolute_seq_u64,segment_id,sample_seq,PPG_G,PPG_R,PPG_IR,ACC_X,ACC_Y,ACC_Z,GYRO_X,GYRO_Y,GYRO_Z,Uh1,Uh2,Uh3,Uh4,Uc1,Uc2,Uc3,Uc4,UD1,UD2,parser_valid
42266,96,0,97,3713.0,38763.0,44045.0,-0.000793,0.00183,-0.0044529999999999995,0.385,-1.5575,-3.7625,0.81440625,-0.1418125,-0.510125,0.933,0.77465625,-0.61234375,-1.3795,0.8771875,0.01911769373853313,0.03425500896392757,True
42267,97,0,98,3710.0,38766.0,44046.0,0.002074,0.001952,-0.003477,0.45500000000000007,-1.6450000000000002,-3.7100000000000004,0.81125,-0.1380625,-0.5085000000000001,0.9284687500000001,0.77009375,-0.61503125,-1.377875,0.874625,0.019377133636586386,0.03425720238593657,True
42268,98,0,99,3712.0,38769.0,44049.0,0.003111,0.0006709999999999999,-0.001647,0.3325,-1.8200000000000003,-3.7275000000000005,0.80734375,-0.1381875,-0.5078125,0.92715625,0.7570625,-0.61275,-1.377625,0.88109375,0.019281165249718134,0.0342747794563124,True
42269,99,0,100,3713.0,38768.0,44049.0,0.003538,-0.000549,0.00061,0.21000000000000002,-1.9075000000000002,-3.6225000000000005,0.8069375,-0.136375,-0.5086875,0.9291875,0.76990625,-0.61465625,-1.3779375,0.88175,0.019430750734128168,0.03425219248018087,True
42270,100,0,101,3715.0,38768.0,44052.0,0.004514,-0.0017079999999999999,-0.00042699999999999997,0.15750000000000003,-1.8550000000000002,-3.6225000000000005,0.80765625,-0.138,-0.50815625,0.93009375,0.76978125,-0.6141875,-1.37584375,0.8811875,0.019346058040713307,0.03419344430665483,True
42271,101,0,102,3716.0,38768.0,44052.0,0.003111,0.00122,-0.0017079999999999999,0.28,-1.5925000000000002,-3.8150000000000004,0.80696875,-0.13734375000000001,-0.50784375,0.9293125,0.76828125,-0.6143125,-1.37196875,0.8708750000000001,0.01937769945839438,0.03405825572759307,True
42272,102,0,103,3716.0,38770.0,44053.0,0.000122,0.002562,-0.00122,0.49000000000000005,-1.2425000000000002,-3.8325000000000005,0.80675,-0.13775,-0.50546875,0.9360625,0.7665625,-0.6125625,-1.3708125,0.88703125,0.01929146954934091,0.03410784538335144,True
42273,103,0,104,3717.0,38774.0,44058.0,-0.00488,0.001281,0.0013419999999999999,0.7000000000000001,-0.805,-3.6575,0.81475,-0.14159375,-0.51175,0.93121875,0.7831875,-0.6195625,-1.38296875,0.8960312500000001,0.019414185365804127,0.034322965078700654,True
42274,104,0,105,3718.0,38773.0,44059.0,-0.0071979999999999995,-0.0017079999999999999,0.0035989999999999998,0.56,-0.7350000000000001,-3.6050000000000004,0.80553125,-0.1388125,-0.50825,0.92975,0.77065625,-0.6134375,-1.37478125,0.8711875,0.01928316595355687,0.03414930916892141,True
42275,105,0,106,3718.0,38773.0,44061.0,-0.00183,-0.001403,0.001464,0.21000000000000002,-1.3825,-3.6225000000000005,0.80875,-0.14034375,-0.51071875,0.93440625,0.7634062500000001,-0.61234375,-1.37909375,0.89071875,0.01917736907928567,0.03421615478291064,True
42276,106,0,107,3719.0,38776.0,44062.0,0.002928,-0.000244,-0.000488,0.24500000000000002,-1.7325000000000002,-3.7100000000000004,0.814125,-0.13828125,-0.50878125,0.9285,0.78590625,-0.62271875,-1.37859375,0.8749687500000001,0.019674411461975537,0.034273471121700747,True
42277,107,0,108,3721.0,38775.0,44056.0,0.005307,0.002379,-0.0028669999999999998,0.36750000000000005,-1.7850000000000001,-3.7800000000000002,0.80759375,-0.13965625,-0.5094375,0.92421875,0.76315625,-0.61184375,-1.3756875,0.8970312500000001,0.019185376959009827,0.03413700614022772,True
42278,108,0,109,3720.0,38776.0,44058.0,0.004209,0.0028669999999999998,-0.0015249999999999999,0.29750000000000004,-1.8025000000000002,-3.7450000000000006,0.80696875,-0.137125,-0.5085625,0.920125,0.7742187500000001,-0.61459375,-1.3741875000000001,0.875125,0.019397791198564877,0.03411439282538604,True
42279,109,0,110,3721.0,38777.0,44057.0,0.001281,-0.000732,0.000244,0.2625,-1.5750000000000002,-3.6925000000000003,0.8068125,-0.1373125,-0.5026875000000001,0.92528125,0.76275,-0.612125,-1.373625,0.87534375,0.01929181247047949,0.03432452004788437,True
42280,110,0,111,3722.0,38776.0,44056.0,-0.002074,-0.0015249999999999999,-0.001098,0.24500000000000002,-1.33,-3.6750000000000003,0.806875,-0.14128125,-0.5110625,0.93615625,0.763125,-0.6118125,-1.3789375,0.8845937500000001,0.01911810639708067,0.0341966640644432,True
42281,111,0,112,3723.0,38776.0,44056.0,-0.0018909999999999999,-0.00042699999999999997,0.0006709999999999999,0.385,-1.4000000000000001,-3.6400000000000006,0.811,-0.13859375000000002,-0.505375,0.93025,0.7879375000000001,-0.61659375,-1.3746875,0.8743125,0.019417796176613593,0.03425904259904679,True
42282,112,0,113,3723.0,38778.0,44058.0,-0.0015249999999999999,0.0018909999999999999,0.00061,0.5425000000000001,-1.33,-3.8150000000000004,0.8133125,-0.140625,-0.50846875,0.9354687500000001,0.7681875,-0.6160625,-1.37621875,0.889875,0.019314116544837338,0.034195401944980476,True
42283,113,0,114,3721.0,38778.0,44058.0,0.00042699999999999997,0.0030499999999999998,0.00061,0.525,-1.4875,-3.7975000000000003,0.80603125,-0.13890625,-0.50821875,0.92890625,0.77359375,-0.61421875,-1.3759375,0.8779375,0.01931048492042836,0.034194549462458285,True
42284,114,0,115,3723.0,38778.0,44059.0,0.000305,0.001647,0.000976,0.29750000000000004,-1.5925000000000002,-3.7275000000000005,0.807,-0.13825,-0.5093125000000001,0.93553125,0.76475,-0.61453125,-1.371,0.887875,0.019349596592459994,0.033963481928185726,True
42285,115,0,116,3723.0,38780.0,44057.0,-0.00042699999999999997,-0.0023179999999999997,-0.001464,0.24500000000000002,-1.8725000000000003,-3.7100000000000004,0.81334375,-0.139625,-0.5110625,0.9350937500000001,0.7771875,-0.6179375,-1.3779375,0.8860625,0.01942943026807181,0.03415860725482518,True
42286,116,0,117,3723.0,38778.0,44055.0,0.000488,-6.1e-05,-0.0013419999999999999,0.385,-1.7850000000000001,-3.7800000000000002,0.8119375,-0.13925,-0.51028125,0.93590625,0.7749375000000001,-0.61709375,-1.3800937500000001,0.887125,0.01941105456447311,0.03427144551032244,True
42287,117,0,118,3724.0,38778.0,44056.0,0.0025009999999999998,0.00244,-0.001098,0.47250000000000003,-1.7850000000000001,-3.8675,0.8120625,-0.1404375,-0.5106875,0.93296875,0.7766875,-0.6184375,-1.37771875,0.8814375,0.019416341918531588,0.03416505866982233,True
42288,118,0,119,3723.0,38777.0,44055.0,0.0040869999999999995,0.0018909999999999999,0.000366,0.5950000000000001,-1.7675,-3.8850000000000002,0.8120937500000001,-0.13971875,-0.5095625,0.934875,0.7672187500000001,-0.61525,-1.3790625,0.8875000000000001,0.019318562679639655,0.034260524792828734,True
42289,119,0,120,3723.0,38777.0,44052.0,0.0028669999999999998,-0.000366,0.0025009999999999998,0.385,-1.6975000000000002,-3.7800000000000002,0.81221875,-0.137625,-0.5025625,0.9254687500000001,0.776375,-0.6174375,-1.37825,0.8854375,0.019490757313794335,0.034505432801710124,True
42290,120,0,121,3724.0,38775.0,44052.0,0.000366,-0.00366,0.000366,0.08750000000000001,-1.5575,-3.7100000000000004,0.806125,-0.1363125,-0.508625,0.929,0.77153125,-0.61371875,-1.37740625,0.8806875000000001,0.019395941541746915,0.03423443835990922,True
42291,121,0,122,3723.0,38776.0,44052.0,0.000122,-0.0032329999999999998,-0.0008539999999999999,0.24500000000000002,-1.4875,-3.6925000000000003,0.80740625,-0.133,-0.50684375,0.9339375,0.76990625,-0.6141875,-1.3775,0.88675,0.019549192919733793,0.034308196236823955,True
42292,122,0,123,3723.0,38778.0,44053.0,-0.0023179999999999997,-0.0013419999999999999,-0.000549,0.525,-1.12,-3.6750000000000003,0.8142812500000001,-0.14009375,-0.50584375,0.9373125,0.77646875,-0.6178750000000001,-1.38059375,0.888625,0.01940789974764272,0.034465308755828455,True
42293,123,0,124,3724.0,38780.0,44055.0,-0.004209,0.0011589999999999999,-0.0006709999999999999,0.7175,-0.8750000000000001,-3.7800000000000002,0.8062812500000001,-0.14065625,-0.507,0.9313750000000001,0.77734375,-0.61609375,-1.3785625000000001,0.88825,0.01931409202566918,0.034342469160733594,True
42294,124,0,125,3724.0,38779.0,44052.0,-0.004575,0.004697,0.000976,0.8225000000000001,-0.8225000000000001,-3.7800000000000002,0.8073125,-0.13778125,-0.50465625,0.9184375,0.77565625,-0.6138750000000001,-1.3766875,0.8803125,0.019342494832690914,0.03436347829085258,True
42295,125,0,126,3724.0,38779.0,44052.0,-0.003172,0.001281,0.0021349999999999997,0.6125,-1.05,-3.7100000000000004,0.80534375,-0.13490625,-0.5078125,0.926875,0.75909375,-0.6139375,-1.3760937500000001,0.8810625,0.019461788671560575,0.034216505446193826,True
42296,126,0,127,3725.0,38780.0,44051.0,-0.001586,0.000244,0.0,0.43750000000000006,-1.54,-3.6575,0.8026562500000001,-0.13684375000000001,-0.5053125,0.925125,0.7694062500000001,-0.61390625,-1.3716875,0.87990625,0.01938182810784046,0.03414731479725185,True
42297,127,0,128,3725.0,38779.0,44050.0,0.0021349999999999997,-0.001464,-0.002196,0.35000000000000003,-2.1700000000000004,-3.7625,0.80303125,-0.1395,-0.50990625,0.93025,0.77009375,-0.61465625,-1.376875,0.88090625,0.019303793852493877,0.03416373174395981,True
42298,128,0,129,3723.0,38777.0,44051.0,0.00366,-0.002074,-0.003294,0.2625,-2.3975000000000004,-3.7275000000000005,0.8133125,-0.1386875,-0.51284375,0.94125,0.7681875,-0.60909375,-1.377625,0.87934375,0.019115139093653134,0.034076524103417875,True
42299,129,0,130,3723.0,38777.0,44049.0,0.0050019999999999995,-0.001281,-0.003172,0.24500000000000002,-2.31,-3.8150000000000004,0.820875,-0.1419375,-0.512375,0.93309375,0.7636875,-0.6161875,-1.3799062500000001,0.8824062500000001,0.019265777854511387,0.03418181459988648,True
42300,130,0,131,3723.0,38776.0,44050.0,0.0028669999999999998,0.000976,0.001403,0.385,-2.0475000000000003,-3.7450000000000006,0.8076875,-0.13934375000000002,-0.5074062500000001,0.927,0.7698125,-0.61446875,-1.3763750000000001,0.88028125,0.019302671320095017,0.03424321834777426,True
42301,131,0,132,3722.0,38775.0,44051.0,0.000244,0.000122,0.0025009999999999998,0.45500000000000007,-1.8200000000000003,-3.7800000000000002,0.80434375,-0.137375,-0.5076875,0.92721875,0.7685,-0.6129375,-1.3760937500000001,0.88015625,0.01932164740596282,0.03422143134224511,True
42302,132,0,133,3723.0,38773.0,44049.0,-0.0011589999999999999,-0.00061,0.00122,0.42000000000000004,-1.8025000000000002,-3.7975000000000003,0.8115625,-0.13984375000000002,-0.50865625,0.92725,0.7695,-0.6139375,-1.377125,0.880375,0.01926119094110806,0.034222503534186786,True
42303,133,0,134,3723.0,38776.0,44050.0,-0.001952,-0.001403,0.001281,0.385,-1.6800000000000002,-3.8325000000000005,0.7937500000000001,-0.1374375,-0.506375,0.92615625,0.77046875,-0.61390625,-1.37675,0.8810625,0.01935770556532448,0.034298127222753105,True
42304,134,0,135,3722.0,38775.0,44049.0,-0.003172,-0.001769,0.000549,0.24500000000000002,-1.4525000000000001,-3.7450000000000006,0.80025,-0.13728125,-0.506,0.92528125,0.7691875,-0.61471875,-1.37784375,0.88446875,0.01939642312589901,0.03435452430823639,True
42305,135,0,136,3723.0,38777.0,44052.0,-0.002806,0.000915,-0.0008539999999999999,0.45500000000000007,-1.54,-3.7275000000000005,0.802875,-0.13721875,-0.5081875,0.93315625,0.7591875,-0.61515625,-1.3760625,0.880625,0.01941639107003434,0.03420053840110143,True
42306,136,0,137,3722.0,38777.0,44052.0,-0.000793,0.0023179999999999997,-0.0017079999999999999,0.56,-1.6275000000000002,-3.7100000000000004,0.810625,-0.13909375000000002,-0.51115625,0.9340937500000001,0.769625,-0.614375,-1.3765625000000001,0.884125,0.01930909275575756,0.034102579890400844,True
42307,137,0,138,3723.0,38774.0,44053.0,0.00122,0.000915,-0.000549,0.47250000000000003,-1.715,-3.6225000000000005,0.80975,-0.1384375,-0.50728125,0.9274687500000001,0.7743125000000001,-0.61575,-1.37703125,0.88028125,0.019390532484283438,0.03427311853115206,True
42308,138,0,139,3722.0,38774.0,44051.0,0.002989,0.000488,0.0017079999999999999,0.24500000000000002,-1.8550000000000002,-3.7100000000000004,0.8063750000000001,-0.13046875,-0.509125,0.9296562500000001,0.77071875,-0.61425,-1.37734375,0.8806875000000001,0.019654519231745837,0.03421235723301419,True
42309,139,0,140,3721.0,38773.0,44053.0,0.0048189999999999995,-0.000793,0.001403,0.17500000000000002,-1.9600000000000002,-3.7625,0.8023750000000001,-0.13809375000000002,-0.50771875,0.9291875,0.76971875,-0.6144375,-1.37678125,0.8808125,0.019352209450246422,0.034246364479340735,True
42310,140,0,141,3720.0,38774.0,44049.0,0.002562,-0.002806,-0.001037,0.08750000000000001,-1.6975000000000002,-3.6575,0.80578125,-0.137375,-0.50803125,0.9299375,0.7695625,-0.61559375,-1.37746875,0.8813125,0.019427471661129445,0.034260213599908385,True
42311,141,0,142,3723.0,38774.0,44049.0,0.000183,-0.000122,-0.00122,0.22750000000000004,-1.3825,-3.7450000000000006,0.80634375,-0.13778125,-0.508375,0.92996875,0.7692187500000001,-0.61515625,-1.3768125,0.87684375,0.019393539295530574,0.03422169352435417,True
42312,142,0,143,3721.0,38775.0,44052.0,-0.005063,0.002745,-0.002257,0.5425000000000001,-1.0150000000000001,-3.9375000000000004,0.80790625,-0.13909375000000002,-0.50896875,0.93415625,0.76128125,-0.6106875,-1.373625,0.87953125,0.019162152621701446,0.03407696968801265,True
42313,143,0,144,3723.0,38777.0,44053.0,-0.005978,0.003843,-0.002257,0.7525000000000001,-0.7875000000000001,-3.8500000000000005,0.81453125,-0.13975,-0.51134375,0.93471875,0.7750625,-0.6167812500000001,-1.3796875,0.8903125000000001,0.01937829504009587,0.03421412300683371,True
42314,144,0,145,3722.0,38777.0,44055.0,-0.006588,0.0032329999999999998,-0.000183,0.5950000000000001,-1.0150000000000001,-3.7625,0.81246875,-0.13990625,-0.5111875,0.9346875,0.78090625,-0.6204375,-1.38696875,0.90053125,0.019517575591416682,0.034497275299950884,True
42315,145,0,146,3722.0,38777.0,44056.0,0.0,0.0008539999999999999,0.001098,0.3325,-2.0475000000000003,-3.9025000000000003,0.808,-0.133375,-0.509125,0.92925,0.791875,-0.622,-1.37715625,0.8788125,0.0198450572658598,0.03420522147748529,True
42316,146,0,147,3722.0,38776.0,44055.0,0.003538,-0.0008539999999999999,0.001769,0.15750000000000003,-2.5025000000000004,-3.8325000000000005,0.8068125,-0.138625,-0.5089375,0.92909375,0.76790625,-0.61690625,-1.3768125,0.872625,0.01942897475185372,0.03419952761994833,True
42317,147,0,148,3724.0,38774.0,44053.0,0.005856,-0.001952,0.001098,-0.0175,-2.7300000000000004,-3.8150000000000004,0.7973125,-0.1380625,-0.50803125,0.92925,0.7595625,-0.6130625000000001,-1.3725625000000001,0.8698125,0.01929869556053823,0.034073470111660974,True
42318,148,0,149,3723.0,38774.0,44053.0,0.0053679999999999995,-0.003965,-0.001098,-0.08750000000000001,-2.765,-3.8150000000000004,0.7941875,-0.13771875,-0.50871875,0.93215625,0.7575625,-0.610625,-1.37165625,0.86165625,0.01921553190949031,0.03401187102241305,True
42319,149,0,150,3722.0,38774.0,44055.0,0.0037819999999999998,-0.003172,0.000793,0.0,-2.5375,-3.7625,0.81453125,-0.1410625,-0.50746875,0.92925,0.769625,-0.61615625,-1.37540625,0.8845000000000001,0.019300078581521028,0.03420388589837847,True
42320,150,0,151,3723.0,38774.0,44055.0,0.001464,0.000915,0.001281,0.35000000000000003,-1.6800000000000002,-3.7975000000000003,0.8063125,-0.13796875,-0.51059375,0.93484375,0.7585937500000001,-0.60875,-1.3796875,0.90346875,0.019130644587799055,0.034243674198116116,True
42321,151,0,152,3723.0,38774.0,44055.0,-0.00042699999999999997,0.0021349999999999997,0.000366,0.5075000000000001,-1.3125000000000002,-3.7800000000000002,0.79784375,-0.137625,-0.5085000000000001,0.9292812500000001,0.78946875,-0.6176875000000001,-1.3760625,0.87921875,0.019500714679232162,0.03418822364580793,True
42322,152,0,153,3724.0,38774.0,44055.0,-0.002623,0.002257,-0.00122,0.6125,-1.05,-3.7100000000000004,0.80253125,-0.1370625,-0.5080625,0.92921875,0.7605937500000001,-0.6110625000000001,-1.3719375,0.8699375,0.01925963172049155,0.03404844427036761,True
42323,153,0,154,3724.0,38774.0,44054.0,-0.003965,0.0023179999999999997,-0.001464,0.5075000000000001,-0.9800000000000001,-3.7100000000000004,0.80371875,-0.1380625,-0.5079375,0.9295,0.75728125,-0.6109375,-1.3703125,0.8743125,0.0192140181575773,0.03399150089302211,True
42324,154,0,155,3724.0,38773.0,44055.0,-0.0035989999999999998,0.0013419999999999999,-0.00061,0.5075000000000001,-1.05,-3.7625,0.806875,-0.13771875,-0.50853125,0.934625,0.76446875,-0.61546875,-1.37671875,0.88515625,0.019408527412259822,0.0342119684011551,True
42325,155,0,156,3725.0,38773.0,44059.0,-0.0015249999999999999,0.0025009999999999998,0.00122,0.43750000000000006,-1.2425000000000002,-3.8500000000000005,0.81121875,-0.13753125,-0.5114062500000001,0.9348125,0.7771250000000001,-0.617625,-1.38084375,0.88121875,0.019502033603972763,0.03425565787189403,True
42326,156,0,157,3726.0,38775.0,44059.0,-0.0008539999999999999,0.0008539999999999999,0.001098,0.385,-1.5925000000000002,-3.7800000000000002,0.81290625,-0.14084375,-0.5114062500000001,0.93403125,0.76953125,-0.61125,-1.372875,0.88396875,0.01911346437096856,0.03395235068946661,True
42327,157,0,158,3724.0,38775.0,44060.0,0.000976,-0.00122,0.00061,0.2625,-1.8550000000000002,-3.7100000000000004,0.8063125,-0.138375,-0.5023125,0.92890625,0.77540625,-0.61565625,-1.37759375,0.880625,0.01938933681688864,0.03449031687647691,True
42328,158,0,159,3725.0,38774.0,44059.0,0.002989,-0.0034159999999999998,-0.000793,0.15750000000000003,-2.0300000000000002,-3.6750000000000003,0.80634375,-0.13815625,-0.5084062500000001,0.92925,0.7575625,-0.6098125,-1.3716875,0.88065625,0.019165373567961965,0.03402537769708853,True
42329,159,0,160,3724.0,38774.0,44059.0,0.003477,-0.00244,-0.00122,0.12250000000000001,-2.0475000000000003,-3.7100000000000004,0.80678125,-0.13796875,-0.50890625,0.9295,0.769625,-0.6148750000000001,-1.3769375,0.88028125,0.01937471752344873,0.034205516327571045,True
42330,160,0,161,3724.0,38774.0,44059.0,-0.00042699999999999997,-0.001464,-0.000976,0.22750000000000004,-1.8200000000000003,-3.7975000000000003,0.8065625000000001,-0.13828125,-0.50834375,0.92978125,0.7685625,-0.61390625,-1.376875,0.8804062500000001,0.01932342616280177,0.034225303548998845,True
42331,161,0,162,3726.0,38775.0,44059.0,-0.0008539999999999999,0.0,6.1e-05,0.42000000000000004,-1.5050000000000001,-3.8150000000000004,0.807125,-0.1385,-0.503875,0.92915625,0.77028125,-0.61459375,-1.3765,0.8805937500000001,0.01934193002880659,0.03438712982483794,True
42332,162,0,163,3726.0,38776.0,44061.0,-0.003111,0.002013,0.001464,0.6300000000000001,-1.3125000000000002,-3.8850000000000002,0.80709375,-0.1385625,-0.507625,0.9295,0.7691875,-0.61453125,-1.37621875,0.88225,0.019336900839824034,0.034228651579542364,True
42333,163,0,164,3726.0,38780.0,44065.0,-0.002928,0.003111,0.002562,0.7350000000000001,-1.12,-3.9025000000000003,0.8070625,-0.137625,-0.50796875,0.9293750000000001,0.76465625,-0.61621875,-1.3790625,0.8809375,0.019442212260971235,0.03432332262076269,True
42334,164,0,165,3727.0,38779.0,44066.0,-0.0008539999999999999,0.0017079999999999999,0.000915,0.5075000000000001,-1.7325000000000002,-3.8675,0.8066875,-0.13778125,-0.50765625,0.92940625,0.77409375,-0.614625,-1.3769375,0.87434375,0.0193723751631398,0.034254773650287784,True
42335,165,0,166,3726.0,38780.0,44067.0,0.0006709999999999999,0.000976,0.0008539999999999999,0.35000000000000003,-1.8025000000000002,-3.9200000000000004,0.8072812500000001,-0.13759375000000001,-0.5073125,0.92490625,0.76978125,-0.61409375,-1.3762812500000001,0.88109375,0.01935882770414816,0.03424334485574004,True
42336,166,0,167,3726.0,38776.0,44066.0,0.002074,-0.000122,-0.000732,0.28,-1.9075000000000002,-3.9375000000000004,0.8046875,-0.13696875,-0.50896875,0.9426875,0.76896875,-0.61384375,-1.37659375,0.88128125,0.019374259658246188,0.03418997082695545,True
42337,167,0,168,3729.0,38777.0,44065.0,0.0023179999999999997,-0.0018909999999999999,-0.000549,0.17500000000000002,-1.9425000000000001,-3.9375000000000004,0.82128125,-0.14621875,-0.5130625,0.9412812500000001,0.76965625,-0.61415625,-1.3764687500000001,0.88025,0.01901090962644718,0.034023892705717776,True
42338,168,0,169,3727.0,38777.0,44063.0,0.001281,-0.0035989999999999998,-0.0008539999999999999,0.24500000000000002,-1.8725000000000003,-3.7975000000000003,0.8208125000000001,-0.14428125,-0.514375,0.9395,0.76709375,-0.61528125,-1.3725625000000001,0.87375,0.019134455349763674,0.03382344609457559,True
42339,169,0,170,3729.0,38780.0,44068.0,-0.0006709999999999999,-0.001098,-0.000488,0.385,-1.7325000000000002,-3.9200000000000004,0.814625,-0.14209375,-0.50865625,0.9394687500000001,0.77696875,-0.6175625,-1.3661875,0.88428125,0.019314209113920195,0.03380607550898219,True
42340,170,0,171,3730.0,38778.0,44068.0,-0.00061,0.000915,6.1e-05,0.5075000000000001,-1.5925000000000002,-3.9025000000000003,0.81496875,-0.1314375,-0.50509375,0.922875,0.77671875,-0.61671875,-1.37821875,0.88715625,0.019713482325909092,0.034404502877098106,True
42341,171,0,172,3730.0,38779.0,44070.0,-0.000122,0.002257,0.001586,0.5950000000000001,-1.4875,-3.99,0.799875,-0.1360625,-0.5059375,0.9236562500000001,0.7696875,-0.6138125,-1.37696875,0.8801875,0.019409833401469196,0.03432369163476233,True
42342,172,0,173,3730.0,38779.0,44071.0,-0.0017079999999999999,0.003111,0.002806,0.5075000000000001,-1.5750000000000002,-3.9550000000000005,0.79690625,-0.136125,-0.50625,0.9206562500000001,0.7699375,-0.61440625,-1.377875,0.8849375,0.01943094808553426,0.03434586229146452,True
42343,173,0,174,3729.0,38779.0,44069.0,0.000122,-0.000305,0.002379,0.31500000000000006,-1.6450000000000002,-3.9200000000000004,0.79934375,-0.13528125,-0.50665625,0.92740625,0.772875,-0.6133125,-1.37578125,0.88103125,0.0194216544400515,0.03425017702656938,True
42344,174,0,175,3731.0,38781.0,44069.0,0.001037,-0.000244,-0.0017079999999999999,0.15750000000000003,-1.6800000000000002,-3.99,0.81021875,-0.1450625,-0.51559375,0.9333125,0.769625,-0.61359375,-1.37796875,0.880875,0.01903546693582688,0.033981246036485876,True
42345,175,0,176,3731.0,38781.0,44071.0,0.001464,-0.000122,-0.000793,0.29750000000000004,-1.6275000000000002,-3.8325000000000005,0.81884375,-0.13921875,-0.4988125,0.92953125,0.77190625,-0.6181875,-1.37971875,0.8856875000000001,0.019455890081266136,0.034709062723557574,True
42346,176,0,177,3730.0,38780.0,44073.0,0.000366,0.000732,-0.002379,0.28,-1.5925000000000002,-3.8150000000000004,0.79609375,-0.13568750000000002,-0.5085625,0.929875,0.774875,-0.6176875000000001,-1.3799375,0.8881875,0.01957941825364385,0.03433322087574093,True
42347,177,0,178,3732.0,38780.0,44073.0,-0.001037,0.000244,-0.0011589999999999999,0.3325,-1.3125000000000002,-3.8150000000000004,0.8092812500000001,-0.13903125,-0.5066875,0.9313750000000001,0.77571875,-0.61575,-1.377625,0.88865625,0.019366411748575608,0.0343191098457795,True
42348,178,0,179,3734.0,38781.0,44075.0,-0.00061,0.000183,0.000732,0.31500000000000006,-1.2950000000000002,-3.7625,0.79803125,-0.1380625,-0.5066875,0.93159375,0.7770312500000001,-0.61625,-1.37721875,0.8894062500000001,0.01942568425328797,0.034303650789155135,True
42349,179,0,180,3732.0,38784.0,44078.0,-0.002196,-0.001281,-0.000305,0.4025,-1.5050000000000001,-3.8150000000000004,0.81353125,-0.14,-0.5005937500000001,0.93784375,0.7764375,-0.61659375,-1.38078125,0.8865625,0.019360670076460113,0.034679291048221775,True
42350,180,0,181,3732.0,38785.0,44079.0,-0.00042699999999999997,0.000549,-0.0011589999999999999,0.31500000000000006,-1.6975000000000002,-3.9550000000000005,0.81303125,-0.134625,-0.51103125,0.9335,0.776875,-0.61771875,-1.380625,0.88784375,0.019623822780085988,0.034262109384619176,True
42351,181,0,182,3734.0,38785.0,44078.0,0.000732,0.001281,0.000122,0.4025,-1.8200000000000003,-3.8325000000000005,0.80840625,-0.140625,-0.51078125,0.9354375,0.772,-0.617125,-1.3780625,0.88696875,0.01935644393892463,0.03417444692635618,True
42352,182,0,183,3735.0,38785.0,44080.0,0.001586,0.000915,0.003111,0.31500000000000006,-1.6450000000000002,-3.8325000000000005,0.812125,-0.13978125,-0.51065625,0.9365625,0.776625,-0.61775,-1.3803125,0.887,0.019415614749520166,0.034264993782089956,True
42353,183,0,184,3734.0,38783.0,44080.0,0.00122,-0.000488,0.002196,0.3325,-1.6450000000000002,-3.9550000000000005,0.81453125,-0.14040625,-0.50925,0.9346875,0.77759375,-0.61584375,-1.3727500000000001,0.8855937500000001,0.019314288180757568,0.03403257431693451,True
42354,184,0,185,3735.0,38784.0,44081.0,0.0015249999999999999,-0.00183,-0.002257,0.28,-1.8900000000000001,-3.7975000000000003,0.8123125,-0.1395625,-0.5081875,0.928875,0.76965625,-0.61646875,-1.3804375,0.88175,0.019373463141418284,0.034367019875051405,True
42355,185,0,186,3735.0,38787.0,44083.0,0.001098,-0.000305,-0.0028669999999999998,0.29750000000000004,-1.8375000000000001,-3.6400000000000006,0.8000625,-0.13765625,-0.5055000000000001,0.92940625,0.77053125,-0.61475,-1.3760625,0.88175,0.01938243329710844,0.03430644529662551,True
42356,186,0,187,3739.0,38788.0,44085.0,0.000793,0.0017079999999999999,-0.0015249999999999999,0.4025,-1.6975000000000002,-3.7450000000000006,0.8069375,-0.13753125,-0.507125,0.92959375,0.771625,-0.6161875,-1.3795625,0.886375,0.019444775922347845,0.0343755925658687,True
42357,187,0,188,3738.0,38785.0,44086.0,-0.000305,0.001464,-0.000488,0.525,-1.5050000000000001,-3.9375000000000004,0.808625,-0.1373125,-0.508,0.92853125,0.77753125,-0.616625,-1.37728125,0.88684375,0.019471089152148194,0.034254309649501956,True
42358,188,0,189,3738.0,38786.0,44085.0,-0.000732,0.0008539999999999999,0.001647,0.5075000000000001,-1.4000000000000001,-3.7450000000000006,0.798625,-0.13728125,-0.508,0.9294375,0.7753125000000001,-0.61675,-1.3800937500000001,0.8755000000000001,0.01947733758518082,0.03436132894505167,True
42359,189,0,190,3738.0,38787.0,44091.0,-0.002379,-0.001769,0.0015249999999999999,0.35000000000000003,-1.4000000000000001,-3.8325000000000005,0.79996875,-0.13859375000000002,-0.50859375,0.92825,0.77225,-0.6091562500000001,-1.37584375,0.88390625,0.019121439809623705,0.03417620350062252,True
42360,190,0,191,3739.0,38788.0,44094.0,-0.002257,0.000122,0.0008539999999999999,0.29750000000000004,-1.4875,-3.9200000000000004,0.806875,-0.13790625,-0.50790625,0.9316875,0.771375,-0.61375,-1.37728125,0.88675,0.019332436138337312,0.034258003898664284,True
42361,191,0,192,3739.0,38790.0,44091.0,-0.000976,0.000549,0.000366,0.42000000000000004,-1.6450000000000002,-3.99,0.80725,-0.13803125,-0.50834375,0.9291875,0.77596875,-0.61671875,-1.37734375,0.88578125,0.019445625749776256,0.03424314256688114,True
42362,192,0,193,3739.0,38789.0,44093.0,0.000793,0.002013,0.000793,0.49000000000000005,-1.6800000000000002,-3.8325000000000005,0.8072812500000001,-0.13759375000000001,-0.50325,0.93540625,0.77390625,-0.6175,-1.3766875,0.8874375,0.01949451609627298,0.034418893324828156,True
42363,193,0,194,3741.0,38790.0,44090.0,0.001586,0.002013,-0.000549,0.4025,-1.7325000000000002,-3.7975000000000003,0.81478125,-0.1396875,-0.5124375,0.9290625,0.7775625,-0.61753125,-1.372125,0.8814375,0.019410709593391907,0.03388314932233701,True
42364,194,0,195,3741.0,38790.0,44094.0,0.002928,-0.001281,-0.000976,0.1925,-1.8550000000000002,-3.8325000000000005,0.80684375,-0.1379375,-0.50778125,0.92903125,0.76975,-0.61434375,-1.3768125,0.880125,0.019354822327936328,0.03424509086789367,True
42365,195,0,196,3743.0,38791.0,44094.0,0.0023179999999999997,-0.001403,-0.001037,0.17500000000000002,-1.6800000000000002,-3.9200000000000004,0.80703125,-0.13865625,-0.5078125,0.92915625,0.76946875,-0.6141875,-1.3764687500000001,0.8806875000000001,0.019319396587841868,0.034230777282595715,True
42366,196,0,197,3742.0,38791.0,44093.0,0.000976,0.000183,0.000488,0.3325,-1.4175000000000002,-3.9200000000000004,0.8070625,-0.13418750000000002,-0.5079375,0.9274375,0.7695,-0.61365625,-1.3768125,0.88128125,0.01947978573886194,0.03423893367222538,True
42367,197,0,198,3742.0,38791.0,44094.0,-0.0011589999999999999,-0.000793,-0.000366,0.42000000000000004,-1.1900000000000002,-3.8500000000000005,0.80590625,-0.13771875,-0.51021875,0.93359375,0.7698125,-0.6161875,-1.37203125,0.88578125,0.019437158983290976,0.03396702816216183,True
42368,198,0,199,3744.0,38791.0,44096.0,-0.003843,-0.000366,-0.0008539999999999999,0.45500000000000007,-1.0325000000000002,-3.7100000000000004,0.8101875000000001,-0.13834375000000002,-0.5091875,0.9316875,0.77484375,-0.61521875,-1.3803125,0.8878125,0.019373177416918144,0.03432286343992022,True
42369,199,0,200,3743.0,38794.0,44098.0,-0.0044529999999999995,-0.001952,0.000183,0.45500000000000007,-1.2075,-3.7800000000000002,0.8105625,-0.13765625,-0.50803125,0.92896875,0.77615625,-0.61609375,-1.37815625,0.8855000000000001,0.019435963514722963,0.034286375709425304,True
42370,200,0,201,3745.0,38795.0,44101.0,-0.0037819999999999998,-0.00122,0.00061,0.45500000000000007,-1.4700000000000002,-3.7800000000000002,0.8064687500000001,-0.1379375,-0.50709375,0.92984375,0.767375,-0.6145,-1.3763750000000001,0.88075,0.01936104735013915,0.03425553295141643,True
42371,201,0,202,3746.0,38794.0,44103.0,-0.000488,0.000366,0.000305,0.45500000000000007,-1.7675,-3.7800000000000002,0.806625,-0.13296875,-0.50765625,0.9225,0.76653125,-0.61409375,-1.3746875,0.8715937500000001,0.0195467281829135,0.03416914001403958,True
42372,202,0,203,3746.0,38795.0,44103.0,0.0021349999999999997,0.001769,0.000244,0.49000000000000005,-2.0125,-3.8150000000000004,0.80659375,-0.13746875,-0.5091875,0.934,0.7690625,-0.615125,-1.3766562500000001,0.89371875,0.01940498981825199,0.03418372938712129,True
42373,203,0,204,3746.0,38794.0,44103.0,0.0046359999999999995,0.001952,0.000183,0.35000000000000003,-2.3625000000000003,-3.8500000000000005,0.80634375,-0.136625,-0.50825,0.9296875,0.78409375,-0.61359375,-1.37509375,0.87771875,0.01937826531324789,0.034161203837916855,True
42374,204,0,205,3747.0,38794.0,44106.0,0.00671,0.001647,-0.000122,0.17500000000000002,-2.2925000000000004,-3.6400000000000006,0.8063125,-0.1390625,-0.51121875,0.93671875,0.7639375,-0.61384375,-1.377875,0.8903125000000001,0.019289195739694252,0.034150071666756966,True
42375,205,0,206,3750.0,38793.0,44103.0,0.004392,0.001403,0.001952,0.3325,-1.8550000000000002,-3.8325000000000005,0.81415625,-0.14309375,-0.50828125,0.92915625,0.7761875,-0.6190625,-1.38003125,0.88715625,0.019333341795610616,0.034347869449530326,True
42376,206,0,207,3749.0,38795.0,44105.0,0.001647,-0.00042699999999999997,0.002196,0.21000000000000002,-1.4525000000000001,-3.9375000000000004,0.795875,-0.139375,-0.51103125,0.9435625,0.765125,-0.61315625,-1.37453125,0.87753125,0.01924910585167231,0.03403018528667401,True
42377,207,0,208,3749.0,38797.0,44106.0,-0.004758,-0.0046359999999999995,0.000915,0.14,-1.12,-3.7450000000000006,0.8416250000000001,-0.14003125,-0.50003125,0.9207500000000001,0.76825,-0.62103125,-1.3820000000000001,0.88134375,0.019536143515515827,0.034747803561579076,True
42378,208,0,209,3750.0,38797.0,44111.0,-0.008905999999999999,-0.005795,6.1e-05,0.31500000000000006,-0.805,-3.6575,0.80615625,-0.151,-0.51553125,0.94640625,0.7652187500000001,-0.60753125,-1.3765625000000001,0.88028125,0.018552501076271107,0.03393017671325658,True
42379,209,0,210,3750.0,38799.0,44110.0,-0.008723,6.1e-05,-0.0018909999999999999,0.7000000000000001,-0.9625000000000001,-3.6925000000000003,0.82725,-0.14503125,-0.50003125,0.93359375,0.7740312500000001,-0.6164375,-1.38196875,0.89446875,0.01915005979236435,0.0347466151537201,True
42380,210,0,211,3751.0,38800.0,44115.0,-0.0037819999999999998,0.002562,-0.001952,0.49000000000000005,-1.3825,-3.8500000000000005,0.797875,-0.13393750000000001,-0.50475,0.92934375,0.77315625,-0.6163125,-1.37390625,0.87740625,0.019595745707241895,0.03425393951709741,True
42381,211,0,212,3751.0,38801.0,44115.0,0.003172,0.00244,-0.000122,0.36750000000000005,-1.9775000000000003,-3.8500000000000005,0.8165625,-0.14990625,-0.50990625,0.923875,0.75434375,-0.605875,-1.3729375,0.893,0.018530889472534506,0.03401384841625058,True
42382,212,0,213,3752.0,38801.0,44112.0,0.0071979999999999995,0.004331,-6.1e-05,0.43750000000000006,-2.4325,-3.8150000000000004,0.7939375,-0.13525,-0.5105000000000001,0.93540625,0.77853125,-0.61690625,-1.3744687500000001,0.87709375,0.019566075651768794,0.034048742399779314,True
42383,213,0,214,3753.0,38799.0,44112.0,0.012383,0.005429,-0.001281,0.3325,-2.6950000000000003,-3.7975000000000003,0.8269062500000001,-0.1430625,-0.49793750000000003,0.918625,0.76646875,-0.62071875,-1.3781875000000001,0.88728125,0.01940058106548981,0.03468529815220256,True
42384,214,0,215,3755.0,38798.0,44111.0,0.00915,0.002562,-0.004209,0.24500000000000002,-2.2750000000000004,-3.8500000000000005,0.79396875,-0.13025,-0.50628125,0.9275625000000001,0.77153125,-0.6140625000000001,-1.37478125,0.87909375,0.01965593855138704,0.03422689604467034,True
42385,215,0,216,3755.0,38799.0,44112.0,0.000793,-0.001769,-0.003538,0.15750000000000003,-1.7325000000000002,-3.7975000000000003,0.81225,-0.144875,-0.510625,0.9470937500000001,0.76728125,-0.6098750000000001,-1.37584375,0.8810625,0.018894854199787692,0.03409615690118678,True
42386,216,0,217,3756.0,38799.0,44114.0,-0.006771,-0.007808,-0.000244,0.14,-1.1375000000000002,-3.6925000000000003,0.81821875,-0.1404375,-0.50990625,0.92796875,0.77528125,-0.6168750000000001,-1.37834375,0.879375,0.01935410160712926,0.03421962869424842,True
42387,217,0,218,3756.0,38800.0,44116.0,-0.011101999999999999,-0.008296,0.004758,0.10500000000000001,-0.5775,-3.6400000000000006,0.7959375,-0.13371875,-0.5014375,0.91853125,0.774625,-0.6168125,-1.3786875,0.88690625,0.019624545216810663,0.034566405374588424,True
42388,218,0,219,3757.0,38802.0,44119.0,-0.008601,-0.004697,0.005612,0.15750000000000003,-0.7175,-3.6750000000000003,0.79428125,-0.1398125,-0.51046875,0.930125,0.7675625,-0.61384375,-1.3760625,0.88684375,0.019258725082302516,0.0341106406874589,True
42389,219,0,220,3757.0,38802.0,44120.0,-0.005124,-0.000183,0.0006709999999999999,0.43750000000000006,-1.2775,-3.7100000000000004,0.7976562500000001,-0.138125,-0.50515625,0.92734375,0.77690625,-0.61415625,-1.37584375,0.8806875000000001,0.019339734629335505,0.03431166697659068,True
42390,220,0,221,3757.0,38802.0,44118.0,0.000793,0.0026839999999999998,-0.002989,0.4025,-1.6800000000000002,-3.6925000000000003,0.80621875,-0.13859375000000002,-0.5094062500000001,0.93403125,0.76903125,-0.61490625,-1.37728125,0.886375,0.01935057136364271,0.03419889591206702,True
42391,221,0,222,3756.0,38803.0,44117.0,0.0051849999999999995,0.0068319999999999995,-0.0040869999999999995,0.49000000000000005,-1.9250000000000003,-3.6750000000000003,0.810875,-0.13665625,-0.511875,0.93684375,0.77,-0.61440625,-1.3773125,0.88909375,0.019409365196448723,0.034102803439095455,True
42392,222,0,223,3758.0,38800.0,44110.0,0.009271999999999999,0.008662,-0.003538,0.5075000000000001,-2.0650000000000004,-3.7100000000000004,0.8123750000000001,-0.1405,-0.50265625,0.92790625,0.7745,-0.61290625,-1.37715625,0.880125,0.01919343637040018,0.03446012592526005,True
42393,223,0,224,3757.0,38801.0,44110.0,0.0051849999999999995,0.003355,-0.000976,0.29750000000000004,-1.9775000000000003,-3.7275000000000005,0.805625,-0.13775,-0.50846875,0.9344687500000001,0.7695625,-0.6138750000000001,-1.37621875,0.8808125,0.01934376444180366,0.034195401944980476,True
42394,224,0,225,3758.0,38801.0,44108.0,0.0021349999999999997,-0.000244,-0.001037,0.1925,-1.9250000000000003,-3.7450000000000006,0.8103750000000001,-0.13915625,-0.50696875,0.9244375,0.77528125,-0.61625,-1.37925,0.87290625,0.019381252221601582,0.034369859235399,True
42395,225,0,226,3758.0,38802.0,44110.0,0.000183,-0.0050019999999999995,6.1e-05,0.08750000000000001,-1.8200000000000003,-3.7800000000000002,0.80603125,-0.14215625,-0.5109375,0.9304687500000001,0.7638125,-0.61490625,-1.379625,0.889125,0.01920584198853083,0.034227751592074356,True
42396,226,0,227,3758.0,38801.0,44110.0,-0.003477,-0.006527,0.000549,0.08750000000000001,-1.6975000000000002,-3.7975000000000003,0.81,-0.137875,-0.507125,0.9289375,0.7713125000000001,-0.6139375,-1.37603125,0.8808125,0.01934117611211128,0.034241219260793584,True
42397,227,0,228,3758.0,38802.0,44108.0,-0.0040869999999999995,-0.004697,0.0018909999999999999,0.14,-1.3825,-3.8675,0.8055,-0.1391875,-0.504375,0.93521875,0.7686875,-0.615,-1.3775,0.88165625,0.01933018484663823,0.034405477292877545,True
42398,228,0,229,3757.0,38804.0,44110.0,-0.004758,0.000183,0.0017079999999999999,0.6300000000000001,-1.33,-3.7975000000000003,0.81303125,-0.13971875,-0.50909375,0.92871875,0.76565625,-0.61615625,-1.379375,0.88109375,0.019354666714061015,0.03429088580786564,True
42399,229,0,230,3757.0,38802.0,44106.0,-0.0030499999999999998,0.001952,0.0008539999999999999,0.6475000000000001,-1.4000000000000001,-3.7100000000000004,0.80440625,-0.13946875,-0.51125,0.9345625000000001,0.76928125,-0.615125,-1.380125,0.88771875,0.01932373896130936,0.03423446496027896,True
42400,230,0,231,3756.0,38804.0,44106.0,-0.001098,0.0025009999999999998,-0.000122,0.45500000000000007,-1.6975000000000002,-3.7450000000000006,0.8063750000000001,-0.13534375,-0.5065625,0.92953125,0.77384375,-0.614,-1.3763125,0.88190625,0.019446504022101244,0.03427408927124459,True
42401,231,0,232,3756.0,38802.0,44106.0,0.002196,0.002013,-0.001769,0.47250000000000003,-1.9775000000000003,-3.9025000000000003,0.8133125,-0.14040625,-0.50703125,0.92934375,0.77334375,-0.61340625,-1.37634375,0.8799375,0.01921716950493189,0.03425680659768017,True
42402,232,0,233,3756.0,38802.0,44105.0,0.0062829999999999995,0.0028669999999999998,-0.000915,0.29750000000000004,-2.2575000000000003,-3.8500000000000005,0.80675,-0.13959375000000002,-0.5103125000000001,0.93703125,0.767875,-0.61471875,-1.379,0.8873125000000001,0.019302475272036164,0.03422859450726978,True
42403,233,0,234,3755.0,38800.0,44101.0,0.006161,-0.0006709999999999999,-0.0015249999999999999,0.14,-2.1350000000000002,-3.6225000000000005,0.814125,-0.14034375,-0.50675,0.9290625,0.7746875,-0.61553125,-1.37834375,0.88034375,0.01930437719072181,0.03434399654232755,True
42404,234,0,235,3756.0,38797.0,44099.0,0.00488,0.000976,-0.0008539999999999999,0.24500000000000002,-1.7675,-3.6225000000000005,0.80590625,-0.13753125,-0.5124062500000001,0.93640625,0.76884375,-0.6135625,-1.375875,0.88534375,0.019340201159421762,0.03402715177309156,True
42405,235,0,236,3755.0,38797.0,44097.0,0.000793,0.000122,-0.00042699999999999997,0.525,-1.3475000000000001,-3.7100000000000004,0.80903125,-0.13790625,-0.50728125,0.9175625000000001,0.77328125,-0.61346875,-1.3759375,0.88071875,0.01932123037310619,0.03423149391032351,True
42406,236,0,237,3754.0,38799.0,44100.0,-0.005063,-0.00042699999999999997,0.0008539999999999999,0.5075000000000001,-0.9800000000000001,-3.6925000000000003,0.809125,-0.138625,-0.5104375,0.9293125,0.768875,-0.6168750000000001,-1.3742812500000001,0.88365625,0.01942772996166248,0.03404406775068752,True
42407,237,0,238,3753.0,38797.0,44098.0,-0.008296,-0.002379,0.00244,0.4025,-0.805,-3.6750000000000003,0.79996875,-0.13790625,-0.50909375,0.93259375,0.76878125,-0.61365625,-1.3763125,0.88053125,0.01932870091171441,0.0341743407360703,True
42408,238,0,239,3752.0,38798.0,44098.0,-0.00732,-0.004392,0.001952,0.22750000000000004,-0.9450000000000001,-3.6575,0.81353125,-0.1406875,-0.5075937500000001,0.9274375,0.7611875,-0.61621875,-1.3776875,0.8777812500000001,0.01931780241431272,0.034285777614686125,True
42409,239,0,240,3753.0,38797.0,44100.0,-0.003355,-0.002989,0.001281,0.1925,-1.3825,-3.6750000000000003,0.80684375,-0.13728125,-0.5079375,0.9310625,0.76909375,-0.6145,-1.37346875,0.8808125,0.019387708464522944,0.034111664373835365,True
42410,240,0,241,3753.0,38798.0,44099.0,0.000305,-0.000366,-0.000122,0.1925,-1.4875,-3.6050000000000004,0.81334375,-0.13965625,-0.5081875,0.9296875,0.77334375,-0.61709375,-1.3781875000000001,0.8805937500000001,0.01939455180406907,0.03428140800047285,True
42411,241,0,242,3752.0,38796.0,44093.0,0.00366,0.002196,-0.00061,0.36750000000000005,-1.5925000000000002,-3.535,0.8056875,-0.13928125,-0.51165625,0.93578125,0.7696875,-0.613125,-1.370125,0.8845625,0.019251669586856607,0.03383778164277866,True
42412,242,0,243,3752.0,38793.0,44092.0,0.0057339999999999995,0.0042699999999999995,-0.0028669999999999998,0.49000000000000005,-1.8550000000000002,-3.7450000000000006,0.81103125,-0.13884375000000002,-0.50934375,0.9296562500000001,0.7751250000000001,-0.61834375,-1.3810625,0.88153125,0.019477346033889866,0.034345242639073924,True
42413,243,0,244,3750.0,38792.0,44089.0,0.004575,0.005856,-0.0030499999999999998,0.5950000000000001,-1.995,-3.5875000000000004,0.80634375,-0.1383125,-0.50490625,0.92971875,0.763375,-0.6145,-1.3755625,0.8791875,0.01934581242763412,0.03431081577009377,True
42414,244,0,245,3750.0,38791.0,44089.0,0.002013,0.002989,-0.000488,0.49000000000000005,-1.9600000000000002,-3.6575,0.79434375,-0.13853125,-0.50828125,0.92984375,0.76346875,-0.61390625,-1.3775,0.8754375,0.01931326930279504,0.03425155157127376,True
42415,245,0,246,3750.0,38790.0,44090.0,-0.000732,0.000549,0.00183,0.4025,-1.8550000000000002,-3.8150000000000004,0.81190625,-0.142125,-0.5108125,0.93621875,0.7811875,-0.62096875,-1.380875,0.88996875,0.01944861531900527,0.034280240535442534,True
42416,246,0,247,3749.0,38790.0,44089.0,-0.00122,-0.0028669999999999998,0.0026839999999999998,0.21000000000000002,-2.0125,-3.8500000000000005,0.8110625,-0.13946875,-0.50778125,0.930875,0.776,-0.618,-1.3764375,0.8755937500000001,0.019438266715411486,0.03423081943633735,True
42417,247,0,248,3747.0,38793.0,44088.0,0.000488,-0.0034159999999999998,0.004148,0.12250000000000001,-2.0125,-3.7275000000000005,0.80678125,-0.1388125,-0.5085000000000001,0.9295,0.7619375,-0.6118750000000001,-1.374125,0.87525,0.01922090454303055,0.03411447685388166,True
42418,248,0,249,3747.0,38787.0,44089.0,-0.000488,-0.0025009999999999998,-0.0006709999999999999,0.14,-1.8550000000000002,-3.9025000000000003,0.80640625,-0.13815625,-0.511375,0.93621875,0.7634062500000001,-0.6111562500000001,-1.3770625,0.89534375,0.01921892637612262,0.034112990816017416,True
42419,249,0,250,3749.0,38788.0,44088.0,0.000305,-0.001098,-0.002989,0.17500000000000002,-1.6800000000000002,-3.9375000000000004,0.8143125,-0.14103125,-0.50775,0.9279375,0.7835,-0.6193125,-1.37365625,0.87525,0.019427075796694164,0.03412619141161416,True
42420,250,0,251,3746.0,38786.0,44087.0,-0.002562,-0.0034159999999999998,-0.005124,0.22750000000000004,-1.4875,-3.6750000000000003,0.8056875,-0.138375,-0.50959375,0.93059375,0.761875,-0.606875,-1.3788125,0.88775,0.019039394478169214,0.03424978020543712,True
42421,251,0,252,3747.0,38786.0,44085.0,-0.004392,-0.006893,-0.000366,0.12250000000000001,-1.1900000000000002,-3.5175000000000005,0.81175,-0.1380625,-0.50771875,0.9240625,0.783,-0.61184375,-1.37421875,0.87528125,0.019250132367673596,0.034148834631608116,True
42422,252,0,253,3744.0,38787.0,44085.0,-0.0025009999999999998,-0.0057339999999999995,0.001037,-0.052500000000000005,-1.155,-3.7275000000000005,0.8055,-0.138375,-0.51059375,0.9354687500000001,0.7625000000000001,-0.61575,-1.3839375,0.89615625,0.01939307150909479,0.03440536953733045,True
42423,253,0,254,3744.0,38786.0,44084.0,0.003538,0.006771,-0.002623,0.7525000000000001,-1.715,-3.8500000000000005,0.811,-0.14028125,-0.5100625,0.9353125,0.784125,-0.6155625,-1.3713125,0.889625,0.01930816124961597,0.033945819712716874,True
42424,254,0,255,3745.0,38787.0,44086.0,0.006527,0.017324,-0.0006709999999999999,1.4175000000000002,-1.6625,-3.9025000000000003,0.8095,-0.1379375,-0.5035937500000001,0.9228437500000001,0.77065625,-0.61125,-1.3723750000000001,0.87490625,0.01923155061201686,0.03424122692495283,True
42425,255,0,256,3744.0,38785.0,44084.0,0.005856,0.019764,0.0034159999999999998,1.5575,-1.4525000000000001,-3.9550000000000005,0.8050625,-0.13671875,-0.5080625,0.92290625,0.76778125,-0.6115,-1.3735625,0.8750625,0.01929103264733966,0.03411030674151492,True
42426,256,0,257,3744.0,38787.0,44085.0,0.002257,0.013176,0.0050019999999999995,1.0325000000000002,-1.2600000000000002,-3.9725000000000006,0.80221875,-0.13846875,-0.507375,0.92996875,0.76678125,-0.6185625,-1.3771875,0.8864062500000001,0.019501290946618025,0.034275370349846686,True
42427,257,0,258,3741.0,38785.0,44084.0,-0.0042699999999999995,-0.0011589999999999999,0.0028669999999999998,0.21000000000000002,-1.3125000000000002,-3.6575,0.8054375,-0.1386875,-0.5105625,0.9365625,0.7689375,-0.6148125,-1.3763750000000001,0.8869375,0.019343027699276604,0.034118840850988374,True
42428,258,0,259,3741.0,38786.0,44083.0,-0.0066489999999999995,-0.015433,-0.007076,-0.4025,-1.9600000000000002,-3.5525,0.8121875000000001,-0.138125,-0.50790625,0.92884375,0.77509375,-0.61721875,-1.375875,0.88009375,0.019461733466539555,0.03420448555961124,True
42429,259,0,260,3742.0,38786.0,44084.0,-0.004026,-0.013786,-0.004514,-0.24500000000000002,-2.0300000000000002,-3.7100000000000004,0.8064375,-0.1380625,-0.50921875,0.93590625,0.7695625,-0.6098125,-1.37659375,0.88371875,0.019169183024047826,0.03418011922896468,True
42430,260,0,261,3742.0,38785.0,44083.0,-0.0011589999999999999,-0.008479,0.0008539999999999999,0.0175,-2.0125,-3.7100000000000004,0.8130000000000001,-0.13746875,-0.50646875,0.9209375,0.77578125,-0.615125,-1.376125,0.8806875000000001,0.01940498981825199,0.034270648099345345,True
42431,261,0,262,3743.0,38786.0,44085.0,0.0021349999999999997,-0.0046359999999999995,0.00549,0.1925,-1.8725000000000003,-3.6925000000000003,0.8011875,-0.137875,-0.51078125,0.9345625000000001,0.7694062500000001,-0.6139687500000001,-1.37640625,0.8749687500000001,0.01934242116074841,0.03411141008195359,True
42432,262,0,263,3741.0,38784.0,44084.0,0.004026,0.000549,0.005307,0.525,-1.8200000000000003,-3.6925000000000003,0.808875,-0.1375625,-0.50896875,0.9281875,0.77496875,-0.61084375,-1.3760000000000001,0.88025,0.019230598300799824,0.03416737271437579,True
42433,263,0,264,3742.0,38783.0,44082.0,0.0011589999999999999,0.005673,-0.001037,0.7000000000000001,-1.6275000000000002,-3.7800000000000002,0.8118125,-0.13815625,-0.5075937500000001,0.92878125,0.77234375,-0.613625,-1.3774375,0.8810625,0.01931729885378525,0.03427626410270935,True
42434,264,0,265,3742.0,38784.0,44081.0,-0.001647,0.008967,-0.001952,0.8225000000000001,-1.4000000000000001,-3.7275000000000005,0.806125,-0.137375,-0.50871875,0.93003125,0.76971875,-0.614625,-1.3762812500000001,0.88015625,0.019388879578705748,0.03418792893462276,True
42435,265,0,266,3741.0,38783.0,44080.0,-0.002806,0.010553,-0.001952,1.0150000000000001,-1.225,-3.8325000000000005,0.80565625,-0.13775,-0.50853125,0.9284687500000001,0.7686875,-0.61421875,-1.37696875,0.87240625,0.01935745980156287,0.03422148281598842,True
42436,266,0,267,3741.0,38783.0,44082.0,-0.0008539999999999999,0.009577,-0.0008539999999999999,1.0325000000000002,-1.3825,-3.7975000000000003,0.80603125,-0.1373125,-0.50653125,0.9308125,0.7691875,-0.6145625,-1.3765625000000001,0.881,0.01938892880992705,0.03428483467766764,True
42437,267,0,268,3740.0,38782.0,44084.0,0.002562,0.005673,-0.001403,0.7875000000000001,-1.8200000000000003,-3.6925000000000003,0.80884375,-0.1441875,-0.512375,0.9433750000000001,0.76875,-0.61490625,-1.3800625,0.88753125,0.019123320853598618,0.03418776056993555,True
42438,268,0,269,3741.0,38781.0,44079.0,0.007442,-0.008967,0.0008539999999999999,-0.2625,-2.5025000000000004,-3.7450000000000006,0.81778125,-0.1395625,-0.50571875,0.93209375,0.77571875,-0.61771875,-1.3771875,0.887375,0.01942325586118738,0.03434063565948748,True
42439,269,0,270,3742.0,38778.0,44076.0,0.006344,-0.012139,0.000366,-0.5075000000000001,-2.4325,-3.7100000000000004,0.81334375,-0.1385,-0.50584375,0.9266562500000001,0.7750625,-0.61740625,-1.37921875,0.884875,0.01945396867308066,0.03441299783902922,True
42440,270,0,271,3741.0,38778.0,44076.0,0.0025009999999999998,-0.010858,-0.001098,-0.4025,-2.0825,-3.7800000000000002,0.802,-0.13734375000000001,-0.5000625,0.92525,0.76825,-0.61521875,-1.37728125,0.88025,0.019413802690662663,0.03456708941191248,True
42441,271,0,272,3743.0,38777.0,44076.0,-0.0025009999999999998,-0.008052,-0.000183,0.08750000000000001,-1.3650000000000002,-3.7100000000000004,0.80178125,-0.13734375000000001,-0.50678125,0.918125,0.76909375,-0.6149687500000001,-1.3766562500000001,0.88003125,0.019403843443839434,0.034278550784246846,True
42442,272,0,273,3744.0,38780.0,44079.0,-0.007442,-0.0023179999999999997,0.002623,0.56,-0.5775,-3.6050000000000004,0.80259375,-0.1370625,-0.50753125,0.91825,0.7684375,-0.61415625,-1.37640625,0.8810625,0.019382900845930886,0.03423948180211688,True
42443,273,0,274,3741.0,38781.0,44081.0,-0.012078,0.0057339999999999995,0.00183,1.05,-0.0175,-3.6750000000000003,0.809,-0.14400000000000002,-0.51203125,0.9365625,0.7691875,-0.60934375,-1.3780000000000001,0.8865937500000001,0.01890923036092744,0.0341228130664355,True
42444,274,0,275,3742.0,38781.0,44084.0,-0.010369999999999999,0.008539999999999999,0.0008539999999999999,1.0675000000000001,-0.35000000000000003,-3.6750000000000003,0.81740625,-0.144625,-0.5151875,0.94203125,0.77509375,-0.61553125,-1.37684375,0.88065625,0.019130452445546953,0.033954429419537246,True
42445,275,0,276,3739.0,38783.0,44085.0,-0.004575,0.008113,-0.0015249999999999999,0.9275000000000001,-1.1025,-3.6225000000000005,0.81946875,-0.1435625,-0.5121875,0.9430000000000001,0.7673125000000001,-0.61603125,-1.3769375,0.885375,0.019193538763483654,0.03407621585543961,True
42446,276,0,277,3740.0,38782.0,44085.0,0.0032329999999999998,0.0057339999999999995,-0.001037,0.7175,-1.8900000000000001,-3.7450000000000006,0.81490625,-0.1409375,-0.5106875,0.92496875,0.77153125,-0.61625,-1.3775625,0.8845000000000001,0.019308891484283754,0.03415911201085605,True
42447,277,0,278,3741.0,38778.0,44079.0,0.014335,-0.0006709999999999999,-0.0015249999999999999,0.31500000000000006,-2.6950000000000003,-3.7800000000000002,0.80571875,-0.13925,-0.50703125,0.91959375,0.7721250000000001,-0.6159375,-1.377,0.88221875,0.019364994731563646,0.034281780746345115,True
42448,278,0,279,3741.0,38777.0,44077.0,0.014274,-0.003477,-0.001769,-0.31500000000000006,-3.1675000000000004,-3.8325000000000005,0.7994375,-0.13075,-0.50525,0.92609375,0.77265625,-0.6145,-1.37653125,0.88175,0.019653050031485507,0.03433413500909428,True
42449,279,0,280,3738.0,38774.0,44075.0,0.012565999999999999,-0.006588,-0.0025009999999999998,-0.35000000000000003,-3.0275000000000003,-3.7100000000000004,0.80184375,-0.1375,-0.5055000000000001,0.92725,0.7688125,-0.6141875,-1.3765625000000001,0.88065625,0.019366371528615357,0.03432547256942307,True
42450,280,0,281,3737.0,38774.0,44077.0,0.006222,-0.007137,-6.1e-05,-0.24500000000000002,-2.3625000000000003,-3.7625,0.8065625000000001,-0.136,-0.508375,0.92853125,0.7688125,-0.61471875,-1.37696875,0.88096875,0.019448475315201396,0.03422763997374588,True
42451,281,0,282,3740.0,38775.0,44074.0,-0.001403,-0.005307,0.00042699999999999997,0.21000000000000002,-1.5050000000000001,-3.6925000000000003,0.8063750000000001,-0.13915625,-0.50853125,0.9355625000000001,0.76865625,-0.6149687500000001,-1.375375,0.880875,0.019330209387326568,0.03416082520947967,True
42452,282,0,283,3738.0,38776.0,44076.0,-0.012565999999999999,0.000793,0.0023179999999999997,0.47250000000000003,-0.10500000000000001,-3.5875000000000004,0.81278125,-0.1411875,-0.509625,0.922125,0.77015625,-0.61753125,-1.3785,0.88696875,0.019349777407106975,0.03423665701282582,True
42453,283,0,284,3740.0,38776.0,44080.0,-0.012749,0.003477,0.001403,0.9800000000000001,-0.052500000000000005,-3.5875000000000004,0.8136875,-0.13446875,-0.51084375,0.9296875,0.7778125,-0.61909375,-1.37965625,0.8767812500000001,0.019684924429844212,0.03423263465201582,True
42454,284,0,285,3739.0,38778.0,44083.0,-0.01098,0.004392,0.001586,0.8750000000000001,-0.35000000000000003,-3.7275000000000005,0.8065625000000001,-0.13409375,-0.50775,0.92853125,0.7621875,-0.6133125,-1.3715,0.880625,0.01946990068890565,0.03404410460556135,True
42455,285,0,286,3740.0,38779.0,44084.0,-0.005856,0.00488,0.001098,0.7525000000000001,-0.9625000000000001,-3.8325000000000005,0.7970625,-0.13734375000000001,-0.5079375,0.92859375,0.7650625,-0.61040625,-1.3761875000000001,0.8734375,0.01922205164735954,0.034215147566985786,True
42456,286,0,287,3739.0,38777.0,44083.0,-0.001098,0.003477,-0.001037,0.6475000000000001,-1.6800000000000002,-3.6750000000000003,0.806125,-0.13809375000000002,-0.507875,0.9293125,0.76165625,-0.61284375,-1.37196875,0.8729687500000001,0.019288709781859318,0.03405702405336598,True
42457,287,0,288,3738.0,38777.0,44083.0,0.008662,0.000549,-0.0017079999999999999,0.15750000000000003,-2.6250000000000004,-3.7275000000000005,0.8062812500000001,-0.13318750000000001,-0.5074375,0.9241875,0.7601875,-0.61346875,-1.3746875,0.8796875000000001,0.019512944513357142,0.03417776080986219,True
42458,288,0,289,3737.0,38776.0,44082.0,0.010919,-0.00183,-0.000976,-0.14,-2.7825,-3.7100000000000004,0.8094375,-0.14121875,-0.50896875,0.9353125,0.779375,-0.62546875,-1.3820625,0.8990625,0.01966460029314163,0.03439806162324279,True
42459,289,0,290,3739.0,38775.0,44079.0,0.010858,-0.004331,-0.000305,-0.10500000000000001,-2.7475,-3.5875000000000004,0.7996875,-0.14175000000000001,-0.5084062500000001,0.93696875,0.7827500000000001,-0.61509375,-1.377,0.89009375,0.019229817071080624,0.03422759782480198,True
42460,290,0,291,3739.0,38772.0,44077.0,0.008357,-0.0040869999999999995,0.00244,0.0175,-2.415,-3.6400000000000006,0.8135625,-0.14078125,-0.5056875,0.9355,0.791,-0.62153125,-1.381,0.893,0.019525593072120564,0.03448691934911942,True
42461,291,0,292,3740.0,38774.0,44076.0,0.0044529999999999995,-0.002257,0.00122,0.17500000000000002,-1.6800000000000002,-3.7450000000000006,0.81053125,-0.134125,-0.50809375,0.92984375,0.7665000000000001,-0.6099687500000001,-1.3684687500000001,0.8689687500000001,0.019335406510827043,0.03391513332865233,True
42462,292,0,293,3741.0,38775.0,44078.0,-0.008113,0.0013419999999999999,0.0,0.6300000000000001,-0.43750000000000006,-3.7100000000000004,0.80640625,-0.13784375000000001,-0.5094375,0.9348125,0.77365625,-0.61959375,-1.386875,0.90240625,0.019567747741572706,0.034562643098057566,True
42463,293,0,294,3741.0,38776.0,44081.0,-0.010248,0.001281,-0.000305,0.7350000000000001,-0.31500000000000006,-3.6050000000000004,0.81171875,-0.13840625,-0.5078125,0.93540625,0.7805625,-0.6178125,-1.38465625,0.8926875,0.019473958134988638,0.03454227393762718,True
42464,294,0,295,3741.0,38778.0,44085.0,-0.011163,0.000244,-0.0006709999999999999,0.665,-0.47250000000000003,-3.6750000000000003,0.81340625,-0.13634375,-0.5115000000000001,0.9363125,0.7869375000000001,-0.62025,-1.3819062500000001,0.90090625,0.01965480651090058,0.03429239086406286,True
42465,295,0,296,3740.0,38776.0,44086.0,-0.010431,0.000366,0.002379,0.5775,-0.7175,-3.7450000000000006,0.813125,-0.14025,-0.51175,0.93584375,0.78740625,-0.6267812500000001,-1.38534375,0.889875,0.01975618514904379,0.03441331181501137,True
42466,296,0,297,3741.0,38779.0,44087.0,-0.005307,0.000549,0.001952,0.6125,-1.12,-3.7450000000000006,0.8130625,-0.14134375,-0.512125,0.934625,0.79096875,-0.62540625,-1.38546875,0.8991875,0.01965703611488643,0.034403294207439046,True
42467,297,0,298,3742.0,38778.0,44089.0,0.0059169999999999995,0.001037,0.000305,0.17500000000000002,-2.345,-3.7275000000000005,0.8134375,-0.14009375,-0.50975,0.932,0.7825625,-0.6186875000000001,-1.37303125,0.87590625,0.019440262605388694,0.03402357572077636,True
42468,298,0,299,3739.0,38778.0,44084.0,0.008662,-0.0018909999999999999,-0.000732,-0.0175,-2.555,-3.7800000000000002,0.80559375,-0.13443750000000002,-0.50778125,0.92603125,0.76609375,-0.614375,-1.37484375,0.87953125,0.01949826067084783,0.034170161146312474,True
42469,299,0,300,3739.0,38776.0,44084.0,0.011101999999999999,-0.001464,-0.0018909999999999999,-0.17500000000000002,-2.66,-3.7450000000000006,0.805625,-0.1381875,-0.5025937500000001,0.929,0.76209375,-0.6133125,-1.3760000000000001,0.8798750000000001,0.0193035780941716,0.034418594341109714,True
42470,300,0,301,3741.0,38777.0,44083.0,0.009394,0.0,-0.001952,0.052500000000000005,-2.6250000000000004,-3.8850000000000002,0.8064687500000001,-0.13896875,-0.51003125,0.92853125,0.768,-0.6147812500000001,-1.37640625,0.88021875,0.01933035663276512,0.03414096509429896,True
42471,301,0,302,3740.0,38776.0,44084.0,0.007625,0.0017079999999999999,-0.0018909999999999999,0.14,-2.1875,-3.9725000000000006,0.8065625000000001,-0.13721875,-0.5054375,0.92921875,0.768625,-0.61421875,-1.37490625,0.8809375,0.0193790428550571,0.03426490491959946,True
42472,302,0,303,3741.0,38776.0,44084.0,-0.002379,0.0018909999999999999,-0.0013419999999999999,0.525,-1.1375000000000002,-3.7800000000000002,0.80575,-0.137875,-0.50803125,0.9335625000000001,0.7603125000000001,-0.61465625,-1.3788125,0.88784375,0.019369811430943712,0.03431134730988694,True
42473,303,0,304,3743.0,38777.0,44086.0,-0.006954,-0.00061,0.000732,0.5775,-0.805,-3.7100000000000004,0.81153125,-0.14100000000000001,-0.51,0.934875,0.77625,-0.6180625,-1.37709375,0.88271875,0.019378555887572386,0.034168362955273396,True
42474,304,0,305,3741.0,38778.0,44087.0,-0.008905999999999999,-0.0021349999999999997,0.002013,0.385,-0.7875000000000001,-3.7450000000000006,0.8086875,-0.13778125,-0.50803125,0.92915625,0.76578125,-0.60925,-1.37590625,0.8805000000000001,0.01915819254954946,0.03420074898802875,True
42475,305,0,306,3743.0,38780.0,44089.0,-0.009211,-0.0021349999999999997,0.00183,0.43750000000000006,-0.9100000000000001,-3.8150000000000004,0.80571875,-0.137625,-0.50803125,0.93396875,0.76871875,-0.61034375,-1.378625,0.87571875,0.019208132759218368,0.03430421269867851,True
42476,306,0,307,3742.0,38780.0,44091.0,-0.007808,-0.0023179999999999997,0.002074,0.49000000000000005,-1.05,-3.6575,0.8122812500000001,-0.13271875,-0.50990625,0.9328125,0.77671875,-0.616125,-1.37884375,0.882875,0.019637788238400643,0.03423865596713798,True
42477,307,0,308,3743.0,38782.0,44093.0,0.000549,-6.1e-05,0.002562,0.35000000000000003,-1.7500000000000002,-3.6400000000000006,0.81034375,-0.1383125,-0.50925,0.9291875,0.76428125,-0.6145,-1.3739375,0.880875,0.01934581242763412,0.034077781581987425,True
42478,308,0,309,3743.0,38782.0,44094.0,0.003477,0.000122,-0.001037,0.1925,-2.0825,-3.6750000000000003,0.80625,-0.1375625,-0.504875,0.92959375,0.7684375,-0.61340625,-1.37578125,0.880625,0.019332706134487176,0.03432037190973184,True
42479,309,0,310,3743.0,38780.0,44091.0,0.005978,0.00042699999999999997,-0.001403,0.22750000000000004,-2.2925000000000004,-3.7275000000000005,0.80678125,-0.1374375,-0.5085000000000001,0.92871875,0.773625,-0.61784375,-1.37640625,0.88728125,0.019514554356532546,0.03420130657783744,True
42480,310,0,311,3746.0,38778.0,44092.0,0.007137,0.000244,-0.0011589999999999999,0.28,-2.0825,-3.7450000000000006,0.80771875,-0.13628125,-0.5065625,0.94040625,0.7771250000000001,-0.6157812500000001,-1.37878125,0.887375,0.019479373623374232,0.034368031364784314,True
42481,311,0,312,3744.0,38777.0,44090.0,0.005795,0.001769,-0.0015249999999999999,0.29750000000000004,-1.9250000000000003,-3.7450000000000006,0.8126875,-0.14400000000000002,-0.5098125,0.9421875000000001,0.776375,-0.61859375,-1.3779375,0.88221875,0.019277857818341067,0.03420786263659133,True
42482,312,0,313,3743.0,38778.0,44089.0,0.001586,0.0008539999999999999,-0.002074,0.36750000000000005,-1.4700000000000002,-3.6750000000000003,0.82334375,-0.141375,-0.51290625,0.93225,0.76896875,-0.6149687500000001,-1.378125,0.8864375,0.019240071145733225,0.03409309198374585,True
42483,313,0,314,3745.0,38777.0,44090.0,-0.002196,0.001403,-0.001281,0.42000000000000004,-1.1900000000000002,-3.6925000000000003,0.819875,-0.14303125,-0.5130625,0.94303125,0.7702187500000001,-0.612,-1.377125,0.8805937500000001,0.01905447545912563,0.03404887275449839,True
42484,314,0,315,3744.0,38780.0,44095.0,-0.0040869999999999995,0.001647,0.000549,0.6125,-1.155,-3.7800000000000002,0.8130937500000001,-0.1431875,-0.5151875,0.943125,0.76728125,-0.61471875,-1.3762812500000001,0.8804375,0.019156475228870935,0.033933015697483256,True
42485,315,0,316,3746.0,38780.0,44094.0,-0.005673,-0.00042699999999999997,0.0011589999999999999,0.6125,-1.12,-3.7450000000000006,0.8214375,-0.14365625,-0.5150625,0.9433750000000001,0.7691250000000001,-0.6136875,-1.37671875,0.87996875,0.019096336134112372,0.033954596671407725,True
42486,316,0,317,3746.0,38779.0,44097.0,-0.006161,-0.003721,0.002562,0.2625,-1.2775,-3.7100000000000004,0.82325,-0.1475,-0.50696875,0.9439062500000001,0.76909375,-0.6144375,-1.37321875,0.88046875,0.018970065840423937,0.03414032758457182,True
42487,317,0,318,3746.0,38781.0,44097.0,-0.001952,-0.00366,0.002196,0.14,-1.6275000000000002,-3.7450000000000006,0.8230625,-0.14215625,-0.5108125,0.937125,0.76959375,-0.6179687500000001,-1.378875,0.88634375,0.019327853765351784,0.034204136314158924,True
42488,318,0,319,3748.0,38779.0,44098.0,0.001037,-0.000305,0.0015249999999999999,0.43750000000000006,-1.8725000000000003,-3.7975000000000003,0.80553125,-0.1360625,-0.5009375,0.9238437500000001,0.76875,-0.60934375,-1.373625,0.8830625,0.019231770453041842,0.03439348930237599,True
42489,319,0,320,3746.0,38780.0,44097.0,0.0028669999999999998,0.0034159999999999998,-0.000488,0.56,-2.0650000000000004,-3.9025000000000003,0.80959375,-0.1401875,-0.5141875,0.944125,0.7689375,-0.61371875,-1.3740625,0.8805625,0.019238509012377496,0.033887951525302655,True
42490,320,0,321,3748.0,38778.0,44097.0,0.0040869999999999995,0.0040869999999999995,-0.002013,0.5950000000000001,-2.1875,-3.8675,0.8194375,-0.1416875,-0.51075,0.9319375,0.77071875,-0.61746875,-1.37978125,0.88621875,0.019326976905373345,0.03424108511573558,True
42491,321,0,322,3748.0,38780.0,44097.0,0.0051849999999999995,0.003111,-0.0008539999999999999,0.47250000000000003,-2.1875,-3.8675,0.80253125,-0.136,-0.5096875,0.9365,0.77559375,-0.61784375,-1.37625,0.88796875,0.019572946960474555,0.03414856411014236,True
42492,322,0,323,3746.0,38780.0,44095.0,0.004514,-0.0011589999999999999,-0.001464,0.15750000000000003,-2.1350000000000002,-3.5875000000000004,0.8149375,-0.14228125,-0.51059375,0.9355625000000001,0.77628125,-0.61746875,-1.377875,0.88265625,0.019302857853734454,0.03417469941829251,True
42493,323,0,324,3749.0,38780.0,44097.0,0.001586,-0.0026839999999999998,0.000305,0.035,-1.9600000000000002,-3.8325000000000005,0.8106875,-0.138875,-0.50775,0.93503125,0.76859375,-0.6149687500000001,-1.3776875,0.880125,0.019341635361613048,0.034279620631312444,True
42494,324,0,325,3748.0,38782.0,44096.0,0.0011589999999999999,-0.000976,-0.000549,0.29750000000000004,-1.61,-3.7625,0.80825,-0.13746875,-0.508,0.931125,0.75465625,-0.6146875,-1.3773125,0.8805937500000001,0.01938756078052992,0.03425549888310671,True
42495,325,0,326,3749.0,38784.0,44100.0,-0.0021349999999999997,-0.00042699999999999997,0.00061,0.49000000000000005,-1.1025,-3.6050000000000004,0.8059375,-0.13940625,-0.51034375,0.9314375,0.76475,-0.61465625,-1.379,0.8855625,0.019307602558942906,0.03422736317427794,True
42496,326,0,327,3752.0,38784.0,44102.0,-0.0077469999999999995,-0.000366,-0.00122,0.6825000000000001,-0.8400000000000001,-3.6225000000000005,0.8125,-0.13796875,-0.508,0.91909375,0.764375,-0.61809375,-1.37771875,0.8834062500000001,0.019502931659767523,0.03427095865344477,True
42497,327,0,328,3749.0,38785.0,44107.0,-0.006954,0.002379,-0.001464,0.7000000000000001,-1.2775,-3.6050000000000004,0.8063125,-0.1374375,-0.50796875,0.9284687500000001,0.76959375,-0.61390625,-1.3754375,0.8799375,0.01935770556532448,0.03418537118818149,True
42498,328,0,329,3752.0,38787.0,44108.0,-0.0044529999999999995,0.0011589999999999999,-0.000305,0.56,-1.7325000000000002,-3.7450000000000006,0.8053125,-0.138125,-0.5084375,0.93203125,0.7683125000000001,-0.61328125,-1.37578125,0.8804375,0.01930487224250119,0.034179982143406916,True
42499,329,0,330,3751.0,38786.0,44109.0,0.000244,-0.00042699999999999997,0.0017079999999999999,0.36750000000000005,-2.205,-3.7275000000000005,0.80575,-0.13909375000000002,-0.5086875,0.9331875000000001,0.76878125,-0.61475,-1.37653125,0.880375,0.019324033353984908,0.03419867520309735,True
42500,330,0,331,3751.0,38786.0,44109.0,0.004148,-0.002074,0.003843,0.10500000000000001,-2.5900000000000003,-3.7450000000000006,0.81246875,-0.13515625,-0.5116875,0.93378125,0.7691875,-0.6150625000000001,-1.37715625,0.8805000000000001,0.01949644653553084,0.0341042448363378,True
42501,331,0,332,3754.0,38786.0,44109.0,0.007503,-0.002623,0.003721,0.0,-2.7825,-3.6750000000000003,0.8113750000000001,-0.14115625,-0.51209375,0.9351875000000001,0.7702187500000001,-0.614625,-1.376875,0.8805000000000001,0.019235261556899606,0.03407753121690516,True
42502,332,0,333,3754.0,38788.0,44107.0,0.010126,-0.001769,-0.00061,-0.0175,-2.555,-3.5700000000000003,0.8110625,-0.14153125,-0.51196875,0.9276562500000001,0.772,-0.61525,-1.3803125,0.8861875,0.019244929464458008,0.03421328047083739,True
42503,333,0,334,3755.0,38785.0,44105.0,0.0071979999999999995,-0.0006709999999999999,-0.004697,0.052500000000000005,-2.1175,-3.5700000000000003,0.8084687500000001,-0.1389375,-0.5075625,0.92896875,0.7770625,-0.6157812500000001,-1.37540625,0.8795937500000001,0.019371465205882916,0.034200191376246435,True
42504,334,0,335,3753.0,38784.0,44102.0,0.002989,0.001769,-0.0057339999999999995,0.385,-1.435,-3.6575,0.8043125,-0.13834375000000002,-0.5094375,0.929625,0.76884375,-0.614125,-1.376125,0.88084375,0.019329602413248492,0.034153658212197485,True
42505,335,0,336,3753.0,38786.0,44103.0,-0.001952,0.004697,-0.003111,0.7875000000000001,-0.7175,-3.6400000000000006,0.81240625,-0.1399375,-0.50953125,0.93453125,0.7691250000000001,-0.6138750000000001,-1.37503125,0.8750625,0.019254891803911413,0.03410833237890101,True
42506,336,0,337,3753.0,38788.0,44103.0,-0.007442,0.00488,-0.000488,0.8750000000000001,-0.2625,-3.6575,0.8120937500000001,-0.14150000000000001,-0.511375,0.93778125,0.76990625,-0.6148750000000001,-1.3766562500000001,0.87771875,0.019231257522128387,0.03409752811700715,True
42507,337,0,338,3755.0,38790.0,44106.0,-0.00976,-0.00244,0.004575,0.49000000000000005,-0.5075000000000001,-3.6575,0.81240625,-0.1405625,-0.5115000000000001,0.93634375,0.7670625,-0.61365625,-1.378625,0.88609375,0.0192207831780376,0.034167532717001015,True
42508,338,0,339,3753.0,38790.0,44105.0,-0.00732,-0.003904,0.0040869999999999995,0.21000000000000002,-0.9275000000000001,-3.5700000000000003,0.8099375,-0.13834375000000002,-0.5079375,0.92171875,0.7769375000000001,-0.61590625,-1.37834375,0.8809375,0.019400565437236342,0.034297204678693814,True
42509,339,0,340,3751.0,38788.0,44105.0,-0.004941,-0.002257,0.002013,0.24500000000000002,-1.5050000000000001,-3.6925000000000003,0.80659375,-0.13834375000000002,-0.50684375,0.93696875,0.76828125,-0.61434375,-1.375875,0.87965625,0.019338317723786563,0.03424635603698394,True
42510,340,0,341,3751.0,38788.0,44102.0,0.0006709999999999999,-0.000488,-0.000366,0.21000000000000002,-1.8900000000000001,-3.7275000000000005,0.81440625,-0.1398125,-0.5038125,0.9291875,0.7742187500000001,-0.617625,-1.37590625,0.8848125,0.019409366256899274,0.03436699920815636,True
42511,341,0,342,3752.0,38790.0,44102.0,0.007137,0.000183,-0.002379,0.1925,-2.345,-3.6575,0.8053750000000001,-0.13771875,-0.5075937500000001,0.9286875,0.77340625,-0.61625,-1.3764375,0.88171875,0.01943964860610369,0.034238208180324754,True
42512,342,0,343,3751.0,38787.0,44098.0,0.006893,0.0006709999999999999,-0.002196,0.1925,-2.3275,-3.6050000000000004,0.80571875,-0.1378125,-0.50746875,0.92921875,0.76825,-0.6091562500000001,-1.37578125,0.8794375,0.019153186123559193,0.034218158307933864,True
42513,343,0,344,3749.0,38788.0,44095.0,0.0071979999999999995,0.0006709999999999999,-0.001281,0.14,-2.1175,-3.6225000000000005,0.8056875,-0.139125,-0.5085000000000001,0.93365625,0.7682187500000001,-0.6144375,-1.37553125,0.88575,0.01931031330697685,0.03416800387184012,True
42514,344,0,345,3749.0,38784.0,44095.0,0.0048189999999999995,-0.000244,0.000122,0.15750000000000003,-1.715,-3.6575,0.80859375,-0.13875,-0.5074375,0.92925,0.77496875,-0.61625,-1.3781875000000001,0.8844375,0.019397755547656523,0.03431096093840429,True
42515,345,0,346,3749.0,38786.0,44095.0,-0.000122,0.000305,-0.002745,0.385,-1.5050000000000001,-3.7100000000000004,0.806625,-0.138125,-0.50534375,0.9291875,0.7691875,-0.6139687500000001,-1.3761875000000001,0.87090625,0.019332264326532064,0.03431735953243568,True
42516,346,0,347,3748.0,38784.0,44093.0,-0.00366,0.0,0.00244,0.35000000000000003,-1.1725,-3.6750000000000003,0.8058125,-0.1399375,-0.50821875,0.933125,0.7684062500000001,-0.61465625,-1.37728125,0.8874062500000001,0.019286019889065076,0.03424568973478985,True
42517,347,0,348,3748.0,38784.0,44090.0,-0.004941,-0.00042699999999999997,0.0040869999999999995,0.42000000000000004,-0.9100000000000001,-3.6225000000000005,0.80784375,-0.13859375000000002,-0.50721875,0.9288125,0.7774375,-0.6129375,-1.3795,0.87971875,0.019272130764562335,0.034369520676136245,True
42518,348,0,349,3746.0,38785.0,44090.0,-0.001952,-0.001098,0.0042699999999999995,0.3325,-0.9100000000000001,-3.6225000000000005,0.80540625,-0.1379375,-0.50803125,0.92921875,0.77,-0.61334375,-1.3731875,0.8795000000000001,0.019314980314285822,0.03409726310500011,True
42519,349,0,350,3745.0,38782.0,44088.0,-0.002196,6.1e-05,0.001769,0.4025,-0.9975,-3.6050000000000004,0.8060625,-0.13796875,-0.5081875,0.92403125,0.7678125,-0.6135,-1.3762812500000001,0.8778750000000001,0.01931993621386638,0.03420886383815596,True
42520,350,0,351,3743.0,38781.0,44087.0,-0.002013,0.000549,-0.001464,0.43750000000000006,-1.1725,-3.5525,0.8064687500000001,-0.13790625,-0.51065625,0.9359375,0.766625,-0.61221875,-1.3764687500000001,0.89265625,0.01927142387355874,0.0341187148034535,True
42521,351,0,352,3743.0,38783.0,44086.0,0.00042699999999999997,0.002989,-0.0025009999999999998,0.525,-1.435,-3.6050000000000004,0.80778125,-0.1380625,-0.5089375,0.9294375,0.78128125,-0.6135,-1.3747500000000001,0.8759375,0.019316127328498592,0.034121025822914514,True
42522,352,0,353,3742.0,38780.0,44084.0,0.001281,6.1e-05,-0.00061,0.35000000000000003,-1.4525000000000001,-3.5875000000000004,0.81934375,-0.14265625,-0.50928125,0.92271875,0.76559375,-0.6161875,-1.3810625,0.88784375,0.019236579588126714,0.03434770510493799,True
42523,353,0,354,3740.0,38782.0,44084.0,0.001464,-0.001403,0.00042699999999999997,0.24500000000000002,-1.5925000000000002,-3.4475000000000002,0.8015,-0.13784375000000001,-0.5071875,0.9306875,0.76375,-0.612375,-1.37396875,0.8767812500000001,0.01928018933564924,0.03416025528131069,True
42524,354,0,355,3741.0,38779.0,44082.0,0.00122,-0.002562,0.000183,0.10500000000000001,-1.8900000000000001,-3.4825000000000004,0.8181875000000001,-0.15006250000000002,-0.51546875,0.9471875000000001,0.7645000000000001,-0.612625,-1.3715625,0.8768750000000001,0.01879370851341537,0.03374225572429763,True
42525,355,0,356,3738.0,38779.0,44081.0,0.0015249999999999999,-0.0018909999999999999,-0.000549,0.1925,-1.8550000000000002,-3.535,0.8298125000000001,-0.14775,-0.51825,0.9339375,0.7662187500000001,-0.6115625,-1.36909375,0.86428125,0.01884530898840738,0.0335385945743529,True
42526,356,0,357,3737.0,38777.0,44078.0,-0.0011589999999999999,0.001647,-0.000183,0.35000000000000003,-1.6975000000000002,-3.5525,0.8074687500000001,-0.14075000000000001,-0.51065625,0.93084375,0.764125,-0.611125,-1.3734375,0.87709375,0.019112291697352315,0.03400332532791428,True
42527,357,0,358,3736.0,38778.0,44080.0,0.00042699999999999997,0.001952,0.00042699999999999997,0.5775,-1.8025000000000002,-3.5525,0.8069375,-0.140125,-0.5122187500000001,0.94815625,0.764,-0.6131875,-1.36921875,0.8769375,0.01921987958690844,0.03378109544662269,True
42528,358,0,359,3736.0,38776.0,44079.0,-0.000122,0.001037,0.00122,0.525,-1.8375000000000001,-3.6225000000000005,0.82825,-0.1505,-0.51446875,0.94603125,0.7641875,-0.61375,-1.37309375,0.89103125,0.018820781067492767,0.03383998058967484,True
42529,359,0,360,3736.0,38777.0,44076.0,0.000183,-0.000549,0.0011589999999999999,0.24500000000000002,-1.9425000000000001,-3.5700000000000003,0.7946875,-0.13443750000000002,-0.50028125,0.91390625,0.78128125,-0.61725,-1.373125,0.87634375,0.01961277153215733,0.034400325147178355,True
42530,360,0,361,3734.0,38774.0,44076.0,0.00122,-0.001647,0.0017079999999999999,0.22750000000000004,-1.8200000000000003,-3.6750000000000003,0.80565625,-0.1448125,-0.51759375,0.94865625,0.76565625,-0.613,-1.3746562500000001,0.8765937500000001,0.019021959939869174,0.033776319629945734,True
42531,361,0,362,3731.0,38776.0,44076.0,-0.000244,-0.00042699999999999997,-0.00061,0.36750000000000005,-1.6450000000000002,-3.6925000000000003,0.82821875,-0.14881250000000001,-0.51675,0.93434375,0.7675000000000001,-0.61371875,-1.3756875,0.87603125,0.018888094672813306,0.03384883660787515,True
42532,362,0,363,3731.0,38772.0,44074.0,-0.000732,-0.000976,-0.0018909999999999999,0.385,-1.6450000000000002,-3.5000000000000004,0.81453125,-0.13725,-0.5025000000000001,0.91809375,0.77390625,-0.61746875,-1.3721875000000001,0.8835625,0.019507235080779783,0.03427719821162444,True
42533,363,0,364,3730.0,38775.0,44073.0,-0.000976,0.000183,-0.00061,0.43750000000000006,-1.54,-3.5175000000000005,0.7948125,-0.1379375,-0.5135,0.94496875,0.76865625,-0.6081875,-1.3760000000000001,0.87334375,0.019109493537465935,0.03398880832282472,True
42534,364,0,365,3729.0,38773.0,44072.0,0.001281,0.0018909999999999999,-0.000488,0.45500000000000007,-1.5925000000000002,-3.5700000000000003,0.823625,-0.1483125,-0.51153125,0.935625,0.7661875,-0.61290625,-1.3724375,0.8715937500000001,0.01887602159944033,0.033930766407445086,True
42535,365,0,366,3729.0,38773.0,44071.0,0.002928,0.001647,0.000793,0.28,-1.61,-3.5875000000000004,0.8095,-0.14040625,-0.5084375,0.9294687500000001,0.76825,-0.6144375,-1.37578125,0.8809375,0.01925826052291465,0.034179982143406916,True
42536,366,0,367,3729.0,38771.0,44070.0,0.001586,-0.001098,0.0013419999999999999,0.22750000000000004,-1.155,-3.5875000000000004,0.802625,-0.14115625,-0.50921875,0.9348125,0.76903125,-0.60971875,-1.37896875,0.88725,0.019039734048159326,0.03427050202739227,True
42537,367,0,368,3727.0,38770.0,44070.0,-0.000793,-0.001464,-0.000549,0.3325,-1.0325000000000002,-3.5000000000000004,0.81321875,-0.13965625,-0.51003125,0.93296875,0.7768125,-0.6148750000000001,-1.37775,0.887625,0.01930616141662308,0.0341921072593118,True
42538,368,0,369,3726.0,38770.0,44071.0,-0.0034159999999999998,-0.000244,-0.001586,0.45500000000000007,-1.12,-3.4825000000000004,0.8101875000000001,-0.1399375,-0.51065625,0.93196875,0.7745,-0.617,-1.3788125,0.88646875,0.019379392289880976,0.03420791457441123,True
42539,369,0,370,3725.0,38771.0,44073.0,-0.0037819999999999998,0.00122,-0.00183,0.6475000000000001,-1.1025,-3.535,0.80578125,-0.13778125,-0.50790625,0.9284687500000001,0.76,-0.6135,-1.3738125,0.8798750000000001,0.01932755398460195,0.0341259812651331,True
42540,370,0,371,3724.0,38769.0,44071.0,-0.004331,0.002257,-0.002013,0.5775,-1.1725,-3.5525,0.806125,-0.1384375,-0.509625,0.9364687500000001,0.76896875,-0.61428125,-1.37634375,0.8853125000000001,0.01933201888639344,0.034154595261580975,True
42541,371,0,372,3724.0,38774.0,44069.0,-0.001647,-0.000122,0.000183,0.385,-1.6275000000000002,-3.6925000000000003,0.8110625,-0.1405,-0.505875,0.9363750000000001,0.77025,-0.6165,-1.37709375,0.886625,0.019336623809233646,0.03433091111940271,True
42542,372,0,373,3723.0,38773.0,44068.0,-0.000305,-0.0017079999999999999,0.0021349999999999997,0.3325,-1.9425000000000001,-3.6750000000000003,0.81134375,-0.140625,-0.51009375,0.9361875000000001,0.77559375,-0.61721875,-1.37328125,0.88365625,0.019360178533572157,0.03401954565888083,True
42543,373,0,374,3723.0,38772.0,44067.0,0.002562,-0.001098,0.003172,0.22750000000000004,-2.0300000000000002,-3.6750000000000003,0.81203125,-0.1418125,-0.5091875,0.9350625,0.7758125,-0.614125,-1.36553125,0.8873125000000001,0.019188677233092786,0.033760134631518904,True
42544,374,0,375,3721.0,38773.0,44067.0,0.005978,-0.000976,0.0021349999999999997,0.15750000000000003,-2.0125,-3.6575,0.8120937500000001,-0.14150000000000001,-0.5055000000000001,0.928,0.76690625,-0.61615625,-1.37953125,0.88265625,0.019282305701159172,0.034438431560866595,True
42545,375,0,376,3723.0,38771.0,44067.0,0.0048189999999999995,-0.001403,0.000732,0.10500000000000001,-1.8025000000000002,-3.6925000000000003,0.80603125,-0.13815625,-0.507375,0.92834375,0.76190625,-0.61390625,-1.37503125,0.8780625,0.019328504592805135,0.03419330764370979,True
42546,376,0,377,3719.0,38771.0,44066.0,-0.00122,0.000244,-0.0028669999999999998,0.43750000000000006,-1.3475000000000001,-3.7100000000000004,0.79928125,-0.13925,-0.50978125,0.934125,0.7714375,-0.616375,-1.378875,0.8850625,0.01938242328531313,0.034244770503026635,True
42547,377,0,378,3720.0,38769.0,44067.0,-0.002074,0.002989,-0.0037819999999999998,0.665,-1.1725,-3.6750000000000003,0.8016562500000001,-0.13790625,-0.508625,0.92853125,0.77075,-0.61434375,-1.37640625,0.8804375,0.019356091912870924,0.03419638074244654,True
42548,378,0,379,3719.0,38771.0,44067.0,-0.001952,0.004697,-0.002745,0.7875000000000001,-1.1900000000000002,-3.5525,0.80671875,-0.13821875,-0.5075937500000001,0.92853125,0.768625,-0.6141875,-1.3764375,0.88096875,0.019337170889756162,0.034238208180324754,True
42549,379,0,380,3719.0,38771.0,44070.0,-0.002562,0.003538,-6.1e-05,0.7350000000000001,-1.2950000000000002,-3.6400000000000006,0.80553125,-0.13940625,-0.51034375,0.93390625,0.76796875,-0.61521875,-1.3778125,0.88628125,0.019330013063564588,0.03418217192675689,True
42550,380,0,381,3718.0,38771.0,44069.0,-0.001281,0.000244,0.002928,0.47250000000000003,-1.4525000000000001,-3.6400000000000006,0.8089375,-0.138625,-0.50771875,0.9329375,0.77515625,-0.6161875,-1.3746562500000001,0.8835937500000001,0.019400343777849435,0.03416548746350013,True
42551,381,0,382,3719.0,38770.0,44070.0,0.0017079999999999999,-0.004514,0.0023179999999999997,-0.10500000000000001,-1.7675,-3.5875000000000004,0.81184375,-0.1355,-0.509,0.934625,0.762875,-0.61540625,-1.37796875,0.8845625,0.019496174270940584,0.03424106785536175,True
42552,382,0,383,3717.0,38771.0,44068.0,0.00183,-0.004941,0.0006709999999999999,0.07,-1.715,-3.5525,0.80859375,-0.13746875,-0.508625,0.92925,0.765625,-0.6139687500000001,-1.37615625,0.8791875,0.019358926016349965,0.03418686586941235,True
42553,383,0,384,3717.0,38771.0,44069.0,0.001037,-0.001403,-0.000915,0.35000000000000003,-1.4175000000000002,-3.5875000000000004,0.80559375,-0.134,-0.511125,0.9340625,0.7692187500000001,-0.6139687500000001,-1.377875,0.8836875000000001,0.019499852091101725,0.034153765829487294,True
42554,384,0,385,3717.0,38770.0,44068.0,-0.00061,0.0023179999999999997,-0.003172,0.6825000000000001,-1.1900000000000002,-3.5875000000000004,0.8109375,-0.1408125,-0.50878125,0.92890625,0.76975,-0.614,-1.3760937500000001,0.8801875,0.01922432355570001,0.03417832975179642,True
42555,385,0,386,3716.0,38771.0,44070.0,-0.002989,0.003721,-0.002074,0.7350000000000001,-1.1375000000000002,-3.535,0.80590625,-0.1383125,-0.50796875,0.92915625,0.7684062500000001,-0.61428125,-1.3759375,0.8800625,0.01933709723902663,0.03420440131522235,True
42556,386,0,387,3714.0,38772.0,44071.0,-0.001281,0.0008539999999999999,0.000183,0.4025,-1.3125000000000002,-3.6750000000000003,0.80578125,-0.133625,-0.50784375,0.92925,0.76915625,-0.6140625000000001,-1.37603125,0.88,0.019518821811718406,0.03421289528873826,True
42557,387,0,388,3715.0,38772.0,44071.0,0.0,-0.001098,0.001281,0.14,-1.4700000000000002,-3.7625,0.804875,-0.13809375000000002,-0.508,0.928875,0.75934375,-0.6138125,-1.3756875,0.8804062500000001,0.019327308599592197,0.034193654851715834,True
42558,388,0,389,3715.0,38769.0,44071.0,0.001952,-0.0021349999999999997,0.001952,0.14,-1.6625,-3.7800000000000002,0.8055625000000001,-0.1380625,-0.50796875,0.92903125,0.76859375,-0.61446875,-1.37578125,0.8804062500000001,0.019354724038072122,0.03419845448108125,True
42559,389,0,390,3714.0,38771.0,44072.0,0.001464,-0.0017079999999999999,0.000793,0.31500000000000006,-1.61,-3.7100000000000004,0.8016562500000001,-0.13759375000000001,-0.511125,0.93725,0.7684375,-0.61325,-1.37503125,0.87915625,0.019325211014392652,0.03404552457447712,True
42560,390,0,391,3714.0,38772.0,44072.0,0.0008539999999999999,0.000976,0.0,0.385,-1.5750000000000002,-3.7450000000000006,0.811875,-0.14171875,-0.51146875,0.9362812500000001,0.7829375000000001,-0.61990625,-1.37615625,0.88915625,0.019422799386167443,0.03407480201025322,True
42561,391,0,392,3714.0,38770.0,44072.0,-0.0011589999999999999,0.002074,-0.001952,0.5775,-1.4700000000000002,-3.6400000000000006,0.8095,-0.12984375,-0.50746875,0.92896875,0.77328125,-0.612125,-1.3713125,0.8748125,0.019595270623727127,0.03404805131780234,True
42562,392,0,393,3714.0,38773.0,44072.0,-0.000488,-0.00042699999999999997,0.0,0.29750000000000004,-1.5225000000000002,-3.7275000000000005,0.805125,-0.1379375,-0.50828125,0.9264375,0.752875,-0.6081875,-1.37353125,0.8783125,0.019109493537465935,0.03410049596466791,True
42563,393,0,394,3712.0,38773.0,44075.0,0.0006709999999999999,-0.001037,0.000793,0.1925,-1.6275000000000002,-3.7100000000000004,0.8095,-0.13925,-0.511375,0.93421875,0.7741250000000001,-0.61875,-1.37371875,0.8899375,0.01947702462553948,0.03398570617481917,True
42564,394,0,395,3713.0,38772.0,44075.0,0.000793,-0.00183,0.001647,0.21000000000000002,-1.5925000000000002,-3.8325000000000005,0.81271875,-0.1414375,-0.5104062500000001,0.93496875,0.7776875,-0.61975,-1.37834375,0.887125,0.019427999878146612,0.03419992685692895,True
42565,395,0,396,3714.0,38772.0,44073.0,0.00042699999999999997,-0.0037819999999999998,0.000488,0.21000000000000002,-1.6625,-3.7975000000000003,0.8066875,-0.13725,-0.507875,0.92890625,0.76165625,-0.61171875,-1.3736875,0.87509375,0.019278163984382438,0.034122454609721194,True
42566,396,0,397,3714.0,38773.0,44075.0,-6.1e-05,0.0015249999999999999,-0.000488,0.525,-1.6275000000000002,-3.5700000000000003,0.80525,-0.1365,-0.50834375,0.928875,0.76609375,-0.615625,-1.37421875,0.88478125,0.019464263044306207,0.03412420333138336,True
42567,397,0,398,3713.0,38774.0,44077.0,-0.00042699999999999997,0.0030499999999999998,-0.002074,0.6125,-1.5925000000000002,-3.6400000000000006,0.80215625,-0.13796875,-0.5084375,0.92371875,0.77496875,-0.61553125,-1.377625,0.8875625,0.0194008609909648,0.034250151462164015,True
42568,398,0,399,3713.0,38773.0,44076.0,-0.00183,0.002623,-0.000915,0.665,-1.61,-3.7100000000000004,0.8070625,-0.1378125,-0.5115625,0.93059375,0.77715625,-0.62228125,-1.3813125,0.8955000000000001,0.01967603022161076,0.034267337435761054,True
42569,399,0,400,3712.0,38774.0,44077.0,-0.000488,0.002257,0.000732,0.45500000000000007,-1.7325000000000002,-3.6050000000000004,0.81321875,-0.141125,-0.5088125,0.93475,0.7858125,-0.6198750000000001,-1.38025,0.888875,0.01944567143415635,0.03433526068498143,True
42570,400,0,401,3711.0,38775.0,44080.0,0.001281,0.00042699999999999997,6.1e-05,0.29750000000000004,-2.0650000000000004,-3.7100000000000004,0.8143750000000001,-0.13984375000000002,-0.50915625,0.9363125,0.77928125,-0.61865625,-1.37821875,0.8886875,0.01944917281990157,0.034244424660418694,True
42571,401,0,402,3712.0,38777.0,44080.0,0.001403,-0.0023179999999999997,0.001403,0.14,-1.995,-3.7450000000000006,0.81078125,-0.14125000000000001,-0.5091875,0.9348125,0.7796875,-0.61365625,-1.3724687500000001,0.88490625,0.01919285152932125,0.03402433001321561,True
42572,402,0,403,3713.0,38775.0,44083.0,0.0017079999999999999,-0.0026839999999999998,0.00042699999999999997,0.17500000000000002,-1.8025000000000002,-3.7275000000000005,0.80953125,-0.14096875,-0.5084375,0.93575,0.77625,-0.6166875,-1.376125,0.88496875,0.019325051349821133,0.03419306533207887,True
42573,403,0,404,3712.0,38777.0,44080.0,0.000488,-0.00122,-0.000915,0.17500000000000002,-1.6450000000000002,-3.6400000000000006,0.80996875,-0.13946875,-0.50946875,0.935,0.7748125,-0.6167812500000001,-1.3770625,0.8871875,0.01938972017310346,0.03418810786315398,True
42574,404,0,405,3713.0,38779.0,44081.0,-0.0015249999999999999,-0.000976,-0.0013419999999999999,0.45500000000000007,-1.3475000000000001,-3.6400000000000006,0.8088125,-0.1323125,-0.50771875,0.92371875,0.77446875,-0.61434375,-1.37440625,0.87925,0.019583347616163847,0.03415597162987804,True
42575,405,0,406,3712.0,38777.0,44082.0,-0.002928,0.001769,-0.00061,0.56,-1.3650000000000002,-3.6750000000000003,0.8055,-0.138,-0.5086875,0.92803125,0.7679375,-0.6139687500000001,-1.3740937500000001,0.87996875,0.019337342743640237,0.03410589787073677,True
42576,406,0,407,3714.0,38779.0,44084.0,-0.001281,0.001037,0.00042699999999999997,0.525,-1.4875,-3.5875000000000004,0.80975,-0.14134375,-0.50946875,0.93340625,0.76828125,-0.61834375,-1.37784375,0.877,0.019375795741742374,0.03421784011890293,True
42577,407,0,408,3711.0,38781.0,44085.0,0.000366,0.000549,0.001952,0.5075000000000001,-1.7850000000000001,-3.6925000000000003,0.80984375,-0.137625,-0.5073125,0.92359375,0.775375,-0.61703125,-1.374625,0.87321875,0.019474576163606244,0.034180308083370685,True
42578,408,0,409,3714.0,38782.0,44087.0,0.002074,0.0006709999999999999,0.0023179999999999997,0.42000000000000004,-1.8725000000000003,-3.7450000000000006,0.80540625,-0.13528125,-0.508125,0.9284375,0.76378125,-0.61375,-1.361875,0.8794375,0.019439083845411608,0.03366273195495206,True
42579,409,0,410,3714.0,38780.0,44084.0,0.003355,0.000366,0.000976,0.35000000000000003,-1.8900000000000001,-3.7800000000000002,0.80434375,-0.13884375000000002,-0.5080625,0.9333750000000001,0.76965625,-0.6180625,-1.37634375,0.88765625,0.019466144015192092,0.03421616835561664,True
42580,410,0,411,3714.0,38780.0,44085.0,0.002806,-0.00183,6.1e-05,0.10500000000000001,-1.6275000000000002,-3.5700000000000003,0.80496875,-0.13775,-0.5069375,0.9286875,0.77190625,-0.6143125,-1.3747500000000001,0.88021875,0.01936119483329059,0.03419984433344171,True
42581,411,0,412,3714.0,38778.0,44083.0,-0.000549,-0.00122,-0.001952,0.29750000000000004,-1.3650000000000002,-3.5525,0.80371875,-0.13840625,-0.50753125,0.933625,0.76871875,-0.61246875,-1.3765,0.8809375,0.01926107067175047,0.03424304967194058,True
42582,412,0,413,3715.0,38782.0,44086.0,-0.0018909999999999999,0.000549,-0.002989,0.43750000000000006,-1.225,-3.5875000000000004,0.81221875,-0.1399375,-0.5045000000000001,0.9384375,0.77384375,-0.61646875,-1.37959375,0.88675,0.019358229437355837,0.034480211094789485,True
42583,413,0,414,3715.0,38781.0,44087.0,-0.003721,0.0017079999999999999,-0.003294,0.6125,-0.9975,-3.5000000000000004,0.8196875,-0.14046875,-0.50959375,0.9280625,0.7752187500000001,-0.61809375,-1.377,0.887,0.01940138033636337,0.03418080348346929,True
42584,414,0,415,3713.0,38781.0,44088.0,-0.003538,0.0008539999999999999,-0.000793,0.5425000000000001,-1.0325000000000002,-3.5700000000000003,0.8044687500000001,-0.13725,-0.50421875,0.92371875,0.7741250000000001,-0.60953125,-1.3675625,0.87965625,0.01919098926356023,0.03403337431414626,True
42585,415,0,416,3717.0,38785.0,44088.0,-0.0017079999999999999,0.000305,0.0015249999999999999,0.5075000000000001,-1.54,-3.7625,0.80140625,-0.13703125,-0.507125,0.919375,0.76809375,-0.6141875,-1.37584375,0.8798750000000001,0.01938541542352353,0.03423408334944528,True
42586,416,0,417,3717.0,38783.0,44090.0,0.0017079999999999999,-0.001586,0.0040869999999999995,0.21000000000000002,-1.7850000000000001,-3.8325000000000005,0.7928437500000001,-0.13840625,-0.50828125,0.9360937500000001,0.76775,-0.61359375,-1.37515625,0.8718750000000001,0.019305896766903453,0.03416235121704916,True
42587,417,0,418,3715.0,38786.0,44092.0,0.002074,-0.002379,0.002257,0.15750000000000003,-1.8725000000000003,-3.7450000000000006,0.8130937500000001,-0.14215625,-0.5134375,0.9420000000000001,0.7684062500000001,-0.61434375,-1.369875,0.8823125,0.019183428361765686,0.03375804965534911,True
42588,418,0,419,3718.0,38786.0,44092.0,0.0037819999999999998,-0.001952,0.001464,0.12250000000000001,-1.9075000000000002,-3.8325000000000005,0.8135,-0.14,-0.50665625,0.92209375,0.7699375,-0.619125,-1.37721875,0.8875000000000001,0.019461495889882358,0.03430488220857535,True
42589,419,0,420,3718.0,38784.0,44094.0,0.002989,6.1e-05,0.000183,0.28,-1.8900000000000001,-3.7450000000000006,0.80140625,-0.136875,-0.505625,0.9244375,0.76953125,-0.61428125,-1.37515625,0.8806875000000001,0.01939549829430831,0.03426703037542873,True
42590,420,0,421,3717.0,38785.0,44093.0,0.0017079999999999999,0.0008539999999999999,-0.001464,0.42000000000000004,-1.3650000000000002,-3.7800000000000002,0.80053125,-0.14128125,-0.50878125,0.91934375,0.76909375,-0.61446875,-1.3750625,0.87965625,0.019223957453885734,0.03413907847517618,True
42591,421,0,422,3717.0,38785.0,44094.0,-0.0006709999999999999,0.0015249999999999999,-0.002013,0.5075000000000001,-1.2950000000000002,-3.7100000000000004,0.8183125,-0.1449375,-0.5136875,0.94215625,0.76396875,-0.61515625,-1.372125,0.88453125,0.019102813942121533,0.033833882656655684,True
42592,422,0,423,3718.0,38788.0,44095.0,-0.0026839999999999998,-0.00061,-0.0013419999999999999,0.49000000000000005,-1.155,-3.6400000000000006,0.8190937500000001,-0.14015625,-0.51125,0.9296562500000001,0.773,-0.61490625,-1.37753125,0.8843125000000001,0.01928709356754101,0.03413575739365901,True
42593,423,0,424,3718.0,38788.0,44099.0,-0.0030499999999999998,0.000305,-0.000732,0.36750000000000005,-1.1725,-3.7100000000000004,0.79109375,-0.13671875,-0.5055625,0.9243125,0.7730312500000001,-0.6140625000000001,-1.37525,0.87946875,0.019393131467022158,0.03427306134914927,True
42594,424,0,425,3719.0,38789.0,44099.0,-0.002989,0.000244,0.000183,0.5075000000000001,-1.33,-3.8325000000000005,0.801125,-0.13690625,-0.5015000000000001,0.92925,0.76978125,-0.613625,-1.37546875,0.8798125,0.01936808373411068,0.03444148199232773,True
42595,425,0,426,3718.0,38788.0,44098.0,0.000732,0.000183,0.002623,0.49000000000000005,-1.3825,-3.6925000000000003,0.81434375,-0.13928125,-0.5084062500000001,0.93265625,0.7671875,-0.6167812500000001,-1.3774375,0.8836875000000001,0.019397336928441856,0.03424424747376484,True
42596,426,0,427,3718.0,38789.0,44098.0,0.000976,-0.001464,0.00183,0.36750000000000005,-1.5575,-3.7800000000000002,0.80465625,-0.13759375000000001,-0.507,0.9293125,0.771,-0.61440625,-1.37571875,0.86765625,0.019371277745121315,0.03423425198547332,True
42597,427,0,428,3719.0,38791.0,44102.0,0.002257,-0.0013419999999999999,0.000305,0.1925,-1.61,-3.8150000000000004,0.80559375,-0.13815625,-0.51128125,0.93403125,0.76953125,-0.6139375,-1.37521875,0.88478125,0.01932974965911082,0.03404650452520729,True
42598,428,0,429,3720.0,38791.0,44102.0,0.001281,-0.001098,-0.0011589999999999999,0.22750000000000004,-1.6450000000000002,-3.7450000000000006,0.80971875,-0.13703125,-0.5075625,0.92825,0.777,-0.61559375,-1.37553125,0.87165625,0.019441436386233833,0.03420494891116812,True
42599,429,0,430,3719.0,38791.0,44102.0,0.000732,0.0,-0.002257,0.3325,-1.6975000000000002,-3.7975000000000003,0.80525,-0.13771875,-0.50846875,0.931875,0.76915625,-0.61153125,-1.3706875,0.88025,0.019251646522399943,0.0339848397880428,True
42600,430,0,431,3720.0,38792.0,44105.0,-0.000793,0.0013419999999999999,-0.0011589999999999999,0.43750000000000006,-1.61,-3.8500000000000005,0.79771875,-0.14034375,-0.51,0.933,0.78903125,-0.624625,-1.382875,0.90375,0.019666543145327085,0.03438834253409041,True
42601,431,0,432,3720.0,38793.0,44102.0,-0.001403,0.000305,0.002928,0.385,-1.5750000000000002,-3.8850000000000002,0.80634375,-0.13428125,-0.50821875,0.9283125,0.78971875,-0.6215,-1.38146875,0.88565625,0.01978834555165201,0.034405022364988234,True
42602,432,0,433,3721.0,38796.0,44107.0,-0.0011589999999999999,-0.001281,0.003904,0.35000000000000003,-1.4000000000000001,-3.9200000000000004,0.80515625,-0.1375,-0.50821875,0.92940625,0.77709375,-0.6174375,-1.37746875,0.8777812500000001,0.019495835015321962,0.03425282515617323,True
42603,433,0,434,3720.0,38795.0,44107.0,-0.00122,0.000488,0.002196,0.43750000000000006,-1.4525000000000001,-3.8850000000000002,0.80475,-0.13778125,-0.508875,0.9301875000000001,0.76284375,-0.61490625,-1.37975,0.89446875,0.019383579817615598,0.03431377377633744,True
42604,434,0,435,3722.0,38797.0,44108.0,-0.001037,0.001769,0.0021349999999999997,0.5950000000000001,-1.5050000000000001,-3.7100000000000004,0.81196875,-0.14015625,-0.51078125,0.935125,0.79015625,-0.6213125,-1.38040625,0.8972187500000001,0.019542266481528965,0.03426363594948367,True
42605,435,0,436,3722.0,38794.0,44108.0,-0.000732,-0.001647,-0.005246,0.2625,-1.7675,-3.7450000000000006,0.813625,-0.1411875,-0.50596875,0.93375,0.7875625,-0.6227812500000001,-1.3836875,0.8924375,0.019558868882856198,0.03457806317541531,True
42606,436,0,437,3722.0,38797.0,44108.0,-0.0006709999999999999,-0.001037,-0.004392,0.21000000000000002,-1.9250000000000003,-3.7625,0.811,-0.1405,-0.51028125,0.934,0.7860312500000001,-0.6227812500000001,-1.3825,0.89615625,0.01958679018033351,0.03436299615877081,True
42607,437,0,438,3722.0,38797.0,44109.0,-0.000183,0.001647,-0.001952,0.56,-1.6975000000000002,-3.7800000000000002,0.80615625,-0.1376875,-0.50725,0.9273125,0.764125,-0.6095625,-1.3704687500000001,0.869,0.01917445708350159,0.034024548718675135,True
42608,438,0,439,3721.0,38798.0,44112.0,-0.000183,0.0048189999999999995,-0.000183,0.805,-1.715,-3.9025000000000003,0.80559375,-0.14140625,-0.5095625,0.9282812500000001,0.76096875,-0.6195,-1.37996875,0.87190625,0.019419311927537118,0.03429500873597411,True
42609,439,0,440,3722.0,38800.0,44113.0,0.000549,0.004331,0.002013,0.7175,-1.8200000000000003,-3.8850000000000002,0.804625,-0.137125,-0.50884375,0.93525,0.75475,-0.61128125,-1.3738125,0.90340625,0.01926580925160083,0.03408903372325306,True
42610,440,0,441,3722.0,38799.0,44114.0,0.001403,-0.003965,0.001037,0.14,-2.2750000000000004,-3.8850000000000002,0.80490625,-0.13071875,-0.5084062500000001,0.93378125,0.77696875,-0.6104375,-1.3719375,0.89353125,0.019492491752737023,0.03403489583718232,True
42611,441,0,442,3723.0,38797.0,44115.0,0.002379,-0.0053679999999999995,-0.0008539999999999999,-0.0175,-2.415,-3.9375000000000004,0.8115,-0.14146875,-0.5078125,0.928125,0.79015625,-0.61990625,-1.3706875,0.8690625000000001,0.019432953770894233,0.03401070625303315,True
42612,442,0,443,3723.0,38798.0,44115.0,0.003477,-0.0028669999999999998,-0.000244,0.10500000000000001,-2.2925000000000004,-3.7800000000000002,0.79378125,-0.141875,-0.50515625,0.9316875,0.75915625,-0.61603125,-1.3788125,0.88453125,0.01926209165013146,0.03442463078207462,True
42613,443,0,444,3725.0,38800.0,44113.0,0.0032329999999999998,-0.000793,0.002257,0.35000000000000003,-1.8900000000000001,-3.7975000000000003,0.80565625,-0.1385,-0.509875,0.93359375,0.7661250000000001,-0.61321875,-1.3731875,0.8791875,0.019287146261599775,0.03402459781610016,True
42614,444,0,445,3724.0,38796.0,44113.0,0.0018909999999999999,0.0,0.0025009999999999998,0.43750000000000006,-1.6450000000000002,-3.6925000000000003,0.80978125,-0.1371875,-0.50790625,0.93071875,0.7764375,-0.617,-1.3748125,0.879,0.019491103708819107,0.034164045547134585,True
42615,445,0,446,3726.0,38800.0,44114.0,-0.001464,0.0011589999999999999,-0.000488,0.47250000000000003,-1.1025,-3.6225000000000005,0.81125,-0.13859375000000002,-0.50709375,0.92809375,0.7681875,-0.616,-1.37671875,0.8849375,0.019394144052648683,0.034268614810573174,True
42616,446,0,447,3726.0,38800.0,44112.0,-0.003843,0.001403,-0.00244,0.6125,-0.9100000000000001,-3.6225000000000005,0.8056875,-0.13803125,-0.50834375,0.93259375,0.76803125,-0.61440625,-1.374875,0.87903125,0.019353503601168522,0.03414918300090149,True
42617,447,0,448,3724.0,38800.0,44112.0,-0.006222,0.0017079999999999999,-0.0023179999999999997,0.7175,-0.7875000000000001,-3.4825000000000004,0.8099375,-0.13946875,-0.5094062500000001,0.9310625,0.76803125,-0.6178125,-1.37575,0.8743125,0.019430798329461645,0.03414061653350147,True
42618,448,0,449,3722.0,38801.0,44108.0,-0.007625,-0.000732,-0.002989,0.56,-0.8750000000000001,-3.5000000000000004,0.80540625,-0.13809375000000002,-0.50815625,0.92759375,0.77415625,-0.61521875,-1.37234375,0.87984375,0.019383333735354273,0.03406021566296965,True
42619,449,0,450,3723.0,38800.0,44109.0,-0.007442,-0.001281,-0.001098,0.42000000000000004,-1.3125000000000002,-3.5700000000000003,0.80534375,-0.139125,-0.51009375,0.93034375,0.76053125,-0.61540625,-1.3763750000000001,0.88690625,0.01934890877537315,0.03413731275645163,True
42620,450,0,451,3722.0,38799.0,44109.0,0.0035989999999999998,0.00061,0.003477,0.35000000000000003,-2.2750000000000004,-3.9025000000000003,0.80540625,-0.13809375000000002,-0.5076875,0.932125,0.77434375,-0.61403125,-1.374,0.8748125,0.019336024041165543,0.03414173957594389,True
42621,451,0,452,3721.0,38800.0,44106.0,0.007076,0.0018909999999999999,0.002379,0.385,-2.5725000000000002,-3.8850000000000002,0.8112812500000001,-0.139625,-0.50725,0.92909375,0.7685625,-0.6158125,-1.3774375,0.8851875,0.0193447809208004,0.03428980959957049,True
42622,452,0,453,3721.0,38798.0,44103.0,0.008479,0.0018909999999999999,0.000549,0.4025,-2.6075000000000004,-3.7975000000000003,0.8056875,-0.13815625,-0.5041875,0.9331875000000001,0.77009375,-0.61415625,-1.3743125,0.8798750000000001,0.01933846503472976,0.03429156947602029,True
42623,453,0,454,3720.0,38797.0,44100.0,0.007503,-0.000976,-0.0006709999999999999,0.21000000000000002,-2.5025000000000004,-3.7450000000000006,0.81459375,-0.1375,-0.507375,0.92778125,0.76846875,-0.6158750000000001,-1.37678125,0.8855000000000001,0.01943359722130536,0.03425991032649186,True
42624,454,0,455,3720.0,38797.0,44100.0,0.004148,-0.0023179999999999997,-0.002928,0.12250000000000001,-2.31,-3.7450000000000006,0.8062812500000001,-0.13634375,-0.50996875,0.94625,0.7742187500000001,-0.613625,-1.374625,0.8716875000000001,0.019390936930257126,0.0340756267334,True
42625,455,0,456,3718.0,38797.0,44100.0,-0.001281,-0.001769,-0.0011589999999999999,0.36750000000000005,-1.4700000000000002,-3.6575,0.80834375,-0.14321875,-0.50821875,0.94003125,0.77471875,-0.61825,-1.37878125,0.8863125000000001,0.01929589836808059,0.034302770153708625,True
42626,456,0,457,3718.0,38797.0,44098.0,-0.003477,0.0018909999999999999,-0.0006709999999999999,0.5950000000000001,-1.0675000000000001,-3.7625,0.81703125,-0.1446875,-0.51371875,0.9422812500000001,0.775,-0.61375,-1.37540625,0.8804375,0.019056929561728712,0.033957584422909484,True
42627,457,0,458,3718.0,38798.0,44098.0,-0.005795,0.00244,0.000976,0.77,-0.8925000000000001,-3.7275000000000005,0.8191875000000001,-0.14546875,-0.5132187500000001,0.9368125,0.77196875,-0.61521875,-1.3763125,0.88253125,0.019083722341488432,0.034011787567638126,True
42628,458,0,459,3716.0,38799.0,44096.0,-0.007076,0.002013,0.002074,0.665,-0.8575,-3.7800000000000002,0.8,-0.1355625,-0.50446875,0.9230625,0.77446875,-0.61646875,-1.3708125,0.8790625,0.019535955984751063,0.03414726075485363,True
42629,459,0,460,3716.0,38797.0,44096.0,-0.00671,-0.000488,0.0023179999999999997,0.47250000000000003,-0.9975,-3.7625,0.8033125,-0.13859375000000002,-0.5086875,0.9295,0.76828125,-0.60940625,-1.37453125,0.87934375,0.019131404277581872,0.03412255152496659,True
42630,460,0,461,3714.0,38799.0,44094.0,0.0011589999999999999,0.000183,0.000305,0.36750000000000005,-1.6800000000000002,-3.6575,0.8108125,-0.1415625,-0.51478125,0.9429375,0.7650625,-0.61434375,-1.37434375,0.8739375,0.019207550475523034,0.033875260320771844,True
42631,461,0,462,3712.0,38794.0,44092.0,0.0040869999999999995,0.001952,-0.0006709999999999999,0.36750000000000005,-1.9075000000000002,-3.6750000000000003,0.8225,-0.1481875,-0.51134375,0.94196875,0.769,-0.614375,-1.37490625,0.88053125,0.0189396440088363,0.034032145438960985,True
42632,462,0,463,3712.0,38795.0,44088.0,0.005673,0.0018909999999999999,0.000305,0.22750000000000004,-1.8725000000000003,-3.6400000000000006,0.8103125,-0.13559375,-0.5048125,0.9285,0.775625,-0.61725,-1.37640625,0.8796875000000001,0.0195658024352842,0.034346618721868866,True
42633,463,0,464,3711.0,38792.0,44086.0,0.0042699999999999995,-0.000183,-0.002562,0.29750000000000004,-1.9075000000000002,-3.6575,0.81190625,-0.14715625000000002,-0.513,0.93478125,0.76775,-0.6149375,-1.3707500000000001,0.88534375,0.019003958470339404,0.03380861819220954,True
42634,464,0,465,3710.0,38793.0,44080.0,0.0017079999999999999,-0.001769,-0.001586,0.14,-1.9425000000000001,-3.5700000000000003,0.7986875,-0.13628125,-0.50584375,0.9405625,0.77684375,-0.6135625,-1.374125,0.87875,0.01939098616870272,0.03421916026661018,True
42635,465,0,466,3711.0,38790.0,44082.0,-0.0011589999999999999,-0.001037,-0.000915,0.35000000000000003,-1.61,-3.6225000000000005,0.8185,-0.14209375,-0.5084375,0.9225,0.76815625,-0.612,-1.37909375,0.8868125,0.019092566634162197,0.03430604175927283,True
42636,466,0,467,3708.0,38790.0,44081.0,-0.0015249999999999999,-0.000122,-0.000488,0.42000000000000004,-1.5050000000000001,-3.8850000000000002,0.799,-0.13553125,-0.5051875,0.9260625,0.7739375000000001,-0.61521875,-1.3735625,0.88025,0.019487435999324607,0.0342236136529902,True
42637,467,0,468,3707.0,38790.0,44082.0,-0.002623,0.002745,-0.0008539999999999999,0.7175,-1.435,-3.8325000000000005,0.795,-0.14053125,-0.5094375,0.93496875,0.767875,-0.615,-1.37546875,0.8804062500000001,0.019275594149908593,0.03412867988891831,True
42638,468,0,469,3706.0,38790.0,44081.0,-0.002745,0.003172,-0.001037,0.8750000000000001,-1.4700000000000002,-3.7100000000000004,0.81271875,-0.14071875,-0.510625,0.9361875000000001,0.7680625,-0.61446875,-1.37721875,0.88596875,0.01924680986665617,0.034148491942207024,True
42639,469,0,470,3707.0,38791.0,44080.0,-0.001464,0.002623,0.001586,0.7175,-1.6800000000000002,-3.7450000000000006,0.81340625,-0.1405625,-0.5093125000000001,0.93196875,0.77459375,-0.6159687500000001,-1.37565625,0.8794375,0.019312920601591194,0.034140742665522195,True
42640,470,0,471,3706.0,38791.0,44081.0,0.001098,-0.0030499999999999998,0.002806,0.035,-2.205,-3.8500000000000005,0.8098125,-0.13959375000000002,-0.50834375,0.9263750000000001,0.767875,-0.61440625,-1.37434375,0.87996875,0.01929002451562284,0.03412896146328907,True
42641,471,0,472,3703.0,38790.0,44079.0,0.002928,-0.004575,0.0015249999999999999,-0.052500000000000005,-2.3975000000000004,-3.8150000000000004,0.8126875,-0.14165625,-0.5108125,0.93521875,0.7678125,-0.6091562500000001,-1.379375,0.8853125000000001,0.018996994258996588,0.03422316349397887,True
42642,472,0,473,3702.0,38789.0,44079.0,0.003721,-0.0026839999999999998,-0.0008539999999999999,0.08750000000000001,-2.31,-3.8325000000000005,0.81115625,-0.14190625,-0.51025,0.9322812500000001,0.7748125,-0.6177812500000001,-1.37834375,0.88471875,0.019330539790217694,0.034206083681091286,True
42643,473,0,474,3703.0,38787.0,44077.0,0.00366,-0.0015249999999999999,-0.0037819999999999998,0.28,-2.2575000000000003,-3.8500000000000005,0.81315625,-0.14040625,-0.5071875,0.91690625,0.77490625,-0.61584375,-1.3755,0.88209375,0.019314288180757568,0.03421853756576225,True
42644,474,0,475,3702.0,38785.0,44073.0,0.0025009999999999998,0.002196,-0.0008539999999999999,0.31500000000000006,-2.1700000000000004,-3.7800000000000002,0.805125,-0.13784375000000001,-0.507875,0.9271875,0.7672187500000001,-0.6137812500000001,-1.37509375,0.86809375,0.019336220435452193,0.034175982108440486,True
42645,475,0,476,3703.0,38784.0,44073.0,0.001098,0.0030499999999999998,0.000183,0.5950000000000001,-1.5575,-3.6925000000000003,0.804625,-0.13125,-0.50821875,0.93325,0.76771875,-0.614,-1.3748125,0.87915625,0.019612821971235882,0.03415173018519841,True
42646,476,0,477,3700.0,38783.0,44073.0,-0.0017079999999999999,0.00183,0.00122,0.5950000000000001,-1.3475000000000001,-3.6925000000000003,0.81096875,-0.1414375,-0.51134375,0.93625,0.768875,-0.616625,-1.37840625,0.88475,0.019303519471089152,0.03416536450156322,True
42647,477,0,478,3699.0,38782.0,44070.0,-0.0050019999999999995,0.000305,0.000122,0.6300000000000001,-1.2600000000000002,-3.7975000000000003,0.8131875000000001,-0.13884375000000002,-0.51128125,0.9361875000000001,0.77015625,-0.6145,-1.3710625,0.88096875,0.019324229620751997,0.03388826344974713,True
42648,478,0,479,3698.0,38779.0,44072.0,-0.0037819999999999998,-0.000122,0.0018909999999999999,0.49000000000000005,-1.2775,-3.7975000000000003,0.81190625,-0.140625,-0.50075,0.92790625,0.77459375,-0.61553125,-1.37671875,0.8788125,0.019292951477535143,0.034518597878222534,True
42649,479,0,480,3698.0,38781.0,44070.0,-0.000732,0.0017079999999999999,0.0025009999999999998,0.5425000000000001,-1.3825,-3.7800000000000002,0.80565625,-0.136625,-0.5093125000000001,0.93384375,0.757375,-0.614625,-1.3750625,0.876,0.019419349268981347,0.03411814256615132,True
42650,480,0,481,3697.0,38782.0,44069.0,0.000244,0.001098,-0.003294,0.45500000000000007,-1.4700000000000002,-3.8325000000000005,0.8115625,-0.14159375,-0.51009375,0.9285625000000001,0.7710312500000001,-0.61771875,-1.3755,0.88671875,0.019340744154045547,0.034104007802801914,True
42651,481,0,482,3697.0,38780.0,44066.0,-0.00061,-0.0015249999999999999,-0.003294,0.385,-1.6975000000000002,-3.7975000000000003,0.80396875,-0.13746875,-0.50728125,0.9294375,0.77515625,-0.6118750000000001,-1.3741875000000001,0.8788750000000001,0.019275502171208006,0.03416488705303372,True
42652,482,0,483,3698.0,38782.0,44067.0,-0.00061,-0.002806,-0.003538,0.15750000000000003,-1.9425000000000001,-3.6050000000000004,0.80753125,-0.141375,-0.50696875,0.9283750000000001,0.7682187500000001,-0.61103125,-1.37815625,0.88371875,0.019083160117477807,0.03432824242304836,True
42653,483,0,484,3696.0,38783.0,44066.0,0.000305,-0.003111,-0.000305,0.24500000000000002,-2.0300000000000002,-3.7450000000000006,0.805,-0.14215625,-0.51021875,0.92840625,0.76790625,-0.6099687500000001,-1.3776875,0.8778750000000001,0.01900906517810999,0.03418234029400827,True
42654,484,0,485,3695.0,38779.0,44063.0,0.002623,-0.000976,0.002013,0.2625,-1.995,-3.8850000000000002,0.80496875,-0.13865625,-0.5074375,0.929625,0.77309375,-0.6139375,-1.3745625000000001,0.87871875,0.01930943596488778,0.034173002982810056,True
42655,485,0,486,3695.0,38781.0,44061.0,0.001769,-0.00183,-0.000732,0.24500000000000002,-1.9425000000000001,-3.7975000000000003,0.799125,-0.14,-0.50921875,0.93290625,0.7681250000000001,-0.61525,-1.3786875,0.8834062500000001,0.01930713683590457,0.03425979968428233,True
42656,486,0,487,3694.0,38779.0,44060.0,-0.000732,-0.00244,-0.000549,0.24500000000000002,-1.8200000000000003,-3.6925000000000003,0.8031875,-0.13790625,-0.50565625,0.92253125,0.77184375,-0.61609375,-1.374625,0.879125,0.019425807557301816,0.03424557998394064,True
42657,487,0,488,3694.0,38777.0,44061.0,-0.000488,-0.001586,0.001647,0.29750000000000004,-1.5575,-3.7100000000000004,0.8085,-0.1389375,-0.50934375,0.9221875,0.768,-0.6159375,-1.37559375,0.88553125,0.019377689758921433,0.034137132259220535,True
42658,488,0,489,3693.0,38777.0,44061.0,-0.0008539999999999999,0.001647,0.0030499999999999998,0.5775,-1.3475000000000001,-3.8325000000000005,0.8085625,-0.13803125,-0.5074375,0.92790625,0.775375,-0.61684375,-1.37559375,0.87984375,0.01945060483231121,0.03421225365416326,True
42659,489,0,490,3693.0,38778.0,44059.0,0.0013419999999999999,0.008052,-0.000549,0.9450000000000001,-1.1375000000000002,-3.7975000000000003,0.80553125,-0.1385625,-0.50778125,0.9282812500000001,0.76890625,-0.61415625,-1.37234375,0.87625,0.019321960304855054,0.03407499553524692,True
42660,490,0,491,3692.0,38777.0,44060.0,6.1e-05,0.0057339999999999995,-0.002013,0.8575,-1.225,-3.6575,0.80503125,-0.1379375,-0.5068125,0.9303125,0.76778125,-0.6150625000000001,-1.37459375,0.87553125,0.019383456775703904,0.034198823380177275,True
42661,491,0,492,3690.0,38777.0,44061.0,-0.000305,0.0013419999999999999,-0.002745,0.56,-1.3475000000000001,-3.7275000000000005,0.80878125,-0.13684375000000001,-0.50834375,0.9314375,0.76996875,-0.6195625,-1.38128125,0.88978125,0.019607121369439443,0.03439296430317126,True
42662,492,0,493,3691.0,38776.0,44058.0,-0.002074,-0.002257,-0.000305,0.3325,-1.5050000000000001,-3.7100000000000004,0.8096875,-0.137875,-0.50671875,0.9309375,0.77540625,-0.61684375,-1.3784375,0.8870625,0.019456952112311313,0.034348795113962396,True
42663,493,0,494,3692.0,38778.0,44061.0,-0.0015249999999999999,-0.004331,-0.001281,0.10500000000000001,-1.5925000000000002,-3.7450000000000006,0.81278125,-0.14109375,-0.5114062500000001,0.93690625,0.77965625,-0.620625,-1.37978125,0.88903125,0.019476810600868172,0.03421522791887735,True
42664,494,0,495,3693.0,38779.0,44059.0,0.002257,0.001098,0.001952,0.43750000000000006,-1.225,-3.8150000000000004,0.82065625,-0.145,-0.511625,0.94778125,0.7810625,-0.621125,-1.37425,0.87875,0.01933806842701136,0.03399607870183355,True
42665,495,0,496,3691.0,38777.0,44062.0,0.0034159999999999998,0.001281,0.006954,0.385,-0.9800000000000001,-3.7800000000000002,0.8375,-0.14400000000000002,-0.505375,0.9208125,0.7745625,-0.6158125,-1.3815,0.89053125,0.01916704963527001,0.034518251482378894,True
42666,496,0,497,3692.0,38780.0,44063.0,-0.0028669999999999998,-0.010675,0.0023179999999999997,-0.14,-1.3650000000000002,-3.6575,0.8085625,-0.14271875,-0.51534375,0.94459375,0.78153125,-0.6189375,-1.378875,0.88475,0.01934359474286817,0.03402559215095232,True
42667,497,0,498,3690.0,38780.0,44062.0,-0.009211,-0.026900999999999998,-0.012199999999999999,-0.7350000000000001,-2.555,-3.4475000000000002,0.8271875,-0.14871875,-0.51559375,0.9426875,0.77125,-0.61534375,-1.36971875,0.8823125,0.018956672096037658,0.03366710559217374,True
42668,498,0,499,3691.0,38778.0,44063.0,-0.008723,-0.028548,-0.020801,-1.2600000000000002,-3.6575,-3.3775000000000004,0.82053125,-0.14165625,-0.51015625,0.9374687500000001,0.77878125,-0.6159375,-1.37796875,0.8901875,0.01926724302090871,0.034195506683331385,True
42669,499,0,500,3691.0,38778.0,44062.0,0.01647,0.022082,0.015006,1.2950000000000002,-1.9425000000000001,-4.1475,0.81459375,-0.14825,-0.51,0.94596875,0.7831250000000001,-0.61771875,-1.3760625,0.89109375,0.019070359636796156,0.03412911282039915,True
42670,500,0,501,3690.0,38776.0,44063.0,0.01952,0.046726,0.025803,3.0275000000000003,-0.36750000000000005,-4.6375,0.81975,-0.14209375,-0.51515625,0.93653125,0.78009375,-0.62121875,-1.38125,0.8715,0.019459840914658216,0.034123368628416646,True
42671,501,0,502,3691.0,38777.0,44063.0,0.009028,0.047640999999999996,0.019581,3.115,0.36750000000000005,-4.2700000000000005,0.825375,-0.14771875,-0.51084375,0.9261875,0.7680625,-0.61234375,-1.3725625000000001,0.8760625,0.01887772268742183,0.03396262202526844,True
42672,502,0,503,3691.0,38778.0,44066.0,-0.008357,0.023607,-0.000549,1.8025000000000002,0.24500000000000002,-3.7800000000000002,0.8043125,-0.1380625,-0.50553125,0.9174375,0.7555937500000001,-0.6131875,-1.3721875000000001,0.87571875,0.019303676128904476,0.03415772684164502,True
42673,503,0,504,3690.0,38781.0,44066.0,-0.019337,-0.0060999999999999995,-0.017324,0.22750000000000004,-0.31500000000000006,-3.325,0.79625,-0.13534375,-0.50246875,0.91721875,0.76353125,-0.614,-1.3731875,0.8799375,0.019446504022101244,0.03431649058676605,True
42674,504,0,505,3690.0,38780.0,44067.0,-0.012505,-0.02745,-0.0066489999999999995,-1.12,-1.6625,-3.535,0.792375,-0.13553125,-0.5030625,0.91603125,0.7704375,-0.61384375,-1.3735625,0.87725,0.019432661751580347,0.0343073622397328,True
42675,505,0,506,3689.0,38783.0,44072.0,0.0008539999999999999,-0.022631,0.001403,-1.0325000000000002,-2.415,-3.7450000000000006,0.7915625000000001,-0.12909375,-0.50225,0.9166875,0.7695625,-0.6136875,-1.3740625,0.87696875,0.01968797848757932,0.03435841225661047,True
42676,506,0,507,3689.0,38780.0,44066.0,0.012871,-0.014579,0.003172,-0.6300000000000001,-2.9575000000000005,-3.8150000000000004,0.791875,-0.1340625,-0.50209375,0.9173125,0.767375,-0.6145625,-1.3747500000000001,0.8813125,0.01952096446971178,0.03439073291362477,True
42677,507,0,508,3690.0,38779.0,44065.0,0.015493999999999999,-0.008784,0.003538,-0.2625,-3.0100000000000002,-3.6925000000000003,0.8013125,-0.13521875,-0.50846875,0.93071875,0.774875,-0.6155625,-1.3761875000000001,0.8855625,0.019513823825882508,0.0341942125861105,True
42678,508,0,509,3690.0,38778.0,44065.0,0.009394,-0.005612,0.002623,-0.12250000000000001,-2.6950000000000003,-3.7275000000000005,0.80684375,-0.13728125,-0.5048125,0.92759375,0.76896875,-0.61415625,-1.3748125,0.8797812500000001,0.01937401368369066,0.034285967630302686,True
42679,509,0,510,3692.0,38779.0,44068.0,0.000793,0.0062829999999999995,-0.000366,0.6825000000000001,-1.8200000000000003,-3.6050000000000004,0.8110937500000001,-0.13978125,-0.51059375,0.9284375,0.7742187500000001,-0.61821875,-1.37853125,0.879,0.01943428583759741,0.03419967418327252,True
42680,510,0,511,3691.0,38782.0,44069.0,0.002013,0.016226,-0.000976,1.2950000000000002,-1.2600000000000002,-3.7275000000000005,0.80553125,-0.1379375,-0.50771875,0.928,0.7681250000000001,-0.6147812500000001,-1.36725,0.878625,0.01937225219094726,0.03388350136494891,True
42681,511,0,512,3690.0,38783.0,44070.0,0.0015249999999999999,0.024156,-0.004514,1.6975000000000002,-0.9800000000000001,-3.99,0.80565625,-0.138,-0.5055937500000001,0.92778125,0.76803125,-0.6148750000000001,-1.3744375,0.87853125,0.01937344796591492,0.03424090681813143,True
42682,512,0,513,3689.0,38785.0,44072.0,-0.00122,0.022448,-0.000122,1.6625,-0.5075000000000001,-4.0600000000000005,0.8053125,-0.13690625,-0.5081875,0.935,0.76753125,-0.61359375,-1.3769375,0.88678125,0.01936683870066719,0.034233839288133165,True
42683,513,0,514,3690.0,38785.0,44073.0,-0.005246,0.012565999999999999,0.0040869999999999995,1.1025,-0.22750000000000004,-4.025,0.8123750000000001,-0.13346875,-0.50903125,0.93275,0.77453125,-0.61575,-1.37765625,0.88478125,0.019592384956785797,0.03422794411915009,True
42684,514,0,515,3690.0,38785.0,44078.0,-0.009211,-0.013847,-0.00122,-0.29750000000000004,-1.0850000000000002,-3.6400000000000006,0.8120625,-0.1388125,-0.5108125,0.93396875,0.7769375000000001,-0.61784375,-1.37803125,0.8835000000000001,0.019458700561457584,0.03417202624809598,True
42685,515,0,516,3690.0,38787.0,44077.0,-0.0075639999999999995,-0.017751,-0.003904,-0.525,-1.8200000000000003,-3.5875000000000004,0.8082812500000001,-0.1405625,-0.511,0.93496875,0.77575,-0.6184375,-1.3780625,0.88471875,0.019411264423260004,0.03416582727700351,True
42686,516,0,517,3691.0,38785.0,44076.0,-0.001281,-0.016592,-0.00042699999999999997,-0.47250000000000003,-2.5725000000000002,-3.5700000000000003,0.8094375,-0.14115625,-0.5058125,0.9334687500000001,0.7736875,-0.61421875,-1.3749375,0.8853125000000001,0.019219074340923376,0.03425131588994061,True
42687,517,0,518,3691.0,38788.0,44074.0,0.004514,-0.011101999999999999,0.003355,-0.42000000000000004,-2.7125000000000004,-3.7625,0.812875,-0.13984375000000002,-0.508,0.932875,0.77384375,-0.611625,-1.3782812500000001,0.88371875,0.019169041052754538,0.03429236367218525,True
42688,518,0,519,3691.0,38786.0,44075.0,0.008539999999999999,-0.0057339999999999995,0.0026839999999999998,-0.21000000000000002,-2.6775,-3.8500000000000005,0.81075,-0.14153125,-0.5093125000000001,0.9333125,0.77525,-0.61721875,-1.3766562500000001,0.88509375,0.01932336487037148,0.03417880360025762,True
42689,519,0,520,3692.0,38788.0,44074.0,0.00671,0.003172,-0.001098,0.385,-2.1,-3.7100000000000004,0.8122812500000001,-0.14153125,-0.51009375,0.93309375,0.77546875,-0.61703125,-1.37796875,0.874,0.0193158953722334,0.03419796944938708,True
42690,520,0,521,3692.0,38786.0,44079.0,0.003111,0.006344,-0.0021349999999999997,0.7000000000000001,-1.4875,-3.6400000000000006,0.8089375,-0.13778125,-0.5078125,0.9276875,0.77075,-0.61515625,-1.374875,0.87853125,0.019393539295530574,0.034170119064625935,True
42691,521,0,522,3691.0,38792.0,44079.0,-0.00122,0.009943,-0.0013419999999999999,0.9100000000000001,-1.0150000000000001,-3.7800000000000002,0.80521875,-0.137625,-0.5071875,0.9323125,0.76790625,-0.615,-1.37284375,0.88421875,0.019393662400975016,0.034117431161022296,True
42692,522,0,523,3693.0,38790.0,44081.0,-0.0023179999999999997,0.010797,-0.0017079999999999999,0.9800000000000001,-0.6825000000000001,-3.7975000000000003,0.80971875,-0.14090625,-0.510625,0.93559375,0.7680625,-0.617375,-1.3775,0.88484375,0.01935497793733085,0.03415919613831149,True
42693,523,0,524,3693.0,38789.0,44080.0,-0.004941,0.010187,-0.0034159999999999998,0.9625000000000001,-0.7350000000000001,-3.7800000000000002,0.81171875,-0.1408125,-0.5076875,0.92721875,0.77128125,-0.614625,-1.3774375,0.879,0.019249226831609255,0.03427256987629268,True
42694,524,0,525,3693.0,38790.0,44082.0,-0.005795,0.00122,0.001464,0.43750000000000006,-1.33,-3.9200000000000004,0.80475,-0.1345,-0.50725,0.9171875,0.7681875,-0.6148125,-1.374125,0.87884375,0.01951314884076407,0.034163739636342144,True
42695,525,0,526,3692.0,38792.0,44085.0,-0.00366,-0.004758,0.005124,0.07,-1.54,-3.8500000000000005,0.80484375,-0.1378125,-0.50828125,0.93403125,0.76446875,-0.61475,-1.375,0.8797812500000001,0.01937608547720371,0.0341564039408867,True
42696,526,0,527,3693.0,38791.0,44085.0,-0.002379,-0.009455,0.0042699999999999995,-0.21000000000000002,-2.0475000000000003,-3.7625,0.812,-0.14053125,-0.5034375,0.9279375,0.7741250000000001,-0.61603125,-1.3750625,0.8778750000000001,0.019316680059869522,0.03434966908948501,True
42697,527,0,528,3693.0,38792.0,44084.0,0.0021349999999999997,-0.010797,0.000915,-0.2625,-2.5200000000000005,-3.7450000000000006,0.80453125,-0.1326875,-0.507375,0.92771875,0.7676875,-0.61375,-1.37459375,0.87809375,0.019544461936925498,0.03417665553758866,True
42698,528,0,529,3693.0,38790.0,44086.0,0.005795,-0.010187,-0.000488,-0.21000000000000002,-2.555,-3.6925000000000003,0.8081875000000001,-0.1413125,-0.5111875,0.9361875000000001,0.7661250000000001,-0.61353125,-1.3771875,0.8834375,0.019185331239295455,0.034125136995579196,True
42699,529,0,530,3692.0,38788.0,44083.0,0.0062829999999999995,0.0011589999999999999,-0.0021349999999999997,0.2625,-1.8725000000000003,-3.7800000000000002,0.81259375,-0.13940625,-0.50725,0.93478125,0.7735,-0.6111562500000001,-1.37615625,0.88509375,0.019168136401555697,0.03424105059252226,True
42700,530,0,531,3695.0,38792.0,44085.0,0.0025009999999999998,0.004148,-0.002074,0.5075000000000001,-1.4000000000000001,-3.7100000000000004,0.81365625,-0.14040625,-0.5104375,0.93203125,0.77371875,-0.61721875,-1.37615625,0.8859375,0.019369064590206805,0.034115440552585655,True
42701,531,0,532,3693.0,38792.0,44086.0,-0.000549,0.006039,-0.001586,0.7525000000000001,-0.9625000000000001,-3.7275000000000005,0.81234375,-0.1391875,-0.5076875,0.927875,0.77646875,-0.61875,-1.3744375,0.8783125,0.019479563340949482,0.03415839267372922,True
42702,532,0,533,3695.0,38794.0,44092.0,-0.004392,0.0062829999999999995,-0.001098,0.8225000000000001,-0.8225000000000001,-3.7450000000000006,0.7953125,-0.13778125,-0.507375,0.92809375,0.7673125000000001,-0.61025,-1.37634375,0.8765625,0.01919804756148353,0.03424326051699232,True
42703,533,0,534,3694.0,38794.0,44094.0,-0.006771,0.0046359999999999995,0.000183,0.8400000000000001,-0.805,-3.8150000000000004,0.80515625,-0.1373125,-0.5071875,0.9275625000000001,0.7556875000000001,-0.6138125,-1.37434375,0.8643125,0.019359048908006427,0.03417452914422663,True
42704,534,0,535,3694.0,38798.0,44094.0,-0.004575,0.002013,0.0013419999999999999,0.5425000000000001,-1.4700000000000002,-3.9200000000000004,0.8044687500000001,-0.13728125,-0.507625,0.9276875,0.7614062500000001,-0.61309375,-1.36509375,0.86803125,0.01933168194266517,0.03380506922037298,True
42705,535,0,536,3695.0,38795.0,44095.0,-0.000549,-0.000305,0.001403,0.31500000000000006,-2.1,-3.8675,0.8045,-0.13771875,-0.50803125,0.92721875,0.7621875,-0.61059375,-1.37559375,0.8767812500000001,0.019214286530571823,0.03418885518688602,True
42706,536,0,537,3696.0,38797.0,44095.0,0.000976,-0.003355,0.001098,0.12250000000000001,-2.5375,-3.8150000000000004,0.8083750000000001,-0.1405,-0.5106875,0.92990625,0.7741875,-0.621625,-1.38053125,0.88403125,0.019540749239743516,0.03427208601080799,True
42707,537,0,538,3695.0,38796.0,44096.0,0.004392,-0.00488,-0.00061,-0.1925,-2.7300000000000004,-3.7625,0.802125,-0.1378125,-0.50725,0.929125,0.76090625,-0.61253125,-1.3679375,0.8841875,0.01928768500801802,0.033928162271765296,True
42708,538,0,539,3695.0,38794.0,44096.0,0.008173999999999999,-0.00488,0.001403,-0.15750000000000003,-2.8000000000000003,-3.8675,0.810625,-0.139,-0.5065937500000001,0.9274375,0.77725,-0.6215937500000001,-1.37103125,0.872625,0.01960042696261285,0.03407183143176334,True
42709,539,0,540,3696.0,38793.0,44093.0,0.006039,-0.002562,0.000366,-0.052500000000000005,-2.205,-3.8325000000000005,0.80475,-0.1386875,-0.5079375,0.93284375,0.76146875,-0.61559375,-1.37825,0.8930625,0.019374151801639972,0.03429363726813314,True
42710,540,0,541,3695.0,38794.0,44096.0,0.00366,-0.000305,-0.0011589999999999999,0.17500000000000002,-1.5050000000000001,-3.6750000000000003,0.8123750000000001,-0.13875,-0.5070625,0.92778125,0.78571875,-0.6170625,-1.3688437500000001,0.87284375,0.019430120876526187,0.033970064165813635,True
42711,541,0,542,3695.0,38798.0,44099.0,-0.0018909999999999999,0.001952,-0.0015249999999999999,0.525,-0.9450000000000001,-3.5700000000000003,0.80490625,-0.1384375,-0.50996875,0.9253125,0.7614062500000001,-0.61071875,-1.380875,0.89659375,0.019190063272735584,0.03431348407019065,True
42712,542,0,543,3697.0,38800.0,44100.0,-0.0060999999999999995,0.00366,-0.0034159999999999998,0.7350000000000001,-0.525,-3.535,0.81171875,-0.13734375000000001,-0.5068125,0.9265625000000001,0.78265625,-0.61890625,-1.37021875,0.8729687500000001,0.01956067808658234,0.03403227455419556,True
42713,543,0,544,3696.0,38801.0,44104.0,-0.008296,0.00549,-0.00061,0.9275000000000001,-0.45500000000000007,-3.6225000000000005,0.80521875,-0.138125,-0.508625,0.9300625,0.7615625,-0.6115625,-1.3753125,0.881625,0.01923638533717638,0.03415475178877107,True
