frame_seq,absolute_seq_u64,segment_id,sample_seq,PPG_G,PPG_R,PPG_IR,ACC_X,ACC_Y,ACC_Z,GYRO_X,GYRO_Y,GYRO_Z,Uh1,Uh2,Uh3,Uh4,Uc1,Uc2,Uc3,Uc4,UD1,UD2,parser_valid
23040,46450,6,46212,3622.0,38838.0,44238.0,-0.000976,-0.0028669999999999998,-0.0015249999999999999,0.17500000000000002,-1.6275000000000002,-3.8675,0.72978125,-0.1636875,-0.51803125,0.6693125,0.69496875,-0.58978125,-1.3360625,0.4675625,0.017328082168278743,0.03228722892517335,True
23041,46451,6,46213,3621.0,38839.0,44240.0,-0.002928,-0.002928,0.000122,0.21000000000000002,-1.3825,-3.8325000000000005,0.7285,-0.1598125,-0.5183125000000001,0.6704687500000001,0.6980625,-0.5895625,-1.33609375,0.46921875,0.017476927456517372,0.032277321755647514,True
23042,46452,6,46214,3621.0,38839.0,44241.0,-0.003538,-0.001769,0.002928,0.24500000000000002,-1.3650000000000002,-3.99,0.7285,-0.1600625,-0.52246875,0.6474375,0.6970937500000001,-0.5891875,-1.33515625,0.463,0.01745177631428448,0.0320774615313454,True
23043,46453,6,46215,3621.0,38841.0,44241.0,0.000366,-0.002806,0.0025009999999999998,0.35000000000000003,-1.4175000000000002,-3.7800000000000002,0.73571875,-0.1680625,-0.50846875,0.65509375,0.700875,-0.5915625,-1.3338125,0.46315625,0.017221353868832043,0.032578742342866875,True
23044,46454,6,46216,3621.0,38841.0,44242.0,-6.1e-05,-0.008601,0.000915,-0.14,-1.8025000000000002,-3.7450000000000006,0.74340625,-0.16396875,-0.51578125,0.6535,0.70165625,-0.58996875,-1.33378125,0.46296875,0.01732413751034149,0.032288902786669474,True
23045,46455,6,46217,3620.0,38839.0,44240.0,-0.000305,-0.014457,-0.001098,-0.7000000000000001,-2.0650000000000004,-3.9200000000000004,0.7418750000000001,-0.1693125,-0.5155625,0.655625,0.7021875,-0.5915312500000001,-1.3335625,0.46253125,0.017169274483466748,0.03228918159457439,True
23046,46456,6,46218,3623.0,38838.0,44242.0,-0.000915,-0.011163,-0.004392,-0.56,-2.0650000000000004,-4.077500000000001,0.73625,-0.16684375,-0.52228125,0.6546875,0.70153125,-0.5923125,-1.335875,0.46418750000000003,0.017300884168579105,0.03211232096779763,True
23047,46457,6,46219,3620.0,38839.0,44242.0,-0.002257,0.001037,-0.0013419999999999999,0.1925,-1.8200000000000003,-4.095000000000001,0.719375,-0.16446875,-0.5179375,0.65759375,0.69475,-0.59125,-1.33484375,0.46287500000000004,0.01735500432064251,0.03224437687720099,True
23048,46458,6,46220,3623.0,38840.0,44243.0,0.001769,0.026657,0.007808,2.4325,-0.9975,-3.0975,0.7289375,-0.16146875,-0.51909375,0.6641875,0.6969375,-0.58875,-1.3354375,0.46559375000000003,0.017377103350109297,0.0322214191091036,True
23049,46459,6,46221,3621.0,38837.0,44242.0,0.0037819999999999998,0.028609,0.002013,2.5375,-1.2425000000000002,-2.975,0.7388750000000001,-0.16140625,-0.515,0.66125,0.697375,-0.59003125,-1.3314062500000001,0.46325,0.017430844053929376,0.03222901413142036,True
23050,46460,6,46222,3620.0,38836.0,44242.0,0.0055509999999999995,0.020679,-0.002928,1.7500000000000002,-1.8200000000000003,-3.325,0.7324375,-0.16190625,-0.51190625,0.6589375000000001,0.68790625,-0.5905,-1.334625,0.4633125,0.017429240967040117,0.03247408438056612,True
23051,46461,6,46223,3620.0,38837.0,44238.0,0.006405,0.0055509999999999995,-0.006771,0.5950000000000001,-2.345,-3.7975000000000003,0.73803125,-0.16534375,-0.512625,0.65296875,0.6995625,-0.5923125,-1.3346875,0.46368750000000003,0.017361878839169762,0.032448101047230206,True
23052,46462,6,46224,3620.0,38835.0,44238.0,0.0057339999999999995,-0.008905999999999999,-0.008723,-0.5425000000000001,-2.5200000000000005,-4.1825,0.7406875,-0.16115625,-0.5193125000000001,0.6621875,0.7089375,-0.59,-1.32946875,0.481375,0.01743976209841399,0.03198473122338975,True
23053,46463,6,46225,3622.0,38838.0,44239.0,-0.001769,-0.026047,-0.008113,-1.4525000000000001,-1.6975000000000002,-4.532500000000001,0.73378125,-0.16259375,-0.5185,0.6584375,0.6975,-0.5888125,-1.3423125,0.4526875,0.01733384847275565,0.03250739252781293,True
23054,46464,6,46226,3621.0,38838.0,44241.0,-0.008784,-0.024156,0.001647,-1.155,-0.9625000000000001,-4.322500000000001,0.7397812500000001,-0.16228125000000002,-0.5165625,0.66040625,0.6944375,-0.6025625,-1.3334375,0.45434375,0.01789574764823786,0.03224493320339966,True
23055,46465,6,46227,3622.0,38838.0,44243.0,-0.011773,-0.01769,0.010431,-0.5425000000000001,-0.49000000000000005,-4.095000000000001,0.7400625000000001,-0.16178125000000002,-0.5154375,0.66696875,0.70325,-0.59521875,-1.33315625,0.45146875000000003,0.017622835739161704,0.032278597342168924,True
23056,46466,6,46228,3622.0,38842.0,44246.0,-0.009394,-0.0070149999999999995,0.013725,-0.0175,-0.6125,-3.99,0.73375,-0.16196875,-0.518625,0.66490625,0.71978125,-0.5850625,-1.32834375,0.47153125,0.017209382729858835,0.03196887873886345,True
23057,46467,6,46229,3621.0,38840.0,44245.0,-0.002928,0.003294,0.012383,0.525,-1.0150000000000001,-3.9375000000000004,0.7306875,-0.1600625,-0.5198125,0.6651875,0.7145312500000001,-0.58934375,-1.32771875,0.4735625,0.017458019797702003,0.03189810570681578,True
23058,46468,6,46230,3622.0,38842.0,44244.0,0.0017079999999999999,0.016165,0.0008539999999999999,1.1375000000000002,-1.5925000000000002,-3.6750000000000003,0.7302500000000001,-0.1611875,-0.5168125,0.657625,0.7127187500000001,-0.5949375,-1.33128125,0.4518125,0.017635743128031935,0.03215268671023105,True
23059,46469,6,46231,3622.0,38837.0,44242.0,0.0028669999999999998,0.016774999999999998,-0.0042699999999999995,1.4700000000000002,-1.8200000000000003,-3.5525,0.73934375,-0.16371875,-0.5172187500000001,0.6629375000000001,0.68871875,-0.59240625,-1.333875,0.45646875000000003,0.017431702113330207,0.03223574166999718,True
23060,46470,6,46232,3620.0,38836.0,44243.0,0.001647,0.015677,-0.009699,1.4700000000000002,-1.9600000000000002,-3.325,0.73653125,-0.16159375,-0.51559375,0.66525,0.6793750000000001,-0.585,-1.326375,0.467125,0.017222137482204594,0.03201331615756302,True
23061,46471,6,46233,3622.0,38836.0,44241.0,0.003904,0.010126,-0.009455,1.05,-2.1,-3.2725000000000004,0.74109375,-0.1635,-0.51834375,0.66490625,0.7145312500000001,-0.59321875,-1.3410312500000001,0.480125,0.017473058503169703,0.03246464170632362,True
23062,46472,6,46234,3622.0,38836.0,44239.0,0.005673,0.003904,-0.008784,0.5425000000000001,-2.3275,-3.5175000000000005,0.73890625,-0.165125,-0.520625,0.66534375,0.71975,-0.596,-1.34225,0.48428125,0.017518092372743536,0.032421154396314454,True
23063,46473,6,46235,3622.0,38835.0,44238.0,0.006588,-0.0073809999999999995,-0.001647,-0.4025,-2.1700000000000004,-4.112500000000001,0.74153125,-0.16521875,-0.5175,0.66125,0.7196250000000001,-0.60046875,-1.3408125,0.47681250000000003,0.01769275229765693,0.03248958572263617,True
23064,46474,6,46236,3622.0,38834.0,44238.0,0.003111,-0.01159,0.003294,-0.6300000000000001,-1.6450000000000002,-4.112500000000001,0.73240625,-0.16190625,-0.51678125,0.6628125,0.68978125,-0.5893125,-1.3271875,0.45587500000000003,0.017381789344456052,0.03199748294199662,True
23065,46475,6,46237,3623.0,38836.0,44241.0,-0.0040869999999999995,-0.013115,0.006344,-0.665,-1.0150000000000001,-4.112500000000001,0.7399375,-0.16509375,-0.5172187500000001,0.65790625,0.7123125,-0.59975,-1.334875,0.4561875,0.017669132816390407,0.03227394056611686,True
23066,46476,6,46238,3624.0,38836.0,44244.0,-0.009089,-0.011163,0.007259,-0.43750000000000006,-0.45500000000000007,-4.2175,0.7336875,-0.16453125,-0.5195625,0.6583125,0.68546875,-0.58740625,-1.3313125000000001,0.46718750000000003,0.017198845445521527,0.03204531940459067,True
23067,46477,6,46239,3624.0,38837.0,44244.0,-0.012139,-0.006954,0.0064659999999999995,0.08750000000000001,-0.21000000000000002,-4.112500000000001,0.73278125,-0.16115625,-0.51953125,0.6639375000000001,0.69275,-0.58871875,-1.33403125,0.4694375,0.01738856360704032,0.03215043006627696,True
23068,46478,6,46240,3622.0,38840.0,44244.0,-0.004697,0.0051849999999999995,0.00183,0.805,-1.1375000000000002,-3.9550000000000005,0.734125,-0.1623125,-0.5122187500000001,0.6597500000000001,0.6970000000000001,-0.59009375,-1.33409375,0.46865625,0.017396487152473748,0.03244146043313667,True
23069,46479,6,46241,3624.0,38841.0,44247.0,0.001037,0.009089,-0.001952,0.9625000000000001,-1.8900000000000001,-3.6925000000000003,0.728625,-0.165,-0.5105000000000001,0.65834375,0.69534375,-0.590375,-1.33396875,0.462125,0.017298434855100825,0.03250453010841422,True
23070,46480,6,46242,3624.0,38838.0,44246.0,0.007808,0.008723,-0.004758,0.8575,-2.415,-3.5525,0.7342500000000001,-0.16171875,-0.5188125,0.65878125,0.6969062500000001,-0.59221875,-1.33465625,0.45965625,0.017505537193548262,0.032202676916131434,True
23071,46481,6,46243,3623.0,38839.0,44245.0,0.00976,0.0073809999999999995,-0.0068319999999999995,0.665,-2.6775,-3.7450000000000006,0.733625,-0.161,-0.5168125,0.65865625,0.6970625,-0.58521875,-1.33290625,0.45996875000000004,0.017255032558943572,0.03221477006808091,True
23072,46482,6,46244,3624.0,38837.0,44243.0,0.009028,0.003477,-0.003721,0.47250000000000003,-2.5725000000000002,-3.7450000000000006,0.73884375,-0.16228125000000002,-0.5192187500000001,0.6565,0.70646875,-0.59009375,-1.3350312500000001,0.4629375,0.017397757989434257,0.03220096679375519,True
23073,46483,6,46245,3625.0,38837.0,44243.0,0.002623,-0.003294,-0.000305,0.07,-1.7325000000000002,-3.8150000000000004,0.7338125,-0.16078125000000001,-0.51690625,0.6589375000000001,0.69640625,-0.58978125,-1.32859375,0.46265625,0.01744627150760034,0.032046291555369116,True
23074,46484,6,46246,3626.0,38837.0,44242.0,-0.001403,-0.0040869999999999995,0.001403,0.15750000000000003,-1.225,-3.8675,0.737625,-0.16146875,-0.5160625,0.6579375000000001,0.7046875,-0.59025,-1.33396875,0.468,0.01743704313701569,0.03228496324722118,True
23075,46485,6,46247,3625.0,38836.0,44243.0,-0.00549,-0.002623,0.0034159999999999998,0.22750000000000004,-0.8225000000000001,-3.99,0.73853125,-0.1635625,-0.5172187500000001,0.6573125,0.70353125,-0.5903125,-1.33415625,0.46259375,0.0173543951505293,0.0322464854143307,True
23076,46486,6,46248,3624.0,38836.0,44244.0,-0.008113,-0.003294,0.0044529999999999995,0.2625,-0.6825000000000001,-3.8675,0.72859375,-0.15615625,-0.51146875,0.66640625,0.69703125,-0.5889375,-1.33525,0.4699375,0.017600648665685534,0.032515220887893354,True
23077,46487,6,46249,3625.0,38838.0,44243.0,-0.007991,-0.002928,0.004575,0.29750000000000004,-0.7000000000000001,-3.9550000000000005,0.7400625000000001,-0.161625,-0.51740625,0.65834375,0.69828125,-0.5821875,-1.33353125,0.4625,0.017108424545211852,0.03221520884499669,True
23078,46488,6,46250,3626.0,38837.0,44246.0,-0.001464,-0.0008539999999999999,0.000366,0.43750000000000006,-1.3475000000000001,-3.8150000000000004,0.723625,-0.1609375,-0.5244375,0.67515625,0.7029062500000001,-0.59071875,-1.3359375,0.4633125,0.017477376500026048,0.032029602220166514,True
23079,46489,6,46251,3625.0,38839.0,44245.0,0.002623,0.002562,-0.0015249999999999999,0.45500000000000007,-1.8375000000000001,-3.7450000000000006,0.74271875,-0.160625,-0.5148125,0.6526875,0.6953125,-0.58996875,-1.33253125,0.468875,0.017460117756351357,0.03227939371435691,True
23080,46490,6,46252,3625.0,38838.0,44244.0,0.00671,0.003538,-0.002745,0.6300000000000001,-2.1,-3.6750000000000003,0.74115625,-0.16571875,-0.52353125,0.67425,0.70340625,-0.59103125,-1.33440625,0.46434375,0.017295431642379778,0.03200686813017376,True
23081,46491,6,46253,3626.0,38835.0,44246.0,0.006893,0.00488,-0.003111,0.56,-2.1175,-3.7450000000000006,0.73821875,-0.160625,-0.5141875,0.65725,0.6971875,-0.58578125,-1.33296875,0.46928125,0.017292769575910874,0.03232077764277035,True
23082,46492,6,46254,3626.0,38836.0,44245.0,0.005063,0.002989,-0.003355,0.5425000000000001,-1.9775000000000003,-3.7275000000000005,0.7505937500000001,-0.163125,-0.513875,0.6523125,0.70384375,-0.58903125,-1.3335000000000001,0.46978125,0.017320985347887587,0.032353405569700205,True
23083,46493,6,46255,3626.0,38839.0,44246.0,-0.00042699999999999997,0.000549,-0.000366,0.31500000000000006,-1.61,-3.7450000000000006,0.7458750000000001,-0.16740625,-0.52009375,0.65271875,0.7045,-0.5906875,-1.32771875,0.46278125000000003,0.01721307100502985,0.031887001272074694,True
23084,46494,6,46256,3627.0,38835.0,44245.0,-0.002562,-0.0017079999999999999,0.000549,0.1925,-1.3650000000000002,-3.8150000000000004,0.73909375,-0.1583125,-0.5191875,0.652875,0.69334375,-0.59178125,-1.3340625,0.455625,0.017626569852478662,0.032165192613699434,True
23085,46495,6,46257,3626.0,38834.0,44244.0,-0.0046359999999999995,-0.002379,0.0011589999999999999,0.14,-1.1900000000000002,-3.8325000000000005,0.72675,-0.1653125,-0.5246875,0.65278125,0.6970000000000001,-0.58478125,-1.3344375,0.46315625,0.017062130662643178,0.03196242269045839,True
23086,46496,6,46258,3626.0,38836.0,44246.0,-0.006344,-0.002257,0.0026839999999999998,0.2625,-1.0150000000000001,-3.7800000000000002,0.7265,-0.16543750000000002,-0.52446875,0.64415625,0.69803125,-0.5898125,-1.334625,0.4629375,0.017258163314584036,0.03197822150515352,True
23087,46497,6,46259,3628.0,38837.0,44246.0,-0.0059169999999999995,0.001403,0.0037819999999999998,0.45500000000000007,-0.9100000000000001,-3.8500000000000005,0.7261562500000001,-0.16840625,-0.51596875,0.65309375,0.6975625,-0.5913437500000001,-1.33378125,0.46509375000000003,0.017198633157246648,0.032281501601739766,True
23088,46498,6,46260,3628.0,38836.0,44247.0,0.000488,-0.001098,0.0034159999999999998,0.08750000000000001,-1.4875,-4.0075,0.74928125,-0.16046875,-0.50865625,0.668375,0.70384375,-0.58678125,-1.33434375,0.4605,0.01733909354238876,0.03259162771879575,True
23089,46499,6,46261,3627.0,38838.0,44247.0,0.0023179999999999997,-0.0053679999999999995,-0.000915,-0.07,-1.8550000000000002,-3.8675,0.7414375,-0.16284375,-0.51353125,0.6561875,0.6976875,-0.59065625,-1.3333125000000001,0.46603125,0.017397360023687858,0.03235981279589868,True
23090,46500,6,46262,3627.0,38838.0,44247.0,0.0044529999999999995,-0.0044529999999999995,-0.002806,0.052500000000000005,-2.345,-3.7800000000000002,0.74065625,-0.163625,-0.5135625,0.65446875,0.701625,-0.59040625,-1.33409375,0.46596875,0.017355599808360222,0.03238841926208629,True
23091,46501,6,46263,3627.0,38837.0,44247.0,0.0062829999999999995,-0.001464,-0.0059169999999999995,0.22750000000000004,-2.5025000000000004,-3.6575,0.73684375,-0.1626875,-0.5164375,0.66003125,0.7046250000000001,-0.59003125,-1.324625,0.46778125000000004,0.017378739606115794,0.031913108288869035,True
23092,46502,6,46264,3629.0,38835.0,44248.0,0.0053679999999999995,0.004392,-0.0070149999999999995,0.45500000000000007,-2.5725000000000002,-3.6400000000000006,0.7389375,-0.1620625,-0.51609375,0.66390625,0.70321875,-0.59,-1.33371875,0.4690625,0.01740290768605124,0.03227418003920171,True
23093,46503,6,46265,3628.0,38837.0,44249.0,0.0015249999999999999,0.004758,-0.0011589999999999999,0.7175,-1.5750000000000002,-3.6400000000000006,0.7393125,-0.161375,-0.51615625,0.6628437500000001,0.7015625,-0.58940625,-1.33071875,0.46284375,0.01740714052418407,0.032157101740352315,True
23094,46504,6,46266,3628.0,38838.0,44250.0,-0.002257,0.004514,0.0017079999999999999,0.6300000000000001,-1.1375000000000002,-3.6750000000000003,0.7375,-0.1615625,-0.51534375,0.65628125,0.7027187500000001,-0.587875,-1.33375,0.46925,0.017338322242162044,0.03230497853653723,True
23095,46505,6,46267,3628.0,38837.0,44251.0,-0.006954,0.004026,0.0046359999999999995,0.5075000000000001,-0.8925000000000001,-3.7975000000000003,0.741125,-0.16434375,-0.51765625,0.6575,0.70475,-0.5903125,-1.33315625,0.46318750000000003,0.01732262450914359,0.032191014493111174,True
23096,46506,6,46268,3630.0,38836.0,44253.0,-0.007625,0.004148,0.005795,0.43750000000000006,-0.7875000000000001,-3.8850000000000002,0.72590625,-0.16303125000000002,-0.51834375,0.6588437500000001,0.7040625,-0.5930625,-1.33390625,0.46268750000000003,0.017485876352324972,0.03219252854067857,True
23097,46507,6,46269,3630.0,38839.0,44255.0,-0.003843,-0.0023179999999999997,0.0030499999999999998,0.08750000000000001,-1.2600000000000002,-3.8850000000000002,0.7331875,-0.16525,-0.5195,0.665375,0.6969375,-0.5919375,-1.332625,0.46328125000000003,0.01735070691359719,0.03209793694889495,True
23098,46508,6,46270,3630.0,38836.0,44255.0,0.0,-0.00793,0.000915,-0.22750000000000004,-1.7850000000000001,-3.8150000000000004,0.73309375,-0.15484375,-0.51725,0.659125,0.6953125,-0.5898125,-1.33484375,0.46953125,0.017688981971700678,0.0322715134171688,True
23099,46509,6,46271,3630.0,38838.0,44254.0,0.003294,-0.009271999999999999,0.0006709999999999999,-0.385,-1.9250000000000003,-3.7800000000000002,0.739,-0.15878125,-0.51225,0.66353125,0.7015625,-0.5910625,-1.33421875,0.46825,0.01757879514152754,0.032445000894294404,True
23100,46510,6,46272,3628.0,38838.0,44252.0,0.0044529999999999995,-0.0077469999999999995,-0.0025009999999999998,-0.22750000000000004,-2.0475000000000003,-3.8675,0.7398750000000001,-0.15840625,-0.51678125,0.6587500000000001,0.704125,-0.59040625,-1.32484375,0.463,0.01756782688370592,0.031907896766391705,True
23101,46511,6,46273,3630.0,38836.0,44251.0,0.002989,-0.004575,-0.003538,0.12250000000000001,-1.9250000000000003,-3.9025000000000003,0.7325625,-0.16121875,-0.51775,0.6645,0.6970625,-0.5928125,-1.3366875,0.4665625,0.017549588929692363,0.03232220076124789,True
23102,46512,6,46274,3630.0,38834.0,44248.0,0.002196,0.0064659999999999995,-0.0011589999999999999,0.7525000000000001,-1.6450000000000002,-3.5700000000000003,0.7344375,-0.16275,-0.515875,0.65890625,0.695875,-0.5900625,-1.3334062500000001,0.46768750000000003,0.017377446681967567,0.03227087750980981,True
23103,46513,6,46275,3631.0,38832.0,44246.0,0.000549,0.008905999999999999,-0.0008539999999999999,0.9275000000000001,-1.8375000000000001,-3.5875000000000004,0.731125,-0.1653125,-0.52028125,0.65840625,0.70409375,-0.5929375,-1.33525,0.462625,0.01738812209806169,0.03216738536229167,True
23104,46514,6,46276,3629.0,38833.0,44246.0,0.00042699999999999997,0.008357,-0.00061,0.8575,-1.6975000000000002,-3.6750000000000003,0.733125,-0.16159375,-0.5161875,0.664125,0.697125,-0.5895625,-1.33296875,0.46865625,0.01740448818477352,0.032241829138166055,True
23105,46515,6,46277,3629.0,38830.0,44246.0,-0.000122,0.004514,-0.0008539999999999999,0.5775,-1.6975000000000002,-3.7450000000000006,0.73865625,-0.163,-0.5173125000000001,0.6579375000000001,0.7031875,-0.58859375,-1.334375,0.46334375,0.01730858439189919,0.03225114098926853,True
23106,46516,6,46278,3629.0,38829.0,44241.0,-0.000183,0.000732,-0.0006709999999999999,0.36750000000000005,-1.5925000000000002,-3.8850000000000002,0.73278125,-0.16196875,-0.51665625,0.66603125,0.6971875,-0.5895625,-1.33546875,0.468875,0.017389237811774812,0.032318821809839214,True
23107,46517,6,46279,3629.0,38830.0,44239.0,-0.001952,-0.002379,0.0025009999999999998,0.14,-1.4525000000000001,-3.9550000000000005,0.7408750000000001,-0.165875,-0.5172187500000001,0.6575,0.702375,-0.59021875,-1.33390625,0.46246875,0.017256607365479418,0.03223693543114774,True
23108,46518,6,46280,3628.0,38829.0,44239.0,-0.001952,-0.002379,0.003538,0.1925,-1.3650000000000002,-3.9200000000000004,0.7332500000000001,-0.16146875,-0.5180625,0.66328125,0.69703125,-0.59009375,-1.3339375,0.462125,0.01743079975040762,0.032204824062584035,True
23109,46519,6,46281,3629.0,38829.0,44237.0,-0.0013419999999999999,-0.0025009999999999998,0.002745,0.2625,-1.4700000000000002,-3.9375000000000004,0.73975,-0.1615,-0.5160625,0.65821875,0.70178125,-0.5905312500000001,-1.33390625,0.46265625,0.017447010218618195,0.03228257584635216,True
23110,46520,6,46282,3626.0,38829.0,44234.0,-0.00183,-0.0021349999999999997,0.001281,0.08750000000000001,-1.5750000000000002,-3.9025000000000003,0.7369375,-0.160625,-0.51596875,0.65859375,0.70259375,-0.590875,-1.33453125,0.46125,0.01749632739786608,0.03231014980788326,True
23111,46521,6,46283,3626.0,38825.0,44233.0,-0.000244,-0.003843,0.000488,0.12250000000000001,-1.8200000000000003,-3.9550000000000005,0.733,-0.1636875,-0.51446875,0.6504375,0.6970625,-0.59265625,-1.33225,0.46265625,0.017442961249864986,0.03228221930543082,True
23112,46522,6,46284,3626.0,38826.0,44230.0,0.002074,-0.0017079999999999999,-0.001769,0.29750000000000004,-1.8900000000000001,-3.8850000000000002,0.73359375,-0.16140625,-0.512,0.65953125,0.6965625,-0.5900625,-1.3335000000000001,0.45996875000000004,0.01743209274071589,0.03242741824066947,True
23113,46523,6,46285,3627.0,38823.0,44230.0,0.002562,0.000732,-0.003904,0.42000000000000004,-1.9250000000000003,-3.7450000000000006,0.7365625,-0.1601875,-0.51671875,0.6584375,0.7036250000000001,-0.58846875,-1.3336875000000001,0.46037500000000003,0.017417971584749455,0.032248315607429835,True
23114,46524,6,46286,3626.0,38822.0,44226.0,0.002806,0.003111,-0.002745,0.5425000000000001,-2.0125,-3.7275000000000005,0.736375,-0.16175,-0.5171250000000001,0.6515,0.6993125,-0.593125,-1.3290625,0.462625,0.01754047116826349,0.03205556857858438,True
23115,46525,6,46287,3625.0,38822.0,44223.0,0.0030499999999999998,0.0050019999999999995,-0.001769,0.5425000000000001,-1.995,-3.7975000000000003,0.73375,-0.161125,-0.51653125,0.6579375000000001,0.69784375,-0.5899375,-1.333875,0.46296875,0.017438535579848466,0.03226287924764766,True
23116,46526,6,46288,3625.0,38820.0,44221.0,0.002196,0.003111,0.000732,0.5075000000000001,-1.7675,-3.6925000000000003,0.73503125,-0.16215625,-0.51859375,0.66134375,0.7060625,-0.5933437500000001,-1.3383125,0.46434375,0.017532691137210656,0.03235096062533762,True
23117,46527,6,46289,3624.0,38819.0,44220.0,-0.000305,-0.000305,0.000915,0.24500000000000002,-1.6800000000000002,-3.6575,0.7339687500000001,-0.16225,-0.5178125,0.6636875,0.69659375,-0.58721875,-1.334125,0.46668750000000003,0.017284132634969133,0.032221854909139355,True
23118,46528,6,46290,3622.0,38820.0,44219.0,-0.0013419999999999999,-0.002196,-0.000122,0.17500000000000002,-1.5575,-3.7625,0.73840625,-0.16128125000000001,-0.516625,0.66228125,0.7040625,-0.58965625,-1.3321875,0.4679375,0.017420943003219086,0.032194712754277544,True
23119,46529,6,46291,3623.0,38819.0,44218.0,-0.003111,-0.001647,0.0013419999999999999,0.28,-1.5575,-3.8325000000000005,0.74815625,-0.16640625,-0.51853125,0.64453125,0.7088125000000001,-0.59190625,-1.3324375,0.4603125,0.01730244071664839,0.032129014430608976,True
23120,46530,6,46292,3622.0,38818.0,44217.0,-0.002562,-0.000976,0.001586,0.42000000000000004,-1.4525000000000001,-3.7975000000000003,0.733,-0.16096875,-0.5233125,0.665375,0.69271875,-0.59365625,-1.34109375,0.45871875,0.01759345969552616,0.03227095318251605,True
23121,46531,6,46293,3621.0,38818.0,44217.0,-0.0030499999999999998,-0.000976,0.000732,0.4025,-1.3475000000000001,-3.7625,0.72521875,-0.15215625,-0.51834375,0.6721875,0.68603125,-0.59103125,-1.3390312500000001,0.47134375,0.017846953856398357,0.03238827451227048,True
23122,46532,6,46294,3621.0,38816.0,44215.0,0.000122,-0.001586,0.000244,0.24500000000000002,-1.6800000000000002,-3.7800000000000002,0.73321875,-0.15937500000000002,-0.51075,0.67971875,0.6923125,-0.58840625,-1.3363125,0.4745625,0.01744851803886232,0.032584161566526305,True
23123,46533,6,46295,3621.0,38816.0,44211.0,0.001647,-0.0013419999999999999,-0.000366,0.2625,-1.8900000000000001,-3.8150000000000004,0.74534375,-0.160125,-0.51253125,0.6474375,0.681875,-0.5886250000000001,-1.33165625,0.4690625,0.017426757291227148,0.032336022244893674,True
23124,46534,6,46296,3619.0,38816.0,44208.0,0.0030499999999999998,-0.000488,6.1e-05,0.29750000000000004,-2.0650000000000004,-3.8325000000000005,0.7389687500000001,-0.17503125,-0.5173125000000001,0.64896875,0.7088125000000001,-0.591375,-1.33175,0.45946875000000004,0.01693047867392531,0.03215085811284258,True
23125,46535,6,46297,3618.0,38815.0,44206.0,0.0023179999999999997,0.00122,-0.0025009999999999998,0.47250000000000003,-1.8725000000000003,-3.8325000000000005,0.72084375,-0.1640625,-0.517875,0.67715625,0.70384375,-0.5829375,-1.34034375,0.47234375,0.017039257411771886,0.032456890013577655,True
23126,46536,6,46298,3617.0,38811.0,44206.0,0.000366,0.0026839999999999998,-0.002074,0.5075000000000001,-1.7325000000000002,-3.6750000000000003,0.7555000000000001,-0.16303125000000002,-0.5152187500000001,0.6475,0.70275,-0.58921875,-1.33240625,0.459125,0.017332291209943382,0.03225858183132524,True
23127,46537,6,46299,3617.0,38811.0,44207.0,-0.0021349999999999997,0.0037819999999999998,0.0006709999999999999,0.77,-1.5750000000000002,-3.7800000000000002,0.70609375,-0.1544375,-0.50346875,0.65796875,0.6931875000000001,-0.59171875,-1.335375,0.4688125,0.01778164651464225,0.032835758302373654,True
23128,46538,6,46300,3616.0,38809.0,44203.0,-0.0017079999999999999,0.00183,0.001281,0.5950000000000001,-1.5750000000000002,-3.8675,0.7485,-0.16984375000000002,-0.5235625,0.65559375,0.7035,-0.59115625,-1.3335937500000001,0.45987500000000003,0.017132683624829555,0.031974589077003734,True
23129,46539,6,46301,3616.0,38810.0,44204.0,0.000793,-0.000183,0.002745,0.3325,-1.6275000000000002,-3.7800000000000002,0.7208125,-0.15821875,-0.51103125,0.66121875,0.69434375,-0.59278125,-1.33478125,0.46821875,0.01767032754784496,0.0325145890099209,True
23130,46540,6,46302,3615.0,38809.0,44203.0,0.00183,-0.002623,-0.00061,0.24500000000000002,-1.7850000000000001,-3.6400000000000006,0.739,-0.16996875,-0.526625,0.6651875,0.704875,-0.59321875,-1.3335000000000001,0.46246875,0.017210028679145548,0.03185011940710917,True
23131,46541,6,46303,3614.0,38807.0,44202.0,0.000183,-0.003721,-0.000549,0.0175,-1.7675,-3.6925000000000003,0.72675,-0.15787500000000002,-0.5174375,0.671,0.6966875,-0.590375,-1.3356875000000001,0.47009375000000003,0.01758818236810134,0.03229634088279626,True
23132,46542,6,46304,3613.0,38807.0,44198.0,0.000488,-0.002379,-0.002379,0.1925,-1.8900000000000001,-3.8150000000000004,0.7458750000000001,-0.16040625,-0.51028125,0.660125,0.69796875,-0.5856875,-1.3334062500000001,0.46765625,0.01729791977547913,0.03249168279532091,True
23133,46543,6,46305,3614.0,38806.0,44200.0,0.000305,-0.001464,-0.001098,0.36750000000000005,-1.6800000000000002,-3.7275000000000005,0.7361562500000001,-0.16134375,-0.5175,0.6626875,0.70021875,-0.58578125,-1.33253125,0.47068750000000004,0.017263535198825543,0.03217330482914139,True
23134,46544,6,46306,3614.0,38807.0,44201.0,0.001464,-0.001098,0.000549,0.43750000000000006,-1.6275000000000002,-3.5875000000000004,0.73290625,-0.161875,-0.5181250000000001,0.65328125,0.69784375,-0.58946875,-1.33278125,0.47009375000000003,0.017389304110118277,0.032158184368327104,True
23135,46545,6,46307,3613.0,38807.0,44199.0,0.001403,0.00122,0.000122,0.43750000000000006,-1.6275000000000002,-3.7100000000000004,0.732875,-0.16125,-0.51628125,0.65034375,0.6873125,-0.5888125,-1.33334375,0.4625,0.017388497309497965,0.032252453843563386,True
23136,46546,6,46308,3611.0,38806.0,44196.0,0.001403,0.0026839999999999998,0.001281,0.5775,-1.3825,-3.7975000000000003,0.740625,-0.16543750000000002,-0.51759375,0.658,0.702875,-0.5933437500000001,-1.33453125,0.4624375,0.017399270890116357,0.032246008104057575,True
23137,46547,6,46309,3610.0,38804.0,44196.0,-0.002013,0.001952,-6.1e-05,0.43750000000000006,-1.155,-3.6050000000000004,0.725625,-0.16165625,-0.51690625,0.6659375,0.687125,-0.5895625,-1.3365,0.46990625,0.0174019464559404,0.032348341325755335,True
23138,46548,6,46310,3610.0,38804.0,44196.0,-0.004148,0.000305,0.00061,0.47250000000000003,-1.155,-3.6575,0.7374375,-0.16171875,-0.51696875,0.65765625,0.70365625,-0.5898125,-1.33396875,0.46309375,0.01740939464259843,0.0322491911181504,True
23139,46549,6,46311,3609.0,38806.0,44195.0,-0.0046359999999999995,0.000488,0.000366,0.525,-1.1725,-3.7450000000000006,0.73665625,-0.1639375,-0.51646875,0.661375,0.7001875,-0.59025,-1.33684375,0.4665625,0.017336647655066543,0.032378736992448004,True
23140,46550,6,46312,3609.0,38807.0,44197.0,-0.0030499999999999998,0.000366,-0.000549,0.43750000000000006,-1.4000000000000001,-3.7450000000000006,0.7331875,-0.1618125,-0.51678125,0.665125,0.6965625,-0.590125,-1.32603125,0.4674375,0.017418069245276304,0.031953289167642486,True
23141,46551,6,46313,3609.0,38807.0,44193.0,-0.001098,0.0011589999999999999,-0.00042699999999999997,0.31500000000000006,-1.6975000000000002,-3.6400000000000006,0.7385625,-0.16265625,-0.51725,0.65715625,0.7047187500000001,-0.5910625,-1.33403125,0.46265625,0.01742121756634143,0.03224047692765043,True
23142,46552,6,46314,3608.0,38806.0,44193.0,0.0034159999999999998,6.1e-05,-0.000366,0.4025,-1.995,-3.6050000000000004,0.7324375,-0.16040625,-0.51875,0.66515625,0.6954375,-0.5895625,-1.33534375,0.47090625,0.017452781032602758,0.032231405978061775,True
23143,46553,6,46315,3607.0,38804.0,44192.0,0.004026,0.000793,-0.000244,0.3325,-1.995,-3.7975000000000003,0.73409375,-0.16278125000000002,-0.52096875,0.6591875,0.70559375,-0.5935,-1.33584375,0.4665,0.017513519832476062,0.03216293122268723,True
23144,46554,6,46316,3606.0,38803.0,44192.0,0.002928,-0.000122,0.001586,0.28,-1.9075000000000002,-3.7450000000000006,0.7355,-0.16146875,-0.5168125,0.6585,0.6971875,-0.5904375000000001,-1.3339375,0.45925,0.017444535096213725,0.032254164991130964,True
23145,46555,6,46317,3607.0,38801.0,44190.0,0.002257,-0.002623,0.000488,0.15750000000000003,-1.8375000000000001,-3.6400000000000006,0.7336875,-0.16521875,-0.51696875,0.65734375,0.6933125,-0.593,-1.3343125,0.46325,0.01739443134225186,0.03226232209774787,True
23146,46556,6,46318,3607.0,38803.0,44191.0,0.001281,-0.0030499999999999998,-6.1e-05,0.10500000000000001,-1.7850000000000001,-3.7975000000000003,0.729625,-0.16490625,-0.5173125000000001,0.65790625,0.699375,-0.591125,-1.33378125,0.46225,0.01733221843246293,0.032228459776410194,True
23147,46557,6,46319,3607.0,38802.0,44190.0,-0.0013419999999999999,-0.001952,-0.001952,0.29750000000000004,-1.54,-3.7100000000000004,0.7383125,-0.16471875,-0.516375,0.6531250000000001,0.69759375,-0.59075,-1.3345,0.46237500000000004,0.01732485792421947,0.032292920720756284,True
23148,46558,6,46320,3607.0,38803.0,44189.0,-0.001403,0.00042699999999999997,-0.001403,0.47250000000000003,-1.2600000000000002,-3.7450000000000006,0.74125,-0.1639375,-0.51709375,0.6529375000000001,0.70075,-0.592625,-1.332625,0.46309375,0.017431547059331812,0.03219292315739091,True
23149,46559,6,46321,3605.0,38800.0,44188.0,-0.002623,0.002379,0.000183,0.665,-1.12,-3.7800000000000002,0.739375,-0.1625625,-0.51209375,0.6598437500000001,0.701125,-0.59128125,-1.33346875,0.46284375,0.01743377035305958,0.032422524057231596,True
23150,46560,6,46322,3605.0,38803.0,44192.0,-0.002989,0.002989,0.0013419999999999999,0.7000000000000001,-1.12,-3.8325000000000005,0.74090625,-0.1631875,-0.5162187500000001,0.6613125,0.70215625,-0.59146875,-1.3335000000000001,0.46246875,0.01741584670496755,0.03226088973098861,True
23151,46561,6,46323,3607.0,38802.0,44190.0,-0.0021349999999999997,0.0028669999999999998,0.00244,0.6300000000000001,-1.155,-3.7275000000000005,0.74009375,-0.15640625,-0.51690625,0.662375,0.7010625,-0.5908125,-1.3332187500000001,0.45437500000000003,0.017665388242051782,0.03222300758761656,True
23152,46562,6,46324,3603.0,38803.0,44190.0,6.1e-05,0.000244,0.000488,0.2625,-1.4875,-3.7275000000000005,0.73959375,-0.16290625,-0.516625,0.6502187500000001,0.70109375,-0.5923125,-1.3335625,0.46265625,0.017460995178879578,0.032247241184495866,True
23153,46563,6,46325,3604.0,38803.0,44189.0,0.002257,-0.001647,0.000488,0.14,-1.61,-3.8325000000000005,0.7379375,-0.163,-0.5155,0.65825,0.70046875,-0.58928125,-1.33384375,0.46318750000000003,0.01733605979231296,0.032302391933715154,True
23154,46564,6,46326,3603.0,38798.0,44190.0,0.0025009999999999998,-0.0013419999999999999,-0.0011589999999999999,0.17500000000000002,-1.54,-3.8150000000000004,0.73265625,-0.16378125000000002,-0.51925,0.66025,0.69646875,-0.59171875,-1.3360625,0.46625,0.01740169137222261,0.03223912555473053,True
23155,46565,6,46327,3604.0,38801.0,44189.0,0.000366,-0.002074,-0.0021349999999999997,0.15750000000000003,-1.5925000000000002,-3.8325000000000005,0.7324375,-0.16196875,-0.51590625,0.6576875,0.6968125000000001,-0.59028125,-1.334125,0.46671875,0.01741795856848933,0.03229709926827944,True
23156,46566,6,46328,3603.0,38801.0,44188.0,-0.001952,-0.000244,-0.000366,0.35000000000000003,-1.435,-3.8850000000000002,0.7390625000000001,-0.164375,-0.51784375,0.65790625,0.7051875,-0.59090625,-1.33365625,0.46337500000000004,0.0173450805620472,0.032202714521319835,True
23157,46567,6,46329,3602.0,38799.0,44188.0,-0.0008539999999999999,0.001281,0.000183,0.6125,-1.225,-3.8325000000000005,0.71946875,-0.16159375,-0.5161875,0.66459375,0.6824687500000001,-0.59003125,-1.3326875,0.466,0.017423219012785925,0.03223108483851151,True
23158,46568,6,46330,3602.0,38800.0,44192.0,-0.000915,0.000915,0.0015249999999999999,0.525,-1.3475000000000001,-3.7100000000000004,0.74121875,-0.16296875,-0.5169375,0.6475625,0.7143125,-0.59640625,-1.33246875,0.46134375,0.017621984919036698,0.032193121722492994,True
23159,46569,6,46331,3600.0,38800.0,44188.0,0.000488,0.0,0.002013,0.385,-1.4175000000000002,-3.7800000000000002,0.7374375,-0.1636875,-0.51746875,0.6578125,0.69240625,-0.5944375000000001,-1.3395625,0.45853125,0.01751412285806496,0.03244309170689115,True
23160,46570,6,46332,3601.0,38800.0,44189.0,0.0023179999999999997,0.0,0.000122,0.31500000000000006,-1.4525000000000001,-3.9375000000000004,0.73284375,-0.16409375,-0.51946875,0.6570312500000001,0.6895625,-0.58996875,-1.3400625,0.4781875,0.017319054136658876,0.03238325675005734,True
23161,46571,6,46333,3602.0,38799.0,44187.0,0.001586,-0.000488,-0.00183,0.31500000000000006,-1.6800000000000002,-3.7450000000000006,0.73284375,-0.16190625,-0.5183125000000001,0.6646875,0.69415625,-0.5881875,-1.33028125,0.46534375,0.017336830947787426,0.03205525994702487,True
23162,46572,6,46334,3601.0,38800.0,44190.0,0.000122,-0.0006709999999999999,-0.001403,0.36750000000000005,-1.435,-3.8500000000000005,0.7332500000000001,-0.1615,-0.51725,0.66428125,0.71009375,-0.59009375,-1.3300625,0.466,0.017429528913447106,0.032088846997515304,True
23163,46573,6,46335,3602.0,38798.0,44189.0,-0.001586,0.000183,-0.000366,0.43750000000000006,-1.3650000000000002,-3.8500000000000005,0.7398750000000001,-0.16384375,-0.51759375,0.656625,0.7070625,-0.59759375,-1.3411875,0.47165625,0.017633838675785107,0.032500203473100855,True
23164,46574,6,46336,3601.0,38800.0,44191.0,-0.002745,0.0006709999999999999,0.0,0.385,-1.4175000000000002,-4.0075,0.72275,-0.16084375,-0.51684375,0.6536875,0.6946875,-0.58821875,-1.3308125,0.453,0.017381291599254216,0.03213354289365965,True
23165,46575,6,46337,3600.0,38800.0,44189.0,-0.002257,-0.000549,0.001769,0.385,-1.4525000000000001,-3.9025000000000003,0.7324375,-0.16171875,-0.51640625,0.6578437500000001,0.69040625,-0.588,-1.32296875,0.45737500000000003,0.01733696315275744,0.0318510245762555,True
23166,46576,6,46338,3600.0,38801.0,44191.0,0.000976,0.000976,0.002562,0.42000000000000004,-1.33,-3.7800000000000002,0.732625,-0.1613125,-0.51259375,0.66503125,0.6899375,-0.58715625,-1.3295000000000001,0.4594375,0.01731976425699902,0.03225117945478593,True
23167,46577,6,46339,3601.0,38798.0,44190.0,0.0006709999999999999,-0.00042699999999999997,0.00244,0.36750000000000005,-1.2775,-3.8150000000000004,0.741375,-0.16434375,-0.52025,0.6623125,0.7106250000000001,-0.59690625,-1.3355625,0.47840625000000003,0.017586053124059045,0.032180556480638625,True
23168,46578,6,46340,3598.0,38800.0,44189.0,-0.00042699999999999997,0.000305,0.001464,0.35000000000000003,-1.2600000000000002,-3.8150000000000004,0.7341562500000001,-0.1618125,-0.5169375,0.650875,0.69678125,-0.59078125,-1.332375,0.44934375,0.01744429124227194,0.032189540064837985,True
23169,46579,6,46341,3600.0,38798.0,44191.0,-0.001281,-0.001647,-0.001098,0.36750000000000005,-1.33,-3.7100000000000004,0.73275,-0.161625,-0.5173125000000001,0.65821875,0.690875,-0.5884375000000001,-1.32965625,0.4569375,0.01735826036119619,0.03207085567929884,True
23170,46580,6,46342,3601.0,38797.0,44189.0,-0.000549,-0.000915,-0.003355,0.29750000000000004,-1.5750000000000002,-3.6750000000000003,0.73575,-0.16090625,-0.51859375,0.6631875,0.691125,-0.5929375,-1.3335937500000001,0.4684375,0.017567289389484275,0.03217072192925649,True
23171,46581,6,46343,3600.0,38798.0,44190.0,0.0030499999999999998,0.001952,-0.003355,0.29750000000000004,-1.9425000000000001,-3.9550000000000005,0.734,-0.16418750000000001,-0.51759375,0.664375,0.69853125,-0.5863125,-1.3335625,0.4596875,0.017169105777859125,0.032209001398836035,True
23172,46582,6,46344,3600.0,38798.0,44190.0,0.003355,0.002562,-0.001647,0.35000000000000003,-1.8550000000000002,-3.8850000000000002,0.7403125,-0.16171875,-0.51809375,0.666,0.69940625,-0.59121875,-1.3375937500000001,0.46878125,0.017465584132547313,0.03234324490659261,True
23173,46583,6,46345,3598.0,38798.0,44189.0,0.0017079999999999999,0.0017079999999999999,-0.000122,0.4025,-1.715,-3.8500000000000005,0.7395625,-0.16465625,-0.5205625,0.66259375,0.704125,-0.5933125,-1.3350625,0.46925,0.01742978909408808,0.032149121400430726,True
23174,46584,6,46346,3599.0,38799.0,44191.0,-0.000183,0.0011589999999999999,0.001586,0.4025,-1.4000000000000001,-3.7800000000000002,0.7385625,-0.16378125000000002,-0.51496875,0.6636875,0.7039375,-0.59321875,-1.337,0.46984375,0.017461622423864304,0.0324439061451632,True
23175,46585,6,46347,3599.0,38803.0,44192.0,-0.002623,0.0017079999999999999,0.00244,0.4025,-1.0675000000000001,-3.8850000000000002,0.7394375,-0.15884375,-0.518875,0.6636875,0.7057187500000001,-0.59221875,-1.33471875,0.4690625,0.0176224440911823,0.03220259747308227,True
23176,46586,6,46348,3601.0,38800.0,44193.0,-0.003172,-0.0015249999999999999,0.002806,0.35000000000000003,-0.9450000000000001,-3.6750000000000003,0.7379375,-0.1650625,-0.51875,0.66253125,0.7060625,-0.5913437500000001,-1.3374062500000001,0.46840625,0.01733460580005922,0.03231018368346208,True
23177,46587,6,46349,3599.0,38801.0,44191.0,-0.002806,-0.002806,0.001098,0.12250000000000001,-1.0325000000000002,-3.6050000000000004,0.73009375,-0.16240625,-0.51925,0.65721875,0.6997187500000001,-0.5916250000000001,-1.3311875,0.4565625,0.017453858783223967,0.03205287947910061,True
23178,46588,6,46350,3599.0,38801.0,44192.0,-0.001281,-0.003294,-6.1e-05,0.10500000000000001,-1.3125000000000002,-3.7975000000000003,0.7326875,-0.1609375,-0.5171875,0.65953125,0.6969375,-0.58978125,-1.33375,0.46428125000000003,0.017439917242045414,0.03223220012828736,True
23179,46589,6,46351,3599.0,38801.0,44196.0,0.000122,-0.0040869999999999995,-0.0013419999999999999,0.08750000000000001,-1.61,-3.9200000000000004,0.73975,-0.164,-0.5189375,0.6633125,0.7015625,-0.5933125,-1.3369375000000001,0.47103125,0.017456473177413574,0.03228488052275458,True
23180,46590,6,46352,3600.0,38801.0,44193.0,-0.001037,-0.002013,-0.000793,0.24500000000000002,-1.61,-3.7975000000000003,0.73971875,-0.16396875,-0.5183125000000001,0.66421875,0.70309375,-0.59321875,-1.3365,0.45790625,0.01745399837099404,0.0322928383952006,True
23181,46591,6,46353,3600.0,38803.0,44196.0,0.000732,0.003477,-0.000122,0.7000000000000001,-1.5050000000000001,-3.6925000000000003,0.73809375,-0.16246875,-0.51184375,0.6578125,0.702625,-0.5925312500000001,-1.3354375,0.46396875,0.017487524794748407,0.0325075795513695,True
23182,46592,6,46354,3599.0,38803.0,44196.0,0.0018909999999999999,0.0037819999999999998,-0.0013419999999999999,0.6125,-1.5925000000000002,-3.6925000000000003,0.7323125,-0.161375,-0.5162187500000001,0.65715625,0.6969062500000001,-0.5905,-1.3331250000000001,0.46259375,0.017450844838453876,0.03224656452766882,True
23183,46593,6,46355,3600.0,38802.0,44197.0,0.002928,0.0040869999999999995,-0.000488,0.6300000000000001,-1.715,-3.7100000000000004,0.7294375,-0.1613125,-0.516625,0.65628125,0.6969062500000001,-0.5898125,-1.3331875,0.46228125000000003,0.017425915712045385,0.03223291581448248,True
23184,46594,6,46356,3601.0,38803.0,44196.0,0.004148,0.0037819999999999998,0.000793,0.47250000000000003,-1.8200000000000003,-3.6575,0.72996875,-0.1605625,-0.51490625,0.65415625,0.690125,-0.59,-1.33265625,0.4644375,0.017463908092720616,0.032280468022377246,True
23185,46595,6,46357,3601.0,38801.0,44196.0,0.003538,0.000732,0.000976,0.35000000000000003,-1.6800000000000002,-3.8150000000000004,0.73946875,-0.1670625,-0.52046875,0.65325,0.70521875,-0.59096875,-1.33459375,0.46146875,0.017238289971801133,0.032134914340199355,True
23186,46596,6,46358,3601.0,38804.0,44196.0,-0.000122,-0.0032329999999999998,0.000183,0.22750000000000004,-1.435,-3.6925000000000003,0.72459375,-0.16596875,-0.522,0.66971875,0.69625,-0.5921875,-1.3345,0.467375,0.017331469597814345,0.03207089147210326,True
23187,46597,6,46359,3603.0,38807.0,44198.0,-0.0028669999999999998,-0.003721,0.00061,0.21000000000000002,-1.1725,-3.535,0.73725,-0.16278125000000002,-0.51490625,0.6538125,0.6975,-0.5856250000000001,-1.32734375,0.46275,0.017198820448941204,0.03207748542521361,True
23188,46598,6,46360,3602.0,38806.0,44200.0,-0.005063,-0.0044529999999999995,-0.000183,0.24500000000000002,-0.9625000000000001,-3.6750000000000003,0.728625,-0.16490625,-0.521375,0.6616562500000001,0.69303125,-0.59128125,-1.33478125,0.466125,0.017338462183624528,0.03210630642409829,True
23189,46599,6,46361,3602.0,38806.0,44202.0,-0.0044529999999999995,-0.002562,0.000976,0.31500000000000006,-1.05,-3.6925000000000003,0.72965625,-0.15987500000000002,-0.515,0.67078125,0.696625,-0.58928125,-1.335375,0.46796875,0.017463147687572202,0.03238061406235353,True
23190,46600,6,46362,3602.0,38809.0,44200.0,-0.0032329999999999998,-0.000366,0.001281,0.525,-1.2075,-3.7275000000000005,0.7384375,-0.16096875,-0.51546875,0.65415625,0.69771875,-0.5901875,-1.332625,0.46315625,0.017454879105740857,0.032257069687803765,True
23191,46601,6,46363,3603.0,38809.0,44202.0,6.1e-05,0.0025009999999999998,0.000915,0.6125,-1.6975000000000002,-3.6400000000000006,0.728875,-0.1605,-0.5175625,0.66759375,0.6904375,-0.59290625,-1.33409375,0.466,0.01758256001158871,0.032230529264540994,True
23192,46602,6,46364,3602.0,38808.0,44203.0,0.000305,0.003355,0.001037,0.7175,-1.8550000000000002,-3.6050000000000004,0.746,-0.1635625,-0.51565625,0.64628125,0.70165625,-0.59003125,-1.3335625,0.46268750000000003,0.017343156080779687,0.0322854809701557,True
23193,46603,6,46365,3602.0,38809.0,44205.0,0.002257,0.002745,0.000305,0.665,-2.1700000000000004,-3.5700000000000003,0.734625,-0.16603125,-0.5211875,0.66834375,0.6999375,-0.592,-1.3364375,0.46534375,0.01732143583279115,0.03217697831433484,True
23194,46604,6,46366,3602.0,38808.0,44204.0,0.0050019999999999995,0.002379,0.000183,0.525,-2.2575000000000003,-3.5525,0.73040625,-0.1606875,-0.51528125,0.65465625,0.6882812500000001,-0.59021875,-1.33275,0.46371875,0.017467565228552515,0.03226924633133,True
23195,46605,6,46367,3603.0,38808.0,44208.0,0.005612,0.0018909999999999999,-0.0030499999999999998,0.385,-2.2750000000000004,-3.5525,0.73575,-0.16359375,-0.516625,0.66740625,0.70109375,-0.5911875,-1.33425,0.46471875,0.017388088720806997,0.032273503261395144,True
23196,46606,6,46368,3603.0,38809.0,44206.0,0.002257,-0.001037,-0.000488,0.42000000000000004,-1.33,-3.5700000000000003,0.7354375,-0.15696875,-0.5166875,0.6570625,0.69640625,-0.59046875,-1.333875,0.46178125000000003,0.01762878147656295,0.03225671161636347,True
23197,46607,6,46369,3601.0,38810.0,44205.0,-0.002379,-0.00366,-0.000305,0.22750000000000004,-1.0850000000000002,-3.5000000000000004,0.73275,-0.16253125000000002,-0.5158125,0.664375,0.6964375,-0.58921875,-1.33384375,0.467125,0.017352625324869256,0.03229005665593086,True
23198,46608,6,46370,3601.0,38807.0,44208.0,-0.004514,-0.005307,0.000732,0.31500000000000006,-1.0850000000000002,-3.4650000000000003,0.74075,-0.16625,-0.51834375,0.65734375,0.70259375,-0.592,-1.3339375,0.46265625,0.017312540663630447,0.03219372235366097,True
23199,46609,6,46371,3601.0,38810.0,44210.0,-0.003721,-0.00366,0.002196,0.35000000000000003,-1.05,-3.5875000000000004,0.73321875,-0.1615,-0.51628125,0.66259375,0.69675,-0.590125,-1.3332187500000001,0.46290625,0.017430777598731198,0.03224767875183646,True
23200,46610,6,46372,3601.0,38811.0,44210.0,-0.001952,-0.001647,0.0006709999999999999,0.3325,-1.2775,-3.7450000000000006,0.73790625,-0.16465625,-0.520625,0.66240625,0.71225,-0.59865625,-1.33246875,0.48721875000000003,0.01764324016682822,0.03204755754411027,True
23201,46611,6,46373,3602.0,38811.0,44212.0,-0.000732,0.0013419999999999999,0.001403,0.6125,-1.3475000000000001,-3.5700000000000003,0.73303125,-0.16209375,-0.51478125,0.65778125,0.722,-0.585375,-1.3334062500000001,0.46559375000000003,0.01721679046994402,0.032314051727647175,True
23202,46612,6,46374,3600.0,38810.0,44213.0,-0.000793,0.002989,0.0011589999999999999,0.7525000000000001,-1.3475000000000001,-3.5700000000000003,0.732375,-0.1620625,-0.5166875,0.65753125,0.69625,-0.59496875,-1.33603125,0.45765625,0.01760141492352984,0.03233907244253182,True
23203,46613,6,46375,3603.0,38812.0,44211.0,-0.000732,0.0035989999999999998,0.0011589999999999999,0.7350000000000001,-1.3475000000000001,-3.6050000000000004,0.73328125,-0.1621875,-0.5166875,0.65759375,0.6861875000000001,-0.59190625,-1.33403125,0.46037500000000003,0.017473991061591653,0.03226268026333157,True
23204,46614,6,46376,3603.0,38811.0,44212.0,0.0,0.0026839999999999998,0.000122,0.6825000000000001,-1.5750000000000002,-3.5875000000000004,0.73290625,-0.1605625,-0.51728125,0.6570312500000001,0.68778125,-0.58959375,-1.33184375,0.457125,0.017447675401306702,0.03215567362719107,True
23205,46615,6,46377,3603.0,38810.0,44213.0,0.002928,0.0028669999999999998,0.000122,0.42000000000000004,-1.7500000000000002,-3.5700000000000003,0.7321562500000001,-0.1618125,-0.51428125,0.66240625,0.68396875,-0.586,-1.3279375,0.44190625,0.017253213210770356,0.032124852250602715,True
23206,46616,6,46378,3604.0,38812.0,44213.0,0.002562,-0.0015249999999999999,-0.000488,0.45500000000000007,-1.7675,-3.6400000000000006,0.74109375,-0.16493750000000001,-0.5202187500000001,0.6580312500000001,0.69553125,-0.5908125,-1.33296875,0.4791875,0.017318459892287006,0.03208269855857301,True
23207,46617,6,46379,3603.0,38814.0,44216.0,0.000488,-0.0028669999999999998,-0.0018909999999999999,0.36750000000000005,-1.5575,-3.7100000000000004,0.7388125,-0.1655,-0.517875,0.6539375000000001,0.7185625,-0.59659375,-1.3368125,0.4725625,0.017526563002244977,0.03232204129860455,True
23208,46618,6,46380,3604.0,38812.0,44217.0,-0.002074,-0.001586,-0.0021349999999999997,0.45500000000000007,-1.4000000000000001,-3.5000000000000004,0.7340625000000001,-0.16646875,-0.517625,0.6585625,0.72071875,-0.6000625,-1.34309375,0.47421875,0.01762571741433584,0.032571743534666124,True
23209,46619,6,46381,3602.0,38814.0,44217.0,-0.0034159999999999998,0.000244,-0.000305,0.525,-1.0675000000000001,-3.5175000000000005,0.7325,-0.16159375,-0.5191875,0.6554375,0.6984375,-0.59171875,-1.3374375,0.484875,0.017490644081150288,0.032294110246941905,True
23210,46620,6,46382,3604.0,38814.0,44221.0,-0.003294,0.002196,0.0032329999999999998,0.6300000000000001,-0.9800000000000001,-3.6575,0.73759375,-0.16046875,-0.5130625,0.64971875,0.70865625,-0.5959375,-1.33234375,0.45609375,0.017704905535721092,0.03234131267463161,True
23211,46621,6,46383,3605.0,38817.0,44221.0,0.00061,-0.001586,0.000732,0.24500000000000002,-1.3125000000000002,-3.9200000000000004,0.72328125,-0.161125,-0.51628125,0.6559375000000001,0.68903125,-0.58465625,-1.3261875,0.452875,0.017227462759419304,0.03197900394601438,True
23212,46622,6,46384,3604.0,38815.0,44220.0,0.001769,-0.003355,0.0,0.29750000000000004,-1.715,-3.9025000000000003,0.7331562500000001,-0.16140625,-0.51828125,0.6648437500000001,0.6888125,-0.59409375,-1.33290625,0.46740625,0.017593146728571773,0.032156792116972366,True
23213,46623,6,46385,3605.0,38817.0,44222.0,0.005124,-0.002562,-0.001281,0.21000000000000002,-2.0475000000000003,-3.7275000000000005,0.74015625,-0.16528125,-0.51453125,0.66034375,0.70078125,-0.598625,-1.33478125,0.464125,0.017616584260299103,0.03237643901109271,True
23214,46624,6,46386,3604.0,38817.0,44223.0,0.0071979999999999995,-0.003355,-0.002562,0.29750000000000004,-2.1,-3.5525,0.73278125,-0.15687500000000001,-0.5163125000000001,0.65771875,0.6930625,-0.5891875,-1.3303125,0.4623125,0.017581406461681583,0.032135410883699124,True
23215,46625,6,46387,3604.0,38817.0,44223.0,0.004392,-0.00122,-0.0057339999999999995,0.36750000000000005,-1.9075000000000002,-3.535,0.724625,-0.162,-0.5153125000000001,0.65746875,0.6970625,-0.5850625,-1.336,0.4670625,0.017208111632825828,0.03239214951057784,True
23216,46626,6,46388,3605.0,38820.0,44223.0,-0.0051849999999999995,0.004575,0.000244,0.7525000000000001,-0.7350000000000001,-3.6400000000000006,0.7330625000000001,-0.162,-0.51609375,0.65746875,0.69259375,-0.591,-1.33265625,0.45365625,0.017445406856166887,0.03223359176951687,True
23217,46627,6,46389,3606.0,38819.0,44227.0,-0.008296,0.006039,0.002928,0.9100000000000001,-0.36750000000000005,-3.5000000000000004,0.73259375,-0.1616875,-0.51646875,0.6581875,0.69615625,-0.59003125,-1.3335625,0.46284375,0.0174194064922142,0.032253408891860354,True
23218,46628,6,46390,3605.0,38823.0,44228.0,-0.009271999999999999,0.00671,0.00549,1.0675000000000001,-0.14,-3.5000000000000004,0.73259375,-0.16146875,-0.51659375,0.6576875,0.69625,-0.5896875,-1.33278125,0.46678125000000004,0.017414566573894036,0.03221862976454668,True
23219,46629,6,46391,3605.0,38821.0,44228.0,-0.006954,0.0040869999999999995,0.006039,0.6825000000000001,-0.45500000000000007,-3.5525,0.7368125,-0.16434375,-0.51178125,0.66171875,0.7045,-0.59278125,-1.336875,0.46975,0.01742127072349737,0.032564937467623775,True
23220,46630,6,46392,3607.0,38819.0,44231.0,0.00244,-0.004575,0.001769,0.28,-1.12,-3.7275000000000005,0.72878125,-0.1629375,-0.516375,0.658,0.7015625,-0.58659375,-1.337,0.46815625,0.017231189253289713,0.03238840430990251,True
23221,46631,6,46393,3607.0,38820.0,44228.0,0.006405,-0.009089,-0.002074,-0.35000000000000003,-2.2925000000000004,-3.7275000000000005,0.72465625,-0.15796875,-0.51803125,0.661375,0.70021875,-0.5904375000000001,-1.3328125,0.46515625,0.01758686684610634,0.03216307901067045,True
23222,46632,6,46394,3607.0,38822.0,44229.0,0.008113,-0.008845,-0.004331,-0.35000000000000003,-2.415,-3.7625,0.72809375,-0.1635,-0.513375,0.66434375,0.6965,-0.58603125,-1.3334375,0.46409375,0.01718582579284731,0.032370755054461124,True
23223,46633,6,46395,3608.0,38821.0,44229.0,0.007442,-0.005307,-0.005063,-0.12250000000000001,-2.0825,-3.7975000000000003,0.7389375,-0.16518750000000001,-0.51634375,0.64984375,0.69640625,-0.5925,-1.334,0.47000000000000003,0.01737572430619091,0.03227505526170364,True
23224,46634,6,46396,3606.0,38819.0,44228.0,0.005063,-0.001952,-0.004209,0.1925,-1.7675,-3.6750000000000003,0.732125,-0.16175,-0.51728125,0.6528437500000001,0.7035,-0.59003125,-1.33209375,0.46903125,0.01741686481183305,0.032165225189883885,True
23225,46635,6,46397,3608.0,38822.0,44228.0,-0.002379,0.0050019999999999995,-0.00042699999999999997,0.6825000000000001,-0.9100000000000001,-3.535,0.7326875,-0.161375,-0.5165625,0.6555,0.7019375,-0.59328125,-1.3361875,0.470625,0.01756196115554934,0.032349973728288836,True
23226,46636,6,46398,3606.0,38821.0,44228.0,-0.003965,0.005673,0.002623,0.9450000000000001,-0.7525000000000001,-3.6925000000000003,0.7359687500000001,-0.16625,-0.5229375,0.67275,0.699625,-0.59178125,-1.3335625,0.46318750000000003,0.017303799414692664,0.031998065806970497,True
23227,46637,6,46399,3607.0,38822.0,44226.0,-0.0055509999999999995,0.005612,0.004026,0.8575,-0.7350000000000001,-3.6925000000000003,0.74215625,-0.16065625,-0.51490625,0.6478125,0.69665625,-0.5906250000000001,-1.33315625,0.46121875,0.017485067988308556,0.03229956788349261,True
23228,46638,6,46400,3605.0,38820.0,44224.0,-0.003843,0.002928,0.0042699999999999995,0.525,-0.8225000000000001,-3.6575,0.726625,-0.16109375,-0.5148125,0.64871875,0.696625,-0.5894375000000001,-1.3333125000000001,0.46237500000000004,0.017419827110725896,0.03230923709641209,True
23229,46639,6,46401,3605.0,38821.0,44224.0,-0.002257,-0.000366,0.002806,0.10500000000000001,-1.0850000000000002,-3.7975000000000003,0.72478125,-0.1599375,-0.5125625,0.66240625,0.69684375,-0.58678125,-1.33725,0.47071875,0.017360700681387484,0.0325484217900522,True
23230,46640,6,46402,3605.0,38820.0,44225.0,0.00122,-0.002196,-0.00042699999999999997,0.14,-1.5225000000000002,-3.7625,0.7321875,-0.1648125,-0.51609375,0.6648125,0.70540625,-0.5931875,-1.33440625,0.46475,0.017418441590786066,0.03230044122308964,True
23231,46641,6,46403,3606.0,38819.0,44220.0,0.0013419999999999999,-0.001769,-0.0026839999999999998,0.385,-1.5925000000000002,-3.7100000000000004,0.7416875,-0.16625,-0.51975,0.6578125,0.703875,-0.5929375,-1.3375937500000001,0.46684375,0.01735000139775901,0.03227787761022098,True
23232,46642,6,46404,3605.0,38820.0,44222.0,0.001464,0.000366,-0.0018909999999999999,0.42000000000000004,-1.54,-3.6400000000000006,0.7369687500000001,-0.1663125,-0.5206875,0.67378125,0.7048125000000001,-0.5933125,-1.33675,0.46259375,0.017362443550457064,0.0322086494913515,True
23233,46643,6,46405,3605.0,38819.0,44219.0,0.0013419999999999999,0.000366,-0.000244,0.385,-1.435,-3.7450000000000006,0.739375,-0.16128125000000001,-0.51434375,0.6518125,0.696375,-0.58928125,-1.33246875,0.46196875,0.01740595813470554,0.032295510085253734,True
23234,46644,6,46406,3606.0,38819.0,44219.0,0.00183,-0.001647,-0.00122,0.28,-1.5750000000000002,-3.6575,0.715375,-0.15962500000000002,-0.51734375,0.668875,0.70225,-0.593125,-1.33421875,0.45634375,0.017626877430176116,0.03224393884259802,True
23235,46645,6,46407,3604.0,38818.0,44219.0,0.002623,-0.002989,-0.00042699999999999997,0.0175,-1.4875,-3.7625,0.7509375,-0.163125,-0.52296875,0.67309375,0.69628125,-0.59075,-1.3324375,0.46268750000000003,0.01738966887955837,0.03195384376256726,True
23236,46646,6,46408,3603.0,38820.0,44218.0,0.0011589999999999999,-0.0017079999999999999,-0.000793,0.1925,-1.3125000000000002,-3.8500000000000005,0.74421875,-0.17040625,-0.5221875,0.66346875,0.695625,-0.59009375,-1.33115625,0.4579375,0.017067340379700667,0.031935721449746296,True
23237,46647,6,46409,3602.0,38819.0,44214.0,-0.003172,-0.000915,0.000183,0.29750000000000004,-1.1725,-3.7450000000000006,0.7440625,-0.1695625,-0.51878125,0.6556875,0.696125,-0.58959375,-1.33290625,0.46225,0.017081666914484914,0.0321370549421269,True
23238,46648,6,46410,3602.0,38819.0,44216.0,-0.003965,0.002257,0.001647,0.47250000000000003,-0.9100000000000001,-3.6750000000000003,0.72575,-0.1605,-0.5143125000000001,0.65359375,0.69646875,-0.5903437500000001,-1.33575,0.467375,0.01748018467614956,0.03242207157869808,True
23239,46649,6,46411,3600.0,38820.0,44215.0,-0.003965,0.003111,0.0008539999999999999,0.56,-0.8925000000000001,-3.6225000000000005,0.7345,-0.16128125000000001,-0.51759375,0.6638437500000001,0.69621875,-0.5930625,-1.33534375,0.46928125,0.017557034631209514,0.032277043803678414,True
23240,46650,6,46412,3600.0,38819.0,44215.0,-0.000244,0.0025009999999999998,0.002257,0.525,-1.1025,-3.7275000000000005,0.74084375,-0.1639375,-0.515625,0.65790625,0.70209375,-0.59071875,-1.3335625,0.46290625,0.017355379252588943,0.032286714511628595,True
23241,46651,6,46413,3598.0,38818.0,44214.0,0.001281,0.0008539999999999999,0.000915,0.31500000000000006,-1.3125000000000002,-3.7800000000000002,0.7326875,-0.16209375,-0.51709375,0.65715625,0.69575,-0.5895312500000001,-1.33375,0.46628125000000004,0.01738290558100818,0.03223590072531702,True
23242,46652,6,46414,3596.0,38816.0,44212.0,0.0032329999999999998,-0.000305,0.0,0.31500000000000006,-1.4875,-3.7450000000000006,0.73584375,-0.16321875,-0.5191250000000001,0.65415625,0.70465625,-0.594,-1.3365,0.45409375,0.0175157050500122,0.03226077003532453,True
23243,46653,6,46415,3596.0,38817.0,44212.0,0.002623,-0.002379,-6.1e-05,0.29750000000000004,-1.5050000000000001,-3.7800000000000002,0.73284375,-0.16125,-0.5163125000000001,0.65921875,0.69646875,-0.58975,-1.3320625,0.46928125,0.017425960003660063,0.03220227330482861,True
23244,46654,6,46416,3596.0,38817.0,44211.0,0.0018909999999999999,-0.002379,-0.0006709999999999999,0.1925,-1.5050000000000001,-3.7975000000000003,0.7400625000000001,-0.164125,-0.519375,0.6638437500000001,0.7047187500000001,-0.5934375000000001,-1.33803125,0.46309375,0.017456384452153143,0.03230938670501482,True
23245,46655,6,46417,3595.0,38817.0,44210.0,-0.0018909999999999999,-0.00244,-0.00042699999999999997,0.29750000000000004,-1.4175000000000002,-3.8850000000000002,0.73240625,-0.1621875,-0.517,0.65828125,0.6930000000000001,-0.59003125,-1.3332187500000001,0.46137500000000004,0.017399073049164993,0.032219306912983574,True
23246,46656,6,46418,3596.0,38815.0,44211.0,-0.003843,0.000183,-0.002379,0.42000000000000004,-1.3125000000000002,-3.6400000000000006,0.72984375,-0.16165625,-0.5161250000000001,0.6620625,0.6965625,-0.58525,-1.33365625,0.46946875,0.017229588879511093,0.03227055905126209,True
23247,46657,6,46419,3594.0,38815.0,44209.0,-0.001586,0.001952,-0.0011589999999999999,0.6125,-1.33,-3.6050000000000004,0.73875,-0.1623125,-0.5122187500000001,0.65734375,0.7039062500000001,-0.5906250000000001,-1.3331875,0.462625,0.017417715084508838,0.03240684773678795,True
23248,46658,6,46420,3592.0,38816.0,44210.0,-0.00061,0.0025009999999999998,0.000366,0.6300000000000001,-1.3125000000000002,-3.5875000000000004,0.73203125,-0.1616875,-0.51634375,0.6581875,0.69665625,-0.589875,-1.3331250000000001,0.46168750000000003,0.017413162937997856,0.03224163027656478,True
23249,46659,6,46421,3592.0,38818.0,44213.0,-0.000244,0.0040869999999999995,0.002379,0.6825000000000001,-1.225,-3.5700000000000003,0.733,-0.16146875,-0.516875,0.6578437500000001,0.69853125,-0.59221875,-1.33109375,0.461625,0.01751570301073383,0.03214305540991494,True
23250,46660,6,46422,3592.0,38816.0,44209.0,0.002379,-0.000244,0.001403,0.42000000000000004,-1.5750000000000002,-3.6750000000000003,0.73309375,-0.16165625,-0.51625,0.6575625,0.6869375,-0.58896875,-1.3330625,0.46221875,0.01737821965388443,0.03224294338673029,True
23251,46661,6,46423,3592.0,38815.0,44207.0,0.002989,-0.003111,-0.001647,0.14,-1.7675,-3.7100000000000004,0.73484375,-0.16315625,-0.5206875,0.6489375000000001,0.702625,-0.5890625,-1.3350312500000001,0.45178125,0.01732096333481604,0.03214299370560279,True
23252,46662,6,46424,3589.0,38815.0,44207.0,0.0025009999999999998,-0.0048189999999999995,-0.0030499999999999998,0.052500000000000005,-1.6975000000000002,-3.7275000000000005,0.73303125,-0.16178125000000002,-0.5162187500000001,0.66203125,0.69684375,-0.58928125,-1.33515625,0.46853125,0.017385624071464066,0.03232415430633075,True
23253,46663,6,46425,3588.0,38814.0,44207.0,-0.000793,-0.004514,-0.0023179999999999997,0.14,-1.5225000000000002,-3.8675,0.7411875,-0.16446875,-0.5165625,0.657375,0.70275,-0.5905312500000001,-1.3295937500000001,0.45371875,0.017326282855316517,0.03209807697764596,True
23254,46664,6,46426,3589.0,38815.0,44207.0,-0.000915,-0.002196,-0.000732,0.29750000000000004,-1.1900000000000002,-3.7800000000000002,0.73440625,-0.1645625,-0.51734375,0.66278125,0.70215625,-0.59225,-1.33440625,0.46859375000000003,0.017391149650804627,0.032251101207473536,True
23255,46665,6,46427,3586.0,38814.0,44207.0,-0.00244,0.003111,0.000732,0.5425000000000001,-0.8750000000000001,-3.6750000000000003,0.7387812500000001,-0.1544375,-0.51709375,0.6575,0.697875,-0.59009375,-1.333,0.46268750000000003,0.01771673806652323,0.0322072494374926,True
23256,46666,6,46428,3586.0,38816.0,44206.0,0.000366,0.005063,0.0028669999999999998,0.5425000000000001,-0.8225000000000001,-3.7450000000000006,0.73421875,-0.16371875,-0.51815625,0.64990625,0.700875,-0.5928125,-1.336875,0.4639375,0.017447933212193602,0.03231332790646045,True
23257,46667,6,46429,3586.0,38816.0,44207.0,0.000488,0.0034159999999999998,0.0034159999999999998,0.5775,-0.9275000000000001,-3.5700000000000003,0.7326875,-0.16190625,-0.51646875,0.65728125,0.69675,-0.5898125,-1.33346875,0.462,0.017401769533622914,0.032249827611941215,True
23258,46668,6,46430,3586.0,38814.0,44204.0,0.001647,0.000366,-0.000366,0.2625,-1.1725,-3.4825000000000004,0.73340625,-0.16146875,-0.51640625,0.6569375000000001,0.6969375,-0.5903437500000001,-1.335875,0.46771875,0.01744078913089615,0.03234420559779364,True
23259,46669,6,46431,3585.0,38814.0,44204.0,0.000793,-0.002013,-0.001586,0.35000000000000003,-1.3650000000000002,-3.5700000000000003,0.735125,-0.1616875,-0.5179375,0.66259375,0.6891875000000001,-0.5909375,-1.33453125,0.46803125,0.017455617542031492,0.032232439666709835,True
23260,46670,6,46432,3585.0,38815.0,44204.0,-0.00061,-0.001403,-0.002074,0.31500000000000006,-1.1900000000000002,-3.5875000000000004,0.7364375,-0.16446875,-0.5181250000000001,0.6616562500000001,0.7025,-0.58875,-1.33596875,0.46275,0.01725509633470591,0.03227994785081979,True
23261,46671,6,46433,3583.0,38816.0,44206.0,-0.002074,-6.1e-05,-6.1e-05,0.49000000000000005,-1.0850000000000002,-3.6050000000000004,0.7316875,-0.16140625,-0.51575,0.66134375,0.696125,-0.5904375000000001,-1.3324375,0.46775,0.017447076734604664,0.0322388044971985,True
23262,46672,6,46434,3582.0,38816.0,44203.0,-0.00183,0.001281,0.002074,0.6125,-1.1025,-3.5000000000000004,0.7354375,-0.15853125,-0.5161875,0.65759375,0.7034375,-0.58996875,-1.3330625,0.4628125,0.01754526426553511,0.03224541051836903,True
23263,46673,6,46435,3583.0,38815.0,44203.0,-0.00061,0.0023179999999999997,0.001769,0.6125,-1.33,-3.535,0.73321875,-0.161875,-0.51665625,0.66046875,0.69703125,-0.5940625,-1.3374375,0.46115625,0.017572838972821185,0.03239401182538684,True
23264,46674,6,46436,3582.0,38814.0,44207.0,-0.000488,0.0008539999999999999,0.0017079999999999999,0.5425000000000001,-1.4525000000000001,-3.6050000000000004,0.73584375,-0.16428125,-0.518625,0.65928125,0.70234375,-0.59025,-1.33490625,0.462,0.017322668537326787,0.03221962781093773,True
23265,46675,6,46437,3582.0,38814.0,44204.0,0.002257,-0.0006709999999999999,-0.00061,0.29750000000000004,-1.8025000000000002,-3.6925000000000003,0.7326875,-0.16190625,-0.5161875,0.6515625,0.69415625,-0.5913125,-1.33171875,0.4599375,0.017461705226185058,0.03219407486908089,True
23266,46676,6,46438,3580.0,38814.0,44203.0,0.002623,-0.002745,-0.0008539999999999999,0.17500000000000002,-1.6450000000000002,-3.6925000000000003,0.73309375,-0.1638125,-0.5194375,0.65721875,0.6946875,-0.59459375,-1.338,0.46025,0.01751528219489293,0.03230572657668324,True
23267,46677,6,46439,3580.0,38814.0,44203.0,0.000732,-0.003904,-0.001464,0.10500000000000001,-1.435,-3.6400000000000006,0.7260625,-0.15971875,-0.521,0.66909375,0.69215625,-0.58828125,-1.33675,0.47334375,0.01742954278270263,0.03219631562848432,True
23268,46678,6,46440,3580.0,38814.0,44201.0,-0.000732,-0.003355,-0.0018909999999999999,0.28,-1.3825,-3.7275000000000005,0.746625,-0.16221875,-0.51665625,0.65590625,0.70115625,-0.59009375,-1.3325,0.45953125,0.01740029966335529,0.03220541794137965,True
23269,46679,6,46441,3579.0,38814.0,44203.0,-0.001769,0.000305,-0.000488,0.385,-1.3125000000000002,-3.7975000000000003,0.7282500000000001,-0.16978125,-0.531125,0.6636875,0.70209375,-0.5945312500000001,-1.33625,0.45925,0.017270099425050034,0.031777591395727466,True
23270,46680,6,46442,3579.0,38815.0,44205.0,-0.000976,0.0023179999999999997,0.000244,0.5950000000000001,-1.33,-3.6050000000000004,0.7335,-0.16009375,-0.5064375,0.6648125,0.69196875,-0.58865625,-1.33446875,0.47009375000000003,0.017429276965877302,0.032683979213102704,True
23271,46681,6,46443,3579.0,38816.0,44205.0,0.00042699999999999997,0.003172,0.000366,0.43750000000000006,-1.33,-3.6400000000000006,0.75384375,-0.173875,-0.52,0.6482187500000001,0.70784375,-0.59059375,-1.33109375,0.45959375,0.01694626629338708,0.03201968924061954,True
23272,46682,6,46444,3579.0,38816.0,44204.0,0.000366,0.002806,0.000488,0.49000000000000005,-1.3125000000000002,-3.7100000000000004,0.7196875,-0.1665,-0.52071875,0.654875,0.6940937500000001,-0.5954375000000001,-1.3375625,0.45584375,0.017439718240425693,0.032238450324493524,True
23273,46683,6,46445,3577.0,38814.0,44207.0,0.0008539999999999999,0.0015249999999999999,0.0017079999999999999,0.3325,-1.4175000000000002,-3.8325000000000005,0.719875,-0.1604375,-0.5231875,0.6550625,0.69284375,-0.59528125,-1.33765625,0.4590625,0.017679966558625956,0.03214459703627876,True
23274,46684,6,46446,3576.0,38817.0,44204.0,0.002013,-0.000244,0.0008539999999999999,0.35000000000000003,-1.4875,-3.7975000000000003,0.7205625,-0.16559375,-0.52540625,0.64684375,0.69228125,-0.5925625,-1.33384375,0.4539375,0.017361702343950534,0.03191136362795322,True
23275,46685,6,46447,3577.0,38815.0,44204.0,0.000976,-0.0025009999999999998,-0.000976,0.28,-1.7325000000000002,-3.7450000000000006,0.7453125,-0.16671875,-0.51175,0.6641875,0.7075312500000001,-0.5906250000000001,-1.33075,0.46784375,0.017238530944211464,0.03233224440650198,True
23276,46686,6,46448,3577.0,38815.0,44203.0,0.000915,-0.002562,0.000122,0.24500000000000002,-1.54,-3.8150000000000004,0.7545625,-0.161125,-0.5121875,0.654625,0.70059375,-0.58846875,-1.3304375,0.46915625,0.017379843956326073,0.03230303463965042,True
23277,46687,6,46449,3577.0,38815.0,44205.0,0.000183,-0.00183,-0.0015249999999999999,0.17500000000000002,-1.4525000000000001,-3.8325000000000005,0.7521875,-0.15959375,-0.5086875,0.666875,0.70665625,-0.58878125,-1.32875,0.466875,0.017454606457975627,0.03237674579282437,True
23278,46688,6,46450,3575.0,38816.0,44202.0,-0.0018909999999999999,-0.0013419999999999999,-0.00122,0.29750000000000004,-1.2075,-3.6925000000000003,0.74709375,-0.16096875,-0.51075,0.6746562500000001,0.70046875,-0.59015625,-1.3314375,0.4679375,0.01745363045425952,0.032397983730690375,True
23279,46689,6,46451,3576.0,38816.0,44206.0,-0.002928,-0.00042699999999999997,-0.000305,0.36750000000000005,-1.0150000000000001,-3.6750000000000003,0.71565625,-0.15762500000000002,-0.52084375,0.654625,0.69653125,-0.5899375,-1.335625,0.46168750000000003,0.017580870223846645,0.03215950859708414,True
23280,46690,6,46452,3576.0,38817.0,44204.0,-0.002196,0.002989,0.002379,0.6300000000000001,-1.225,-3.7975000000000003,0.7205312500000001,-0.16528125,-0.5210625,0.649625,0.69675,-0.59315625,-1.33325,0.46203125,0.01739813286470703,0.032060138355718276,True
23281,46691,6,46453,3576.0,38815.0,44204.0,0.000244,0.003355,0.0017079999999999999,0.6125,-1.2775,-3.7800000000000002,0.7241875,-0.166875,-0.52228125,0.65990625,0.69803125,-0.59328125,-1.33525,0.462,0.017338322839698342,0.03208844396641044,True
23282,46692,6,46454,3576.0,38817.0,44205.0,0.000976,0.0017079999999999999,0.001098,0.5425000000000001,-1.5575,-3.6575,0.725375,-0.1594375,-0.516,0.6533125,0.695625,-0.5895,-1.3354062500000001,0.4699375,0.01748968055470831,0.03234233711961892,True
23283,46693,6,46455,3573.0,38816.0,44207.0,0.0008539999999999999,0.000366,-0.0015249999999999999,0.29750000000000004,-1.715,-3.8150000000000004,0.7352500000000001,-0.1620625,-0.5171875,0.65146875,0.7044375,-0.5893125,-1.33440625,0.4618125,0.01737543495776875,0.032257268709425545,True
23284,46694,6,46456,3575.0,38818.0,44207.0,0.00183,-0.0025009999999999998,-0.0030499999999999998,0.24500000000000002,-1.7850000000000001,-3.6400000000000006,0.72375,-0.15640625,-0.51915625,0.6626562500000001,0.696875,-0.591875,-1.33425,0.468125,0.01770783033013953,0.03217358911355181,True
23285,46695,6,46457,3575.0,38821.0,44208.0,0.002745,-0.001037,-0.0015249999999999999,0.29750000000000004,-2.0650000000000004,-3.7100000000000004,0.73953125,-0.16425,-0.5181875,0.6574375,0.70253125,-0.59171875,-1.3334062500000001,0.46265625,0.017382630077452395,0.0321795948778108,True
23286,46696,6,46458,3574.0,38819.0,44209.0,0.002623,0.001037,-0.0026839999999999998,0.4025,-1.9250000000000003,-3.6925000000000003,0.73140625,-0.16134375,-0.51665625,0.6512187500000001,0.69621875,-0.5904375000000001,-1.33296875,0.463,0.017449618372995603,0.03222332558239942,True
23287,46697,6,46459,3575.0,38819.0,44210.0,0.0017079999999999999,0.000244,0.00042699999999999997,0.385,-1.5050000000000001,-3.6925000000000003,0.7273437500000001,-0.16128125000000001,-0.51646875,0.6613125,0.6960625,-0.5923437500000001,-1.33009375,0.4670625,0.01752832118736141,0.03212088387947636,True
23288,46698,6,46460,3573.0,38821.0,44210.0,-0.001403,-0.001037,0.002379,0.3325,-1.33,-3.7275000000000005,0.7391875,-0.16296875,-0.51909375,0.66253125,0.70253125,-0.59240625,-1.335875,0.46868750000000003,0.017462199332365046,0.032238130713859295,True
23289,46699,6,46461,3573.0,38821.0,44210.0,-0.0051849999999999995,0.000366,0.001647,0.49000000000000005,-1.3650000000000002,-3.7450000000000006,0.7313125,-0.16215625,-0.51696875,0.65046875,0.6970937500000001,-0.58975,-1.33371875,0.46218750000000003,0.01738910521660448,0.0322396410909867,True
23290,46700,6,46462,3572.0,38821.0,44210.0,-0.0021349999999999997,0.001647,0.001464,0.525,-1.435,-3.7275000000000005,0.7324375,-0.16493750000000001,-0.5204375,0.65590625,0.6969375,-0.5915,-1.33496875,0.4675,0.017345932537665455,0.03215047383865433,True
23291,46701,6,46463,3573.0,38822.0,44213.0,0.0006709999999999999,0.00183,0.000488,0.525,-1.6625,-3.8150000000000004,0.732125,-0.16109375,-0.51875,0.6576875,0.6960000000000001,-0.5899375,-1.3332187500000001,0.46425,0.01743980642488416,0.03215022765316784,True
23292,46702,6,46464,3574.0,38824.0,44214.0,0.000915,0.000305,-0.000976,0.43750000000000006,-1.7675,-3.8150000000000004,0.7325,-0.16190625,-0.51896875,0.659625,0.6963125,-0.59025,-1.3335625,0.46390625,0.017419251532619636,0.03215472557402853,True
23293,46703,6,46465,3572.0,38823.0,44214.0,0.00183,6.1e-05,-0.000793,0.3325,-1.7325000000000002,-3.8150000000000004,0.73765625,-0.1619375,-0.5162187500000001,0.65725,0.70303125,-0.59059375,-1.3330625,0.46309375,0.01743171614146161,0.03224417695254966,True
23294,46704,6,46466,3573.0,38823.0,44214.0,0.002562,0.00122,-0.000549,0.31500000000000006,-1.6625,-3.7800000000000002,0.73278125,-0.16418750000000001,-0.51925,0.6574375,0.6970000000000001,-0.5933437500000001,-1.33553125,0.464125,0.017450097650914185,0.03221883298776299,True
23295,46705,6,46467,3572.0,38824.0,44214.0,0.000976,0.00042699999999999997,-0.000366,0.3325,-1.61,-3.7975000000000003,0.7271875,-0.16228125000000002,-0.516,0.66028125,0.6958125000000001,-0.59003125,-1.327375,0.4675625,0.01739526052859327,0.032035495190480656,True
23296,46706,6,46468,3572.0,38825.0,44216.0,0.000793,0.0011589999999999999,-0.000183,0.31500000000000006,-1.4875,-3.8325000000000005,0.7381562500000001,-0.16415625,-0.5193125000000001,0.6635625,0.70365625,-0.59346875,-1.33534375,0.46818750000000003,0.017456362270978958,0.03220920379262665,True
23297,46707,6,46469,3573.0,38823.0,44217.0,-0.001098,-0.000732,-0.000244,0.21000000000000002,-1.435,-3.8500000000000005,0.72365625,-0.1573125,-0.51565625,0.657375,0.6976875,-0.59009375,-1.33190625,0.46234375,0.01759982106615596,0.03222220988600098,True
23298,46708,6,46470,3572.0,38826.0,44216.0,-0.001647,-0.0018909999999999999,-0.0008539999999999999,0.2625,-1.4000000000000001,-3.7800000000000002,0.73284375,-0.1615,-0.5180625,0.66315625,0.6959062500000001,-0.58646875,-1.3312187500000001,0.46696875,0.017284659880244087,0.03210095250549286,True
23299,46709,6,46471,3572.0,38827.0,44219.0,-0.00122,-0.002257,-0.000915,0.28,-1.6450000000000002,-3.7275000000000005,0.73246875,-0.1619375,-0.51625,0.64575,0.6989062500000001,-0.59028125,-1.3320625,0.46234375,0.017419229395759756,0.032204740533859015,True
23300,46710,6,46472,3574.0,38826.0,44219.0,0.001037,-0.0006709999999999999,-0.001464,0.31500000000000006,-1.8025000000000002,-3.7625,0.737125,-0.16509375,-0.516875,0.65740625,0.7010000000000001,-0.58978125,-1.33275,0.462,0.017270893778284422,0.032206333698473325,True
23301,46711,6,46473,3573.0,38827.0,44220.0,0.00244,0.00042699999999999997,0.000244,0.35000000000000003,-1.7850000000000001,-3.7625,0.73278125,-0.16325,-0.5175,0.665125,0.6878125,-0.5925625,-1.33375,0.45621875,0.01745700554791718,0.03221986480485518,True
23302,46712,6,46474,3572.0,38827.0,44220.0,0.001952,0.0011589999999999999,0.000305,0.42000000000000004,-1.8025000000000002,-3.7275000000000005,0.73803125,-0.162125,-0.5174375,0.6500625,0.69703125,-0.59046875,-1.33265625,0.46228125000000003,0.01741909657578203,0.03218054758864855,True
23303,46713,6,46475,3573.0,38827.0,44220.0,0.0006709999999999999,0.00183,0.001098,0.4025,-1.5750000000000002,-3.6575,0.73190625,-0.16459375,-0.5193125000000001,0.6476875,0.69584375,-0.59103125,-1.3336875000000001,0.46215625,0.017341180028796067,0.032145932170356176,True
23304,46714,6,46476,3572.0,38827.0,44222.0,-0.002257,0.00244,0.000732,0.6300000000000001,-1.2950000000000002,-3.7450000000000006,0.732875,-0.16146875,-0.5161875,0.6636562500000001,0.6958125000000001,-0.5901875,-1.33215625,0.46584375,0.017434545791893616,0.03221078939934297,True
23305,46715,6,46477,3572.0,38827.0,44224.0,-0.002562,0.00244,0.0021349999999999997,0.5425000000000001,-1.2075,-3.8675,0.7388125,-0.15887500000000002,-0.51675,0.6576875,0.7029062500000001,-0.59075,-1.33346875,0.46271875,0.017562498093795433,0.03223872569760112,True
23306,46716,6,46478,3570.0,38828.0,44225.0,-0.002379,6.1e-05,6.1e-05,0.45500000000000007,-1.2950000000000002,-3.8150000000000004,0.73575,-0.16546875,-0.51753125,0.66425,0.6964375,-0.591125,-1.3374375,0.47509375000000004,0.01730934432645924,0.03235947794641822,True
23307,46717,6,46479,3571.0,38829.0,44226.0,-6.1e-05,-0.000305,-0.0008539999999999999,0.43750000000000006,-1.3650000000000002,-3.6750000000000003,0.73259375,-0.1624375,-0.51196875,0.6578125,0.7015,-0.59109375,-1.33259375,0.46021875,0.017431361709968674,0.032394037819360684,True
23308,46718,6,46480,3573.0,38829.0,44226.0,0.001464,-0.002196,-0.001281,0.3325,-1.5925000000000002,-3.6750000000000003,0.721875,-0.16396875,-0.518875,0.66371875,0.6946875,-0.5875625,-1.33415625,0.47259375000000003,0.01722796840882458,0.03218110924850714,True
23309,46719,6,46481,3573.0,38829.0,44227.0,0.0021349999999999997,-0.00244,-0.000366,0.28,-1.7500000000000002,-3.8500000000000005,0.74028125,-0.1643125,-0.51665625,0.64746875,0.70903125,-0.5913437500000001,-1.340375,0.4644375,0.017365104336764844,0.03250617838133808,True
23310,46720,6,46482,3572.0,38831.0,44228.0,0.000732,-0.0021349999999999997,-0.0013419999999999999,0.31500000000000006,-1.6975000000000002,-3.8150000000000004,0.732375,-0.155625,-0.5166875,0.6620625,0.6793750000000001,-0.5885312500000001,-1.3290625,0.45584375,0.017606023133244286,0.03207284122734507,True
23311,46721,6,46483,3572.0,38829.0,44227.0,0.000976,-0.000732,0.00061,0.4025,-1.61,-3.8675,0.737125,-0.16421875,-0.51896875,0.6578125,0.695625,-0.593875,-1.33609375,0.47503125,0.017470050978139886,0.03225141997274146,True
23312,46722,6,46484,3571.0,38832.0,44230.0,-0.000732,0.0011589999999999999,0.0015249999999999999,0.42000000000000004,-1.4700000000000002,-3.7625,0.7381562500000001,-0.16425,-0.51725,0.6570625,0.71234375,-0.5985,-1.3395937500000001,0.46078125000000003,0.01765351545825965,0.032452917679471484,True
23313,46723,6,46485,3573.0,38832.0,44228.0,0.000488,0.002257,0.002379,0.47250000000000003,-1.2950000000000002,-3.7800000000000002,0.7321875,-0.1638125,-0.520625,0.65690625,0.689375,-0.58790625,-1.3305,0.47671875,0.017248062754428306,0.031972325852233474,True
23314,46724,6,46486,3572.0,38835.0,44232.0,-0.0023179999999999997,0.000549,6.1e-05,0.3325,-1.2425000000000002,-3.8675,0.7330625000000001,-0.16478125,-0.519625,0.657125,0.69003125,-0.587375,-1.3373125000000001,0.46240625,0.017187428507516558,0.03227206910756617,True
23315,46725,6,46487,3572.0,38835.0,44235.0,-0.002623,-0.000488,-0.001037,0.24500000000000002,-1.4175000000000002,-3.8675,0.7329375,-0.16478125,-0.5161250000000001,0.658125,0.689625,-0.59121875,-1.33509375,0.46318750000000003,0.01734104780797007,0.03232546751479852,True
23316,46726,6,46488,3573.0,38836.0,44235.0,-0.00122,0.001098,-0.000915,0.35000000000000003,-1.54,-3.8500000000000005,0.732,-0.164875,-0.51478125,0.65990625,0.69040625,-0.5905312500000001,-1.33753125,0.45471875,0.017309762268759445,0.03247159290627417,True
23317,46727,6,46489,3573.0,38836.0,44234.0,0.000915,0.001464,-0.002196,0.47250000000000003,-1.7850000000000001,-3.7975000000000003,0.73828125,-0.1621875,-0.5165625,0.6634375,0.71221875,-0.5963125,-1.33034375,0.4574375,0.017650003430392257,0.032126735350758905,True
23318,46728,6,46490,3574.0,38835.0,44236.0,0.0046359999999999995,0.002074,-0.001647,0.6125,-1.7850000000000001,-3.6225000000000005,0.74021875,-0.162875,-0.5161875,0.65659375,0.70665625,-0.59290625,-1.33,0.46234375,0.017485987448108132,0.03212840505329649,True
23319,46729,6,46491,3573.0,38837.0,44236.0,0.0030499999999999998,-0.0006709999999999999,-0.000122,0.24500000000000002,-1.7325000000000002,-3.7100000000000004,0.7241562500000001,-0.16175,-0.51565625,0.656625,0.70859375,-0.59084375,-1.3293125000000001,0.46590625,0.017449330098728313,0.03212310835519125,True
23320,46730,6,46492,3574.0,38836.0,44237.0,0.0006709999999999999,-0.002989,0.000244,0.07,-1.4700000000000002,-3.8150000000000004,0.73909375,-0.1655625,-0.51628125,0.65671875,0.69940625,-0.59346875,-1.336625,0.46053125,0.01739918245570788,0.03237778314988677,True
23321,46731,6,46493,3572.0,38838.0,44236.0,-0.003355,-0.003721,0.0017079999999999999,0.10500000000000001,-1.1375000000000002,-3.9200000000000004,0.7319687500000001,-0.16221875,-0.51953125,0.6640625,0.6935625,-0.5903125,-1.33353125,0.46975,0.01740904065371272,0.03213132792136904,True
23322,46732,6,46494,3572.0,38840.0,44239.0,-0.006527,-0.0011589999999999999,0.001403,0.29750000000000004,-0.9275000000000001,-3.9375000000000004,0.7385625,-0.1626875,-0.5179375,0.65478125,0.68934375,-0.5904375000000001,-1.3328125,0.46190625,0.017394973147590403,0.032166779744649356,True
23323,46733,6,46495,3573.0,38839.0,44242.0,-0.008235,0.000549,0.00183,0.525,-1.05,-3.8150000000000004,0.7249375,-0.162125,-0.5160625,0.657625,0.69653125,-0.59109375,-1.331,0.45378125,0.017444069562786324,0.03217154869527456,True
23324,46734,6,46496,3574.0,38842.0,44244.0,-0.0011589999999999999,0.001403,0.000549,0.42000000000000004,-1.5050000000000001,-3.8325000000000005,0.73165625,-0.16096875,-0.51853125,0.6613125,0.696625,-0.5895312500000001,-1.33534375,0.46118750000000003,0.017428656758147844,0.032240040161286544,True
23325,46735,6,46497,3575.0,38842.0,44243.0,0.002745,0.000122,-0.0017079999999999999,0.36750000000000005,-1.8375000000000001,-3.9025000000000003,0.739,-0.16265625,-0.51675,0.6573125,0.702125,-0.591125,-1.333875,0.46115625,0.01742371485647769,0.03225424456384978,True
23326,46736,6,46498,3574.0,38841.0,44244.0,0.0057339999999999995,-0.000122,-0.000976,0.35000000000000003,-1.9250000000000003,-3.9025000000000003,0.72503125,-0.1556875,-0.51665625,0.66215625,0.68946875,-0.5903437500000001,-1.33346875,0.46940625,0.01767589157837617,0.03224242633571448,True
23327,46737,6,46499,3575.0,38843.0,44243.0,0.007686,0.001769,-0.000488,0.385,-1.9425000000000001,-3.7800000000000002,0.73753125,-0.16184375,-0.5168125,0.6577500000000001,0.70228125,-0.585,-1.33284375,0.46237500000000004,0.017211968680089482,0.03221238239390318,True
23328,46738,6,46500,3576.0,38842.0,44243.0,0.005673,0.002562,-0.000244,0.3325,-1.7325000000000002,-3.7975000000000003,0.73240625,-0.16175,-0.5190625,0.662125,0.6965625,-0.59003125,-1.3345625,0.46946875,0.01741686481183305,0.03218922766082896,True
23329,46739,6,46501,3574.0,38843.0,44245.0,0.000122,-0.004758,-0.002989,-0.035,-1.4700000000000002,-3.9200000000000004,0.73921875,-0.16375,-0.51734375,0.65759375,0.6994375,-0.5943125,-1.334125,0.46265625,0.01750658815935595,0.03224035762040331,True
23330,46740,6,46502,3575.0,38842.0,44245.0,-0.002928,-0.0055509999999999995,-0.0025009999999999998,-0.15750000000000003,-1.5750000000000002,-4.025,0.7329375,-0.15828125,-0.51609375,0.66,0.6828125,-0.58828125,-1.33196875,0.46925,0.017488005592094808,0.032207326957167506,True
23331,46741,6,46503,3576.0,38846.0,44249.0,-0.001769,-0.004758,-0.00042699999999999997,0.08750000000000001,-1.435,-4.025,0.73278125,-0.1631875,-0.5149375,0.6574375,0.7035,-0.59128125,-1.33325,0.4624375,0.01740835484121023,0.032301915466827195,True
23332,46742,6,46504,3575.0,38847.0,44248.0,-0.001281,-0.0008539999999999999,-0.00061,0.36750000000000005,-1.4700000000000002,-3.7275000000000005,0.72728125,-0.15753125,-0.51640625,0.66671875,0.69659375,-0.59190625,-1.33628125,0.470625,0.017663331812677187,0.032359721298878465,True
23333,46743,6,46505,3578.0,38844.0,44250.0,-0.0034159999999999998,0.0025009999999999998,-0.00042699999999999997,0.525,-1.1725,-3.7800000000000002,0.7455,-0.16303125000000002,-0.5159375,0.6541250000000001,0.6990937500000001,-0.5886875,-1.33209375,0.46225,0.017311060218240606,0.03221827054860004,True
23334,46744,6,46506,3578.0,38846.0,44252.0,-0.006771,0.0075639999999999995,0.002257,0.8925000000000001,-0.7875000000000001,-3.6575,0.728375,-0.16,-0.52190625,0.66446875,0.6959062500000001,-0.5925,-1.33415625,0.4578125,0.017586662600386296,0.0320614585299244,True
23335,46745,6,46507,3577.0,38847.0,44252.0,-0.005673,0.006893,0.004697,0.9275000000000001,-0.8925000000000001,-3.5700000000000003,0.7283125,-0.1605625,-0.51753125,0.6691875,0.69553125,-0.59028125,-1.333875,0.46825,0.0174751457956586,0.03222340640742879,True
23336,46746,6,46508,3578.0,38848.0,44254.0,-0.001769,0.0050019999999999995,0.003721,0.665,-1.3650000000000002,-3.6925000000000003,0.74621875,-0.1585,-0.51096875,0.65346875,0.6901875000000001,-0.5875,-1.33271875,0.46234375,0.017447890188103714,0.032438286948573175,True
23337,46747,6,46509,3578.0,38848.0,44254.0,0.004941,0.002806,0.0006709999999999999,0.42000000000000004,-1.9600000000000002,-3.7625,0.72778125,-0.16496875,-0.51759375,0.665875,0.69615625,-0.589125,-1.33478125,0.460625,0.017249749635255423,0.03225555776211804,True
23338,46748,6,46510,3579.0,38848.0,44252.0,0.008539999999999999,-0.002013,-0.002623,0.0175,-2.1700000000000004,-3.8150000000000004,0.7436875000000001,-0.167875,-0.51703125,0.6541875,0.697625,-0.5913125,-1.33246875,0.46278125000000003,0.01721898739646369,0.032189420938296825,True
23339,46749,6,46511,3578.0,38848.0,44254.0,0.002745,-0.008113,-0.0050019999999999995,-0.3325,-2.0125,-3.7100000000000004,0.728625,-0.16309375,-0.51940625,0.67096875,0.6980000000000001,-0.5913437500000001,-1.3350312500000001,0.46696875,0.01741466445891148,0.03219356597399106,True
23340,46750,6,46512,3578.0,38848.0,44253.0,-6.1e-05,-0.009943,-0.0034159999999999998,-0.24500000000000002,-1.715,-3.7800000000000002,0.72821875,-0.1601875,-0.51390625,0.66428125,0.695875,-0.5867187500000001,-1.33234375,0.4615625,0.01734803469861142,0.032308005452515616,True
23341,46751,6,46513,3578.0,38851.0,44251.0,-0.002623,-0.005612,-0.0006709999999999999,-0.035,-1.4175000000000002,-3.7625,0.7461875,-0.16375,-0.511125,0.65440625,0.70146875,-0.5905625,-1.33275,0.46146875,0.017356760342509447,0.03243331260917192,True
23342,46752,6,46514,3577.0,38850.0,44252.0,-0.003172,-0.0011589999999999999,0.000244,0.29750000000000004,-1.2425000000000002,-3.7625,0.74746875,-0.15575,-0.5150625,0.66321875,0.70034375,-0.5905625,-1.333,0.46590625,0.017682088402817136,0.03228743141357123,True
23343,46753,6,46515,3577.0,38852.0,44253.0,-0.002562,0.002013,0.002562,0.49000000000000005,-1.3825,-3.7275000000000005,0.732875,-0.1608125,-0.5188125,0.66640625,0.69496875,-0.5830625,-1.3329375,0.46021875,0.01717646041863173,0.032137015298758786,True
23344,46754,6,46516,3577.0,38850.0,44252.0,-0.001647,0.004209,0.0032329999999999998,0.5775,-1.5050000000000001,-3.6400000000000006,0.7278125,-0.16028125000000001,-0.5176875,0.65928125,0.69584375,-0.5906250000000001,-1.33434375,0.46253125,0.017500317702376415,0.03223514522652674,True
23345,46755,6,46517,3577.0,38851.0,44247.0,-0.0006709999999999999,0.00549,0.003111,0.6125,-1.715,-3.8500000000000005,0.72853125,-0.16146875,-0.51546875,0.656625,0.69625,-0.59103125,-1.3334375,0.4620625,0.01746825887995242,0.032288107367979574,True
23346,46756,6,46518,3576.0,38849.0,44248.0,0.000244,0.003111,-6.1e-05,0.525,-1.995,-3.7275000000000005,0.7396875,-0.16475,-0.51684375,0.6573125,0.69178125,-0.5920625,-1.33365625,0.46253125,0.01737603342541928,0.03224218770237715,True
23347,46757,6,46519,3574.0,38849.0,44247.0,0.002196,0.0011589999999999999,-0.001952,0.5075000000000001,-2.2225,-3.6050000000000004,0.73228125,-0.161625,-0.5202187500000001,0.6621875,0.696625,-0.58975,-1.33534375,0.46721875,0.017410709746947407,0.032173433604981184,True
23348,46758,6,46520,3571.0,38849.0,44243.0,0.001769,0.00042699999999999997,-0.002562,0.3325,-2.1700000000000004,-3.7975000000000003,0.7321875,-0.16159375,-0.51871875,0.654,0.69615625,-0.5898125,-1.329875,0.47634375,0.01741447804858211,0.03202369731394252,True
23349,46759,6,46521,3573.0,38850.0,44243.0,0.001952,-0.001464,-0.0018909999999999999,0.3325,-1.9250000000000003,-3.7275000000000005,0.739125,-0.16240625,-0.5168125,0.65771875,0.6935,-0.5903125,-1.3338125,0.46234375,0.01740141569978015,0.03224939001976114,True
23350,46760,6,46522,3571.0,38848.0,44243.0,-0.00061,-0.000915,-0.000244,0.36750000000000005,-1.7500000000000002,-3.6925000000000003,0.732,-0.16115625,-0.517625,0.6594375,0.6920000000000001,-0.58921875,-1.33240625,0.45459375,0.017408544140915416,0.032163594802605854,True
23351,46761,6,46523,3573.0,38850.0,44242.0,-0.000915,-0.001647,-6.1e-05,0.35000000000000003,-1.6800000000000002,-3.6925000000000003,0.7243437500000001,-0.16428125,-0.51796875,0.65778125,0.699125,-0.6015,-1.34375,0.4649375,0.01777203625795175,0.03258323057953144,True
23352,46762,6,46524,3571.0,38848.0,44238.0,-0.000122,-0.002257,0.000244,0.24500000000000002,-1.6975000000000002,-3.7275000000000005,0.73171875,-0.16321875,-0.51959375,0.662375,0.67871875,-0.5857187500000001,-1.3318125,0.4650625,0.017184773172433696,0.032063191293556274,True
23353,46763,6,46525,3570.0,38848.0,44238.0,0.00122,-0.002562,6.1e-05,0.14,-1.6800000000000002,-3.7975000000000003,0.7389375,-0.16390625,-0.52009375,0.664875,0.6950625,-0.588875,-1.334125,0.47540625000000003,0.01728296841559445,0.03213180838098809,True
23354,46764,6,46526,3570.0,38847.0,44238.0,0.000793,-0.0018909999999999999,6.1e-05,0.22750000000000004,-1.4875,-3.7275000000000005,0.7373125,-0.16468750000000001,-0.517625,0.6633125,0.705,-0.5949375,-1.3345625,0.46909375000000003,0.017493437419794217,0.03224596832883931,True
23355,46765,6,46527,3566.0,38849.0,44236.0,6.1e-05,-0.000793,0.000122,0.36750000000000005,-1.4000000000000001,-3.6400000000000006,0.74053125,-0.16418750000000001,-0.5191875,0.665625,0.69915625,-0.5956875,-1.334625,0.46996875,0.017543725907234752,0.03218668127118519,True
23356,46766,6,46528,3567.0,38848.0,44235.0,-0.000366,-0.00061,-0.000488,0.4025,-1.2425000000000002,-3.6400000000000006,0.73146875,-0.16565625,-0.51775,0.66271875,0.71434375,-0.59678125,-1.3415000000000001,0.480125,0.017527699889594295,0.03250596847069037,True
23357,46767,6,46529,3565.0,38850.0,44235.0,-0.0011589999999999999,0.002196,-0.000183,0.47250000000000003,-1.4175000000000002,-3.5875000000000004,0.73584375,-0.16475,-0.51959375,0.65771875,0.71821875,-0.59796875,-1.344375,0.4763125,0.01761197253330115,0.032542970580256965,True
23358,46768,6,46530,3565.0,38848.0,44233.0,-0.0028669999999999998,0.0042699999999999995,-0.001586,0.6825000000000001,-1.3650000000000002,-3.6400000000000006,0.7341875,-0.1628125,-0.5161250000000001,0.6513125,0.7116250000000001,-0.587,-1.33384375,0.45659375,0.017252511489811686,0.03227772137814657,True
23359,46769,6,46531,3564.0,38847.0,44232.0,-0.001281,0.0042699999999999995,0.002013,0.7175,-1.225,-3.7100000000000004,0.731875,-0.1615,-0.51546875,0.66246875,0.67634375,-0.5865312500000001,-1.3258750000000001,0.45603125,0.017287157984109697,0.03199914119452932,True
23360,46770,6,46532,3563.0,38847.0,44234.0,-0.001586,0.0035989999999999998,0.004148,0.56,-1.3650000000000002,-3.6225000000000005,0.73990625,-0.163875,-0.51665625,0.6471875,0.70546875,-0.59571875,-1.3354375,0.45834375,0.01755767962666267,0.03231762822331369,True
23361,46771,6,46533,3561.0,38847.0,44230.0,0.000793,-0.000976,0.0028669999999999998,0.35000000000000003,-1.5750000000000002,-3.7625,0.73128125,-0.1615625,-0.5163125000000001,0.65746875,0.6869375,-0.58715625,-1.32678125,0.45090625,0.01730959634666982,0.03200046393577944,True
23362,46772,6,46534,3562.0,38847.0,44227.0,0.002928,-0.004209,0.001647,0.0175,-1.7500000000000002,-3.8150000000000004,0.7375625,-0.165,-0.51471875,0.66315625,0.69275,-0.59359375,-1.3376875,0.460625,0.017427048456470497,0.032480026048154545,True
23363,46773,6,46535,3560.0,38846.0,44224.0,0.002623,-0.004697,-0.003965,0.0,-1.9075000000000002,-3.9200000000000004,0.73409375,-0.15962500000000002,-0.517,0.6564375,0.6970625,-0.5895625,-1.3300625,0.4618125,0.017484552643016727,0.03209871669286248,True
23364,46774,6,46536,3557.0,38845.0,44225.0,-0.000488,-0.0025009999999999998,-0.003538,0.22750000000000004,-1.6275000000000002,-3.6575,0.7319687500000001,-0.16215625,-0.518,0.663125,0.69628125,-0.59290625,-1.3350625,0.46590625,0.017515213355477253,0.03225026581244866,True
23365,46775,6,46537,3556.0,38845.0,44224.0,-0.0028669999999999998,0.002196,-0.002257,0.525,-1.2600000000000002,-3.4650000000000003,0.7348125,-0.1630625,-0.51659375,0.65271875,0.69953125,-0.59065625,-1.33271875,0.45040625,0.01738846436845296,0.032216242088109866,True
23366,46776,6,46538,3556.0,38846.0,44224.0,-0.0046359999999999995,0.004697,-0.0013419999999999999,0.7350000000000001,-1.1725,-3.6050000000000004,0.7315625,-0.16215625,-0.5175,0.6609375000000001,0.69678125,-0.58765625,-1.33471875,0.46553125,0.01730543146014578,0.03225687082079804,True
23367,46777,6,46539,3556.0,38845.0,44224.0,-0.003965,0.005124,0.001464,0.7175,-1.225,-3.8150000000000004,0.7368750000000001,-0.16443750000000001,-0.515125,0.66171875,0.7049375,-0.594,-1.33371875,0.46359375,0.01746615028055623,0.03231241958901119,True
23368,46778,6,46540,3554.0,38846.0,44221.0,0.0025009999999999998,0.0023179999999999997,0.00244,0.2625,-1.9250000000000003,-3.8150000000000004,0.7334375,-0.1631875,-0.5181875,0.6579375000000001,0.6953125,-0.5904375000000001,-1.332375,0.46140625,0.017374640040462883,0.03214019609294431,True
23369,46779,6,46541,3554.0,38845.0,44221.0,0.0053679999999999995,-0.0013419999999999999,0.0018909999999999999,-0.0175,-2.0125,-3.9200000000000004,0.73384375,-0.16209375,-0.51640625,0.6598125,0.6961875,-0.5855,-1.33259375,0.46253125,0.017221787232311728,0.032218868231761705,True
23370,46780,6,46542,3551.0,38843.0,44219.0,0.004209,-0.0048189999999999995,0.000183,-0.08750000000000001,-1.8900000000000001,-4.0075,0.733,-0.1620625,-0.51753125,0.66,0.6954375,-0.59075,-1.333625,0.4625,0.017432876183117636,0.03221385609047264,True
23371,46781,6,46543,3553.0,38843.0,44217.0,0.002074,-0.0060999999999999995,0.001464,-0.14,-1.6625,-4.077500000000001,0.7369375,-0.163125,-0.51790625,0.6512187500000001,0.6960625,-0.5900625,-1.32915625,0.46240625,0.01736219661906106,0.03202830729902422,True
23372,46782,6,46544,3552.0,38842.0,44218.0,-0.000793,-0.005795,-0.0017079999999999999,-0.052500000000000005,-1.5750000000000002,-3.9025000000000003,0.73509375,-0.16234375,-0.515375,0.65834375,0.6955625,-0.58975,-1.332625,0.46209375,0.017381480088248153,0.03226077044917374,True
23373,46783,6,46545,3552.0,38844.0,44218.0,-0.0017079999999999999,0.00061,-0.002745,0.43750000000000006,-1.2600000000000002,-3.7275000000000005,0.73159375,-0.1614375,-0.5221875,0.659375,0.69546875,-0.59315625,-1.33596875,0.46296875,0.017554426345744053,0.03211960268935838,True
23374,46784,6,46546,3548.0,38842.0,44215.0,-0.000793,0.002806,-0.0026839999999999998,0.5775,-1.2775,-3.7100000000000004,0.7325,-0.1615625,-0.5161875,0.6556875,0.69565625,-0.59025,-1.3325625,0.46503125,0.017433230650359392,0.03222630951764158,True
23375,46785,6,46547,3548.0,38844.0,44215.0,0.000244,0.0034159999999999998,-0.0008539999999999999,0.5775,-1.4525000000000001,-3.6400000000000006,0.72771875,-0.16634375,-0.51715625,0.67171875,0.7029062500000001,-0.5873125,-1.333875,0.46446875,0.01712138120016167,0.03223820872251087,True
23376,46786,6,46548,3547.0,38841.0,44216.0,0.00042699999999999997,0.0040869999999999995,-0.00061,0.5775,-1.5050000000000001,-3.6400000000000006,0.74615625,-0.16718750000000002,-0.5240625,0.65596875,0.696375,-0.59015625,-1.332125,0.46215625,0.01720073454189621,0.03189872543262754,True
23377,46787,6,46549,3547.0,38841.0,44216.0,0.000793,0.0015249999999999999,-6.1e-05,0.525,-1.5925000000000002,-3.6925000000000003,0.71915625,-0.16009375,-0.513125,0.66490625,0.69678125,-0.59,-1.334375,0.469625,0.017482970719804796,0.03241643024546688,True
23378,46788,6,46550,3545.0,38841.0,44214.0,0.00122,0.00061,0.0030499999999999998,0.5075000000000001,-1.3125000000000002,-3.6400000000000006,0.7395,-0.16071875,-0.52146875,0.6728125,0.69640625,-0.5906250000000001,-1.33296875,0.46259375,0.017482526369297244,0.03203335574319532,True
23379,46789,6,46551,3544.0,38843.0,44214.0,-0.0011589999999999999,-0.000366,0.001952,0.35000000000000003,-1.3125000000000002,-3.6750000000000003,0.7468125,-0.1705,-0.51284375,0.65553125,0.695875,-0.59075,-1.33375,0.46209375,0.017089759360735236,0.03240366112399467,True
23380,46790,6,46552,3544.0,38843.0,44213.0,-0.002745,-0.0018909999999999999,0.0008539999999999999,0.36750000000000005,-1.2075,-3.5525,0.7266875,-0.1598125,-0.5136875,0.65646875,0.696375,-0.5895312500000001,-1.33615625,0.4679375,0.017475678801319162,0.032462254411617784,True
23381,46791,6,46553,3544.0,38844.0,44213.0,-0.004575,-0.002623,0.000793,0.3325,-1.1900000000000002,-3.6575,0.7388750000000001,-0.1704375,-0.524875,0.6679375,0.69784375,-0.59309375,-1.332625,0.46215625,0.01718597319623522,0.031885759963683195,True
23382,46792,6,46554,3543.0,38841.0,44211.0,-0.003965,-0.0018909999999999999,0.000976,0.31500000000000006,-1.3650000000000002,-3.7975000000000003,0.7341562500000001,-0.16240625,-0.512875,0.6521875,0.6959375,-0.5911875,-1.3325,0.46237500000000004,0.017436378377416708,0.03235468271982631,True
23383,46793,6,46555,3543.0,38842.0,44212.0,-0.00042699999999999997,-0.000183,-0.001037,0.4025,-1.5225000000000002,-3.7800000000000002,0.72559375,-0.1595,-0.51928125,0.66571875,0.6960937500000001,-0.59065625,-1.3352187500000001,0.46934375,0.017533336467992797,0.032205662325295696,True
23384,46794,6,46556,3542.0,38843.0,44208.0,0.0023179999999999997,-0.000244,-0.000549,0.42000000000000004,-1.6800000000000002,-3.6050000000000004,0.74028125,-0.16115625,-0.51728125,0.6658125,0.7033125,-0.5934375000000001,-1.3365,0.46915625,0.017577097548888806,0.03233354054427407,True
23385,46795,6,46557,3542.0,38841.0,44211.0,0.004026,-0.0006709999999999999,6.1e-05,0.47250000000000003,-1.715,-3.5000000000000004,0.74028125,-0.1655,-0.5142187500000001,0.65653125,0.696625,-0.59278125,-1.3334062500000001,0.469625,0.017374254894411342,0.03233625561110639,True
23386,46796,6,46558,3541.0,38842.0,44208.0,0.0035989999999999998,0.000732,0.000122,0.42000000000000004,-1.6975000000000002,-3.6400000000000006,0.73184375,-0.1610625,-0.513375,0.6541875,0.70325,-0.59346875,-1.334,0.46840625,0.017582157864575326,0.032392239677903216,True
23387,46797,6,46559,3540.0,38841.0,44210.0,0.003111,0.00042699999999999997,0.0,0.3325,-1.7675,-3.8150000000000004,0.7299375,-0.16084375,-0.5151875,0.6525625,0.69375,-0.590375,-1.3293125000000001,0.46028125000000003,0.01746745423768446,0.032141614581919664,True
23388,46798,6,46560,3540.0,38839.0,44208.0,0.001098,0.001647,-0.000305,0.36750000000000005,-1.4700000000000002,-3.7450000000000006,0.7319375,-0.1625625,-0.516625,0.6560625,0.69265625,-0.59,-1.33190625,0.462125,0.017382574217161446,0.03218396760014853,True
23389,46799,6,46561,3540.0,38840.0,44208.0,-0.000976,0.0008539999999999999,-0.001464,0.29750000000000004,-1.2425000000000002,-3.8500000000000005,0.7253437500000001,-0.1629375,-0.5165625,0.6568125,0.6953125,-0.59009375,-1.3326875,0.4624375,0.017371070413263467,0.032216281829553224,True
23390,46800,6,46562,3540.0,38838.0,44209.0,-0.0044529999999999995,0.00061,-0.000305,0.31500000000000006,-1.12,-3.8675,0.73159375,-0.16275,-0.5165625,0.6570312500000001,0.6960000000000001,-0.58940625,-1.3323125,0.46446875,0.01735122213453202,0.03220195550643077,True
23391,46801,6,46563,3539.0,38842.0,44206.0,-0.005795,-0.000122,0.000549,0.35000000000000003,-0.8750000000000001,-3.9025000000000003,0.73365625,-0.16525,-0.5144375,0.66090625,0.70184375,-0.593,-1.3314375,0.46975,0.017393160655471068,0.03225241362634868,True
23392,46802,6,46564,3538.0,38840.0,44209.0,-0.005429,-0.000549,0.000915,0.36750000000000005,-1.0325000000000002,-3.8850000000000002,0.736375,-0.1653125,-0.51765625,0.65809375,0.70409375,-0.5938125,-1.33584375,0.46296875,0.01742308151694659,0.03229367484554368,True
23393,46803,6,46565,3539.0,38842.0,44210.0,0.0013419999999999999,-0.000549,0.0006709999999999999,0.24500000000000002,-1.5925000000000002,-3.7450000000000006,0.7368750000000001,-0.16518750000000001,-0.52015625,0.66278125,0.6900937500000001,-0.5933125,-1.3348125,0.4670625,0.01740818769330077,0.032155606046028566,True
23394,46804,6,46566,3537.0,38842.0,44211.0,0.0046359999999999995,-0.00042699999999999997,0.000305,0.29750000000000004,-1.8900000000000001,-3.7625,0.7401875,-0.166,-0.5164375,0.6574375,0.69234375,-0.59225,-1.3334062500000001,0.46246875,0.017332696276265897,0.03224867362635059,True
23395,46805,6,46567,3537.0,38841.0,44211.0,0.0048189999999999995,-0.0006709999999999999,-0.000915,0.28,-2.0125,-3.7450000000000006,0.718375,-0.1625,-0.5175,0.6585625,0.69571875,-0.58978125,-1.324,0.4668125,0.01737637458649617,0.031847259516664034,True
23396,46806,6,46568,3537.0,38840.0,44210.0,0.003172,-0.000732,-0.000488,0.24500000000000002,-1.8725000000000003,-3.6925000000000003,0.73946875,-0.16409375,-0.52125,0.6575625,0.70340625,-0.593,-1.3330312500000001,0.45290625,0.017440176066360343,0.0320443788186619,True
23397,46807,6,46569,3537.0,38840.0,44209.0,0.002257,0.001403,-0.00122,0.4025,-1.5750000000000002,-3.7800000000000002,0.73209375,-0.16171875,-0.51453125,0.65815625,0.69540625,-0.59003125,-1.33228125,0.466375,0.017418135652023624,0.03228094587809774,True
23398,46808,6,46570,3537.0,38840.0,44209.0,-0.002257,-0.000793,-0.00042699999999999997,0.21000000000000002,-1.225,-3.8500000000000005,0.7378750000000001,-0.16503125,-0.5191250000000001,0.6646562500000001,0.7033125,-0.59240625,-1.33534375,0.46275,0.01737833198001924,0.03221660452110503,True
23399,46809,6,46571,3537.0,38840.0,44210.0,-0.00366,-0.0013419999999999999,0.000793,0.22750000000000004,-0.9800000000000001,-3.8850000000000002,0.733,-0.16275,-0.516625,0.65828125,0.69521875,-0.59065625,-1.3330312500000001,0.4664375,0.01740117244735996,0.032226946785138474,True
23400,46810,6,46572,3537.0,38842.0,44211.0,-0.0040869999999999995,-0.001769,0.0006709999999999999,0.12250000000000001,-1.05,-3.9025000000000003,0.7404375,-0.16403125,-0.51740625,0.65715625,0.70178125,-0.58975,-1.33315625,0.45421875,0.01731285393304121,0.032200882983145857,True
23401,46811,6,46573,3535.0,38842.0,44212.0,-0.001952,-0.0021349999999999997,0.0011589999999999999,0.052500000000000005,-1.2600000000000002,-4.0425,0.7321875,-0.162375,-0.51634375,0.65778125,0.6953125,-0.5909375,-1.33196875,0.46425,0.01742766008819306,0.03219745800452244,True
23402,46812,6,46574,3535.0,38842.0,44210.0,-0.001464,0.0006709999999999999,0.002074,0.22750000000000004,-1.5575,-4.0425,0.73209375,-0.16178125000000002,-0.51640625,0.65378125,0.701375,-0.58596875,-1.33515625,0.46296875,0.017253235140470113,0.03231675352308119,True
23403,46813,6,46575,3536.0,38843.0,44209.0,0.000915,0.002928,-0.000732,0.45500000000000007,-1.8375000000000001,-3.8150000000000004,0.72775,-0.16275,-0.51634375,0.6580625,0.68790625,-0.59015625,-1.33225,0.4625,0.017381192931622793,0.032208202982364376,True
23404,46814,6,46576,3535.0,38844.0,44209.0,0.0011589999999999999,0.0015249999999999999,-0.000915,0.42000000000000004,-1.8900000000000001,-3.7975000000000003,0.7355625,-0.15653125,-0.51928125,0.6619375000000001,0.70159375,-0.5918125,-1.33475,0.461,0.017700250845682886,0.03218775594785818,True
23405,46815,6,46577,3536.0,38842.0,44210.0,0.000793,-0.000488,-0.001098,0.43750000000000006,-1.9250000000000003,-3.7275000000000005,0.737125,-0.16103125000000001,-0.5180625,0.662375,0.70184375,-0.59146875,-1.33278125,0.46278125000000003,0.017503529552296462,0.032160651527356476,True
23406,46816,6,46578,3534.0,38841.0,44211.0,0.002013,-0.0013419999999999999,-0.001586,0.28,-1.8725000000000003,-3.7800000000000002,0.73453125,-0.16175,-0.51659375,0.6571875,0.689375,-0.5901875,-1.33003125,0.4543125,0.017423108302854543,0.03211356085476602,True
23407,46817,6,46579,3535.0,38841.0,44211.0,0.0042699999999999995,-0.000549,-0.000305,0.1925,-1.7675,-3.8850000000000002,0.73475,-0.16396875,-0.51771875,0.6606562500000001,0.7004375,-0.58871875,-1.33465625,0.46525,0.017274181884731184,0.03224584900377324,True
23408,46818,6,46580,3533.0,38842.0,44208.0,0.001281,-0.0008539999999999999,-0.001037,0.22750000000000004,-1.225,-3.8675,0.7365625,-0.163125,-0.51678125,0.65778125,0.69615625,-0.59096875,-1.33290625,0.46246875,0.017398409731214842,0.032216003641508756,True
23409,46819,6,46581,3534.0,38840.0,44208.0,-0.0021349999999999997,-0.001403,0.000793,0.35000000000000003,-1.0150000000000001,-3.7800000000000002,0.7315625,-0.162125,-0.516375,0.6575,0.69640625,-0.590375,-1.33278125,0.4578125,0.017415350518241383,0.03222726482114947,True
23410,46820,6,46582,3533.0,38842.0,44211.0,-0.005673,-0.001281,0.0015249999999999999,0.29750000000000004,-1.0150000000000001,-3.7625,0.7316875,-0.162,-0.516875,0.6577500000000001,0.69575,-0.58646875,-1.33284375,0.46168750000000003,0.017264323490944585,0.03220991524096067,True
23411,46821,6,46583,3533.0,38845.0,44212.0,-0.0055509999999999995,0.000366,0.00042699999999999997,0.5075000000000001,-1.225,-3.8500000000000005,0.732625,-0.16271875,-0.51265625,0.65890625,0.6955625,-0.5905312500000001,-1.333875,0.461625,0.017397448458946977,0.03241583650349581,True
23412,46822,6,46584,3534.0,38843.0,44213.0,-0.000793,0.0017079999999999999,0.000549,0.56,-1.3825,-3.8500000000000005,0.73534375,-0.164375,-0.5173125000000001,0.6538437500000001,0.694125,-0.58871875,-1.33346875,0.46275,0.01725766008039764,0.032216521868920926,True
23413,46823,6,46585,3532.0,38846.0,44212.0,0.001769,0.0025009999999999998,-0.00042699999999999997,0.42000000000000004,-1.5575,-3.6925000000000003,0.73140625,-0.1620625,-0.5172187500000001,0.657625,0.69184375,-0.58940625,-1.3314375,0.45878125000000003,0.017379181329358045,0.03214261922561639,True
23414,46824,6,46586,3532.0,38845.0,44213.0,0.0018909999999999999,0.0017079999999999999,0.0013419999999999999,0.28,-1.6450000000000002,-3.8150000000000004,0.7319375,-0.1624375,-0.51765625,0.657625,0.69675,-0.59328125,-1.33528125,0.46234375,0.017518758299078126,0.03227218959726369,True
23415,46825,6,46587,3531.0,38846.0,44212.0,0.001952,0.00042699999999999997,0.00061,0.17500000000000002,-1.6800000000000002,-3.8150000000000004,0.73165625,-0.15825,-0.51728125,0.6617500000000001,0.702625,-0.59284375,-1.33821875,0.472625,0.017671553335510456,0.03239917959900003,True
23416,46826,6,46588,3533.0,38844.0,44210.0,0.003111,-0.002013,0.000488,0.22750000000000004,-1.6975000000000002,-3.9200000000000004,0.74934375,-0.156,-0.5185,0.67890625,0.7076250000000001,-0.597125,-1.33946875,0.46978125,0.01793400651498905,0.032398814596300486,True
23417,46827,6,46589,3533.0,38843.0,44213.0,0.0023179999999999997,0.000183,-0.000183,0.24500000000000002,-1.6625,-3.8325000000000005,0.75815625,-0.17034375000000002,-0.52534375,0.67125,0.6950625,-0.58940625,-1.33125,0.45815625,0.017042400118953666,0.03181470515667407,True
23418,46828,6,46590,3533.0,38843.0,44213.0,0.001037,-0.000549,-0.001647,0.2625,-1.4875,-3.8850000000000002,0.7375,-0.16428125,-0.5158125,0.6431875,0.683,-0.5899375,-1.33059375,0.45790625,0.017310180231242964,0.03216589622973208,True
23419,46829,6,46591,3533.0,38844.0,44214.0,-0.001281,-0.000183,-0.0021349999999999997,0.14,-1.435,-3.8500000000000005,0.7202500000000001,-0.154875,-0.50934375,0.64628125,0.6930625,-0.588375,-1.330375,0.46518750000000003,0.017630282603059374,0.03241291335007871,True
23420,46830,6,46592,3533.0,38845.0,44214.0,-0.002989,-0.000549,-0.001464,0.21000000000000002,-1.33,-3.7975000000000003,0.71059375,-0.1638125,-0.51828125,0.67478125,0.70715625,-0.5973437500000001,-1.3355000000000001,0.4589375,0.017625124664121507,0.032255876142172055,True
23421,46831,6,46593,3534.0,38847.0,44214.0,-0.002989,-0.0013419999999999999,-0.0013419999999999999,0.31500000000000006,-1.435,-3.8150000000000004,0.7485625,-0.161375,-0.5121875,0.672875,0.70775,-0.59740625,-1.3393125000000001,0.47403125,0.017726716612650982,0.03264196690419285,True
23422,46832,6,46594,3533.0,38847.0,44217.0,-0.000366,-0.000122,0.003904,0.47250000000000003,-1.3825,-3.7275000000000005,0.74084375,-0.16853125,-0.51846875,0.6800625,0.70803125,-0.5954375000000001,-1.334125,0.47196875,0.017357131785112587,0.032195951113369814,True
23423,46833,6,46595,3533.0,38848.0,44217.0,0.000976,0.000976,0.002745,0.28,-1.6275000000000002,-3.6925000000000003,0.7547812500000001,-0.1663125,-0.51978125,0.6558125,0.69515625,-0.58971875,-1.33165625,0.450375,0.017218832565947913,0.03204981908753005,True
23424,46834,6,46596,3533.0,38847.0,44218.0,0.001952,0.00061,0.00183,0.1925,-1.7325000000000002,-3.7625,0.71971875,-0.15884375,-0.51096875,0.66228125,0.693375,-0.58925,-1.33253125,0.4680625,0.01750383805931454,0.032431125492048886,True
23425,46835,6,46597,3532.0,38847.0,44217.0,0.0015249999999999999,-6.1e-05,0.0021349999999999997,0.1925,-1.7675,-3.8500000000000005,0.74053125,-0.1706875,-0.514875,0.67734375,0.7020625,-0.58896875,-1.3332187500000001,0.4624375,0.01701093096879063,0.03230318887133125,True
23426,46836,6,46598,3533.0,38848.0,44214.0,-0.000305,-0.000122,-0.000183,0.22750000000000004,-1.7850000000000001,-3.9025000000000003,0.74828125,-0.16771875,-0.5214375,0.66096875,0.695125,-0.59090625,-1.33090625,0.46246875,0.017209105500127712,0.031955775368281585,True
23427,46837,6,46599,3533.0,38847.0,44218.0,0.002379,0.000488,-0.0015249999999999999,0.45500000000000007,-1.8375000000000001,-3.7100000000000004,0.739625,-0.16609375,-0.51525,0.654875,0.6959375,-0.59103125,-1.33265625,0.4610625,0.017280182180241015,0.03226689858075977,True
23428,46838,6,46600,3533.0,38848.0,44219.0,0.001769,6.1e-05,-0.002989,0.36750000000000005,-1.8550000000000002,-3.6925000000000003,0.7270625000000001,-0.16040625,-0.514625,0.65653125,0.6874375,-0.5896250000000001,-1.3219687500000001,0.46128125000000003,0.01745527839485149,0.03188313507416362,True
23429,46839,6,46601,3533.0,38849.0,44219.0,0.0018909999999999999,-0.000244,-0.002379,0.35000000000000003,-1.9250000000000003,-3.8325000000000005,0.7345,-0.165125,-0.5185625,0.66346875,0.692875,-0.5935625,-1.33115625,0.46996875,0.01742071731169488,0.03207882585304411,True
23430,46840,6,46602,3532.0,38852.0,44219.0,0.000549,-0.001403,-0.002074,0.15750000000000003,-1.6625,-3.8325000000000005,0.72946875,-0.16115625,-0.516875,0.6581875,0.7039062500000001,-0.59271875,-1.33165625,0.46215625,0.017548385129236677,0.0321645470773353,True
23431,46841,6,46603,3533.0,38850.0,44219.0,-0.00042699999999999997,-0.0015249999999999999,0.00042699999999999997,0.15750000000000003,-1.435,-3.9025000000000003,0.730375,-0.1625,-0.5171250000000001,0.65771875,0.695125,-0.59046875,-1.3325,0.4576875,0.017403846764816145,0.03218691404322511,True
23432,46842,6,46604,3533.0,38851.0,44222.0,-0.0013419999999999999,-0.00061,0.0015249999999999999,0.42000000000000004,-1.4175000000000002,-3.7275000000000005,0.7309687500000001,-0.161625,-0.5168125,0.6580625,0.6950937500000001,-0.59090625,-1.33271875,0.46278125000000003,0.01745691051951369,0.032207607010202956,True
23433,46843,6,46605,3533.0,38852.0,44221.0,-0.001037,0.0,0.0026839999999999998,0.42000000000000004,-1.3825,-3.7275000000000005,0.7321562500000001,-0.1606875,-0.51728125,0.65425,0.6950937500000001,-0.58959375,-1.3318125,0.457625,0.017442591950100846,0.03215447966859852,True
23434,46844,6,46606,3534.0,38855.0,44223.0,-0.002928,0.000183,0.002257,0.36750000000000005,-1.3475000000000001,-3.7450000000000006,0.7313125,-0.1618125,-0.51703125,0.65696875,0.6823750000000001,-0.59040625,-1.33290625,0.4608125,0.01742930741536651,0.032206135054086024,True
23435,46845,6,46607,3534.0,38853.0,44224.0,-0.002196,0.000122,0.000549,0.35000000000000003,-1.4700000000000002,-3.7100000000000004,0.7322500000000001,-0.1624375,-0.51753125,0.65625,0.69559375,-0.5909375,-1.33284375,0.46159375,0.017425118501480475,0.03218401013506429,True
23436,46846,6,46608,3533.0,38855.0,44223.0,-0.003355,0.001281,-0.000549,0.43750000000000006,-1.6625,-3.7100000000000004,0.7318125,-0.16225,-0.51628125,0.660125,0.69540625,-0.58621875,-1.33175,0.45375,0.017244162443645385,0.03219156789404601,True
23437,46847,6,46609,3534.0,38856.0,44227.0,0.0018909999999999999,0.0021349999999999997,-0.000793,0.525,-2.0475000000000003,-3.8325000000000005,0.72584375,-0.16484375,-0.51934375,0.6566875,0.7040625,-0.5923437500000001,-1.3354062500000001,0.46875,0.017383459028788177,0.032210357787335664,True
23438,46848,6,46610,3535.0,38859.0,44225.0,0.003294,0.00061,-0.001037,0.4025,-2.0825,-3.7275000000000005,0.73790625,-0.165,-0.5196875,0.657125,0.6956875,-0.59325,-1.334,0.45815625,0.01741331462901406,0.03214306860345781,True
23439,46849,6,46611,3533.0,38854.0,44227.0,0.003538,-0.000915,-0.00042699999999999997,0.28,-2.1175,-3.7275000000000005,0.7410625000000001,-0.16315625,-0.52053125,0.661625,0.69553125,-0.5929375,-1.3371875,0.467625,0.017475799708757848,0.03223152727586675,True
23440,46850,6,46612,3533.0,38857.0,44227.0,0.002196,-0.000122,-0.002562,0.4025,-2.0650000000000004,-3.6750000000000003,0.73140625,-0.16346875,-0.516875,0.65746875,0.6953125,-0.59128125,-1.325125,0.46184375,0.017396917860878026,0.031914946125636105,True
23441,46851,6,46613,3535.0,38859.0,44229.0,0.000488,-0.000366,-0.002257,0.43750000000000006,-1.8900000000000001,-3.6400000000000006,0.73103125,-0.161875,-0.5171250000000001,0.65834375,0.6950625,-0.58534375,-1.33228125,0.455625,0.017224438848856855,0.032178556757496916,True
23442,46852,6,46614,3535.0,38859.0,44228.0,-0.002379,0.001952,0.002379,0.56,-1.6275000000000002,-3.7625,0.7319687500000001,-0.16275,-0.51753125,0.64765625,0.6956875,-0.59003125,-1.3330312500000001,0.45778125000000003,0.01737619792573464,0.032191173332247795,True
23443,46853,6,46615,3535.0,38858.0,44229.0,-0.002196,0.0006709999999999999,0.0035989999999999998,0.35000000000000003,-1.5925000000000002,-3.7625,0.73103125,-0.16240625,-0.51646875,0.65790625,0.69496875,-0.59090625,-1.33203125,0.46146875,0.01742514064523344,0.03219491133384734,True
23444,46854,6,46616,3535.0,38860.0,44229.0,-0.002623,-0.001586,0.003294,0.1925,-1.61,-3.9200000000000004,0.73146875,-0.1626875,-0.5191875,0.66490625,0.6893125,-0.590125,-1.33459375,0.4613125,0.017382485855602606,0.03218548748191394,True
23445,46855,6,46617,3537.0,38859.0,44230.0,-0.0015249999999999999,-0.003538,0.0011589999999999999,0.052500000000000005,-1.7850000000000001,-4.0425,0.73575,-0.16246875,-0.51759375,0.657125,0.70259375,-0.58803125,-1.33225,0.46209375,0.01730770941654794,0.03215885876698675,True
23446,46856,6,46618,3535.0,38861.0,44233.0,0.001098,-0.004026,-0.000915,0.12250000000000001,-2.1350000000000002,-3.9725000000000006,0.73040625,-0.162,-0.51903125,0.6640625,0.6949062500000001,-0.5906875,-1.33475,0.46603125,0.01743292049073455,0.032197623817089176,True
23447,46857,6,46619,3536.0,38860.0,44231.0,0.004209,-0.0015249999999999999,-0.003843,0.22750000000000004,-2.0825,-3.6225000000000005,0.7380625000000001,-0.16228125000000002,-0.5170625,0.652375,0.700125,-0.59084375,-1.33290625,0.46203125,0.017427726529310322,0.03220490148065818,True
23448,46858,6,46620,3535.0,38858.0,44232.0,0.002562,-0.000488,-0.0026839999999999998,0.45500000000000007,-1.8900000000000001,-3.6225000000000005,0.72428125,-0.16265625,-0.51703125,0.66078125,0.69565625,-0.58625,-1.3329375,0.46390625,0.017228888098022272,0.03220732889740876,True
23449,46859,6,46621,3535.0,38859.0,44231.0,0.001037,0.002379,-0.0015249999999999999,0.5775,-1.5925000000000002,-3.5700000000000003,0.7383125,-0.16259375,-0.51940625,0.66221875,0.6983125,-0.5918125,-1.3345,0.46659375000000003,0.01745372570647243,0.03217327162564882,True
23450,46860,6,46622,3535.0,38860.0,44234.0,-0.002745,0.004758,0.001037,0.77,-1.33,-3.6400000000000006,0.7358750000000001,-0.16178125000000002,-0.516625,0.65690625,0.70228125,-0.591125,-1.3325,0.46240625,0.0174592967991501,0.03220665153458995,True
23451,46861,6,46623,3535.0,38859.0,44235.0,-0.0034159999999999998,0.006588,0.002623,0.8575,-1.155,-3.7100000000000004,0.731625,-0.16490625,-0.5202187500000001,0.657875,0.6951875000000001,-0.59096875,-1.3360625,0.46934375,0.017325974601956257,0.03220088954232726,True
23452,46862,6,46624,3536.0,38861.0,44235.0,-0.002379,0.001952,0.0028669999999999998,0.42000000000000004,-1.54,-3.7800000000000002,0.7369375,-0.16618750000000002,-0.51978125,0.661125,0.7058125000000001,-0.59578125,-1.3390625,0.47025,0.01746615590834302,0.03233273725103287,True
23453,46863,6,46625,3535.0,38861.0,44235.0,-0.001281,-0.002379,0.0021349999999999997,0.1925,-1.61,-3.8325000000000005,0.7314375,-0.1615625,-0.51709375,0.6644375,0.69625,-0.5895,-1.331875,0.47259375000000003,0.017403261554728645,0.03216426932471441,True
23454,46864,6,46626,3536.0,38860.0,44232.0,-0.00122,-0.007137,-0.001403,-0.1925,-1.7675,-3.8675,0.7315625,-0.16178125000000002,-0.51459375,0.66303125,0.71390625,-0.5827187500000001,-1.32965625,0.47578125,0.01712330943866817,0.032178190337660034,True
23455,46865,6,46627,3536.0,38860.0,44232.0,0.002196,-0.008173999999999999,-0.002196,-0.2625,-1.9775000000000003,-3.8675,0.730625,-0.1624375,-0.5178125,0.663375,0.6994375,-0.5879375,-1.3295937500000001,0.46809375000000003,0.01730523351135084,0.03204872758766611,True
23456,46866,6,46628,3536.0,38861.0,44232.0,0.003538,-0.005856,-0.0013419999999999999,-0.1925,-1.995,-3.9200000000000004,0.733125,-0.16190625,-0.51471875,0.6625625,0.7085312500000001,-0.59028125,-1.3301875,0.4575,0.017420500223030183,0.032193553640295795,True
23457,46867,6,46629,3535.0,38859.0,44229.0,0.002806,0.002745,0.000793,0.43750000000000006,-1.9425000000000001,-3.7800000000000002,0.73959375,-0.16234375,-0.51675,0.65734375,0.7059375,-0.595875,-1.33546875,0.45665625,0.01762617715368939,0.032315121463856865,True
23458,46868,6,46630,3535.0,38862.0,44230.0,0.0023179999999999997,0.003843,0.000732,0.45500000000000007,-1.6625,-3.6925000000000003,0.731625,-0.1650625,-0.51871875,0.6639375000000001,0.688875,-0.58775,-1.3349375,0.4683125,0.017190979247796157,0.03221712111979752,True
23459,46869,6,46631,3535.0,38861.0,44228.0,-0.000976,0.00488,0.000549,0.6475000000000001,-1.5050000000000001,-3.6925000000000003,0.7323125,-0.16228125000000002,-0.51303125,0.648875,0.71065625,-0.5915312500000001,-1.3298125,0.45637500000000003,0.017455196085034357,0.032245846667834595,True
23460,46870,6,46632,3534.0,38858.0,44227.0,-0.003294,0.003538,-0.000793,0.56,-1.54,-3.6925000000000003,0.73709375,-0.16484375,-0.5165,0.65696875,0.69078125,-0.59846875,-1.33909375,0.45765625,0.017628129799746175,0.032463424229605686,True
23461,46871,6,46633,3533.0,38859.0,44224.0,-0.00366,0.0008539999999999999,-0.001281,0.45500000000000007,-1.4875,-3.7100000000000004,0.731375,-0.1618125,-0.5161250000000001,0.65728125,0.695875,-0.58421875,-1.33009375,0.45596875000000003,0.01718200827512568,0.03213445469383626,True
23462,46872,6,46634,3533.0,38859.0,44223.0,0.000183,-0.000244,-0.0017079999999999999,0.15750000000000003,-1.6275000000000002,-3.9550000000000005,0.73609375,-0.163375,-0.51690625,0.6640625,0.6892812500000001,-0.59271875,-1.3320625,0.46996875,0.017458165336030607,0.032178834629039775,True
23463,46873,6,46635,3531.0,38856.0,44221.0,0.000305,-0.0006709999999999999,0.000976,0.29750000000000004,-1.6800000000000002,-3.8850000000000002,0.72759375,-0.15809375,-0.5163125000000001,0.6581875,0.69903125,-0.59771875,-1.3338125,0.45671875,0.017872592351678953,0.032269126488561485,True
23464,46874,6,46636,3530.0,38859.0,44219.0,0.0008539999999999999,-0.0008539999999999999,0.001952,0.31500000000000006,-1.6275000000000002,-3.8850000000000002,0.73040625,-0.16240625,-0.516625,0.6571875,0.6889375,-0.58896875,-1.3295937500000001,0.456625,0.017347718171385293,0.03209560950814697,True
23465,46875,6,46637,3529.0,38857.0,44217.0,-0.001281,-0.0013419999999999999,0.0021349999999999997,0.1925,-1.6975000000000002,-3.9025000000000003,0.7364375,-0.16321875,-0.52034375,0.65778125,0.69359375,-0.5894375000000001,-1.332375,0.464125,0.017333407891091453,0.032055077741427726,True
23466,46876,6,46638,3526.0,38854.0,44213.0,0.0011589999999999999,-0.000793,0.00042699999999999997,0.10500000000000001,-1.7325000000000002,-3.8675,0.73190625,-0.1643125,-0.51896875,0.6637500000000001,0.693375,-0.59003125,-1.3345625,0.468625,0.01731265591620588,0.032192928139177464,True
23467,46877,6,46639,3524.0,38854.0,44211.0,0.001586,-0.0006709999999999999,-0.00122,0.24500000000000002,-1.995,-3.9025000000000003,0.733,-0.162625,-0.51609375,0.659,0.696375,-0.5910625,-1.3324375,0.4645625,0.017422488353238095,0.03222523493840653,True
23468,46878,6,46640,3525.0,38853.0,44208.0,-6.1e-05,-0.000549,-0.002989,0.28,-1.9250000000000003,-3.8675,0.7369375,-0.16303125000000002,-0.51746875,0.656625,0.7025625,-0.5945,-1.32878125,0.46159375,0.017543302364349752,0.03203124903611381,True
23469,46879,6,46641,3523.0,38848.0,44205.0,0.0,-6.1e-05,-0.003843,0.35000000000000003,-1.715,-3.7625,0.7312500000000001,-0.15853125,-0.5172187500000001,0.66253125,0.69546875,-0.59028125,-1.33459375,0.46990625,0.017557749568236435,0.032263197431377795,True
23470,46880,6,46642,3521.0,38849.0,44204.0,-0.000976,-0.000305,-0.000366,0.43750000000000006,-1.6450000000000002,-3.6750000000000003,0.73725,-0.16246875,-0.51725,0.6573125,0.7028125000000001,-0.5906875,-1.332875,0.46268750000000003,0.017413858396598307,0.032196306183171076,True
23471,46881,6,46643,3520.0,38851.0,44205.0,0.000366,0.001098,0.0013419999999999999,0.36750000000000005,-1.6450000000000002,-3.6225000000000005,0.7310625000000001,-0.16478125,-0.51684375,0.6573125,0.6949375,-0.593,-1.33409375,0.46334375,0.017412220957182936,0.03225890012347491,True
23472,46882,6,46644,3520.0,38849.0,44202.0,0.002562,0.001769,0.0023179999999999997,0.35000000000000003,-1.5925000000000002,-3.7450000000000006,0.7316875,-0.16228125000000002,-0.51634375,0.65721875,0.6869375,-0.58978125,-1.332125,0.46218750000000003,0.01738527055827306,0.03220342746611269,True
23473,46883,6,46645,3518.0,38848.0,44199.0,0.0006709999999999999,0.000549,0.0018909999999999999,0.31500000000000006,-1.4875,-3.7800000000000002,0.73628125,-0.16371875,-0.51746875,0.6616562500000001,0.70340625,-0.59203125,-1.3368125,0.46925,0.01741671908456118,0.03233807528077969,True
23474,46884,6,46646,3516.0,38846.0,44195.0,-0.001647,0.0011589999999999999,0.000183,0.31500000000000006,-1.4000000000000001,-3.7450000000000006,0.72790625,-0.16190625,-0.516625,0.66171875,0.69521875,-0.5909375,-1.33240625,0.45637500000000003,0.017446721988537445,0.0322030699314243,True
23475,46885,6,46647,3514.0,38845.0,44191.0,-0.004331,-0.000305,6.1e-05,0.385,-1.155,-3.8150000000000004,0.73940625,-0.16496875,-0.5192187500000001,0.66378125,0.70221875,-0.59428125,-1.336,0.4665,0.01745578558023524,0.03223797166087781,True
23476,46886,6,46648,3514.0,38843.0,44189.0,-0.00366,-0.000488,-0.00122,0.45500000000000007,-1.0850000000000002,-3.8150000000000004,0.73925,-0.16443750000000001,-0.5161250000000001,0.6566875,0.70059375,-0.59128125,-1.33396875,0.4623125,0.01735752381751154,0.03228249620383699,True
23477,46887,6,46649,3513.0,38842.0,44186.0,-0.001403,-0.0017079999999999999,-0.00042699999999999997,0.1925,-1.4700000000000002,-3.9025000000000003,0.7319375,-0.16840625,-0.5231875,0.6585625,0.69478125,-0.5929375,-1.336,0.46203125,0.017262323787062852,0.03208132696558257,True
23478,46888,6,46650,3510.0,38842.0,44185.0,0.0011589999999999999,-0.001281,6.1e-05,0.1925,-1.61,-3.8850000000000002,0.72884375,-0.16540625,-0.5153125000000001,0.65740625,0.69496875,-0.59175,-1.327,0.46190625,0.01733686093913609,0.03204830812966399,True
23479,46889,6,46651,3510.0,38842.0,44183.0,0.002623,-0.001464,0.000915,0.12250000000000001,-1.9425000000000001,-3.8325000000000005,0.7223125,-0.1605625,-0.5150625,0.65153125,0.69496875,-0.5900625,-1.3328125,0.46871875,0.017466405382255537,0.032280268920002464,True
23480,46890,6,46652,3509.0,38839.0,44182.0,0.005124,-0.001464,0.000244,0.17500000000000002,-2.0825,-3.7800000000000002,0.7424375,-0.16,-0.5171875,0.654,0.70403125,-0.58225,-1.332875,0.4588125,0.01717702814022313,0.03219877333307017,True
23481,46891,6,46653,3508.0,38838.0,44179.0,0.0030499999999999998,0.0017079999999999999,-0.001586,0.4025,-1.8550000000000002,-3.6225000000000005,0.7285,-0.16668750000000002,-0.5221875,0.66425,0.69125,-0.5933125,-1.33571875,0.46337500000000004,0.017347195502842493,0.03211005213736042,True
23482,46892,6,46654,3505.0,38841.0,44177.0,0.000549,0.001952,-0.0021349999999999997,0.47250000000000003,-1.7850000000000001,-3.5700000000000003,0.72678125,-0.16103125000000001,-0.51425,0.667875,0.68803125,-0.5905312500000001,-1.33134375,0.46984375,0.017466072433876354,0.032256233939425345,True
