frame_seq,absolute_seq_u64,segment_id,sample_seq,PPG_G,PPG_R,PPG_IR,ACC_X,ACC_Y,ACC_Z,GYRO_X,GYRO_Y,GYRO_Z,Uh1,Uh2,Uh3,Uh4,Uc1,Uc2,Uc3,Uc4,UD1,UD2,parser_valid
26571,184207,1,184206,3960.0,40295.0,43069.0,-0.008418,-0.006588,-0.00549,-0.525,-2.2925000000000004,-3.1500000000000004,0.7780312500000001,0.50871875,-0.06334375,0.9764375000000001,0.75575,-0.108625,-0.573625,0.9745312500000001,0.025606758991854574,0.020765403964616538,True
26572,184208,1,184207,3960.0,40299.0,43072.0,-0.006527,-0.004758,-0.0040869999999999995,-0.385,-2.415,-3.1675000000000004,0.7935625000000001,0.5165625,-0.0710625,0.993375,0.74921875,-0.11068750000000001,-0.57421875,0.97403125,0.02601543402692271,0.020474964234620887,True
26573,184209,1,184208,3963.0,40298.0,43070.0,0.000488,-0.002928,-0.00061,-0.052500000000000005,-2.3275,-3.1675000000000004,0.77809375,0.5080625,-0.0673125,1.0052812500000001,0.7549375,-0.108375,-0.57546875,0.9736875,0.02556943385856575,0.020677377720414794,True
26574,184210,1,184209,3961.0,40293.0,43064.0,0.010858,0.001464,0.004209,0.36750000000000005,-2.0125,-3.2550000000000003,0.77765625,0.511375,-0.06578125,1.0020625,0.7544062500000001,-0.10790625000000001,-0.57425,0.9741875,0.025687890253845665,0.02069111976967761,True
26575,184211,1,184210,3961.0,40288.0,43060.0,0.006405,0.00122,0.0046359999999999995,0.28,-1.715,-3.43,0.7779375000000001,0.50821875,-0.06753125,1.00065625,0.75409375,-0.10840625,-0.5761875,0.96959375,0.02557717808492629,0.02069711789104799,True
26576,184212,1,184211,3961.0,40290.0,43061.0,-0.000183,0.001403,0.0035989999999999998,0.28,-1.54,-3.5175000000000005,0.78915625,0.51425,-0.07165625,0.988,0.75271875,-0.1075,-0.57378125,0.9769375,0.025790729026236647,0.020433363302605295,True
26577,184213,1,184212,3960.0,40291.0,43063.0,-0.0026839999999999998,0.001647,0.00061,0.43750000000000006,-1.6450000000000002,-3.4475000000000002,0.7896875,0.51578125,-0.07390625,0.9861562500000001,0.7488125,-0.10928125,-0.57221875,0.9773437500000001,0.025926218766890864,0.020279507726586554,True
26578,184214,1,184213,3960.0,40290.0,43062.0,-0.0034159999999999998,0.0023179999999999997,0.0008539999999999999,0.2625,-1.6275000000000002,-3.4475000000000002,0.7893125,0.51584375,-0.06821875,0.99346875,0.7485937500000001,-0.1095,-0.57159375,0.9775312500000001,0.02593764905949937,0.020486054145348223,True
26579,184215,1,184214,3960.0,40288.0,43061.0,0.00122,-0.00061,-0.0018909999999999999,-0.07,-1.8200000000000003,-3.2900000000000005,0.7811250000000001,0.5156875,-0.06771875000000001,0.9958125,0.74853125,-0.10981250000000001,-0.57259375,0.97390625,0.02594379363174226,0.02054626406705641,True
26580,184216,1,184215,3959.0,40288.0,43062.0,0.000549,-0.00671,0.000488,-0.24500000000000002,-1.3125000000000002,-2.9925,0.780875,0.51275,-0.06765625,0.99740625,0.74915625,-0.109125,-0.5730625,0.97340625,0.02579417544187108,0.020567491333243468,True
26581,184217,1,184216,3960.0,40289.0,43062.0,-0.0048189999999999995,-0.009455,0.00183,-0.15750000000000003,-0.7350000000000001,-3.0100000000000002,0.78215625,0.51259375,-0.067625,0.9973125,0.7535937500000001,-0.1083125,-0.57221875,0.9733437500000001,0.025754861523385346,0.020535131773560332,True
26582,184218,1,184217,3960.0,40290.0,43062.0,-0.006222,-0.0051849999999999995,0.003355,0.21000000000000002,-0.5775,-3.2900000000000005,0.7725625,0.51190625,-0.06853125,0.99234375,0.7485937500000001,-0.10878125,-0.57359375,0.9783125,0.02574528731102905,0.02055305809716985,True
26583,184219,1,184218,3959.0,40287.0,43063.0,-0.001647,0.002074,0.005612,0.5775,-0.5950000000000001,-3.6925000000000003,0.78734375,0.5143125000000001,-0.06503125,0.9912500000000001,0.73628125,-0.1071875,-0.57684375,0.97359375,0.025780692998716673,0.020824988969545776,True
26584,184220,1,184219,3959.0,40287.0,43064.0,0.0028669999999999998,0.009637999999999999,-0.0030499999999999998,0.525,-2.345,-4.445,0.7898125,0.51771875,-0.07015625,0.99153125,0.75875,-0.10840625,-0.5786875,0.9609375,0.0259712315076821,0.020689926994677806,True
26585,184221,1,184220,3958.0,40290.0,43066.0,-0.001098,0.007076,-0.008052,0.1925,-3.0275000000000003,-4.375,0.78925,0.51484375,-0.06665625,0.99240625,0.76628125,-0.10528125,-0.57434375,0.96584375,0.02572569029867677,0.020659249547609997,True
26586,184222,1,184221,3959.0,40296.0,43072.0,-0.004026,0.0025009999999999998,-0.011529,-0.17500000000000002,-3.3775000000000004,-4.0600000000000005,0.781375,0.51259375,-0.06759375000000001,0.997125,0.752625,-0.10896875,-0.57496875,0.96890625,0.025781380632466912,0.02064600794253299,True
26587,184223,1,184222,3959.0,40295.0,43070.0,0.004697,-0.005612,-0.004758,-0.2625,-2.6425,-3.6750000000000003,0.7818125,0.51215625,-0.06809375,0.9939375,0.748125,-0.11459375000000001,-0.56784375,0.9935,0.025990485533267587,0.02034163051041058,True
26588,184224,1,184223,3958.0,40292.0,43073.0,0.0053679999999999995,-0.005124,-0.00183,0.31500000000000006,-1.7850000000000001,-3.1850000000000005,0.7885,0.51928125,-0.0710625,0.9921875,0.74309375,-0.10428125,-0.58096875,0.96246875,0.025869367085981875,0.020743944438723554,True
26589,184225,1,184224,3958.0,40292.0,43069.0,0.000122,-0.00061,0.003843,0.6125,-1.6975000000000002,-2.7825,0.78825,0.51503125,-0.067375,0.99134375,0.7684375,-0.10678125000000001,-0.57215625,0.96759375,0.025794090615062933,0.020542814593245154,True
26590,184226,1,184225,3957.0,40293.0,43067.0,-0.001403,-0.0030499999999999998,0.007137,0.5950000000000001,-1.225,-2.66,0.78259375,0.5122187500000001,-0.06721875000000001,0.9968125,0.74765625,-0.115,-0.56671875,0.987,0.02600948579722165,0.02033238565895171,True
26591,184227,1,184226,3957.0,40292.0,43068.0,-0.001464,-0.0040869999999999995,0.004697,0.31500000000000006,-1.05,-2.8175000000000003,0.781375,0.51325,-0.06759375000000001,0.99075,0.740125,-0.12146875,-0.56825,0.9881562500000001,0.026313437070452025,0.020378181189136386,True
26592,184228,1,184227,3957.0,40292.0,43068.0,-0.000549,-0.0040869999999999995,0.000305,0.21000000000000002,-1.1900000000000002,-3.3600000000000003,0.78878125,0.515875,-0.07003125,0.9879375,0.7469687500000001,-0.11275,-0.57540625,0.96296875,0.02607023255331723,0.020564258220553324,True
26593,184229,1,184228,3958.0,40292.0,43069.0,-0.00061,-0.0017079999999999999,-0.002806,0.08750000000000001,-1.2775,-3.8850000000000002,0.78296875,0.51959375,-0.067125,0.9872500000000001,0.76578125,-0.105625,-0.575625,0.9635625,0.025936633047265935,0.02069123369192035,True
26594,184230,1,184229,3959.0,40294.0,43071.0,0.000793,0.005978,-0.000183,0.5075000000000001,-0.9800000000000001,-4.322500000000001,0.7817500000000001,0.5142187500000001,-0.06103125,0.99790625,0.7586875000000001,-0.10478125,-0.57265625,0.9673125,0.025679552682105346,0.02082090738562299,True
26595,184231,1,184230,3959.0,40293.0,43069.0,0.0026839999999999998,0.008235,0.0018909999999999999,0.47250000000000003,-1.05,-4.340000000000001,0.781,0.51334375,-0.066375,0.993625,0.7471875,-0.10287500000000001,-0.56965625,0.9742500000000001,0.025566192829693555,0.02048385394077298,True
26596,184232,1,184231,3958.0,40291.0,43069.0,0.000793,0.0057339999999999995,-0.000366,0.4025,-0.9800000000000001,-4.2875000000000005,0.7820312500000001,0.51484375,-0.06675,0.9919375,0.7553125,-0.10778125000000001,-0.5760625,0.9745312500000001,0.025826723477507915,0.020723925974716253,True
26597,184233,1,184232,3959.0,40290.0,43070.0,-0.0032329999999999998,0.000732,0.0006709999999999999,0.22750000000000004,-1.1375000000000002,-3.7975000000000003,0.78803125,0.51475,-0.06696875000000001,0.99053125,0.73653125,-0.10834375,-0.57353125,0.977,0.02584556435984948,0.020614151659623606,True
26598,184234,1,184233,3960.0,40293.0,43070.0,-0.0053679999999999995,-0.003843,-0.000793,0.035,-1.225,-3.3600000000000003,0.7864375,0.515,-0.06775,0.99228125,0.7480625,-0.104125,-0.56775,0.9798125,0.025685437658492065,0.020351884075668306,True
26599,184235,1,184234,3959.0,40294.0,43074.0,-0.000915,-0.0057339999999999995,0.00244,0.1925,-1.5575,-3.115,0.7874375,0.5156875,-0.06875,0.9917812500000001,0.7470625,-0.110125,-0.5720000000000001,0.97865625,0.025956418724498526,0.020480628357480064,True
26600,184236,1,184235,3958.0,40294.0,43073.0,0.0015249999999999999,-0.0030499999999999998,0.0023179999999999997,0.56,-1.8025000000000002,-3.3075,0.78190625,0.51575,-0.06690625,0.9928125,0.74846875,-0.11178125,-0.57128125,0.9801875,0.02602591834645149,0.020527012607452044,True
26601,184237,1,184236,3958.0,40289.0,43071.0,0.0050019999999999995,-0.0006709999999999999,0.0034159999999999998,0.7000000000000001,-1.8900000000000001,-3.5000000000000004,0.7844375,0.51646875,-0.06815625,0.9923125,0.74915625,-0.11056250000000001,-0.57178125,0.9796875,0.026006496115551017,0.02049607209489544,True
26602,184238,1,184237,3958.0,40290.0,43067.0,0.004758,0.002257,0.0008539999999999999,0.805,-1.8900000000000001,-3.5525,0.7868125,0.51509375,-0.06875,0.99240625,0.75015625,-0.11146875,-0.5720625,0.9800625000000001,0.025986077683467543,0.020483119803231822,True
26603,184239,1,184238,3957.0,40288.0,43064.0,0.000305,0.003965,-0.000366,0.8225000000000001,-1.7850000000000001,-3.7800000000000002,0.78740625,0.51471875,-0.06890625,0.99134375,0.7478125,-0.10540625,-0.571625,0.98109375,0.025725556896598663,0.0204593204560138,True
26604,184240,1,184239,3959.0,40286.0,43067.0,-0.001464,6.1e-05,-0.00122,0.5775,-1.4175000000000002,-3.7800000000000002,0.79596875,0.51609375,-0.0668125,0.9939375,0.74775,-0.11093750000000001,-0.571875,0.97375,0.026006091633724325,0.020554495739539616,True
26605,184241,1,184240,3958.0,40288.0,43068.0,-0.002013,-0.001403,-0.002013,0.4025,-1.3125000000000002,-3.8675,0.7715625,0.51090625,-0.06715625,0.99175,0.7550625,-0.1081875,-0.57215625,0.977125,0.02567981313402345,0.0205517169458826,True
26606,184242,1,184241,3957.0,40289.0,43066.0,-0.0013419999999999999,0.000976,0.0006709999999999999,0.36750000000000005,-1.2075,-3.9550000000000005,0.78925,0.51709375,-0.07115625,0.9869687500000001,0.748375,-0.11175,-0.5709375,0.9793437500000001,0.026080386118801,0.020340341104200847,True
26607,184243,1,184242,3959.0,40289.0,43068.0,-0.0018909999999999999,0.000244,-0.000793,0.4025,-1.2600000000000002,-3.8500000000000005,0.779875,0.51034375,-0.06403125,1.006125,0.7473125,-0.10478125,-0.57421875,0.9738125,0.025518796193182633,0.020761087267525038,True
26608,184244,1,184243,3957.0,40289.0,43069.0,0.0026839999999999998,0.001586,-0.0015249999999999999,0.28,-1.3475000000000001,-3.8850000000000002,0.7690625,0.513625,-0.07150000000000001,0.98440625,0.7418125,-0.11134375,-0.57153125,0.9796875,0.025920112809971446,0.02035002397337366,True
26609,184245,1,184244,3958.0,40289.0,43067.0,0.003172,0.001586,-0.001464,0.21000000000000002,-1.2600000000000002,-3.6750000000000003,0.796625,0.51628125,-0.07034375,0.9865625,0.7490625,-0.111375,-0.57146875,0.9791562500000001,0.026031541129446167,0.02039458874431346,True
26610,184246,1,184245,3959.0,40289.0,43068.0,0.001098,0.001586,0.001403,0.31500000000000006,-1.05,-3.6225000000000005,0.78790625,0.5105625,-0.06318750000000001,0.99590625,0.74753125,-0.1091875,-0.5745625,0.97521875,0.02570596790124097,0.020809119185743387,True
26611,184247,1,184246,3958.0,40286.0,43064.0,-0.0023179999999999997,0.00122,0.0046359999999999995,0.28,-0.9100000000000001,-3.43,0.7750312500000001,0.50625,-0.06209375,1.00278125,0.7545000000000001,-0.10925,-0.57065625,0.969375,0.02552962037392287,0.02069796161834302,True
26612,184248,1,184247,3956.0,40287.0,43067.0,-0.006588,0.000549,0.0046359999999999995,0.10500000000000001,-0.9625000000000001,-3.2025,0.7745625,0.50490625,-0.0584375,0.9951562500000001,0.7565000000000001,-0.110125,-0.5735625,0.9745625,0.025509251818478754,0.02096256902107702,True
26613,184249,1,184248,3958.0,40288.0,43067.0,-0.001281,-0.0032329999999999998,-0.000305,-0.35000000000000003,-1.8025000000000002,-2.8875,0.76121875,0.5109375,-0.06834375,0.9860625000000001,0.7531875,-0.11068750000000001,-0.5668125,0.98009375,0.025782134997187452,0.02029033070529602,True
26614,184250,1,184249,3958.0,40286.0,43069.0,0.00183,-0.004392,-0.0030499999999999998,-0.5075000000000001,-2.1525000000000003,-2.8875,0.79378125,0.5160625,-0.06609375,0.98875,0.7486875000000001,-0.11209375,-0.57165625,0.9775312500000001,0.02605150164531025,0.020575027375291394,True
26615,184251,1,184250,3958.0,40287.0,43071.0,0.00244,-0.0040869999999999995,-0.004758,-0.3325,-2.2750000000000004,-3.0275000000000003,0.78453125,0.51290625,-0.06153125,1.00065625,0.7517812500000001,-0.10796875,-0.5745625,0.973875,0.02575393250416421,0.020876516112952163,True
26616,184252,1,184251,3957.0,40288.0,43072.0,0.004331,-0.00488,-0.002806,0.15750000000000003,-2.1700000000000004,-3.2900000000000005,0.76984375,0.5106875,-0.064375,0.99915625,0.757875,-0.10981250000000001,-0.5700000000000001,0.9742500000000001,0.025736409190241522,0.020578958078958084,True
26617,184253,1,184252,3958.0,40290.0,43070.0,0.002806,0.001098,0.000549,0.385,-1.9250000000000003,-3.9550000000000005,0.78290625,0.51515625,-0.06515625,0.9911875,0.73665625,-0.11290625,-0.57178125,0.979,0.026046735863703693,0.02061816336575111,True
26618,184254,1,184253,3958.0,40288.0,43072.0,-0.001037,-0.0032329999999999998,0.0023179999999999997,0.5950000000000001,-1.995,-3.43,0.7778125,0.51953125,-0.06409375,0.9985937500000001,0.750375,-0.11234375,-0.5749062500000001,0.97309375,0.026205457526292938,0.020785938908719135,True
26619,184255,1,184254,3957.0,40289.0,43072.0,6.1e-05,0.0017079999999999999,-0.000183,0.77,-1.9600000000000002,-3.8325000000000005,0.7825,0.5142187500000001,-0.06784375000000001,0.9913125,0.75434375,-0.11315625,-0.5734375,0.97746875,0.026017954410260998,0.020574807655624087,True
26620,184256,1,184255,3957.0,40289.0,43071.0,0.002928,0.0035989999999999998,-0.000732,0.8575,-1.9250000000000003,-4.112500000000001,0.77290625,0.51446875,-0.061875,0.99171875,0.75690625,-0.11484375000000001,-0.572625,0.98075,0.026096478439757674,0.020785325133151223,True
26621,184257,1,184256,3957.0,40288.0,43070.0,0.003477,0.000732,-0.00183,0.9625000000000001,-1.6800000000000002,-4.077500000000001,0.7886562500000001,0.5213125,-0.065875,0.99721875,0.7490625,-0.11475,-0.57484375,0.974,0.02637649156636498,0.020710965863211236,True
26622,184258,1,184257,3955.0,40288.0,43075.0,-0.00183,0.0028669999999999998,-0.0008539999999999999,0.9800000000000001,-1.3650000000000002,-4.165,0.78228125,0.511875,-0.06596875,0.9918750000000001,0.755375,-0.11496875000000001,-0.57121875,0.97928125,0.025993968994879994,0.02056267558970798,True
26623,184259,1,184258,3958.0,40288.0,43077.0,-0.0011589999999999999,0.000915,0.0015249999999999999,0.9100000000000001,-1.0675000000000001,-4.2175,0.78934375,0.51303125,-0.0656875,0.9929687500000001,0.74803125,-0.11800000000000001,-0.57425,0.96803125,0.02616432747325649,0.02069493473859833,True
26624,184260,1,184259,3959.0,40289.0,43079.0,-0.00042699999999999997,0.001647,0.0018909999999999999,0.8750000000000001,-0.9800000000000001,-4.130000000000001,0.78240625,0.51053125,-0.0658125,0.9996875000000001,0.75725,-0.1153125,-0.57153125,0.97396875,0.025952131037074472,0.020581491029379784,True
26625,184261,1,184260,3959.0,40287.0,43078.0,0.000488,0.004148,0.0008539999999999999,0.8225000000000001,-0.9450000000000001,-4.165,0.7830312500000001,0.5130625,-0.06815625,0.9921562500000001,0.7406875,-0.11784375,-0.57309375,0.98040625,0.02615931409705729,0.02054838943509097,True
26626,184262,1,184261,3959.0,40288.0,43076.0,-6.1e-05,0.0018909999999999999,0.000976,0.7000000000000001,-0.9625000000000001,-3.9550000000000005,0.77671875,0.5126875,-0.068375,0.99184375,0.7471875,-0.11921875,-0.5728125000000001,0.981375,0.026199283507058038,0.020528276932076865,True
26627,184263,1,184262,3957.0,40287.0,43077.0,-0.00122,0.001098,0.000305,0.385,-1.1025,-3.7800000000000002,0.7907500000000001,0.51309375,-0.06828125,0.99175,0.74765625,-0.11962500000000001,-0.5734375,0.98021875,0.026232528490803653,0.02055700387867998,True
26628,184264,1,184263,3958.0,40288.0,43078.0,0.000305,-0.0028669999999999998,0.0006709999999999999,-0.052500000000000005,-1.155,-3.4825000000000004,0.79009375,0.5121875,-0.06828125,0.99225,0.74953125,-0.1146875,-0.5725625,0.98075,0.025995568053701717,0.020522127067537217,True
26629,184265,1,184264,3958.0,40286.0,43078.0,-0.00122,-0.002257,-0.000183,-0.052500000000000005,-1.1900000000000002,-3.4475000000000002,0.78890625,0.51209375,-0.0675625,0.9965,0.7490625,-0.1191875,-0.57278125,0.98121875,0.026173404473098443,0.020560096346440234,True
26630,184266,1,184265,3959.0,40288.0,43077.0,0.00061,-0.001952,-0.000244,0.14,-1.2075,-3.4825000000000004,0.7816875,0.5171875,-0.06528125,0.99875,0.74865625,-0.11625,-0.572875,0.97428125,0.026266003213600786,0.02065666919316523,True
26631,184267,1,184266,3958.0,40285.0,43074.0,0.002196,-0.00122,0.002806,0.15750000000000003,-1.225,-3.3600000000000003,0.78221875,0.509625,-0.06590625,0.9872500000000001,0.75490625,-0.117125,-0.57384375,0.9745,0.025987757661827437,0.020669843316636207,True
26632,184268,1,184267,3958.0,40283.0,43073.0,0.002013,-6.1e-05,0.001769,0.22750000000000004,-1.155,-3.3425000000000002,0.781875,0.51475,-0.065375,0.99653125,0.7450625,-0.11659375,-0.5736875,0.9735,0.02617881101057234,0.020685234969314233,True
26633,184269,1,184268,3958.0,40282.0,43070.0,-0.002928,-0.000549,-0.001464,0.28,-1.54,-3.3600000000000003,0.7814375,0.51309375,-0.0646875,0.99453125,0.74915625,-0.11934375,-0.5716875,0.9760625,0.02622117361713044,0.02063350349869133,True
26634,184270,1,184269,3959.0,40280.0,43068.0,-0.000976,-0.000976,-0.001464,0.14,-1.6625,-3.4475000000000002,0.78221875,0.51203125,-0.06525,0.99375,0.7490625,-0.11671875,-0.57253125,0.97890625,0.026071125451093965,0.020644240710854727,True
26635,184271,1,184270,3958.0,40281.0,43070.0,0.000915,-0.001647,-0.0008539999999999999,0.052500000000000005,-1.8725000000000003,-3.4825000000000004,0.774625,0.51021875,-0.06440625,0.99471875,0.74571875,-0.1184375,-0.57221875,0.97484375,0.026065380479145885,0.02066612320061655,True
26636,184272,1,184271,3958.0,40283.0,43073.0,0.000793,-0.001098,-0.000488,0.12250000000000001,-1.9250000000000003,-3.4475000000000002,0.78178125,0.51315625,-0.0641875,0.9958750000000001,0.748375,-0.11665625,-0.57125,0.9789375,0.02611524970423709,0.020636414508826376,True
26637,184273,1,184272,3959.0,40281.0,43074.0,0.0006709999999999999,-0.000183,-0.002013,0.2625,-2.0300000000000002,-3.6050000000000004,0.78271875,0.51171875,-0.064375,0.99409375,0.74709375,-0.1214375,-0.57165625,0.98546875,0.026248694755443162,0.020644975855056577,True
26638,184274,1,184273,3957.0,40282.0,43072.0,-0.001952,-6.1e-05,-0.001464,0.3325,-1.9425000000000001,-3.7100000000000004,0.78209375,0.51003125,-0.064375,0.9975,0.73828125,-0.12109375,-0.57003125,0.9844375,0.026164858299595143,0.020580203779757097,True
26639,184275,1,184274,3959.0,40279.0,43075.0,-0.0035989999999999998,0.001647,-0.000122,0.36750000000000005,-1.7675,-3.8850000000000002,0.78265625,0.51353125,-0.06368750000000001,0.98871875,0.74475,-0.11415625,-0.57015625,0.9751562500000001,0.02602983465365909,0.02061316765130462,True
26640,184276,1,184275,3959.0,40284.0,43075.0,0.000488,0.001769,0.0011589999999999999,0.5075000000000001,-1.8375000000000001,-3.9550000000000005,0.79053125,0.513125,-0.07087500000000001,0.9897812500000001,0.74371875,-0.120625,-0.57028125,0.9853125,0.026274194802166195,0.020325622035767293,True
26641,184277,1,184276,3960.0,40279.0,43076.0,0.006222,0.001464,-0.000305,0.42000000000000004,-1.7850000000000001,-3.9025000000000003,0.80865625,0.512,-0.07028125,0.9859687500000001,0.74175,-0.11937500000000001,-0.57134375,0.98490625,0.026177087922054365,0.020392148882781392,True
26642,184278,1,184277,3961.0,40281.0,43074.0,0.00549,0.001464,-0.001769,0.385,-1.6275000000000002,-3.99,0.78996875,0.51375,-0.074,0.97965625,0.73584375,-0.1210625,-0.56996875,0.9868750000000001,0.026317766889414593,0.020185973985009646,True
26643,184279,1,184278,3960.0,40280.0,43071.0,-0.0050019999999999995,-0.00042699999999999997,0.0006709999999999999,0.5775,-1.0675000000000001,-3.6225000000000005,0.80284375,0.51559375,-0.07375,0.9810625000000001,0.7314375,-0.1225,-0.5700937500000001,0.97959375,0.026452223028293084,0.0202011337461828,True
26644,184280,1,184279,3960.0,40283.0,43077.0,-0.001403,0.000549,-6.1e-05,0.385,-0.9625000000000001,-3.5875000000000004,0.78621875,0.51565625,-0.063875,1.00846875,0.7446875000000001,-0.12084375,-0.5694375,0.9695312500000001,0.026387965802398605,0.02057688540895574,True
26645,184281,1,184280,3960.0,40281.0,43075.0,0.001403,-0.001769,0.002013,0.29750000000000004,-0.8925000000000001,-3.4825000000000004,0.76934375,0.50775,-0.064875,0.98065625,0.76209375,-0.11615625,-0.5766875,0.98284375,0.025870882719960814,0.020825121367556147,True
26646,184282,1,184281,3960.0,40279.0,43072.0,-0.0006709999999999999,-0.0015249999999999999,0.002196,0.2625,-0.805,-3.5175000000000005,0.7976562500000001,0.5142187500000001,-0.061625,1.0147187500000001,0.74446875,-0.11478125,-0.5735,0.9696250000000001,0.02608358721893859,0.020830366044722975,True
26647,184283,1,184282,3959.0,40278.0,43073.0,-0.004026,-0.000549,0.003172,0.17500000000000002,-0.8750000000000001,-3.4825000000000004,0.784125,0.5122187500000001,-0.07215625,0.98309375,0.7604062500000001,-0.11884375,-0.56525,0.98290625,0.026164707833475645,0.020072816275022644,True
26648,184284,1,184283,3960.0,40279.0,43073.0,0.002562,-0.000793,-0.000915,-0.035,-1.4000000000000001,-3.6225000000000005,0.78071875,0.501875,-0.055843750000000004,0.99090625,0.7465937500000001,-0.11762500000000001,-0.57334375,0.9729375,0.02568660885970322,0.021059405071806724,True
26649,184285,1,184284,3958.0,40277.0,43074.0,0.0044529999999999995,-0.000305,-0.00061,-0.0175,-1.5050000000000001,-3.7275000000000005,0.80015625,0.5152187500000001,-0.06275,1.00953125,0.736,-0.122,-0.5716875,0.97403125,0.026416497388276266,0.02071235441196296,True
26650,184286,1,184285,3959.0,40276.0,43071.0,0.0023179999999999997,-0.000183,-0.003477,0.15750000000000003,-1.4175000000000002,-3.7800000000000002,0.7690625,0.50696875,-0.06975,0.98128125,0.75328125,-0.117125,-0.57246875,0.9820625000000001,0.025877618082586543,0.020458617940047233,True
26651,184287,1,184286,3960.0,40275.0,43071.0,-0.0011589999999999999,-0.000488,-0.002257,0.43750000000000006,-1.1900000000000002,-3.5875000000000004,0.79928125,0.512125,-0.05934375,0.99325,0.7481875,-0.12065625,-0.5710937500000001,0.974375,0.026233998090329738,0.020827318686210298,True
26652,184288,1,184287,3960.0,40276.0,43075.0,-0.004514,0.000183,0.000488,0.665,-1.12,-3.6225000000000005,0.77934375,0.50934375,-0.06,0.99175,0.7381562500000001,-0.12075,-0.57184375,0.97446875,0.02612247753490252,0.020830498321885185,True
26653,184289,1,184288,3961.0,40278.0,43079.0,-0.001281,0.002074,0.002806,0.77,-1.54,-3.7450000000000006,0.7840312500000001,0.51190625,-0.0648125,0.9885625,0.74146875,-0.122,-0.57365625,0.98053125,0.026279174612387032,0.020706879954015798,True
26654,184290,1,184289,3960.0,40278.0,43076.0,0.002623,0.0018909999999999999,-0.000549,0.7175,-1.9250000000000003,-3.6400000000000006,0.78171875,0.5094375,-0.06434375,0.9918125,0.7479375,-0.11809375,-0.57453125,0.97528125,0.02601910650587798,0.020760823260870948,True
26655,184291,1,184290,3960.0,40277.0,43076.0,0.003172,0.0011589999999999999,-0.0006709999999999999,0.47250000000000003,-2.0125,-3.6575,0.78465625,0.51046875,-0.06215625,0.9915,0.7489375,-0.12009375,-0.57303125,0.9745,0.026142622269036582,0.020790068380350916,True
26656,184292,1,184291,3960.0,40278.0,43075.0,0.001281,-0.0018909999999999999,0.00042699999999999997,0.1925,-2.1175,-3.5175000000000005,0.789,0.5100625,-0.06268750000000001,0.9959687500000001,0.75384375,-0.11740625,-0.565125,0.97446875,0.026017256727182265,0.020453284890673263,True
26657,184293,1,184292,3961.0,40276.0,43075.0,-0.000976,-0.003843,6.1e-05,-0.035,-2.1525000000000003,-3.5000000000000004,0.78334375,0.51090625,-0.06578125,0.99625,0.75571875,-0.11778125,-0.5713125,0.9810625000000001,0.026067385448236457,0.020574043409362034,True
26658,184294,1,184293,3961.0,40276.0,43080.0,0.0057339999999999995,-0.003477,-0.006344,0.31500000000000006,-1.8375000000000001,-3.6400000000000006,0.78228125,0.5101875,-0.0645625,0.992125,0.74884375,-0.11850000000000001,-0.57296875,0.980375,0.026066608619939053,0.020689655172413796,True
26659,184295,1,184294,3962.0,40278.0,43079.0,0.005673,0.000122,-0.001403,0.7525000000000001,-1.2075,-3.9725000000000006,0.7816875,0.508,-0.06121875,0.9923125,0.74875,-0.1194375,-0.57421875,0.9742500000000001,0.026013770014329727,0.020875536480686695,True
26660,184296,1,184295,3961.0,40276.0,43076.0,-0.0040869999999999995,0.005612,0.0034159999999999998,1.12,-0.5950000000000001,-4.2875000000000005,0.78278125,0.50928125,-0.06256250000000001,0.9925,0.74821875,-0.12228125000000001,-0.5725,0.9748125,0.026181707005841333,0.020752365449180996,True
26661,184297,1,184296,3962.0,40277.0,43076.0,-0.007259,0.0071979999999999995,0.006527,1.2425000000000002,-0.4025,-4.2,0.78803125,0.50771875,-0.06159375,0.9916875,0.74825,-0.122375,-0.57165625,0.97215625,0.02612071779830966,0.020758165213222043,True
26662,184298,1,184297,3962.0,40279.0,43077.0,-0.0034159999999999998,0.005307,0.004148,1.0325000000000002,-0.7175,-3.9725000000000006,0.7873125,0.5104062500000001,-0.06415625,0.99803125,0.74903125,-0.11971875,-0.57153125,0.9823437500000001,0.026124890034217335,0.020648896270963984,True
26663,184299,1,184298,3962.0,40276.0,43077.0,0.001586,-0.003904,-0.0062829999999999995,0.0175,-1.3475000000000001,-3.8675,0.78215625,0.508625,-0.06334375,0.9926875000000001,0.7531875,-0.1195625,-0.5745625,0.9703125,0.026044730288951136,0.020802760985063312,True
26664,184300,1,184299,3963.0,40278.0,43080.0,-0.0021349999999999997,-0.005124,-0.003965,0.08750000000000001,-1.2775,-3.6400000000000006,0.7835,0.5065000000000001,-0.06159375,0.98353125,0.7479687500000001,-0.123125,-0.57375,0.9733125,0.02610047413011374,0.02084159926751106,True
26665,184301,1,184300,3962.0,40279.0,43084.0,-0.0035989999999999998,-0.0037819999999999998,-0.000732,0.42000000000000004,-1.05,-3.5875000000000004,0.778375,0.50809375,-0.06265625,0.9967812500000001,0.75425,-0.12028125,-0.5714375,0.97675,0.026051727734310727,0.020706206138733235,True
26666,184302,1,184301,3962.0,40278.0,43083.0,0.000305,0.0008539999999999999,0.006771,0.805,-0.7875000000000001,-3.6225000000000005,0.78925,0.5094375,-0.06178125,0.9979687500000001,0.7535937500000001,-0.12234375,-0.571625,0.9748125,0.026190707526087716,0.02074928906818332,True
26667,184303,1,184302,3964.0,40275.0,43076.0,0.003965,0.0044529999999999995,0.009333,0.8575,-1.225,-3.6575,0.79021875,0.5094375,-0.06109375,0.98965625,0.75346875,-0.12321875,-0.5699062500000001,0.9738125,0.026226029642084973,0.020708768475663195,True
26668,184304,1,184303,3962.0,40273.0,43077.0,0.006161,-0.00183,0.0015249999999999999,0.12250000000000001,-2.0125,-3.4475000000000002,0.778625,0.50865625,-0.0611875,0.99021875,0.7524375,-0.12078125,-0.57178125,0.97421875,0.02609523686136825,0.02077967994282059,True
26669,184305,1,184304,3964.0,40273.0,43075.0,6.1e-05,-0.004392,-6.1e-05,-0.12250000000000001,-1.4700000000000002,-3.5875000000000004,0.78796875,0.5088125,-0.05909375,0.99209375,0.75371875,-0.1225,-0.5713125,0.974,0.026171105814073996,0.020846210392708973,True
26670,184306,1,184305,3962.0,40274.0,43077.0,-0.005856,-0.004148,-0.000793,0.12250000000000001,-1.3475000000000001,-3.5700000000000003,0.7834375,0.50834375,-0.06134375,0.99815625,0.74896875,-0.1169375,-0.57078125,0.974,0.025927058524740136,0.02073346772398619,True
26671,184307,1,184306,3964.0,40274.0,43078.0,-0.0040869999999999995,-0.000183,-0.003477,0.31500000000000006,-1.2075,-3.535,0.7815,0.508,-0.06293750000000001,0.98840625,0.75390625,-0.1211875,-0.57025,0.97403125,0.026084433032163113,0.020647429309836082,True
26672,184308,1,184307,3964.0,40274.0,43080.0,0.0011589999999999999,0.004148,-6.1e-05,0.5425000000000001,-1.4700000000000002,-3.7450000000000006,0.77615625,0.5084062500000001,-0.061375,0.99915625,0.74971875,-0.1246875,-0.56478125,0.9826875,0.026242567908910736,0.020493007646872494,True
26673,184309,1,184308,3965.0,40278.0,43079.0,-0.00042699999999999997,0.00122,0.001769,0.35000000000000003,-1.5575,-3.6050000000000004,0.775625,0.5085000000000001,-0.06378125,0.99228125,0.74865625,-0.1214375,-0.5736875,0.97465625,0.02611525536154303,0.020750090925507215,True
26674,184310,1,184309,3962.0,40274.0,43079.0,-0.003355,-0.0025009999999999998,0.0021349999999999997,0.22750000000000004,-1.7500000000000002,-3.5000000000000004,0.7850625,0.5056875,-0.06096875,0.992,0.74684375,-0.12953125000000001,-0.56846875,0.97096875,0.026325366349584597,0.020656558011984363,True
26675,184311,1,184310,3963.0,40274.0,43080.0,-0.0013419999999999999,-0.0017079999999999999,0.00122,0.0175,-1.9425000000000001,-3.6400000000000006,0.790125,0.50784375,-0.06281250000000001,0.9897812500000001,0.7625937500000001,-0.11984375,-0.57265625,0.9836875,0.026023696774569696,0.020748418274886334,True
26676,184312,1,184311,3965.0,40276.0,43080.0,0.0023179999999999997,-0.001037,-0.00042699999999999997,0.035,-2.1875,-3.6925000000000003,0.7829375000000001,0.50509375,-0.06078125,0.99234375,0.74184375,-0.1295625,-0.56490625,0.969,0.026302020602321327,0.020522162587125692,True
26677,184313,1,184312,3963.0,40275.0,43078.0,0.0025009999999999998,0.002257,-0.0021349999999999997,0.28,-2.415,-3.7625,0.7843125,0.5059375,-0.06071875,0.9915,0.749,-0.12928125000000001,-0.56821875,0.96875,0.026325639102905318,0.02065676820791088,True
26678,184314,1,184313,3963.0,40274.0,43079.0,0.0013419999999999999,0.003294,-0.002074,0.035,-2.3975000000000004,-3.6925000000000003,0.78953125,0.5081875,-0.06090625,1.000625,0.7646875,-0.12378125000000001,-0.56859375,0.98746875,0.026196919274419302,0.02066408461005221,True
26679,184315,1,184314,3964.0,40275.0,43080.0,-0.001403,0.000732,-0.0015249999999999999,-0.10500000000000001,-2.24,-3.5000000000000004,0.78225,0.50825,-0.06368750000000001,0.9889687500000001,0.7546875000000001,-0.109625,-0.57865625,0.982,0.025627731663184307,0.020951867537510313,True
26680,184316,1,184315,3963.0,40276.0,43079.0,-0.002196,-0.000793,0.0,-0.12250000000000001,-2.31,-3.325,0.78234375,0.505125,-0.06421875,0.99246875,0.7348125,-0.1235,-0.57353125,0.969125,0.026058615043422387,0.020726060687757283,True
26681,184317,1,184316,3962.0,40280.0,43083.0,-0.002196,-0.00244,-0.001037,-0.14,-2.2925000000000004,-3.325,0.7711250000000001,0.51171875,-0.06084375,0.98865625,0.74384375,-0.12609375,-0.56415625,0.97446875,0.02643662528253253,0.02048971252574572,True
26682,184318,1,184317,3964.0,40280.0,43084.0,0.0035989999999999998,-0.00183,-0.000793,-0.052500000000000005,-2.24,-3.2375000000000003,0.78878125,0.508625,-0.0611875,0.9965937500000001,0.7608125,-0.11978125,-0.57296875,0.982,0.026053563400372882,0.020827001214495097,True
26683,184319,1,184318,3963.0,40276.0,43083.0,0.004331,-0.001403,-0.0013419999999999999,0.0,-2.1175,-3.3075,0.78228125,0.506125,-0.060375,0.994375,0.7349687500000001,-0.12925,-0.57153125,0.96903125,0.026332148740636368,0.02080278370929773,True
26684,184320,1,184319,3963.0,40275.0,43081.0,0.00366,-0.0015249999999999999,0.0008539999999999999,0.10500000000000001,-1.7500000000000002,-3.2900000000000005,0.78546875,0.50903125,-0.06309375,0.9920625000000001,0.757875,-0.11890625,-0.57428125,0.971,0.026035073626110225,0.02080172741573062,True
26685,184321,1,184320,3963.0,40272.0,43079.0,-0.000976,-0.00042699999999999997,0.0023179999999999997,0.14,-1.4000000000000001,-3.43,0.78925,0.50903125,-0.0535,0.99575,0.74825,-0.1223125,-0.5685625,0.9785625,0.02617260472021495,0.020964291256356574,True
26686,184322,1,184321,3962.0,40274.0,43079.0,-0.005063,0.000549,0.001098,0.17500000000000002,-1.2425000000000002,-3.4825000000000004,0.78209375,0.507125,-0.05734375,0.99471875,0.75125,-0.12046875,-0.5719062500000001,0.9753437500000001,0.02601913571849635,0.02094108998971132,True
26687,184323,1,184322,3962.0,40278.0,43082.0,-0.0013419999999999999,0.001037,-0.00042699999999999997,0.21000000000000002,-1.6450000000000002,-3.6925000000000003,0.78828125,0.509875,-0.06115625,0.99203125,0.75725,-0.12059375,-0.5726875,0.9743437500000001,0.02613819363381135,0.0208170656953986,True
26688,184324,1,184323,3961.0,40276.0,43083.0,0.0011589999999999999,0.000366,0.001647,0.15750000000000003,-1.6450000000000002,-3.7800000000000002,0.77496875,0.50909375,-0.0620625,0.9924375,0.736125,-0.11803125,-0.57284375,0.9745,0.026002329688498103,0.02078641182911522,True
26689,184325,1,184324,3961.0,40276.0,43082.0,0.0018909999999999999,0.001952,0.002074,0.12250000000000001,-1.6800000000000002,-3.7100000000000004,0.78125,0.50903125,-0.06034375,0.99159375,0.7551875,-0.12078125,-0.57178125,0.97471875,0.026110783621488217,0.020814018112748744,True
26690,184326,1,184325,3961.0,40272.0,43076.0,0.002989,0.000915,0.00061,0.14,-1.8725000000000003,-3.5875000000000004,0.7833125,0.50953125,-0.06125,0.99209375,0.75565625,-0.12071875,-0.5744375,0.97409375,0.026128989211816084,0.020882980536177077,True
26691,184327,1,184326,3963.0,40273.0,43077.0,0.000366,0.000915,-0.002074,0.22750000000000004,-1.9425000000000001,-3.5000000000000004,0.7878125,0.5094062500000001,-0.06259375,0.99665625,0.7488750000000001,-0.12334375,-0.5710937500000001,0.97884375,0.026229780023758108,0.02069504944198913,True
26692,184328,1,184327,3960.0,40276.0,43081.0,-0.002257,-0.001098,-0.003172,0.22750000000000004,-1.9775000000000003,-3.1500000000000004,0.78246875,0.50890625,-0.06059375,1.0,0.74834375,-0.12325,-0.56584375,0.97421875,0.026205268775973387,0.020567174697592058,True
26693,184329,1,184328,3962.0,40275.0,43082.0,-0.0021349999999999997,-0.0025009999999999998,0.000976,0.24500000000000002,-1.8550000000000002,-3.2900000000000005,0.7778437500000001,0.5086875,-0.0601875,1.00096875,0.7546875000000001,-0.12134375,-0.57325,0.97290625,0.026119243460472633,0.020878902872025477,True
26694,184330,1,184329,3963.0,40277.0,43083.0,-0.00042699999999999997,-0.001037,0.004209,0.31500000000000006,-1.9075000000000002,-3.4125000000000005,0.7821875,0.505625,-0.0616875,0.996125,0.754875,-0.12059375,-0.57215625,0.97421875,0.025961995649464477,0.02077427576181883,True
26695,184331,1,184330,3963.0,40273.0,43081.0,0.001464,0.000183,0.0050019999999999995,0.42000000000000004,-1.9425000000000001,-3.4650000000000003,0.7826875,0.51284375,-0.05940625,0.9905,0.75446875,-0.12028125,-0.57403125,0.97503125,0.026248657444655626,0.020941822477742636,True
26696,184332,1,184331,3963.0,40274.0,43081.0,0.002196,0.000732,0.000183,0.5075000000000001,-2.1175,-3.535,0.78634375,0.50946875,-0.064,0.9891562500000001,0.75615625,-0.12003125,-0.574125,0.9745312500000001,0.02609863948663002,0.02075862314527984,True
26697,184333,1,184332,3963.0,40271.0,43081.0,0.001769,0.002562,-0.0034159999999999998,0.15750000000000003,-1.995,-3.9725000000000006,0.79309375,0.5104375,-0.06584375,0.99065625,0.7480625,-0.1220625,-0.57096875,0.9813125,0.026220809269522454,0.020557797502387856,True
26698,184334,1,184333,3962.0,40272.0,43079.0,0.001464,-0.00183,-0.0032329999999999998,-0.10500000000000001,-1.8725000000000003,-3.6925000000000003,0.7850625,0.511,-0.066875,0.9885625,0.74821875,-0.12340625000000001,-0.57065625,0.981,0.026298369451867937,0.020503369746178432,True
26699,184335,1,184334,3961.0,40273.0,43084.0,-0.00042699999999999997,-0.0026839999999999998,-0.0023179999999999997,0.12250000000000001,-1.5575,-3.6050000000000004,0.78971875,0.51175,-0.06571875,0.9887812500000001,0.74871875,-0.1200625,-0.57046875,0.9819687500000001,0.026194480217453832,0.020542953621916552,True
26700,184336,1,184335,3962.0,40273.0,43086.0,-0.002928,-0.0008539999999999999,-0.001769,0.2625,-1.2600000000000002,-3.8850000000000002,0.7936562500000001,0.51103125,-0.060125,1.0005,0.7483125,-0.12021875,-0.5704375,0.97265625,0.0261709898464333,0.02076936969478057,True
26701,184337,1,184336,3963.0,40278.0,43088.0,-0.005307,-0.000549,-0.000366,0.43750000000000006,-0.9625000000000001,-3.7625,0.7820312500000001,0.5070625,-0.05921875,1.00484375,0.748,-0.12065625,-0.57225,0.9742500000000001,0.026024115741046638,0.020878480806600944,True
26702,184338,1,184337,3962.0,40280.0,43091.0,0.0006709999999999999,0.002745,0.001403,0.6125,-1.12,-4.077500000000001,0.7784375,0.50690625,-0.05846875,0.99575,0.75246875,-0.12103125,-0.5685,0.9743125,0.026032780003964383,0.020759560005698355,True
26703,184339,1,184338,3962.0,40275.0,43089.0,0.003294,0.001281,0.0,0.56,-1.0850000000000002,-3.9375000000000004,0.784625,0.5073125,-0.0578125,1.00434375,0.75353125,-0.12034375,-0.5714375,0.97465625,0.026021861732380993,0.020903335427567067,True
26704,184340,1,184339,3962.0,40275.0,43085.0,0.005246,0.000122,0.000366,0.7000000000000001,-1.1375000000000002,-3.9375000000000004,0.77825,0.5046875,-0.0581875,1.0015625,0.75240625,-0.12053125,-0.57103125,0.971875,0.025920604464298436,0.020871885464717726,True
26705,184341,1,184340,3962.0,40273.0,43083.0,0.0008539999999999999,0.000366,0.002623,0.6825000000000001,-0.7000000000000001,-3.9375000000000004,0.778,0.50784375,-0.0603125,0.98959375,0.75225,-0.1204375,-0.57209375,0.9745625,0.026047672228167503,0.020827742853618242,True
26706,184342,1,184341,3962.0,40273.0,43085.0,-0.003355,0.0011589999999999999,0.004392,0.8575,-0.56,-3.8675,0.7858125,0.5091875,-0.060875,0.99375,0.74521875,-0.1233125,-0.5699062500000001,0.9781562500000001,0.02621945058333096,0.02071767164353751,True
26707,184343,1,184342,3961.0,40274.0,43087.0,-0.00042699999999999997,0.0023179999999999997,0.00122,0.7175,-1.0150000000000001,-3.7100000000000004,0.77246875,0.50515625,-0.05940625,0.99721875,0.7495937500000001,-0.1224375,-0.5700000000000001,0.97590625,0.026017012169686417,0.020781186406186408,True
26708,184344,1,184343,3961.0,40272.0,43087.0,0.001952,0.000549,0.000915,0.49000000000000005,-1.3650000000000002,-3.7800000000000002,0.78234375,0.5064062500000001,-0.059562500000000004,0.99728125,0.74975,-0.12196875,-0.5709062500000001,0.97546875,0.026049905234206888,0.02081094383728724,True
26709,184345,1,184344,3961.0,40274.0,43084.0,0.00122,-0.00122,-0.00244,0.21000000000000002,-1.5925000000000002,-3.6750000000000003,0.77815625,0.50784375,-0.0608125,0.992625,0.7618125,-0.122,-0.5779062500000001,0.9743125,0.026110759887239866,0.021038966653231496,True
26710,184346,1,184345,3962.0,40273.0,43087.0,0.000549,-0.002013,-0.0025009999999999998,0.12250000000000001,-1.7325000000000002,-3.6400000000000006,0.78771875,0.507875,-0.0620625,0.9934375,0.7700312500000001,-0.11912500000000001,-0.5829375,0.96675,0.025995967930014043,0.021188476763608903,True
26711,184347,1,184346,3960.0,40271.0,43087.0,0.001098,-0.00244,-0.002989,0.052500000000000005,-1.8200000000000003,-3.6050000000000004,0.7895,0.51053125,-0.06046875,0.9919687500000001,0.77434375,-0.1181875,-0.5791875,0.9525,0.02606824206835609,0.02110398279031803,True
26712,184348,1,184347,3961.0,40270.0,43085.0,-0.000122,-0.00122,-0.000183,0.49000000000000005,-1.33,-3.7275000000000005,0.7891875,0.50859375,-0.06096875,0.99140625,0.77278125,-0.1165,-0.5771875,0.96378125,0.025919754110256467,0.021003979808511448,True
26713,184349,1,184348,3961.0,40271.0,43086.0,-0.003721,0.0006709999999999999,0.0018909999999999999,0.5775,-1.155,-3.7800000000000002,0.78140625,0.5081875,-0.06028125,0.9925625,0.76090625,-0.12075,-0.57228125,0.9793437500000001,0.026074541629095283,0.02083648623385344,True
26714,184350,1,184349,3960.0,40270.0,43087.0,-0.004697,0.0018909999999999999,0.002562,0.7000000000000001,-1.225,-3.7450000000000006,0.7860312500000001,0.50765625,-0.06268750000000001,0.9931562500000001,0.73140625,-0.1265,-0.5725625,0.98346875,0.026284635152218513,0.020749769178529914,True
26715,184351,1,184350,3959.0,40269.0,43090.0,0.000122,0.000122,0.002013,0.42000000000000004,-1.4875,-3.8325000000000005,0.78646875,0.50765625,-0.06028125,0.9934375,0.7414375,-0.1258125,-0.5628125,0.986,0.026256887721397986,0.020459027238839203,True
26716,184352,1,184351,3961.0,40271.0,43088.0,0.003355,-0.000366,-0.0017079999999999999,0.35000000000000003,-1.8550000000000002,-3.8500000000000005,0.7829375000000001,0.506625,-0.05940625,0.99853125,0.73721875,-0.1325,-0.5599375,0.9948750000000001,0.026483994613073655,0.020379988752007205,True
26717,184353,1,184352,3960.0,40269.0,43086.0,0.0015249999999999999,-0.000488,-0.002989,0.42000000000000004,-1.5925000000000002,-3.8850000000000002,0.7819375000000001,0.50428125,-0.05946875,0.99221875,0.73578125,-0.12834375,-0.5649375,0.99525,0.026219163924171132,0.020576838430791857,True
26718,184354,1,184353,3960.0,40269.0,43086.0,-0.0008539999999999999,0.000122,-0.001281,0.5425000000000001,-1.4000000000000001,-3.7625,0.78221875,0.5065625,-0.05996875,0.98709375,0.735375,-0.12159375,-0.5670625,0.9898125,0.026041241574263723,0.020641204051155895,True
26719,184355,1,184354,3959.0,40268.0,43086.0,-0.00122,0.001952,0.00183,0.7525000000000001,-1.2775,-3.7800000000000002,0.7885,0.509875,-0.06084375,0.99275,0.72846875,-0.1276875,-0.56815625,0.9843125,0.026424517476032465,0.02064918892723177,True
26720,184356,1,184355,3961.0,40265.0,43084.0,-0.0008539999999999999,0.0015249999999999999,0.004575,0.7175,-1.0150000000000001,-3.7450000000000006,0.78790625,0.5070625,-0.0618125,0.99371875,0.739375,-0.12571875,-0.56715625,0.97896875,0.026228493192560324,0.020569891967044413,True
26721,184357,1,184356,3959.0,40267.0,43084.0,-0.0006709999999999999,0.000915,0.0023179999999999997,0.5950000000000001,-1.0850000000000002,-3.5875000000000004,0.78528125,0.50728125,-0.059750000000000004,0.99671875,0.74003125,-0.1239375,-0.568125,0.9806875,0.026165660145654086,0.020692462285990487,True
26722,184358,1,184357,3963.0,40268.0,43085.0,0.0,-0.000976,0.000549,0.1925,-1.3125000000000002,-3.5000000000000004,0.7818125,0.50353125,-0.05865625,0.9983125,0.75025,-0.1234375,-0.5724375,0.9743437500000001,0.02599002526070341,0.020908843495888434,True
26723,184359,1,184358,3961.0,40268.0,43086.0,0.000122,-0.0015249999999999999,-0.0030499999999999998,0.052500000000000005,-1.4875,-3.5525,0.78265625,0.5051875,-0.058750000000000004,0.9926875000000001,0.7564062500000001,-0.123625,-0.5690625,0.9742500000000001,0.026066252480711337,0.020770532046145432,True
26724,184360,1,184359,3961.0,40267.0,43086.0,0.000305,-0.0021349999999999997,-0.000732,0.035,-1.5750000000000002,-3.6225000000000005,0.7878125,0.5065000000000001,-0.06078125,0.9848125,0.7533125,-0.12565625,-0.569875,0.9814375000000001,0.026202655109122685,0.02072024175947171,True
26725,184361,1,184360,3963.0,40267.0,43086.0,-0.001952,-0.0006709999999999999,-0.0006709999999999999,0.12250000000000001,-1.6625,-3.7275000000000005,0.7875625,0.50675,-0.06025,0.99203125,0.74771875,-0.12687500000000002,-0.56503125,0.9670625,0.026262207600445567,0.020548772963600442,True
26726,184362,1,184361,3960.0,40270.0,43088.0,-0.0034159999999999998,-0.000183,-0.001586,0.17500000000000002,-1.8200000000000003,-3.8150000000000004,0.7858437500000001,0.5061875,-0.058937500000000004,0.99271875,0.7485,-0.12759375,-0.56925,0.9820625000000001,0.026267901248958985,0.020770373536025726,True
26727,184363,1,184362,3961.0,40270.0,43089.0,0.0032329999999999998,0.000366,0.000122,0.2625,-2.0650000000000004,-3.6925000000000003,0.78625,0.50671875,-0.06,0.99240625,0.74896875,-0.1275625,-0.5693125,0.9784375000000001,0.02628865845855751,0.020729619520285725,True
26728,184364,1,184363,3960.0,40267.0,43086.0,0.004209,-0.000244,-0.000244,0.35000000000000003,-1.8550000000000002,-3.7100000000000004,0.7865625,0.50634375,-0.058625000000000003,0.993375,0.74834375,-0.122875,-0.572375,0.97471875,0.026083903763543935,0.020907624924330674,True
26729,184365,1,184364,3961.0,40266.0,43085.0,0.003721,-0.000122,-0.000549,0.42000000000000004,-1.7850000000000001,-3.6575,0.773375,0.51228125,-0.05828125,0.9925625,0.75490625,-0.11862500000000001,-0.56925,0.97471875,0.026158466745098443,0.02079708375306532,True
26730,184366,1,184365,3962.0,40265.0,43084.0,0.001769,0.000488,-0.00061,0.6125,-1.4525000000000001,-3.6225000000000005,0.78778125,0.50675,-0.05940625,0.9921562500000001,0.7510625,-0.12340625000000001,-0.56965625,0.9755625,0.026122192010093935,0.020767486317599577,True
26731,184367,1,184366,3960.0,40266.0,43085.0,-0.0015249999999999999,0.000732,0.000915,0.7350000000000001,-1.2075,-3.5525,0.79890625,0.5069375,-0.06340625,0.99028125,0.749125,-0.1243125,-0.56928125,0.98121875,0.026166548787659758,0.020589735403838887,True
26732,184368,1,184367,3962.0,40264.0,43086.0,-0.004758,0.000366,0.002562,0.5775,-0.9800000000000001,-3.6050000000000004,0.7993125,0.5079375,-0.0635,0.9859687500000001,0.74903125,-0.12625,-0.5689062500000001,0.98209375,0.026286202787420342,0.020570970675587157,True
26733,184369,1,184368,3961.0,40267.0,43089.0,-0.003294,-0.000122,-0.000976,0.5075000000000001,-1.3475000000000001,-3.6050000000000004,0.79690625,0.50815625,-0.063375,0.9876875,0.748375,-0.12709375,-0.5656875,0.9810625000000001,0.026329321159951142,0.02044772815741469,True
26734,184370,1,184369,3961.0,40267.0,43086.0,0.00122,-0.001098,-0.000915,0.28,-1.4700000000000002,-3.5875000000000004,0.7988125,0.50746875,-0.06484375,0.98784375,0.74825,-0.12709375,-0.5689375,0.98140625,0.026300826223630853,0.020517523397175802,True
26735,184371,1,184370,3962.0,40264.0,43084.0,0.004941,-0.001769,-0.001037,0.15750000000000003,-1.5925000000000002,-3.535,0.79221875,0.508,-0.0536875,1.00515625,0.74834375,-0.12578125,-0.56978125,0.9750625,0.026269874680224084,0.021005223642355384,True
26736,184372,1,184371,3962.0,40260.0,43082.0,0.000488,6.1e-05,0.0018909999999999999,0.2625,-1.4175000000000002,-3.6925000000000003,0.77590625,0.5,-0.0545625,0.9935,0.7563125,-0.12409375,-0.5683125,0.97575,0.025870142790337978,0.0209110821103403,True
26737,184373,1,184372,3963.0,40259.0,43081.0,-0.0053679999999999995,0.000976,0.00244,0.6475000000000001,-1.0325000000000002,-3.7625,0.79515625,0.50784375,-0.06140625,1.003875,0.74771875,-0.12465625,-0.56896875,0.9756250000000001,0.026217990152709432,0.02065868149227875,True
26738,184374,1,184373,3961.0,40263.0,43081.0,-0.004941,0.002928,0.0015249999999999999,0.6825000000000001,-1.225,-3.6400000000000006,0.776,0.502875,-0.059562500000000004,0.9803437500000001,0.7544062500000001,-0.12471875,-0.5690625,0.98078125,0.026014551983118972,0.020737462001246487,True
26739,184375,1,184374,3962.0,40261.0,43082.0,-0.001037,0.001769,0.00042699999999999997,0.45500000000000007,-1.5225000000000002,-3.7450000000000006,0.7986562500000001,0.506375,-0.0546875,1.00821875,0.74875,-0.12821875,-0.5670625,0.9740625,0.02630089508783155,0.020856176842469466,True
26740,184376,1,184375,3961.0,40258.0,43079.0,0.0028669999999999998,0.000183,-0.001403,0.15750000000000003,-1.8375000000000001,-3.7275000000000005,0.768625,0.50290625,-0.059000000000000004,0.98628125,0.75415625,-0.12428125,-0.5694375,0.97559375,0.025998183883716743,0.02077530264988769,True
26741,184377,1,184376,3963.0,40259.0,43078.0,0.0034159999999999998,-0.0017079999999999999,-0.001037,0.0175,-1.7850000000000001,-3.5700000000000003,0.79359375,0.5075937500000001,-0.05775,0.986,0.7490625,-0.12278125000000001,-0.56896875,0.9809687500000001,0.02613193700456908,0.020807497262171414,True
26742,184378,1,184377,3961.0,40257.0,43079.0,0.000915,-0.002257,-0.002379,0.14,-1.2950000000000002,-3.4825000000000004,0.7905625000000001,0.503625,-0.05525,0.9958125,0.74671875,-0.12696875,-0.56915625,0.974125,0.02613646813796283,0.02091672358508445,True
26743,184379,1,184378,3961.0,40258.0,43079.0,-0.001098,-0.000122,-0.000122,0.3325,-1.2075,-3.4825000000000004,0.78025,0.5074062500000001,-0.05275,0.98778125,0.75684375,-0.12425,-0.57034375,0.975,0.02618345648051235,0.02106579196719623,True
26744,184380,1,184379,3963.0,40259.0,43081.0,-0.0046359999999999995,0.0006709999999999999,0.0017079999999999999,0.5425000000000001,-1.0325000000000002,-3.5700000000000003,0.78315625,0.5035000000000001,-0.05684375,0.9958750000000001,0.7559375,-0.12509375,-0.56878125,0.980625,0.02605559822954056,0.020836910662794885,True
26745,184381,1,184380,3963.0,40260.0,43086.0,-0.007442,0.000976,0.0017079999999999999,0.6475000000000001,-1.05,-3.6050000000000004,0.78290625,0.50346875,-0.05746875,0.99815625,0.74940625,-0.12484375,-0.56959375,0.9677187500000001,0.026044210130894634,0.02084385298393467,True
26746,184382,1,184381,3962.0,40261.0,43086.0,-0.00042699999999999997,-0.000244,0.000366,0.28,-1.9075000000000002,-3.7100000000000004,0.78278125,0.50328125,-0.0568125,0.99721875,0.75525,-0.1248125,-0.56978125,0.975125,0.02603517643919512,0.0208780348827892,True
26747,184383,1,184382,3963.0,40260.0,43086.0,0.006161,0.000976,-0.0023179999999999997,0.28,-2.1700000000000004,-3.9375000000000004,0.782375,0.503,-0.056625,0.9919687500000001,0.756375,-0.12490625,-0.5716875,0.9733437500000001,0.026027303214908867,0.020961625041015192,True
26748,184384,1,184383,3960.0,40258.0,43086.0,0.005856,0.000732,-0.005856,0.2625,-2.205,-3.8150000000000004,0.7905,0.5041875,-0.060625,0.985125,0.75009375,-0.12490625,-0.570875,0.96915625,0.026076526204117375,0.020766456221034048,True
26749,184385,1,184384,3962.0,40260.0,43086.0,0.00488,0.000732,-0.0050019999999999995,0.4025,-1.995,-3.6750000000000003,0.788625,0.50403125,-0.05628125,0.9940625000000001,0.749375,-0.12496875,-0.5675,0.9751562500000001,0.026072572632866105,0.020808741223160683,True
26750,184386,1,184385,3962.0,40262.0,43089.0,0.0021349999999999997,0.0008539999999999999,0.00042699999999999997,0.6125,-1.6275000000000002,-3.6925000000000003,0.7817500000000001,0.502875,-0.05634375,0.998,0.75390625,-0.12540625,-0.5709375,0.9742500000000001,0.02604230757772213,0.020943187454691134,True
26751,184387,1,184386,3963.0,40259.0,43086.0,-0.005429,6.1e-05,0.0037819999999999998,0.6825000000000001,-1.2425000000000002,-3.4650000000000003,0.7827500000000001,0.502375,-0.0563125,0.999,0.756,-0.1254375,-0.5693125,0.97496875,0.026022844145313428,0.02087970511995401,True
26752,184388,1,184387,3963.0,40261.0,43091.0,-0.005307,-0.0015249999999999999,0.003477,0.5950000000000001,-1.3825,-3.43,0.7834375,0.503875,-0.05228125,0.9981875,0.75434375,-0.12096875,-0.5690625,0.9740625,0.025904587683693258,0.021033820480533188,True
26753,184389,1,184388,3962.0,40263.0,43093.0,-0.000976,-0.002623,0.002379,0.385,-1.3475000000000001,-3.3950000000000005,0.78259375,0.50334375,-0.05709375,0.993375,0.74534375,-0.12609375,-0.5730000000000001,0.974375,0.02608949076142921,0.02099484189964595,True
26754,184390,1,184389,3963.0,40261.0,43090.0,0.00366,-0.002745,0.000366,0.17500000000000002,-1.5575,-3.6225000000000005,0.78871875,0.504875,-0.05965625,0.99275,0.7539375,-0.12546875,-0.56725,0.98009375,0.026127730678808053,0.02066139881346101,True
26755,184391,1,184390,3963.0,40259.0,43089.0,0.0055509999999999995,-0.000183,-0.001952,0.0175,-1.7325000000000002,-3.7975000000000003,0.7897500000000001,0.5055625,-0.059437500000000004,0.9918125,0.7490625,-0.12865625,-0.56875,0.980875,0.026284876514828713,0.02073009412363266,True
26756,184392,1,184391,3962.0,40255.0,43089.0,0.001098,0.0008539999999999999,-0.003294,0.21000000000000002,-1.4175000000000002,-3.8150000000000004,0.790375,0.503875,-0.05734375,0.994,0.749375,-0.128375,-0.5693125,0.96984375,0.026203588099074224,0.020837732028521353,True
26757,184393,1,184392,3965.0,40261.0,43087.0,-0.002562,0.002806,-0.0018909999999999999,0.5075000000000001,-1.2075,-3.9550000000000005,0.7825,0.5025000000000001,-0.05615625,0.99628125,0.74853125,-0.12840625,-0.5693125,0.972375,0.026147862542723888,0.020886064679261986,True
26758,184394,1,184393,3963.0,40259.0,43086.0,-0.003111,0.00183,0.0018909999999999999,0.6475000000000001,-0.9800000000000001,-3.8675,0.78328125,0.5015000000000001,-0.05575,0.9978125,0.74928125,-0.12678125,-0.56765625,0.97475,0.026040823410706727,0.020836592827205486,True
26759,184395,1,184394,3963.0,40261.0,43089.0,-0.004941,0.000305,0.000732,0.5950000000000001,-0.9975,-3.6750000000000003,0.7855625,0.5033125,-0.0565625,0.98159375,0.755125,-0.12678125,-0.57275,0.96259375,0.026115947397666237,0.021006501103865056,True
26760,184396,1,184395,3966.0,40262.0,43092.0,-0.003172,-0.000976,0.0021349999999999997,0.5075000000000001,-1.2600000000000002,-3.6050000000000004,0.78715625,0.5038125,-0.055625,0.9928750000000001,0.74646875,-0.12640625,-0.572125,0.9754375000000001,0.02612153436652009,0.021019753073859098,True
26761,184397,1,184396,3966.0,40262.0,43090.0,0.002989,-0.001647,0.002013,0.49000000000000005,-1.5750000000000002,-3.5700000000000003,0.78259375,0.50234375,-0.0555625,0.9916875,0.7545937500000001,-0.12653125,-0.571625,0.9752500000000001,0.026065703083612567,0.02100237570775234,True
26762,184398,1,184397,3964.0,40257.0,43089.0,0.00366,-0.000488,0.001464,0.5425000000000001,-1.5925000000000002,-3.5525,0.7836875,0.5035625,-0.0563125,0.99271875,0.75471875,-0.12628125,-0.5721875,0.9750625,0.026106126488101022,0.020994264348666556,True
26763,184399,1,184398,3964.0,40255.0,43087.0,0.002074,0.0006709999999999999,-0.000122,0.5425000000000001,-1.5925000000000002,-3.7100000000000004,0.7860312500000001,0.50453125,-0.0559375,0.9959687500000001,0.74903125,-0.1288125,-0.5690937500000001,0.9801562500000001,0.026248442603629997,0.0208862506375515,True
26764,184400,1,184399,3964.0,40256.0,43087.0,-0.00061,0.003477,-0.0008539999999999999,0.5775,-1.5925000000000002,-3.6925000000000003,0.78209375,0.50375,-0.055218750000000004,0.99234375,0.74175,-0.12778125,-0.5733125,0.96815625,0.026174443619841756,0.021083594244772658,True
26765,184401,1,184400,3966.0,40260.0,43089.0,-0.002989,0.003538,-0.001098,0.5075000000000001,-1.6625,-3.6575,0.78721875,0.50421875,-0.0568125,0.9928125,0.75409375,-0.12678125,-0.57078125,0.97221875,0.02615350939114599,0.020917883919543665,True
26766,184402,1,184401,3966.0,40259.0,43090.0,-0.001403,-0.000976,-0.000183,-0.14,-2.1175,-3.5000000000000004,0.7827500000000001,0.5020625,-0.055625,0.993625,0.7530625,-0.12859375,-0.5645,0.98365625,0.026137298200397605,0.02071587046347371,True
26767,184403,1,184402,3965.0,40257.0,43092.0,0.00244,-0.005795,-0.003355,-0.31500000000000006,-2.3975000000000004,-3.4650000000000003,0.79378125,0.5025937500000001,-0.05575,0.99690625,0.7388125,-0.1204375,-0.57521875,0.97178125,0.0258300144846046,0.0211379095048747,True
26768,184404,1,184403,3967.0,40260.0,43091.0,0.003477,-0.007869,-0.00488,-0.14,-2.415,-3.6225000000000005,0.78359375,0.49409375,-0.055375,0.981875,0.75903125,-0.12615625,-0.571625,0.97796875,0.0257086124110632,0.02101000646070417,True
26769,184405,1,184404,3965.0,40260.0,43093.0,0.0028669999999999998,-0.004514,-0.0032329999999999998,0.15750000000000003,-2.0825,-3.7275000000000005,0.8138125,0.50475,-0.06321875,0.9903125,0.74446875,-0.13128125000000002,-0.5681875,0.98284375,0.02635712722464747,0.02055376490430969,True
26770,184406,1,184405,3966.0,40261.0,43093.0,0.0017079999999999999,0.00042699999999999997,0.0023179999999999997,0.7350000000000001,-1.6450000000000002,-3.8500000000000005,0.7721875,0.49553125000000003,-0.05065625,1.0146875,0.75275,-0.12603125,-0.5753125,0.97203125,0.025763147430226428,0.021348914688266937,True
26771,184407,1,184406,3967.0,40257.0,43093.0,-0.000732,0.008235,0.0053679999999999995,1.0325000000000002,-1.0675000000000001,-4.130000000000001,0.769875,0.49503125000000003,-0.05153125,0.99703125,0.7620625,-0.12659375,-0.5749062500000001,0.97084375,0.025765137277200603,0.02129713109281953,True
26772,184408,1,184407,3967.0,40256.0,43088.0,0.000549,0.0073809999999999995,0.002562,0.8400000000000001,-1.2425000000000002,-4.025,0.77490625,0.50228125,-0.050875000000000004,1.01075,0.75921875,-0.12434375,-0.57128125,0.96996875,0.025974799832637934,0.021179451112261393,True
26773,184409,1,184408,3966.0,40258.0,43090.0,-0.003965,0.001098,-0.0057339999999999995,0.385,-1.6625,-3.7450000000000006,0.77146875,0.4943125,-0.050875000000000004,1.0145,0.75890625,-0.12746875,-0.5734375,0.97146875,0.025770678907210274,0.02126533986138488,True
26774,184410,1,184409,3968.0,40262.0,43096.0,-0.007869,-0.002257,-0.0073809999999999995,-0.10500000000000001,-1.8025000000000002,-3.6225000000000005,0.7706875,0.49196875,-0.0505,1.0145,0.76175,-0.12728125,-0.57146875,0.971,0.02566596681919974,0.02120218190050198,True
26775,184411,1,184410,3969.0,40264.0,43101.0,-0.0048189999999999995,-0.003904,-0.004697,-0.08750000000000001,-1.9250000000000003,-3.5000000000000004,0.76365625,0.48984375,-0.04971875,1.01340625,0.75015625,-0.1278125,-0.57178125,0.97221875,0.02559934722635962,0.02124642469702924,True
26776,184412,1,184411,3968.0,40264.0,43099.0,0.010187,-0.003904,0.005307,0.29750000000000004,-1.4875,-3.22,0.77,0.49896875,-0.05653125,0.99309375,0.75803125,-0.12775,-0.56928125,0.9676250000000001,0.025975018391685922,0.02086955636929753,True
26777,184413,1,184412,3966.0,40258.0,43094.0,0.006222,-0.000183,0.005429,0.31500000000000006,-1.12,-3.2550000000000003,0.79684375,0.50365625,-0.05715625,0.9825625,0.7475625,-0.1304375,-0.5695,0.9813437500000001,0.02627775604980225,0.020852835833045032,True
26778,184414,1,184413,3967.0,40258.0,43089.0,0.000244,0.0,0.0055509999999999995,0.5425000000000001,-0.9800000000000001,-3.325,0.79615625,0.5018125,-0.0570625,0.9973125,0.74246875,-0.1310625,-0.56865625,0.97478125,0.026226570007018963,0.020823025272291802,True
26779,184415,1,184414,3968.0,40259.0,43092.0,-0.003294,-0.001464,0.0025009999999999998,0.5075000000000001,-0.9450000000000001,-3.3425000000000002,0.77215625,0.49696875,-0.051375000000000004,0.99940625,0.7521875,-0.128125,-0.5725,0.9753437500000001,0.025907265898199715,0.02120765082917896,True
26780,184416,1,184415,3969.0,40259.0,43095.0,-0.002745,-0.000183,-0.00042699999999999997,0.24500000000000002,-1.155,-3.5700000000000003,0.77275,0.50365625,-0.0569375,0.9848125,0.75365625,-0.12765625,-0.5696875,0.97709375,0.026165512864516214,0.020869211299492516,True
26781,184417,1,184416,3968.0,40259.0,43095.0,-0.002379,0.0011589999999999999,-0.003538,0.42000000000000004,-1.4175000000000002,-3.7625,0.78371875,0.50196875,-0.05428125,0.9971875,0.74515625,-0.13171875,-0.56784375,0.98140625,0.026259526168230348,0.020903849162586762,True
26782,184418,1,184417,3966.0,40261.0,43097.0,-0.0017079999999999999,0.003721,-0.0026839999999999998,0.45500000000000007,-1.5750000000000002,-3.99,0.78265625,0.49840625,-0.055406250000000004,0.992375,0.74853125,-0.12984375,-0.572125,0.9746250000000001,0.026036223297135938,0.02102865543781826,True
26783,184419,1,184418,3968.0,40261.0,43098.0,0.001281,0.0032329999999999998,-0.00061,0.45500000000000007,-1.7850000000000001,-4.0600000000000005,0.78746875,0.50075,-0.054843750000000004,0.99246875,0.7533125,-0.12934375,-0.57321875,0.9745312500000001,0.026113173923348,0.02109512006846885,True
26784,184420,1,184419,3967.0,40263.0,43096.0,0.002562,0.002379,0.001647,0.43750000000000006,-1.8200000000000003,-3.8675,0.78978125,0.50121875,-0.0531875,0.9923125,0.7566875000000001,-0.1291875,-0.5739062500000001,0.97459375,0.026126294140654344,0.021189905451031013,True
26785,184421,1,184420,3968.0,40259.0,43094.0,0.00122,-0.000366,0.0008539999999999999,0.36750000000000005,-1.9425000000000001,-3.6225000000000005,0.78803125,0.50140625,-0.05825,0.9935,0.7530625,-0.12853125,-0.5729375,0.9746875,0.02610757751779856,0.020945298054007584,True
26786,184422,1,184421,3966.0,40261.0,43094.0,-0.002745,-0.00244,0.0021349999999999997,0.1925,-1.8900000000000001,-3.2725000000000004,0.7898125,0.5020625,-0.05790625,0.99340625,0.753,-0.12934375,-0.574875,0.97471875,0.026167568274624128,0.021036475261827375,True
26787,184423,1,184422,3966.0,40262.0,43094.0,-0.002989,-0.002074,0.001464,0.07,-2.0125,-3.325,0.7891875,0.505125,-0.05209375,0.9924375,0.75696875,-0.12290625000000001,-0.57534375,0.9755312500000001,0.026034642902946242,0.021291665554016917,True
26788,184424,1,184423,3967.0,40264.0,43096.0,-0.000122,-0.0008539999999999999,-0.0006709999999999999,0.0175,-2.3275,-3.4125000000000005,0.79109375,0.5015000000000001,-0.0561875,0.9975937500000001,0.74784375,-0.13175,-0.57153125,0.98053125,0.026241362520331102,0.020973204508774764,True
26789,184425,1,184424,3967.0,40265.0,43095.0,0.007076,-0.001586,-0.002928,0.10500000000000001,-2.345,-3.4825000000000004,0.78325,0.49940625,-0.05646875,0.9925,0.7498125,-0.132125,-0.5715625,0.98171875,0.02616973225524068,0.020963003472001425,True
26790,184426,1,184425,3966.0,40263.0,43093.0,0.0035989999999999998,-0.0008539999999999999,-0.004026,0.10500000000000001,-2.2750000000000004,-3.6050000000000004,0.78534375,0.49975,-0.0554375,0.99853125,0.7468125,-0.13103125000000002,-0.57153125,0.97790625,0.026139838097470454,0.02100372763703931,True
26791,184427,1,184426,3967.0,40265.0,43097.0,-0.0015249999999999999,0.001647,0.001037,0.6475000000000001,-1.6275000000000002,-3.5000000000000004,0.7825,0.49915625,-0.055843750000000004,0.99865625,0.7489375,-0.1253125,-0.57084375,0.9756250000000001,0.025884379736013784,0.020959801187128545,True
26792,184428,1,184427,3965.0,40264.0,43095.0,-0.001037,0.0008539999999999999,0.001464,0.5425000000000001,-1.4700000000000002,-3.3950000000000005,0.782375,0.49996875,-0.055343750000000004,0.99275,0.7491875,-0.12871875,-0.57165625,0.979125,0.02605556915449562,0.02101252332145905,True
26793,184429,1,184428,3966.0,40263.0,43092.0,6.1e-05,0.000549,0.001098,0.47250000000000003,-1.3825,-3.4825000000000004,0.7856875,0.5019375,-0.05375,0.99846875,0.7495,-0.1325625,-0.57128125,0.98053125,0.02629227625537073,0.021062444596779015,True
26794,184430,1,184429,3967.0,40261.0,43094.0,-0.000305,-0.000488,0.0034159999999999998,0.35000000000000003,-1.4875,-3.4825000000000004,0.7831250000000001,0.50028125,-0.0555625,0.999,0.74921875,-0.134,-0.57171875,0.980875,0.026281646225242396,0.021006110938006733,True
26795,184431,1,184430,3966.0,40262.0,43094.0,-0.002257,-0.0021349999999999997,0.0011589999999999999,0.24500000000000002,-1.54,-3.4475000000000002,0.78428125,0.5023125,-0.058375,0.9929375,0.75,-0.13259375,-0.57221875,0.9799375,0.02630907628816318,0.020911573156168487,True
26796,184432,1,184431,3965.0,40262.0,43094.0,-0.0013419999999999999,-0.002379,-0.002257,-0.052500000000000005,-1.9075000000000002,-3.6925000000000003,0.78996875,0.50140625,-0.05725,0.9931562500000001,0.7485937500000001,-0.13134375,-0.5719375,0.97565625,0.026221084352171645,0.02094615046127315,True
26797,184433,1,184432,3966.0,40265.0,43095.0,0.0023179999999999997,-0.000122,-0.001403,-0.052500000000000005,-2.0650000000000004,-3.7800000000000002,0.78234375,0.49915625,-0.054718750000000003,0.9989375,0.75365625,-0.1298125,-0.5720000000000001,0.9756250000000001,0.026066043820274196,0.021051654321992512,True
26798,184434,1,184433,3964.0,40260.0,43093.0,0.003904,0.00244,-0.000549,0.17500000000000002,-2.0300000000000002,-4.025,0.78278125,0.50090625,-0.0555,0.99815625,0.750125,-0.13028125000000002,-0.5715,0.97984375,0.02615748624977175,0.020999938953665833,True
26799,184435,1,184434,3965.0,40260.0,43092.0,0.0032329999999999998,0.004392,0.0,0.3325,-1.9425000000000001,-3.8850000000000002,0.78309375,0.49853125000000004,-0.05428125,0.9990625000000001,0.74809375,-0.13078125000000002,-0.5714375,0.975375,0.02607924266853151,0.02104704903813625,True
26800,184436,1,184435,3964.0,40259.0,43093.0,-0.000732,0.0008539999999999999,-0.002013,0.385,-1.6625,-3.6400000000000006,0.78371875,0.498125,-0.05453125,0.9965,0.75821875,-0.1296875,-0.5748125000000001,0.9761562500000001,0.026018260700641067,0.021171321246092927,True
26801,184437,1,184436,3964.0,40260.0,43091.0,-0.00732,-0.001037,0.000122,0.35000000000000003,-1.4175000000000002,-3.3425000000000002,0.78459375,0.50125,-0.055125,0.993,0.7537812500000001,-0.12859375,-0.57575,0.9756875,0.026103624460086905,0.02118450098165875,True
26802,184438,1,184437,3964.0,40263.0,43096.0,-0.008662,-0.0015249999999999999,0.0021349999999999997,0.36750000000000005,-1.5050000000000001,-3.1675000000000004,0.7830625,0.4993125,-0.053625,0.997375,0.769375,-0.12915625,-0.57684375,0.968125,0.026046030929904564,0.021289094536396685,True
26803,184439,1,184438,3962.0,40264.0,43096.0,-0.002379,-0.001403,0.0026839999999999998,0.385,-1.8900000000000001,-3.0975,0.78246875,0.49865625,-0.055031250000000004,0.9997812500000001,0.745375,-0.1373125,-0.5676875,0.973875,0.026347951951983053,0.020867094226918997,True
26804,184440,1,184439,3963.0,40259.0,43092.0,0.006161,-0.000793,0.0030499999999999998,0.22750000000000004,-2.2225,-3.2375000000000003,0.7830625,0.5015625,-0.0474375,0.9997812500000001,0.7573125,-0.12840625,-0.572375,0.9751875,0.026109007925046848,0.02136291262037145,True
26805,184441,1,184440,3963.0,40257.0,43088.0,0.00915,-0.0011589999999999999,-0.000305,0.07,-2.3975000000000004,-3.43,0.78346875,0.4995625,-0.0525,0.99890625,0.73484375,-0.134375,-0.5700625,0.99128125,0.026266994691182186,0.02106476123127485,True
26806,184442,1,184441,3963.0,40256.0,43090.0,0.0023179999999999997,-0.0013419999999999999,-0.003904,0.052500000000000005,-2.0300000000000002,-3.4125000000000005,0.78446875,0.5011875,-0.05671875,0.99309375,0.74234375,-0.133375,-0.5728125000000001,0.9839687500000001,0.026293980846027545,0.021002632482545497,True
26807,184443,1,184442,3961.0,40260.0,43092.0,-0.003904,-0.001647,-0.002074,0.14,-1.6625,-3.4825000000000004,0.789125,0.50203125,-0.0553125,0.98290625,0.750125,-0.12753125,-0.57728125,0.97740625,0.02609311717293911,0.02123785559071958,True
26808,184444,1,184443,3962.0,40263.0,43098.0,-0.010309,-0.000488,-0.000549,0.4025,-1.3650000000000002,-3.6400000000000006,0.78653125,0.5021875,-0.0551875,0.9965,0.73721875,-0.1316875,-0.57128125,0.9871875,0.0262673300406364,0.021003941339037827,True
26809,184445,1,184444,3961.0,40264.0,43100.0,-0.007259,0.002196,6.1e-05,0.4025,-1.4875,-3.7275000000000005,0.78340625,0.49940625,-0.055218750000000004,0.99503125,0.7559375,-0.12778125,-0.5743125,0.9720625,0.025994412561246176,0.021123429190541953,True
26810,184446,1,184445,3961.0,40264.0,43097.0,0.007259,0.0015249999999999999,-0.0028669999999999998,0.17500000000000002,-1.995,-3.7975000000000003,0.78728125,0.50153125,-0.058,0.99259375,0.7662187500000001,-0.1279375,-0.58003125,0.976375,0.02608879229731095,0.021238022225866775,True
26811,184447,1,184446,3962.0,40265.0,43097.0,0.004941,-0.0006709999999999999,-0.002257,0.10500000000000001,-2.0125,-3.7975000000000003,0.7850625,0.50109375,-0.0556875,0.98875,0.7477812500000001,-0.13665625,-0.5684375,0.9716875,0.02642246686510274,0.020870273089202356,True
26812,184448,1,184447,3961.0,40263.0,43098.0,-0.0021349999999999997,-0.0021349999999999997,-0.002379,0.22750000000000004,-1.61,-3.8150000000000004,0.78925,0.50703125,-0.05615625,1.00115625,0.76171875,-0.1304375,-0.5711875,0.9845625,0.02641762089891657,0.020960779775092267,True
26813,184449,1,184448,3961.0,40266.0,43101.0,-0.003904,-0.00122,6.1e-05,0.49000000000000005,-1.4700000000000002,-3.8150000000000004,0.78334375,0.4985625,-0.054781250000000004,0.9929375,0.74653125,-0.1304375,-0.5693125,0.97378125,0.026066663731231562,0.020942028801172196,True
26814,184450,1,184449,3960.0,40265.0,43103.0,-0.000122,0.000793,0.002257,0.6825000000000001,-1.2600000000000002,-3.7800000000000002,0.7896875,0.5098125,-0.055343750000000004,0.99728125,0.75134375,-0.13028125000000002,-0.5735625,0.98109375,0.02652657643598746,0.021088466517624374,True
26815,184451,1,184450,3959.0,40265.0,43100.0,0.002074,0.004575,0.004514,0.8575,-0.805,-3.8500000000000005,0.78234375,0.49840625,-0.0546875,0.99453125,0.75128125,-0.13003125000000001,-0.57509375,0.9754375000000001,0.02604379138547531,0.021176165401200146,True
26816,184452,1,184451,3962.0,40263.0,43098.0,-0.00122,0.0034159999999999998,0.003904,0.7525000000000001,-0.7875000000000001,-3.7625,0.78915625,0.50153125,-0.05621875,0.9929687500000001,0.7548125,-0.12587500000000001,-0.5751875,0.9808125,0.026005533478060377,0.021117590659277777,True
26817,184453,1,184452,3960.0,40260.0,43096.0,-0.0026839999999999998,0.0008539999999999999,0.001403,0.36750000000000005,-0.9100000000000001,-3.5700000000000003,0.7878437500000001,0.5025625,-0.055531250000000004,0.9900625000000001,0.74896875,-0.1325625,-0.57434375,0.98103125,0.026318174872643554,0.021111957465802113,True
26818,184454,1,184453,3960.0,40259.0,43096.0,0.000122,-0.00122,0.000122,0.12250000000000001,-1.0325000000000002,-3.5000000000000004,0.78346875,0.49809375,-0.05428125,0.9927812500000001,0.7476875000000001,-0.13015625,-0.5748125000000001,0.97559375,0.026035886112424158,0.021181494263689708,True
26819,184455,1,184454,3959.0,40261.0,43096.0,0.002074,-0.0037819999999999998,-0.002623,-0.10500000000000001,-1.3475000000000001,-3.43,0.78621875,0.50190625,-0.0555625,0.9930625000000001,0.755,-0.13046875,-0.5761875,0.9745,0.02620649464175867,0.021184123859732108,True
26820,184456,1,184455,3959.0,40261.0,43095.0,-0.004026,-0.0035989999999999998,-0.003538,-0.035,-1.3650000000000002,-3.5525,0.78353125,0.50115625,-0.055343750000000004,0.993125,0.75715625,-0.1295625,-0.576625,0.9753437500000001,0.026138839027852245,0.021210448953019385,True
26821,184457,1,184456,3961.0,40263.0,43101.0,-0.003843,-0.002562,-0.000915,0.21000000000000002,-1.4700000000000002,-3.535,0.78953125,0.5015000000000001,-0.05715625,0.9921562500000001,0.75621875,-0.1268125,-0.5759375,0.97103125,0.026042084921081062,0.021109316785982223,True
26822,184458,1,184457,3961.0,40265.0,43102.0,0.000183,-0.00042699999999999997,-0.000183,0.5775,-1.61,-3.5700000000000003,0.79146875,0.502125,-0.055281250000000004,0.9995937500000001,0.75009375,-0.1320625,-0.5741875,0.983125,0.026279871436600166,0.02111590668053623,True
26823,184459,1,184458,3959.0,40262.0,43098.0,0.00488,0.0,0.0018909999999999999,0.7350000000000001,-1.5925000000000002,-3.7625,0.7753125000000001,0.49628125,-0.0553125,1.0039375,0.747125,-0.13090625,-0.57640625,0.9755312500000001,0.02599104623349983,0.021203008474845665,True
26824,184460,1,184459,3960.0,40260.0,43099.0,0.002928,0.0008539999999999999,0.000549,0.8225000000000001,-1.5050000000000001,-3.9200000000000004,0.7800625,0.50415625,-0.0583125,0.98971875,0.755875,-0.129,-0.5783125,0.9761562500000001,0.026240467901695052,0.021156863393286256,True
26825,184461,1,184460,3962.0,40260.0,43100.0,-0.000549,0.0030499999999999998,0.0017079999999999999,1.05,-1.3475000000000001,-4.1475,0.7936875,0.50296875,-0.06,0.99165625,0.75040625,-0.13375,-0.57478125,0.970875,0.02638291811260165,0.020947541496427358,True
26826,184462,1,184461,3960.0,40260.0,43099.0,6.1e-05,0.002989,-0.000732,0.9625000000000001,-1.2775,-4.1475,0.78153125,0.49743750000000003,-0.05296875,0.99675,0.7488125,-0.1321875,-0.57278125,0.9755,0.02609067246804709,0.021153995337829332,True
26827,184463,1,184462,3960.0,40258.0,43102.0,0.000183,0.0030499999999999998,-0.0015249999999999999,0.805,-1.1725,-4.130000000000001,0.77278125,0.4940625,-0.05259375,0.991125,0.755125,-0.1308125,-0.57653125,0.9751875,0.025895315377383172,0.021318610615564396,True
26828,184464,1,184463,3961.0,40258.0,43100.0,-0.00061,0.0025009999999999998,0.000488,0.7875000000000001,-1.0850000000000002,-4.095000000000001,0.7955,0.50109375,-0.06021875,0.9994375,0.75003125,-0.134125,-0.574875,0.98165625,0.026320355513199667,0.020942375088377867,True
26829,184465,1,184464,3962.0,40258.0,43101.0,-0.00366,0.0006709999999999999,0.00183,0.56,-1.0325000000000002,-3.9725000000000006,0.7791875,0.4945,-0.05290625,0.99825,0.7491875,-0.13225,-0.5765,0.97609375,0.025971469713764777,0.0213046507842858,True
26830,184466,1,184465,3959.0,40260.0,43101.0,0.0028669999999999998,-0.001098,0.001586,0.2625,-1.435,-3.8150000000000004,0.7711875,0.498375,-0.05634375,0.9770625000000001,0.75465625,-0.13234375,-0.57621875,0.97796875,0.02613582652948908,0.02115357961647375,True
26831,184467,1,184466,3960.0,40259.0,43098.0,0.00488,-0.000793,-0.001037,0.14,-1.5750000000000002,-3.7800000000000002,0.79578125,0.5018125,-0.05575,1.00428125,0.75,-0.1310625,-0.5745625,0.9758125,0.026226570007018963,0.02111176953811487,True
26832,184468,1,184467,3960.0,40257.0,43100.0,0.003172,-0.00183,-0.000976,0.1925,-1.3825,-3.5175000000000005,0.77825,0.4976875,-0.05778125,0.9898750000000001,0.7515000000000001,-0.13134375,-0.57459375,0.97640625,0.026066979796763288,0.02103035782636285,True
26833,184469,1,184468,3960.0,40258.0,43101.0,-0.0015249999999999999,-0.002745,-0.001098,0.21000000000000002,-1.155,-3.5525,0.7896875,0.50090625,-0.05434375,0.99846875,0.7488750000000001,-0.1333125,-0.57459375,0.9765625,0.026279805144859416,0.021170238063447134,True
26834,184470,1,184469,3962.0,40261.0,43102.0,-0.002623,-0.001098,0.000366,0.35000000000000003,-1.155,-3.535,0.77859375,0.49859375,-0.05246875,0.99703125,0.7505000000000001,-0.132,-0.57203125,0.9790625000000001,0.026131018978949115,0.021144466841747162,True
26835,184471,1,184470,3960.0,40260.0,43102.0,-0.002928,0.001403,-0.000305,0.49000000000000005,-1.1900000000000002,-3.6050000000000004,0.78196875,0.49753125000000004,-0.05425,0.99571875,0.74665625,-0.13403125,-0.57478125,0.97990625,0.026168960065467723,0.021181521198688186,True
26836,184472,1,184471,3961.0,40261.0,43102.0,-0.0030499999999999998,0.000793,-0.000183,0.5425000000000001,-1.5575,-3.6400000000000006,0.78390625,0.496125,-0.05403125,1.00059375,0.7505937500000001,-0.13415625,-0.5746875,0.980375,0.026115735867086716,0.021186688538765753,True
26837,184473,1,184472,3960.0,40260.0,43104.0,0.0,0.001281,0.00061,0.36750000000000005,-1.7675,-3.5875000000000004,0.78265625,0.49634375000000003,-0.0530625,0.993125,0.74971875,-0.13359375,-0.57921875,0.97621875,0.026102100935547573,0.021406548977477163,True
26838,184474,1,184473,3960.0,40259.0,43104.0,0.004575,0.000183,-0.000183,0.28,-2.1175,-3.6400000000000006,0.785375,0.49793750000000003,-0.0536875,0.9985625,0.739625,-0.1433125,-0.57275,0.98728125,0.026560149938000432,0.021123500625693094,True
26839,184475,1,184474,3960.0,40258.0,43100.0,0.0066489999999999995,-0.000488,-0.001464,0.24500000000000002,-2.1350000000000002,-3.6925000000000003,0.7828125,0.49584375,-0.05315625,0.9994375,0.74546875,-0.144875,-0.5708125000000001,0.99565625,0.02653642853814733,0.02106793375269947,True
26840,184476,1,184475,3959.0,40256.0,43099.0,-0.001769,-0.00183,-0.002745,0.385,-1.7850000000000001,-3.6050000000000004,0.78334375,0.49728125,-0.05140625,0.99259375,0.75509375,-0.12478125,-0.57415625,0.9617187500000001,0.025785207896962793,0.021272347855279875,True
26841,184477,1,184476,3960.0,40258.0,43104.0,-0.006771,-0.001586,-0.002074,0.6300000000000001,-1.435,-3.5875000000000004,0.7866875,0.49790625,-0.05378125,0.99940625,0.7622187500000001,-0.13443750000000002,-0.5695625,0.9975937500000001,0.026200890325287256,0.020992691668807694,True
26842,184478,1,184477,3959.0,40260.0,43105.0,-0.0035989999999999998,0.001464,0.003721,0.7525000000000001,-1.4175000000000002,-3.7625,0.7823125,0.496625,-0.05375,0.9928125,0.736625,-0.13790625,-0.5766875,0.967,0.026287750206172085,0.02127778611336455,True
26843,184479,1,184478,3959.0,40260.0,43105.0,0.002928,0.002806,0.0030499999999999998,0.7525000000000001,-1.4700000000000002,-3.8675,0.78903125,0.49865625,-0.055843750000000004,0.98465625,0.7644062500000001,-0.12965625,-0.58084375,0.9638125000000001,0.02603901578581336,0.021358095163027103,True
26844,184480,1,184479,3959.0,40256.0,43101.0,0.004209,0.002562,0.002196,0.6300000000000001,-1.6625,-3.8325000000000005,0.789375,0.49825,-0.0564375,0.9869375,0.7598125,-0.133125,-0.5760625,0.98490625,0.02616217336130319,0.021143541606797267,True
26845,184481,1,184480,3960.0,40259.0,43103.0,0.000244,-0.000122,-0.001098,0.3325,-1.54,-3.7625,0.78228125,0.49709375,-0.05334375,0.99825,0.73721875,-0.1419375,-0.56825,0.9846875,0.026469758278514305,0.020958198080856392,True
26846,184482,1,184481,3958.0,40258.0,43103.0,-0.000488,-0.000549,-0.001769,0.31500000000000006,-1.2950000000000002,-3.6575,0.7826875,0.50140625,-0.05178125,0.98478125,0.7541875,-0.13318750000000001,-0.583875,0.9758125,0.026295480031388315,0.021644014623406604,True
26847,184483,1,184482,3958.0,40260.0,43107.0,-0.000122,-0.0008539999999999999,-0.0013419999999999999,0.24500000000000002,-1.225,-3.6925000000000003,0.7840625,0.4955,-0.05303125,0.989625,0.7360625000000001,-0.13753125,-0.56815625,0.97321875,0.026226014725511747,0.020967181857612944,True
26848,184484,1,184483,3959.0,40260.0,43105.0,-0.001769,-0.001464,-0.000305,0.24500000000000002,-1.0675000000000001,-3.7450000000000006,0.7840625,0.49775,-0.05359375,0.99334375,0.76653125,-0.13153125000000002,-0.5818125000000001,0.9726250000000001,0.02607713714810369,0.021488193761139463,True
26849,184485,1,184484,3958.0,40258.0,43108.0,-0.0032329999999999998,-0.001098,-0.000244,0.3325,-0.9975,-3.7800000000000002,0.7913125,0.498375,-0.05421875,0.997375,0.7484375,-0.13515625,-0.570625,0.97965625,0.02624931214190917,0.021017220766667517,True
26850,184486,1,184485,3961.0,40260.0,43108.0,-0.00061,-0.0015249999999999999,0.000732,0.35000000000000003,-1.1375000000000002,-3.7800000000000002,0.7835,0.499,-0.05296875,0.99321875,0.7449375,-0.133375,-0.5769062500000001,0.97565625,0.026203338737329527,0.02131828533137689,True
26851,184487,1,184486,3958.0,40258.0,43107.0,0.002928,-0.000305,0.000244,0.43750000000000006,-1.4000000000000001,-3.8325000000000005,0.788875,0.497125,-0.05434375,0.99321875,0.753,-0.13696875,-0.5736875,0.98309375,0.026270645521716558,0.021134139921002902,True
26852,184488,1,184487,3961.0,40258.0,43103.0,0.002623,0.00122,0.000488,0.43750000000000006,-1.5225000000000002,-3.9025000000000003,0.78725,0.5001875,-0.0558125,0.9933125,0.74884375,-0.137375,-0.56896875,0.9808125,0.026413912034759374,0.02088635690091795,True
26853,184489,1,184488,3961.0,40254.0,43102.0,6.1e-05,0.0021349999999999997,0.000549,0.56,-1.5050000000000001,-3.8500000000000005,0.78253125,0.4965,-0.05325,0.99734375,0.74684375,-0.135125,-0.57509375,0.97571875,0.026170363733355434,0.02123465958293648,True
26854,184490,1,184489,3959.0,40257.0,43104.0,0.000244,0.001403,0.000122,0.7175,-1.4000000000000001,-3.7275000000000005,0.78315625,0.49562500000000004,-0.0521875,0.9959687500000001,0.74328125,-0.13509375,-0.577,0.97609375,0.026132848562065353,0.0213538064043618,True
26855,184491,1,184490,3960.0,40257.0,43106.0,-0.001647,0.000488,0.000488,0.49000000000000005,-1.5225000000000002,-3.6400000000000006,0.7866875,0.4965,-0.05371875,0.99259375,0.75628125,-0.13653125,-0.5734375,0.969875,0.026227101294847406,0.021149615311248173,True
26856,184492,1,184491,3961.0,40255.0,43106.0,-0.002562,-0.000732,-6.1e-05,0.43750000000000006,-1.6450000000000002,-3.7100000000000004,0.7834375,0.49462500000000004,-0.0528125,0.99046875,0.74509375,-0.1308125,-0.5748125000000001,0.97621875,0.025918625823312003,0.02124126074207077,True
26857,184493,1,184492,3960.0,40255.0,43105.0,-0.000793,-0.001037,0.000122,0.385,-1.715,-3.7100000000000004,0.7835,0.49490625,-0.0521875,0.9969687500000001,0.7568125,-0.1350625,-0.5761875,0.97603125,0.02610180727727554,0.021321451913564708,True
26858,184494,1,184493,3962.0,40257.0,43105.0,0.001952,-0.000793,-0.0011589999999999999,0.2625,-1.8550000000000002,-3.7625,0.7826875,0.4943125,-0.051750000000000004,0.9980625000000001,0.75496875,-0.13540625,-0.57353125,0.97571875,0.026091077294379497,0.02123346639486338,True
26859,184495,1,184494,3961.0,40257.0,43105.0,0.003355,-0.000976,-0.0017079999999999999,0.10500000000000001,-1.9775000000000003,-3.7625,0.7768125,0.49040625,-0.05309375,1.00765625,0.75709375,-0.1353125,-0.57475,0.97646875,0.025925446376548884,0.021227326829367538,True
26860,184496,1,184495,3960.0,40256.0,43105.0,0.002562,-0.000488,-0.0011589999999999999,0.47250000000000003,-1.5750000000000002,-3.8150000000000004,0.78121875,0.4938125,-0.05609375,0.9885,0.75790625,-0.13528125,-0.57309375,0.98271875,0.026065316723831427,0.021039271866205286,True
26861,184497,1,184496,3959.0,40255.0,43102.0,-0.000488,0.00183,-0.000305,0.6825000000000001,-1.12,-3.7625,0.79825,0.498625,-0.0571875,0.988125,0.74965625,-0.13784375000000001,-0.57240625,0.98165625,0.026368086420312506,0.0209673706660291,True
26862,184498,1,184497,3960.0,40256.0,43104.0,-0.003721,0.003904,0.003294,0.805,-0.8925000000000001,-3.7975000000000003,0.7989375,0.497625,-0.058,0.9878125,0.74934375,-0.1390625,-0.57371875,0.98328125,0.026375817204997085,0.02098659772444901,True
26863,184499,1,184498,3961.0,40255.0,43103.0,-0.004575,0.0042699999999999995,0.0062829999999999995,0.6825000000000001,-0.9275000000000001,-3.6575,0.789375,0.49753125000000004,-0.05359375,0.992125,0.74940625,-0.13621875,-0.57075,0.97709375,0.02625721976438418,0.021047637943489718,True
26864,184500,1,184499,3961.0,40256.0,43105.0,0.001586,-0.003904,-0.0034159999999999998,0.28,-1.3650000000000002,-3.5000000000000004,0.78125,0.4951875,-0.051937500000000004,1.0010000000000001,0.7506875000000001,-0.13615625,-0.57371875,0.97559375,0.026157592926587057,0.021233304381332193,True
26865,184501,1,184500,3960.0,40253.0,43106.0,0.004392,-0.007869,-0.005612,-0.43750000000000006,-2.0650000000000004,-3.5000000000000004,0.78546875,0.49703125000000004,-0.05575,0.9898125,0.75290625,-0.1321875,-0.5738125000000001,0.9809687500000001,0.026073838105227717,0.021081893580819015,True
26866,184502,1,184501,3961.0,40254.0,43106.0,0.0034159999999999998,-0.005856,-0.0028669999999999998,-0.29750000000000004,-1.9600000000000002,-3.5700000000000003,0.79659375,0.498875,-0.05903125,0.98771875,0.74290625,-0.135875,-0.5729062500000001,0.9831562500000001,0.026299025827735686,0.020912259818677333,True
26867,184503,1,184502,3960.0,40255.0,43104.0,-0.000915,-0.001037,0.0006709999999999999,0.15750000000000003,-1.5925000000000002,-3.7275000000000005,0.78165625,0.4975,-0.055875,0.9919687500000001,0.7491875,-0.1378125,-0.572875,0.981375,0.026320218536787458,0.02103945915974423,True
26868,184504,1,184503,3961.0,40255.0,43103.0,-0.000122,0.005063,0.003355,0.7000000000000001,-1.2600000000000002,-3.9025000000000003,0.78165625,0.49325,-0.04965625,1.00815625,0.7525625,-0.13653125,-0.57534375,0.97609375,0.02609245062916818,0.021390850331442467,True
26869,184505,1,184504,3962.0,40256.0,43108.0,-0.0013419999999999999,0.005063,0.001952,0.805,-1.1900000000000002,-3.7450000000000006,0.77746875,0.49378125,-0.05275,0.99165625,0.75646875,-0.13625,-0.57265625,0.9756875,0.026103112538194626,0.021157918163609193,True
26870,184506,1,184505,3961.0,40257.0,43110.0,-0.0040869999999999995,0.001586,-0.002928,0.1925,-1.4700000000000002,-3.6400000000000006,0.78928125,0.49675,-0.05365625,0.99021875,0.7498750000000001,-0.137875,-0.571625,0.9819687500000001,0.02629166817708684,0.021079955029429272,True
26871,184507,1,184506,3961.0,40262.0,43113.0,-0.008052,-0.002257,-0.005063,-0.0175,-1.7850000000000001,-3.5525,0.78759375,0.495375,-0.0535,0.99309375,0.74909375,-0.1401875,-0.57128125,0.98075,0.026327985232094824,0.021072619076386176,True
26872,184508,1,184507,3960.0,40266.0,43119.0,-0.0062829999999999995,-0.003172,-0.004697,-0.07,-2.1525000000000003,-3.3775000000000004,0.78871875,0.4953125,-0.0535625,0.9940625000000001,0.74953125,-0.13915625,-0.57225,0.983625,0.02628379979105525,0.02110866933227523,True
26873,184509,1,184508,3961.0,40267.0,43119.0,0.000488,-0.0030499999999999998,-0.004209,0.052500000000000005,-2.5200000000000005,-3.2900000000000005,0.7883125,0.494,-0.05259375,0.99765625,0.749,-0.13971875,-0.57228125,0.9780625000000001,0.026252118202495626,0.02114933874932756,True
26874,184510,1,184509,3960.0,40266.0,43117.0,0.009028,-0.00183,0.003294,0.47250000000000003,-2.5900000000000003,-3.2025,0.782625,0.49121875000000004,-0.05128125,0.99325,0.75446875,-0.13603125,-0.5743125,0.975375,0.025988116832588212,0.021283657477701563,True
26875,184511,1,184510,3963.0,40264.0,43115.0,0.00732,-0.001281,0.0046359999999999995,0.5075000000000001,-2.3975000000000004,-3.3425000000000002,0.7898437500000001,0.4955,-0.05309375,0.9938125,0.74921875,-0.1400625,-0.57215625,0.981,0.026328121561408555,0.02112401104400433,True
26876,184512,1,184511,3960.0,40262.0,43112.0,0.004148,-0.0017079999999999999,0.002806,0.5425000000000001,-2.1350000000000002,-3.3425000000000002,0.79071875,0.49534375,-0.055343750000000004,0.98959375,0.7391875,-0.139125,-0.5719062500000001,0.98128125,0.026283833817505813,0.02102248375622058,True
26877,184513,1,184512,3962.0,40263.0,43115.0,-0.0011589999999999999,-0.002074,-0.000915,0.56,-1.8200000000000003,-3.4125000000000005,0.78815625,0.495375,-0.055218750000000004,0.99240625,0.74934375,-0.13403125,-0.57165625,0.97521875,0.026079615273556917,0.02101761048362379,True
26878,184514,1,184513,3962.0,40264.0,43116.0,-0.003538,-0.0013419999999999999,-0.001098,0.49000000000000005,-1.4700000000000002,-3.5875000000000004,0.78390625,0.49296875,-0.05171875,0.99890625,0.7495937500000001,-0.1410625,-0.5715625,0.9755625,0.02626360169524436,0.0211563163718221,True
26879,184515,1,184514,3961.0,40269.0,43120.0,-0.004209,0.0023179999999999997,0.000183,0.6825000000000001,-1.2075,-4.077500000000001,0.7825625,0.4955625,-0.05325,0.994,0.75671875,-0.13784375000000001,-0.57446875,0.9781875,0.026241210961521783,0.021209766742159988,True
26880,184516,1,184515,3961.0,40267.0,43120.0,0.0011589999999999999,0.0042699999999999995,0.001647,0.6125,-1.0675000000000001,-4.2875000000000005,0.786625,0.49203125000000003,-0.051187500000000004,0.99384375,0.7495,-0.14165625,-0.5731875,0.9755625,0.02624871688329172,0.021242665405129063,True
26881,184517,1,184516,3960.0,40269.0,43117.0,0.003111,0.0060999999999999995,-0.0017079999999999999,0.525,-1.12,-4.305000000000001,0.7911875,0.494,-0.05353125,0.9957812500000001,0.7508125,-0.14115625,-0.5710937500000001,0.9823125,0.026310100619144947,0.021063877142221236,True
26882,184518,1,184517,3961.0,40265.0,43116.0,0.0011589999999999999,0.0028669999999999998,-0.003355,0.4025,-1.1025,-4.095000000000001,0.7831250000000001,0.4898125,-0.05121875,0.9925625,0.75215625,-0.13903125,-0.5710625,0.9761562500000001,0.026050910804467347,0.021156746884673793,True
26883,184519,1,184518,3960.0,40265.0,43119.0,-0.0008539999999999999,-0.00183,-0.000122,0.15750000000000003,-0.9100000000000001,-3.9375000000000004,0.791,0.498875,-0.051625000000000004,1.0005,0.7495,-0.1414375,-0.57115625,0.97921875,0.02652337914840407,0.02114394799797018,True
26884,184520,1,184519,3960.0,40267.0,43119.0,-0.004575,0.000244,0.0060999999999999995,0.36750000000000005,-0.9100000000000001,-3.7625,0.7821250000000001,0.48912500000000003,-0.046625,0.99403125,0.75528125,-0.1396875,-0.5730000000000001,0.97603125,0.02604890804820899,0.021420868432832786,True
26885,184521,1,184520,3962.0,40265.0,43117.0,-0.0008539999999999999,0.001769,0.00549,0.42000000000000004,-1.3650000000000002,-3.4825000000000004,0.78934375,0.492,-0.051750000000000004,0.98975,0.74953125,-0.1368125,-0.57228125,0.97078125,0.0260520108030006,0.02118367622053813,True
26886,184522,1,184521,3959.0,40262.0,43111.0,0.003965,0.002196,0.002806,0.2625,-1.8375000000000001,-3.3950000000000005,0.78571875,0.4928125,-0.05209375,0.9938125,0.75428125,-0.139625,-0.571625,0.97921875,0.02619914352439195,0.02114354463736118,True
26887,184523,1,184522,3959.0,40260.0,43108.0,0.004514,-0.00042699999999999997,-0.000183,-0.035,-2.0650000000000004,-3.22,0.79009375,0.49290625,-0.05315625,0.9953125,0.74996875,-0.14065625,-0.5711875,0.9824375000000001,0.026244626220548583,0.021082873996220164,True
26888,184524,1,184523,3958.0,40263.0,43111.0,0.0018909999999999999,-0.002928,-0.002562,-0.29750000000000004,-2.1700000000000004,-3.1850000000000005,0.78259375,0.49228125,-0.05109375,0.9976875000000001,0.74940625,-0.13890625,-0.57365625,0.96809375,0.02614813999702244,0.02126515056138624,True
26889,184525,1,184524,3958.0,40260.0,43110.0,-0.0026839999999999998,-0.0044529999999999995,-0.003111,-0.29750000000000004,-2.3800000000000003,-3.1675000000000004,0.78540625,0.49343750000000003,-0.053,0.994,0.75421875,-0.13871875,-0.5710937500000001,0.98040625,0.026188475724296677,0.02108549807637277,True
26890,184526,1,184525,3957.0,40266.0,43112.0,-0.00183,-0.001647,-0.0035989999999999998,-0.052500000000000005,-2.4850000000000003,-3.3775000000000004,0.78290625,0.49243750000000003,-0.051125000000000004,0.996125,0.7490625,-0.13840625,-0.57315625,0.9754375000000001,0.026134440835338914,0.021243964132609136,True
26891,184527,1,184526,3957.0,40262.0,43114.0,0.0008539999999999999,0.000488,-0.000183,0.07,-2.4325,-3.4825000000000004,0.7829375000000001,0.494,-0.050812500000000003,0.993375,0.7566875000000001,-0.134875,-0.5738125000000001,0.9694375000000001,0.02605669182044655,0.02128281885442074,True
26892,184528,1,184527,3958.0,40262.0,43111.0,0.001098,0.0018909999999999999,0.000366,0.14,-2.415,-3.5700000000000003,0.78646875,0.494375,-0.05078125,0.9976875000000001,0.7538125,-0.13990625,-0.57134375,0.9685312500000001,0.026275215961122467,0.02118575627350458,True
26893,184529,1,184528,3956.0,40265.0,43114.0,0.001586,0.000366,-0.001952,0.052500000000000005,-2.5725000000000002,-3.6925000000000003,0.78578125,0.4941875,-0.05459375,0.99434375,0.76515625,-0.13678125,-0.570625,0.98759375,0.026141379145158388,0.021001958639635745,True
26894,184530,1,184529,3956.0,40263.0,43116.0,-0.0017079999999999999,0.000793,-0.000915,0.035,-2.31,-3.7625,0.7834375,0.49146875,-0.05134375,1.0035,0.74534375,-0.14421875,-0.5694375,0.966875,0.026328766591381215,0.0210869194705821,True
26895,184531,1,184530,3955.0,40263.0,43115.0,0.00042699999999999997,0.001647,0.0018909999999999999,0.17500000000000002,-2.0475000000000003,-3.8500000000000005,0.7838125,0.49443750000000003,-0.05246875,0.99446875,0.75934375,-0.13653125,-0.5736875,0.96128125,0.026141649910858673,0.021210441045935825,True
26896,184532,1,184531,3953.0,40264.0,43115.0,0.003538,0.002806,0.001281,0.24500000000000002,-1.9600000000000002,-3.7625,0.7840625,0.493375,-0.05746875,0.982375,0.76003125,-0.13653125,-0.5715625,0.98428125,0.026097629500925076,0.0209223060194076,True
26897,184533,1,184532,3956.0,40264.0,43113.0,0.003294,0.0026839999999999998,-0.000122,0.2625,-1.6975000000000002,-3.6225000000000005,0.8115,0.4995625,-0.052000000000000005,0.981625,0.74559375,-0.14400000000000002,-0.56915625,0.987625,0.026655173127899275,0.021049003259930834,True
26898,184534,1,184533,3955.0,40265.0,43115.0,-0.0034159999999999998,0.002074,-0.000915,0.21000000000000002,-1.61,-3.5525,0.80196875,0.497125,-0.05778125,0.98303125,0.7448125,-0.1434375,-0.56921875,0.98853125,0.0265315367788866,0.020816188955947165,True
26899,184535,1,184534,3955.0,40268.0,43119.0,-0.0046359999999999995,-0.002196,-0.00061,0.10500000000000001,-1.6800000000000002,-3.2375000000000003,0.8044375,0.49734375000000003,-0.05821875,0.9756250000000001,0.74515625,-0.1433125,-0.5695,0.9898125,0.026535557206576358,0.02080959115977126,True
26900,184536,1,184535,3952.0,40268.0,43118.0,0.003172,-0.003355,0.00061,0.0175,-1.8200000000000003,-3.2900000000000005,0.80584375,0.49793750000000003,-0.05721875,0.9920625000000001,0.74003125,-0.14175000000000001,-0.56359375,0.98721875,0.02649714705851896,0.020614858117004968,True
26901,184537,1,184536,3954.0,40265.0,43116.0,0.0071979999999999995,-0.000305,0.0023179999999999997,-0.0175,-1.9600000000000002,-3.3075,0.776375,0.4861875,-0.046125,0.9936875000000001,0.74903125,-0.13665625,-0.5728125000000001,0.97209375,0.025804889606446627,0.021433749189271684,True
26902,184538,1,184537,3952.0,40263.0,43113.0,0.004331,-0.00122,0.002745,0.12250000000000001,-1.9250000000000003,-3.22,0.803,0.49803125000000004,-0.055781250000000004,1.00359375,0.75096875,-0.14015625,-0.568875,0.9803437500000001,0.026436759289824398,0.020883892730131113,True
26903,184539,1,184538,3953.0,40265.0,43114.0,-0.000366,-0.0032329999999999998,-0.000244,0.052500000000000005,-1.9250000000000003,-3.2025,0.7708125,0.48315625,-0.045,0.9854375,0.7537812500000001,-0.13546875,-0.5750625,0.9780625000000001,0.025631364628043527,0.021569121136517964,True
26904,184540,1,184539,3952.0,40265.0,43115.0,-0.0015249999999999999,-0.002196,-0.000488,0.052500000000000005,-1.8200000000000003,-3.4825000000000004,0.80790625,0.49190625,-0.04359375,1.01003125,0.7465,-0.14065625,-0.56984375,0.97575,0.026203202325951684,0.021418532627013553,True
26905,184541,1,184540,3951.0,40266.0,43116.0,0.001647,-0.000549,0.0006709999999999999,0.21000000000000002,-1.6625,-3.6925000000000003,0.76965625,0.48253125,-0.05184375,0.98303125,0.7580625,-0.1364375,-0.57496875,0.98121875,0.025644577829681787,0.02128690397622581,True
26906,184542,1,184541,3948.0,40265.0,43114.0,0.0008539999999999999,0.001464,0.0,0.36750000000000005,-1.6275000000000002,-3.8325000000000005,0.79325,0.49162500000000003,-0.047843750000000004,1.00559375,0.7495937500000001,-0.14109375,-0.57065625,0.97603125,0.026209199821362692,0.02127792170793159,True
26907,184543,1,184542,3949.0,40264.0,43114.0,-0.001586,0.002806,-0.0018909999999999999,0.47250000000000003,-1.5225000000000002,-3.9550000000000005,0.77978125,0.49753125000000004,-0.0486875,0.99134375,0.75003125,-0.1364375,-0.57071875,0.9811875,0.026266044854382508,0.02124607160708313,True
26908,184544,1,184543,3951.0,40266.0,43118.0,-0.0013419999999999999,0.003355,-0.002196,0.525,-1.3825,-4.025,0.7801250000000001,0.492875,-0.0541875,0.99275,0.75084375,-0.13696875,-0.57375,0.980625,0.02609456707358914,0.02114298794445292,True
26909,184545,1,184544,3952.0,40267.0,43118.0,0.000244,0.002806,-0.000122,0.6475000000000001,-1.2075,-4.1825,0.7825625,0.4921875,-0.050812500000000003,0.98465625,0.749375,-0.1394375,-0.57184375,0.97565625,0.02616568840926803,0.021204401887831473,True
26910,184546,1,184545,3951.0,40268.0,43118.0,0.000122,0.00061,0.001647,0.805,-0.9975,-4.1475,0.78378125,0.4943125,-0.05446875,0.98875,0.7541875,-0.1381875,-0.57021875,0.9755,0.026203293018583103,0.020990859106616626,True
26911,184547,1,184546,3950.0,40266.0,43117.0,-0.003965,0.000549,0.002013,0.8750000000000001,-1.0850000000000002,-3.9550000000000005,0.7838437500000001,0.49259375,-0.05134375,0.99809375,0.74934375,-0.14021875,-0.56971875,0.96765625,0.026214033375318937,0.021098125105725927,True
26912,184548,1,184547,3950.0,40267.0,43118.0,-0.0035989999999999998,0.000732,0.001586,0.7000000000000001,-1.1725,-3.8850000000000002,0.7856875,0.49409375,-0.05353125,0.9935,0.75721875,-0.13671875,-0.570125,0.9813125,0.026134973296649943,0.021025279684169288,True
26913,184549,1,184548,3948.0,40267.0,43117.0,0.000366,-0.0011589999999999999,0.0013419999999999999,0.47250000000000003,-1.33,-3.6925000000000003,0.78509375,0.49203125000000003,-0.04646875,0.9919687500000001,0.7486875000000001,-0.1350625,-0.56875,0.97578125,0.025982685978128292,0.021257949631137116,True
26914,184550,1,184549,3947.0,40262.0,43112.0,0.0048189999999999995,-0.000549,0.0006709999999999999,0.22750000000000004,-1.5925000000000002,-3.7625,0.7831250000000001,0.49421875,-0.05334375,0.993625,0.7548125,-0.13734375000000001,-0.5711875,0.97921875,0.026165368755623742,0.02107524310739967,True
26915,184551,1,184550,3948.0,40263.0,43112.0,0.002196,-0.001586,-0.000549,0.17500000000000002,-1.5750000000000002,-3.5525,0.78903125,0.495375,-0.050937500000000004,0.99815625,0.749375,-0.13965625,-0.5675625,0.97928125,0.026306557285793994,0.021028744711649762,True
26916,184552,1,184551,3949.0,40266.0,43114.0,-0.000305,-0.001647,-0.001281,0.07,-1.4175000000000002,-3.4475000000000002,0.78265625,0.49440625,-0.05334375,0.993625,0.7557812500000001,-0.13721875,-0.5716875,0.97903125,0.02616809362097694,0.021095162878007463,True
26917,184553,1,184552,3948.0,40266.0,43115.0,-0.0025009999999999998,-0.001403,-0.0017079999999999999,0.21000000000000002,-1.2950000000000002,-3.535,0.7858125,0.49196875,-0.0500625,0.98209375,0.74915625,-0.13925,-0.56865625,0.9756250000000001,0.026149062211957706,0.021107941139434518,True
26918,184554,1,184553,3947.0,40263.0,43116.0,-0.000488,-0.001647,-0.0017079999999999999,0.35000000000000003,-1.12,-3.6575,0.789875,0.502375,-0.04965625,0.9994375,0.753,-0.1380625,-0.56815625,0.976625,0.026532266208192972,0.02110455480353761,True
26919,184555,1,184554,3947.0,40263.0,43115.0,-0.00122,0.001647,0.002074,0.7000000000000001,-0.665,-3.8150000000000004,0.78315625,0.49396875,-0.05225,0.9929687500000001,0.7569375,-0.13790625,-0.5690625,0.9812500000000001,0.02617770545032256,0.021035092405336995,True
26920,184556,1,184555,3947.0,40265.0,43118.0,-0.004148,0.000549,0.000793,0.8225000000000001,-0.6300000000000001,-3.8675,0.7885,0.494375,-0.050375,0.99946875,0.75040625,-0.14015625,-0.56778125,0.980625,0.026285300038188443,0.021060357251430677,True
26921,184557,1,184556,3948.0,40268.0,43119.0,-0.003355,0.0026839999999999998,0.002257,0.7525000000000001,-0.805,-3.9550000000000005,0.782625,0.49340625,-0.04946875,0.98728125,0.751125,-0.13853125,-0.5660937500000001,0.967,0.026179616872919725,0.0210300019717217,True
26922,184558,1,184557,3947.0,40265.0,43118.0,-0.000732,0.0015249999999999999,0.0006709999999999999,0.7350000000000001,-0.9975,-4.130000000000001,0.79125,0.49403125000000003,-0.0534375,0.99590625,0.7511875,-0.13878125,-0.5690000000000001,0.981625,0.026215594459641577,0.020984268794008713,True
26923,184559,1,184558,3947.0,40262.0,43115.0,0.002745,0.000976,-0.000122,0.5425000000000001,-1.3650000000000002,-4.112500000000001,0.7799375000000001,0.490875,-0.049625,1.00025,0.7485625,-0.1385,-0.5700937500000001,0.9770625000000001,0.026073492553389813,0.02118301848156359,True
26924,184560,1,184559,3946.0,40260.0,43116.0,0.001403,6.1e-05,-0.000366,0.6475000000000001,-1.3650000000000002,-3.8500000000000005,0.7826875,0.4930625,-0.04434375,0.98559375,0.75475,-0.13878125,-0.56940625,0.97565625,0.026175461944666325,0.02137058155404142,True
26925,184561,1,184560,3946.0,40259.0,43114.0,0.000122,0.0,0.002074,0.6475000000000001,-1.3650000000000002,-3.7450000000000006,0.77209375,0.4915625,-0.0425,0.99803125,0.752625,-0.13925,-0.5676875,0.976125,0.026132232774423395,0.02137716461917712,True
26926,184562,1,184561,3948.0,40259.0,43115.0,-0.000305,0.0013419999999999999,0.002013,0.665,-1.2425000000000002,-3.5700000000000003,0.7830625,0.48915625,-0.0494375,0.99571875,0.75621875,-0.1395,-0.56840625,0.9755,0.026042637585699784,0.02112341943222304,True
26927,184563,1,184562,3946.0,40259.0,43114.0,-0.001037,0.0008539999999999999,0.002196,0.5425000000000001,-1.33,-3.6575,0.78253125,0.4894375,-0.04615625,0.99840625,0.7565937500000001,-0.13946875,-0.57134375,0.97590625,0.02605302778256046,0.021373983667458154,True
26928,184564,1,184563,3947.0,40260.0,43117.0,-0.00061,-0.001769,-0.0011589999999999999,0.4025,-1.5750000000000002,-3.5000000000000004,0.78265625,0.48909375,-0.04953125,1.00090625,0.7491875,-0.141125,-0.566875,0.9885,0.026105608168633405,0.021058590073014985,True
26929,184565,1,184564,3945.0,40260.0,43117.0,0.000793,-0.001586,-0.000915,-0.07,-1.7325000000000002,-3.6050000000000004,0.7831250000000001,0.49021875000000004,-0.04965625,0.9939687500000001,0.749,-0.136125,-0.57075,0.967875,0.025950468436834826,0.021207889462063634,True
26930,184566,1,184565,3946.0,40263.0,43120.0,0.000976,-0.000915,-0.0023179999999999997,0.035,-1.9250000000000003,-3.535,0.78259375,0.4960625,-0.0489375,0.99390625,0.76134375,-0.14096875,-0.57128125,0.97159375,0.026387973763480392,0.02125830332921691,True
26931,184567,1,184566,3947.0,40260.0,43121.0,0.0025009999999999998,-0.001281,-0.002379,0.17500000000000002,-1.6800000000000002,-3.5875000000000004,0.7880625,0.49178125,-0.05184375,0.994625,0.763125,-0.1355,-0.57509375,0.97090625,0.025989983634066002,0.02129188215202638,True
26932,184568,1,184567,3945.0,40261.0,43120.0,0.0008539999999999999,0.000549,-0.001037,0.2625,-1.5050000000000001,-3.7100000000000004,0.79034375,0.4923125,-0.051000000000000004,0.99459375,0.757875,-0.1385,-0.57146875,0.96375,0.026133044721088718,0.021181833096566516,True
26933,184569,1,184568,3944.0,40262.0,43122.0,-0.002745,-0.000305,0.003111,0.42000000000000004,-1.2950000000000002,-3.6575,0.7879375000000001,0.49171875000000004,-0.0481875,0.99934375,0.76496875,-0.13453125,-0.57125,0.97240625,0.02594829762852759,0.02128758203184616,True
26934,184570,1,184569,3945.0,40261.0,43123.0,-0.0032329999999999998,0.0006709999999999999,0.000793,0.43750000000000006,-1.4875,-3.6050000000000004,0.7837500000000001,0.4893125,-0.048625,1.0014687500000001,0.75046875,-0.143125,-0.5649375,0.9901875,0.026195345465841725,0.0210182704515328,True
26935,184571,1,184570,3945.0,40260.0,43119.0,-0.00183,0.0006709999999999999,0.001281,0.42000000000000004,-1.5225000000000002,-3.6575,0.7818437500000001,0.48912500000000003,-0.04871875,0.99565625,0.742375,-0.147,-0.56503125,0.99303125,0.0263438522383733,0.021018190237392837,True
26936,184572,1,184571,3946.0,40260.0,43118.0,0.002379,0.000915,0.0011589999999999999,0.385,-1.7675,-3.6750000000000003,0.775,0.4896875,-0.04921875,0.9989375,0.742375,-0.14553125,-0.56475,0.993375,0.02630792188513143,0.02098662717918969,True
26937,184573,1,184572,3945.0,40262.0,43118.0,0.0026839999999999998,0.002013,-0.002257,0.3325,-1.8900000000000001,-3.6225000000000005,0.78340625,0.4909375,-0.04903125,1.0013750000000001,0.74275,-0.14659375,-0.56496875,0.978625,0.026402533483630582,0.021002978072178498,True
26938,184574,1,184573,3945.0,40261.0,43119.0,0.000915,-0.002013,-0.000976,0.10500000000000001,-1.6625,-3.5175000000000005,0.7878437500000001,0.4918125,-0.05234375,0.9979687500000001,0.76046875,-0.13821875,-0.569125,0.9845,0.026100983528455267,0.021033766973793326,True
26939,184575,1,184574,3945.0,40260.0,43122.0,-0.0028669999999999998,-0.001098,-0.000305,0.1925,-1.4875,-3.5000000000000004,0.7834375,0.48984375,-0.04871875,0.99346875,0.7429375,-0.14471875,-0.5658125,0.969875,0.02628162732274527,0.021049324136948454,True
26940,184576,1,184575,3945.0,40263.0,43124.0,-0.003477,-0.001647,0.00244,0.29750000000000004,-1.54,-3.3775000000000004,0.79090625,0.48965625,-0.04215625,0.98975,0.75403125,-0.145,-0.565375,0.96646875,0.026285203975978465,0.02129903370088997,True
26941,184577,1,184576,3944.0,40261.0,43122.0,0.001403,-0.001098,0.001952,0.31500000000000006,-1.5750000000000002,-3.5000000000000004,0.7805625,0.49165625,-0.0503125,0.9986875000000001,0.75353125,-0.14021875,-0.567625,0.9834375000000001,0.026175197770318466,0.021056675197541484,True
26942,184578,1,184577,3945.0,40260.0,43118.0,0.002989,-0.000732,-0.000305,0.31500000000000006,-1.54,-3.5525,0.78340625,0.48821875000000003,-0.0475625,0.99340625,0.7499375,-0.1405625,-0.5700937500000001,0.9750625,0.026046669376490295,0.021266961995210134,True
26943,184579,1,184578,3945.0,40261.0,43120.0,-0.001586,0.000793,-0.001647,0.45500000000000007,-1.4525000000000001,-3.6400000000000006,0.787375,0.49215625,-0.052375,0.9935625,0.7514375,-0.1433125,-0.567375,0.98328125,0.026320694395187073,0.02096276057169315,True
26944,184580,1,184579,3945.0,40262.0,43123.0,-0.0026839999999999998,0.003721,0.001281,0.5775,-1.4700000000000002,-3.7450000000000006,0.7888437500000001,0.4915625,-0.0499375,0.994125,0.74940625,-0.14434375,-0.564375,0.98159375,0.026337690375204337,0.020942421698089207,True
26945,184581,1,184580,3945.0,40263.0,43125.0,-0.00061,0.0028669999999999998,0.001037,0.525,-1.5225000000000002,-3.6225000000000005,0.78146875,0.492,-0.05109375,0.9944375,0.75021875,-0.1434375,-0.5675625,0.9793125,0.02631926377509416,0.021022384699336774,True
26946,184582,1,184581,3945.0,40262.0,43124.0,0.002379,0.00061,0.0017079999999999999,0.35000000000000003,-1.6450000000000002,-3.5000000000000004,0.79021875,0.492375,-0.0506875,0.995,0.7500625,-0.14375000000000002,-0.56678125,0.98259375,0.02634739839502977,0.021007788718760217,True
26947,184583,1,184582,3945.0,40261.0,43126.0,0.0015249999999999999,-0.0021349999999999997,-0.002013,0.10500000000000001,-1.8375000000000001,-3.4825000000000004,0.78321875,0.4911875,-0.04865625,0.9934375,0.74915625,-0.14150000000000001,-0.56946875,0.9756875,0.026207464324917676,0.02119754827828746,True
26948,184584,1,184583,3946.0,40265.0,43126.0,-0.003294,-0.0034159999999999998,-0.002379,0.22750000000000004,-1.8900000000000001,-3.5700000000000003,0.7880625,0.49140625,-0.05096875,0.98921875,0.75690625,-0.14115625,-0.5679062500000001,0.98275,0.026202659617846596,0.021041170327650533,True
26949,184585,1,184584,3946.0,40266.0,43127.0,6.1e-05,0.000549,0.0006709999999999999,0.47250000000000003,-1.8725000000000003,-3.6225000000000005,0.78265625,0.49209375,-0.0479375,0.9943125,0.7513125,-0.14246875,-0.56875,0.97540625,0.02628407668540526,0.021198168404986006,True
26950,184586,1,184585,3947.0,40264.0,43123.0,0.005795,0.003355,0.0032329999999999998,0.56,-1.995,-3.7450000000000006,0.7919375000000001,0.491875,-0.0403125,0.9948750000000001,0.75590625,-0.14115625,-0.5671875000000001,0.981125,0.026222076666274012,0.021446288876168673,True
26951,184587,1,184586,3947.0,40262.0,43121.0,0.00549,0.0035989999999999998,0.00061,0.385,-1.8900000000000001,-3.6750000000000003,0.7948125,0.49446875,-0.054375,0.9866875,0.75096875,-0.14303125,-0.566875,0.9823437500000001,0.026405135022140185,0.020861424173811285,True
26952,184588,1,184587,3948.0,40261.0,43124.0,-0.000488,0.001769,0.000793,0.35000000000000003,-1.6450000000000002,-3.5875000000000004,0.79628125,0.49159375,-0.05265625,0.9858750000000001,0.737,-0.14434375,-0.56734375,0.9823437500000001,0.026338984674205528,0.020950067098727355,True
26953,184589,1,184588,3947.0,40264.0,43130.0,-0.008052,-0.000732,-0.001769,0.12250000000000001,-1.61,-3.6750000000000003,0.77865625,0.48790625,-0.046968750000000004,0.9990625000000001,0.7500625,-0.1428125,-0.5689375,0.97675,0.026124493573397876,0.02124506808648115,True
26954,184590,1,184589,3948.0,40269.0,43135.0,-0.002623,-0.001769,-0.0011589999999999999,0.10500000000000001,-1.6625,-3.5525,0.7910625,0.4910625,-0.05296875,0.98446875,0.757375,-0.14150000000000001,-0.5680625,0.98190625,0.026202286519064682,0.020965989890330182,True
26955,184591,1,184590,3944.0,40267.0,43134.0,0.003904,-0.000366,-0.002013,0.24500000000000002,-1.8550000000000002,-3.5700000000000003,0.7958125,0.49112500000000003,-0.046968750000000004,1.00609375,0.74971875,-0.14303125,-0.5665625,0.9763437500000001,0.026266637500210334,0.021150445855011257,True
26956,184592,1,184591,3948.0,40267.0,43130.0,0.0062829999999999995,-0.000793,-0.001037,0.4025,-1.8375000000000001,-3.6750000000000003,0.7784375,0.49125,-0.05390625,0.99109375,0.75546875,-0.13684375000000001,-0.56634375,0.98040625,0.026022198946372182,0.020859331173365997,True
26957,184593,1,184592,3945.0,40265.0,43130.0,0.004758,-0.000793,0.002013,0.45500000000000007,-1.4175000000000002,-3.5175000000000005,0.79740625,0.48675,-0.047531250000000004,1.00696875,0.7496875000000001,-0.1445,-0.5665625,0.9763437500000001,0.026144670628921698,0.021127548878684184,True
26958,184594,1,184593,3947.0,40263.0,43126.0,-0.000915,0.001281,0.004514,0.6475000000000001,-0.8750000000000001,-3.6400000000000006,0.77928125,0.49471875,-0.0536875,0.98728125,0.74490625,-0.1425625,-0.5673125,0.97984375,0.02639658694059506,0.02090684522370935,True
26959,184595,1,184594,3947.0,40264.0,43129.0,-0.00488,0.00244,0.001769,0.7000000000000001,-1.12,-3.5175000000000005,0.783375,0.4850625,-0.047468750000000004,0.99390625,0.7490625,-0.143125,-0.5669062500000001,0.97678125,0.02601931191591809,0.021143789727288108,True
26960,184596,1,184595,3947.0,40264.0,43131.0,-0.006405,0.0013419999999999999,-0.001281,0.5775,-1.5575,-3.535,0.79521875,0.49112500000000003,-0.049375,1.00134375,0.7494375,-0.1429375,-0.56646875,0.978375,0.026262856373628934,0.021048761841280097,True
26961,184597,1,184596,3946.0,40266.0,43133.0,-0.001586,-0.0008539999999999999,-0.0013419999999999999,0.21000000000000002,-1.8025000000000002,-3.5525,0.7793125,0.48428125,-0.0466875,0.99259375,0.7531875,-0.1428125,-0.5680625,0.97621875,0.02597434536676288,0.02122165718196134,True
26962,184598,1,184597,3944.0,40266.0,43129.0,0.004148,-0.002257,-0.002989,-0.17500000000000002,-2.2225,-3.6575,0.7836875,0.49134375,-0.0503125,0.9933125,0.7524375,-0.14365625,-0.56721875,0.98021875,0.026300904611330358,0.021040487132879055,True
26963,184599,1,184598,3944.0,40263.0,43125.0,0.0026839999999999998,-0.000732,-0.001647,0.14,-1.9425000000000001,-3.6750000000000003,0.78871875,0.49112500000000003,-0.04890625,0.99459375,0.7485937500000001,-0.144125,-0.566875,0.9813437500000001,0.026310748474007658,0.021084030834202558,True
26964,184600,1,184599,3944.0,40262.0,43128.0,-0.0013419999999999999,0.000549,-6.1e-05,0.45500000000000007,-1.5575,-3.6225000000000005,0.78871875,0.49034375,-0.0485,0.99946875,0.7497812500000001,-0.1448125,-0.5665,0.97675,0.026306116479471526,0.02108562473286793,True
26965,184601,1,184600,3945.0,40263.0,43126.0,-0.006161,0.0013419999999999999,0.0021349999999999997,0.5950000000000001,-1.435,-3.7275000000000005,0.78390625,0.490375,-0.05084375,0.99534375,0.759,-0.14209375,-0.56759375,0.988125,0.02619775884185687,0.021033805966447165,True
26966,184602,1,184601,3943.0,40264.0,43127.0,-0.005978,0.0018909999999999999,0.003172,0.5775,-1.5750000000000002,-3.7625,0.78309375,0.48584375,-0.0479375,0.9946875000000001,0.74996875,-0.1438125,-0.5691875,0.9721875,0.026079404402266627,0.021215597788897173,True
26967,184603,1,184602,3943.0,40264.0,43122.0,-0.000305,0.00183,0.003355,0.43750000000000006,-1.8900000000000001,-3.8325000000000005,0.7821875,0.48928125,-0.05084375,0.9963125,0.77615625,-0.14225000000000002,-0.5734375,0.987,0.02615875695098841,0.02126661155973803,True
26968,184604,1,184603,3942.0,40263.0,43121.0,0.0053679999999999995,-0.000305,-0.0021349999999999997,0.07,-2.1700000000000004,-3.7450000000000006,0.77996875,0.488375,-0.048,0.99275,0.7390625000000001,-0.1499375,-0.56121875,0.97084375,0.026431227824088573,0.020895492004035832,True
26969,184605,1,184604,3942.0,40264.0,43125.0,0.002928,-0.00042699999999999997,-0.0025009999999999998,-0.035,-2.1350000000000002,-3.6400000000000006,0.7863125,0.4899375,-0.051312500000000004,0.99434375,0.770375,-0.1388125,-0.56471875,0.9852500000000001,0.026047263095481603,0.020900147696582116,True
26970,184606,1,184605,3942.0,40265.0,43124.0,-0.002623,0.000915,-0.002989,0.052500000000000005,-2.0125,-3.5700000000000003,0.7833125,0.48696875,-0.048125,1.0012812500000001,0.74109375,-0.15203125,-0.5605625,0.9677187500000001,0.02645740200423101,0.020864241199687508,True
26971,184607,1,184606,3941.0,40265.0,43126.0,-0.004331,0.00061,-0.000732,0.15750000000000003,-1.995,-3.4650000000000003,0.78496875,0.48962500000000003,-0.0494375,0.9945625,0.758,-0.1408125,-0.5704375,0.9659375,0.026115007520977184,0.021204343634499793,True
26972,184608,1,184607,3941.0,40268.0,43127.0,0.000915,0.001037,-0.000793,0.15750000000000003,-1.9600000000000002,-3.3425000000000002,0.79071875,0.4899375,-0.05134375,0.99971875,0.76271875,-0.14590625000000002,-0.56484375,0.990625,0.02633339761269056,0.020903857774385394,True
26973,184609,1,184608,3940.0,40261.0,43124.0,6.1e-05,-0.0032329999999999998,0.001037,-0.10500000000000001,-1.9075000000000002,-3.0275000000000003,0.77678125,0.48653125,-0.04775,0.9879687500000001,0.736125,-0.14678125,-0.5573125,0.95740625,0.026227615740710784,0.02074992937439714,True
26974,184610,1,184609,3939.0,40265.0,43125.0,-0.002623,-0.0042699999999999995,-0.000732,-0.07,-1.9775000000000003,-3.2375000000000003,0.78571875,0.49025,-0.047906250000000004,1.0000625,0.7665625,-0.15040625,-0.55790625,0.99953125,0.026527762861131995,0.020767242728601917,True
26975,184611,1,184610,3939.0,40265.0,43125.0,-0.001586,-0.0034159999999999998,0.000244,0.0,-2.0300000000000002,-3.3075,0.7835,0.48725,-0.0475625,0.99540625,0.7425625,-0.1460625,-0.56896875,0.9713437500000001,0.026228396451802444,0.021222146330419345,True
26976,184612,1,184611,3938.0,40266.0,43123.0,0.002013,-0.0013419999999999999,0.000244,0.15750000000000003,-2.0300000000000002,-3.5000000000000004,0.7888125,0.49053125000000003,-0.04934375,0.9814375000000001,0.763,-0.139625,-0.5755,0.9717187500000001,0.02610464122785669,0.021409788203698803,True
26977,184613,1,184612,3938.0,40262.0,43121.0,0.0071979999999999995,0.002013,0.000915,0.4025,-1.7675,-3.8325000000000005,0.78928125,0.48784375,-0.0481875,0.99165625,0.7437812500000001,-0.145875,-0.5601875000000001,0.9793125,0.026245424943183878,0.020846746385792047,True
26978,184614,1,184613,3938.0,40262.0,43118.0,-0.002257,0.003538,-0.000488,0.45500000000000007,-1.3125000000000002,-3.8500000000000005,0.783375,0.48990625,-0.04984375,0.99446875,0.751125,-0.13828125,-0.564875,0.97340625,0.026024533126193485,0.02096616612134196,True
26979,184615,1,184614,3938.0,40266.0,43124.0,-0.00549,0.00061,-0.0032329999999999998,0.31500000000000006,-1.2600000000000002,-3.8150000000000004,0.78840625,0.489375,-0.05090625,0.99375,0.75153125,-0.14300000000000002,-0.5666875,0.9773125,0.02619289234974941,0.020995148409813084,True
26980,184616,1,184615,3938.0,40268.0,43130.0,-0.005795,-0.00042699999999999997,-0.002745,0.385,-1.2600000000000002,-3.7625,0.7871875,0.49046875,-0.049375,0.9941562500000001,0.751125,-0.14175000000000001,-0.56640625,0.97765625,0.026187776362525506,0.0210462712672921,True
26981,184617,1,184616,3936.0,40268.0,43127.0,-0.00366,6.1e-05,6.1e-05,0.4025,-1.2425000000000002,-3.7275000000000005,0.78996875,0.49021875000000004,-0.0490625,0.99946875,0.75015625,-0.1451875,-0.56646875,0.97246875,0.02631606194816255,0.02106148243222787,True
26982,184618,1,184617,3936.0,40269.0,43128.0,-0.0017079999999999999,-0.000488,0.0030499999999999998,0.5775,-1.54,-3.7625,0.7831250000000001,0.4905,-0.04640625,0.9925,0.75396875,-0.1431875,-0.563125,0.97671875,0.026247052092852278,0.02103636039795425,True
26983,184619,1,184618,3937.0,40268.0,43126.0,0.005307,0.0008539999999999999,0.0015249999999999999,0.56,-2.0825,-3.6750000000000003,0.78690625,0.490375,-0.0503125,0.98859375,0.73903125,-0.1451875,-0.56625,0.98440625,0.026322533217023065,0.021001882664224293,True
26984,184620,1,184619,3937.0,40264.0,43122.0,0.008113,0.0013419999999999999,-0.00061,0.42000000000000004,-2.3275,-3.7275000000000005,0.78409375,0.49040625,-0.04803125,0.9939375,0.7495937500000001,-0.14203125,-0.56925,0.9766875,0.02619653224084034,0.021214271904921804,True
26985,184621,1,184620,3936.0,40262.0,43120.0,0.0051849999999999995,0.000122,-0.000305,0.24500000000000002,-2.2750000000000004,-3.6400000000000006,0.7884375,0.4905625,-0.05075,0.99403125,0.7503125,-0.145625,-0.56234375,0.982125,0.02634794087955893,0.020828376770844603,True
26986,184622,1,184621,3935.0,40261.0,43123.0,-0.000976,-0.002257,-0.0023179999999999997,0.24500000000000002,-1.9600000000000002,-3.5175000000000005,0.7831875,0.4935625,-0.04665625,0.99246875,0.7491875,-0.14309375,-0.5685,0.97690625,0.02637011878396902,0.021240358589250465,True
26987,184623,1,184622,3937.0,40266.0,43125.0,-0.004697,-0.001769,-0.000549,0.35000000000000003,-1.61,-3.3950000000000005,0.78796875,0.49071875000000004,-0.048,1.01103125,0.74071875,-0.14300000000000002,-0.558625,0.9765625,0.026248550304436073,0.02079208424738763,True
26988,184624,1,184623,3935.0,40265.0,43126.0,6.1e-05,-0.00183,0.001281,0.45500000000000007,-1.2950000000000002,-3.5175000000000005,0.78396875,0.48865625,-0.047406250000000004,0.9802500000000001,0.75634375,-0.1421875,-0.5665625,0.9815,0.02613034755032037,0.021132637095645758,True
26989,184625,1,184624,3934.0,40266.0,43127.0,-0.001037,-0.000488,-0.000549,0.42000000000000004,-1.1375000000000002,-3.6925000000000003,0.8000625,0.49278125,-0.040875,0.9888125,0.7495,-0.14525,-0.56928125,0.9764375000000001,0.026424710864455744,0.02150678502245563,True
26990,184626,1,184625,3935.0,40267.0,43128.0,-0.002074,0.000732,-0.000549,0.385,-1.225,-3.9200000000000004,0.79234375,0.48812500000000003,-0.0453125,0.9963125,0.748375,-0.14075000000000001,-0.56715625,0.976375,0.026050350548346677,0.02124152037336434,True
26991,184627,1,184626,3934.0,40265.0,43127.0,-0.001586,0.001098,-0.001586,0.5425000000000001,-1.3125000000000002,-4.165,0.7965,0.49221875,-0.0490625,1.00246875,0.7504375,-0.146125,-0.5665,0.97628125,0.02643669532896065,0.02106272769828832,True
26992,184628,1,184627,3933.0,40267.0,43127.0,0.000793,0.001098,-0.002562,0.47250000000000003,-1.4175000000000002,-4.305000000000001,0.78471875,0.491,-0.047875,1.00878125,0.7543125,-0.14525,-0.5580625,0.9761562500000001,0.02635093859040598,0.020774745564720348,True
26993,184629,1,184628,3933.0,40266.0,43127.0,0.0015249999999999999,0.002379,6.1e-05,0.7875000000000001,-1.5225000000000002,-4.130000000000001,0.7681875,0.49003125000000003,-0.051250000000000004,0.9878750000000001,0.7561875,-0.1433125,-0.56571875,0.984,0.026232678303774598,0.0209425482411338,True
26994,184630,1,184629,3933.0,40264.0,43127.0,0.001403,0.0018909999999999999,0.002928,0.8400000000000001,-1.5050000000000001,-3.9725000000000006,0.795125,0.48840625,-0.04865625,1.00809375,0.7496875000000001,-0.1450625,-0.56646875,0.9760625,0.026235954038222098,0.02107801920045998,True
26995,184631,1,184630,3933.0,40263.0,43126.0,0.001098,0.000976,0.002196,0.805,-1.3475000000000001,-3.7450000000000006,0.7765,0.48462500000000003,-0.050937500000000004,0.9889375,0.75634375,-0.1441875,-0.5661875000000001,0.98340625,0.02604405304589355,0.020973950475628344,True
26996,184632,1,184631,3934.0,40264.0,43127.0,-0.001769,0.0006709999999999999,0.001769,0.7175,-1.435,-3.5525,0.78696875,0.48762500000000003,-0.046375,1.00671875,0.74965625,-0.13915625,-0.5685,0.9768125,0.025965333813189932,0.02125180617457313,True
26997,184633,1,184632,3933.0,40264.0,43126.0,-0.0040869999999999995,-0.002928,0.00061,0.42000000000000004,-1.54,-3.3950000000000005,0.7780312500000001,0.48875,-0.04975,0.99403125,0.7558125,-0.1451875,-0.5653125,0.9839687500000001,0.02625523202087373,0.020987418743400883,True
26998,184634,1,184633,3932.0,40264.0,43126.0,-0.001098,-0.000915,-0.0017079999999999999,0.35000000000000003,-1.5575,-3.5875000000000004,0.77678125,0.4846875,-0.044375,0.9924375,0.755875,-0.141625,-0.56334375,0.96990625,0.025943261897241797,0.02112777296454193,True
26999,184635,1,184634,3933.0,40264.0,43127.0,0.004575,-0.00061,0.00061,0.4025,-1.7325000000000002,-3.7275000000000005,0.78828125,0.4888125,-0.04775,0.9994375,0.74990625,-0.1389375,-0.5655,0.98065625,0.026005701369416115,0.021076306201787062,True
27000,184636,1,184635,3932.0,40261.0,43124.0,0.009271999999999999,0.001952,0.000183,0.36750000000000005,-1.6625,-3.9550000000000005,0.78246875,0.4855625,-0.046875,0.99403125,0.7565937500000001,-0.14490625000000001,-0.5671875000000001,0.97746875,0.026111874010693252,0.021179164281625647,True
27001,184637,1,184636,3931.0,40262.0,43125.0,0.005246,0.0017079999999999999,-0.002013,0.29750000000000004,-1.5050000000000001,-4.077500000000001,0.78421875,0.4886875,-0.047531250000000004,1.00021875,0.75046875,-0.14753125,-0.56071875,0.97596875,0.026347155053376318,0.02089464503150992,True
27002,184638,1,184637,3933.0,40263.0,43129.0,-0.009028,-0.001403,-0.000122,0.43750000000000006,-0.77,-3.6575,0.7821250000000001,0.48725,-0.04803125,0.9948125,0.75546875,-0.1453125,-0.5664375,0.9781875,0.026198149226687378,0.02110221516652547,True
27003,184639,1,184638,3932.0,40269.0,43133.0,-0.009455,-0.0008539999999999999,0.00183,0.42000000000000004,-0.9975,-3.7450000000000006,0.7903125,0.48771875000000003,-0.04809375,0.991125,0.7491875,-0.13996875,-0.5654375,0.9813125,0.026002001348903986,0.021059822362211135,True
27004,184640,1,184639,3934.0,40266.0,43132.0,-0.002623,-0.001281,0.002074,0.36750000000000005,-1.2600000000000002,-3.7450000000000006,0.7843125,0.48575,-0.04178125,0.99446875,0.75034375,-0.1453125,-0.56684375,0.97596875,0.02613602536724261,0.021372810660710128,True
27005,184641,1,184640,3931.0,40264.0,43131.0,0.006161,-0.00042699999999999997,0.000732,0.36750000000000005,-1.5575,-3.7975000000000003,0.786875,0.48762500000000003,-0.047406250000000004,0.99425,0.75678125,-0.14421875,-0.56578125,0.98359375,0.026169566990027374,0.021101506796165907,True
27006,184642,1,184641,3933.0,40263.0,43131.0,0.006039,-0.000549,-0.00244,0.35000000000000003,-1.6275000000000002,-3.7800000000000002,0.788875,0.487375,-0.048,1.00234375,0.7504375,-0.1481875,-0.56575,0.98065625,0.026319263091691667,0.021076091713055776,True
27007,184643,1,184642,3932.0,40266.0,43136.0,-0.0066489999999999995,0.00122,-0.000549,0.56,-1.5575,-3.9025000000000003,0.78346875,0.48284375,-0.04590625,0.99484375,0.74771875,-0.14400000000000002,-0.56771875,0.97740625,0.025962713303512262,0.021239762035292757,True
27008,184644,1,184643,3933.0,40267.0,43135.0,-0.002196,0.004026,0.0017079999999999999,0.665,-1.8200000000000003,-3.9550000000000005,0.790125,0.48662500000000003,-0.048,0.9895,0.75021875,-0.14825,-0.56540625,0.98146875,0.026290725000776456,0.021062393380935844,True
27009,184645,1,184644,3932.0,40266.0,43135.0,0.00183,0.00366,0.00061,0.6825000000000001,-2.205,-3.9200000000000004,0.78496875,0.48340625000000004,-0.046906250000000003,1.001875,0.74903125,-0.14953125,-0.5575,0.97678125,0.026209100849524773,0.020791764226814616,True
27010,184646,1,184645,3932.0,40265.0,43136.0,0.0025009999999999998,0.0032329999999999998,-0.001769,0.525,-2.5900000000000003,-3.9550000000000005,0.784,0.489875,-0.047906250000000004,0.9881562500000001,0.7564375,-0.146625,-0.56546875,0.98275,0.026359791482246486,0.021068700347922322,True
