frame_seq,absolute_seq_u64,segment_id,sample_seq,PPG_G,PPG_R,PPG_IR,ACC_X,ACC_Y,ACC_Z,GYRO_X,GYRO_Y,GYRO_Z,Uh1,Uh2,Uh3,Uh4,Uc1,Uc2,Uc3,Uc4,UD1,UD2,parser_valid
29992,5086,0,5087,3864.0,40516.0,45442.0,-0.0030499999999999998,-0.000915,0.0006709999999999999,0.31500000000000006,-1.3825,-3.8325000000000005,0.58084375,-0.24834375,-0.27328125000000003,0.7378125,0.52025,-0.69228125,-0.9959687500000001,0.6381875,0.017978796511561684,0.02891216208613639,True
29993,5087,0,5088,3865.0,40516.0,45444.0,-0.0011589999999999999,-0.000915,-0.00061,0.31500000000000006,-1.5225000000000002,-3.8850000000000002,0.57259375,-0.25165625,-0.27290625,0.7388750000000001,0.5566875,-0.68740625,-0.996,0.62696875,0.017650699939366857,0.028928378540566492,True
29994,5088,0,5089,3864.0,40516.0,45443.0,0.001281,-0.0015249999999999999,-0.000244,0.385,-1.7500000000000002,-3.8675,0.57328125,-0.24965625,-0.27228125000000003,0.73828125,0.55203125,-0.6854375,-0.99309375,0.64165625,0.017653373572982047,0.028840467179058214,True
29995,5089,0,5090,3866.0,40515.0,45442.0,0.002257,0.0,-0.001098,0.385,-1.7675,-3.7625,0.5731875,-0.2485,-0.274625,0.727375,0.5243125,-0.6945625,-0.98565625,0.662,0.01806318698701384,0.02845757753511077,True
29996,5090,0,5091,3864.0,40517.0,45448.0,0.002928,0.00042699999999999997,-0.001647,0.35000000000000003,-1.7675,-3.7975000000000003,0.58034375,-0.24603125,-0.2674375,0.7348750000000001,0.5155625,-0.692875,-0.9935625,0.6351875,0.01809606009830771,0.02905248101386107,True
29997,5091,0,5092,3866.0,40516.0,45447.0,0.000976,0.001037,-0.000488,0.31500000000000006,-1.5575,-3.7975000000000003,0.5729375,-0.2506875,-0.27346875,0.73753125,0.54865625,-0.68621875,-0.997625,0.6315000000000001,0.017642687785062262,0.02896900205519525,True
29998,5092,0,5093,3866.0,40516.0,45449.0,-0.001647,-0.00042699999999999997,0.000183,0.35000000000000003,-1.54,-3.8850000000000002,0.57278125,-0.24909375,-0.274875,0.73171875,0.53321875,-0.6944375,-0.985125,0.658625,0.018034172675526625,0.028426914013838237,True
29999,5093,0,5094,3866.0,40518.0,45449.0,-0.001281,-0.0017079999999999999,0.000366,0.2625,-1.5925000000000002,-3.8675,0.58103125,-0.24215625000000002,-0.2763125,0.73275,0.5130625,-0.69771875,-0.9841562500000001,0.662125,0.01844552950867173,0.028331705218182027,True
30000,5094,0,5095,3869.0,40517.0,45449.0,0.000183,-0.000488,-6.1e-05,0.3325,-1.6450000000000002,-3.9550000000000005,0.57821875,-0.24778125,-0.2724375,0.72621875,0.5151875,-0.69825,-0.98571875,0.65646875,0.01823889344386748,0.028547557792388902,True
30001,5095,0,5096,3866.0,40517.0,45449.0,0.0,-0.000183,0.00183,0.28,-1.3825,-3.9025000000000003,0.5724375,-0.2515625,-0.27234375,0.738375,0.52009375,-0.6958125000000001,-0.99240625,0.63084375,0.017988879693672764,0.028811251417618106,True
30002,5096,0,5097,3867.0,40517.0,45451.0,-0.0018909999999999999,0.000488,0.001098,0.28,-1.2075,-3.8500000000000005,0.5735625,-0.247875,-0.26890625,0.7320625000000001,0.55009375,-0.687,-0.9921875,0.6645625000000001,0.01778770202940819,0.02894029384182557,True
30003,5097,0,5098,3870.0,40518.0,45450.0,-0.002806,0.001037,0.000915,0.29750000000000004,-1.1725,-3.8850000000000002,0.5725,-0.2436875,-0.26703125,0.73365625,0.5142187500000001,-0.6973125,-0.98765625,0.64265625,0.018367383090771516,0.028839239374441134,True
30004,5098,0,5099,3867.0,40519.0,45451.0,-0.00244,-0.0006709999999999999,0.000366,0.2625,-1.4000000000000001,-3.7800000000000002,0.5735,-0.250375,-0.2730625,0.7338125,0.5349375000000001,-0.6866875,-0.9934375,0.632,0.01767399939744852,0.028822565923554935,True
30005,5099,0,5100,3868.0,40520.0,45453.0,-0.00183,-0.001098,-0.0008539999999999999,0.24500000000000002,-1.5225000000000002,-3.7800000000000002,0.57934375,-0.248125,-0.27578125000000003,0.73271875,0.5449375,-0.6900937500000001,-0.99040625,0.65778125,0.017900650944267883,0.028595973704909263,True
30006,5100,0,5101,3868.0,40518.0,45452.0,0.001769,0.000976,-0.000915,0.29750000000000004,-1.9250000000000003,-3.9550000000000005,0.57378125,-0.24996875000000002,-0.27365625,0.73165625,0.51746875,-0.687,-0.99103125,0.63496875,0.017702890185117674,0.028705298025666712,True
30007,5101,0,5102,3871.0,40521.0,45453.0,0.004148,0.001037,-0.000976,0.28,-2.2225,-3.9200000000000004,0.5698125,-0.24815625,-0.2758125,0.72384375,0.5250312500000001,-0.68975,-0.99028125,0.64084375,0.01788571168197329,0.028589864309750416,True
30008,5102,0,5103,3869.0,40521.0,45453.0,0.003721,-0.000244,0.00042699999999999997,0.29750000000000004,-1.995,-3.8850000000000002,0.57878125,-0.24815625,-0.27315625,0.73175,0.5275,-0.6908125,-0.9843125,0.64509375,0.01792797422118045,0.028464111229796696,True
30009,5103,0,5104,3870.0,40519.0,45454.0,0.002196,-0.001769,0.000793,0.3325,-1.8725000000000003,-3.8325000000000005,0.5739062500000001,-0.250125,-0.26903125,0.731,0.5269375000000001,-0.69371875,-0.9897812500000001,0.6481875,0.017963829364501856,0.028841789081286977,True
30010,5104,0,5105,3871.0,40518.0,45454.0,-0.001037,-0.002562,-0.000244,0.15750000000000003,-1.5225000000000002,-3.7975000000000003,0.57321875,-0.2515625,-0.2716875,0.7371562500000001,0.52759375,-0.6928125,-0.9886875,0.64353125,0.017869572370502552,0.02869298357506772,True
30011,5105,0,5106,3871.0,40519.0,45457.0,-0.006588,-0.000122,0.001952,0.45500000000000007,-0.9975,-3.7275000000000005,0.57271875,-0.24971875000000002,-0.2721875,0.73703125,0.5271250000000001,-0.69415625,-0.9909687500000001,0.64853125,0.01799767910677248,0.02876164014250148,True
30012,5106,0,5107,3872.0,40519.0,45455.0,-0.002257,0.0034159999999999998,0.002806,0.49000000000000005,-1.435,-3.7100000000000004,0.57240625,-0.24921875000000002,-0.2721875,0.73521875,0.5275,-0.69478125,-0.990375,0.6496875,0.01804277978773349,0.0287385643472737,True
30013,5107,0,5108,3872.0,40519.0,45459.0,0.005063,0.006222,0.00042699999999999997,0.6475000000000001,-1.995,-3.7450000000000006,0.56425,-0.2503125,-0.272125,0.73684375,0.52096875,-0.692375,-0.9889375,0.6489375000000001,0.01790279387867712,0.028685193197990115,True
30014,5108,0,5109,3872.0,40519.0,45460.0,0.008479,0.006161,-0.003477,0.6475000000000001,-2.4850000000000003,-4.095000000000001,0.57221875,-0.25090625,-0.27153125,0.728125,0.51625,-0.6862812500000001,-0.98865625,0.64746875,0.017636313691435403,0.028698021727358792,True
30015,5109,0,5110,3873.0,40520.0,45459.0,0.008235,0.0040869999999999995,-0.0055509999999999995,0.36750000000000005,-2.5725000000000002,-4.1475,0.5619375,-0.24896875000000002,-0.272,0.7256875,0.5273125,-0.69453125,-0.9900625000000001,0.64784375,0.01804296244740422,0.028733921733889223,True
30016,5110,0,5111,3874.0,40518.0,45459.0,0.002623,-0.0030499999999999998,-0.002745,-0.08750000000000001,-1.6975000000000002,-3.99,0.573125,-0.2479375,-0.27184375,0.73775,0.52684375,-0.69253125,-0.98971875,0.6424062500000001,0.018005191347079896,0.028726813902217287,True
30017,5111,0,5112,3875.0,40520.0,45459.0,-0.002623,-0.0044529999999999995,0.000549,0.0,-0.9800000000000001,-4.0075,0.56271875,-0.2516875,-0.272875,0.7398750000000001,0.5271875,-0.68971875,-0.9905,0.64909375,0.01774144349052174,0.0287159120465777,True
30018,5112,0,5113,3875.0,40519.0,45461.0,-0.007625,-0.005063,0.004148,0.035,-0.47250000000000003,-3.9200000000000004,0.57309375,-0.24625,-0.27421875,0.73140625,0.5270312500000001,-0.69325,-0.98984375,0.64146875,0.018102112925597078,0.02863663363241317,True
30019,5113,0,5114,3876.0,40521.0,45461.0,-0.010187,-0.005612,0.005978,0.10500000000000001,-0.15750000000000003,-3.6925000000000003,0.58846875,-0.247,-0.27996875,0.73059375,0.53234375,-0.690625,-0.99428125,0.64296875,0.017967345905581574,0.02857903745481779,True
30020,5114,0,5115,3875.0,40522.0,45464.0,-0.008296,-0.004331,0.005307,0.24500000000000002,-0.29750000000000004,-3.6050000000000004,0.5884375000000001,-0.24609375,-0.275875,0.7222500000000001,0.53296875,-0.6910000000000001,-0.9920625000000001,0.64334375,0.0180189643999838,0.028656598470014234,True
30021,5115,0,5116,3877.0,40521.0,45468.0,-0.0040869999999999995,0.001647,-0.000244,0.36750000000000005,-1.4175000000000002,-3.9375000000000004,0.57778125,-0.23928125,-0.266125,0.7461875,0.528125,-0.691875,-0.9900625000000001,0.636875,0.018329663097678892,0.02896901518353546,True
30022,5116,0,5117,3876.0,40523.0,45465.0,0.0017079999999999999,0.00244,-0.002196,0.3325,-2.0825,-3.8675,0.5665,-0.2550625,-0.27021875,0.7366875,0.5206875,-0.6885,-0.99059375,0.649625,0.017556250886040056,0.028825845724453826,True
30023,5117,0,5118,3876.0,40523.0,45466.0,0.007076,0.003904,-0.0040869999999999995,0.5075000000000001,-2.5725000000000002,-3.8675,0.5665,-0.2535,-0.26996875,0.73459375,0.5270625,-0.6939062500000001,-0.98628125,0.64928125,0.017834612537252992,0.028668231692141062,True
30024,5118,0,5119,3878.0,40523.0,45467.0,0.009271999999999999,0.004026,-0.003843,0.525,-2.8175000000000003,-3.8850000000000002,0.57315625,-0.2451875,-0.27759375000000003,0.7265,0.5196875,-0.69071875,-0.99040625,0.6426875,0.018044482807937703,0.02852344587235352,True
30025,5119,0,5120,3879.0,40520.0,45465.0,0.010126,0.001769,-0.00366,0.5425000000000001,-2.5900000000000003,-3.99,0.58846875,-0.245625,-0.27137500000000003,0.73828125,0.535375,-0.6856875,-0.9919375,0.6475625,0.01782662524590413,0.02883179825493722,True
30026,5120,0,5121,3878.0,40521.0,45466.0,0.003294,-0.001281,-0.0013419999999999999,0.2625,-1.8725000000000003,-3.9200000000000004,0.57371875,-0.24534375,-0.27590625,0.7251562500000001,0.52734375,-0.6865625,-0.9917812500000001,0.64440625,0.017872830613820778,0.02864441685204011,True
30027,5121,0,5122,3878.0,40521.0,45464.0,-0.00042699999999999997,-0.0011589999999999999,-0.000244,0.31500000000000006,-1.4175000000000002,-3.9375000000000004,0.58775,-0.24615625,-0.2769375,0.73053125,0.5295,-0.69171875,-0.9930625000000001,0.64234375,0.01804501762357066,0.028652951193956326,True
30028,5122,0,5123,3880.0,40520.0,45464.0,-0.0050019999999999995,-0.0013419999999999999,0.001769,0.36750000000000005,-1.0675000000000001,-3.7800000000000002,0.566625,-0.25440625,-0.27053125,0.7415625,0.53028125,-0.6940937500000001,-0.99040625,0.6470312500000001,0.01780537097053825,0.028806054323346587,True
30029,5123,0,5124,3880.0,40520.0,45467.0,-0.007137,0.0,0.0040869999999999995,0.42000000000000004,-0.8400000000000001,-3.8150000000000004,0.57440625,-0.24234375,-0.2785625,0.72921875,0.5275,-0.69078125,-0.99428125,0.641875,0.01816214300630929,0.02863530032494933,True
30030,5124,0,5125,3881.0,40521.0,45466.0,-0.006893,0.000122,0.005063,0.47250000000000003,-0.8750000000000001,-3.7450000000000006,0.5670000000000001,-0.25434375,-0.27153125,0.7405625,0.5334375,-0.6940625,-0.9902500000000001,0.64709375,0.017806658989382572,0.028759966386890892,True
30031,5125,0,5126,3882.0,40523.0,45470.0,-0.002745,0.002745,0.00183,0.6125,-1.3650000000000002,-3.7275000000000005,0.573125,-0.24553125,-0.27528125000000003,0.7263437500000001,0.527,-0.69059375,-0.99275,0.64190625,0.018025589198315654,0.02870707505176501,True
30032,5126,0,5127,3882.0,40523.0,45472.0,-0.000183,0.0032329999999999998,-0.001037,0.525,-1.6450000000000002,-3.6750000000000003,0.58290625,-0.24621875000000001,-0.2745,0.7328125,0.536625,-0.6908125,-0.99228125,0.6412187500000001,0.0180064447048877,0.02872011733622756,True
30033,5127,0,5128,3882.0,40523.0,45471.0,0.003843,0.0011589999999999999,-0.0032329999999999998,0.43750000000000006,-1.9600000000000002,-3.7625,0.57434375,-0.25053125,-0.26253125,0.736375,0.5223125,-0.69278125,-0.98721875,0.64778125,0.017910092651065787,0.029002327439903653,True
30034,5128,0,5129,3883.0,40524.0,45473.0,0.00366,-0.000976,-0.002745,0.3325,-2.0475000000000003,-4.025,0.57153125,-0.2496875,-0.27290625,0.7320625000000001,0.5275,-0.69059375,-0.99075,0.642875,0.01785725586287288,0.028724378019867353,True
30035,5129,0,5130,3882.0,40522.0,45474.0,0.0032329999999999998,-0.004758,-0.0028669999999999998,0.14,-1.9250000000000003,-4.077500000000001,0.57384375,-0.248125,-0.2719375,0.74040625,0.53090625,-0.691125,-0.9898125,0.64675,0.017941669324504247,0.028726706132749098,True
30036,5130,0,5131,3883.0,40523.0,45475.0,0.0013419999999999999,-0.005124,0.00042699999999999997,0.08750000000000001,-1.715,-3.8325000000000005,0.5733125,-0.24746875000000002,-0.27546875,0.73228125,0.52715625,-0.68575,-0.99265625,0.6414375,0.01775442309834621,0.02869592942926985,True
30037,5131,0,5132,3884.0,40522.0,45472.0,0.0011589999999999999,-0.000793,0.0008539999999999999,0.28,-1.6625,-3.9025000000000003,0.57384375,-0.24940625,-0.2719375,0.7387812500000001,0.5265625,-0.6949375,-0.99003125,0.644875,0.018041400185766818,0.028735208164255493,True
30038,5132,0,5133,3885.0,40525.0,45477.0,0.001647,0.001952,0.0008539999999999999,0.45500000000000007,-1.5575,-3.9200000000000004,0.57225,-0.24709375,-0.2735625,0.7349375,0.52790625,-0.6901875000000001,-0.98884375,0.6452187500000001,0.017946147634561302,0.0286240234704737,True
30039,5133,0,5134,3884.0,40524.0,45475.0,0.000366,0.0023179999999999997,0.0040869999999999995,0.42000000000000004,-1.2600000000000002,-3.8500000000000005,0.57340625,-0.2456875,-0.2734375,0.7321875,0.5271875,-0.6923125,-0.98284375,0.64184375,0.018087613300698344,0.028395736574224062,True
30040,5134,0,5135,3887.0,40524.0,45477.0,-0.000244,0.00183,0.000915,0.4025,-1.1725,-3.7800000000000002,0.58046875,-0.2479375,-0.27290625,0.7368750000000001,0.53359375,-0.69075,-0.9898125,0.6359375,0.017934347883316624,0.028687940335686793,True
30041,5135,0,5136,3887.0,40525.0,45480.0,-0.004148,0.0068319999999999995,-0.003294,0.7000000000000001,-1.225,-3.8150000000000004,0.576625,-0.2476875,-0.27415625,0.73928125,0.5294375,-0.69075,-0.99321875,0.648,0.01794447313265089,0.028770303944945067,True
30042,5136,0,5137,3886.0,40524.0,45479.0,-0.0044529999999999995,0.007259,-0.0035989999999999998,0.6825000000000001,-1.2425000000000002,-3.7275000000000005,0.5729375,-0.2481875,-0.27565625,0.73184375,0.52728125,-0.6910937500000001,-0.99309375,0.63925,0.01793789511653367,0.028705429875002967,True
30043,5137,0,5138,3886.0,40524.0,45482.0,-0.003965,0.003172,-0.00183,0.56,-1.4700000000000002,-3.6750000000000003,0.57315625,-0.24684375,-0.27278125000000003,0.7310625000000001,0.51534375,-0.6918125,-0.992,0.64146875,0.018020902677760086,0.028777958946862997,True
30044,5138,0,5139,3889.0,40524.0,45480.0,-0.001037,-0.003477,0.003172,0.24500000000000002,-1.5925000000000002,-3.6225000000000005,0.57453125,-0.24915625,-0.2733125,0.73165625,0.5291875,-0.694125,-0.9904375,0.64146875,0.018019215096708226,0.02869597621090067,True
30045,5139,0,5140,3889.0,40525.0,45478.0,0.003294,-0.00671,0.0057339999999999995,0.035,-1.7675,-3.7450000000000006,0.5790625,-0.2480625,-0.272625,0.7380625000000001,0.53525,-0.6910000000000001,-0.9911562500000001,0.647875,0.017939228868818602,0.028751420815113348,True
30046,5140,0,5141,3889.0,40521.0,45475.0,0.003538,-0.0051849999999999995,0.001952,0.15750000000000003,-1.9075000000000002,-3.7800000000000002,0.57375,-0.24681250000000002,-0.26915625,0.7325,0.5283125,-0.69084375,-0.993125,0.6444375,0.017983640190505842,0.02896671584685789,True
30047,5141,0,5142,3888.0,40521.0,45473.0,0.0008539999999999999,-0.0026839999999999998,-0.002196,0.21000000000000002,-1.5925000000000002,-3.7625,0.5603125,-0.2510625,-0.272625,0.73740625,0.52753125,-0.692375,-0.98609375,0.6475,0.017872420129695907,0.02855463351489266,True
30048,5142,0,5143,3888.0,40520.0,45468.0,-0.0013419999999999999,0.000183,-0.005429,0.28,-1.4700000000000002,-3.7975000000000003,0.57371875,-0.2475,-0.2735625,0.73253125,0.52190625,-0.690875,-0.9917812500000001,0.64103125,0.017957038784571226,0.028738197682488125,True
30049,5143,0,5144,3887.0,40521.0,45467.0,-0.0025009999999999998,0.0015249999999999999,-0.0046359999999999995,0.29750000000000004,-1.5050000000000001,-3.9725000000000006,0.5810625,-0.2476875,-0.2694375,0.738125,0.5357500000000001,-0.69075,-0.9896875,0.64759375,0.01794447313265089,0.02882188902922456,True
30050,5144,0,5145,3888.0,40519.0,45464.0,0.000122,0.0026839999999999998,-0.000122,0.29750000000000004,-1.54,-4.025,0.571875,-0.2511875,-0.27446875,0.73209375,0.5268125,-0.69165625,-0.99140625,0.641875,0.017838768916119182,0.028687361280440152,True
30051,5145,0,5146,3887.0,40520.0,45464.0,0.00042699999999999997,0.002379,0.004026,0.36750000000000005,-1.435,-3.9375000000000004,0.57865625,-0.24665625,-0.27296875,0.7385625,0.5323125,-0.68396875,-0.9878125,0.64678125,0.017716458176929108,0.02860769625192281,True
30052,5146,0,5147,3886.0,40517.0,45462.0,0.001403,0.000915,0.004697,0.31500000000000006,-1.33,-3.9725000000000006,0.5734375,-0.24771875000000002,-0.2749375,0.7325625,0.52690625,-0.69084375,-0.992375,0.642,0.017946936301032647,0.02870625540789941,True
30053,5147,0,5148,3886.0,40521.0,45462.0,-0.001281,0.001403,0.0030499999999999998,0.29750000000000004,-1.2950000000000002,-4.0425,0.57321875,-0.24884375,-0.2715,0.73309375,0.5270625,-0.69215625,-0.99146875,0.6415,0.0179535758445559,0.028808580928241765,True
30054,5148,0,5149,3884.0,40518.0,45460.0,-0.002257,0.000549,0.002623,0.3325,-1.4000000000000001,-3.9375000000000004,0.57915625,-0.246875,-0.2694375,0.7311562500000001,0.53371875,-0.68978125,-0.989375,0.6423125000000001,0.01793884868866548,0.028809744141260037,True
30055,5149,0,5150,3883.0,40519.0,45459.0,-0.0006709999999999999,-6.1e-05,-0.0035989999999999998,0.22750000000000004,-1.8550000000000002,-3.9375000000000004,0.57315625,-0.25028125,-0.27178125000000003,0.73528125,0.52721875,-0.69271875,-0.99053125,0.6454375,0.01791773131502581,0.028760893188295066,True
30056,5150,0,5151,3883.0,40518.0,45460.0,0.0015249999999999999,0.00061,-0.004026,0.3325,-1.9600000000000002,-3.9725000000000006,0.5730000000000001,-0.247125,-0.273625,0.7315,0.5283125,-0.68990625,-0.9926875000000001,0.64171875,0.017933695070227334,0.028770915492781643,True
30057,5151,0,5152,3882.0,40514.0,45454.0,0.0028669999999999998,0.001037,-0.0018909999999999999,0.31500000000000006,-2.0300000000000002,-3.9025000000000003,0.56675,-0.24940625,-0.27290625,0.73184375,0.52809375,-0.69065625,-0.9910625000000001,0.63184375,0.017871132931106277,0.028736523307082283,True
30058,5152,0,5153,3882.0,40516.0,45452.0,0.0037819999999999998,-0.001403,-0.000122,0.28,-1.9425000000000001,-3.8325000000000005,0.576625,-0.2500625,-0.27221875,0.73459375,0.53203125,-0.69359375,-0.9903125,0.64384375,0.017961389277330278,0.028734884767847538,True
30059,5153,0,5154,3878.0,40515.0,45453.0,0.00244,-0.000915,0.0006709999999999999,0.17500000000000002,-1.715,-3.7275000000000005,0.57728125,-0.24821875000000002,-0.2724375,0.7346875,0.52828125,-0.69096875,-0.9906875,0.65409375,0.017931657703790984,0.028740705912952576,True
30060,5154,0,5155,3879.0,40516.0,45450.0,-0.0008539999999999999,-0.0013419999999999999,0.0008539999999999999,0.07,-1.4000000000000001,-3.9025000000000003,0.5720625,-0.247125,-0.27315625,0.7338125,0.5280625,-0.69015625,-0.99475,0.65028125,0.01794363897555326,0.02886981266065874,True
30061,5155,0,5156,3878.0,40516.0,45450.0,-0.001281,-0.001952,0.000915,0.10500000000000001,-1.3825,-3.9025000000000003,0.5733125,-0.24709375,-0.27471875,0.730875,0.524375,-0.68525,-0.99646875,0.6395625,0.01774971896172816,0.028874078463582982,True
30062,5156,0,5157,3879.0,40515.0,45450.0,-0.00122,-0.002806,-0.001647,0.17500000000000002,-1.4525000000000001,-3.8675,0.57340625,-0.2494375,-0.27075,0.73221875,0.52378125,-0.691375,-0.9921875,0.637625,0.01789845644481119,0.02886652078774617,True
30063,5157,0,5158,3878.0,40513.0,45449.0,-0.001464,-0.0006709999999999999,-0.000122,0.1925,-1.435,-3.9725000000000006,0.57303125,-0.25121875,-0.27315625,0.73159375,0.52246875,-0.69075,-0.99034375,0.63646875,0.017801453985804398,0.028698584828389963,True
30064,5158,0,5159,3877.0,40510.0,45446.0,-0.000549,0.0006709999999999999,0.000488,0.29750000000000004,-1.4175000000000002,-3.8850000000000002,0.57515625,-0.24965625,-0.2735,0.72928125,0.528625,-0.693625,-0.98846875,0.64578125,0.017979083670380515,0.028611947260673985,True
30065,5159,0,5160,3878.0,40511.0,45444.0,-0.002562,0.001098,0.000183,0.2625,-1.3650000000000002,-3.9550000000000005,0.5807187500000001,-0.2466875,-0.26875,0.7503125,0.53725,-0.6910625,-0.9878750000000001,0.6531250000000001,0.017997402906416035,0.02877895779453035,True
30066,5160,0,5161,3878.0,40512.0,45446.0,-0.001952,0.002562,-6.1e-05,0.22750000000000004,-1.3650000000000002,-3.8850000000000002,0.5775625,-0.24225,-0.2813125,0.7232500000000001,0.52353125,-0.68878125,-0.99434375,0.63828125,0.018086403110724635,0.028527704393118945,True
30067,5161,0,5162,3875.0,40511.0,45442.0,-0.000549,0.0013419999999999999,0.000732,0.22750000000000004,-1.4700000000000002,-3.8850000000000002,0.57715625,-0.25190625,-0.2676875,0.7503125,0.53640625,-0.6919375,-0.9874375,0.65234375,0.017820847391987766,0.028804474248309772,True
30068,5162,0,5163,3875.0,40510.0,45445.0,0.002379,-0.001037,0.002013,0.21000000000000002,-1.6800000000000002,-3.8675,0.55775,-0.244625,-0.2754375,0.72059375,0.5216875,-0.692625,-0.99175,0.63828125,0.018143069033770207,0.028661958446287276,True
30069,5163,0,5164,3874.0,40510.0,45443.0,0.003904,-0.0011589999999999999,0.000122,0.24500000000000002,-1.9250000000000003,-3.7975000000000003,0.5976875,-0.247,-0.2668125,0.74984375,0.53971875,-0.68478125,-0.9918750000000001,0.6549375000000001,0.01773486447241658,0.02901192887688499,True
30070,5164,0,5165,3875.0,40511.0,45443.0,0.001403,0.0035989999999999998,-0.003965,0.5775,-1.9775000000000003,-3.6925000000000003,0.56828125,-0.24296875,-0.2838125,0.72009375,0.52353125,-0.6895625,-0.996375,0.63784375,0.018088362238091498,0.028506633461851966,True
30071,5165,0,5166,3872.0,40509.0,45445.0,0.000122,0.004392,-0.002074,0.6300000000000001,-1.8550000000000002,-3.6575,0.59296875,-0.25003125,-0.26709375,0.75228125,0.5405625000000001,-0.68934375,-0.9884375,0.65459375,0.017793607819162876,0.028867101034228328,True
30072,5166,0,5167,3871.0,40509.0,45444.0,-0.000122,0.00183,-0.00061,0.42000000000000004,-1.8200000000000003,-3.7100000000000004,0.56903125,-0.24290625000000002,-0.27975,0.716875,0.52271875,-0.688875,-0.9925,0.6360625,0.01806355089083646,0.02851855556667,True
30073,5167,0,5168,3871.0,40508.0,45444.0,0.00122,-0.002379,0.00183,0.22750000000000004,-1.6625,-3.8675,0.546375,-0.25221875,-0.27328125000000003,0.720375,0.521625,-0.69453125,-0.9888750000000001,0.63875,0.01791135436109969,0.028636493239491575,True
30074,5168,0,5169,3872.0,40511.0,45443.0,0.001098,-0.003904,0.002562,0.31500000000000006,-1.6975000000000002,-3.7975000000000003,0.5970625,-0.248125,-0.26887500000000003,0.752375,0.5338437500000001,-0.690375,-0.99059375,0.6470312500000001,0.01791183811505495,0.028879615955503257,True
30075,5169,0,5170,3871.0,40508.0,45444.0,-0.00122,-0.0021349999999999997,0.00122,0.42000000000000004,-1.2775,-3.6750000000000003,0.56078125,-0.24046875,-0.28421875,0.721,0.52621875,-0.69278125,-0.99390625,0.641875,0.018317600412063748,0.028394421140152917,True
30076,5170,0,5171,3871.0,40505.0,45442.0,-0.0021349999999999997,-0.0026839999999999998,0.000793,0.35000000000000003,-1.0850000000000002,-3.6575,0.593375,-0.24665625,-0.26590625,0.74846875,0.535875,-0.6895,-0.9896875,0.6454375,0.01793652159825027,0.028963197318894046,True
30077,5171,0,5172,3870.0,40506.0,45442.0,-0.003172,-0.0021349999999999997,-0.00183,0.36750000000000005,-1.2775,-3.7800000000000002,0.5785,-0.24406250000000002,-0.2721875,0.73171875,0.5274375,-0.6900625,-0.992125,0.64146875,0.018063947792760753,0.02880657407083231,True
30078,5172,0,5173,3871.0,40508.0,45442.0,-0.001769,-0.00244,-0.0017079999999999999,0.3325,-1.2425000000000002,-3.8150000000000004,0.56215625,-0.24721875000000001,-0.27003125,0.73065625,0.52771875,-0.69303125,-0.99003125,0.6415,0.018054182797018894,0.0288114885810717,True
30079,5173,0,5174,3869.0,40506.0,45441.0,-0.000183,-0.001037,-0.001952,0.36750000000000005,-1.435,-3.8325000000000005,0.58115625,-0.2464375,-0.2716875,0.7322500000000001,0.53446875,-0.6908125,-0.9859375,0.64653125,0.017997585134146562,0.028586079669814274,True
30080,5174,0,5175,3869.0,40507.0,45440.0,0.002806,0.0032329999999999998,0.0,0.5775,-1.61,-3.7975000000000003,0.57321875,-0.2515,-0.272125,0.7321562500000001,0.5274375,-0.69346875,-0.99053125,0.64128125,0.017898204358186814,0.028747137978509356,True
30081,5175,0,5176,3869.0,40508.0,45441.0,0.001586,0.003721,0.001098,0.7175,-1.5225000000000002,-3.8500000000000005,0.57809375,-0.248375,-0.2720625,0.73703125,0.5353125,-0.69071875,-0.9862500000000001,0.6478125,0.017915385715533295,0.02858322077142429,True
30082,5176,0,5177,3870.0,40509.0,45442.0,-0.0008539999999999999,0.003477,0.001464,0.7000000000000001,-1.5925000000000002,-3.7975000000000003,0.57246875,-0.24909375,-0.27284375,0.7322500000000001,0.5275625,-0.68953125,-0.993625,0.64125,0.01783903856011847,0.02883860384398021,True
30083,5177,0,5178,3870.0,40505.0,45443.0,-0.001464,0.002379,0.00061,0.525,-1.5750000000000002,-3.6925000000000003,0.5787187500000001,-0.2474375,-0.27187500000000003,0.73778125,0.53540625,-0.68984375,-0.98990625,0.648375,0.017918552036199093,0.028732850888546244,True
30084,5178,0,5179,3868.0,40505.0,45441.0,-0.0008539999999999999,0.0028669999999999998,0.000244,0.5775,-1.3825,-3.6050000000000004,0.5731875,-0.24765625,-0.27496875,0.7333125,0.5279375000000001,-0.69015625,-0.99253125,0.6472187500000001,0.01792212230329648,0.028711077434383524,True
30085,5179,0,5180,3869.0,40509.0,45441.0,-0.000732,0.001647,0.000915,0.5425000000000001,-1.6275000000000002,-3.7275000000000005,0.57253125,-0.24953125,-0.2745625,0.731125,0.5269375000000001,-0.6914375,-0.99453125,0.64028125,0.017897145518562866,0.028805051104929202,True
30086,5180,0,5181,3869.0,40510.0,45443.0,-0.000976,0.00061,0.000183,0.47250000000000003,-1.61,-3.6050000000000004,0.56675,-0.2506875,-0.27603125,0.73190625,0.5273125,-0.68959375,-0.99140625,0.64053125,0.017776973345298562,0.028624839788677362,True
30087,5181,0,5182,3869.0,40508.0,45444.0,-0.00122,-0.000976,0.001586,0.4025,-1.7675,-3.6225000000000005,0.5796250000000001,-0.24471875,-0.2716875,0.7326875,0.5229375,-0.69334375,-0.990375,0.6449375,0.018167851407325103,0.02875857205023934,True
30088,5182,0,5183,3869.0,40508.0,45443.0,-0.000549,-0.0030499999999999998,0.001037,0.43750000000000006,-1.8200000000000003,-3.6575,0.57309375,-0.24228125,-0.269125,0.7326875,0.53490625,-0.689875,-0.98946875,0.64146875,0.018128635726183305,0.02882589290738724,True
30089,5183,0,5184,3869.0,40509.0,45444.0,0.002257,-0.0034159999999999998,-0.0011589999999999999,0.385,-1.9075000000000002,-3.6050000000000004,0.58175,-0.247875,-0.2725,0.73784375,0.5336875,-0.691375,-0.9901875,0.6484375,0.017961737651305362,0.028718772118056336,True
30090,5184,0,5185,3870.0,40509.0,45442.0,0.002623,-0.002806,-0.002074,0.45500000000000007,-1.8900000000000001,-3.6925000000000003,0.5730000000000001,-0.249625,-0.27240625,0.732125,0.528375,-0.6901875000000001,-0.9929687500000001,0.6416875,0.017843627149449558,0.02883060860867119,True
30091,5185,0,5186,3868.0,40510.0,45447.0,0.001403,-0.00183,-0.002562,0.47250000000000003,-1.6450000000000002,-3.6050000000000004,0.58096875,-0.24903125,-0.27240625,0.7322500000000001,0.52490625,-0.69278125,-0.9905,0.643625,0.01797083914959964,0.028734669174286225,True
30092,5186,0,5187,3870.0,40511.0,45446.0,0.000549,0.00042699999999999997,-0.000793,0.47250000000000003,-1.54,-3.7800000000000002,0.5754375,-0.2471875,-0.2745625,0.73678125,0.53390625,-0.69090625,-0.9917812500000001,0.64996875,0.017970938187009643,0.028698184528163636,True
30093,5187,0,5188,3869.0,40508.0,45447.0,-0.001098,0.000793,0.000183,0.47250000000000003,-1.4000000000000001,-3.8150000000000004,0.5725625,-0.24721875000000001,-0.275875,0.7359375,0.5275,-0.688875,-0.99165625,0.646875,0.017888877075200874,0.028640808869960354,True
30094,5188,0,5189,3870.0,40509.0,45446.0,-0.0028669999999999998,0.000915,0.000915,0.49000000000000005,-1.4000000000000001,-3.7450000000000006,0.5738125000000001,-0.2474375,-0.2729375,0.728875,0.518625,-0.6901875000000001,-0.988125,0.64878125,0.017932225099546128,0.028621095020134567,True
30095,5189,0,5190,3870.0,40510.0,45445.0,-0.0011589999999999999,0.002074,0.000915,0.525,-1.5050000000000001,-3.8325000000000005,0.57575,-0.24675,-0.27137500000000003,0.7365625,0.53325,-0.68975,-0.9903125,0.6471250000000001,0.017942668516287123,0.028768647851042276,True
30096,5190,0,5191,3869.0,40507.0,45446.0,-0.00061,0.002074,0.000732,0.43750000000000006,-1.5575,-3.7450000000000006,0.573125,-0.246,-0.2753125,0.73090625,0.52678125,-0.690875,-0.990125,0.64659375,0.01801778997301635,0.028603798500407666,True
30097,5191,0,5192,3870.0,40510.0,45448.0,-0.000366,0.000488,0.000915,0.5425000000000001,-1.5225000000000002,-3.7450000000000006,0.5700625,-0.250125,-0.27253125,0.72496875,0.5275,-0.68421875,-0.9931562500000001,0.6418125,0.01758588166781661,0.028832893004459976,True
30098,5192,0,5193,3871.0,40508.0,45448.0,0.0008539999999999999,0.000488,0.000732,0.49000000000000005,-1.5225000000000002,-3.8850000000000002,0.5785,-0.24756250000000002,-0.27240625,0.7368125,0.53309375,-0.6910625,-0.99059375,0.64653125,0.01796196498226838,0.02873831279018731,True
30099,5193,0,5194,3872.0,40507.0,45447.0,0.001464,-0.000366,-0.000244,0.43750000000000006,-1.5225000000000002,-3.7800000000000002,0.57346875,-0.249,-0.27275,0.73209375,0.52709375,-0.69003125,-0.9910625000000001,0.640875,0.017862725467388787,0.02874277554225636,True
30100,5194,0,5195,3871.0,40507.0,45447.0,-6.1e-05,-0.001098,-0.001098,0.35000000000000003,-1.6975000000000002,-3.9200000000000004,0.579875,-0.24796875000000002,-0.271625,0.73159375,0.5328437500000001,-0.69140625,-0.99,0.6450312500000001,0.017959183673469388,0.028746498599439778,True
30101,5195,0,5196,3871.0,40507.0,45448.0,0.000122,0.000183,-0.0015249999999999999,0.35000000000000003,-1.6800000000000002,-3.8675,0.5821875,-0.248125,-0.27225,0.73709375,0.5328125,-0.69121875,-0.9898125,0.64715625,0.017945398098261147,0.028714201036922547,True
30102,5196,0,5197,3872.0,40509.0,45450.0,0.000488,-0.000183,-0.000976,0.29750000000000004,-1.54,-3.8850000000000002,0.57284375,-0.24859375,-0.27334375,0.7313437500000001,0.5191875,-0.6910937500000001,-0.99146875,0.62984375,0.017921441815431934,0.028734805752463028,True
30103,5197,0,5198,3872.0,40506.0,45451.0,-0.001281,6.1e-05,-6.1e-05,0.385,-1.435,-3.7800000000000002,0.57384375,-0.25046875,-0.275125,0.7311875,0.52528125,-0.69103125,-0.99303125,0.64328125,0.017843017391183283,0.02872425688660714,True
30104,5198,0,5199,3872.0,40509.0,45453.0,-0.0011589999999999999,0.00122,0.000488,0.36750000000000005,-1.33,-3.9200000000000004,0.57646875,-0.25071875,-0.27259375,0.73684375,0.52259375,-0.69378125,-0.9914375,0.64109375,0.01794227038437056,0.028763601533525234,True
30105,5199,0,5200,3872.0,40509.0,45452.0,-0.001098,-0.000122,0.001037,0.35000000000000003,-1.4000000000000001,-3.7625,0.573125,-0.24759375,-0.27296875,0.73175,0.53546875,-0.690875,-0.99446875,0.6446875,0.017953241835293406,0.028866386688054736,True
30106,5200,0,5201,3873.0,40509.0,45452.0,0.000122,-0.000976,0.0011589999999999999,0.29750000000000004,-1.435,-3.8325000000000005,0.5733125,-0.25028125,-0.2721875,0.7311562500000001,0.52821875,-0.69315625,-0.98646875,0.63865625,0.01793513131801448,0.02858672256358754,True
30107,5201,0,5202,3874.0,40510.0,45454.0,0.000976,-0.001037,0.0,0.3325,-1.6975000000000002,-3.7100000000000004,0.5791875,-0.2398125,-0.27503125,0.73171875,0.5335625,-0.6920937500000001,-0.98871875,0.65359375,0.018316844840263902,0.028560387875028608,True
30108,5202,0,5203,3872.0,40509.0,45455.0,0.0021349999999999997,-0.00042699999999999997,-0.0006709999999999999,0.35000000000000003,-1.7675,-3.7975000000000003,0.580125,-0.247,-0.27240625,0.7384375,0.520625,-0.6973125,-0.9873125,0.6548125,0.018233259185589525,0.028610769965757624,True
30109,5203,0,5204,3873.0,40510.0,45455.0,0.0015249999999999999,-0.00122,-0.00042699999999999997,0.385,-1.7850000000000001,-3.6925000000000003,0.5740000000000001,-0.2495,-0.26978125000000003,0.73084375,0.51646875,-0.68653125,-0.994,0.636125,0.017703226329134434,0.028975704169000558,True
30110,5204,0,5205,3873.0,40507.0,45456.0,0.0017079999999999999,-0.0013419999999999999,-0.001098,0.1925,-1.6275000000000002,-3.7800000000000002,0.57996875,-0.24540625,-0.2734375,0.7338125,0.53625,-0.69215625,-0.98665625,0.6568437500000001,0.018092790094020244,0.02854398535218173,True
30111,5205,0,5206,3876.0,40511.0,45456.0,0.002257,-0.00042699999999999997,0.000183,0.29750000000000004,-1.4000000000000001,-3.7800000000000002,0.57240625,-0.2496875,-0.27315625,0.7315625,0.52190625,-0.68715625,-0.99675,0.6382187500000001,0.017720499905694888,0.028947513176712975,True
30112,5206,0,5207,3874.0,40511.0,45457.0,-0.0011589999999999999,-0.000122,0.000549,0.43750000000000006,-1.33,-3.7450000000000006,0.57659375,-0.25021875,-0.27209375,0.737375,0.521,-0.69596875,-0.99353125,0.63628125,0.018049504537051217,0.02886496881067976,True
30113,5207,0,5208,3875.0,40508.0,45455.0,-0.002013,0.0017079999999999999,0.000244,0.47250000000000003,-1.1900000000000002,-3.7275000000000005,0.57528125,-0.24725,-0.27571875,0.7369375,0.544,-0.68903125,-0.9871875,0.6526875,0.017893826838588495,0.02847334258807639,True
30114,5208,0,5209,3874.0,40508.0,45457.0,-0.003111,0.00061,0.0017079999999999999,0.36750000000000005,-1.0150000000000001,-3.8150000000000004,0.5733125,-0.247,-0.2750625,0.731625,0.53196875,-0.6853750000000001,-0.9910625000000001,0.649,0.017758490604254547,0.02865024246168005,True
30115,5209,0,5210,3876.0,40510.0,45460.0,-0.002196,0.00042699999999999997,0.0013419999999999999,0.4025,-1.1900000000000002,-3.8675,0.5779062500000001,-0.25146875,-0.272375,0.73971875,0.5212187500000001,-0.69496875,-0.99034375,0.6432187500000001,0.01795912375876159,0.028729846903366427,True
30116,5210,0,5211,3878.0,40512.0,45461.0,-0.0011589999999999999,0.000305,0.000549,0.47250000000000003,-1.4175000000000002,-3.6750000000000003,0.572125,-0.25021875,-0.27190625,0.734625,0.52440625,-0.68746875,-0.99875,0.63503125,0.017711414824575725,0.029075203760188007,True
30117,5211,0,5212,3876.0,40513.0,45462.0,-0.000732,0.000976,-0.000976,0.3325,-1.5750000000000002,-3.6750000000000003,0.57553125,-0.24775,-0.267625,0.731375,0.542875,-0.68853125,-0.9895625,0.65421875,0.017853684592922067,0.02888956139188111,True
30118,5212,0,5213,3878.0,40513.0,45460.0,0.000976,0.000488,-0.00042699999999999997,0.47250000000000003,-1.715,-3.7100000000000004,0.57346875,-0.248875,-0.27240625,0.73453125,0.5201250000000001,-0.6916875,-0.9905,0.635625,0.01793366694763167,0.028734669174286225,True
30119,5213,0,5214,3877.0,40510.0,45463.0,0.003843,-0.00122,-0.0018909999999999999,0.5425000000000001,-1.8900000000000001,-3.6925000000000003,0.5780625,-0.2471875,-0.275125,0.73140625,0.53853125,-0.68896875,-0.98934375,0.64540625,0.01789387213672098,0.02858093262253035,True
30120,5214,0,5215,3879.0,40512.0,45464.0,0.0044529999999999995,-0.000549,-0.00244,0.5425000000000001,-1.9600000000000002,-3.7450000000000006,0.5734375,-0.2519375,-0.2694375,0.736125,0.519,-0.69271875,-0.988625,0.6399375,0.01785065688645565,0.028780595170802715,True
30121,5215,0,5216,3879.0,40511.0,45462.0,0.003111,0.000915,-0.001098,0.45500000000000007,-1.61,-3.7975000000000003,0.57603125,-0.24706250000000002,-0.2743125,0.7310625000000001,0.5323125,-0.6900000000000001,-0.99259375,0.6345000000000001,0.017939955447549616,0.028739764155130954,True
30122,5216,0,5217,3880.0,40510.0,45464.0,-0.000244,0.000488,0.0008539999999999999,0.45500000000000007,-1.2950000000000002,-3.7450000000000006,0.58084375,-0.24759375,-0.269,0.73675,0.52940625,-0.6920937500000001,-0.9899375,0.648,0.01800171360518992,0.028849111767486415,True
30123,5217,0,5218,3880.0,40510.0,45466.0,-0.003172,0.000122,0.00122,0.47250000000000003,-1.0675000000000001,-3.7625,0.57353125,-0.25040625,-0.2721875,0.7360625000000001,0.527875,-0.68715625,-0.9901562500000001,0.63934375,0.01769138557625486,0.028730062462094454,True
30124,5218,0,5219,3881.0,40514.0,45466.0,-0.0035989999999999998,-0.000305,0.003111,0.35000000000000003,-1.0325000000000002,-3.7975000000000003,0.5748125000000001,-0.2466875,-0.27515625,0.7321875,0.53678125,-0.689625,-0.992,0.64096875,0.01794022792974782,0.02868292853713188,True
30125,5219,0,5220,3882.0,40512.0,45467.0,-0.003111,-0.00042699999999999997,0.00183,0.385,-1.1025,-3.7450000000000006,0.57846875,-0.24809375,-0.27471875,0.73121875,0.5251875,-0.68971875,-0.99040625,0.6416875,0.017887000029111307,0.028638490020545387,True
30126,5220,0,5221,3883.0,40513.0,45468.0,-0.000549,-0.000183,0.000793,0.4025,-1.33,-3.7275000000000005,0.5735,-0.2506875,-0.27209375,0.736,0.5144062500000001,-0.6923125,-0.9903125,0.647875,0.017885121128286385,0.028739886706098613,True
30127,5221,0,5222,3885.0,40513.0,45470.0,0.00061,-0.000915,-0.001037,0.385,-1.5050000000000001,-3.8675,0.57275,-0.2499375,-0.2693125,0.73546875,0.52771875,-0.6948125,-0.99040625,0.64153125,0.01801491710050441,0.028854823038340967,True
30128,5222,0,5223,3884.0,40516.0,45470.0,0.0013419999999999999,0.000244,-0.0021349999999999997,0.385,-1.54,-3.8150000000000004,0.57296875,-0.24765625,-0.27415625,0.72309375,0.53390625,-0.69071875,-0.989375,0.6413125000000001,0.01794449584421272,0.02862091388840257,True
30129,5223,0,5224,3885.0,40512.0,45471.0,0.000976,-0.000122,-0.001464,0.5075000000000001,-1.5750000000000002,-3.7100000000000004,0.5795,-0.24756250000000002,-0.27425,0.7314375,0.5333125,-0.69071875,-0.98971875,0.6486875,0.01794829281751873,0.028630524303119655,True
30130,5224,0,5225,3886.0,40513.0,45470.0,0.00122,0.000183,-0.0015249999999999999,0.5075000000000001,-1.5750000000000002,-3.6925000000000003,0.57284375,-0.2515,-0.2716875,0.73071875,0.5278125,-0.6930000000000001,-0.99071875,0.641625,0.01787956100919289,0.02877193157959893,True
30131,5225,0,5226,3885.0,40515.0,45468.0,0.001403,0.0011589999999999999,0.000244,0.385,-1.5225000000000002,-3.7450000000000006,0.58140625,-0.24781250000000002,-0.27359375,0.731,0.5343125,-0.69084375,-0.9902500000000001,0.647625,0.01794313934694921,0.028677434199337742,True
30132,5226,0,5227,3888.0,40513.0,45472.0,0.00061,0.000488,0.000366,0.5075000000000001,-1.5225000000000002,-3.8325000000000005,0.57396875,-0.25115625,-0.2725,0.73321875,0.52715625,-0.69303125,-0.99090625,0.6494375,0.017894724852786145,0.028746706614531034,True
30133,5227,0,5228,3888.0,40512.0,45472.0,0.00042699999999999997,-6.1e-05,0.001647,0.43750000000000006,-1.4525000000000001,-3.8675,0.57153125,-0.25009375,-0.271125,0.73221875,0.52775,-0.6906875,-0.99028125,0.64778125,0.017844531465557614,0.028777437228722665,True
30134,5228,0,5229,3888.0,40514.0,45474.0,-0.0023179999999999997,0.001281,-6.1e-05,0.35000000000000003,-1.3475000000000001,-3.8500000000000005,0.57165625,-0.2489375,-0.27078125000000003,0.732,0.52775,-0.693625,-0.9895,0.6460312500000001,0.018008190373021378,0.028760829548410336,True
30135,5229,0,5230,3889.0,40513.0,45477.0,-0.001647,-6.1e-05,0.000488,0.43750000000000006,-1.3650000000000002,-3.6575,0.5693125,-0.24928125,-0.26309375,0.7398750000000001,0.52390625,-0.69353125,-0.9899375,0.64775,0.01799054155124128,0.029085456896400803,True
30136,5230,0,5231,3889.0,40515.0,45477.0,-0.0023179999999999997,0.00042699999999999997,0.0008539999999999999,0.42000000000000004,-1.4525000000000001,-3.6925000000000003,0.5693125,-0.2530625,-0.27146875,0.73603125,0.5270312500000001,-0.69371875,-0.99109375,0.645875,0.01784487198794228,0.02879525831077321,True
30137,5231,0,5232,3890.0,40515.0,45477.0,-0.0011589999999999999,-0.000183,0.000183,0.5075000000000001,-1.54,-3.6925000000000003,0.5719375,-0.24575,-0.277375,0.72875,0.5260625,-0.69075,-0.986125,0.64196875,0.018022943814991442,0.028365742987357983,True
30138,5232,0,5233,3890.0,40516.0,45477.0,-0.000549,-0.000976,0.000122,0.43750000000000006,-1.6450000000000002,-3.6925000000000003,0.58765625,-0.24359375,-0.2775625,0.7281562500000001,0.53346875,-0.6900000000000001,-0.9933125,0.6413125000000001,0.01808044754961523,0.0286376605742036,True
30139,5233,0,5234,3891.0,40519.0,45478.0,0.002989,-0.00122,-0.0018909999999999999,0.56,-1.8725000000000003,-3.535,0.5754375,-0.24571875,-0.27603125,0.7364375,0.53321875,-0.68996875,-0.99284375,0.6465625,0.01799313739512125,0.02868070985319548,True
30140,5234,0,5235,3893.0,40515.0,45479.0,0.003843,0.00122,-0.00183,0.7525000000000001,-1.9250000000000003,-3.5875000000000004,0.5705,-0.25359375,-0.27034375,0.7434375,0.5271875,-0.692625,-0.990375,0.63934375,0.017779853296277737,0.028812342751959506,True
30141,5235,0,5236,3893.0,40515.0,45479.0,0.002623,0.003294,-0.001098,0.6825000000000001,-1.8550000000000002,-3.7450000000000006,0.56928125,-0.25171875,-0.26253125,0.74390625,0.5161250000000001,-0.6920625,-0.98959375,0.6459375,0.017833413065433477,0.029094610631675438,True
30142,5236,0,5237,3894.0,40516.0,45482.0,0.000915,0.001647,6.1e-05,0.49000000000000005,-1.6450000000000002,-3.7275000000000005,0.56940625,-0.25465625000000003,-0.2705625,0.7434375,0.5273125,-0.69071875,-0.9898125,0.645875,0.01766098850403049,0.02878172855438591,True
30143,5237,0,5238,3894.0,40517.0,45481.0,-0.00244,-0.001098,0.0017079999999999999,0.2625,-1.155,-3.7800000000000002,0.56925,-0.25284375,-0.2701875,0.744125,0.52740625,-0.69084375,-0.99009375,0.64534375,0.017739369477804905,0.02880766503727102,True
30144,5238,0,5239,3894.0,40516.0,45486.0,-0.003538,-0.004331,0.002257,0.24500000000000002,-1.1375000000000002,-3.8500000000000005,0.5690000000000001,-0.251375,-0.27290625,0.73053125,0.52740625,-0.6911875000000001,-0.9905625,0.64159375,0.017812529267780257,0.028717090701739906,True
30145,5239,0,5240,3896.0,40519.0,45486.0,-0.002562,-0.0028669999999999998,0.0006709999999999999,0.385,-1.4000000000000001,-3.8150000000000004,0.56834375,-0.24634375,-0.2755625,0.727,0.5315625,-0.6900625,-0.98959375,0.64096875,0.017971552319885786,0.02857314357101144,True
30146,5240,0,5241,3894.0,40513.0,45485.0,0.0008539999999999999,0.000488,-0.00042699999999999997,0.56,-1.5050000000000001,-3.7450000000000006,0.57778125,-0.24731250000000002,-0.2710625,0.73828125,0.52725,-0.69075,-0.9908750000000001,0.6448125,0.017959661006652285,0.028803013099781425,True
30147,5241,0,5242,3897.0,40518.0,45485.0,0.0006709999999999999,0.001403,0.001403,0.665,-1.5050000000000001,-3.5700000000000003,0.57134375,-0.24403125,-0.2721875,0.7365625,0.5271875,-0.69025,-0.99,0.6413125000000001,0.018072670386083577,0.028723989595838335,True
30148,5242,0,5243,3897.0,40516.0,45485.0,0.0034159999999999998,0.001464,0.00042699999999999997,0.5775,-1.5925000000000002,-3.5875000000000004,0.5735,-0.250125,-0.27284375,0.72509375,0.52509375,-0.68953125,-0.9917812500000001,0.64153125,0.017797269844886183,0.028766957137158843,True
30149,5243,0,5244,3898.0,40517.0,45486.0,0.001281,0.0034159999999999998,-0.003172,0.7000000000000001,-1.6800000000000002,-3.6750000000000003,0.58125,-0.24331250000000001,-0.27446875,0.73128125,0.53453125,-0.69025,-0.990625,0.647,0.0181017810674254,0.028656996373640116,True
30150,5244,0,5245,3899.0,40516.0,45488.0,-0.000549,0.0051849999999999995,-0.004941,0.8225000000000001,-1.6275000000000002,-3.6750000000000003,0.57953125,-0.24703125,-0.272875,0.7365625,0.5278437500000001,-0.6920000000000001,-0.99046875,0.6538125,0.018020765835088288,0.028714697478413646,True
30151,5245,0,5246,3899.0,40517.0,45487.0,-0.003904,0.006161,-0.0040869999999999995,0.7350000000000001,-1.3825,-3.5700000000000003,0.5730625,-0.2498125,-0.27334375,0.7309375,0.52825,-0.68959375,-0.9959375,0.6394062500000001,0.01781241337759962,0.028908447622738698,True
30152,5246,0,5247,3899.0,40516.0,45491.0,-0.0042699999999999995,0.002013,0.000915,0.5950000000000001,-1.2775,-3.6400000000000006,0.581375,-0.24740625,-0.2709375,0.73378125,0.5241250000000001,-0.6988125000000001,-0.99475,0.6340625,0.018276435354938628,0.028958581302073433,True
30153,5247,0,5248,3903.0,40517.0,45490.0,-0.001647,-0.002928,0.005429,0.3325,-1.2950000000000002,-3.6925000000000003,0.57859375,-0.24790625,-0.27190625,0.73778125,0.52490625,-0.70315625,-0.98609375,0.642,0.018428819191879584,0.028583399515980764,True
30154,5248,0,5249,3903.0,40516.0,45486.0,0.0006709999999999999,-0.0064659999999999995,0.005246,0.35000000000000003,-1.4525000000000001,-3.6225000000000005,0.5731875,-0.2493125,-0.27228125000000003,0.73634375,0.5398125,-0.6855,-0.99675,0.6303125,0.017669785906706367,0.02898251772730455,True
30155,5249,0,5250,3901.0,40516.0,45482.0,0.0015249999999999999,-0.005124,0.0017079999999999999,0.29750000000000004,-1.54,-3.6400000000000006,0.5759375,-0.247625,-0.27415625,0.7315,0.5476562500000001,-0.6915625,-0.9905625,0.6634375,0.01797931985875742,0.028667071819611905,True
30156,5250,0,5251,3904.0,40513.0,45481.0,0.001098,-0.0032329999999999998,-0.003172,0.35000000000000003,-1.5925000000000002,-3.7100000000000004,0.57909375,-0.25115625,-0.27234375,0.73821875,0.515875,-0.69634375,-0.992,0.63125,0.018026453814646147,0.02879546454865557,True
30157,5251,0,5252,3902.0,40511.0,45478.0,0.002928,-0.000915,-0.006893,0.35000000000000003,-1.61,-3.7275000000000005,0.573375,-0.24709375,-0.274125,0.731375,0.54884375,-0.68825,-0.99675,0.64028125,0.01786907739511711,0.028908758138558015,True
30158,5252,0,5253,3900.0,40513.0,45474.0,0.0013419999999999999,0.0013419999999999999,-0.005673,0.4025,-1.6275000000000002,-3.8675,0.58203125,-0.24803125,-0.272625,0.73828125,0.5199375,-0.702375,-0.98740625,0.6355625,0.018392715275353074,0.02860566010127602,True
30159,5253,0,5254,3901.0,40512.0,45472.0,-0.000976,0.003477,-0.000183,0.525,-1.3125000000000002,-3.9025000000000003,0.57425,-0.24796875000000002,-0.2738125,0.73346875,0.55296875,-0.6883125,-0.97740625,0.662375,0.01783612184915433,0.0281692079216592,True
30160,5254,0,5255,3900.0,40511.0,45471.0,-0.002074,0.003172,0.003904,0.36750000000000005,-1.33,-3.9375000000000004,0.566625,-0.249125,-0.27259375,0.73009375,0.50165625,-0.68415625,-1.002375,0.62846875,0.017623906022714467,0.029188477094676007,True
30161,5255,0,5256,3899.0,40513.0,45472.0,-0.003721,0.001586,0.005124,0.36750000000000005,-1.3825,-3.8675,0.582,-0.2476875,-0.2715,0.7325625,0.5339375000000001,-0.7027187500000001,-0.9855625,0.6619375000000001,0.01842029027675345,0.02857900437502658,True
30162,5256,0,5257,3900.0,40513.0,45471.0,-0.0025009999999999998,0.001769,0.004148,0.45500000000000007,-1.6625,-3.8500000000000005,0.5710625,-0.25125000000000003,-0.2730625,0.7359687500000001,0.51759375,-0.6898125,-0.99375,0.622,0.017762893096089735,0.028834708677169297,True
30163,5257,0,5258,3899.0,40512.0,45472.0,-0.001952,0.001098,0.00244,0.45500000000000007,-1.9250000000000003,-3.8850000000000002,0.5649375,-0.2483125,-0.27434375,0.73128125,0.5461875,-0.6878125,-0.98365625,0.64315625,0.017802306299920256,0.0283910606559038,True
30164,5258,0,5259,3898.0,40512.0,45470.0,0.0017079999999999999,0.001464,-0.002196,0.45500000000000007,-2.5025000000000004,-3.7800000000000002,0.564875,-0.2495,-0.2729375,0.73340625,0.515125,-0.697375,-0.9918125,0.63396875,0.018134518344560906,0.028764420347663855,True
30165,5259,0,5260,3899.0,40510.0,45469.0,0.0035989999999999998,-0.000244,-0.0023179999999999997,0.43750000000000006,-2.6250000000000004,-3.7625,0.58021875,-0.24765625,-0.2738125,0.73159375,0.531375,-0.6885625,-0.9879375,0.6502187500000001,0.01785872506752874,0.028578789265820758,True
30166,5260,0,5261,3899.0,40512.0,45468.0,0.005063,-0.00122,-0.002623,0.36750000000000005,-2.8000000000000003,-3.7450000000000006,0.56515625,-0.24909375,-0.27184375,0.72653125,0.52025,-0.69040625,-0.98846875,0.6429375,0.017873845230877886,0.028678227832587784,True
30167,5261,0,5262,3897.0,40510.0,45467.0,0.003477,-0.0017079999999999999,-0.001464,0.22750000000000004,-2.6425,-3.7975000000000003,0.5796250000000001,-0.2471875,-0.274375,0.731375,0.532125,-0.689625,-0.993125,0.64103125,0.01791997650835118,0.028757908424816826,True
30168,5262,0,5263,3897.0,40509.0,45466.0,0.001647,-0.004026,-0.0006709999999999999,0.22750000000000004,-2.4325,-3.8150000000000004,0.57903125,-0.24790625,-0.27221875,0.736125,0.534125,-0.69103125,-0.98959375,0.648875,0.017946800014681442,0.028706949267632655,True
30169,5263,0,5264,3897.0,40508.0,45464.0,0.002196,-0.003965,-0.000732,0.12250000000000001,-2.0825,-3.8675,0.57371875,-0.24746875000000002,-0.2731875,0.7305625,0.52875,-0.691625,-0.9904375,0.6410625,0.017988133628305147,0.02870097812413248,True
30170,5264,0,5265,3898.0,40510.0,45464.0,0.001769,-0.00244,-0.002806,0.29750000000000004,-1.8900000000000001,-3.9025000000000003,0.57896875,-0.24703125,-0.27425,0.73371875,0.535125,-0.69021875,-0.9930625000000001,0.64378125,0.017949921970618423,0.028760481033486794,True
30171,5265,0,5266,3897.0,40509.0,45461.0,-0.000122,0.0,-0.0013419999999999999,0.42000000000000004,-1.5225000000000002,-3.8675,0.5734375,-0.24921875000000002,-0.27240625,0.732125,0.52759375,-0.6914375,-0.99046875,0.6414062500000001,0.017909801727825688,0.028733454629577528,True
30172,5266,0,5267,3896.0,40507.0,45463.0,-0.001586,0.00244,0.000793,0.43750000000000006,-1.1375000000000002,-3.9725000000000006,0.57309375,-0.2465,-0.274125,0.7311562500000001,0.529875,-0.68934375,-0.99353125,0.64165625,0.017936635112061252,0.02878369778180104,True
30173,5267,0,5268,3896.0,40508.0,45464.0,-0.0032329999999999998,0.003355,0.00061,0.42000000000000004,-0.8400000000000001,-4.0425,0.57903125,-0.24731250000000002,-0.2733125,0.73128125,0.5348437500000001,-0.69065625,-0.9929687500000001,0.64159375,0.017955932216260954,0.028794348410490455,True
30174,5268,0,5269,3897.0,40509.0,45463.0,-0.006161,0.00244,0.0028669999999999998,0.2625,-0.77,-3.8500000000000005,0.577875,-0.242625,-0.27346875,0.73171875,0.53415625,-0.69021875,-0.99275,0.64115625,0.018128383329937083,0.028779596082864033,True
30175,5269,0,5270,3896.0,40510.0,45463.0,-0.005612,0.0018909999999999999,0.0032329999999999998,0.36750000000000005,-0.9100000000000001,-3.8325000000000005,0.5787187500000001,-0.24734375,-0.27465625,0.73178125,0.533625,-0.6891875000000001,-0.9938125,0.6381875,0.017896245066792906,0.02877337140942383,True
30176,5270,0,5271,3896.0,40509.0,45466.0,-0.001647,0.00061,0.004209,0.3325,-1.3825,-3.8325000000000005,0.57365625,-0.25134375000000003,-0.27278125000000003,0.74003125,0.531375,-0.69265625,-0.9908750000000001,0.6445,0.017872216562363555,0.028734237996868858,True
30177,5271,0,5272,3896.0,40509.0,45465.0,0.0023179999999999997,0.000122,0.0025009999999999998,0.43750000000000006,-1.995,-3.7625,0.5735,-0.25184375000000003,-0.27309375,0.74684375,0.527875,-0.69146875,-0.99040625,0.6481875,0.01780473265690199,0.028703514973871226,True
30178,5272,0,5273,3895.0,40511.0,45465.0,0.005246,0.0006709999999999999,-0.004697,0.47250000000000003,-2.2575000000000003,-3.6400000000000006,0.57325,-0.25253125,-0.27346875,0.7285625,0.5200625,-0.6900937500000001,-0.99021875,0.64684375,0.017722188681442333,0.0286812215279228,True
30179,5273,0,5274,3894.0,40508.0,45465.0,0.004392,0.00244,-0.004941,0.525,-2.31,-3.6050000000000004,0.59046875,-0.24671875000000001,-0.27609375,0.7268125,0.52059375,-0.6895625,-0.98559375,0.64109375,0.017936476193128166,0.028396363404411793,True
30180,5274,0,5275,3897.0,40507.0,45462.0,0.0055509999999999995,0.000549,-0.005246,0.5075000000000001,-2.1350000000000002,-3.6575,0.5761875,-0.2489375,-0.26990625,0.7338125,0.53528125,-0.6899375,-0.9894375,0.64596875,0.017861527596009508,0.028793415217929573,True
30181,5275,0,5276,3896.0,40505.0,45460.0,0.0026839999999999998,-0.001403,-0.001403,0.4025,-1.8200000000000003,-3.6750000000000003,0.5666875,-0.25109375,-0.27584375,0.72496875,0.52771875,-0.6895625,-0.99059375,0.6423125000000001,0.01775927580733761,0.028600761036339923,True
30182,5276,0,5277,3897.0,40506.0,45462.0,0.0006709999999999999,-0.0026839999999999998,0.001769,0.385,-1.4000000000000001,-3.8150000000000004,0.58990625,-0.24571875,-0.27528125000000003,0.726625,0.53521875,-0.68925,-0.9941562500000001,0.64109375,0.01796454934840062,0.028761723052763585,True
30183,5277,0,5278,3895.0,40507.0,45461.0,-0.001586,-0.0034159999999999998,0.0035989999999999998,0.385,-0.8575,-3.8675,0.57928125,-0.249375,-0.26453125,0.74753125,0.53315625,-0.68559375,-0.98975,0.64765625,0.017670984721605085,0.029020648465871008,True
30184,5278,0,5279,3896.0,40505.0,45463.0,-0.0032329999999999998,-0.0023179999999999997,0.001952,0.24500000000000002,-0.7875000000000001,-3.8150000000000004,0.56678125,-0.25140625,-0.27203125,0.73946875,0.51890625,-0.692625,-0.9900625000000001,0.64715625,0.017868442500544195,0.02873267123681664,True
30185,5279,0,5280,3896.0,40509.0,45464.0,-0.0057339999999999995,-0.00042699999999999997,-0.00042699999999999997,0.36750000000000005,-0.7175,-3.7275000000000005,0.566375,-0.251375,-0.27453125,0.7260625,0.5275,-0.6862812500000001,-0.989125,0.6434375,0.01761732541226719,0.028596189342363926,True
30186,5280,0,5281,3895.0,40506.0,45462.0,-0.00549,-0.00061,-0.0011589999999999999,0.42000000000000004,-0.8225000000000001,-3.7275000000000005,0.5899375,-0.24240625000000002,-0.27584375,0.73003125,0.5294375,-0.68978125,-0.9933125,0.6414062500000001,0.018119844621952656,0.02870642896974941,True
30187,5281,0,5282,3898.0,40509.0,45462.0,-0.002745,0.000976,-0.001952,0.45500000000000007,-1.155,-3.7800000000000002,0.5676875,-0.25134375000000003,-0.26909375,0.74609375,0.53028125,-0.68946875,-0.9898125,0.6445625,0.017745420301925288,0.028840502504770694,True
30188,5282,0,5283,3894.0,40507.0,45464.0,0.0018909999999999999,0.002196,-0.000122,0.665,-1.7500000000000002,-3.7450000000000006,0.56721875,-0.25628125,-0.2705,0.74625,0.5278437500000001,-0.69275,-0.9899687500000001,0.64278125,0.017675987891182632,0.02879030210872113,True
30189,5283,0,5284,3897.0,40508.0,45462.0,0.00366,0.0021349999999999997,0.00042699999999999997,0.7175,-1.8025000000000002,-3.6050000000000004,0.56721875,-0.254625,-0.27259375,0.72621875,0.5271250000000001,-0.69246875,-0.9897812500000001,0.6444375,0.017731874217720735,0.028699230810593834,True
30190,5284,0,5285,3895.0,40507.0,45463.0,0.0046359999999999995,0.002562,0.002257,0.7175,-1.7850000000000001,-3.6225000000000005,0.5831875,-0.250125,-0.2695,0.74025,0.5315625,-0.689625,-0.9902500000000001,0.64684375,0.017800999407645925,0.028841248086753833,True
30191,5285,0,5286,3895.0,40506.0,45462.0,0.0026839999999999998,0.001281,-0.00183,0.7000000000000001,-1.7500000000000002,-3.5700000000000003,0.566375,-0.24731250000000002,-0.2744375,0.72796875,0.5278125,-0.6929062500000001,-0.99028125,0.64153125,0.01804541537106431,0.02864488569931561,True
30192,5286,0,5287,3896.0,40507.0,45463.0,-0.0015249999999999999,0.001403,-0.0011589999999999999,0.8225000000000001,-1.4700000000000002,-3.5525,0.57409375,-0.247375,-0.271,0.7373125,0.53559375,-0.68978125,-0.99021875,0.6490625,0.01791859739543055,0.02878001017898253,True
30193,5287,0,5288,3895.0,40507.0,45465.0,-0.0011589999999999999,0.001647,0.001952,0.6825000000000001,-1.225,-3.5175000000000005,0.56421875,-0.24640625,-0.27528125000000003,0.7306875,0.52821875,-0.6900937500000001,-0.9927812500000001,0.64078125,0.01797026388366792,0.028708289518598495,True
30194,5288,0,5289,3897.0,40509.0,45467.0,-0.001403,0.000305,0.00122,0.6475000000000001,-1.33,-3.535,0.5795625,-0.24828125,-0.26490625,0.73625,0.5318437500000001,-0.6936875,-0.9895,0.64234375,0.018037251423061056,0.02899592828988175,True
30195,5289,0,5290,3899.0,40509.0,45466.0,-0.0008539999999999999,-0.001098,0.0021349999999999997,0.5950000000000001,-1.4175000000000002,-3.7275000000000005,0.5740625,-0.251,-0.27290625,0.7318125,0.5278437500000001,-0.6914375,-0.9901562500000001,0.64096875,0.01783766133502758,0.028701301137322825,True
30196,5290,0,5291,3897.0,40509.0,45467.0,0.000122,-0.0028669999999999998,0.000122,0.5775,-1.61,-3.7100000000000004,0.5775,-0.24659375,-0.275125,0.7228125,0.52434375,-0.688875,-0.99253125,0.63675,0.017914192120945163,0.028704825566638035,True
30197,5291,0,5292,3897.0,40508.0,45467.0,0.001281,-0.0025009999999999998,-0.001952,0.45500000000000007,-1.61,-3.5525,0.5796875,-0.24890625,-0.272875,0.735,0.5333125,-0.690625,-0.99021875,0.647,0.017890140488545755,0.028704980823747294,True
30198,5292,0,5293,3898.0,40508.0,45468.0,-6.1e-05,-0.001647,-0.000488,0.525,-1.4175000000000002,-3.6400000000000006,0.57328125,-0.24740625,-0.27546875,0.73084375,0.53434375,-0.68996875,-0.99328125,0.64084375,0.017924789799501066,0.02872021855873766,True
30199,5293,0,5294,3898.0,40509.0,45470.0,-0.0006709999999999999,-0.0015249999999999999,-6.1e-05,0.45500000000000007,-1.4175000000000002,-3.6575,0.57553125,-0.24871875000000002,-0.2686875,0.7365625,0.5279375000000001,-0.69278125,-0.9896875,0.64546875,0.017983494670127532,0.028851901409331353,True
30200,5294,0,5295,3900.0,40508.0,45472.0,-0.000244,-0.000732,0.000305,0.49000000000000005,-1.4175000000000002,-3.6925000000000003,0.56815625,-0.24706250000000002,-0.27425,0.72271875,0.52959375,-0.68925,-0.9864375,0.64115625,0.017910122826736333,0.02850296285735011,True
30201,5295,0,5296,3899.0,40505.0,45471.0,-0.000183,-0.000122,-0.00061,0.5075000000000001,-1.54,-3.7975000000000003,0.57371875,-0.2479375,-0.27303125,0.73734375,0.52828125,-0.69265625,-0.9912500000000001,0.64375,0.01801016243442825,0.028738808583004056,True
30202,5296,0,5297,3899.0,40508.0,45473.0,0.000793,0.001464,-0.000183,0.4025,-1.6800000000000002,-3.8150000000000004,0.5741875,-0.24696875000000001,-0.27425,0.73078125,0.52978125,-0.68971875,-0.9839375,0.64146875,0.017932565554235,0.028405750694821423,True
30203,5297,0,5298,3901.0,40507.0,45474.0,0.001647,0.0026839999999999998,0.00042699999999999997,0.42000000000000004,-1.5925000000000002,-3.9200000000000004,0.57340625,-0.247,-0.2719375,0.73709375,0.5285625,-0.6903125,-0.98903125,0.64740625,0.01795491652849675,0.028696340519402893,True
30204,5298,0,5299,3900.0,40507.0,45473.0,-0.001769,0.002745,0.000122,0.5075000000000001,-1.5050000000000001,-3.8675,0.57628125,-0.2466875,-0.272375,0.73340625,0.5286875,-0.6879375,-0.9914375,0.64271875,0.017873100983020553,0.02877235453142701,True
30205,5299,0,5300,3902.0,40509.0,45477.0,-0.002379,0.0018909999999999999,0.00061,0.56,-1.4875,-3.6925000000000003,0.5736875,-0.2505625,-0.27221875,0.7375625,0.5276875,-0.6929062500000001,-0.986625,0.6503125,0.017913798623845664,0.028591546477365386,True
30206,5300,0,5301,3900.0,40509.0,45475.0,-0.00183,0.000488,0.0017079999999999999,0.5075000000000001,-1.5050000000000001,-3.7625,0.5731875,-0.24975,-0.27375,0.731125,0.52775,-0.687875,-0.990125,0.64190625,0.017746565874948737,0.028666323197663077,True
30207,5301,0,5302,3902.0,40509.0,45474.0,0.000244,-0.000244,0.00042699999999999997,0.45500000000000007,-1.6450000000000002,-3.7975000000000003,0.58040625,-0.245125,-0.272125,0.7303437500000001,0.5349375000000001,-0.6898125,-0.99321875,0.6403125000000001,0.01801097112422381,0.028851575989987287,True
30208,5302,0,5303,3904.0,40509.0,45477.0,0.001403,-0.001098,-6.1e-05,0.36750000000000005,-1.7500000000000002,-3.7625,0.57415625,-0.24928125,-0.27265625,0.73640625,0.52740625,-0.6930937500000001,-0.99028125,0.6458125,0.01797314279422764,0.028716163408525064,True
30209,5303,0,5304,3904.0,40509.0,45476.0,0.000366,-0.0006709999999999999,-0.00122,0.35000000000000003,-1.8025000000000002,-3.7625,0.5810625,-0.24631250000000002,-0.2744375,0.730125,0.53246875,-0.6879375,-0.99109375,0.6410625,0.017888290587255412,0.028676465991009297,True
30210,5304,0,5305,3903.0,40508.0,45477.0,0.0013419999999999999,-0.000915,-0.0008539999999999999,0.35000000000000003,-1.6450000000000002,-3.7800000000000002,0.57953125,-0.2471875,-0.27468750000000003,0.732,0.5337500000000001,-0.68659375,-0.990625,0.6414375,0.01779938757245519,0.028648243091159178,True
30211,5305,0,5306,3902.0,40508.0,45477.0,0.000732,0.000183,-0.00042699999999999997,0.43750000000000006,-1.7850000000000001,-3.8500000000000005,0.58028125,-0.247125,-0.275625,0.73065625,0.53390625,-0.68921875,-0.99171875,0.64075,0.017906348292207504,0.02865324138620918,True
30212,5306,0,5307,3905.0,40509.0,45480.0,-0.00042699999999999997,-0.000366,-0.0015249999999999999,0.43750000000000006,-1.7325000000000002,-3.8675,0.58059375,-0.24609375,-0.27415625,0.721125,0.5328437500000001,-0.690125,-0.98928125,0.64071875,0.017984163709175226,0.028617269654364307,True
30213,5307,0,5308,3906.0,40507.0,45480.0,0.000793,0.000183,0.00042699999999999997,0.35000000000000003,-1.61,-3.9025000000000003,0.57078125,-0.24684375,-0.27396875,0.7296875,0.5335,-0.6850937500000001,-0.989625,0.64128125,0.01775362915119575,0.02863813482595277,True
30214,5308,0,5309,3904.0,40507.0,45479.0,0.000549,0.0,0.000915,0.35000000000000003,-1.5750000000000002,-3.9375000000000004,0.57415625,-0.2495,-0.272375,0.73175,0.52709375,-0.691875,-0.99003125,0.64334375,0.017915812387678132,0.028717701183346864,True
30215,5309,0,5310,3905.0,40505.0,45479.0,-0.00061,0.0008539999999999999,0.0018909999999999999,0.35000000000000003,-1.4875,-3.9725000000000006,0.57846875,-0.246875,-0.274875,0.7341875,0.53203125,-0.6902812500000001,-0.98953125,0.64671875,0.017958736294265584,0.02859822550693103,True
30216,5310,0,5311,3907.0,40504.0,45479.0,-0.000366,-0.000244,0.001403,0.28,-1.4875,-3.8500000000000005,0.57303125,-0.250125,-0.27509375,0.729875,0.5278125,-0.68671875,-0.992375,0.641625,0.017685369790183234,0.028700003501067824,True
30217,5311,0,5312,3906.0,40508.0,45480.0,-0.001098,-0.0011589999999999999,0.000244,0.31500000000000006,-1.5225000000000002,-3.7625,0.5729062500000001,-0.24790625,-0.27368750000000003,0.73103125,0.52828125,-0.69253125,-0.99240625,0.637625,0.018006456911945794,0.028757485086094905,True
30218,5312,0,5313,3907.0,40508.0,45481.0,6.1e-05,-0.001037,-0.000549,0.47250000000000003,-1.4875,-3.6750000000000003,0.57328125,-0.24834375,-0.27209375,0.731,0.52765625,-0.69353125,-0.9879375,0.641,0.018028506959692128,0.028647572453708914,True
30219,5313,0,5314,3907.0,40510.0,45482.0,0.00061,-0.000305,-0.001037,0.43750000000000006,-1.61,-3.7800000000000002,0.5749062500000001,-0.24734375,-0.27290625,0.735,0.537875,-0.6885625,-0.98965625,0.64575,0.017871382750615797,0.028681867122521944,True
30220,5314,0,5315,3908.0,40508.0,45484.0,0.002745,0.000183,-0.0006709999999999999,0.31500000000000006,-1.6975000000000002,-3.8675,0.5738125000000001,-0.24746875000000002,-0.2745625,0.730625,0.5121875,-0.68865625,-0.99253125,0.6365625,0.017870049124281518,0.028727332290521795,True
30221,5315,0,5316,3907.0,40508.0,45483.0,0.001037,0.0011589999999999999,-0.001464,0.35000000000000003,-1.6800000000000002,-3.8500000000000005,0.57784375,-0.24678125,-0.27315625,0.72865625,0.5369375,-0.68040625,-0.9935625,0.637375,0.017569605443589487,0.02882367209556461,True
30222,5316,0,5317,3909.0,40507.0,45483.0,0.002074,0.001037,-0.0015249999999999999,0.385,-1.4700000000000002,-3.9375000000000004,0.5733125,-0.24765625,-0.27515625,0.7253437500000001,0.54015625,-0.68578125,-0.99559375,0.6370625,0.017748071068238926,0.028822579979721426,True
30223,5317,0,5318,3909.0,40510.0,45486.0,-0.0028669999999999998,0.001281,0.0021349999999999997,0.3325,-1.1900000000000002,-3.8150000000000004,0.5952500000000001,-0.248,-0.270625,0.7335625,0.539625,-0.68421875,-0.98728125,0.6423125000000001,0.01767196905917875,0.028680841378051086,True
30224,5318,0,5319,3911.0,40511.0,45488.0,-0.0021349999999999997,-0.00042699999999999997,0.0026839999999999998,0.42000000000000004,-1.3125000000000002,-3.7800000000000002,0.5708125000000001,-0.24496875,-0.26334375,0.7299375,0.52334375,-0.6920625,-0.9879687500000001,0.64215625,0.018106780265925538,0.028998955747453464,True
30225,5319,0,5320,3911.0,40511.0,45488.0,-0.002074,-0.000549,0.000183,0.3325,-1.4175000000000002,-3.8325000000000005,0.56615625,-0.25178125,-0.2671875,0.75071875,0.5345625,-0.6900937500000001,-0.98775,0.64953125,0.017752565236816894,0.028836629948674853,True
30226,5320,0,5321,3910.0,40513.0,45492.0,-0.0032329999999999998,-0.000549,-0.0017079999999999999,0.36750000000000005,-1.6275000000000002,-3.9025000000000003,0.5608125,-0.2556875,-0.2669375,0.72328125,0.52415625,-0.69359375,-0.98021875,0.64271875,0.017733597403172634,0.028553843228454518,True
30227,5321,0,5322,3913.0,40513.0,45490.0,-0.001464,0.000244,0.000305,0.4025,-1.6450000000000002,-3.8675,0.574375,-0.24215625000000002,-0.278875,0.720625,0.52209375,-0.6889375,-0.99446875,0.63803125,0.01809641463914759,0.028630084406174868,True
30228,5322,0,5323,3912.0,40512.0,45492.0,0.0032329999999999998,0.001098,-0.000488,0.5075000000000001,-2.1175,-3.9375000000000004,0.58146875,-0.2386875,-0.27868750000000003,0.7218125,0.5411875,-0.6879375,-0.996,0.62453125,0.018197145873364268,0.028697091534645544,True
30229,5323,0,5324,3914.0,40512.0,45491.0,0.00732,0.001037,-0.000549,0.385,-2.0300000000000002,-3.9200000000000004,0.5955312500000001,-0.24765625,-0.26540625,0.75321875,0.54240625,-0.689625,-0.987125,0.6538437500000001,0.01790099080079183,0.028883625066909457,True
30230,5324,0,5325,3913.0,40512.0,45492.0,0.0040869999999999995,-0.000732,-0.00183,0.24500000000000002,-1.8725000000000003,-3.8325000000000005,0.56053125,-0.25734375,-0.26890625,0.74375,0.51125,-0.693375,-0.9883125,0.6491250000000001,0.01765782320156722,0.02878970918904588,True
30231,5325,0,5326,3915.0,40512.0,45492.0,-0.000488,-0.000244,-0.00122,0.24500000000000002,-1.5575,-3.8325000000000005,0.56975,-0.250625,-0.2716875,0.72946875,0.5250312500000001,-0.69265625,-0.99009375,0.642875,0.01790132440692767,0.028747641252846436,True
30232,5326,0,5327,3915.0,40513.0,45494.0,-0.004514,0.000183,0.001952,0.4025,-1.1375000000000002,-3.9025000000000003,0.59175,-0.2499375,-0.2758125,0.7398750000000001,0.5370625,-0.6874375,-0.99040625,0.6431875,0.017721563852060383,0.02859472322503761,True
30233,5327,0,5328,3916.0,40511.0,45497.0,-0.001952,-0.0013419999999999999,0.000549,0.17500000000000002,-1.5050000000000001,-3.8850000000000002,0.5561875000000001,-0.248,-0.2733125,0.74084375,0.52515625,-0.69084375,-0.98971875,0.63396875,0.01793554543878234,0.02866803973133951,True
30234,5328,0,5329,3917.0,40515.0,45497.0,-0.001281,-0.000549,0.001037,0.14,-1.7675,-3.9725000000000006,0.5695625,-0.2511875,-0.275125,0.72259375,0.52721875,-0.69225,-0.9907812500000001,0.64125,0.017862385971306786,0.028636809823622465,True
30235,5329,0,5330,3917.0,40514.0,45500.0,0.000244,-0.000244,-0.0006709999999999999,0.2625,-1.715,-3.99,0.58521875,-0.24325,-0.27618750000000003,0.72115625,0.53265625,-0.6890625,-0.99153125,0.6409375,0.018057084994620595,0.02862344619239767,True
30236,5330,0,5331,3919.0,40513.0,45500.0,0.0025009999999999998,0.000183,-0.000488,0.31500000000000006,-1.6625,-3.8500000000000005,0.57853125,-0.25071875,-0.26678125,0.734625,0.5316875,-0.68946875,-0.9895625,0.649,0.017770734738875252,0.0289233254883914,True
30237,5331,0,5332,3917.0,40516.0,45503.0,0.002623,0.000915,-0.000244,0.29750000000000004,-1.6275000000000002,-3.9200000000000004,0.57234375,-0.2483125,-0.274625,0.72796875,0.5278437500000001,-0.6854375,-0.9909375,0.6325000000000001,0.017707808500457004,0.02866289029773293,True
30238,5332,0,5333,3918.0,40516.0,45502.0,0.000305,0.001037,-0.0017079999999999999,0.1925,-1.4525000000000001,-3.9025000000000003,0.5751875,-0.24771875000000002,-0.27225,0.73625,0.52753125,-0.69225,-0.991,0.6335937500000001,0.018002865271492068,0.028760353727341842,True
30239,5333,0,5334,3919.0,40518.0,45504.0,-0.0006709999999999999,0.000366,-0.0015249999999999999,0.17500000000000002,-1.2775,-3.8500000000000005,0.5779062500000001,-0.24690625,-0.2743125,0.73221875,0.53271875,-0.68896875,-0.9891875,0.64775,0.017905263864048594,0.028607372688687856,True
30240,5334,0,5335,3921.0,40517.0,45503.0,-0.0015249999999999999,-0.000305,0.0,0.24500000000000002,-1.2425000000000002,-3.8675,0.57446875,-0.24790625,-0.27187500000000003,0.7225,0.52478125,-0.689875,-0.99059375,0.64103125,0.01790080954237314,0.02875957078850918,True
30241,5335,0,5336,3922.0,40519.0,45507.0,-6.1e-05,-0.000366,0.001403,0.24500000000000002,-1.0675000000000001,-3.8675,0.57953125,-0.2501875,-0.272875,0.73128125,0.53140625,-0.6905625,-0.990125,0.641375,0.01783576214596164,0.028701337028126113,True
30242,5336,0,5337,3922.0,40520.0,45506.0,-0.002928,-6.1e-05,0.001037,0.385,-1.1900000000000002,-3.8675,0.579875,-0.24759375,-0.27184375,0.736,0.53409375,-0.690125,-0.989625,0.63590625,0.0179234106753206,0.028723170115597975,True
30243,5337,0,5338,3922.0,40519.0,45510.0,-0.0046359999999999995,0.0008539999999999999,0.001464,0.36750000000000005,-1.2075,-3.8850000000000002,0.57440625,-0.2466875,-0.2755,0.733375,0.5338125,-0.69103125,-0.9897812500000001,0.64675,0.017996160042930566,0.028582933273975736,True
30244,5338,0,5339,3922.0,40518.0,45511.0,-0.0030499999999999998,0.001769,0.000915,0.45500000000000007,-1.4875,-3.8150000000000004,0.57478125,-0.249,-0.27303125,0.73078125,0.528,-0.6898125,-0.991125,0.6414062500000001,0.01785402380030225,0.028733950552446118,True
30245,5339,0,5340,3924.0,40522.0,45513.0,0.000488,0.000183,0.00183,0.29750000000000004,-1.7500000000000002,-3.8675,0.58203125,-0.24706250000000002,-0.2723125,0.7365625,0.5357500000000001,-0.68434375,-0.9903125,0.646625,0.017714923047123746,0.028731133314159232,True
30246,5340,0,5341,3925.0,40522.0,45511.0,0.003721,-6.1e-05,0.00122,0.35000000000000003,-2.1525000000000003,-3.8150000000000004,0.5739062500000001,-0.24796875000000002,-0.2750625,0.73078125,0.52778125,-0.68878125,-0.99203125,0.6436875,0.01785476956259232,0.028687894266297385,True
30247,5341,0,5342,3924.0,40525.0,45511.0,0.005246,0.0006709999999999999,-0.0034159999999999998,0.42000000000000004,-2.1875,-3.9025000000000003,0.57309375,-0.2486875,-0.27165625,0.73865625,0.52775,-0.69153125,-0.98940625,0.64828125,0.01793504604944256,0.028722171019969715,True
30248,5342,0,5343,3926.0,40522.0,45513.0,0.003294,-0.000183,-0.002989,0.28,-1.8900000000000001,-3.9375000000000004,0.57321875,-0.25025000000000003,-0.27240625,0.72953125,0.5280312500000001,-0.69278125,-0.9911562500000001,0.641625,0.017921482619540883,0.028760173911521202,True
30249,5343,0,5344,3927.0,40523.0,45514.0,0.000305,-0.0023179999999999997,-0.0015249999999999999,0.17500000000000002,-1.4000000000000001,-4.077500000000001,0.5729375,-0.2499375,-0.2655,0.7288125,0.52671875,-0.68921875,-0.9861562500000001,0.6414062500000001,0.01779243217244369,0.028842221380089225,True
30250,5344,0,5345,3927.0,40523.0,45516.0,-0.002745,-0.0044529999999999995,0.000793,0.12250000000000001,-1.2075,-4.077500000000001,0.57359375,-0.24984375,-0.273375,0.731375,0.53415625,-0.68875,-0.9915625,0.640875,0.017777580881980656,0.02873719880459655,True
30251,5345,0,5346,3928.0,40523.0,45515.0,-0.0035989999999999998,-0.003538,0.002623,0.10500000000000001,-1.3125000000000002,-3.99,0.58078125,-0.24615625,-0.276125,0.7313437500000001,0.53515625,-0.688875,-0.99140625,0.64128125,0.017931912652966165,0.028621088499171592,True
30252,5346,0,5347,3927.0,40523.0,45518.0,-0.000488,0.00061,0.002074,0.49000000000000005,-1.3650000000000002,-3.7625,0.5816250000000001,-0.24796875000000002,-0.27518750000000003,0.72446875,0.534875,-0.68875,-0.99284375,0.64059375,0.017853526403726394,0.028714469516899214,True
30253,5347,0,5348,3930.0,40524.0,45520.0,-0.000122,0.0028669999999999998,0.001037,0.4025,-1.3475000000000001,-3.8325000000000005,0.5810625,-0.24634375,-0.27615625,0.7308125,0.5329375000000001,-0.68915625,-0.98571875,0.6404062500000001,0.017935505592662774,0.028398722770382582,True
30254,5348,0,5349,3930.0,40525.0,45522.0,0.001037,0.002745,-0.00042699999999999997,0.385,-1.3475000000000001,-3.7975000000000003,0.58284375,-0.246875,-0.273125,0.73040625,0.53428125,-0.68884375,-0.9863125,0.6403125000000001,0.01790155725701006,0.028543127362230823,True
30255,5349,0,5350,3929.0,40525.0,45521.0,-0.000915,0.0035989999999999998,-0.004026,0.43750000000000006,-1.4875,-3.8850000000000002,0.5797187500000001,-0.24809375,-0.27546875,0.731,0.533,-0.6890000000000001,-0.9921875,0.64275,0.01785840860302159,0.028677711784932794,True
30256,5350,0,5351,3931.0,40526.0,45520.0,-0.000976,0.004392,-0.004148,0.525,-1.4875,-3.7625,0.57321875,-0.25003125,-0.272375,0.73259375,0.527375,-0.6906875,-0.9899687500000001,0.644375,0.017847062784298737,0.028715272002891163,True
30257,5351,0,5352,3930.0,40525.0,45523.0,-0.000549,0.001586,0.00061,0.35000000000000003,-1.5575,-3.7625,0.574125,-0.24703125,-0.2740625,0.72696875,0.532,-0.68940625,-0.9918125,0.6404375,0.017917603830590295,0.028719405605335747,True
30258,5352,0,5353,3933.0,40526.0,45524.0,0.000976,-0.002562,0.004331,0.28,-1.435,-3.8150000000000004,0.58215625,-0.248125,-0.2728125,0.738375,0.5278125,-0.69225,-0.9895,0.64396875,0.017986412740839737,0.028679545409071812,True
30259,5353,0,5354,3932.0,40525.0,45523.0,0.0013419999999999999,-0.0051849999999999995,0.005978,0.052500000000000005,-1.435,-3.7800000000000002,0.57421875,-0.2499375,-0.27246875,0.7344375,0.52896875,-0.6885,-0.991625,0.6415,0.01776383741418069,0.028775889923124246,True
30260,5354,0,5355,3933.0,40524.0,45520.0,0.000366,-0.005978,0.004026,0.0,-1.4700000000000002,-3.8150000000000004,0.5733125,-0.2491875,-0.27253125,0.729875,0.53371875,-0.68915625,-0.9918125,0.637,0.017820323446654844,0.02878067567128234,True
30261,5355,0,5356,3932.0,40523.0,45521.0,-0.000122,-0.0040869999999999995,0.0006709999999999999,0.035,-1.5225000000000002,-3.7975000000000003,0.574875,-0.24690625,-0.2735625,0.73153125,0.53446875,-0.69034375,-0.99221875,0.6409375,0.017959956511338568,0.028755200056017435,True
30262,5356,0,5357,3933.0,40521.0,45516.0,0.000244,-0.0008539999999999999,-0.0046359999999999995,0.10500000000000001,-1.5575,-3.7800000000000002,0.5779062500000001,-0.24640625,-0.27546875,0.7303437500000001,0.5358125,-0.687875,-0.99128125,0.6403125000000001,0.01788200685559207,0.028642489068062486,True
30263,5357,0,5358,3932.0,40522.0,45512.0,0.0008539999999999999,0.0008539999999999999,-0.004514,0.21000000000000002,-1.8200000000000003,-3.7975000000000003,0.5814375,-0.24781250000000002,-0.2724375,0.7324375,0.52746875,-0.6938125,-0.99090625,0.635,0.0180612046033799,0.028749207524236944,True
30264,5358,0,5359,3932.0,40519.0,45508.0,0.001586,0.000488,-0.00244,0.22750000000000004,-1.6625,-3.8325000000000005,0.5816250000000001,-0.248375,-0.2731875,0.7311875,0.52459375,-0.6949062500000001,-0.98778125,0.63846875,0.018081917196992803,0.028597727139139256,True
30265,5359,0,5360,3932.0,40518.0,45509.0,0.0006709999999999999,0.001586,-0.000976,0.385,-1.5925000000000002,-3.7625,0.58028125,-0.24796875000000002,-0.273,0.73221875,0.5230625,-0.6950937500000001,-0.99203125,0.628125,0.01810582314553878,0.028770420571557185,True
30266,5360,0,5361,3931.0,40517.0,45506.0,0.0008539999999999999,0.002379,0.002989,0.385,-1.5575,-3.8850000000000002,0.578875,-0.246875,-0.27187500000000003,0.73303125,0.53278125,-0.69659375,-0.98778125,0.63496875,0.018209748054830433,0.028650252811061403,True
30267,5361,0,5362,3931.0,40520.0,45507.0,0.000366,0.000488,0.0025009999999999998,0.36750000000000005,-1.5750000000000002,-3.9375000000000004,0.57803125,-0.2479375,-0.27196875,0.739125,0.54021875,-0.6872812500000001,-0.98828125,0.63115625,0.01779636022091335,0.028665937158042835,True
30268,5362,0,5363,3930.0,40520.0,45508.0,-6.1e-05,0.000549,0.00061,0.42000000000000004,-1.6450000000000002,-3.99,0.57734375,-0.24678125,-0.27221875,0.7308125,0.543125,-0.6880625,-0.9928750000000001,0.65521875,0.017874276282312553,0.028834467823329647,True
30269,5363,0,5364,3931.0,40518.0,45508.0,-0.00061,0.0026839999999999998,-0.001952,0.42000000000000004,-1.5575,-3.9375000000000004,0.57365625,-0.24978125,-0.27368750000000003,0.73109375,0.5212187500000001,-0.68940625,-0.993625,0.6400625,0.01780622002604862,0.028804845235535056,True
30270,5364,0,5365,3931.0,40519.0,45505.0,-0.00183,0.002562,-0.000976,0.2625,-1.2950000000000002,-3.9375000000000004,0.57740625,-0.24940625,-0.2724375,0.7331875,0.5219375,-0.6961875,-0.9905625,0.6354375,0.01809110211849501,0.028735847782537908,True
30271,5365,0,5366,3932.0,40517.0,45507.0,-0.0026839999999999998,0.001586,-0.001952,0.2625,-1.4525000000000001,-3.8850000000000002,0.58125,-0.24734375,-0.2724375,0.738125,0.54071875,-0.697375,-0.9873437500000001,0.64328125,0.018221825193973043,0.028610734184180742,True
30272,5366,0,5367,3932.0,40519.0,45508.0,-0.001098,-0.000488,0.00122,0.22750000000000004,-1.4175000000000002,-3.7450000000000006,0.57421875,-0.249125,-0.272625,0.7213125,0.5324375,-0.6870625,-0.9931562500000001,0.637375,0.017739554878187715,0.028829141977616376,True
30273,5367,0,5368,3932.0,40517.0,45506.0,-0.000244,-0.0021349999999999997,0.0015249999999999999,0.21000000000000002,-1.5575,-3.7625,0.57275,-0.2486875,-0.2711875,0.73553125,0.51871875,-0.69415625,-0.9880625000000001,0.656375,0.018039439999088854,0.028688698853702642,True
30274,5368,0,5369,3931.0,40517.0,45507.0,0.002379,-0.0028669999999999998,0.000915,0.21000000000000002,-1.6450000000000002,-3.7800000000000002,0.5628125,-0.24975,-0.2645625,0.7365625,0.52684375,-0.69315625,-0.9906875,0.63534375,0.01795664537618596,0.029055823294177087,True
30275,5369,0,5370,3930.0,40517.0,45504.0,0.0025009999999999998,-0.002928,-0.000488,0.14,-1.6800000000000002,-3.7975000000000003,0.5756875,-0.24656250000000002,-0.27584375,0.7308125,0.54378125,-0.68165625,-0.99084375,0.6440625,0.017628223389587153,0.02861047858778278,True
30276,5370,0,5371,3930.0,40519.0,45504.0,0.002623,-0.0021349999999999997,-0.000976,0.22750000000000004,-1.6450000000000002,-3.8500000000000005,0.5759062500000001,-0.25071875,-0.27309375,0.73809375,0.5218125,-0.691625,-0.98840625,0.64071875,0.017856510051485072,0.028625775203250506,True
30277,5371,0,5372,3930.0,40518.0,45505.0,0.00122,-0.000549,-0.002257,0.35000000000000003,-1.2600000000000002,-3.8675,0.573875,-0.246375,-0.27625,0.7183437500000001,0.539625,-0.687125,-0.9884375,0.641,0.017853435748391114,0.028500681565223916,True
30278,5372,0,5373,3930.0,40517.0,45506.0,-0.000732,0.000122,-0.002806,0.21000000000000002,-1.05,-4.0075,0.5788125000000001,-0.245125,-0.26496875000000003,0.7296875,0.52615625,-0.69471875,-0.98484375,0.64571875,0.018206068858346483,0.028812467558457316,True
30279,5373,0,5374,3931.0,40516.0,45504.0,-0.0023179999999999997,0.001769,-0.001037,0.22750000000000004,-0.9275000000000001,-3.9725000000000006,0.56771875,-0.24725,-0.27321875,0.73065625,0.5288437500000001,-0.6893125,-0.993125,0.63009375,0.017905014568550665,0.028804171147065443,True
30280,5374,0,5375,3929.0,40519.0,45505.0,-0.005124,0.00183,0.001952,0.31500000000000006,-0.9975,-3.8150000000000004,0.579375,-0.2476875,-0.272125,0.736,0.52728125,-0.68846875,-0.98984375,0.64671875,0.01785372979035,0.028720417669678307,True
30281,5375,0,5376,3929.0,40518.0,45505.0,-0.0037819999999999998,0.001281,0.003294,0.24500000000000002,-0.9975,-3.9725000000000006,0.5734375,-0.2459375,-0.27378125000000003,0.73103125,0.526,-0.6900937500000001,-0.9921875,0.64078125,0.01798924923077702,0.028745232885276646,True
30282,5376,0,5377,3931.0,40519.0,45508.0,-0.000488,0.000549,0.0025009999999999998,0.29750000000000004,-1.5575,-3.8675,0.581125,-0.24731250000000002,-0.27184375,0.7368125,0.53546875,-0.68903125,-0.9894375,0.6411875,0.01789129535003525,0.028715882460339494,True
30283,5377,0,5378,3930.0,40517.0,45507.0,0.001403,0.000915,-0.000488,0.4025,-1.9425000000000001,-3.8675,0.5739062500000001,-0.249,-0.2731875,0.72853125,0.52796875,-0.6895,-0.9935,0.6405625,0.017841592579841633,0.02881999319823154,True
30284,5378,0,5379,3931.0,40518.0,45508.0,0.000915,0.002928,-0.002623,0.49000000000000005,-1.995,-3.7975000000000003,0.5796250000000001,-0.24684375,-0.2731875,0.73128125,0.53159375,-0.69146875,-0.98640625,0.6468125,0.018007231748820126,0.02854427094732761,True
30285,5379,0,5380,3930.0,40518.0,45511.0,0.001403,0.0018909999999999999,-0.003965,0.45500000000000007,-2.1,-3.8150000000000004,0.574125,-0.2495,-0.26721875,0.7301875,0.52815625,-0.69034375,-0.99,0.641,0.017854905321032642,0.02892281912765106,True
30286,5380,0,5381,3932.0,40519.0,45509.0,0.003904,-0.000305,-0.002196,0.4025,-2.1700000000000004,-3.7450000000000006,0.57978125,-0.24681250000000002,-0.27178125000000003,0.73571875,0.5359375000000001,-0.689875,-0.98953125,0.647,0.017945109078114006,0.02872202734895237,True
30287,5381,0,5382,3931.0,40517.0,45511.0,0.005246,-0.001647,0.001098,0.22750000000000004,-2.0300000000000002,-3.8850000000000002,0.57415625,-0.2490625,-0.26678125,0.73053125,0.5276875,-0.68978125,-0.99225,0.641,0.017850249280762665,0.02902774860206664,True
30288,5382,0,5383,3931.0,40519.0,45510.0,0.004514,-0.001952,-6.1e-05,0.31500000000000006,-1.6450000000000002,-3.7800000000000002,0.58128125,-0.247125,-0.27440625,0.7343125,0.53753125,-0.6892812500000001,-0.988625,0.6488125,0.01790883442587054,0.028581754698387765,True
30289,5383,0,5384,3933.0,40518.0,45509.0,-6.1e-05,-0.002196,0.000488,0.24500000000000002,-1.2950000000000002,-3.8150000000000004,0.57384375,-0.25059375,-0.2725,0.73234375,0.52765625,-0.6911875000000001,-0.99009375,0.64090625,0.017844170111299833,0.028715128369616462,True
30290,5384,0,5385,3933.0,40516.0,45509.0,-0.003965,-0.001464,0.000793,0.1925,-0.8750000000000001,-3.7800000000000002,0.5851875,-0.246375,-0.27403125,0.7349687500000001,0.53253125,-0.68965625,-0.9895,0.64534375,0.01795412805716969,0.028630774925468703,True
30291,5385,0,5386,3933.0,40517.0,45511.0,-0.00793,0.000183,-0.00042699999999999997,0.29750000000000004,-0.7525000000000001,-3.9200000000000004,0.5710625,-0.25046875,-0.27915625,0.72346875,0.5279375000000001,-0.69021875,-0.9910625000000001,0.6411250000000001,0.017810696796681885,0.028486433900119294,True
30292,5386,0,5387,3933.0,40518.0,45512.0,-0.0037819999999999998,0.0,0.0023179999999999997,0.31500000000000006,-1.1900000000000002,-3.8850000000000002,0.5858125,-0.248625,-0.27025,0.7417812500000001,0.53465625,-0.685,-0.9897812500000001,0.6472187500000001,0.01767773951792587,0.028793019146576164,True
30293,5387,0,5388,3933.0,40517.0,45508.0,-0.00042699999999999997,-0.000244,0.000122,0.42000000000000004,-1.6625,-3.9375000000000004,0.56784375,-0.2520625,-0.26721875,0.7304375,0.5278437500000001,-0.69078125,-0.99046875,0.64396875,0.01776852443662551,0.028941033769124474,True
30294,5388,0,5389,3934.0,40521.0,45512.0,0.0021349999999999997,0.0,0.000915,0.43750000000000006,-1.9775000000000003,-3.9550000000000005,0.57984375,-0.24546875,-0.272375,0.72671875,0.53659375,-0.68896875,-0.99028125,0.64025,0.017963488248167514,0.0287274177836634,True
30295,5389,0,5390,3934.0,40519.0,45513.0,0.0040869999999999995,0.0006709999999999999,-6.1e-05,0.5425000000000001,-2.1525000000000003,-3.9200000000000004,0.57478125,-0.2539375,-0.27078125000000003,0.740625,0.5278125,-0.6924375,-0.98578125,0.64790625,0.01775847362173135,0.028616275506694436,True
30296,5390,0,5391,3934.0,40518.0,45511.0,0.0042699999999999995,0.002562,-0.000915,0.5775,-2.1350000000000002,-3.7800000000000002,0.5785625,-0.244875,-0.2734375,0.74053125,0.5300625,-0.6895,-0.98203125,0.64725,0.018008667652240833,0.028364136723269852,True
30297,5391,0,5392,3934.0,40519.0,45513.0,0.0015249999999999999,0.002928,-0.002196,0.49000000000000005,-1.715,-3.7625,0.56965625,-0.25109375,-0.27468750000000003,0.727375,0.52153125,-0.68690625,-0.9928750000000001,0.6400625,0.017653589136953928,0.028735689671556392,True
30298,5392,0,5393,3934.0,40518.0,45512.0,0.000732,0.0017079999999999999,-0.000549,0.45500000000000007,-1.61,-3.7275000000000005,0.56575,-0.24959375,-0.27078125000000003,0.73928125,0.5315625,-0.6925625,-0.98946875,0.64490625,0.01793935927063058,0.02875961498781361,True
30299,5393,0,5394,3934.0,40518.0,45512.0,-0.000549,0.00122,-0.000305,0.49000000000000005,-1.4525000000000001,-3.6925000000000003,0.588125,-0.2455,-0.27496875,0.74475,0.533625,-0.689375,-0.99159375,0.64540625,0.017978381388755283,0.0286746418483215,True
30300,5394,0,5395,3933.0,40519.0,45514.0,-0.0015249999999999999,0.0,0.000915,0.525,-1.2075,-3.6050000000000004,0.56975,-0.25,-0.273125,0.733875,0.5278437500000001,-0.6888125,-0.99059375,0.6408125,0.017773738611364966,0.028709551968928316,True
30301,5395,0,5396,3935.0,40520.0,45515.0,-0.002257,-0.002257,0.0013419999999999999,0.49000000000000005,-0.9975,-3.5175000000000005,0.56965625,-0.245875,-0.2794375,0.720625,0.52959375,-0.68896875,-0.99053125,0.641375,0.017947033530916513,0.02845452715215888,True
30302,5396,0,5397,3934.0,40519.0,45517.0,-0.000976,-0.002623,0.0013419999999999999,0.385,-1.225,-3.6050000000000004,0.5828125000000001,-0.24590625,-0.27303125,0.73,0.530875,-0.68746875,-0.98990625,0.64425,0.017886098589998213,0.0286865822075663,True
30303,5397,0,5398,3935.0,40521.0,45515.0,0.000915,-0.0030499999999999998,-0.00042699999999999997,0.3325,-1.4875,-3.6225000000000005,0.569625,-0.24971875000000002,-0.2739375,0.7282500000000001,0.52846875,-0.6901875000000001,-0.992375,0.64109375,0.017839830094445418,0.028746267611621548,True
30304,5398,0,5399,3935.0,40518.0,45513.0,0.00122,-0.0021349999999999997,-0.000122,0.3325,-1.5575,-3.6400000000000006,0.57675,-0.25021875,-0.2716875,0.729125,0.5280312500000001,-0.6911875000000001,-0.9899687500000001,0.6415625,0.01785935771618923,0.02874278304169548,True
30305,5399,0,5400,3935.0,40519.0,45517.0,0.001281,-0.001037,-0.000732,0.31500000000000006,-1.435,-3.6925000000000003,0.5815625,-0.24809375,-0.2724375,0.73765625,0.53221875,-0.69046875,-0.9894375,0.64384375,0.017916832785930804,0.028692122421723174,True
30306,5400,0,5401,3933.0,40519.0,45515.0,0.0006709999999999999,6.1e-05,6.1e-05,0.36750000000000005,-1.4700000000000002,-3.6750000000000003,0.579125,-0.24728125,-0.27434375,0.732625,0.532875,-0.6886875,-0.99,0.647,0.01787888683835461,0.028637705082032814,True
30307,5401,0,5402,3936.0,40518.0,45517.0,-0.000305,0.0011589999999999999,-0.0015249999999999999,0.35000000000000003,-1.5925000000000002,-3.7275000000000005,0.56425,-0.24581250000000002,-0.27615625,0.7305,0.528375,-0.68921875,-0.9945,0.6402187500000001,0.017959509148097286,0.028740072816019528,True
30308,5402,0,5403,3936.0,40518.0,45517.0,-0.0008539999999999999,0.001403,0.00042699999999999997,0.35000000000000003,-1.4875,-3.8325000000000005,0.573875,-0.24775,-0.27328125000000003,0.7313437500000001,0.52825,-0.68753125,-0.998625,0.6415,0.017813901501390506,0.02901534584402142,True
30309,5403,0,5404,3934.0,40519.0,45518.0,0.000122,0.000488,0.000305,0.385,-1.4875,-3.9025000000000003,0.57846875,-0.24953125,-0.2729375,0.731375,0.52384375,-0.69715625,-1.0034687500000001,0.632125,0.018124556344417186,0.02921719611403918,True
30310,5404,0,5405,3936.0,40517.0,45519.0,-0.000976,0.000549,0.001037,0.4025,-1.435,-3.7450000000000006,0.5793125,-0.24928125,-0.273,0.730625,0.52128125,-0.69159375,-1.000375,0.628375,0.017913485232195676,0.02909456358154628,True
30311,5405,0,5406,3936.0,40517.0,45519.0,-0.000244,0.00061,0.000488,0.42000000000000004,-1.435,-3.9200000000000004,0.58015625,-0.24890625,-0.2721875,0.7312500000000001,0.51446875,-0.69228125,-0.99440625,0.64115625,0.01795601611333501,0.028895215304424366,True
30312,5406,0,5407,3935.0,40517.0,45520.0,0.0,0.0013419999999999999,-0.000793,0.35000000000000003,-1.54,-3.8150000000000004,0.57846875,-0.2505,-0.2725625,0.73040625,0.5113125000000001,-0.6892812500000001,-0.9993125,0.63365625,0.017772135428203283,0.029070799446984794,True
30313,5407,0,5408,3938.0,40518.0,45518.0,0.0006709999999999999,0.001647,-0.00061,0.49000000000000005,-1.5925000000000002,-3.8325000000000005,0.5806250000000001,-0.2479375,-0.27178125000000003,0.7306875,0.52084375,-0.695625,-0.993125,0.63096875,0.018128210968542,0.028861686963915077,True
30314,5408,0,5409,3937.0,40517.0,45517.0,0.001647,0.000488,-0.00244,0.42000000000000004,-1.61,-3.8675,0.57865625,-0.25028125,-0.27259375,0.73075,0.5152187500000001,-0.693375,-0.9919687500000001,0.6466875,0.017943831088297973,0.028784246939329263,True
30315,5409,0,5410,3937.0,40517.0,45519.0,0.0023179999999999997,-0.000366,-0.001281,0.31500000000000006,-1.61,-3.8325000000000005,0.57478125,-0.24678125,-0.272625,0.7321562500000001,0.521875,-0.68503125,-0.98178125,0.65565625,0.01775367410158737,0.028386936980324413,True
30316,5410,0,5411,3937.0,40515.0,45517.0,-0.001769,0.000122,0.001098,0.28,-1.435,-3.9550000000000005,0.573625,-0.24390625000000002,-0.276125,0.733625,0.52109375,-0.68559375,-0.98371875,0.6588125,0.017892520814898366,0.028322194829382634,True
30317,5411,0,5412,3937.0,40517.0,45521.0,-0.003111,0.000305,0.000915,0.43750000000000006,-1.3825,-3.8850000000000002,0.5754375,-0.24690625,-0.27209375,0.73071875,0.55353125,-0.68871875,-0.98465625,0.63015625,0.017895319091842304,0.028520004152548625,True
30318,5412,0,5413,3938.0,40519.0,45523.0,-0.001464,-0.00122,0.0015249999999999999,0.3325,-1.2950000000000002,-3.9025000000000003,0.5797187500000001,-0.25109375,-0.27568750000000003,0.729,0.5153125000000001,-0.6929062500000001,-0.99559375,0.63959375,0.017892284347858004,0.028801326233748696,True
30319,5413,0,5414,3937.0,40519.0,45523.0,-0.000244,-0.001769,0.000305,0.22750000000000004,-1.5750000000000002,-3.8675,0.57365625,-0.24671875000000001,-0.275875,0.7360625000000001,0.5164375,-0.6811875000000001,-0.98778125,0.6613125,0.017603235257622838,0.02849017457282247,True
30320,5414,0,5415,3939.0,40520.0,45527.0,-0.000793,-0.0011589999999999999,0.000549,0.3325,-1.715,-3.9550000000000005,0.5745,-0.24440625,-0.275,0.73159375,0.5251250000000001,-0.6865,-0.98503125,0.6590312500000001,0.01790832033702631,0.028418265436430064,True
30321,5415,0,5416,3938.0,40520.0,45526.0,0.0008539999999999999,0.000183,-0.000976,0.35000000000000003,-1.8725000000000003,-3.8325000000000005,0.5690625,-0.24721875000000001,-0.272,0.7369687500000001,0.5488125,-0.6873125,-0.98378125,0.6442187500000001,0.01782671767127345,0.028489732714098274,True
30322,5416,0,5417,3940.0,40518.0,45528.0,0.001769,0.0008539999999999999,-0.002196,0.49000000000000005,-1.9600000000000002,-3.7275000000000005,0.57496875,-0.24903125,-0.27225,0.730625,0.53696875,-0.69625,-0.98903125,0.635125,0.018108771574631775,0.028683835032620564,True
30323,5417,0,5418,3940.0,40519.0,45525.0,0.003904,0.000549,-0.001098,0.385,-2.0300000000000002,-3.8325000000000005,0.57359375,-0.25,-0.27525,0.735,0.52334375,-0.68946875,-0.98953125,0.639,0.017799846341367713,0.02858321922304965,True
30324,5418,0,5419,3941.0,40519.0,45527.0,0.003172,0.0008539999999999999,-0.002074,0.42000000000000004,-1.9425000000000001,-3.9025000000000003,0.5739062500000001,-0.24706250000000002,-0.2726875,0.731,0.528,-0.6840937500000001,-0.9929375,0.64228125,0.017704974483821186,0.028818141124867778,True
30325,5419,0,5420,3942.0,40518.0,45526.0,0.002013,0.000915,-0.001098,0.36750000000000005,-1.6800000000000002,-3.8500000000000005,0.57434375,-0.2435,-0.27259375,0.73028125,0.52265625,-0.6929062500000001,-0.991,0.64153125,0.018199811939916957,0.0287465987755592,True
30326,5420,0,5421,3940.0,40519.0,45527.0,-0.001464,0.0013419999999999999,0.001586,0.4025,-1.0675000000000001,-3.8500000000000005,0.5780625,-0.247625,-0.272375,0.7301875,0.5355625,-0.6900937500000001,-0.9861875,0.646625,0.01792090198118426,0.028568283976897233,True
30327,5421,0,5422,3941.0,40519.0,45526.0,-0.002928,0.00042699999999999997,0.002562,0.35000000000000003,-1.0150000000000001,-3.8150000000000004,0.5799062500000001,-0.24775,-0.26840625,0.73253125,0.5371875,-0.68896875,-0.98884375,0.64440625,0.01787108868206575,0.028830365550626968,True
30328,5422,0,5423,3942.0,40519.0,45527.0,-0.002562,-0.000366,0.002257,0.31500000000000006,-1.0675000000000001,-3.8850000000000002,0.58034375,-0.24634375,-0.27087500000000003,0.73578125,0.5358125,-0.68946875,-0.9894375,0.6475,0.017947935797525006,0.028754648839134533,True
30329,5423,0,5424,3943.0,40522.0,45528.0,-0.004209,-0.000549,0.00183,0.24500000000000002,-1.1375000000000002,-3.8850000000000002,0.57125,-0.247,-0.27340625,0.735625,0.52765625,-0.68871875,-0.9896875,0.6468125,0.017891521810948576,0.028663073517826106,True
30330,5424,0,5425,3944.0,40521.0,45532.0,-0.00244,-0.000549,0.0,0.24500000000000002,-1.1375000000000002,-3.9375000000000004,0.574375,-0.24228125,-0.27309375,0.7312500000000001,0.52809375,-0.68940625,-0.9904375,0.64325,0.018109994038435006,0.028704729559056338,True
30331,5425,0,5426,3943.0,40523.0,45533.0,0.0013419999999999999,-0.000549,0.00042699999999999997,0.385,-1.4875,-3.8150000000000004,0.5668125,-0.2465,-0.275625,0.7304375,0.51828125,-0.6885625,-0.9914375,0.6408125,0.01790555849495085,0.028642309991171976,True
30332,5426,0,5427,3945.0,40521.0,45533.0,0.00122,-0.000976,-0.00244,0.3325,-1.6275000000000002,-3.7625,0.57309375,-0.24325,-0.27390625,0.7312500000000001,0.5278125,-0.68559375,-0.99165625,0.6418125,0.017919105146093562,0.02871958516154767,True
30333,5427,0,5428,3946.0,40520.0,45534.0,0.0,-0.000732,-0.0011589999999999999,0.3325,-1.54,-3.7625,0.58084375,-0.24040625000000002,-0.2720625,0.73259375,0.5337500000000001,-0.6894375,-0.9894375,0.6472187500000001,0.018187180246613557,0.0287071287619019,True
30334,5428,0,5429,3944.0,40521.0,45535.0,0.002013,0.000732,-0.0015249999999999999,0.28,-1.4875,-3.7975000000000003,0.5814375,-0.24671875000000001,-0.2718125,0.7440625,0.53534375,-0.68465625,-0.986375,0.6483125,0.017741284122601463,0.028598085956846483,True
30335,5429,0,5430,3944.0,40523.0,45534.0,0.0017079999999999999,-0.001403,0.0,0.28,-1.7500000000000002,-3.7975000000000003,0.57415625,-0.2466875,-0.27768750000000003,0.72890625,0.5275625,-0.69159375,-0.99275,0.64015625,0.018018531104335864,0.028610797131168035,True
30336,5430,0,5431,3946.0,40521.0,45534.0,0.00061,0.000366,-0.000732,0.2625,-1.5050000000000001,-3.99,0.57228125,-0.24965625,-0.27509375,0.7274375000000001,0.53034375,-0.6905,-0.9899375,0.64159375,0.017854792329033434,0.028605263618606488,True
30337,5431,0,5432,3945.0,40522.0,45537.0,0.001403,-0.000244,6.1e-05,0.2625,-1.5050000000000001,-3.8150000000000004,0.57803125,-0.254125,-0.270625,0.72709375,0.535625,-0.6890625,-0.9892500000000001,0.64746875,0.01761660654388963,0.028757365667236915,True
30338,5432,0,5433,3946.0,40522.0,45536.0,-0.001586,0.0006709999999999999,0.000244,0.24500000000000002,-1.225,-3.8675,0.5895625,-0.24465625,-0.2673125,0.74615625,0.5300625,-0.6890625,-0.99184375,0.64246875,0.01800012657426745,0.028990708218556305,True
30339,5433,0,5434,3946.0,40521.0,45537.0,-0.002562,0.002074,0.0,0.28,-1.2425000000000002,-4.0425,0.56725,-0.24481250000000002,-0.26778125,0.7246875,0.52746875,-0.68953125,-0.9895,0.64075,0.01801244201426465,0.028880879969587225,True
30340,5434,0,5435,3947.0,40525.0,45537.0,-0.0026839999999999998,0.001098,0.002074,0.29750000000000004,-1.33,-4.025,0.58875,-0.24484375,-0.2734375,0.7316875,0.53421875,-0.68940625,-0.98728125,0.64090625,0.01800620458420299,0.028568284114543277,True
30341,5435,0,5436,3948.0,40523.0,45538.0,-0.0006709999999999999,-0.001281,-0.000244,0.2625,-1.4525000000000001,-3.9200000000000004,0.56840625,-0.25284375,-0.2705625,0.73809375,0.52946875,-0.69134375,-0.989625,0.6474375,0.017759260267072342,0.028774441393178165,True
30342,5436,0,5437,3948.0,40521.0,45540.0,-0.001403,-0.000793,0.0013419999999999999,0.4025,-1.6450000000000002,-3.9375000000000004,0.58090625,-0.24484375,-0.273875,0.7345625,0.528625,-0.68884375,-0.99190625,0.640875,0.017983831259817503,0.02873055151605332,True
30343,5437,0,5438,3949.0,40522.0,45537.0,0.00061,-6.1e-05,0.0,0.3325,-1.5750000000000002,-3.9725000000000006,0.56934375,-0.24275,-0.2705625,0.719125,0.5300625,-0.68784375,-0.9905,0.6471250000000001,0.01802886288925091,0.028808447209939782,True
30344,5438,0,5439,3949.0,40520.0,45540.0,0.0021349999999999997,-0.002074,-0.001464,0.31500000000000006,-1.715,-3.7975000000000003,0.59284375,-0.24625,-0.2686875,0.74521875,0.5344375,-0.6895,-0.98865625,0.64734375,0.0179529759614411,0.028811823364851805,True
30345,5439,0,5440,3949.0,40521.0,45537.0,0.002013,-0.00061,-0.002196,0.42000000000000004,-1.6275000000000002,-3.8150000000000004,0.57859375,-0.24465625,-0.2795625,0.7321875,0.528,-0.6886875,-0.99265625,0.6406875,0.017985210837959693,0.028532131313573367,True
30346,5440,0,5441,3950.0,40522.0,45540.0,0.00183,0.001281,-0.000122,0.5425000000000001,-1.435,-3.6750000000000003,0.56825,-0.25015625,-0.28128125,0.72603125,0.528125,-0.69228125,-0.99065625,0.64175,0.017905393006164626,0.02838560912140913,True
30347,5441,0,5442,3950.0,40522.0,45541.0,-0.00061,0.002074,0.00042699999999999997,0.45500000000000007,-1.5225000000000002,-3.7625,0.5774375,-0.25,-0.26971875,0.7260625,0.53559375,-0.690125,-0.9903125,0.64378125,0.017825952683512135,0.028834923532868987,True
30348,5442,0,5443,3954.0,40521.0,45542.0,-0.001647,0.002745,0.000366,0.45500000000000007,-1.3825,-3.8675,0.57859375,-0.24853125,-0.27309375,0.72628125,0.536125,-0.69234375,-0.98959375,0.64078125,0.017973688706646167,0.028671934692815884,True
30349,5443,0,5444,3952.0,40523.0,45543.0,-0.002623,0.00061,0.001281,0.42000000000000004,-1.2775,-3.9025000000000003,0.5689375,-0.24653125,-0.27425,0.72846875,0.53021875,-0.6912812500000001,-0.9927812500000001,0.64115625,0.018012431007402668,0.028749551432976275,True
30350,5444,0,5445,3950.0,40523.0,45546.0,-0.0026839999999999998,-0.0011589999999999999,0.0011589999999999999,0.35000000000000003,-1.4700000000000002,-3.8150000000000004,0.5716875,-0.24975,-0.27309375,0.7312500000000001,0.52215625,-0.691375,-0.99040625,0.63275,0.017885800203512357,0.028703514973871226,True
30351,5445,0,5446,3954.0,40524.0,45546.0,0.0,-0.001281,0.00244,0.36750000000000005,-1.8200000000000003,-3.7975000000000003,0.5731875,-0.24584375,-0.2720625,0.7364375,0.536375,-0.6911875000000001,-0.9891875,0.6465625,0.01803654643989885,0.028697411630530203,True
30352,5446,0,5447,3954.0,40523.0,45546.0,0.001464,-0.000976,-0.001281,0.47250000000000003,-2.0475000000000003,-3.6925000000000003,0.57584375,-0.24634375,-0.27265625,0.7354375,0.532375,-0.688875,-0.98953125,0.6476875,0.01792431813924288,0.028687012686562496,True
30353,5447,0,5448,3954.0,40522.0,45544.0,0.003355,0.001037,-0.002379,0.56,-2.1525000000000003,-3.6225000000000005,0.573375,-0.2480625,-0.27175,0.7375,0.53553125,-0.6889375,-0.98946875,0.6471250000000001,0.01785718806246725,0.02872084865749697,True
30354,5448,0,5449,3953.0,40521.0,45544.0,0.003904,0.001037,-0.0006709999999999999,0.5425000000000001,-1.8550000000000002,-3.8150000000000004,0.57371875,-0.24403125,-0.273625,0.7315625,0.5281875,-0.688875,-0.99084375,0.64071875,0.018017983808496743,0.02869926110437948,True
30355,5449,0,5450,3953.0,40524.0,45544.0,0.002196,-0.0021349999999999997,-0.002196,0.28,-1.7675,-3.7800000000000002,0.5748125000000001,-0.2488125,-0.2718125,0.73478125,0.5276875,-0.6920000000000001,-0.9788125,0.64390625,0.017948627085695775,0.028303987629516015,True
30356,5450,0,5451,3955.0,40522.0,45548.0,-0.0008539999999999999,-0.002196,0.000183,0.2625,-1.5050000000000001,-3.8850000000000002,0.5709375,-0.24631250000000002,-0.275,0.73071875,0.5349375000000001,-0.689125,-0.9918125,0.64125,0.017935528294340117,0.028681893320062317,True
30357,5451,0,5452,3957.0,40523.0,45549.0,-0.0017079999999999999,0.001037,0.0013419999999999999,0.4025,-1.6275000000000002,-3.8850000000000002,0.5741875,-0.24953125,-0.27325,0.7301562500000001,0.5278437500000001,-0.6910625,-0.99221875,0.6416875,0.01788222965293616,0.028767703947853773,True
30358,5452,0,5453,3955.0,40525.0,45551.0,-0.000793,0.002074,0.001464,0.525,-1.5925000000000002,-3.7625,0.5765,-0.25075000000000003,-0.26903125,0.7292500000000001,0.52934375,-0.6885625,-0.98990625,0.64715625,0.017733414004966874,0.028846646833659086,True
30359,5453,0,5454,3956.0,40525.0,45554.0,0.00122,0.00183,0.0028669999999999998,0.5425000000000001,-1.54,-3.7625,0.57371875,-0.24059375,-0.2749375,0.72528125,0.5301875,-0.688875,-0.9918125,0.6418125,0.018157216560090325,0.028684394139080544,True
30360,5454,0,5455,3958.0,40522.0,45550.0,0.0018909999999999999,0.001281,0.0013419999999999999,0.42000000000000004,-1.4525000000000001,-3.6925000000000003,0.5805,-0.24671875000000001,-0.27115625,0.73646875,0.5373125,-0.6890937500000001,-0.9897812500000001,0.64871875,0.017917830621061174,0.028756754323329664,True
30361,5455,0,5456,3957.0,40521.0,45551.0,-0.002379,0.003294,-0.0037819999999999998,0.6475000000000001,-1.4175000000000002,-3.6575,0.56040625,-0.24996875000000002,-0.27240625,0.73403125,0.52840625,-0.69178125,-0.9896875,0.64190625,0.01789309955109051,0.028703090024635166,True
30362,5456,0,5457,3957.0,40524.0,45555.0,-0.004392,0.00549,-0.003172,0.7000000000000001,-1.4000000000000001,-3.6400000000000006,0.5816250000000001,-0.247,-0.27618750000000003,0.7308125,0.53259375,-0.68878125,-0.9925625,0.636,0.017894008032494517,0.028663527399401322,True
30363,5457,0,5458,3959.0,40525.0,45558.0,-0.005246,0.004148,-0.001464,0.5775,-1.5225000000000002,-3.4825000000000004,0.5640937500000001,-0.24996875000000002,-0.2675625,0.7311562500000001,0.52834375,-0.68975,-0.9898750000000001,0.64075,0.0178123006510799,0.028904206203512427,True
30364,5458,0,5459,3959.0,40524.0,45554.0,-0.000915,-0.000976,0.0021349999999999997,0.43750000000000006,-1.5750000000000002,-3.6225000000000005,0.58021875,-0.24634375,-0.2721875,0.7359687500000001,0.5351875,-0.68846875,-0.989375,0.642875,0.017908158034304983,0.028699697371382837,True
30365,5459,0,5460,3960.0,40522.0,45551.0,0.0051849999999999995,-0.006771,0.0035989999999999998,0.22750000000000004,-1.8200000000000003,-3.5875000000000004,0.5815625,-0.24681250000000002,-0.27171875,0.737625,0.5370625,-0.68953125,-0.9839687500000001,0.6468125,0.017931436021086874,0.028508280935149666,True
30366,5460,0,5461,3959.0,40522.0,45547.0,0.004758,-0.005856,0.0015249999999999999,0.052500000000000005,-1.7675,-3.6575,0.576875,-0.24634375,-0.2709375,0.7311875,0.52875,-0.68884375,-0.99334375,0.6408125,0.01792307507312893,0.028903945675536107,True
30367,5461,0,5462,3959.0,40522.0,45543.0,0.00244,-0.002928,-0.002013,0.22750000000000004,-1.5225000000000002,-3.7100000000000004,0.57415625,-0.2496875,-0.26496875000000003,0.7371562500000001,0.52846875,-0.6920625,-0.98946875,0.63603125,0.01791567634335933,0.02899221296971349,True
30368,5462,0,5463,3959.0,40518.0,45540.0,-0.001769,-0.00061,-0.004697,0.29750000000000004,-1.54,-3.7975000000000003,0.57409375,-0.24153125,-0.27384375,0.7315,0.52840625,-0.6879375,-0.99175,0.6415,0.0180819580412499,0.02872572949073194,True
30369,5463,0,5464,3959.0,40518.0,45537.0,-0.002562,0.00061,-0.004209,0.29750000000000004,-1.2425000000000002,-3.8325000000000005,0.57428125,-0.24915625,-0.27509375,0.7308125,0.5281875,-0.6906875,-0.99234375,0.64025,0.01788250124667448,0.028698789004132513,True
30370,5464,0,5465,3959.0,40517.0,45536.0,-0.002074,0.0030499999999999998,0.00122,0.3325,-1.5925000000000002,-3.9375000000000004,0.57459375,-0.24390625000000002,-0.27203125,0.731875,0.527875,-0.69134375,-0.990125,0.64159375,0.018121229226335647,0.028735100364644033,True
30371,5465,0,5466,3958.0,40517.0,45533.0,0.000183,0.001098,0.003294,0.43750000000000006,-1.6450000000000002,-3.9550000000000005,0.57846875,-0.24615625,-0.27221875,0.73571875,0.53515625,-0.68403125,-0.98859375,0.64753125,0.0177392013308199,0.028668079811413956,True
30372,5466,0,5467,3957.0,40514.0,45532.0,0.001403,0.001647,0.00366,0.5075000000000001,-1.6450000000000002,-3.7975000000000003,0.5745625,-0.24759375,-0.27315625,0.7318125,0.5285625,-0.691875,-0.985125,0.6408125,0.01799301389627155,0.028495704944441945,True
30373,5467,0,5468,3955.0,40517.0,45529.0,0.0,0.001037,0.002928,0.525,-1.4875,-3.7625,0.5757187500000001,-0.246875,-0.27409375,0.7312500000000001,0.53453125,-0.68890625,-0.992125,0.6434375,0.017904043440563514,0.02873030004451402,True
30374,5468,0,5469,3955.0,40515.0,45527.0,-0.000305,0.001952,0.001769,0.42000000000000004,-1.4525000000000001,-3.8325000000000005,0.57440625,-0.24721875000000001,-0.27203125,0.7319687500000001,0.52846875,-0.691875,-0.9901875,0.6413125000000001,0.01800820107828992,0.028737529480321027,True
30375,5469,0,5470,3955.0,40514.0,45525.0,-0.0011589999999999999,0.0015249999999999999,-0.0023179999999999997,0.35000000000000003,-1.6800000000000002,-3.8500000000000005,0.5704375,-0.24734375,-0.271625,0.734125,0.53621875,-0.68875,-0.9899687500000001,0.65271875,0.01787884157764164,0.028745284045223148,True
30376,5470,0,5471,3955.0,40516.0,45528.0,0.000976,0.000732,-0.003172,0.4025,-1.8900000000000001,-3.7450000000000006,0.5731875,-0.24934375,-0.26809375,0.73184375,0.527875,-0.68871875,-0.99065625,0.63990625,0.017796589788605377,0.028913306348247656,True
30377,5471,0,5472,3955.0,40514.0,45527.0,0.002928,-0.00042699999999999997,-0.002806,0.29750000000000004,-1.9250000000000003,-3.8675,0.580125,-0.246625,-0.2720625,0.7370625000000001,0.540375,-0.689625,-0.987375,0.64978125,0.017942759357422403,0.028626956613089612,True
30378,5472,0,5473,3953.0,40513.0,45524.0,0.002745,-0.001403,6.1e-05,0.1925,-1.8375000000000001,-3.7975000000000003,0.575375,-0.24615625,-0.27478125000000003,0.73078125,0.54025,-0.687125,-0.9937812500000001,0.63759375,0.017862296642480645,0.028767155830012717,True
30379,5473,0,5474,3953.0,40512.0,45524.0,0.00183,-0.001464,0.001647,0.1925,-1.6800000000000002,-3.7975000000000003,0.585,-0.24559375,-0.271625,0.744,0.5378437500000001,-0.68975,-0.98690625,0.65215625,0.017989499691167386,0.02862624299476851,True
30380,5474,0,5475,3952.0,40513.0,45524.0,-0.00244,-0.001769,-0.000183,0.2625,-1.3125000000000002,-3.7625,0.5740000000000001,-0.2449375,-0.28384375,0.7309687500000001,0.5123125000000001,-0.6878125,-0.9853437500000001,0.63784375,0.017939013430209746,0.02807645982457216,True
30381,5475,0,5476,3952.0,40511.0,45521.0,-0.001464,-0.001769,0.000122,0.21000000000000002,-1.2775,-3.9200000000000004,0.5959375,-0.24625,-0.27121875,0.75425,0.53921875,-0.68834375,-0.99,0.64853125,0.0179069829259,0.028762755102040814,True
30382,5476,0,5477,3950.0,40511.0,45522.0,-0.001281,-0.001098,-0.0017079999999999999,0.17500000000000002,-1.2950000000000002,-3.8325000000000005,0.575375,-0.24025,-0.27284375,0.74965625,0.5168125,-0.68721875,-0.9948125,0.63615625,0.018105269553703777,0.028884743584293746,True
30383,5477,0,5478,3952.0,40510.0,45516.0,-0.001403,-0.000976,-0.000793,0.31500000000000006,-1.3825,-3.7800000000000002,0.5625625,-0.250375,-0.27596875,0.7185312500000001,0.5240312500000001,-0.69278125,-0.9907812500000001,0.6382187500000001,0.01791642041132973,0.02860304737371906,True
30384,5478,0,5479,3950.0,40509.0,45518.0,0.0013419999999999999,0.000366,0.001647,0.31500000000000006,-1.3825,-3.7625,0.5827187500000001,-0.2509375,-0.267,0.7495625,0.54090625,-0.68921875,-0.9878125,0.6535,0.017751928663194336,0.028846562699315913,True
30385,5479,0,5480,3950.0,40510.0,45518.0,-0.000183,0.0011589999999999999,0.0,0.21000000000000002,-1.3650000000000002,-3.9200000000000004,0.5644375,-0.2420625,-0.2804375,0.7276875,0.52171875,-0.68890625,-0.99284375,0.636625,0.018098969046067,0.028504409387187086,True
30386,5480,0,5481,3950.0,40508.0,45519.0,-0.001586,0.001281,6.1e-05,0.28,-1.3125000000000002,-3.8850000000000002,0.5624375,-0.255,-0.26637500000000003,0.74509375,0.52521875,-0.695625,-0.986625,0.6551875,0.017842229139776785,0.028825421600556296,True
30387,5481,0,5482,3951.0,40509.0,45519.0,-0.003721,0.000976,0.0006709999999999999,0.31500000000000006,-1.4700000000000002,-3.9200000000000004,0.56075,-0.249,-0.27003125,0.7376875,0.52390625,-0.691875,-0.98884375,0.6481875,0.017936061963702635,0.02876533653142715,True
30388,5482,0,5483,3949.0,40510.0,45519.0,0.000366,-0.0013419999999999999,0.0023179999999999997,0.24500000000000002,-1.54,-3.9725000000000006,0.58165625,-0.234375,-0.2806875,0.72328125,0.5303125,-0.6870625,-0.9939687500000001,0.6374375,0.018337033820852524,0.02853813482502654,True
30389,5483,0,5484,3948.0,40511.0,45517.0,0.002013,-0.0015249999999999999,0.000976,0.31500000000000006,-1.6800000000000002,-3.8850000000000002,0.58603125,-0.24821875000000002,-0.2726875,0.7329687500000001,0.5343125,-0.68971875,-0.9896875,0.64309375,0.017881937192986454,0.02869183538209512,True
30390,5484,0,5485,3948.0,40507.0,45516.0,0.001464,0.0040869999999999995,-0.003355,0.5775,-1.8375000000000001,-3.6750000000000003,0.5615625,-0.25609375,-0.268625,0.75503125,0.5240312500000001,-0.68990625,-0.9873437500000001,0.64784375,0.01757043933692539,0.028763311426409623,True
30391,5485,0,5486,3949.0,40508.0,45517.0,0.000732,0.003965,-0.002074,0.665,-1.8025000000000002,-3.6225000000000005,0.56178125,-0.25953125,-0.2596875,0.7376875,0.5264375,-0.6889375,-0.98859375,0.64159375,0.01739265814901917,0.029169558611116326,True
30392,5486,0,5487,3948.0,40507.0,45516.0,-0.000244,0.002562,-0.002013,0.5425000000000001,-1.7675,-3.5700000000000003,0.572375,-0.25096875,-0.26625,0.73365625,0.5285,-0.688625,-0.9841562500000001,0.64671875,0.01772704028677174,0.028734460464319263,True
30393,5487,0,5488,3947.0,40507.0,45516.0,0.000244,-0.0008539999999999999,0.002196,0.385,-1.6625,-3.6225000000000005,0.56075,-0.25628125,-0.26575,0.74253125,0.5284375,-0.69303125,-0.9897812500000001,0.64565625,0.017687176417435585,0.028973092751662245,True
30394,5488,0,5489,3948.0,40509.0,45516.0,0.000549,-0.002928,0.002745,0.29750000000000004,-1.7325000000000002,-3.7800000000000002,0.56178125,-0.24959375,-0.26690625,0.73140625,0.5270625,-0.68959375,-0.9849687500000001,0.6461250000000001,0.017821273385674886,0.0287397797926003,True
30395,5489,0,5490,3947.0,40505.0,45516.0,0.0023179999999999997,-0.002806,0.000915,0.22750000000000004,-1.6800000000000002,-3.7450000000000006,0.57625,-0.246125,-0.271125,0.7354375,0.52965625,-0.68953125,-0.99303125,0.6404062500000001,0.017959281831241732,0.028884301499042857,True
30396,5490,0,5491,3946.0,40507.0,45515.0,0.000976,-0.0046359999999999995,-0.001647,0.28,-1.5050000000000001,-3.7800000000000002,0.56978125,-0.24875,-0.27225,0.738375,0.52909375,-0.68953125,-0.9908750000000001,0.6409375,0.0178529614651959,0.028755495755950926,True
30397,5491,0,5492,3945.0,40506.0,45513.0,0.000122,-0.0015249999999999999,-0.0032329999999999998,0.3325,-1.2950000000000002,-3.8500000000000005,0.574375,-0.2496875,-0.2681875,0.728625,0.53053125,-0.68825,-0.98990625,0.64046875,0.017764017295677094,0.028880410465725533,True
30398,5492,0,5493,3946.0,40506.0,45514.0,-0.002257,-0.002074,-0.0028669999999999998,0.21000000000000002,-0.9800000000000001,-3.7800000000000002,0.574625,-0.24971875000000002,-0.2725625,0.7365625,0.53215625,-0.687,-0.9905625,0.642,0.017713016972495648,0.02873084589432511,True
30399,5493,0,5494,3946.0,40508.0,45514.0,-0.002196,0.0008539999999999999,-0.0011589999999999999,0.31500000000000006,-1.0325000000000002,-3.8150000000000004,0.5758125000000001,-0.24625,-0.2724375,0.7368750000000001,0.52846875,-0.6885625,-0.9895625,0.6459375,0.017915684641420494,0.02869698098956314,True
30400,5494,0,5495,3945.0,40508.0,45512.0,-0.001464,0.0034159999999999998,0.001464,0.56,-1.12,-3.8325000000000005,0.574375,-0.24803125,-0.27325,0.7315,0.52778125,-0.68840625,-0.9885625,0.6405,0.01783731989585192,0.028625596210266196,True
30401,5495,0,5496,3944.0,40507.0,45516.0,-6.1e-05,0.002806,0.001464,0.42000000000000004,-1.2425000000000002,-3.8850000000000002,0.5789375,-0.24871875000000002,-0.26734375,0.73003125,0.528,-0.69140625,-0.99028125,0.641,0.017928808732795443,0.02892874605002695,True
30402,5496,0,5497,3943.0,40507.0,45513.0,0.000549,0.002257,0.002562,0.47250000000000003,-1.3650000000000002,-3.8500000000000005,0.58184375,-0.24740625,-0.27187500000000003,0.73128125,0.5338125,-0.691875,-0.9898125,0.6405625,0.018000607487280735,0.0287292071519144,True
30403,5497,0,5498,3944.0,40506.0,45511.0,0.0011589999999999999,0.003355,0.0013419999999999999,0.56,-1.5225000000000002,-3.7800000000000002,0.5793125,-0.24646875000000001,-0.27153125,0.7361875,0.5278125,-0.6900937500000001,-0.98928125,0.6474375,0.017967732504053376,0.028722314692424377,True
30404,5498,0,5499,3943.0,40504.0,45515.0,-0.000976,0.002745,-0.000732,0.6825000000000001,-1.435,-3.7625,0.5741875,-0.2471875,-0.271,0.73128125,0.52859375,-0.6881875000000001,-0.9923125,0.6405,0.017862793694352817,0.028861374872773377,True
30405,5499,0,5500,3943.0,40506.0,45513.0,0.000488,0.001037,-0.001952,0.525,-1.715,-3.7625,0.57446875,-0.2486875,-0.27246875,0.718375,0.51784375,-0.6919375,-0.9921875,0.64084375,0.017951203707687984,0.028797749296655205,True
30406,5500,0,5501,3943.0,40504.0,45511.0,0.0011589999999999999,-0.001647,-0.000244,0.43750000000000006,-1.7850000000000001,-3.7275000000000005,0.58015625,-0.24603125,-0.27528125000000003,0.73078125,0.5355625,-0.68840625,-0.9903125,0.646375,0.017918329580306543,0.028612337280696266,True
30407,5501,0,5502,3944.0,40504.0,45511.0,0.002013,-0.002562,-0.00061,0.43750000000000006,-1.7500000000000002,-3.7800000000000002,0.57428125,-0.2496875,-0.26553125,0.73675,0.5286875,-0.6873125,-0.99028125,0.648875,0.017726716911774014,0.029001274245362887,True
30408,5502,0,5503,3943.0,40504.0,45509.0,0.002013,-0.0026839999999999998,-0.00042699999999999997,0.36750000000000005,-1.6275000000000002,-3.7450000000000006,0.57440625,-0.24225,-0.27125,0.7375625,0.52796875,-0.691875,-0.989625,0.6413125000000001,0.018209431240033415,0.028746929975940014,True
30409,5503,0,5504,3944.0,40507.0,45513.0,-0.000122,-0.002989,-0.000488,0.29750000000000004,-1.4000000000000001,-3.7450000000000006,0.576625,-0.24621875000000001,-0.27303125,0.7306875,0.5363125,-0.6884375,-0.99165625,0.64096875,0.017911978026150906,0.02875459684669759,True
30410,5504,0,5505,3941.0,40505.0,45513.0,-0.001281,-0.001586,0.00061,0.43750000000000006,-1.2075,-3.6750000000000003,0.57921875,-0.241875,-0.27396875,0.7309687500000001,0.53034375,-0.6890937500000001,-0.989,0.64315625,0.018114020487285,0.02861384008963944,True
30411,5505,0,5506,3941.0,40505.0,45510.0,-0.001586,-0.001647,0.0006709999999999999,0.28,-1.3475000000000001,-3.7275000000000005,0.581,-0.24631250000000002,-0.27465625,0.7295,0.52728125,-0.689625,-0.985375,0.64453125,0.0179554164957953,0.028445390553473785,True
30412,5506,0,5507,3941.0,40501.0,45514.0,-0.00042699999999999997,-0.001464,-0.000244,0.31500000000000006,-1.435,-3.8325000000000005,0.57365625,-0.24575,-0.26903125,0.72740625,0.52246875,-0.6911875000000001,-0.988625,0.645625,0.0180403433411212,0.028796852567918405,True
30413,5507,0,5508,3941.0,40504.0,45513.0,0.0008539999999999999,0.0,0.000122,0.4025,-1.6450000000000002,-3.8500000000000005,0.58053125,-0.246625,-0.27328125000000003,0.7305625,0.5288125,-0.68934375,-0.98884375,0.6431875,0.017931572199038303,0.02863527849302751,True
30414,5508,0,5509,3940.0,40505.0,45513.0,0.0008539999999999999,0.0015249999999999999,-0.00042699999999999997,0.45500000000000007,-1.8025000000000002,-3.8500000000000005,0.57978125,-0.24731250000000002,-0.27137500000000003,0.7340625000000001,0.52821875,-0.6893125,-0.9889375,0.64575,0.017902483108835045,0.0287152064788669,True
30415,5509,0,5510,3942.0,40503.0,45511.0,0.001647,0.001769,-0.000549,0.49000000000000005,-1.715,-3.9375000000000004,0.5750000000000001,-0.2496875,-0.27187500000000003,0.7335625,0.5289375000000001,-0.690375,-0.98921875,0.6403125000000001,0.01784855434556988,0.02870612951835479,True
30416,5510,0,5511,3939.0,40502.0,45514.0,0.00061,0.0021349999999999997,0.0,0.47250000000000003,-1.4875,-3.8500000000000005,0.573625,-0.25,-0.27221875,0.72659375,0.5286875,-0.689125,-0.98721875,0.640875,0.017786171036843143,0.028614629229193427,True
30417,5511,0,5512,3939.0,40505.0,45511.0,-0.000732,0.000793,0.000488,0.4025,-1.3825,-3.8150000000000004,0.5799062500000001,-0.24706250000000002,-0.27140625,0.7305625,0.528125,-0.68990625,-0.9891875,0.6460312500000001,0.017936226469065675,0.028723672988567556,True
30418,5512,0,5513,3939.0,40503.0,45514.0,-0.00042699999999999997,0.000915,-0.000915,0.43750000000000006,-1.1725,-3.6925000000000003,0.5736875,-0.24784375,-0.2723125,0.7354375,0.52828125,-0.69034375,-0.98940625,0.6393125000000001,0.017921986201589437,0.028695909891816657,True
30419,5513,0,5514,3939.0,40501.0,45511.0,-0.002196,-0.000122,0.0011589999999999999,0.36750000000000005,-1.12,-3.8675,0.57578125,-0.24606250000000002,-0.275125,0.7269375,0.5324375,-0.68878125,-0.992,0.6405,0.01793198074530309,0.02868417893725992,True
30420,5514,0,5515,3940.0,40502.0,45512.0,-0.001586,-0.0011589999999999999,0.000732,0.29750000000000004,-1.2075,-3.7800000000000002,0.57409375,-0.24721875000000001,-0.27209375,0.73809375,0.528875,-0.69015625,-0.9898750000000001,0.6331875,0.01793984191574324,0.028722882767520847,True
30421,5515,0,5516,3940.0,40501.0,45511.0,-0.00183,-0.000976,0.000244,0.22750000000000004,-1.2950000000000002,-3.8325000000000005,0.577125,-0.24559375,-0.271625,0.737625,0.5368437500000001,-0.6894375,-0.98665625,0.6471875,0.017977070153987917,0.028616524069722215,True
30422,5516,0,5517,3939.0,40503.0,45514.0,-0.000549,0.000976,0.001098,0.28,-1.33,-3.9375000000000004,0.5747187500000001,-0.2485,-0.27340625,0.7308125,0.52859375,-0.68803125,-0.9957812500000001,0.640875,0.01780341435690624,0.028899876854219148,True
30423,5517,0,5518,3940.0,40502.0,45515.0,-0.0008539999999999999,-0.000122,-0.000122,0.3325,-1.54,-3.99,0.5781875,-0.24609375,-0.2715625,0.7378750000000001,0.52915625,-0.6946875,-0.98453125,0.64278125,0.018165597357731295,0.028536406901770468,True
30424,5518,0,5519,3941.0,40502.0,45513.0,0.001037,-6.1e-05,-0.000915,0.36750000000000005,-1.6800000000000002,-3.8675,0.5660625,-0.246875,-0.2738125,0.73190625,0.5476875,-0.68784375,-0.99084375,0.64709375,0.01786177660817381,0.02869175835649807,True
30425,5519,0,5520,3941.0,40500.0,45513.0,0.001586,-0.001037,0.008967,0.6125,-1.61,-3.7100000000000004,0.5761875,-0.24959375,-0.2725625,0.73003125,0.52234375,-0.69203125,-0.99265625,0.63803125,0.01791823019825475,0.028812213587741397,True
30426,5520,0,5521,3939.0,40499.0,45512.0,-0.0021349999999999997,-0.000915,-0.004148,0.49000000000000005,-2.5025000000000004,-3.7275000000000005,0.5751875,-0.25065625,-0.26778125,0.7229375,0.5224375,-0.686875,-0.9879687500000001,0.63478125,0.017670067596648017,0.02882137028444939,True
30427,5521,0,5522,3940.0,40500.0,45511.0,0.009333,0.0,-0.004148,0.12250000000000001,-1.8025000000000002,-3.9725000000000006,0.58215625,-0.2425,-0.272125,0.7350625000000001,0.53215625,-0.69671875,-0.9870625000000001,0.6401875,0.018391866328396362,0.028612306868804605,True
30428,5522,0,5523,3938.0,40499.0,45513.0,0.003721,-6.1e-05,-0.000915,0.12250000000000001,-1.3125000000000002,-4.1475,0.57753125,-0.24590625,-0.27171875,0.73071875,0.5453125,-0.6900000000000001,-0.98771875,0.6328125,0.017986786148238156,0.02865407631498974,True
30429,5523,0,5524,3938.0,40500.0,45515.0,-0.006588,-0.001769,0.00183,0.28,-0.9975,-3.9200000000000004,0.58096875,-0.247375,-0.27184375,0.73453125,0.5326875,-0.6939062500000001,-0.9881875,0.63521875,0.01808264943906961,0.02866729529702785,True
30430,5524,0,5525,3939.0,40502.0,45518.0,-0.0021349999999999997,0.0017079999999999999,-0.000305,0.22750000000000004,-1.3475000000000001,-3.7450000000000006,0.58209375,-0.24609375,-0.27175,0.73790625,0.54475,-0.691875,-0.98675,0.6533125,0.018053762624345052,0.028615166038000142,True
30431,5525,0,5526,3938.0,40502.0,45518.0,0.001464,0.003111,0.000976,0.3325,-1.5575,-4.095000000000001,0.57465625,-0.24846875000000002,-0.27175,0.73071875,0.539125,-0.6863750000000001,-0.9958750000000001,0.63959375,0.01773878303315088,0.028969780013702266,True
30432,5526,0,5527,3940.0,40502.0,45517.0,0.000366,0.000915,-0.000488,0.2625,-1.7850000000000001,-4.0600000000000005,0.5689375,-0.24706250000000002,-0.27234375,0.73590625,0.5222187500000001,-0.69146875,-0.9904375,0.6265937500000001,0.017998372413548708,0.028734741038447205,True
30433,5527,0,5528,3939.0,40501.0,45519.0,-0.000732,-0.0018909999999999999,-0.00061,0.3325,-1.7325000000000002,-3.7975000000000003,0.5808125000000001,-0.24581250000000002,-0.27275,0.7329375,0.5415,-0.6920937500000001,-0.9858750000000001,0.65753125,0.018073852080688783,0.028541125736040864,True
30434,5528,0,5529,3938.0,40499.0,45519.0,0.000183,0.000488,-0.000732,0.36750000000000005,-1.54,-3.7800000000000002,0.5748125000000001,-0.24878125,-0.2725625,0.736,0.5239375000000001,-0.6920000000000001,-0.99153125,0.64059375,0.017949892677790378,0.028768495327792284,True
30435,5529,0,5530,3938.0,40501.0,45516.0,-6.1e-05,0.0008539999999999999,-0.000549,0.47250000000000003,-1.6275000000000002,-3.7275000000000005,0.574125,-0.2495625,-0.27221875,0.7358750000000001,0.53128125,-0.6868125,-0.9936875000000001,0.63534375,0.01771188564744841,0.028866038674765383,True
30436,5530,0,5531,3939.0,40500.0,45517.0,0.001037,-0.000732,0.0011589999999999999,0.49000000000000005,-1.6975000000000002,-3.7100000000000004,0.5743125,-0.2455,-0.276125,0.73059375,0.54234375,-0.686,-0.99021875,0.63615625,0.01784412217451187,0.028574929941339547,True
30437,5531,0,5532,3938.0,40499.0,45518.0,0.00122,-6.1e-05,-0.000366,0.43750000000000006,-1.7850000000000001,-3.7625,0.58046875,-0.246,-0.2744375,0.73075,0.5325625,-0.6870937500000001,-0.98828125,0.6435625,0.017867382627815398,0.02856714084727216,True
30438,5532,0,5533,3939.0,40499.0,45516.0,0.002013,0.0,-0.00122,0.36750000000000005,-1.7850000000000001,-3.9200000000000004,0.57984375,-0.24634375,-0.27137500000000003,0.7369687500000001,0.5241875,-0.6903125,-0.988625,0.64646875,0.01798149577896189,0.028703059892250974,True
