frame_seq,absolute_seq_u64,segment_id,sample_seq,PPG_G,PPG_R,PPG_IR,ACC_X,ACC_Y,ACC_Z,GYRO_X,GYRO_Y,GYRO_Z,Uh1,Uh2,Uh3,Uh4,Uc1,Uc2,Uc3,Uc4,UD1,UD2,parser_valid
39108,134,0,135,8039.0,83604.0,127883.0,0.002013,-0.0026839999999999998,0.00244,0.22750000000000004,-1.6975000000000002,-3.6750000000000003,0.63553125,-0.13028125000000002,-0.17240625,0.8794062500000001,0.6089375,-0.68990625,-0.823125,0.8625625,0.02266614519850597,0.026214215575194502,True
39109,135,0,136,8038.0,83603.0,127884.0,0.001769,-0.0017079999999999999,0.002013,0.24500000000000002,-1.8725000000000003,-3.6575,0.631875,-0.130625,-0.17315625,0.87584375,0.605375,-0.68853125,-0.82475,0.8574375,0.022597790218889593,0.026247746704397827,True
39110,136,0,137,8038.0,83603.0,127888.0,0.000915,-0.001037,-0.00061,0.29750000000000004,-1.8375000000000001,-3.8325000000000005,0.63678125,-0.12940625,-0.1731875,0.8746875000000001,0.61025,-0.68815625,-0.82565625,0.8573125,0.022632309774043985,0.026282034336957354,True
39111,137,0,138,8038.0,83603.0,127886.0,-0.002989,0.001586,-0.002013,0.49000000000000005,-1.4700000000000002,-3.6575,0.639625,-0.12712500000000002,-0.1728125,0.8799375,0.61759375,-0.6895625,-0.828875,0.8564375,0.0227803753104171,0.026423367953642685,True
39112,138,0,139,8042.0,83605.0,127891.0,-0.001586,0.0026839999999999998,0.000183,0.665,-1.3125000000000002,-3.6225000000000005,0.63596875,-0.12940625,-0.17250000000000001,0.8789375,0.62884375,-0.6801875000000001,-0.83340625,0.85021875,0.022316736856233366,0.026613596352695276,True
39113,139,0,140,8043.0,83606.0,127896.0,-0.001769,0.002989,0.0021349999999999997,0.5075000000000001,-1.54,-3.8675,0.6353125000000001,-0.1301875,-0.172375,0.87765625,0.622625,-0.68403125,-0.8189375,0.8649375,0.022437329802035475,0.02605117563956958,True
39114,140,0,141,8043.0,83604.0,127888.0,0.000732,0.002074,0.0025009999999999998,0.3325,-1.6450000000000002,-4.1475,0.6395625,-0.12762500000000002,-0.174625,0.87290625,0.60165625,-0.6912812500000001,-0.8180937500000001,0.880375,0.022828149106276133,0.02592740427535858,True
39115,141,0,142,8043.0,83601.0,127886.0,0.0013419999999999999,-0.001464,0.003172,0.08750000000000001,-1.6975000000000002,-4.1475,0.6452187500000001,-0.12778125,-0.1729375,0.8658125,0.592125,-0.69625,-0.8175,0.87471875,0.023018423849774768,0.02597209630301199,True
39116,142,0,143,8043.0,83609.0,127891.0,0.00366,-0.006039,-0.004026,-0.052500000000000005,-1.8375000000000001,-3.6925000000000003,0.63125,-0.12896875,-0.17225000000000001,0.875375,0.594,-0.69396875,-0.82096875,0.86571875,0.022880080788957834,0.026135915827217665,True
39117,143,0,144,8044.0,83603.0,127886.0,0.001464,-0.0037819999999999998,-0.006344,0.035,-1.7325000000000002,-3.6575,0.6365625,-0.13,-0.17284375,0.87696875,0.59696875,-0.69328125,-0.823375,0.8667812500000001,0.022811113853085038,0.02620639820330636,True
39118,144,0,145,8045.0,83603.0,127890.0,0.00061,0.0008539999999999999,-0.004758,0.385,-1.33,-3.6225000000000005,0.636625,-0.12787500000000002,-0.17271875,0.87365625,0.6,-0.6833750000000001,-0.8220000000000001,0.8528125,0.02250502615626915,0.026157491338328905,True
39119,145,0,146,8045.0,83604.0,127895.0,-0.0015249999999999999,0.0034159999999999998,-0.000976,0.8400000000000001,-1.0850000000000002,-3.5875000000000004,0.6414062500000001,-0.12709375,-0.17234375,0.87309375,0.5982500000000001,-0.68825,-0.81625,0.88009375,0.02272968922463115,0.02594696015715509,True
39120,146,0,147,8045.0,83606.0,127898.0,-0.001952,0.0051849999999999995,0.002013,1.1025,-0.9100000000000001,-3.4475000000000002,0.64165625,-0.1284375,-0.17409375,0.873375,0.59309375,-0.69728125,-0.81734375,0.87040625,0.02303264655902155,0.025919373422064965,True
39121,147,0,148,8045.0,83606.0,127899.0,0.0008539999999999999,0.003965,0.001464,0.7350000000000001,-1.3475000000000001,-3.7625,0.6351875,-0.12709375,-0.17365625,0.87303125,0.587375,-0.6958125000000001,-0.81759375,0.8775937500000001,0.02302895480762174,0.025946814444893555,True
39122,148,0,149,8046.0,83606.0,127901.0,-0.000488,0.000366,0.0021349999999999997,0.5075000000000001,-1.435,-3.7275000000000005,0.64253125,-0.128625,-0.17190625,0.880375,0.59240625,-0.6986875,-0.8175,0.8637812500000001,0.02308067989442759,0.026013649642389444,True
39123,149,0,150,8049.0,83606.0,127899.0,-0.001403,-0.001952,0.0025009999999999998,0.36750000000000005,-1.4000000000000001,-3.5525,0.626375,-0.12978125000000001,-0.17278125,0.87953125,0.59990625,-0.68875,-0.8223125,0.8570625000000001,0.022640625791099187,0.026167233612903715,True
39124,150,0,151,8048.0,83602.0,127897.0,-0.002379,-0.003721,0.002745,0.28,-1.3125000000000002,-3.5700000000000003,0.630625,-0.12303125000000001,-0.17228125,0.8735937500000001,0.6019375,-0.6920625,-0.820125,0.8625625,0.023045108119258972,0.02610155065697695,True
39125,151,0,152,8047.0,83604.0,127898.0,-0.002074,-0.004148,0.0013419999999999999,0.36750000000000005,-1.3125000000000002,-3.5000000000000004,0.63571875,-0.12796875,-0.17246875,0.87271875,0.60478125,-0.6898125,-0.821375,0.85953125,0.022756096264400553,0.026143042035342522,True
39126,152,0,153,8050.0,83606.0,127897.0,-0.000488,-0.0025009999999999998,-0.0018909999999999999,0.29750000000000004,-1.4175000000000002,-3.6925000000000003,0.64128125,-0.1273125,-0.1734375,0.87365625,0.6069375,-0.68940625,-0.8249062500000001,0.8580625000000001,0.022766596503307975,0.02624254623318064,True
39127,153,0,154,8047.0,83602.0,127889.0,0.00061,-0.00061,-0.003355,0.22750000000000004,-1.4525000000000001,-3.7450000000000006,0.641625,-0.12778125,-0.1738125,0.87328125,0.60590625,-0.68896875,-0.82246875,0.8574375,0.022730293261033836,0.02613181857666756,True
39128,154,0,155,8047.0,83603.0,127875.0,0.002074,0.000732,-0.002257,0.36750000000000005,-1.4875,-3.7975000000000003,0.6403125000000001,-0.1276875,-0.171875,0.8739375,0.60871875,-0.68953125,-0.82134375,0.86353125,0.022756355489738183,0.02616573689730235,True
39129,155,0,156,8049.0,83599.0,127876.0,0.002562,0.002745,-0.002257,0.525,-1.5050000000000001,-3.8325000000000005,0.631375,-0.129625,-0.17159375000000002,0.87625,0.60503125,-0.69221875,-0.821625,0.8645625,0.02278425263019347,0.026188102108544466,True
39130,156,0,157,8047.0,83597.0,127867.0,0.002013,0.002989,-0.001586,0.525,-1.61,-3.8500000000000005,0.6372187500000001,-0.12603125,-0.17325000000000002,0.87503125,0.6041875,-0.69034375,-0.822875,0.8455,0.022855595114993084,0.02617041740733094,True
39131,157,0,158,8047.0,83597.0,127868.0,0.00183,0.00183,0.0025009999999999998,0.385,-1.2950000000000002,-3.9375000000000004,0.6363125000000001,-0.1275625,-0.17490625,0.8727812500000001,0.60284375,-0.688375,-0.825125,0.85803125,0.022715650584536243,0.026191962779643606,True
39132,158,0,159,8047.0,83593.0,127860.0,-0.000305,0.000122,0.002745,0.2625,-1.2600000000000002,-3.8675,0.64259375,-0.1275,-0.17259375,0.87715625,0.6128750000000001,-0.691125,-0.82184375,0.86503125,0.022827027930076092,0.026156397024294377,True
39133,159,0,160,8045.0,83594.0,127859.0,-0.0018909999999999999,-0.001098,0.001586,0.21000000000000002,-1.1900000000000002,-3.7800000000000002,0.6330625,-0.1310625,-0.16871875,0.8863125000000001,0.59846875,-0.6903125,-0.82165625,0.86384375,0.022650584110670936,0.02630515439516652,True
39134,160,0,161,8044.0,83596.0,127857.0,-0.0028669999999999998,-0.001464,0.00122,0.17500000000000002,-1.3825,-3.8150000000000004,0.62990625,-0.128375,-0.1731875,0.87071875,0.60478125,-0.68965625,-0.821875,0.85759375,0.022733457457513203,0.026133702631247643,True
39135,161,0,162,8043.0,83593.0,127853.0,-0.003111,-0.001037,0.000366,0.3325,-1.3650000000000002,-3.8150000000000004,0.65225,-0.1255,-0.17496875,0.86775,0.610375,-0.6903125,-0.8205,0.85728125,0.022875874900327806,0.02600798734916702,True
39136,162,0,163,8040.0,83592.0,127849.0,-0.000976,0.000488,-0.0008539999999999999,0.47250000000000003,-1.5050000000000001,-3.6750000000000003,0.65140625,-0.12687500000000002,-0.1751875,0.8717812500000001,0.6118125,-0.68834375,-0.823875,0.85646875,0.022742260707545436,0.02613159710158064,True
39137,163,0,164,8041.0,83589.0,127850.0,0.0,0.000488,-0.0008539999999999999,0.42000000000000004,-1.7500000000000002,-3.7100000000000004,0.630875,-0.129125,-0.17275000000000001,0.8639375,0.6042500000000001,-0.6899375,-0.8240937500000001,0.8573437500000001,0.022714213027068213,0.02623836972900572,True
39138,164,0,165,8037.0,83590.0,127851.0,0.0011589999999999999,0.001281,-0.001769,0.42000000000000004,-1.8200000000000003,-3.8850000000000002,0.6439375,-0.12553125,-0.178,0.86790625,0.6114375,-0.6895,-0.82425,0.85671875,0.02284245326960854,0.026033012074886452,True
39139,165,0,166,8039.0,83591.0,127850.0,0.003843,0.00061,-0.001464,0.35000000000000003,-1.8550000000000002,-3.8500000000000005,0.6536875,-0.1215,-0.17440625,0.88221875,0.6126875,-0.688875,-0.82340625,0.86440625,0.022980998526664336,0.02614467947967455,True
39140,166,0,167,8039.0,83590.0,127842.0,0.003904,-0.001037,-0.000244,0.21000000000000002,-1.9425000000000001,-3.9025000000000003,0.63025,-0.13390625,-0.17203125,0.867625,0.60478125,-0.6902812500000001,-0.8209062500000001,0.84984375,0.022534170201078615,0.026142276734960074,True
39141,167,0,168,8038.0,83586.0,127841.0,6.1e-05,-0.000366,-0.000122,0.10500000000000001,-1.7500000000000002,-4.025,0.65290625,-0.12540625,-0.17728125,0.8676875000000001,0.612,-0.69090625,-0.8185,0.85103125,0.022903169056421334,0.025836321695509396,True
39142,168,0,169,8037.0,83585.0,127842.0,-0.001037,-0.001037,0.001952,0.24500000000000002,-1.4700000000000002,-3.9550000000000005,0.64478125,-0.1248125,-0.17525000000000002,0.8703125,0.6098750000000001,-0.68984375,-0.82271875,0.8579375,0.02288516912951302,0.026083716152164035,True
39143,169,0,170,8032.0,83584.0,127836.0,-0.002196,-0.001403,0.002257,0.28,-1.4875,-3.9025000000000003,0.627,-0.1313125,-0.17009375000000002,0.88546875,0.60440625,-0.68425,-0.8221875000000001,0.8625,0.02240041727012164,0.02627059963993907,True
39144,170,0,171,8033.0,83585.0,127831.0,-0.001952,0.000549,0.000488,0.3325,-1.4525000000000001,-3.9375000000000004,0.6316875000000001,-0.129625,-0.17865625000000002,0.86721875,0.6044375,-0.6921875000000001,-0.8241875,0.8589375,0.02278301588306018,0.02600412400204437,True
39145,171,0,172,8034.0,83583.0,127833.0,-0.000549,6.1e-05,0.00061,0.29750000000000004,-1.5050000000000001,-3.9725000000000006,0.63878125,-0.132625,-0.170125,0.8728750000000001,0.61053125,-0.692375,-0.8215,0.8636875,0.02266894132297926,0.026242370525552446,True
39146,172,0,173,8029.0,83584.0,127828.0,6.1e-05,0.00042699999999999997,-0.0015249999999999999,0.052500000000000005,-1.61,-4.025,0.6374062500000001,-0.128625,-0.17359375,0.87903125,0.60578125,-0.6848125,-0.8229375,0.85784375,0.022531566727517174,0.026159021268131542,True
39147,173,0,174,8029.0,83586.0,127832.0,-0.000122,-0.000366,-0.0013419999999999999,0.15750000000000003,-1.4000000000000001,-3.9200000000000004,0.63565625,-0.13021875,-0.1726875,0.8793125,0.6056875,-0.69228125,-0.8219375,0.8631875,0.022762680139162918,0.026156298234172894,True
39148,174,0,175,8026.0,83585.0,127832.0,-0.000732,-0.000183,-0.000915,0.35000000000000003,-1.5050000000000001,-3.9375000000000004,0.6365000000000001,-0.12815625,-0.174125,0.86653125,0.60534375,-0.6883125,-0.82453125,0.8574375,0.022689126686969797,0.026200142248406003,True
39149,175,0,176,8025.0,83580.0,127826.0,-0.000183,0.0011589999999999999,-0.000732,0.42000000000000004,-1.54,-3.8675,0.6428125,-0.1270625,-0.17559375,0.87275,0.6114375,-0.689125,-0.82321875,0.8583125,0.022765590113055848,0.026089485272734827,True
39150,176,0,177,8024.0,83581.0,127825.0,-0.000122,0.002074,-0.000244,0.4025,-1.6275000000000002,-3.9725000000000006,0.639125,-0.12625,-0.17321875,0.87615625,0.6041562500000001,-0.6902812500000001,-0.8240937500000001,0.85703125,0.022844261848981574,0.02621948686444999,True
39151,177,0,178,8024.0,83580.0,127826.0,0.0017079999999999999,0.001464,0.001281,0.4025,-1.8375000000000001,-4.0075,0.63578125,-0.129625,-0.1725625,0.87915625,0.60465625,-0.69090625,-0.8220625,0.865125,0.022732306555171503,0.02616623820039128,True
39152,178,0,179,8023.0,83577.0,127826.0,0.001647,-0.0006709999999999999,-0.000183,0.22750000000000004,-1.8725000000000003,-4.025,0.6364375,-0.1295,-0.17234375,0.88065625,0.6041875,-0.69203125,-0.81484375,0.86340625,0.022781894462408796,0.02589176085382363,True
39153,179,0,180,8021.0,83576.0,127830.0,0.000366,-0.002196,0.00042699999999999997,0.10500000000000001,-1.8725000000000003,-3.99,0.6361875,-0.12953125000000001,-0.17290625,0.8729375,0.60503125,-0.68971875,-0.82240625,0.8581875,0.022689100093535898,0.026165875840501965,True
39154,180,0,181,8017.0,83577.0,127823.0,0.000122,-0.00183,0.000244,0.15750000000000003,-1.7850000000000001,-3.8500000000000005,0.63665625,-0.1301875,-0.17196875,0.87215625,0.6050625000000001,-0.6901875000000001,-0.82315625,0.8531875,0.022681075224722375,0.02623306615169052,True
39155,181,0,182,8019.0,83578.0,127824.0,0.000122,-0.000732,0.000366,0.22750000000000004,-1.5750000000000002,-3.8675,0.6374375,-0.12684375,-0.17225000000000001,0.88071875,0.6108125,-0.6883125,-0.8220625,0.86428125,0.022742289494269808,0.026178827806915723,True
39156,182,0,183,8015.0,83578.0,127824.0,-0.000915,0.000488,-0.00183,0.28,-1.4000000000000001,-3.8675,0.6379375,-0.12746875,-0.175875,0.8805625,0.599375,-0.687625,-0.8230937500000001,0.8575625,0.022689758532868188,0.026073250841265504,True
39157,183,0,184,8016.0,83581.0,127826.0,-0.00122,-6.1e-05,-0.000915,0.21000000000000002,-1.3125000000000002,-3.8325000000000005,0.63746875,-0.12796875,-0.17553125,0.873125,0.60421875,-0.69203125,-0.82084375,0.85559375,0.022843908396560128,0.02599881400083347,True
39158,184,0,185,8016.0,83577.0,127827.0,-0.000305,-0.0015249999999999999,-0.000793,0.22750000000000004,-1.3825,-3.8150000000000004,0.629875,-0.1270625,-0.17234375,0.8806875000000001,0.6123125,-0.68890625,-0.82528125,0.86425,0.022756931567189217,0.026301313303348776,True
39159,185,0,186,8012.0,83577.0,127819.0,-0.00061,-0.0021349999999999997,0.00042699999999999997,0.15750000000000003,-1.4000000000000001,-3.7625,0.63675,-0.12728125,-0.17621875,0.8744375,0.6045,-0.69040625,-0.8243125,0.851125,0.02280744165560257,0.026107218477853113,True
39160,186,0,187,8013.0,83574.0,127818.0,0.001464,-0.0013419999999999999,0.00042699999999999997,0.22750000000000004,-1.61,-3.6925000000000003,0.63625,-0.1305,-0.17215625,0.87334375,0.60465625,-0.69075,-0.82153125,0.8565,0.022690683758087537,0.026161762280479776,True
39161,187,0,188,8012.0,83577.0,127816.0,0.001952,0.001403,0.0,0.43750000000000006,-1.4000000000000001,-3.7450000000000006,0.6374062500000001,-0.129,-0.17221875,0.8735937500000001,0.610625,-0.6900000000000001,-0.8216875,0.85478125,0.022721749696233293,0.02616537453386278,True
39162,188,0,189,8014.0,83571.0,127821.0,-0.000976,0.0021349999999999997,6.1e-05,0.6825000000000001,-1.2775,-3.6575,0.6421875,-0.126,-0.17525000000000002,0.87803125,0.60584375,-0.69046875,-0.82465625,0.85784375,0.022861807757295006,0.02615972779079267,True
39163,189,0,190,8010.0,83570.0,127810.0,-0.00122,0.0017079999999999999,-0.000183,0.7350000000000001,-1.2600000000000002,-3.535,0.630625,-0.12762500000000002,-0.17521875,0.87625,0.6055,-0.6881875000000001,-0.82425,0.85665625,0.022705696803380162,0.02614504969938669,True
39164,190,0,191,8010.0,83565.0,127808.0,-0.001586,0.0025009999999999998,0.0006709999999999999,0.7175,-1.2600000000000002,-3.5000000000000004,0.63684375,-0.1288125,-0.1723125,0.87525,0.60553125,-0.69053125,-0.82153125,0.8625625,0.02275037115695921,0.02615546734249121,True
39165,191,0,192,8009.0,83570.0,127810.0,-0.00122,0.001647,0.00122,0.6125,-1.4175000000000002,-3.535,0.6402187500000001,-0.12728125,-0.17184375000000002,0.8768125,0.60509375,-0.6874375,-0.82246875,0.85771875,0.02268993086058446,0.026211131799692568,True
39166,192,0,193,8009.0,83565.0,127813.0,0.000122,-0.000915,0.001403,0.35000000000000003,-1.54,-3.5875000000000004,0.6360625,-0.12703125,-0.17434375,0.87603125,0.60465625,-0.68965625,-0.8239062500000001,0.8574375,0.022787883083629404,0.02616681248544435,True
39167,193,0,194,8007.0,83568.0,127808.0,-0.000244,-0.000244,0.0013419999999999999,0.385,-1.54,-3.4825000000000004,0.6365000000000001,-0.12709375,-0.1734375,0.8767812500000001,0.60484375,-0.69253125,-0.82384375,0.856625,0.022899130683493616,0.026200867865195127,True
39168,194,0,195,8005.0,83567.0,127816.0,-0.000488,-0.001952,0.0006709999999999999,0.42000000000000004,-1.435,-3.5175000000000005,0.63728125,-0.12490625,-0.17125,0.87709375,0.60509375,-0.68953125,-0.82775,0.85378125,0.022869004449001033,0.02644218666612963,True
39169,195,0,196,8005.0,83568.0,127805.0,-0.001647,-0.000793,-0.000549,0.43750000000000006,-1.4525000000000001,-3.5875000000000004,0.63665625,-0.12759375,-0.1744375,0.8730625,0.5948125,-0.6943125,-0.820625,0.8515,0.022949363340242817,0.026034296074333343,True
39170,196,0,197,8003.0,83567.0,127805.0,0.000305,-0.000488,-0.002013,0.45500000000000007,-1.5225000000000002,-3.6225000000000005,0.63625,-0.12984375,-0.172375,0.8738125,0.6204375,-0.6876875,-0.820375,0.8706875000000001,0.02259603091622089,0.026107582983738158,True
39171,197,0,198,8004.0,83569.0,127804.0,0.0006709999999999999,-0.00042699999999999997,-0.001098,0.49000000000000005,-1.4700000000000002,-3.6750000000000003,0.6453125000000001,-0.12809375,-0.17678125,0.8734375,0.6003125,-0.69040625,-0.8240937500000001,0.85328125,0.022774534137120567,0.02607597709382644,True
39172,198,0,199,8003.0,83567.0,127805.0,0.001281,-6.1e-05,-0.002074,0.36750000000000005,-1.6625,-3.6750000000000003,0.6366875,-0.1289375,-0.17378125,0.89915625,0.617375,-0.68675,-0.8214375,0.87125,0.02259562315817189,0.026092616513447298,True
39173,199,0,200,8003.0,83564.0,127802.0,0.0008539999999999999,-0.000122,-0.001464,0.385,-1.6625,-3.6225000000000005,0.6333125000000001,-0.13746875,-0.16846875,0.8698750000000001,0.59590625,-0.69359375,-0.8183125,0.8589687500000001,0.02252102329171913,0.02618404252908009,True
39174,200,0,201,8004.0,83567.0,127802.0,0.00042699999999999997,0.000366,0.0006709999999999999,0.35000000000000003,-1.5050000000000001,-3.6750000000000003,0.6554375,-0.131875,-0.171,0.8894062500000001,0.6200625,-0.6873750000000001,-0.8220000000000001,0.87109375,0.022501379753821542,0.02622673434856176,True
39175,201,0,202,8002.0,83567.0,127805.0,0.000976,-0.000305,0.0023179999999999997,0.31500000000000006,-1.5050000000000001,-3.7975000000000003,0.6254375,-0.13509375,-0.16659375,0.89046875,0.599625,-0.6949062500000001,-0.82015625,0.86940625,0.02266914862250186,0.026331925287537222,True
39176,202,0,203,8003.0,83564.0,127801.0,-6.1e-05,-6.1e-05,0.001952,0.3325,-1.4175000000000002,-3.6400000000000006,0.624625,-0.12984375,-0.16759375,0.87453125,0.5990625,-0.68996875,-0.82040625,0.8590625000000001,0.022686338961040605,0.02630144299108722,True
39177,203,0,204,7996.0,83566.0,127802.0,-0.00061,0.00061,0.000366,0.35000000000000003,-1.4525000000000001,-3.6925000000000003,0.63296875,-0.12525,-0.17209375,0.86278125,0.60296875,-0.69246875,-0.821625,0.85365625,0.02297132602425588,0.02616795838306316,True
39178,204,0,205,7998.0,83561.0,127804.0,-0.001586,0.000793,-0.000244,0.43750000000000006,-1.3475000000000001,-3.6750000000000003,0.65821875,-0.121375,-0.18278125,0.8622500000000001,0.6194375,-0.68675,-0.82121875,0.85265625,0.0229019615785796,0.025721440451025396,True
39179,205,0,206,7997.0,83562.0,127803.0,-0.0011589999999999999,0.000549,0.00061,0.47250000000000003,-1.33,-3.8325000000000005,0.64584375,-0.1229375,-0.18121875,0.86271875,0.61653125,-0.6863750000000001,-0.82521875,0.8533125,0.022823824883159233,0.025941362550934217,True
39180,206,0,207,7998.0,83563.0,127801.0,-0.0006709999999999999,0.000305,-0.00061,0.47250000000000003,-1.4175000000000002,-3.6925000000000003,0.62925,-0.12771875,-0.16084375,0.88628125,0.6095,-0.68921875,-0.819375,0.86484375,0.02274272044351343,0.026532950567852737,True
39181,207,0,208,7997.0,83562.0,127805.0,0.001037,0.000305,6.1e-05,0.43750000000000006,-1.5925000000000002,-3.6400000000000006,0.63934375,-0.124875,-0.17859375,0.86253125,0.60378125,-0.6896875,-0.82140625,0.85753125,0.022876453985089928,0.025897505303511963,True
39182,208,0,209,7996.0,83565.0,127805.0,0.000549,0.000976,-0.001586,0.4025,-1.7675,-3.8675,0.6579375000000001,-0.123375,-0.17500000000000002,0.8669375,0.61228125,-0.6885625,-0.8225625,0.85809375,0.02289268563125131,0.026087657146597977,True
39183,209,0,210,7997.0,83559.0,127806.0,0.0017079999999999999,6.1e-05,-0.00061,0.42000000000000004,-1.6275000000000002,-3.8850000000000002,0.65515625,-0.1230625,-0.17265625,0.8763125,0.61225,-0.68865625,-0.8240000000000001,0.86128125,0.022909053626602296,0.026238468820496297,True
39184,210,0,211,7997.0,83560.0,127802.0,0.0015249999999999999,-0.00042699999999999997,0.000244,0.36750000000000005,-1.5225000000000002,-3.7275000000000005,0.6295625,-0.13075,-0.168875,0.8695625,0.59728125,-0.69075,-0.8211875000000001,0.86078125,0.022680558508753276,0.02628047106932334,True
39185,211,0,212,7997.0,83559.0,127804.0,-0.000976,-0.000122,0.0008539999999999999,0.4025,-1.5750000000000002,-3.6575,0.63946875,-0.1274375,-0.174375,0.87415625,0.608,-0.68359375,-0.823875,0.8571875,0.02253141319829087,0.026164327688565945,True
39186,212,0,213,7995.0,83559.0,127801.0,0.0008539999999999999,-0.00122,0.000244,0.4025,-1.61,-3.6575,0.637125,-0.1281875,-0.172125,0.8774375,0.61309375,-0.6883125,-0.82128125,0.8579687500000001,0.022687860905843606,0.026153212779860026,True
39187,213,0,214,7994.0,83561.0,127806.0,-0.000183,-0.000976,-0.001403,0.28,-1.6975000000000002,-3.6575,0.6368125,-0.1299375,-0.1718125,0.8726875000000001,0.60503125,-0.69071875,-0.8216875,0.8628750000000001,0.02271222865879512,0.02618174126960546,True
39188,214,0,215,7995.0,83557.0,127803.0,0.000732,-6.1e-05,-0.0011589999999999999,0.43750000000000006,-1.6275000000000002,-3.7100000000000004,0.64446875,-0.12771875,-0.1728125,0.87775,0.61065625,-0.688875,-0.8248125000000001,0.8583437500000001,0.022729113821508676,0.026264045297421684,True
39189,215,0,216,7995.0,83560.0,127803.0,0.000183,-0.000122,-0.000488,0.42000000000000004,-1.4875,-3.7450000000000006,0.63678125,-0.1286875,-0.17203125,0.87275,0.60675,-0.69034375,-0.82146875,0.8636875,0.022748012570703878,0.026164346136849776,True
39190,216,0,217,7994.0,83561.0,127801.0,-0.000366,-0.000549,0.00061,0.47250000000000003,-1.4525000000000001,-3.6750000000000003,0.64540625,-0.12653125,-0.17253125,0.8794062500000001,0.60771875,-0.6880937500000001,-0.8233125,0.8625625,0.022746288380406043,0.026216535363682826,True
39191,217,0,218,7995.0,83565.0,127802.0,-0.0006709999999999999,-0.000366,0.000244,0.35000000000000003,-1.4875,-3.7800000000000002,0.6375625,-0.12734375,-0.17471875,0.87315625,0.6052500000000001,-0.69246875,-0.82134375,0.857625,0.022886532963618714,0.026051168160466737,True
39192,218,0,219,7992.0,83562.0,127800.0,0.0021349999999999997,0.001037,6.1e-05,0.42000000000000004,-1.5925000000000002,-3.7275000000000005,0.6429375,-0.12628125,-0.1675,0.878125,0.611,-0.6884375,-0.82459375,0.8585625,0.022770021391592725,0.026469466393583985,True
39193,219,0,220,7989.0,83566.0,127800.0,0.0015249999999999999,0.000976,-0.000183,0.49000000000000005,-1.5225000000000002,-3.7975000000000003,0.6363125000000001,-0.12915625,-0.1698125,0.8743125,0.60709375,-0.690875,-0.82159375,0.86425,0.02275005442293965,0.026258638206904016,True
39194,220,0,221,7994.0,83564.0,127798.0,0.001037,0.000793,-0.000183,0.525,-1.4875,-3.7975000000000003,0.63878125,-0.12728125,-0.17421875,0.8671562500000001,0.6055,-0.692375,-0.821125,0.8571875,0.02288535428447041,0.026062728824741026,True
39195,221,0,222,7994.0,83561.0,127805.0,-0.00061,0.000549,0.0008539999999999999,0.36750000000000005,-1.3475000000000001,-3.7800000000000002,0.6431875,-0.12675,-0.173375,0.87696875,0.61290625,-0.6881875000000001,-0.823625,0.858625,0.022741138854361017,0.026194804344651518,True
39196,222,0,223,7991.0,83559.0,127802.0,-0.000732,6.1e-05,0.000366,0.3325,-1.3825,-3.6050000000000004,0.6365625,-0.13021875,-0.1716875,0.8715625,0.607875,-0.68815625,-0.8199375,0.8621875,0.02259939925647546,0.026118115728534768,True
39197,223,0,224,7993.0,83563.0,127802.0,0.00042699999999999997,-0.000122,-0.0006709999999999999,0.35000000000000003,-1.435,-3.4825000000000004,0.6371875,-0.12803125,-0.1740625,0.87275,0.6053125,-0.688625,-0.82303125,0.857875,0.02270656020738295,0.02614381553421281,True
39198,224,0,225,7990.0,83563.0,127802.0,0.000549,-0.00061,-0.001281,0.47250000000000003,-1.2950000000000002,-3.6400000000000006,0.64125,-0.12734375,-0.17434375,0.87346875,0.612,-0.688125,-0.82134375,0.85884375,0.02271461481987798,0.02606627612576374,True
39199,225,0,226,7992.0,83557.0,127803.0,-0.000183,-0.000488,-0.000549,0.47250000000000003,-1.3825,-3.6575,0.6441250000000001,-0.12715625,-0.17175,0.8735937500000001,0.61009375,-0.68853125,-0.82296875,0.85840625,0.022738290678996957,0.02623452321753416,True
39200,226,0,227,7992.0,83560.0,127800.0,-0.001464,-0.001037,0.000122,0.6300000000000001,-1.3125000000000002,-3.43,0.63696875,-0.12365625000000001,-0.1724375,0.8809375,0.61075,-0.6889375,-0.82378125,0.8581562500000001,0.022896135161750073,0.026238700036884992,True
39201,227,0,228,7993.0,83560.0,127798.0,-0.00183,-0.000122,-0.00042699999999999997,0.525,-1.2775,-3.43,0.63753125,-0.13146875,-0.171,0.8730625,0.60496875,-0.68946875,-0.8214375,0.862375,0.022600729308928525,0.026204666832853656,True
39202,228,0,229,7993.0,83558.0,127807.0,-0.00061,0.000549,0.000305,0.4025,-1.2425000000000002,-3.6225000000000005,0.642,-0.12375,-0.1740625,0.8723125,0.6060625000000001,-0.6885625,-0.822375,0.85828125,0.022877496411546842,0.02611806887938805,True
39203,229,0,230,7991.0,83558.0,127805.0,0.0,0.0006709999999999999,6.1e-05,0.385,-1.2950000000000002,-3.7800000000000002,0.6278125,-0.128125,-0.17428125,0.87428125,0.60459375,-0.684875,-0.8210000000000001,0.8571875,0.02255429691258311,0.026055305990894805,True
39204,230,0,231,7990.0,83557.0,127804.0,0.0017079999999999999,-0.000549,0.001403,0.31500000000000006,-1.3825,-3.7625,0.64290625,-0.12696875,-0.1719375,0.8735937500000001,0.6118750000000001,-0.68921875,-0.815625,0.85690625,0.022773098075450447,0.02593879863996978,True
39205,231,0,232,7989.0,83556.0,127803.0,0.000305,-0.0006709999999999999,-6.1e-05,0.3325,-1.2950000000000002,-3.7625,0.63621875,-0.12975,-0.17271875,0.87928125,0.6105,-0.68853125,-0.8243125,0.8613125,0.02263323177639415,0.02624820929079103,True
39206,232,0,233,7990.0,83556.0,127805.0,-0.00061,-0.000122,-0.000244,0.36750000000000005,-1.4000000000000001,-3.6750000000000003,0.628875,-0.12765625,-0.171875,0.8730625,0.60559375,-0.693375,-0.82128125,0.87028125,0.022909737935782368,0.026163284782085936,True
39207,233,0,234,7991.0,83556.0,127806.0,-0.00042699999999999997,0.001952,-0.000183,0.49000000000000005,-1.3125000000000002,-3.7100000000000004,0.63575,-0.1268125,-0.17500000000000002,0.873125,0.6050625000000001,-0.6960000000000001,-0.819375,0.85765625,0.02304776077097506,0.025962579637883707,True
39208,234,0,235,7989.0,83555.0,127805.0,-0.000244,0.001281,-0.0008539999999999999,0.5775,-1.2600000000000002,-3.7975000000000003,0.64125,-0.12584375,-0.172375,0.877625,0.6140625000000001,-0.68884375,-0.82328125,0.85196875,0.022803822070444263,0.02622160396301355,True
39209,235,0,236,7991.0,83558.0,127805.0,6.1e-05,0.0018909999999999999,0.000732,0.43750000000000006,-1.3125000000000002,-3.7800000000000002,0.6364375,-0.12834375,-0.17134375000000002,0.87846875,0.620125,-0.6865,-0.82059375,0.86428125,0.022609776598545767,0.026157714297225465,True
39210,236,0,237,7989.0,83558.0,127803.0,0.0008539999999999999,-0.0013419999999999999,0.000183,0.28,-1.2600000000000002,-3.5700000000000003,0.63975,-0.12740625,-0.173625,0.8730625,0.5980625,-0.6945,-0.8169062500000001,0.85784375,0.022964374658324724,0.025921089579810135,True
39211,237,0,238,7990.0,83557.0,127805.0,-0.000244,-0.0021349999999999997,-0.000366,0.3325,-1.3650000000000002,-3.7450000000000006,0.6384062500000001,-0.128875,-0.16859375000000001,0.88021875,0.616,-0.6865625,-0.826875,0.85240625,0.022590731293593427,0.02651486544319412,True
39212,238,0,239,7988.0,83551.0,127804.0,0.00061,-0.000488,-0.000732,0.22750000000000004,-1.4175000000000002,-3.8675,0.63665625,-0.1305,-0.17103125,0.87825,0.61121875,-0.68771875,-0.819625,0.8645,0.022570686082528386,0.026132294504852514,True
39213,239,0,240,7988.0,83555.0,127805.0,-0.000366,0.000244,-0.00183,0.29750000000000004,-1.2950000000000002,-3.7975000000000003,0.63634375,-0.122875,-0.17159375000000002,0.874375,0.6003125,-0.6955625,-0.81934375,0.8709687500000001,0.023189894945701277,0.026098594971915808,True
39214,240,0,241,7990.0,83557.0,127805.0,-0.000732,-6.1e-05,-0.000244,0.4025,-1.2775,-3.7450000000000006,0.639375,-0.12759375,-0.173625,0.86953125,0.59865625,-0.6940937500000001,-0.81834375,0.8745,0.022940708241216586,0.025977509075318532,True
39215,241,0,242,7987.0,83557.0,127811.0,-0.000549,-0.00061,-0.0011589999999999999,0.35000000000000003,-1.2075,-3.7100000000000004,0.6433125000000001,-0.12696875,-0.1738125,0.87421875,0.59871875,-0.6954375,-0.8175625,0.87321875,0.023019181174660303,0.025939291983247747,True
39216,242,0,243,7992.0,83554.0,127809.0,-0.000915,-0.0017079999999999999,-0.000305,0.36750000000000005,-1.3650000000000002,-3.7975000000000003,0.63734375,-0.129,-0.17134375000000002,0.87834375,0.59853125,-0.6940000000000001,-0.81840625,0.86828125,0.022880051834453716,0.026071879615557507,True
39217,243,0,244,7988.0,83550.0,127804.0,-0.000793,-0.000244,0.002074,0.28,-1.4175000000000002,-3.9725000000000006,0.6375000000000001,-0.12846875,-0.17121875,0.87353125,0.59778125,-0.69446875,-0.81775,0.8708750000000001,0.022920112423961338,0.026051162978110425,True
39218,244,0,245,7993.0,83554.0,127802.0,0.000732,-0.000549,0.0008539999999999999,0.42000000000000004,-1.2950000000000002,-3.9375000000000004,0.6438125,-0.12703125,-0.17415625,0.8768125,0.59871875,-0.6898125,-0.8186875,0.85275,0.022794067391155765,0.025969594483995176,True
39219,245,0,246,7988.0,83555.0,127806.0,0.0015249999999999999,0.000732,0.000549,0.4025,-1.4175000000000002,-3.8325000000000005,0.637,-0.13025,-0.173375,0.8729687500000001,0.612,-0.6825625,-0.820625,0.85984375,0.022376627224179012,0.02607710321557173,True
39220,246,0,247,7993.0,83554.0,127808.0,0.000976,0.000793,-0.0017079999999999999,0.3325,-1.5050000000000001,-3.7450000000000006,0.638,-0.12787500000000002,-0.17225000000000001,0.8738125,0.61153125,-0.6880937500000001,-0.8201875000000001,0.8665625,0.022691859309712802,0.02610526209763726,True
39221,247,0,248,7989.0,83556.0,127807.0,0.001098,0.00122,-0.001464,0.56,-1.4875,-3.6400000000000006,0.6424062500000001,-0.12678125,-0.17315625,0.87871875,0.6051875,-0.6845,-0.8163125,0.8581562500000001,0.022593884826510566,0.02591667275305306,True
39222,248,0,249,7991.0,83550.0,127812.0,0.000244,0.001586,0.000305,0.45500000000000007,-1.2425000000000002,-3.7275000000000005,0.6315937500000001,-0.128875,-0.1704375,0.8668750000000001,0.604875,-0.68959375,-0.82040625,0.86403125,0.02271073212778157,0.026186869926836914,True
39223,249,0,250,7990.0,83555.0,127806.0,-0.0023179999999999997,0.00042699999999999997,0.000793,0.42000000000000004,-1.3125000000000002,-3.8325000000000005,0.6425625,-0.12715625,-0.17125,0.87821875,0.6068125,-0.6881875000000001,-0.82165625,0.858,0.02272468361640562,0.02620317691330529,True
39224,250,0,251,7991.0,83550.0,127813.0,-0.000915,-0.0023179999999999997,0.000915,0.3325,-1.4000000000000001,-3.6225000000000005,0.637625,-0.12996875,-0.17159375000000002,0.87246875,0.60421875,-0.690875,-0.8200937500000001,0.8568125,0.022717147529198543,0.026128023791207478,True
39225,251,0,252,7991.0,83553.0,127810.0,0.00122,-0.001647,-0.000976,0.31500000000000006,-1.5750000000000002,-3.7275000000000005,0.64090625,-0.11987500000000001,-0.1734375,0.87309375,0.6048125,-0.69134375,-0.81965625,0.8576875,0.023144497755412764,0.026036571316333194,True
39226,252,0,253,7992.0,83554.0,127809.0,0.001037,-0.000549,-0.002623,0.36750000000000005,-1.5925000000000002,-3.6750000000000003,0.642875,-0.12671875,-0.173625,0.86575,0.60065625,-0.68915625,-0.823375,0.8581562500000001,0.02278075015220498,0.02617492585113829,True
39227,253,0,254,7994.0,83553.0,127809.0,-0.000549,0.0026839999999999998,-6.1e-05,0.47250000000000003,-1.4525000000000001,-3.8150000000000004,0.64153125,-0.1269375,-0.17178125,0.88009375,0.6120625000000001,-0.68765625,-0.8233125,0.858,0.022712514477756466,0.026246748897835452,True
39228,254,0,255,7993.0,83555.0,127813.0,-0.000793,0.002745,0.0017079999999999999,0.56,-1.4000000000000001,-3.8500000000000005,0.63775,-0.130125,-0.1714375,0.88484375,0.5985,-0.6892812500000001,-0.82203125,0.8621562500000001,0.02264773301166878,0.026210334821007045,True
39229,255,0,256,7996.0,83554.0,127811.0,-0.001281,0.001586,0.0028669999999999998,0.45500000000000007,-1.2075,-3.8675,0.6290625,-0.130875,-0.172875,0.86975,0.6043125,-0.69159375,-0.821375,0.857875,0.022708892576041192,0.026126675093543366,True
39230,256,0,257,7996.0,83552.0,127813.0,0.0,-0.002257,-0.0015249999999999999,0.10500000000000001,-1.4525000000000001,-3.8500000000000005,0.65378125,-0.1258125,-0.1734375,0.86546875,0.61346875,-0.68840625,-0.82271875,0.8586875,0.02278777108182105,0.026156733939548826,True
39231,257,0,258,7997.0,83552.0,127809.0,0.001952,-0.0023179999999999997,-0.002989,0.17500000000000002,-1.4875,-3.7625,0.64871875,-0.12615625,-0.17625,0.8698125,0.6091875,-0.6884375,-0.82115625,0.8584375,0.02277508449046239,0.025982119588002672,True
39232,258,0,259,7997.0,83552.0,127806.0,0.001098,-0.00122,-0.004392,0.36750000000000005,-1.5050000000000001,-3.5875000000000004,0.6370625,-0.1313125,-0.17040625,0.88603125,0.61284375,-0.68821875,-0.8208125000000001,0.86559375,0.022557571108689237,0.02620406765491662,True
39233,259,0,260,7998.0,83552.0,127809.0,0.002013,0.000549,-0.001281,0.49000000000000005,-1.4700000000000002,-3.4650000000000003,0.6206875000000001,-0.12909375,-0.1741875,0.86828125,0.6051562500000001,-0.69271875,-0.8200937500000001,0.8582500000000001,0.022825554597952078,0.026023521768526764,True
39234,260,0,261,7997.0,83551.0,127811.0,-0.001586,0.001952,0.002074,0.47250000000000003,-1.3125000000000002,-3.6575,0.65096875,-0.12528125,-0.17271875,0.8734375,0.6118125,-0.68871875,-0.823625,0.85759375,0.022821658171305468,0.026221240854226568,True
39235,261,0,262,7997.0,83548.0,127813.0,-0.00244,0.001403,0.003355,0.6125,-1.2075,-3.5875000000000004,0.6269375,-0.1315,-0.17,0.8808125,0.60925,-0.68865625,-0.82015625,0.8628125,0.022567297481004053,0.02619468803706665,True
39236,262,0,263,7998.0,83549.0,127813.0,-0.0015249999999999999,0.0008539999999999999,0.002745,0.5950000000000001,-1.3125000000000002,-3.4825000000000004,0.63209375,-0.1353125,-0.1696875,0.8890625,0.605125,-0.6863125,-0.8208125000000001,0.8619687500000001,0.022320060964957807,0.02623302520817963,True
39237,263,0,264,7999.0,83553.0,127822.0,-0.0006709999999999999,-0.000122,0.001098,0.42000000000000004,-1.54,-3.6925000000000003,0.63028125,-0.13075,-0.169875,0.8869375,0.5985625,-0.690625,-0.82065625,0.8619375,0.022675610682192128,0.02621934099748068,True
39238,264,0,265,7997.0,83549.0,127816.0,0.000732,0.000793,0.0006709999999999999,0.29750000000000004,-1.435,-3.7625,0.6318125,-0.13328125,-0.169125,0.88665625,0.60621875,-0.6905625,-0.81503125,0.86140625,0.022570617822092954,0.026028830811970063,True
39239,265,0,266,7998.0,83551.0,127808.0,-0.000366,-0.000915,-0.0008539999999999999,0.3325,-1.4525000000000001,-3.7975000000000003,0.63375,-0.12284375,-0.17371875,0.87040625,0.60503125,-0.68984375,-0.82003125,0.8579375,0.022964908394772644,0.026039955126970275,True
39240,266,0,267,7997.0,83551.0,127812.0,-0.00061,-0.0015249999999999999,-0.000305,0.3325,-1.33,-3.7100000000000004,0.64284375,-0.12853125,-0.17128125,0.8753125,0.60571875,-0.688125,-0.81965625,0.86253125,0.022666514771777932,0.02612344802317719,True
39241,267,0,268,7997.0,83549.0,127802.0,6.1e-05,-0.0011589999999999999,0.000549,0.17500000000000002,-1.4000000000000001,-3.8150000000000004,0.63825,-0.128375,-0.17184375000000002,0.872625,0.604875,-0.69053125,-0.82034375,0.85928125,0.022768090500280346,0.02612776061975371,True
39242,268,0,269,7995.0,83544.0,127796.0,0.001037,-0.0013419999999999999,-0.001037,0.052500000000000005,-1.4525000000000001,-3.8850000000000002,0.6416875,-0.12790625,-0.17475000000000002,0.87725,0.605,-0.68621875,-0.821875,0.85771875,0.022616363634062022,0.02607075412312728,True
39243,269,0,270,7993.0,83543.0,127793.0,0.001281,-0.00122,-0.0017079999999999999,0.15750000000000003,-1.5050000000000001,-3.7450000000000006,0.636625,-0.129375,-0.16921875,0.867625,0.6075,-0.68965625,-0.8205625,0.8631875,0.02269295466598487,0.026242102692072347,True
39244,270,0,271,7991.0,83541.0,127785.0,0.0015249999999999999,-0.00042699999999999997,-0.000915,0.5425000000000001,-1.3825,-3.7625,0.6441250000000001,-0.12703125,-0.17315625,0.8718125,0.60521875,-0.6892812500000001,-0.8205,0.85759375,0.022773040426197096,0.026081011663745695,True
39245,271,0,272,7989.0,83538.0,127778.0,-6.1e-05,0.002806,-0.00042699999999999997,0.5775,-1.3650000000000002,-3.7975000000000003,0.62634375,-0.1226875,-0.17221875,0.866625,0.61046875,-0.68840625,-0.821875,0.87634375,0.022914348713781396,0.026172730706282264,True
39246,272,0,273,7989.0,83536.0,127773.0,0.000549,0.003477,0.000122,0.6475000000000001,-1.4525000000000001,-3.7275000000000005,0.6424062500000001,-0.12753125,-0.1731875,0.869125,0.598,-0.69353125,-0.817375,0.88121875,0.022920982595391257,0.025957116737769403,True
39247,273,0,274,7987.0,83534.0,127775.0,-0.0017079999999999999,0.003355,0.000732,0.5425000000000001,-1.3125000000000002,-3.7100000000000004,0.64390625,-0.12734375,-0.17440625,0.87403125,0.59240625,-0.69234375,-0.815625,0.86203125,0.022881586524162983,0.02583931494773958,True
39248,274,0,275,7985.0,83535.0,127771.0,-0.003111,0.00061,0.001647,0.5075000000000001,-1.3650000000000002,-3.7975000000000003,0.64228125,-0.1216875,-0.170875,0.8793125,0.611375,-0.6871875000000001,-0.82496875,0.84809375,0.022906619071127485,0.02634822047862598,True
39249,275,0,276,7984.0,83535.0,127770.0,-0.0018909999999999999,-0.00061,0.0023179999999999997,0.43750000000000006,-1.33,-3.7450000000000006,0.63615625,-0.12890625,-0.1715625,0.8727812500000001,0.60465625,-0.69065625,-0.8160625,0.8765000000000001,0.022751521640904136,0.02597108223756287,True
39250,276,0,277,7982.0,83535.0,127765.0,-0.000122,-0.0015249999999999999,0.000976,0.36750000000000005,-1.6275000000000002,-3.8150000000000004,0.638375,-0.12712500000000002,-0.1735625,0.87315625,0.59365625,-0.693875,-0.8148125,0.8791875,0.022951035428825973,0.02584142032102802,True
39251,277,0,278,7978.0,83536.0,127758.0,0.002257,-0.0008539999999999999,0.000305,0.24500000000000002,-1.7500000000000002,-3.8325000000000005,0.64284375,-0.12684375,-0.16884375000000001,0.879375,0.59403125,-0.686875,-0.82915625,0.84290625,0.022685384440112408,0.026594238376505448,True
39252,278,0,279,7974.0,83529.0,127756.0,0.0040869999999999995,-0.001403,-0.000366,0.17500000000000002,-1.7850000000000001,-3.9375000000000004,0.6265625,-0.12728125,-0.17265625,0.873375,0.58075,-0.69678125,-0.8131875000000001,0.86165625,0.023059685156339958,0.02581414620753581,True
39253,279,0,280,7973.0,83527.0,127753.0,0.0040869999999999995,-0.000366,-0.0018909999999999999,0.08750000000000001,-1.8550000000000002,-3.99,0.63984375,-0.12528125,-0.1711875,0.8710625000000001,0.61275,-0.6855,-0.824125,0.87284375,0.022694243584290372,0.026302538357343915,True
39254,280,0,281,7974.0,83526.0,127751.0,-0.000244,0.000244,-0.0021349999999999997,0.3325,-1.54,-3.8500000000000005,0.640125,-0.12725,-0.17365625,0.8737812500000001,0.59290625,-0.7003125,-0.8182812500000001,0.85075,0.023200617401095636,0.025973797037214252,True
39255,281,0,282,7973.0,83527.0,127752.0,-0.002379,-0.0006709999999999999,-0.0013419999999999999,0.45500000000000007,-1.3475000000000001,-3.8675,0.64175,-0.12678125,-0.17171875,0.87328125,0.62003125,-0.6854375,-0.82621875,0.84821875,0.022631004615575483,0.026363257594352745,True
39256,282,0,283,7970.0,83526.0,127748.0,-0.00244,0.000305,-0.0008539999999999999,0.385,-1.4175000000000002,-3.8150000000000004,0.63759375,-0.12759375,-0.1719375,0.8750625,0.62071875,-0.6846875,-0.8250937500000001,0.84775,0.022568393867655807,0.026310323601496977,True
39257,283,0,284,7969.0,83528.0,127742.0,-0.001586,-0.000488,0.000366,0.22750000000000004,-1.3825,-3.7975000000000003,0.637125,-0.1275625,-0.1723125,0.87775,0.6197812500000001,-0.68565625,-0.8215,0.854875,0.02260801756080517,0.026154241282758898,True
39258,284,0,285,7970.0,83522.0,127739.0,-0.00042699999999999997,-0.000488,0.002745,0.28,-1.3475000000000001,-3.9025000000000003,0.6365625,-0.1268125,-0.16821875,0.87334375,0.6055,-0.6898125,-0.82034375,0.86340625,0.022802927320731987,0.026273810168322108,True
39259,285,0,286,7965.0,83525.0,127741.0,0.001281,-0.000976,0.002074,0.21000000000000002,-1.4875,-3.9375000000000004,0.6375625,-0.13028125000000002,-0.17178125,0.87834375,0.59940625,-0.691875,-0.8195,0.8629687500000001,0.022744070671020324,0.026097171578798928,True
39260,286,0,287,7963.0,83524.0,127737.0,0.001647,0.0006709999999999999,0.00061,0.24500000000000002,-1.54,-3.9025000000000003,0.6374062500000001,-0.1271875,-0.171875,0.87309375,0.605,-0.6906875,-0.81934375,0.8580625000000001,0.022822369769979065,0.02608726308486702,True
39261,287,0,288,7962.0,83525.0,127735.0,0.000183,0.0015249999999999999,-0.000976,0.35000000000000003,-1.5225000000000002,-3.9025000000000003,0.64078125,-0.12775,-0.1711875,0.87890625,0.61225,-0.68403125,-0.81925,0.86384375,0.02253607785397695,0.026111284587568118,True
39262,288,0,289,7959.0,83524.0,127730.0,-0.00061,0.001586,-0.0015249999999999999,0.525,-1.5225000000000002,-3.9725000000000006,0.6364375,-0.1281875,-0.17184375000000002,0.87390625,0.605,-0.6914375,-0.816625,0.86353125,0.02281155157531837,0.025981826698835968,True
39263,289,0,290,7959.0,83520.0,127730.0,-0.001098,0.00183,-0.001098,0.6125,-1.33,-3.9025000000000003,0.63946875,-0.12775,-0.17334375,0.8741875,0.5928125,-0.68875,-0.82075,0.85378125,0.02272290010632373,0.026083267024566138,True
39264,290,0,291,7956.0,83521.0,127734.0,-0.0013419999999999999,0.0023179999999999997,-0.000122,0.47250000000000003,-1.715,-3.9725000000000006,0.64034375,-0.12659375,-0.1730625,0.87353125,0.6126875,-0.68790625,-0.822375,0.8575,0.022736334718542608,0.02615835511307842,True
39265,291,0,292,7952.0,83520.0,127730.0,0.0017079999999999999,0.00042699999999999997,0.0008539999999999999,0.45500000000000007,-1.8900000000000001,-3.99,0.637125,-0.12775,-0.17046875,0.88028125,0.61034375,-0.68365625,-0.81984375,0.85765625,0.022521227988661525,0.02616354101745705,True
39266,292,0,293,7949.0,83517.0,127728.0,0.004148,0.000793,-0.000183,0.24500000000000002,-1.9425000000000001,-4.095000000000001,0.6373125000000001,-0.1304375,-0.16734375,0.8737812500000001,0.605625,-0.6909375,-0.81971875,0.8612500000000001,0.022700636620217436,0.026284544420955618,True
39267,293,0,294,7949.0,83515.0,127720.0,0.0048189999999999995,-0.002013,0.000976,0.14,-2.0475000000000003,-3.99,0.6393125000000001,-0.1281875,-0.17815625000000002,0.8698750000000001,0.6048125,-0.68859375,-0.8205,0.8581562500000001,0.022698994348351657,0.025879565278701073,True
39268,294,0,295,7948.0,83515.0,127718.0,0.0032329999999999998,-0.0026839999999999998,0.000366,0.12250000000000001,-1.9075000000000002,-3.8675,0.6580625,-0.12515625,-0.17440625,0.880125,0.60053125,-0.68825,-0.82153125,0.8632500000000001,0.022808167853128516,0.026071115173444428,True
39269,295,0,296,7944.0,83512.0,127718.0,-0.0015249999999999999,-0.0023179999999999997,0.000366,0.36750000000000005,-1.5225000000000002,-3.7625,0.633125,-0.132375,-0.1701875,0.8820625,0.6004375,-0.6913125,-0.8199062500000001,0.865,0.022637010486988084,0.02617732490427921,True
39270,296,0,297,7942.0,83512.0,127716.0,-0.002196,-0.00061,-0.0013419999999999999,0.42000000000000004,-1.225,-3.6750000000000003,0.63153125,-0.1304375,-0.171375,0.87975,0.60459375,-0.689625,-0.8199375,0.86365625,0.022648683404466453,0.02613070641293919,True
39271,297,0,298,7944.0,83519.0,127718.0,-0.003111,0.000366,-0.0026839999999999998,0.42000000000000004,-1.2425000000000002,-3.6400000000000006,0.6412187500000001,-0.1253125,-0.1725625,0.8794062500000001,0.605,-0.68821875,-0.8205,0.862125,0.022800602007789644,0.026104933421969744,True
39272,298,0,299,7941.0,83515.0,127717.0,-0.002928,0.000488,0.0,0.49000000000000005,-1.1900000000000002,-3.7275000000000005,0.63484375,-0.131375,-0.16965625,0.886625,0.60484375,-0.69078125,-0.81875,0.86459375,0.022656482366267775,0.02615336187358348,True
39273,299,0,300,7939.0,83513.0,127709.0,-0.001647,-0.000366,0.0,0.385,-1.1375000000000002,-3.7100000000000004,0.6308125,-0.1295625,-0.17103125,0.8745625,0.60434375,-0.6900000000000001,-0.820625,0.85546875,0.022698967193195627,0.026171530733009346,True
39274,300,0,301,7939.0,83511.0,127711.0,0.000732,-0.000122,0.00061,0.42000000000000004,-1.4700000000000002,-3.5875000000000004,0.6540312500000001,-0.12562500000000001,-0.1770625,0.8685625,0.6071875,-0.68771875,-0.82115625,0.85790625,0.022768152687254673,0.02594938541591913,True
39275,301,0,302,7935.0,83513.0,127710.0,0.0015249999999999999,0.001952,0.00061,0.525,-1.435,-3.6750000000000003,0.65165625,-0.12562500000000001,-0.17084375000000002,0.86909375,0.61171875,-0.6878125,-0.821375,0.86365625,0.022771863647295606,0.026208509802539144,True
39276,302,0,303,7935.0,83509.0,127712.0,0.000976,0.002013,0.000732,0.43750000000000006,-1.5225000000000002,-3.8150000000000004,0.63803125,-0.1246875,-0.17671875,0.86809375,0.60459375,-0.68796875,-0.82159375,0.858,0.02281602248058581,0.02598040264839964,True
39277,303,0,304,7932.0,83507.0,127707.0,0.0017079999999999999,0.002257,0.0017079999999999999,0.5950000000000001,-1.3650000000000002,-3.7100000000000004,0.652875,-0.12553125,-0.17253125,0.88046875,0.61165625,-0.68790625,-0.82221875,0.86103125,0.02277937198501797,0.02617362720647202,True
39278,304,0,305,7931.0,83508.0,127707.0,-0.000915,0.002257,0.0021349999999999997,0.7350000000000001,-1.33,-3.6575,0.6303125,-0.13059375,-0.1680625,0.87821875,0.6055625,-0.6910625,-0.82046875,0.86559375,0.02269925605672093,0.026285009222478926,True
39279,305,0,306,7930.0,83507.0,127706.0,-0.000732,0.00061,0.0006709999999999999,0.5775,-1.4875,-3.6225000000000005,0.63246875,-0.12675,-0.17025,0.87090625,0.6048125,-0.69203125,-0.82021875,0.8643125,0.02289326642578261,0.026187067750964122,True
39280,306,0,307,7928.0,83504.0,127702.0,-0.0017079999999999999,-0.000244,0.000122,0.47250000000000003,-1.4525000000000001,-3.7450000000000006,0.64371875,-0.12665625,-0.17428125,0.8737812500000001,0.60709375,-0.6886875,-0.8230625,0.8543125,0.02276472777258815,0.026136229161893305,True
39281,307,0,308,7928.0,83507.0,127702.0,-0.000549,6.1e-05,0.0006709999999999999,0.5075000000000001,-1.54,-3.7625,0.6385625,-0.124875,-0.1715,0.87890625,0.61234375,-0.6880625,-0.82175,0.86159375,0.022812138457604766,0.026196783063240907,True
39282,308,0,309,7927.0,83506.0,127706.0,0.00042699999999999997,-0.001037,-0.000305,0.385,-1.5925000000000002,-3.7625,0.6364375,-0.13096875,-0.1724375,0.8715937500000001,0.60546875,-0.6904375,-0.82021875,0.85946875,0.02265932914311462,0.026098933958831446,True
39283,309,0,310,7922.0,83510.0,127705.0,-0.000732,-0.000793,-0.00061,0.35000000000000003,-1.6975000000000002,-3.8325000000000005,0.6440625,-0.12684375,-0.17296875,0.873375,0.607375,-0.6878125,-0.8231875000000001,0.8581875,0.022722497183579955,0.026194007115323124,True
39284,310,0,311,7922.0,83507.0,127702.0,0.002196,-0.0008539999999999999,-0.001098,0.3325,-1.5925000000000002,-3.8675,0.63753125,-0.12562500000000001,-0.172125,0.86884375,0.61103125,-0.6880000000000001,-0.8215625,0.85759375,0.022779285482825668,0.02616424731521233,True
39285,311,0,312,7923.0,83506.0,127709.0,0.0008539999999999999,-0.0018909999999999999,-0.0021349999999999997,0.22750000000000004,-1.61,-3.9200000000000004,0.6373125000000001,-0.12978125000000001,-0.17115625,0.87990625,0.6069687500000001,-0.6873125,-0.8205,0.865375,0.022583715825689816,0.026161590217763542,True
39286,312,0,313,7922.0,83502.0,127702.0,0.001952,-0.000793,-0.001464,0.1925,-1.61,-3.99,0.63621875,-0.1301875,-0.171125,0.8783125,0.60496875,-0.69065625,-0.820375,0.8653125,0.02269962954103336,0.02615794483362963,True
39287,313,0,314,7918.0,83502.0,127702.0,0.000305,-0.000732,-0.001647,0.31500000000000006,-1.715,-3.9550000000000005,0.63759375,-0.1278125,-0.17346875,0.873,0.6042500000000001,-0.68765625,-0.820375,0.8581875,0.02267707166410339,0.026063516365083125,True
39288,314,0,315,7920.0,83505.0,127709.0,0.000915,-0.000488,-0.001952,0.43750000000000006,-1.715,-3.7800000000000002,0.64384375,-0.1263125,-0.17275000000000001,0.87340625,0.61071875,-0.68840625,-0.8228125000000001,0.8455312500000001,0.022767518660707396,0.0261881082169879,True
39289,315,0,316,7919.0,83511.0,127705.0,0.000305,0.000305,6.1e-05,0.36750000000000005,-1.6275000000000002,-3.7800000000000002,0.64403125,-0.12587500000000001,-0.174125,0.87034375,0.6121875,-0.68884375,-0.823625,0.85790625,0.022802556316554923,0.02616459119085146,True
39290,316,0,317,7917.0,83507.0,127707.0,0.000549,0.000305,0.001586,0.385,-1.6450000000000002,-3.7800000000000002,0.64528125,-0.1268125,-0.17184375000000002,0.880375,0.6121875,-0.6890625,-0.82315625,0.85871875,0.02277324219986077,0.026238101772412602,True
39291,317,0,318,7916.0,83500.0,127707.0,-0.0006709999999999999,-0.000366,0.000549,0.36750000000000005,-1.6450000000000002,-3.7975000000000003,0.62990625,-0.12671875,-0.17090625,0.87915625,0.60428125,-0.691375,-0.82003125,0.8541875,0.022868562402863345,0.026153270858593296,True
39292,318,0,319,7916.0,83509.0,127709.0,-0.0011589999999999999,0.000732,0.00061,0.42000000000000004,-1.5750000000000002,-3.8150000000000004,0.63675,-0.1299375,-0.1703125,0.8809375,0.6050625000000001,-0.6905625,-0.81384375,0.8578125,0.022706044060357068,0.025934363756119,True
39293,319,0,320,7916.0,83506.0,127704.0,-0.001952,0.0008539999999999999,0.0006709999999999999,0.49000000000000005,-1.4525000000000001,-3.7275000000000005,0.63659375,-0.1296875,-0.17078125,0.86753125,0.59603125,-0.6914375,-0.8203125,0.8645625,0.0227508017708568,0.026169342146679257,True
39294,320,0,321,7915.0,83504.0,127710.0,0.00061,0.000549,0.0008539999999999999,0.5075000000000001,-1.5225000000000002,-3.7275000000000005,0.62975,-0.1291875,-0.1665625,0.87990625,0.60478125,-0.6900625,-0.81959375,0.861625,0.022716629413149524,0.026311117602398307,True
39295,321,0,322,7913.0,83503.0,127707.0,6.1e-05,0.0013419999999999999,-0.000976,0.3325,-1.6275000000000002,-3.7450000000000006,0.63653125,-0.1279375,-0.1718125,0.87553125,0.60475,-0.69025,-0.82071875,0.85809375,0.022774678263687082,0.02614373324704789,True
39296,322,0,323,7913.0,83506.0,127707.0,0.000549,-0.000366,0.000183,0.36750000000000005,-1.715,-3.7975000000000003,0.6375000000000001,-0.12871875,-0.17046875,0.87721875,0.610625,-0.68771875,-0.8209375,0.8611562500000001,0.022642837341947608,0.026206453724803905,True
39297,323,0,324,7914.0,83506.0,127708.0,-0.000549,0.000976,-0.00061,0.525,-1.5925000000000002,-3.7275000000000005,0.636625,-0.12684375,-0.1709375,0.8731875,0.60721875,-0.68834375,-0.82221875,0.8554375000000001,0.022743526487069426,0.02623783379557881,True
39298,324,0,325,7912.0,83500.0,127705.0,0.00061,0.0006709999999999999,0.001464,0.47250000000000003,-1.6450000000000002,-3.6750000000000003,0.63634375,-0.1264375,-0.17275000000000001,0.8735937500000001,0.6095,-0.6876875,-0.820875,0.8576875,0.022734004551864164,0.02611209314740113,True
39299,325,0,326,7909.0,83503.0,127705.0,0.0011589999999999999,0.00042699999999999997,-0.000366,0.3325,-1.5750000000000002,-3.7450000000000006,0.6404375,-0.12728125,-0.17334375,0.8736875000000001,0.61059375,-0.6885,-0.8199062500000001,0.85746875,0.022731990602912287,0.026050158831683743,True
39300,326,0,327,7912.0,83503.0,127703.0,0.001464,-0.001586,-6.1e-05,0.28,-1.5750000000000002,-3.7450000000000006,0.64028125,-0.1276875,-0.17334375,0.87346875,0.60640625,-0.6901875000000001,-0.816375,0.859125,0.02278233002483274,0.02591157048521389,True
39301,327,0,328,7914.0,83501.0,127703.0,0.0018909999999999999,-0.001647,-0.000732,0.36750000000000005,-1.54,-3.6750000000000003,0.63928125,-0.12734375,-0.17259375,0.8729687500000001,0.60759375,-0.68465625,-0.82415625,0.85653125,0.02257728421881508,0.026247115649701086,True
39302,328,0,329,7912.0,83499.0,127702.0,0.000488,-0.001281,-0.001586,0.3325,-1.5575,-3.7275000000000005,0.63690625,-0.1289375,-0.17153125,0.8737812500000001,0.620375,-0.6870625,-0.82546875,0.85490625,0.02260799558473188,0.026341395869916857,True
39303,329,0,330,7910.0,83503.0,127702.0,-0.000915,-0.00042699999999999997,-0.00061,0.36750000000000005,-1.4875,-3.6400000000000006,0.63646875,-0.12715625,-0.171875,0.87603125,0.6196875000000001,-0.6865625,-0.817125,0.85378125,0.022660354190665467,0.02600019140009167,True
39304,330,0,331,7909.0,83497.0,127701.0,-0.000366,0.000183,-0.000915,0.5950000000000001,-1.435,-3.6750000000000003,0.63609375,-0.1300625,-0.171875,0.8935000000000001,0.60984375,-0.68671875,-0.8140000000000001,0.86403125,0.02254881483591253,0.02587752881437898,True
39305,331,0,332,7909.0,83501.0,127703.0,-0.0013419999999999999,0.000305,0.000366,0.49000000000000005,-1.4700000000000002,-3.6400000000000006,0.63465625,-0.12959375,-0.16940625,0.8665625,0.60353125,-0.6890937500000001,-0.8205,0.85459375,0.02266182816046053,0.02623209645252916,True
39306,332,0,333,7908.0,83498.0,127704.0,-0.001464,0.000122,0.000976,0.42000000000000004,-1.4525000000000001,-3.5875000000000004,0.664125,-0.12753125,-0.1640625,0.8929375,0.62075,-0.68671875,-0.82084375,0.87240625,0.022651349726257163,0.026460875247240535,True
39307,333,0,334,7906.0,83500.0,127706.0,-0.00061,-0.000366,0.000549,0.43750000000000006,-1.4700000000000002,-3.6400000000000006,0.6264375,-0.12609375,-0.179375,0.86509375,0.6006875,-0.6908125,-0.82346875,0.85396875,0.022871614694737166,0.025946968027987623,True
39308,334,0,335,7905.0,83503.0,127709.0,0.000366,-0.000305,0.001098,0.43750000000000006,-1.5225000000000002,-3.7275000000000005,0.64496875,-0.1270625,-0.16525,0.89478125,0.60859375,-0.6895,-0.81603125,0.8677812500000001,0.022780432977581564,0.02622422753436853,True
39309,335,0,336,7906.0,83500.0,127707.0,-0.0006709999999999999,0.001037,0.000732,0.47250000000000003,-1.4700000000000002,-3.5700000000000003,0.61690625,-0.13315625,-0.169375,0.8814375,0.5992500000000001,-0.69425,-0.81778125,0.8671562500000001,0.02272163560342995,0.026126680845009062,True
39310,336,0,337,7905.0,83497.0,127706.0,0.001403,0.0,0.000976,0.5950000000000001,-1.4000000000000001,-3.5525,0.6301875,-0.12475,-0.17375000000000002,0.8640625000000001,0.60628125,-0.685625,-0.8238125000000001,0.8534375000000001,0.022720712965541685,0.02618705325783459,True
39311,337,0,338,7904.0,83500.0,127703.0,0.000549,0.001464,0.000732,0.5425000000000001,-1.2950000000000002,-3.5700000000000003,0.6570312500000001,-0.12346875,-0.1769375,0.84884375,0.60178125,-0.6871875000000001,-0.8235,0.8534375000000001,0.02283446625906657,0.026046387495719785,True
39312,338,0,339,7903.0,83496.0,127709.0,-0.00042699999999999997,0.00183,-0.001464,0.5950000000000001,-1.2075,-3.6400000000000006,0.65815625,-0.1243125,-0.17125,0.8736875000000001,0.61340625,-0.6865,-0.81746875,0.8569687500000001,0.02277307435237883,0.026038866272371147,True
39313,339,0,340,7904.0,83497.0,127708.0,-0.001281,0.000915,0.000305,0.5425000000000001,-1.155,-3.6225000000000005,0.62515625,-0.1340625,-0.166,0.8951250000000001,0.6040625000000001,-0.6905625,-0.81878125,0.862625,0.022538976177638725,0.026301905940687556,True
39314,340,0,341,7904.0,83492.0,127704.0,-0.001403,-0.000183,-0.00042699999999999997,0.45500000000000007,-1.2425000000000002,-3.5000000000000004,0.624375,-0.13234375,-0.1713125,0.8739687500000001,0.60521875,-0.68640625,-0.82034375,0.85946875,0.02244403233054629,0.026149164432905974,True
39315,341,0,342,7904.0,83498.0,127707.0,-0.0008539999999999999,-0.001586,0.000488,0.35000000000000003,-1.2075,-3.7100000000000004,0.64534375,-0.1269375,-0.1761875,0.86334375,0.6095625,-0.68746875,-0.821875,0.85884375,0.02270509203176206,0.026012841495656552,True
39316,342,0,343,7904.0,83496.0,127711.0,0.000488,-0.001281,-6.1e-05,0.4025,-1.33,-3.6225000000000005,0.6502187500000001,-0.124125,-0.16793750000000002,0.88021875,0.61259375,-0.6880937500000001,-0.8195625,0.8645625,0.022843754390717185,0.026254491794526994,True
39317,343,0,344,7906.0,83497.0,127711.0,0.000366,-0.000488,-0.00061,0.45500000000000007,-1.2600000000000002,-3.4825000000000004,0.63928125,-0.126,-0.16653125,0.8729375,0.5983125,-0.6885625,-0.8210625,0.8578125,0.022786361093320034,0.02636999322651881,True
39318,344,0,345,7904.0,83495.0,127707.0,-0.001464,0.000915,-0.000305,0.525,-1.1900000000000002,-3.6225000000000005,0.63690625,-0.12775,-0.171375,0.8808125,0.6133125,-0.68846875,-0.8225625,0.8521875,0.022711767006611133,0.026233693640614262,True
39319,345,0,346,7902.0,83500.0,127709.0,0.000732,0.00122,0.000122,0.45500000000000007,-1.225,-3.6400000000000006,0.63434375,-0.1266875,-0.171375,0.87471875,0.60709375,-0.6882812500000001,-0.8209375,0.8584375,0.022747381411980638,0.026169942211086913,True
39320,346,0,347,7901.0,83500.0,127712.0,0.001647,0.000183,0.000915,0.42000000000000004,-1.2425000000000002,-3.6400000000000006,0.63771875,-0.12637500000000002,-0.17059375000000002,0.8794375,0.612625,-0.68815625,-0.8226875,0.8579375,0.022755091320357308,0.026270070474842824,True
39321,347,0,348,7903.0,83498.0,127706.0,-0.000183,-0.000488,0.000549,0.36750000000000005,-1.3125000000000002,-3.6925000000000003,0.63634375,-0.12915625,-0.17221875,0.8738750000000001,0.60165625,-0.687625,-0.82365625,0.85921875,0.022621404448585073,0.026242608801835952,True
39322,348,0,349,7904.0,83503.0,127711.0,-0.0006709999999999999,-0.000305,0.000183,0.31500000000000006,-1.4525000000000001,-3.7275000000000005,0.6430625,-0.1274375,-0.1705625,0.8745625,0.6113125,-0.68875,-0.81896875,0.86371875,0.022735557693281352,0.026125430775603843,True
39323,349,0,350,7903.0,83501.0,127706.0,-0.000122,0.001037,0.000244,0.29750000000000004,-1.2775,-3.8675,0.6375625,-0.1279375,-0.170375,0.8798125,0.60559375,-0.691625,-0.8186875,0.8649375,0.02282909691038966,0.026121949438301283,True
39324,350,0,351,7906.0,83500.0,127711.0,-0.001281,0.000244,0.000366,0.36750000000000005,-1.2075,-3.9550000000000005,0.63621875,-0.129,-0.1706875,0.8771875,0.60503125,-0.68965625,-0.82021875,0.86390625,0.022708143212807994,0.02616944099253759,True
39325,351,0,352,7905.0,83501.0,127714.0,-0.001098,0.000183,-0.001037,0.47250000000000003,-1.155,-3.7975000000000003,0.6363125000000001,-0.12971875,-0.1705625,0.87896875,0.60509375,-0.68821875,-0.82040625,0.8640625000000001,0.022622126191262786,0.02618183374818855,True
39326,352,0,353,7904.0,83503.0,127714.0,-0.0008539999999999999,-0.00042699999999999997,-0.00042699999999999997,0.49000000000000005,-1.225,-3.7625,0.6366875,-0.12946875,-0.1713125,0.88121875,0.60540625,-0.68765625,-0.8161875000000001,0.85784375,0.022609983481117205,0.025986062524712954,True
39327,353,0,354,7904.0,83501.0,127710.0,0.000244,-0.001037,0.0006709999999999999,0.31500000000000006,-1.2950000000000002,-3.7800000000000002,0.636625,-0.129875,-0.1718125,0.86621875,0.607875,-0.68784375,-0.82184375,0.8585625,0.02260095112599698,0.02618787131797975,True
39328,354,0,355,7902.0,83500.0,127711.0,0.001952,0.0006709999999999999,-0.001037,0.24500000000000002,-1.6450000000000002,-3.8675,0.6388125,-0.12696875,-0.17350000000000002,0.87403125,0.61328125,-0.68784375,-0.82034375,0.85809375,0.022718671005846756,0.02606103108463194,True
39329,355,0,356,7903.0,83500.0,127709.0,0.0025009999999999998,0.000793,-0.000122,0.35000000000000003,-1.5925000000000002,-3.7800000000000002,0.64309375,-0.12734375,-0.17065625,0.87696875,0.604875,-0.68990625,-0.8144375,0.8631875,0.022785120943908003,0.025943817989023527,True
39330,356,0,357,7902.0,83500.0,127711.0,0.000976,-0.0011589999999999999,-0.0008539999999999999,0.35000000000000003,-1.5575,-3.7450000000000006,0.63625,-0.12915625,-0.17071875,0.87846875,0.60559375,-0.6901875000000001,-0.82040625,0.8643125,0.022722842829767904,0.02617553852487809,True
39331,357,0,358,7902.0,83501.0,127713.0,-0.00061,6.1e-05,-0.000732,0.42000000000000004,-1.4000000000000001,-3.7625,0.62834375,-0.1298125,-0.1714375,0.87371875,0.6051875,-0.6880625,-0.8214375,0.8579375,0.022612143014462963,0.02618704093991333,True
39332,358,0,359,7901.0,83500.0,127714.0,-0.0023179999999999997,-0.000244,0.000793,0.45500000000000007,-1.155,-3.7625,0.6429375,-0.127,-0.17153125,0.87390625,0.6111562500000001,-0.688375,-0.82075,0.8545625,0.022738434587128556,0.02615629060362801,True
39333,359,0,360,7903.0,83498.0,127715.0,-0.000915,0.000549,0.0008539999999999999,0.47250000000000003,-1.3825,-3.8150000000000004,0.6436875,-0.1266875,-0.17350000000000002,0.8651875,0.6079375,-0.6885,-0.8205,0.858375,0.02275604026166029,0.026067162224773878,True
39334,360,0,361,7903.0,83498.0,127720.0,0.00061,-0.00042699999999999997,0.00061,0.31500000000000006,-1.2600000000000002,-3.8325000000000005,0.6435625,-0.1276875,-0.172875,0.867125,0.60975,-0.68846875,-0.81840625,0.85803125,0.0227142985528416,0.026010181455547735,True
39335,361,0,362,7905.0,83495.0,127715.0,0.000366,-0.000549,-0.000366,0.21000000000000002,-1.3825,-3.8150000000000004,0.62771875,-0.12671875,-0.17303125,0.87328125,0.61003125,-0.6885625,-0.8220000000000001,0.8583125,0.0227572484222198,0.02614490170010475,True
39336,362,0,363,7905.0,83496.0,127713.0,0.002013,-0.000915,-0.000122,0.21000000000000002,-1.4000000000000001,-3.7975000000000003,0.6321875,-0.12637500000000002,-0.17209375,0.87996875,0.61125,-0.6879375,-0.82175,0.8580625000000001,0.022746432341705335,0.02617286250969412,True
39337,363,0,364,7905.0,83499.0,127712.0,0.001464,-0.000549,0.0,0.29750000000000004,-1.3475000000000001,-3.7800000000000002,0.6366875,-0.1296875,-0.1665625,0.87871875,0.60578125,-0.69015625,-0.8200625,0.8675,0.022700089230905537,0.026329506623925705,True
39338,364,0,365,7905.0,83493.0,127714.0,0.000183,-0.000793,0.000305,0.35000000000000003,-1.3475000000000001,-3.7100000000000004,0.63709375,-0.13028125000000002,-0.17040625,0.87834375,0.60121875,-0.68790625,-0.81978125,0.85890625,0.022586970087834,0.026163606901249383,True
39339,365,0,366,7905.0,83495.0,127712.0,0.000122,-0.001403,-0.000183,0.385,-1.2075,-3.5875000000000004,0.6359375,-0.12728125,-0.17190625,0.88125,0.6190625,-0.6868125,-0.82721875,0.85678125,0.022665188144479976,0.02639492190400908,True
39340,366,0,367,7903.0,83499.0,127717.0,0.0,-0.000183,-0.001281,0.45500000000000007,-1.3475000000000001,-3.4650000000000003,0.6368125,-0.130625,-0.1680625,0.8810625,0.6060625000000001,-0.68484375,-0.82278125,0.856,0.022451782786755536,0.026375720891469407,True
39341,367,0,368,7904.0,83497.0,127709.0,0.000122,0.001647,-0.002013,0.525,-1.3475000000000001,-3.5700000000000003,0.63703125,-0.1269375,-0.17384375,0.8735625,0.601875,-0.694875,-0.8138125,0.87409375,0.02299819294489241,0.025790827185463744,True
39342,368,0,369,7907.0,83495.0,127712.0,-0.000488,0.00183,-0.001403,0.665,-1.2075,-3.5875000000000004,0.64284375,-0.12662500000000002,-0.17359375,0.8740625,0.5991875,-0.6903125,-0.82046875,0.85271875,0.022830310470959004,0.02606215887844584,True
39343,369,0,370,7905.0,83496.0,127721.0,-0.004392,0.000915,0.004331,0.5950000000000001,-1.0150000000000001,-3.7275000000000005,0.6356875,-0.13015625,-0.1715,0.87803125,0.615125,-0.68671875,-0.8253125,0.8525,0.022545017247381248,0.02633652647877041,True
39344,370,0,371,7904.0,83497.0,127723.0,-0.0023179999999999997,-0.001037,0.0034159999999999998,0.4025,-1.1725,-3.7275000000000005,0.6380625,-0.12634375,-0.168,0.8775000000000001,0.61984375,-0.6869375,-0.82484375,0.8529375,0.022708112336736787,0.02645912927447932,True
39345,371,0,372,7904.0,83498.0,127718.0,0.000305,-0.003965,0.000183,0.2625,-1.5575,-3.6575,0.636625,-0.129375,-0.170625,0.87971875,0.6188125,-0.68653125,-0.8180625,0.85259375,0.022569240058787115,0.026087350694680538,True
39346,372,0,373,7906.0,83499.0,127717.0,0.004026,-0.00244,-0.00244,0.12250000000000001,-1.7675,-3.7800000000000002,0.6361875,-0.13025,-0.171125,0.88028125,0.62009375,-0.68034375,-0.82171875,0.8583437500000001,0.022288739394077526,0.0262106648033791,True
39347,373,0,374,7905.0,83497.0,127717.0,0.006771,-0.000976,-0.003721,0.24500000000000002,-1.7500000000000002,-3.7975000000000003,0.6364062500000001,-0.12821875,-0.17025,0.8735937500000001,0.600125,-0.6929375,-0.8166875,0.875375,0.022869646432304783,0.026048500630875895,True
39348,374,0,375,7908.0,83493.0,127714.0,0.0021349999999999997,0.001647,-0.0021349999999999997,0.5950000000000001,-1.1900000000000002,-3.4475000000000002,0.64253125,-0.127,-0.17046875,0.87403125,0.5935312500000001,-0.6905625,-0.82065625,0.8528125,0.022825016643504982,0.02619541938984792,True
39349,375,0,376,7908.0,83495.0,127720.0,-0.002989,0.0021349999999999997,0.000305,0.7875000000000001,-0.9100000000000001,-3.3775000000000004,0.63990625,-0.1269375,-0.174375,0.8679687500000001,0.6177812500000001,-0.68734375,-0.82171875,0.8530625000000001,0.02270014367179539,0.026079731082280518,True
39350,376,0,377,7906.0,83491.0,127718.0,-0.005673,0.0021349999999999997,0.0026839999999999998,0.8400000000000001,-0.6475000000000001,-3.3950000000000005,0.6414062500000001,-0.12628125,-0.1728125,0.8727812500000001,0.61353125,-0.6856875,-0.81875,0.855625,0.02266115740142947,0.026026189876605384,True
39351,377,0,378,7907.0,83497.0,127723.0,-0.005978,0.002745,0.003477,0.8575,-0.805,-3.6225000000000005,0.6423125000000001,-0.12521875,-0.16925,0.87796875,0.60628125,-0.69025,-0.81796875,0.86421875,0.022884792580067037,0.026139075140869456,True
39352,378,0,379,7910.0,83493.0,127723.0,-0.0042699999999999995,0.0021349999999999997,0.001769,0.6125,-1.0850000000000002,-3.7800000000000002,0.6374375,-0.1296875,-0.17059375000000002,0.861625,0.60559375,-0.69040625,-0.8140937500000001,0.8575625,0.02270998477394433,0.02593284310453611,True
39353,379,0,380,7908.0,83500.0,127720.0,-0.0011589999999999999,-0.00244,0.002928,0.3325,-1.4525000000000001,-3.6575,0.63725,-0.12278125000000001,-0.17140625,0.87815625,0.61053125,-0.68846875,-0.8200625,0.8515625,0.02291302493193305,0.026134351998509272,True
39354,380,0,381,7908.0,83497.0,127727.0,0.0011589999999999999,-0.002379,0.001037,0.1925,-1.6975000000000002,-3.6925000000000003,0.6370625,-0.12934375,-0.171125,0.874,0.6066875,-0.68796875,-0.8179375,0.8574375,0.022627418466737974,0.026062298690211465,True
39355,381,0,382,7911.0,83497.0,127724.0,0.0035989999999999998,-0.001464,-0.0006709999999999999,0.17500000000000002,-1.8025000000000002,-3.6750000000000003,0.6412187500000001,-0.1264375,-0.1731875,0.87421875,0.61325,-0.6840625,-0.8220625,0.85771875,0.02259048728303941,0.02614105898734241,True
39356,382,0,383,7911.0,83494.0,127720.0,0.005124,-0.001403,-0.001769,0.15750000000000003,-1.7850000000000001,-3.7625,0.64228125,-0.12715625,-0.1725625,0.874,0.608375,-0.6886875,-0.82121875,0.85809375,0.022744475582187187,0.02613313457865561,True
39357,383,0,384,7908.0,83493.0,127707.0,0.00488,-6.1e-05,-0.0040869999999999995,0.24500000000000002,-1.8375000000000001,-3.7275000000000005,0.64234375,-0.1270625,-0.17278125,0.8739375,0.60828125,-0.688375,-0.8210625,0.855125,0.022735903031284966,0.02611819095173706,True
39358,384,0,385,7908.0,83490.0,127704.0,-0.000915,-6.1e-05,-0.002562,0.43750000000000006,-1.5575,-3.7625,0.64209375,-0.12515625,-0.17134375000000002,0.8789375,0.61309375,-0.6885,-0.8230937500000001,0.8584375,0.022818063065799865,0.02625579255204642,True
39359,385,0,386,7906.0,83490.0,127700.0,-0.0013419999999999999,-0.000305,-0.0006709999999999999,0.56,-1.3475000000000001,-3.7100000000000004,0.6366875,-0.12975,-0.16671875,0.87990625,0.6089375,-0.6880625,-0.82203125,0.85871875,0.02261467460235083,0.026400438118858626,True
39360,386,0,387,7907.0,83486.0,127688.0,0.000183,6.1e-05,0.001586,0.5075000000000001,-1.3825,-3.6925000000000003,0.6364375,-0.13209375,-0.17025,0.8856875000000001,0.6055,-0.6890937500000001,-0.82034375,0.8634375,0.022560568874667584,0.026191972059210502,True
39361,387,0,388,7904.0,83487.0,127690.0,0.000183,0.000183,0.002806,0.43750000000000006,-1.3825,-3.7800000000000002,0.6314375,-0.12984375,-0.16746875,0.88690625,0.5990625,-0.6826875,-0.8200625,0.865125,0.02239803708571038,0.026292993823041344,True
39362,388,0,389,7904.0,83478.0,127684.0,-0.0035989999999999998,0.000366,0.002196,0.36750000000000005,-1.2425000000000002,-3.7800000000000002,0.62953125,-0.1288125,-0.16840625,0.87475,0.6053125,-0.69125,-0.8198125,0.8620625000000001,0.022778818407330533,0.026245413820108435,True
39363,389,0,390,7903.0,83485.0,127690.0,-0.0040869999999999995,0.000488,0.0017079999999999999,0.49000000000000005,-1.1025,-3.7100000000000004,0.64659375,-0.1255,-0.17575000000000002,0.8675,0.6089687500000001,-0.68853125,-0.814625,0.85753125,0.022805376484273446,0.0257459058921906,True
39364,390,0,391,7901.0,83482.0,127685.0,-0.003294,0.0021349999999999997,-6.1e-05,0.665,-1.1725,-3.7800000000000002,0.6499375000000001,-0.12515625,-0.1731875,0.8579375,0.61371875,-0.6883125,-0.8198125,0.861,0.022810641675084113,0.02605277537854083,True
39365,391,0,392,7897.0,83480.0,127679.0,-0.000366,0.002379,-0.0006709999999999999,0.665,-1.5575,-3.8150000000000004,0.64728125,-0.12584375,-0.17415625,0.8694375,0.60940625,-0.6881875000000001,-0.82125,0.858375,0.022777846692876906,0.026070151583824346,True
39366,392,0,393,7898.0,83480.0,127678.0,0.0017079999999999999,0.001464,-0.001769,0.4025,-1.7500000000000002,-3.9550000000000005,0.6519375000000001,-0.12453125,-0.1696875,0.88621875,0.61171875,-0.688375,-0.82065625,0.8635625,0.022838431042950375,0.026226895189364705,True
39367,393,0,394,7895.0,83484.0,127679.0,0.0035989999999999998,-0.001098,-0.001037,0.24500000000000002,-2.0125,-3.9025000000000003,0.6238125,-0.1301875,-0.16778125,0.877625,0.60265625,-0.68946875,-0.820375,0.8583437500000001,0.022652623904675956,0.02629266278208931,True
39368,394,0,395,7893.0,83477.0,127672.0,0.004697,-0.003904,-0.000488,0.24500000000000002,-1.9425000000000001,-3.7275000000000005,0.6422187500000001,-0.12575,-0.17690625000000001,0.86903125,0.60775,-0.68803125,-0.8219375,0.858125,0.022775459262269038,0.025986337690198435,True
39369,395,0,396,7890.0,83476.0,127670.0,0.004209,-0.0028669999999999998,-0.000183,0.24500000000000002,-1.9250000000000003,-3.6925000000000003,0.632,-0.13190625,-0.1683125,0.8785625,0.604875,-0.69090625,-0.819875,0.8623125,0.022639914239680856,0.026251643088452303,True
39370,396,0,397,7889.0,83477.0,127665.0,0.002379,-0.00042699999999999997,-0.00042699999999999997,0.3325,-1.6275000000000002,-3.8325000000000005,0.6315937500000001,-0.13318750000000001,-0.16903125,0.88415625,0.60521875,-0.68834375,-0.81921875,0.8620625000000001,0.022486573243699265,0.026196936597772644,True
39371,397,0,398,7886.0,83476.0,127666.0,-0.001037,-0.000732,0.000305,0.43750000000000006,-1.3825,-3.9025000000000003,0.63078125,-0.13318750000000001,-0.16928125,0.8758750000000001,0.6003437500000001,-0.6888125,-0.82025,0.85890625,0.022505132638517954,0.02622732446288817,True
39372,398,0,399,7885.0,83476.0,127670.0,-0.006405,0.000244,-0.000305,0.6300000000000001,-1.05,-3.6400000000000006,0.6415,-0.1265625,-0.17121875,0.8763125,0.60834375,-0.6880625,-0.82071875,0.8583437500000001,0.022743785584632248,0.026167654794444665,True
39373,399,0,400,7882.0,83476.0,127670.0,-0.0042699999999999995,-0.000366,0.00122,0.665,-1.1375000000000002,-3.6925000000000003,0.63490625,-0.1303125,-0.17,0.87246875,0.6056875,-0.68871875,-0.8203125,0.8622500000000001,0.02261787076334206,0.0262008183821215,True
39374,400,0,401,7881.0,83480.0,127668.0,-0.001952,0.0006709999999999999,-0.000122,0.49000000000000005,-1.5050000000000001,-3.9200000000000004,0.6424062500000001,-0.12715625,-0.173875,0.87415625,0.60584375,-0.6885,-0.8219375,0.8581875,0.022737053688964497,0.026108457488461568,True
39375,401,0,402,7877.0,83476.0,127663.0,0.00122,-0.00061,-0.000305,0.31500000000000006,-1.7850000000000001,-3.9025000000000003,0.64290625,-0.12653125,-0.17278125,0.8757812500000001,0.6119687500000001,-0.68415625,-0.82334375,0.85903125,0.022590401484758063,0.026207690090099166,True
39376,402,0,403,7875.0,83474.0,127661.0,0.002928,-0.000244,6.1e-05,0.14,-1.8550000000000002,-3.9375000000000004,0.64059375,-0.12778125,-0.17090625,0.87984375,0.619375,-0.6880000000000001,-0.8285,0.85903125,0.022691945479585224,0.026485440119217836,True
39377,403,0,404,7876.0,83474.0,127655.0,0.001769,0.0006709999999999999,0.0018909999999999999,0.43750000000000006,-1.61,-3.9375000000000004,0.63628125,-0.13015625,-0.17065625,0.880375,0.604125,-0.68590625,-0.82359375,0.85096875,0.022512845765992492,0.02630310125825355,True
39378,404,0,405,7875.0,83468.0,127656.0,-0.001037,0.0030499999999999998,0.000793,0.6475000000000001,-1.4700000000000002,-3.9550000000000005,0.6370625,-0.129625,-0.1660625,0.875,0.6189375,-0.6853750000000001,-0.8189062500000001,0.86784375,0.022513330261338952,0.026304291713096745,True
39379,405,0,406,7870.0,83472.0,127656.0,-0.0017079999999999999,0.003111,0.00061,0.7000000000000001,-1.5050000000000001,-3.8850000000000002,0.63290625,-0.12775,-0.17259375,0.8728750000000001,0.59665625,-0.6913125,-0.81496875,0.87890625,0.022824323332346144,0.025886593147533183,True
39380,406,0,407,7872.0,83471.0,127653.0,-0.000183,0.003294,-0.000183,0.5950000000000001,-1.6625,-3.9200000000000004,0.63090625,-0.12465625,-0.171,0.87803125,0.59790625,-0.687125,-0.82040625,0.84796875,0.022783890388208425,0.026164207122919267,True
39381,407,0,408,7870.0,83474.0,127653.0,0.001769,0.001403,-0.0021349999999999997,0.525,-1.9075000000000002,-3.8325000000000005,0.6370625,-0.1291875,-0.170875,0.8814062500000001,0.62965625,-0.6845,-0.82428125,0.8471875,0.02249640462638498,0.026321255524769726,True
39382,408,0,409,7868.0,83472.0,127651.0,0.0023179999999999997,-0.0013419999999999999,0.000305,0.22750000000000004,-1.8725000000000003,-3.9200000000000004,0.63684375,-0.128125,-0.1705,0.88075,0.6141875,-0.68475,-0.8233125,0.85196875,0.02254934726906288,0.026298363685346184,True
39383,409,0,410,7867.0,83470.0,127653.0,-0.000366,-0.002928,0.000366,0.17500000000000002,-1.8025000000000002,-3.7625,0.6375000000000001,-0.12746875,-0.17184375000000002,0.8728750000000001,0.6045,-0.69540625,-0.81571875,0.8775937500000001,0.022997698205511397,0.02594625634206142,True
39384,410,0,411,7864.0,83468.0,127650.0,-0.000183,-0.004575,0.001464,0.1925,-1.6625,-3.6925000000000003,0.64409375,-0.1263125,-0.173125,0.87353125,0.58809375,-0.68971875,-0.8195,0.8481875,0.022819468123750908,0.026043030681520578,True
39385,411,0,412,7863.0,83467.0,127650.0,-0.00122,-0.002745,-0.001098,0.2625,-1.4525000000000001,-3.7100000000000004,0.63671875,-0.123875,-0.1699375,0.87903125,0.62709375,-0.683625,-0.82996875,0.8399375,0.022676977145779847,0.02658204110707953,True
39386,412,0,413,7862.0,83468.0,127652.0,-0.000976,-0.0015249999999999999,-0.002074,0.31500000000000006,-1.3825,-3.7975000000000003,0.63678125,-0.12875,-0.17059375000000002,0.87409375,0.606,-0.6914375,-0.817375,0.873,0.02278877039864528,0.02606163020867437,True
39387,413,0,414,7864.0,83466.0,127648.0,-0.0017079999999999999,-0.000488,-0.001647,0.36750000000000005,-1.1900000000000002,-3.6750000000000003,0.6370625,-0.1296875,-0.17053125,0.8801875,0.59459375,-0.6938125,-0.81615625,0.8619375,0.02284479158493651,0.02601631749477722,True
39388,414,0,415,7859.0,83463.0,127649.0,-0.000549,-0.000244,-0.000976,0.47250000000000003,-1.3125000000000002,-3.6575,0.62753125,-0.1294375,-0.16740625,0.87903125,0.59809375,-0.68853125,-0.81659375,0.86234375,0.022645889475502924,0.026159411986183642,True
39389,415,0,416,7858.0,83467.0,127649.0,0.001037,0.000549,-0.000549,0.5075000000000001,-1.3650000000000002,-3.7100000000000004,0.63671875,-0.12815625,-0.17134375000000002,0.87815625,0.6013437500000001,-0.69159375,-0.8199375,0.8581875,0.022819000899850787,0.026131965481379634,True
39390,416,0,417,7859.0,83469.0,127649.0,0.001281,0.0023179999999999997,0.001586,0.43750000000000006,-1.3125000000000002,-3.6925000000000003,0.636875,-0.12703125,-0.17003125,0.87346875,0.60640625,-0.687875,-0.82315625,0.857625,0.022717376444914762,0.026311118272882808,True
39391,417,0,418,7857.0,83466.0,127649.0,0.000976,0.0023179999999999997,0.0006709999999999999,0.49000000000000005,-1.2950000000000002,-3.7625,0.63828125,-0.12653125,-0.17059375000000002,0.8771875,0.610625,-0.6880937500000001,-0.82315625,0.8476250000000001,0.022746288380406043,0.026288457979633435,True
39392,418,0,419,7856.0,83468.0,127650.0,-0.0013419999999999999,0.0023179999999999997,0.001952,0.7000000000000001,-1.2775,-3.6400000000000006,0.63709375,-0.12821875,-0.1704375,0.87775,0.60446875,-0.69115625,-0.8206875,0.8660625000000001,0.022799155061845277,0.026197904469809713,True
39393,419,0,420,7854.0,83467.0,127647.0,-0.000488,0.001281,0.000793,0.6475000000000001,-1.2425000000000002,-3.7625,0.6369375,-0.1279375,-0.16353125000000002,0.87746875,0.605375,-0.6908125,-0.81996875,0.8638750000000001,0.022796941169918972,0.026447958360140963,True
39394,420,0,421,7855.0,83468.0,127648.0,-0.002562,0.0013419999999999999,0.001403,0.5950000000000001,-1.2775,-3.7625,0.636375,-0.124375,-0.16984375000000002,0.87725,0.6050625000000001,-0.69096875,-0.820375,0.86546875,0.02294740865523958,0.02620956572976839,True
39395,421,0,422,7857.0,83469.0,127648.0,-0.0015249999999999999,0.00122,0.00061,0.5775,-1.4525000000000001,-3.6575,0.6364062500000001,-0.1281875,-0.1704375,0.8775000000000001,0.60528125,-0.69084375,-0.82059375,0.86290625,0.022788052757411338,0.026194226316604532,True
39396,422,0,423,7853.0,83467.0,127647.0,-0.000976,6.1e-05,-0.000793,0.6825000000000001,-1.5750000000000002,-3.6050000000000004,0.6254375,-0.12790625,-0.16821875,0.8798750000000001,0.60775,-0.68746875,-0.82034375,0.861625,0.022665851475761358,0.026273810168322108,True
39397,423,0,424,7852.0,83469.0,127649.0,0.001464,-0.001586,-0.001098,0.31500000000000006,-1.5750000000000002,-3.7625,0.63034375,-0.12953125000000001,-0.16946875,0.8805625,0.60546875,-0.69059375,-0.8201875000000001,0.8613125,0.02272373462059818,0.026217318060147612,True
39398,424,0,425,7855.0,83466.0,127645.0,0.00183,-0.002257,-0.00122,0.29750000000000004,-1.6975000000000002,-3.7275000000000005,0.6375625,-0.12840625,-0.17675,0.87175,0.60603125,-0.6901875000000001,-0.8179375,0.8573437500000001,0.022753219269801013,0.025835648107341718,True
39399,425,0,426,7851.0,83464.0,127644.0,0.001952,-0.002379,-6.1e-05,0.17500000000000002,-1.6975000000000002,-3.6750000000000003,0.6558437500000001,-0.1259375,-0.17265625,0.87640625,0.61125,-0.68896875,-0.82053125,0.8608750000000001,0.022804972362403753,0.026102382478215492,True
39400,426,0,427,7850.0,83465.0,127642.0,0.001647,-0.002745,-0.00042699999999999997,0.14,-1.7850000000000001,-3.6750000000000003,0.63009375,-0.1308125,-0.16475,0.88146875,0.6058125,-0.68878125,-0.8193125,0.86334375,0.02260009290657067,0.026373111664555575,True
39401,427,0,428,7852.0,83464.0,127635.0,0.00042699999999999997,-0.00183,-0.0030499999999999998,0.21000000000000002,-1.7850000000000001,-3.7100000000000004,0.63978125,-0.12587500000000001,-0.17321875,0.867625,0.6088125,-0.68853125,-0.8205625,0.85890625,0.02279018724534292,0.02608094598984209,True
39402,428,0,429,7849.0,83463.0,127642.0,-0.000793,0.000244,6.1e-05,0.35000000000000003,-1.4525000000000001,-3.7275000000000005,0.64765625,-0.13028125000000002,-0.16725,0.88871875,0.61153125,-0.68978125,-0.81953125,0.8632500000000001,0.022661197129885468,0.02628096572130064,True
39403,429,0,430,7848.0,83463.0,127643.0,-0.0008539999999999999,0.000305,0.000244,0.45500000000000007,-1.4000000000000001,-3.7625,0.63071875,-0.129125,-0.16659375,0.87996875,0.60553125,-0.6884375,-0.81946875,0.86275,0.022654835892307892,0.02630495465379371,True
39404,430,0,431,7850.0,83460.0,127644.0,-0.001464,0.000915,0.0017079999999999999,0.47250000000000003,-1.3475000000000001,-3.8850000000000002,0.6194375,-0.1330625,-0.16859375000000001,0.8900625,0.6058125,-0.69034375,-0.81940625,0.86440625,0.022570817791874608,0.026221920598926494,True
39405,431,0,432,7849.0,83459.0,127644.0,-0.00122,0.000732,0.001037,0.43750000000000006,-1.4525000000000001,-3.8500000000000005,0.630375,-0.13553125,-0.1686875,0.8896875,0.6046875,-0.68225,-0.8203125,0.8650625000000001,0.022150280059556972,0.026253698457664464,True
39406,432,0,433,7847.0,83466.0,127649.0,-0.00061,0.000488,0.001037,0.42000000000000004,-1.4175000000000002,-3.8500000000000005,0.63109375,-0.12928125000000001,-0.168875,0.87303125,0.60528125,-0.6910000000000001,-0.82034375,0.86440625,0.022749939249119114,0.026247370163839896,True
39407,433,0,434,7848.0,83465.0,127642.0,-0.00042699999999999997,0.0011589999999999999,0.0008539999999999999,0.49000000000000005,-1.4525000000000001,-3.8500000000000005,0.64003125,-0.1245,-0.17790625000000002,0.86875,0.60475,-0.6880625,-0.82340625,0.8581562500000001,0.022827327984931988,0.026003683519460585,True
39408,434,0,435,7849.0,83466.0,127649.0,-0.000366,0.002257,-0.0006709999999999999,0.5775,-1.4875,-3.8850000000000002,0.65415625,-0.12428125,-0.17240625,0.879125,0.6125625,-0.68796875,-0.8216875,0.85853125,0.02283247786434435,0.026157820655827693,True
39409,435,0,436,7846.0,83463.0,127646.0,0.000488,0.0017079999999999999,0.000549,0.525,-1.4700000000000002,-3.9200000000000004,0.631125,-0.1285625,-0.16696875,0.8700625000000001,0.60390625,-0.69084375,-0.8199062500000001,0.8599687500000001,0.0227728649410776,0.02630700911692606,True
39410,436,0,437,7847.0,83466.0,127652.0,0.00042699999999999997,0.000549,0.00122,0.385,-1.5050000000000001,-3.7800000000000002,0.64128125,-0.1266875,-0.17165625,0.8714375,0.61140625,-0.68778125,-0.8200625,0.857625,0.022727589179363777,0.026124279501713588,True
39411,437,0,438,7845.0,83463.0,127649.0,0.000122,-0.000244,0.000915,0.36750000000000005,-1.5575,-3.7975000000000003,0.640375,-0.1255625,-0.1709375,0.88025,0.611375,-0.68759375,-0.8240937500000001,0.8611875,0.022765736332646835,0.026311383471954546,True
39412,438,0,439,7847.0,83463.0,127651.0,0.000122,-0.000915,-0.000305,0.35000000000000003,-1.715,-3.8150000000000004,0.6366875,-0.129625,-0.17040625,0.8734375,0.60521875,-0.6895625,-0.82071875,0.8632500000000001,0.022679117947108213,0.026200389543513926,True
39413,439,0,440,7849.0,83466.0,127651.0,0.000793,-0.000732,-0.000305,0.3325,-1.6975000000000002,-3.7975000000000003,0.6404375,-0.12737500000000002,-0.1723125,0.87440625,0.60509375,-0.68940625,-0.82253125,0.8582500000000001,0.02276406505320475,0.026194699623955556,True
39414,440,0,441,7846.0,83463.0,127650.0,0.0011589999999999999,-0.000549,-0.0008539999999999999,0.43750000000000006,-1.8025000000000002,-3.8500000000000005,0.63621875,-0.12659375,-0.1710625,0.87990625,0.6120625000000001,-0.6873750000000001,-0.8203125,0.8535625,0.022715304887619685,0.02615801070192005,True
39415,441,0,442,7847.0,83464.0,127651.0,0.00042699999999999997,-0.000244,-0.0013419999999999999,0.4025,-1.8200000000000003,-3.8675,0.637375,-0.12821875,-0.1703125,0.87790625,0.6045625,-0.68921875,-0.82134375,0.86375,0.022722468688888747,0.02622868675270653,True
39416,442,0,443,7845.0,83464.0,127658.0,0.000549,-0.0008539999999999999,-0.00061,0.36750000000000005,-1.6975000000000002,-3.8150000000000004,0.6410625,-0.12662500000000002,-0.17359375,0.874625,0.6053125,-0.68853125,-0.82240625,0.8583437500000001,0.022759808767481866,0.026138179089708516,True
39417,443,0,444,7848.0,83462.0,127654.0,-0.000793,-0.001769,-0.000915,0.385,-1.5225000000000002,-3.9375000000000004,0.63628125,-0.12821875,-0.1710625,0.8803125,0.6013437500000001,-0.6894375,-0.81496875,0.86525,0.022731127430505458,0.025948299854296614,True
39418,444,0,445,7845.0,83461.0,127656.0,-0.001037,-0.0008539999999999999,-0.0018909999999999999,0.42000000000000004,-1.5750000000000002,-4.0075,0.636875,-0.13053125000000002,-0.165625,0.87309375,0.60509375,-0.6905625,-0.82134375,0.857875,0.022681996410571854,0.026417536318919077,True
39419,445,0,446,7845.0,83463.0,127656.0,-0.002928,0.000122,-0.002074,0.56,-1.6800000000000002,-3.8850000000000002,0.63959375,-0.12646875,-0.17065625,0.879375,0.612125,-0.68796875,-0.82028125,0.86309375,0.022743871951798385,0.02617315224822442,True
39420,446,0,447,7846.0,83466.0,127665.0,0.000183,0.000183,0.0006709999999999999,0.49000000000000005,-1.6450000000000002,-3.7450000000000006,0.6364375,-0.1286875,-0.16640625,0.8794375,0.60534375,-0.6901875000000001,-0.82071875,0.8653125,0.022741828104788597,0.026361545231239528,True
39421,447,0,448,7847.0,83462.0,127656.0,0.003111,-0.00042699999999999997,0.000976,0.43750000000000006,-1.8025000000000002,-3.7975000000000003,0.63653125,-0.12890625,-0.170625,0.87890625,0.60484375,-0.6903125,-0.82040625,0.86509375,0.022737915933627815,0.026179315658864364,True
39422,448,0,449,7845.0,83460.0,127653.0,0.003294,-0.0006709999999999999,0.002928,0.22750000000000004,-1.7850000000000001,-3.8675,0.6368125,-0.12975,-0.16725,0.86703125,0.5973437500000001,-0.689875,-0.820875,0.86403125,0.02268642510340777,0.026333680823097495,True
39423,449,0,450,7844.0,83460.0,127655.0,0.0026839999999999998,-0.000305,0.001464,0.31500000000000006,-1.6800000000000002,-3.7800000000000002,0.6374062500000001,-0.12675,-0.17196875,0.8743125,0.6008125,-0.6880937500000001,-0.8200000000000001,0.8585625,0.02273742783401412,0.026109236502820307,True
39424,450,0,451,7845.0,83463.0,127657.0,0.0008539999999999999,0.0008539999999999999,-0.0008539999999999999,0.385,-1.3650000000000002,-3.8675,0.641,-0.1280625,-0.1706875,0.88134375,0.61028125,-0.68778125,-0.81921875,0.85865625,0.022671893611338607,0.026130204037949422,True
39425,451,0,452,7846.0,83461.0,127655.0,-0.000305,0.000915,-0.00122,0.45500000000000007,-1.2600000000000002,-3.7975000000000003,0.63728125,-0.12915625,-0.165375,0.877625,0.5993437500000001,-0.6900000000000001,-0.81896875,0.8641875,0.022715421223167276,0.026334444294749352,True
39426,452,0,453,7846.0,83463.0,127658.0,-0.00488,-0.000244,-0.001647,0.45500000000000007,-1.12,-3.6225000000000005,0.6428125,-0.1265625,-0.172375,0.8728125,0.60478125,-0.6868125,-0.82084375,0.8586875,0.022694302879320692,0.026125975270280644,True
39427,453,0,454,7845.0,83468.0,127657.0,-0.003965,-0.000732,-0.000122,0.3325,-1.1025,-3.5875000000000004,0.637375,-0.1289375,-0.1698125,0.87390625,0.600625,-0.68515625,-0.818625,0.8640625000000001,0.022532518910023103,0.026142161380817833,True
39428,454,0,455,7845.0,83463.0,127661.0,-0.0021349999999999997,-0.000976,0.000915,0.3325,-1.2425000000000002,-3.6225000000000005,0.63765625,-0.1268125,-0.17065625,0.8688750000000001,0.59784375,-0.6890625,-0.82021875,0.8594375,0.02277324219986077,0.026170700046710915,True
39429,455,0,456,7847.0,83466.0,127660.0,-0.001098,0.000122,-0.000183,0.49000000000000005,-1.54,-3.6750000000000003,0.64071875,-0.1264375,-0.17053125,0.8778125,0.61034375,-0.68834375,-0.8198125,0.86271875,0.022759981620881314,0.026159796734967277,True
39430,456,0,457,7847.0,83465.0,127664.0,0.000915,0.002745,0.001647,0.5775,-1.6800000000000002,-3.6750000000000003,0.63728125,-0.12709375,-0.17203125,0.87253125,0.605375,-0.69065625,-0.8203125,0.859125,0.022824929977306698,0.026118980169971672,True
39431,457,0,458,7845.0,83466.0,127661.0,0.0026839999999999998,0.002806,0.000732,0.56,-1.6625,-3.7450000000000006,0.63675,-0.1270625,-0.17,0.874375,0.6131875,-0.6862812500000001,-0.81878125,0.871125,0.02265301704767704,0.026140737672201368,True
39432,458,0,459,7847.0,83464.0,127667.0,0.002562,0.002562,0.001098,0.5425000000000001,-1.6625,-3.7800000000000002,0.64003125,-0.1259375,-0.17040625,0.8785937500000001,0.60603125,-0.68778125,-0.82065625,0.8561875,0.022757968580104784,0.026197937453809265,True
39433,459,0,460,7846.0,83462.0,127667.0,0.000732,0.000549,0.001647,0.42000000000000004,-1.5925000000000002,-3.7800000000000002,0.63709375,-0.12840625,-0.17025,0.87246875,0.6051562500000001,-0.69175,-0.813625,0.87234375,0.022815059685927487,0.025928295442524014,True
39434,460,0,461,7849.0,83465.0,127667.0,-0.001037,-0.0030499999999999998,0.000549,0.2625,-1.4175000000000002,-3.7800000000000002,0.64309375,-0.12662500000000002,-0.17040625,0.88190625,0.61290625,-0.6865,-0.8224375,0.8668125,0.022679399671885446,0.0262678171714603,True
39435,461,0,462,7849.0,83464.0,127667.0,-0.002013,-0.003355,0.000305,0.21000000000000002,-1.2950000000000002,-3.6400000000000006,0.637125,-0.12662500000000002,-0.168125,0.87325,0.59971875,-0.6949062500000001,-0.81703125,0.85903125,0.02301208371665716,0.026147617878347153,True
39436,462,0,463,7848.0,83461.0,127664.0,-0.003477,-0.0026839999999999998,-0.001464,0.29750000000000004,-1.2425000000000002,-3.6400000000000006,0.65953125,-0.12537500000000001,-0.180875,0.86628125,0.6148125,-0.68659375,-0.8225625,0.8539375,0.022733745922318666,0.025850977311468144,True
39437,463,0,464,7847.0,83460.0,127665.0,-0.002745,-0.0013419999999999999,-0.002257,0.2625,-1.2775,-3.5525,0.6608125,-0.12284375,-0.1665625,0.88625,0.60946875,-0.68571875,-0.82040625,0.86503125,0.022801645181994144,0.026342991464936235,True
39438,464,0,465,7848.0,83463.0,127668.0,-0.000732,-0.000305,-0.002562,0.45500000000000007,-1.4700000000000002,-3.7625,0.62596875,-0.13559375,-0.16465625,0.87321875,0.59928125,-0.6935625,-0.8165625,0.86321875,0.022595717001141487,0.026268998778537514,True
39439,465,0,466,7847.0,83461.0,127669.0,0.002013,0.001586,-0.001098,0.5775,-1.7325000000000002,-3.7800000000000002,0.6494375,-0.12478125,-0.1683125,0.86371875,0.61425,-0.68659375,-0.819125,0.85209375,0.022757797438133807,0.026222217745387882,True
39440,466,0,467,7849.0,83461.0,127666.0,0.007442,0.00244,-0.000793,0.56,-1.8725000000000003,-3.8325000000000005,0.65790625,-0.12159375,-0.16771875,0.88753125,0.6214375,-0.6835,-0.819625,0.8579375,0.022764447910547533,0.02626575743992909,True
39441,467,0,468,7850.0,83458.0,127664.0,0.0053679999999999995,0.000244,0.000183,0.28,-1.8200000000000003,-3.7450000000000006,0.6248125,-0.1274375,-0.1811875,0.87190625,0.595375,-0.6919375,-0.81934375,0.85359375,0.022861713464162138,0.025712051713696095,True
39442,468,0,469,7847.0,83459.0,127664.0,0.001647,-0.000244,0.0013419999999999999,0.35000000000000003,-1.4175000000000002,-3.6400000000000006,0.6421875,-0.12965625,-0.16590625,0.89659375,0.61109375,-0.68696875,-0.81675,0.8666875,0.022575169339087046,0.026225986480905034,True
39443,469,0,470,7849.0,83455.0,127664.0,-0.003538,-0.0015249999999999999,0.0018909999999999999,0.28,-1.12,-3.6050000000000004,0.62140625,-0.13,-0.1715625,0.86328125,0.6010625,-0.69328125,-0.81975,0.85303125,0.022811113853085038,0.026115794881092676,True
39444,470,0,471,7849.0,83463.0,127668.0,-0.00549,-0.002196,0.001586,0.47250000000000003,-0.9625000000000001,-3.4825000000000004,0.65665625,-0.1255,-0.16084375,0.8951250000000001,0.6133125,-0.68684375,-0.81846875,0.86603125,0.022738579126786916,0.026497404276804946,True
39445,471,0,472,7851.0,83462.0,127672.0,-0.00671,-0.001769,0.000366,0.47250000000000003,-0.9100000000000001,-3.5700000000000003,0.635,-0.12465625,-0.17696875,0.8755625,0.6053125,-0.688625,-0.82025,0.8590625000000001,0.022843262838655454,0.025917597526213476,True
39446,472,0,473,7853.0,83465.0,127673.0,-0.0044529999999999995,0.001098,-0.001586,0.5425000000000001,-1.2950000000000002,-3.7100000000000004,0.62884375,-0.13384375,-0.1703125,0.8710625000000001,0.59690625,-0.69153125,-0.8161875000000001,0.8572500000000001,0.022586185293793797,0.026026358803099794,True
39447,473,0,474,7851.0,83460.0,127675.0,6.1e-05,0.000488,-0.001281,0.5075000000000001,-1.4875,-3.7275000000000005,0.63375,-0.12615625,-0.1678125,0.8709687500000001,0.6116875,-0.689875,-0.818375,0.8629375,0.022831980720842047,0.026212936987212093,True
39448,474,0,475,7854.0,83467.0,127681.0,0.0017079999999999999,0.002623,-0.000793,0.56,-1.8025000000000002,-3.8500000000000005,0.64234375,-0.12253125000000001,-0.1696875,0.86734375,0.6073125,-0.68775,-0.8185,0.86421875,0.022894704863748214,0.026142293047525033,True
39449,475,0,476,7854.0,83468.0,127683.0,0.004331,0.003538,0.002379,0.5775,-1.8725000000000003,-4.025,0.63909375,-0.12690625,-0.17096875,0.87428125,0.6054375,-0.6873750000000001,-0.817875,0.85859375,0.022702646595678968,0.026066141843328648,True
39450,476,0,477,7855.0,83464.0,127682.0,0.005246,0.003111,0.003904,0.5075000000000001,-1.7500000000000002,-4.0600000000000005,0.6442187500000001,-0.127,-0.16946875,0.87984375,0.61375,-0.68790625,-0.8210625,0.86425,0.022719879293125557,0.026251646157371383,True
39451,477,0,478,7856.0,83463.0,127679.0,0.001281,0.0,0.000305,0.385,-1.8375000000000001,-3.8850000000000002,0.63871875,-0.1270625,-0.17196875,0.86375,0.60578125,-0.6910000000000001,-0.81878125,0.85871875,0.022839799927098947,0.026061412665055822,True
39452,478,0,479,7856.0,83463.0,127677.0,0.000244,0.000122,-0.000915,0.42000000000000004,-1.7325000000000002,-3.9025000000000003,0.63865625,-0.12834375,-0.169625,0.87315625,0.6125,-0.687125,-0.81975,0.864625,0.022634521030699198,0.026193857714118796,True
39453,479,0,480,7855.0,83464.0,127682.0,-0.001403,-0.0008539999999999999,-0.002196,0.4025,-1.4700000000000002,-3.8675,0.6441250000000001,-0.12240625000000001,-0.1678125,0.8774375,0.60653125,-0.68603125,-0.8210937500000001,0.8590625000000001,0.022831738090747167,0.026319599634887163,True
39454,480,0,481,7857.0,83466.0,127681.0,-0.0008539999999999999,-0.002257,-0.000183,0.15750000000000003,-1.4000000000000001,-3.9725000000000006,0.6375625,-0.128375,-0.169375,0.87515625,0.61159375,-0.68771875,-0.8200000000000001,0.85909375,0.022656761269203945,0.026213738920225625,True
39455,481,0,482,7858.0,83469.0,127685.0,-0.0015249999999999999,-0.0032329999999999998,-0.001098,0.08750000000000001,-1.4000000000000001,-3.8325000000000005,0.6368125,-0.12712500000000002,-0.16853125,0.87403125,0.6056875,-0.69153125,-0.81865625,0.86525,0.022858292759789855,0.026195012068794012,True
39456,482,0,483,7855.0,83468.0,127683.0,0.001037,-0.0068319999999999995,-0.00366,-0.22750000000000004,-1.5575,-3.8325000000000005,0.6375625,-0.12765625,-0.1668125,0.87646875,0.604625,-0.686,-0.8191875000000001,0.864125,0.022617829944097872,0.026285107036642517,True
39457,483,0,484,7857.0,83466.0,127688.0,0.002379,-0.005124,-0.0034159999999999998,-0.22750000000000004,-1.4700000000000002,-3.9025000000000003,0.63909375,-0.12625,-0.17146875,0.87328125,0.60490625,-0.692375,-0.81821875,0.85871875,0.022927118189319577,0.026059485030528226,True
39458,484,0,485,7857.0,83468.0,127688.0,0.002745,-0.002257,-0.002562,0.07,-1.2425000000000002,-3.9200000000000004,0.64346875,-0.12696875,-0.17009375000000002,0.8739375,0.6101875,-0.6878125,-0.82146875,0.85840625,0.0227174339565322,0.026242403564454658,True
39459,485,0,486,7862.0,83469.0,127690.0,0.0015249999999999999,0.002196,-0.000793,0.29750000000000004,-1.1025,-3.8325000000000005,0.6423125000000001,-0.12475,-0.16971875,0.88003125,0.61121875,-0.6875625,-0.8208125000000001,0.8542500000000001,0.022797410639466734,0.026231766184124716,True
39460,486,0,487,7862.0,83470.0,127696.0,-0.00183,0.0053679999999999995,0.0008539999999999999,0.6125,-0.8225000000000001,-3.8325000000000005,0.63671875,-0.12934375,-0.16971875,0.87890625,0.6055625,-0.68971875,-0.81746875,0.862625,0.02269669434772318,0.02610056676307893,True
39461,487,0,488,7861.0,83470.0,127704.0,-0.006344,0.008052,0.007076,1.1900000000000002,-0.42000000000000004,-3.8325000000000005,0.6366875,-0.125,-0.1705625,0.8751875,0.60509375,-0.6890625,-0.81840625,0.8634375,0.0228466552749826,0.026103358268623717,True
39462,488,0,489,7862.0,83472.0,127708.0,-0.005124,0.007869,0.0064659999999999995,1.0850000000000002,-0.5775,-3.9025000000000003,0.64325,-0.12665625,-0.1709375,0.87415625,0.60540625,-0.68875,-0.82075,0.858875,0.022767201660675408,0.026180212120906904,True
39463,489,0,490,7864.0,83474.0,127708.0,-0.003294,0.004941,0.004331,0.8225000000000001,-1.2075,-3.8500000000000005,0.6408125,-0.12687500000000002,-0.170125,0.8801875,0.60971875,-0.6884375,-0.82096875,0.8589375,0.022745971671961823,0.02622152892400705,True
39464,490,0,491,7864.0,83469.0,127705.0,0.00042699999999999997,0.00183,0.000549,0.42000000000000004,-1.7675,-3.8150000000000004,0.637,-0.12771875,-0.17103125,0.8743125,0.60509375,-0.6912812500000001,-0.81846875,0.858875,0.022824352219470188,0.026086923674531692,True
39465,491,0,492,7865.0,83463.0,127701.0,0.0050019999999999995,-0.0017079999999999999,-0.0017079999999999999,0.035,-2.1,-3.99,0.63846875,-0.12990625,-0.1695625,0.87840625,0.60940625,-0.68740625,-0.819375,0.858125,0.022582364236826215,0.026181662511646643,True
39466,492,0,493,7864.0,83463.0,127700.0,0.0060999999999999995,-0.008296,-0.002623,-0.4025,-1.8200000000000003,-3.9200000000000004,0.63696875,-0.1298125,-0.16915625,0.87353125,0.60484375,-0.69159375,-0.8195,0.86278125,0.022751923415231145,0.026202935192086864,True
39467,493,0,494,7863.0,83457.0,127693.0,0.0042699999999999995,-0.0075639999999999995,-0.004514,-0.35000000000000003,-1.4000000000000001,-3.7975000000000003,0.6429375,-0.12659375,-0.17165625,0.87028125,0.605,-0.687,-0.8208125000000001,0.8585,0.02270045975614696,0.026153706692720078,True
39468,494,0,495,7862.0,83458.0,127685.0,6.1e-05,-0.0068319999999999995,-0.0044529999999999995,-0.2625,-0.9625000000000001,-3.7975000000000003,0.63709375,-0.12778125,-0.16834375000000001,0.87928125,0.6178750000000001,-0.687875,-0.8179375,0.8519375,0.02268699715953682,0.026174364811741506,True
39469,495,0,496,7862.0,83457.0,127684.0,-0.002989,-0.004331,-0.003965,-0.035,-0.56,-3.8150000000000004,0.63703125,-0.13071875,-0.16618750000000002,0.8795625,0.60040625,-0.68859375,-0.81834375,0.8644375,0.022596467245122053,0.026277186607184453,True
39470,496,0,497,7863.0,83460.0,127677.0,-0.004392,-0.00061,-0.003721,0.14,-0.35000000000000003,-3.7100000000000004,0.634,-0.1273125,-0.16690625,0.8739375,0.60309375,-0.69021875,-0.816375,0.8745937500000001,0.022798755073808324,0.026170975817378643,True
39471,497,0,498,7862.0,83458.0,127675.0,-0.002196,0.004209,0.00183,0.5775,-0.49000000000000005,-3.7625,0.63915625,-0.1285625,-0.16940625,0.8769375,0.59784375,-0.69475,-0.8169062500000001,0.8699375,0.02292744409236781,0.02609108458069789,True
39472,498,0,499,7860.0,83459.0,127674.0,-0.00244,0.0046359999999999995,0.005307,0.7350000000000001,-0.6825000000000001,-3.8850000000000002,0.63703125,-0.1301875,-0.16978125,0.88103125,0.60259375,-0.69146875,-0.82053125,0.85903125,0.022731788687135105,0.026218214003779636,True
39473,499,0,500,7861.0,83451.0,127671.0,0.000122,0.004148,0.006893,0.525,-0.805,-3.9200000000000004,0.63675,-0.1299375,-0.17121875,0.879625,0.61625,-0.6864375,-0.8246875,0.852875,0.022542742345873112,0.026323342438852454,True
39474,500,0,501,7858.0,83454.0,127666.0,0.000976,0.003111,0.005429,0.4025,-1.0325000000000002,-3.7800000000000002,0.63690625,-0.12721875,-0.17034375000000002,0.874375,0.62365625,-0.681,-0.8241875,0.84365625,0.02243755317855841,0.026338978868895503,True
39475,501,0,502,7854.0,83455.0,127665.0,0.000122,0.002806,0.003538,0.525,-1.1375000000000002,-3.9025000000000003,0.6439375,-0.12696875,-0.1729375,0.8738750000000001,0.60509375,-0.692375,-0.8160625,0.8656875,0.022898010013212584,0.025915674575690644,True
39476,502,0,503,7855.0,83451.0,127658.0,0.000305,0.002562,-0.000488,0.5075000000000001,-1.3475000000000001,-3.7800000000000002,0.64365625,-0.12725,-0.1684375,0.8801875,0.599125,-0.6955,-0.81684375,0.8748750000000001,0.023010265028041547,0.026127667826413258,True
39477,503,0,504,7856.0,83448.0,127657.0,0.0023179999999999997,0.00122,-0.002562,0.43750000000000006,-1.4875,-3.7625,0.627625,-0.1245,-0.17059375000000002,0.8755937500000001,0.6010625,-0.68521875,-0.8245,0.8535,0.022714757186423552,0.02634116497814659,True
39478,504,0,505,7854.0,83449.0,127653.0,0.0025009999999999998,-0.001403,-0.002074,0.14,-1.4700000000000002,-3.7975000000000003,0.6396875,-0.126,-0.17315625,0.87465625,0.6181875,-0.6870625,-0.8192812500000001,0.8559375,0.022726985035177838,0.02603318740344264,True
39479,505,0,506,7853.0,83444.0,127653.0,0.002196,-0.003538,-0.004697,-0.07,-1.5225000000000002,-3.7450000000000006,0.63596875,-0.12390625000000001,-0.1723125,0.8745,0.60959375,-0.68803125,-0.8179375,0.8560625000000001,0.022850141199493173,0.02601445023382785,True
39480,506,0,507,7848.0,83446.0,127650.0,0.001403,-0.004941,-0.005307,-0.12250000000000001,-1.2950000000000002,-3.6925000000000003,0.64365625,-0.12603125,-0.171125,0.8680625000000001,0.60684375,-0.68753125,-0.82028125,0.85875,0.022744275007246826,0.026154266483180966,True
39481,507,0,508,7845.0,83446.0,127649.0,-0.0018909999999999999,-0.003965,0.001037,0.29750000000000004,-0.8925000000000001,-3.7275000000000005,0.63734375,-0.12884375,-0.16975,0.8783125,0.6049375,-0.687625,-0.8191875000000001,0.855625,0.022634062612341202,0.026166751026801344,True
39482,508,0,509,7845.0,83447.0,127643.0,-0.002257,-0.0025009999999999998,0.000915,0.29750000000000004,-0.8750000000000001,-3.7275000000000005,0.6372187500000001,-0.1195625,-0.169625,0.8805000000000001,0.610375,-0.68784375,-0.8193125,0.8595,0.023018666828689728,0.026176692041731616,True
39483,509,0,510,7843.0,83441.0,127641.0,-0.00183,-0.001464,0.000976,0.36750000000000005,-0.8400000000000001,-3.6750000000000003,0.63746875,-0.129125,-0.17,0.87846875,0.60540625,-0.68715625,-0.82278125,0.85475,0.02260411220915734,0.02629766759113667,True
39484,510,0,511,7845.0,83440.0,127642.0,-0.0011589999999999999,-0.0013419999999999999,-0.001769,0.45500000000000007,-0.7525000000000001,-3.535,0.637,-0.1286875,-0.1701875,0.879125,0.6075625,-0.6818125,-0.82396875,0.8553125,0.02241022615336698,0.0263366932412852,True
39485,511,0,512,7841.0,83443.0,127638.0,-0.000732,0.001769,-0.000549,0.6475000000000001,-0.8750000000000001,-3.6050000000000004,0.63675,-0.1285,-0.17021875,0.879375,0.6049375,-0.69046875,-0.82125,0.864625,0.022760554110581633,0.026228785818603016,True
39486,512,0,513,7839.0,83444.0,127640.0,0.0028669999999999998,0.0034159999999999998,0.002745,0.6475000000000001,-1.0150000000000001,-3.7800000000000002,0.637125,-0.1295,-0.1721875,0.8740625,0.60528125,-0.69015625,-0.8208125000000001,0.85875,0.02270768335052558,0.026132303283786542,True
39487,513,0,514,7839.0,83439.0,127635.0,0.003355,0.0015249999999999999,0.00244,0.3325,-0.9625000000000001,-3.7100000000000004,0.64159375,-0.12709375,-0.17303125,0.874375,0.61309375,-0.68778125,-0.82296875,0.859125,0.022711133670629068,0.026182907715258677,True
39488,514,0,515,7839.0,83437.0,127633.0,0.0017079999999999999,-6.1e-05,0.002745,0.21000000000000002,-0.77,-3.8150000000000004,0.64165625,-0.12662500000000002,-0.1700625,0.8738125,0.61159375,-0.6873125,-0.81853125,0.85959375,0.02271156489796125,0.026128409593134165,True
39489,515,0,516,7838.0,83439.0,127632.0,-0.0011589999999999999,-0.001037,0.001769,0.3325,-0.45500000000000007,-3.6925000000000003,0.63834375,-0.126,-0.17121875,0.8780625,0.6137812500000001,-0.6881875000000001,-0.82365625,0.8585,0.022771517755201753,0.026282892956189723,True
39490,516,0,517,7839.0,83439.0,127639.0,-0.006161,0.002379,0.00122,0.47250000000000003,-0.22750000000000004,-3.535,0.63509375,-0.13365625,-0.16593750000000002,0.878125,0.60565625,-0.6889375,-0.82125,0.856875,0.022491095455201338,0.026401269073878228,True
39491,517,0,518,7838.0,83442.0,127638.0,-0.0062829999999999995,0.0035989999999999998,-0.0013419999999999999,0.7525000000000001,-0.5075000000000001,-3.6750000000000003,0.631875,-0.1285625,-0.1668125,0.888625,0.60371875,-0.682125,-0.8205625,0.86471875,0.022427667796026476,0.026339048520757736,True
39492,518,0,519,7838.0,83442.0,127643.0,-0.0025009999999999998,0.003965,-0.000183,0.7000000000000001,-0.9975,-3.6925000000000003,0.63234375,-0.133,-0.16715625,0.8865000000000001,0.6048125,-0.69046875,-0.82059375,0.86709375,0.02257829754649757,0.026326425007459783,True
39493,519,0,520,7834.0,83439.0,127641.0,0.002074,0.001769,0.0011589999999999999,0.47250000000000003,-1.2425000000000002,-3.7800000000000002,0.6309375,-0.1263125,-0.16790625,0.8868125,0.60553125,-0.690875,-0.82146875,0.8648750000000001,0.022865228551033533,0.02633053291820211,True
39494,520,0,521,7834.0,83439.0,127640.0,0.005307,-0.00244,6.1e-05,0.14,-1.5925000000000002,-3.6750000000000003,0.6325937500000001,-0.13078125000000002,-0.17109375000000002,0.8718125,0.59775,-0.689625,-0.82125,0.85890625,0.022634760552256265,0.026193533766429977,True
39495,521,0,522,7833.0,83438.0,127640.0,0.004331,-0.0042699999999999995,-0.001037,-0.052500000000000005,-1.5925000000000002,-3.7100000000000004,0.638,-0.12540625,-0.176125,0.8675,0.61240625,-0.68815625,-0.82271875,0.84959375,0.022794330783612086,0.026048466185840342,True
39496,522,0,523,7831.0,83431.0,127639.0,0.0011589999999999999,-0.002806,-0.0025009999999999998,0.2625,-1.2775,-3.7100000000000004,0.65225,-0.12575,-0.17550000000000002,0.86146875,0.6111875,-0.68753125,-0.8219062500000001,0.85253125,0.02275566739788937,0.026041765023586776,True
39497,523,0,524,7827.0,83431.0,127641.0,-0.001769,-0.000732,-0.000305,0.56,-0.7875000000000001,-3.535,0.63484375,-0.129375,-0.17175,0.87334375,0.60484375,-0.68896875,-0.8155,0.8584375,0.022665740139510688,0.025941447885394212,True
39498,524,0,525,7831.0,83436.0,127643.0,-0.003294,0.001037,0.00042699999999999997,0.5950000000000001,-0.6475000000000001,-3.43,0.63525,-0.12525,-0.172125,0.87040625,0.60946875,-0.68721875,-0.8238125000000001,0.8588125,0.02276355047082815,0.026252514596619682,True
39499,525,0,526,7828.0,83435.0,127641.0,-0.002928,0.001281,-6.1e-05,0.45500000000000007,-0.7000000000000001,-3.6400000000000006,0.6481875,-0.12553125,-0.17075,0.8701875,0.60925,-0.6876875,-0.8226875,0.8586875,0.0227707131338243,0.026263775830074807,True
39500,526,0,527,7827.0,83439.0,127642.0,0.001281,-0.003477,-0.0018909999999999999,0.0,-0.8750000000000001,-3.5525,0.6468125,-0.1249375,-0.16740625,0.87503125,0.6096875,-0.68734375,-0.8220937500000001,0.85965625,0.022781156842764827,0.02637519246336744,True
39501,527,0,528,7826.0,83434.0,127638.0,0.001952,-0.0030499999999999998,-0.001037,-0.08750000000000001,-1.0850000000000002,-3.3775000000000004,0.6391875,-0.1238125,-0.1710625,0.87340625,0.6055625,-0.6874375,-0.81875,0.85890625,0.022830437545411506,0.026096701082850664,True
39502,528,0,529,7820.0,83434.0,127637.0,0.00061,-0.002196,-0.000366,0.22750000000000004,-0.8750000000000001,-3.4125000000000005,0.6453125000000001,-0.1276875,-0.17350000000000002,0.87115625,0.61021875,-0.6879375,-0.8235625,0.8593437500000001,0.022693268726883317,0.026187316989654486,True
39503,529,0,530,7822.0,83431.0,127636.0,-0.000183,0.0,0.0006709999999999999,0.5775,-0.7000000000000001,-3.4475000000000002,0.64378125,-0.12659375,-0.17125,0.865625,0.61121875,-0.68859375,-0.8235625,0.85875,0.022763548450385113,0.026277956679263904,True
39504,530,0,531,7823.0,83430.0,127629.0,-0.0011589999999999999,0.0023179999999999997,0.0013419999999999999,0.7350000000000001,-0.5075000000000001,-3.5175000000000005,0.6405,-0.1273125,-0.17034375000000002,0.879125,0.6188750000000001,-0.68834375,-0.82784375,0.8544375000000001,0.022724539794209568,0.026482364180336844,True
39505,531,0,532,7824.0,83430.0,127630.0,-0.00042699999999999997,0.00366,0.00122,0.7875000000000001,-0.8925000000000001,-3.2900000000000005,0.6358125,-0.12915625,-0.16828125,0.87434375,0.61690625,-0.687875,-0.8169375,0.87753125,0.02263130180301059,0.026137642890062478,True
39506,532,0,533,7820.0,83432.0,127631.0,-0.00042699999999999997,0.002989,0.001098,0.6825000000000001,-0.7350000000000001,-3.325,0.64384375,-0.12675,-0.17134375000000002,0.872125,0.59078125,-0.70003125,-0.8151875000000001,0.864625,0.023209737841930866,0.02594555249683284,True
39507,533,0,534,7822.0,83426.0,127636.0,-0.00244,0.0013419999999999999,0.000488,0.6300000000000001,-0.805,-3.43,0.64428125,-0.1260625,-0.170375,0.8807812500000001,0.6094375,-0.68825,-0.8235,0.84778125,0.02277146010754104,0.02631075392269422,True
39508,534,0,535,7817.0,83432.0,127639.0,-0.0025009999999999998,0.0011589999999999999,0.002745,0.6300000000000001,-0.8400000000000001,-3.3600000000000003,0.63625,-0.12715625,-0.171375,0.86753125,0.6141875,-0.6915625,-0.81684375,0.88071875,0.022858263830002657,0.026009300638805046,True
39509,535,0,536,7818.0,83430.0,127638.0,-0.00244,0.000122,0.0021349999999999997,0.42000000000000004,-1.0325000000000002,-3.2900000000000005,0.64284375,-0.12340625000000001,-0.171625,0.87709375,0.593875,-0.69115625,-0.82234375,0.84865625,0.022994062904607798,0.026215040632494663,True
39510,536,0,537,7816.0,83427.0,127640.0,0.001952,-0.000976,-0.00122,0.35000000000000003,-1.4525000000000001,-3.3950000000000005,0.6370625,-0.128375,-0.16675,0.8779375,0.62603125,-0.68403125,-0.8191875000000001,0.86653125,0.022510757840658622,0.02628762524961786,True
39511,537,0,538,7818.0,83427.0,127639.0,0.0028669999999999998,0.000122,-0.00183,0.36750000000000005,-1.4700000000000002,-3.6050000000000004,0.6315625,-0.12640625,-0.17221875,0.864625,0.5866250000000001,-0.6850937500000001,-0.81575,0.857125,0.02263258570772088,0.025932371578533793,True
39512,538,0,539,7816.0,83425.0,127642.0,0.001586,-0.0017079999999999999,-0.000915,0.35000000000000003,-1.2775,-3.535,0.63753125,-0.13034375,-0.1685,0.877125,0.61759375,-0.68353125,-0.8209062500000001,0.8755000000000001,0.02241119774951163,0.026284545915804345,True
39513,539,0,540,7819.0,83428.0,127639.0,-0.0006709999999999999,-0.0030499999999999998,-0.001586,0.35000000000000003,-1.0850000000000002,-3.3600000000000003,0.64346875,-0.12740625,-0.16793750000000002,0.8740625,0.59359375,-0.6999062500000001,-0.815625,0.881875,0.023178225625856374,0.026099987407127562,True
39514,540,0,541,7814.0,83428.0,127641.0,-0.002074,-0.001464,-0.001647,0.45500000000000007,-1.1025,-3.4475000000000002,0.6429375,-0.12653125,-0.17140625,0.87365625,0.58640625,-0.6960937500000001,-0.81503125,0.8684375,0.023062857865932748,0.02593690064363711,True
39515,541,0,542,7812.0,83428.0,127639.0,-0.000793,0.000305,0.00061,0.5775,-1.2600000000000002,-3.6225000000000005,0.6400625,-0.1265625,-0.1719375,0.8745625,0.60865625,-0.6880000000000001,-0.82425,0.8505312500000001,0.0227413115683733,0.026277228919302703,True
39516,542,0,543,7815.0,83424.0,127637.0,0.001403,0.0011589999999999999,0.0013419999999999999,0.56,-1.3475000000000001,-3.6225000000000005,0.638125,-0.12921875,-0.170375,0.880875,0.613125,-0.68453125,-0.8200000000000001,0.8628750000000001,0.022496376146498635,0.026173448831587433,True
39517,543,0,544,7813.0,83423.0,127640.0,0.000488,0.000793,0.002013,0.42000000000000004,-1.4000000000000001,-3.5175000000000005,0.63684375,-0.1271875,-0.1706875,0.86390625,0.59146875,-0.69121875,-0.8229062500000001,0.8591562500000001,0.022843394476021964,0.026274874643254155,True
39518,544,0,545,7814.0,83423.0,127643.0,0.0013419999999999999,0.000488,-0.000488,0.36750000000000005,-1.5050000000000001,-3.6400000000000006,0.63978125,-0.1264375,-0.1691875,0.87825,0.6109375,-0.6875625,-0.8210000000000001,0.86440625,0.02272905638213574,0.02626052536158898,True
39519,545,0,546,7814.0,83422.0,127641.0,0.000732,-6.1e-05,-0.00042699999999999997,0.4025,-1.6800000000000002,-3.6925000000000003,0.636375,-0.128875,-0.1695625,0.87828125,0.60459375,-0.69021875,-0.82125,0.8640625000000001,0.022735470903837172,0.026255224857732788,True
39520,546,0,547,7813.0,83423.0,127636.0,-0.000488,0.002379,-0.00042699999999999997,0.5425000000000001,-1.4000000000000001,-3.7800000000000002,0.63746875,-0.12659375,-0.16978125,0.87321875,0.5920625,-0.6876875,-0.8188125,0.84784375,0.022727675486008965,0.026150777761828857,True
39521,547,0,548,7813.0,83420.0,127635.0,-0.0021349999999999997,0.002806,0.000732,0.6300000000000001,-1.435,-3.7450000000000006,0.64259375,-0.12653125,-0.1704375,0.87384375,0.6135,-0.6880937500000001,-0.8234375,0.8589375,0.022746288380406043,0.026305784603764083,True
39522,548,0,549,7814.0,83422.0,127636.0,-0.003843,0.0011589999999999999,0.0023179999999999997,0.56,-1.5050000000000001,-3.6750000000000003,0.63834375,-0.12737500000000002,-0.1696875,0.8797812500000001,0.60621875,-0.690375,-0.8210000000000001,0.866375,0.022802407820861365,0.026240381128882804,True
39523,549,0,550,7814.0,83422.0,127633.0,-0.002013,-0.000732,0.0021349999999999997,0.36750000000000005,-1.435,-3.8150000000000004,0.63696875,-0.12684375,-0.16534375,0.8735937500000001,0.5999375,-0.6875,-0.82378125,0.85703125,0.02271012658227848,0.02652446431786052,True
39524,550,0,551,7816.0,83417.0,127632.0,0.00042699999999999997,-0.001098,0.0018909999999999999,0.15750000000000003,-1.6275000000000002,-3.8850000000000002,0.6431875,-0.12675,-0.17196875,0.8748750000000001,0.614,-0.68571875,-0.82328125,0.85890625,0.022643405916629427,0.026237969647948937,True
39525,551,0,552,7813.0,83416.0,127630.0,0.004026,-0.001098,-0.002562,0.3325,-2.0475000000000003,-3.9200000000000004,0.631625,-0.12665625,-0.17078125,0.8746875000000001,0.59928125,-0.6834375,-0.8247187500000001,0.8591562500000001,0.02255687644802309,0.026342191691497013,True
39526,552,0,553,7814.0,83419.0,127628.0,0.00183,-0.0006709999999999999,-0.001769,0.31500000000000006,-1.9075000000000002,-3.9550000000000005,0.64590625,-0.12687500000000002,-0.1755625,0.86453125,0.60153125,-0.68775,-0.82521875,0.8588125,0.022718757278407307,0.026169205457655838,True
39527,553,0,554,7813.0,83414.0,127628.0,0.002013,0.000183,-0.000732,0.28,-1.8025000000000002,-4.0075,0.65671875,-0.12503125,-0.1740625,0.8729687500000001,0.613,-0.6875,-0.82359375,0.85928125,0.022783544303797466,0.026165883012003448,True
39528,554,0,555,7812.0,83418.0,127629.0,6.1e-05,-0.000549,-0.000244,0.24500000000000002,-1.61,-4.0075,0.63634375,-0.1289375,-0.17021875,0.8693125,0.61140625,-0.68853125,-0.823625,0.858875,0.022666141794076954,0.026321951366893435,True
39529,555,0,556,7811.0,83420.0,127625.0,-0.000488,-0.0015249999999999999,-0.000366,0.14,-1.4700000000000002,-3.9375000000000004,0.6475625,-0.12546875,-0.17315625,0.860625,0.61340625,-0.68765625,-0.82315625,0.858375,0.022772007772102705,0.026185227754830735,True
39530,556,0,557,7812.0,83414.0,127626.0,-0.002745,-0.0028669999999999998,-0.002013,0.28,-1.4525000000000001,-3.8325000000000005,0.6441875,-0.1230625,-0.17325000000000002,0.8691875,0.61315625,-0.6875625,-0.82384375,0.8591875,0.02286576489679773,0.02620842108708487,True
39531,557,0,558,7812.0,83419.0,127625.0,-0.00244,-0.001586,-0.001647,0.28,-1.5225000000000002,-3.8150000000000004,0.6539375000000001,-0.124875,-0.1720625,0.871625,0.6125625,-0.68478125,-0.82228125,0.85909375,0.02268224475353615,0.026194963446399593,True
39532,558,0,559,7810.0,83415.0,127627.0,-0.001098,-0.00042699999999999997,-0.0017079999999999999,0.42000000000000004,-1.7325000000000002,-3.7800000000000002,0.63353125,-0.1259375,-0.16768750000000002,0.89003125,0.5980625,-0.6890937500000001,-0.82040625,0.8648750000000001,0.022809919865932705,0.026297665857100947,True
39533,559,0,560,7812.0,83414.0,127622.0,6.1e-05,0.000732,0.000488,0.47250000000000003,-1.9250000000000003,-3.8850000000000002,0.63103125,-0.12634375,-0.17075,0.878375,0.60553125,-0.69078125,-0.82171875,0.8631875,0.02286025275121661,0.02622577254042894,True
39534,560,0,561,7811.0,83414.0,127622.0,0.002013,0.0013419999999999999,0.000976,0.5425000000000001,-2.0125,-3.8500000000000005,0.63684375,-0.1245,-0.17325000000000002,0.86934375,0.6065625,-0.68765625,-0.8215625,0.85871875,0.02281124803007576,0.026118923818756374,True
39535,561,0,562,7813.0,83415.0,127625.0,0.002623,0.001647,0.0008539999999999999,0.47250000000000003,-2.1,-3.7975000000000003,0.653,-0.1225,-0.16609375,0.887125,0.613,-0.6874375,-0.8231875000000001,0.86021875,0.02288360223696769,0.026470965906372823,True
39536,562,0,563,7815.0,83414.0,127623.0,0.001403,0.00042699999999999997,0.0017079999999999999,0.5425000000000001,-2.0300000000000002,-3.7975000000000003,0.6310625,-0.130875,-0.16825,0.87675,0.605125,-0.69059375,-0.8213125,0.86459375,0.022669311061018937,0.02631055468964423,True
39537,563,0,564,7812.0,83413.0,127624.0,-0.00061,0.001037,0.001098,0.5950000000000001,-1.9775000000000003,-3.9550000000000005,0.63328125,-0.12809375,-0.17159375000000002,0.86984375,0.6058125,-0.688375,-0.82284375,0.85884375,0.022694132359865723,0.02623591424733518,True
39538,564,0,565,7812.0,83413.0,127620.0,-0.002928,0.0015249999999999999,-0.00042699999999999997,0.6300000000000001,-1.8025000000000002,-3.8850000000000002,0.6399375,-0.12596875,-0.16878125,0.87375,0.6125,-0.68665625,-0.82346875,0.8589375,0.02271216864373846,0.026373731511636543,True
39539,565,0,566,7813.0,83413.0,127627.0,-0.002379,0.00183,0.0011589999999999999,0.7350000000000001,-1.8550000000000002,-3.9200000000000004,0.6395625,-0.1261875,-0.1699375,0.87990625,0.61128125,-0.6870625,-0.8154375,0.858125,0.02271938996387278,0.02601203383982249,True
39540,566,0,567,7813.0,83415.0,127630.0,-0.0008539999999999999,-0.000549,0.000305,0.49000000000000005,-2.0650000000000004,-3.9025000000000003,0.6366875,-0.12890625,-0.1699375,0.86746875,0.6032500000000001,-0.6884375,-0.82171875,0.8583125,0.0226636963153298,0.026258505970703585,True
39541,567,0,568,7813.0,83412.0,127626.0,0.001464,-0.000244,0.000732,0.43750000000000006,-2.2575000000000003,-3.9375000000000004,0.6430625,-0.1268125,-0.17296875,0.88021875,0.60103125,-0.68734375,-0.82359375,0.85909375,0.02270520699498098,0.026209943916762655,True
39542,568,0,569,7814.0,83414.0,127626.0,0.0025009999999999998,-0.000976,-0.0015249999999999999,0.31500000000000006,-2.415,-3.9725000000000006,0.63759375,-0.12665625,-0.1715625,0.873625,0.60590625,-0.68790625,-0.8229062500000001,0.8592500000000001,0.02273380311463229,0.026239624943191337,True
39543,569,0,570,7811.0,83415.0,127629.0,0.002562,-0.00061,-0.000549,0.3325,-2.3975000000000004,-4.0425,0.6371875,-0.12971875,-0.16984375000000002,0.87453125,0.60565625,-0.6912812500000001,-0.82125,0.852,0.02274335196761003,0.026243893840962883,True
39544,570,0,571,7817.0,83411.0,127630.0,0.003172,-0.001769,-0.0006709999999999999,0.4025,-2.345,-4.0425,0.64309375,-0.12637500000000002,-0.16790625,0.876125,0.61421875,-0.6875625,-0.82175,0.86009375,0.02273158802129615,0.026341565361024097,True
39545,571,0,572,7816.0,83411.0,127630.0,0.00122,-0.0006709999999999999,-0.002745,0.3325,-2.0300000000000002,-3.8500000000000005,0.6335625,-0.129,-0.17028125,0.8740625,0.60371875,-0.6904375,-0.81759375,0.85875,0.02273906649082261,0.026082806678226003,True
39546,572,0,573,7817.0,83415.0,127633.0,-0.00183,-0.00122,-0.002623,0.4025,-1.9075000000000002,-3.8500000000000005,0.6439375,-0.12687500000000002,-0.16971875,0.87465625,0.6001562500000001,-0.68803125,-0.8200937500000001,0.86528125,0.022729890622606854,0.026203567422061005,True
39547,573,0,574,7816.0,83417.0,127633.0,-0.001464,0.00042699999999999997,-0.0015249999999999999,0.42000000000000004,-1.7850000000000001,-3.7800000000000002,0.637,-0.12775,-0.16903125,0.8745625,0.60575,-0.6904375,-0.821375,0.8593437500000001,0.022789693378256256,0.026281531542873833,True
39548,574,0,575,7820.0,83413.0,127640.0,0.000122,0.000488,0.000915,0.47250000000000003,-1.8200000000000003,-3.6575,0.6444375,-0.12709375,-0.16934375000000002,0.880875,0.61371875,-0.68371875,-0.8210000000000001,0.8668125,0.022550289348115347,0.026254230288868297,True
39549,575,0,576,7819.0,83416.0,127639.0,-0.000244,-0.000244,0.001281,0.43750000000000006,-1.8725000000000003,-3.9025000000000003,0.639625,-0.12615625,-0.17040625,0.87871875,0.6050625000000001,-0.6880937500000001,-0.82103125,0.86359375,0.022761477888506482,0.02621264980680446,True
39550,576,0,577,7816.0,83417.0,127640.0,-0.00244,-0.000915,0.000732,0.4025,-1.6450000000000002,-3.6925000000000003,0.636875,-0.12609375,-0.17225000000000001,0.8760625,0.60546875,-0.687875,-0.81796875,0.858625,0.02275535055163719,0.02601819498221425,True
39551,577,0,578,7820.0,83420.0,127640.0,-0.0028669999999999998,-0.000366,0.00061,0.5075000000000001,-1.6275000000000002,-3.6225000000000005,0.63675,-0.1289375,-0.17159375000000002,0.87434375,0.60509375,-0.6900937500000001,-0.8221875000000001,0.85921875,0.02272799186920868,0.026210169832936767,True
39552,578,0,579,7816.0,83413.0,127645.0,-0.001464,0.000793,0.00042699999999999997,0.6475000000000001,-1.6975000000000002,-3.6400000000000006,0.64278125,-0.12790625,-0.16934375000000002,0.88071875,0.61290625,-0.6898125,-0.820625,0.86346875,0.0227586276728509,0.026239518545564427,True
39553,579,0,580,7819.0,83418.0,127641.0,0.000915,0.000305,-0.000488,0.665,-1.8900000000000001,-3.7450000000000006,0.63759375,-0.12675,-0.1700625,0.87984375,0.60575,-0.6875625,-0.82165625,0.86525,0.022716398186333704,0.02625101820109204,True
39554,580,0,581,7821.0,83416.0,127635.0,0.003172,0.00061,-0.0008539999999999999,0.43750000000000006,-2.0475000000000003,-3.7625,0.63696875,-0.12653125,-0.1700625,0.87475,0.6051562500000001,-0.68790625,-0.82284375,0.85778125,0.022738866322452922,0.026297601377763172,True
