frame_seq,absolute_seq_u64,segment_id,sample_seq,PPG_G,PPG_R,PPG_IR,ACC_X,ACC_Y,ACC_Z,GYRO_X,GYRO_Y,GYRO_Z,Uh1,Uh2,Uh3,Uh4,Uc1,Uc2,Uc3,Uc4,UD1,UD2,parser_valid
54614,29708,0,29709,4229.0,41397.0,45473.0,0.0011589999999999999,6.1e-05,-0.001037,0.45500000000000007,-1.6275000000000002,-3.8850000000000002,0.59653125,-0.243875,-0.33971875,0.5919375,0.55178125,-0.653875,-0.9996875000000001,0.439125,0.01663024575244257,0.026399079988499857,True
54615,29709,0,29710,4228.0,41396.0,45471.0,6.1e-05,0.0011589999999999999,-0.001952,0.385,-1.6625,-3.8500000000000005,0.5908125,-0.24440625,-0.33871875,0.5935312500000001,0.5489375,-0.65634375,-1.00025,0.43934375000000003,0.01670716080927449,0.026460985390146102,True
54616,29710,0,29711,4229.0,41396.0,45472.0,6.1e-05,0.000305,0.000183,0.36750000000000005,-1.6800000000000002,-4.025,0.58971875,-0.24453125,-0.337625,0.59215625,0.54971875,-0.65559375,-0.99690625,0.4396875,0.0166721801213974,0.026374513846088455,True
54617,29711,0,29712,4228.0,41395.0,45472.0,0.0023179999999999997,0.000915,0.000305,0.21000000000000002,-1.7675,-3.9550000000000005,0.5915625,-0.24546875,-0.33653125,0.58878125,0.55625,-0.65409375,-0.99571875,0.44428125,0.016574326525386884,0.02637201620777558,True
54618,29712,0,29713,4231.0,41395.0,45474.0,0.002562,0.00042699999999999997,-0.000122,0.2625,-1.8550000000000002,-3.99,0.5928125,-0.24496875,-0.33715625,0.591875,0.5558125,-0.65559375,-0.9970625000000001,0.43821875,0.016654435669390438,0.02639935192385106,True
54619,29713,0,29714,4230.0,41396.0,45474.0,0.000976,-0.00061,-0.000122,0.28,-1.8025000000000002,-3.99,0.591125,-0.2445,-0.338,0.592375,0.5555625,-0.656,-0.99834375,0.4371875,0.016689649578195978,0.02641550002687678,True
54620,29714,0,29715,4231.0,41398.0,45477.0,-0.000915,0.0018909999999999999,0.001037,0.4025,-1.5050000000000001,-3.8500000000000005,0.590125,-0.245125,-0.3356875,0.59203125,0.55190625,-0.653375,-0.99828125,0.4436875,0.016559598837887306,0.026505572258092743,True
54621,29715,0,29716,4230.0,41394.0,45478.0,0.0013419999999999999,0.0006709999999999999,0.00122,0.3325,-1.5750000000000002,-3.7800000000000002,0.59459375,-0.24484375,-0.33721875,0.5925625,0.5640937500000001,-0.653625,-0.99875,0.45178125,0.016580979470564673,0.026462573128656432,True
54622,29716,0,29717,4231.0,41397.0,45481.0,0.00183,0.000976,-0.001464,0.15750000000000003,-1.7500000000000002,-3.9725000000000006,0.59559375,-0.24521875,-0.33465625,0.585,0.55878125,-0.6528437500000001,-0.9985,0.4518125,0.016534603639793078,0.02655534332059924,True
54623,29717,0,29718,4232.0,41396.0,45479.0,0.0011589999999999999,-0.0015249999999999999,-0.001769,0.22750000000000004,-1.9075000000000002,-4.0075,0.5966875,-0.24340625000000002,-0.336625,0.595625,0.547875,-0.6528125,-0.9975625,0.45206250000000003,0.016606878018481663,0.026440077907595987,True
54624,29718,0,29719,4232.0,41396.0,45482.0,0.000183,-0.0015249999999999999,0.000183,0.28,-1.7500000000000002,-3.9550000000000005,0.59546875,-0.2449375,-0.34075,0.5886875,0.54453125,-0.6550312500000001,-1.00265625,0.43615625,0.016633268311107903,0.026473437197297788,True
54625,29719,0,29720,4231.0,41399.0,45482.0,-0.001281,-0.001647,0.0013419999999999999,0.35000000000000003,-1.225,-3.8675,0.58446875,-0.24231250000000001,-0.3333125,0.58840625,0.54603125,-0.65815625,-0.99509375,0.43615625,0.016864348890643432,0.026476446002527996,True
54626,29720,0,29721,4233.0,41400.0,45486.0,-0.002745,-0.001647,0.003477,0.31500000000000006,-1.1375000000000002,-3.8150000000000004,0.60575,-0.25565625000000003,-0.333125,0.5895312500000001,0.5625625,-0.65696875,-0.99075,0.43865625,0.016275824659103724,0.026314736452487424,True
54627,29721,0,29722,4233.0,41401.0,45485.0,-0.0030499999999999998,-0.00244,0.0017079999999999999,0.22750000000000004,-1.1025,-3.9025000000000003,0.617,-0.245875,-0.32706250000000003,0.5895,0.56296875,-0.6519375000000001,-0.99171875,0.44659375,0.01647182903980671,0.02659505961349697,True
54628,29722,0,29723,4233.0,41399.0,45488.0,-0.003965,-0.000976,0.000305,0.21000000000000002,-1.225,-3.8500000000000005,0.6129375,-0.24003125,-0.3333125,0.60875,0.5630000000000001,-0.65159375,-0.99559375,0.45028125,0.016695168035535224,0.026495919905883413,True
54629,29723,0,29724,4234.0,41401.0,45490.0,-0.00122,0.0018909999999999999,0.00042699999999999997,0.5775,-1.4875,-3.7450000000000006,0.5778125000000001,-0.25453125,-0.33087500000000003,0.61175,0.54596875,-0.65928125,-0.995,0.45256250000000003,0.016413698189196007,0.02657031406281256,True
54630,29724,0,29725,4233.0,41401.0,45492.0,0.00122,0.0021349999999999997,0.00061,0.47250000000000003,-1.6975000000000002,-3.8325000000000005,0.5910625,-0.24259375,-0.34318750000000003,0.5804375,0.5493750000000001,-0.6508125,-0.9994375,0.436,0.016560052533765367,0.026250590638289363,True
54631,29725,0,29726,4234.0,41401.0,45493.0,0.002989,-0.000915,-0.000732,0.36750000000000005,-1.7850000000000001,-3.8500000000000005,0.58515625,-0.2505625,-0.3300625,0.58340625,0.54928125,-0.65953125,-0.98840625,0.43984375000000003,0.016584611680321375,0.026345967942633396,True
54632,29726,0,29727,4234.0,41401.0,45492.0,0.001464,-0.0017079999999999999,-0.002196,0.385,-1.8200000000000003,-3.7100000000000004,0.604625,-0.24125,-0.33328125000000003,0.598125,0.5626875,-0.65221875,-0.99615625,0.4435625,0.016670659714959735,0.026519077308136123,True
54633,29727,0,29728,4236.0,41400.0,45495.0,-0.000183,0.0008539999999999999,-0.0021349999999999997,0.45500000000000007,-1.7675,-3.5700000000000003,0.60378125,-0.23875000000000002,-0.34065625,0.61240625,0.54725,-0.65309375,-1.00334375,0.44671875,0.016806967685343753,0.02650395509600591,True
54634,29728,0,29729,4237.0,41400.0,45495.0,0.001647,0.005795,0.000793,0.5425000000000001,-1.8025000000000002,-3.7275000000000005,0.57878125,-0.2426875,-0.34646875,0.58903125,0.545,-0.6530312500000001,-0.99834375,0.43803125,0.016644758441216028,0.026076727583202387,True
54635,29729,0,29730,4236.0,41401.0,45497.0,0.003904,0.002379,-0.0028669999999999998,0.29750000000000004,-2.0300000000000002,-3.9200000000000004,0.56315625,-0.250375,-0.33009375,0.5835625,0.54809375,-0.6565625,-0.9965,0.44075000000000003,0.016473808950456904,0.026659982397535656,True
54636,29730,0,29731,4235.0,41399.0,45497.0,0.0044529999999999995,-0.0017079999999999999,-0.0050019999999999995,0.22750000000000004,-2.1175,-4.0425,0.61434375,-0.23915625000000001,-0.33703125,0.59884375,0.55559375,-0.65378125,-0.999,0.445875,0.016817906989419724,0.026479809192367695,True
54637,29731,0,29732,4236.0,41400.0,45494.0,0.004209,-0.002989,-0.0026839999999999998,0.10500000000000001,-2.1875,-3.9375000000000004,0.5785,-0.25465625000000003,-0.33615625,0.58365625,0.5491875,-0.6551250000000001,-0.99765625,0.43990625,0.016242819697730188,0.0264624808575804,True
54638,29732,0,29733,4237.0,41399.0,45499.0,0.005307,-0.0013419999999999999,0.001281,0.22750000000000004,-2.1350000000000002,-3.7975000000000003,0.60553125,-0.2404375,-0.3375625,0.593375,0.55709375,-0.65346875,-1.00153125,0.44328125,0.016753474092768388,0.02655712337619321,True
54639,29733,0,29734,4238.0,41401.0,45499.0,-0.000549,-0.002074,0.004697,0.35000000000000003,-1.0675000000000001,-3.8500000000000005,0.5789062500000001,-0.2469375,-0.33478125000000003,0.588375,0.5495625000000001,-0.6550312500000001,-0.99709375,0.44,0.01655214896553822,0.026495580111187925,True
54640,29734,0,29735,4238.0,41402.0,45500.0,-0.0064659999999999995,-0.004209,0.003721,0.17500000000000002,-0.5950000000000001,-3.8150000000000004,0.58503125,-0.24328125,-0.3394375,0.59803125,0.551,-0.6561875,-0.989625,0.44078125,0.016746557025493092,0.0260182975935013,True
54641,29735,0,29736,4240.0,41405.0,45505.0,-0.010369999999999999,-0.003111,0.0015249999999999999,0.24500000000000002,-0.14,-3.5875000000000004,0.590125,-0.24484375,-0.33815625,0.59284375,0.5491875,-0.6567500000000001,-0.997,0.439875,0.016705618137021306,0.026356912829539544,True
54642,29736,0,29737,4238.0,41408.0,45508.0,-0.013481,0.001281,-0.001037,0.5075000000000001,-0.31500000000000006,-3.4475000000000002,0.5906250000000001,-0.24459375,-0.33815625,0.59228125,0.54315625,-0.6500312500000001,-0.997,0.43971875,0.016447747911070093,0.026356912829539544,True
54643,29737,0,29738,4240.0,41409.0,45511.0,-0.008662,0.003477,-0.0032329999999999998,0.665,-0.7350000000000001,-3.4825000000000004,0.591,-0.24496875,-0.3326875,0.59484375,0.55375,-0.65534375,-0.99771875,0.447375,0.016644464752189878,0.02660367758557968,True
54644,29738,0,29739,4240.0,41407.0,45511.0,0.001952,-6.1e-05,0.0018909999999999999,0.5775,-1.8550000000000002,-3.5700000000000003,0.59840625,-0.244375,-0.33884375,0.59103125,0.5463125,-0.6543125,-0.9997812500000001,0.44046875,0.016627415589057695,0.02643773133014914,True
54645,29739,0,29740,4239.0,41406.0,45505.0,0.009089,-0.001037,0.002928,0.385,-2.1700000000000004,-3.5875000000000004,0.5920625,-0.24728125,-0.3345625,0.58775,0.55609375,-0.654375,-0.997125,0.44703125,0.016512028798134206,0.026505548138035875,True
54646,29740,0,29741,4239.0,41404.0,45499.0,0.013725,-0.0018909999999999999,0.001464,0.31500000000000006,-2.45,-3.5700000000000003,0.59103125,-0.24415625,-0.3404375,0.59175,0.54890625,-0.6578125,-0.99603125,0.43990625,0.016775869716747993,0.026227913681296903,True
54647,29741,0,29742,4241.0,41401.0,45494.0,0.010858,-0.002013,-0.0013419999999999999,0.35000000000000003,-2.4325,-3.6400000000000006,0.59203125,-0.24625,-0.3369375,0.5991875,0.55575,-0.65428125,-1.0003125,0.43940625,0.016550117436500002,0.02653466831664604,True
54648,29742,0,29743,4240.0,41400.0,45490.0,0.006588,-0.001037,-0.0028669999999999998,0.24500000000000002,-2.205,-3.7450000000000006,0.584375,-0.24540625,-0.33815625,0.5924375000000001,0.5496875,-0.65709375,-0.99775,0.44675000000000004,0.01669651355403554,0.02638612475122761,True
54649,29743,0,29744,4240.0,41400.0,45487.0,-0.004697,0.001037,-0.003111,0.385,-1.1725,-3.7100000000000004,0.5979375,-0.24384375,-0.33978125000000003,0.592125,0.5485,-0.6541875,-0.99675,0.44059375,0.016643977823239967,0.026282166681668617,True
54650,29744,0,29745,4240.0,41399.0,45485.0,-0.0066489999999999995,0.0013419999999999999,-6.1e-05,0.42000000000000004,-0.7525000000000001,-3.6575,0.5983125,-0.24321875,-0.337125,0.59740625,0.5508125,-0.65375,-0.99934375,0.43759375,0.01665187851746692,0.02648944534794038,True
54651,29745,0,29746,4238.0,41401.0,45483.0,-0.0050019999999999995,0.000976,0.002806,0.385,-0.8225000000000001,-3.7800000000000002,0.58665625,-0.24796875000000002,-0.33618750000000003,0.592375,0.55234375,-0.65628125,-0.99721875,0.44534375,0.0165601817995161,0.026444191916350692,True
54652,29746,0,29747,4237.0,41399.0,45482.0,-0.005124,-0.00042699999999999997,0.004026,0.4025,-0.9450000000000001,-3.7100000000000004,0.5995,-0.24321875,-0.33734375,0.5973125,0.553875,-0.654625,-0.9987812500000001,0.44003125,0.016686777835801598,0.02645878986600597,True
54653,29747,0,29748,4235.0,41401.0,45484.0,-0.002257,-0.000122,0.004148,0.35000000000000003,-1.3650000000000002,-3.5875000000000004,0.59046875,-0.24725,-0.33625,0.596625,0.5499375,-0.65371875,-0.9975,0.4395,0.016487117181865314,0.02645264526452646,True
54654,29748,0,29749,4234.0,41400.0,45483.0,0.0018909999999999999,0.000976,0.000366,0.42000000000000004,-1.8025000000000002,-3.7800000000000002,0.59009375,-0.24528125,-0.33828125000000003,0.59215625,0.54825,-0.656375,-0.9975,0.43503125000000004,0.016672919275440935,0.02637138713871387,True
54655,29749,0,29750,4234.0,41399.0,45481.0,0.002806,0.000305,-0.0030499999999999998,0.42000000000000004,-1.9775000000000003,-3.7275000000000005,0.593,-0.24609375,-0.33728125000000003,0.5980625,0.556125,-0.65353125,-1.0010625,0.43996875,0.016526537146681574,0.026550121619831158,True
54656,29750,0,29751,4234.0,41397.0,45477.0,0.0035989999999999998,0.0011589999999999999,-0.003904,0.4025,-2.0650000000000004,-3.6750000000000003,0.59275,-0.24440625,-0.3395625,0.593625,0.54303125,-0.657125,-0.996625,0.440375,0.016738316003994787,0.026286048616563234,True
54657,29751,0,29752,4232.0,41397.0,45478.0,0.003904,0.001586,-0.002623,0.36750000000000005,-1.9250000000000003,-3.7800000000000002,0.5906875,-0.24725,-0.33571875,0.59184375,0.55075,-0.655,-0.9973125,0.4411875,0.01653822754005273,0.02646659515897959,True
54658,29752,0,29753,4233.0,41397.0,45476.0,0.003843,-0.000549,-0.00061,0.42000000000000004,-1.7850000000000001,-3.7450000000000006,0.599875,-0.24371875,-0.33771875,0.5992500000000001,0.55471875,-0.65296875,-1.00090625,0.44071875,0.01660043478536434,0.026526538412982532,True
54659,29753,0,29754,4231.0,41396.0,45476.0,-0.000915,-0.000732,0.001098,0.385,-1.1025,-3.8850000000000002,0.5906875,-0.24690625,-0.3365625,0.592375,0.548875,-0.655875,-0.99728125,0.44528125,0.016587071032766024,0.02643162443915776,True
54660,29754,0,29755,4229.0,41397.0,45475.0,-0.003294,-0.0008539999999999999,0.0025009999999999998,0.3325,-0.9800000000000001,-3.8325000000000005,0.5965625,-0.244375,-0.33528125000000003,0.59215625,0.54959375,-0.653875,-0.998,0.4403125,0.016609964964939588,0.026510870869669575,True
54661,29755,0,29756,4226.0,41396.0,45476.0,-0.0035989999999999998,-0.0026839999999999998,0.002257,0.28,-0.9800000000000001,-3.8150000000000004,0.5971875,-0.24359375,-0.33671875,0.5991875,0.5530625,-0.653375,-1.0,0.44071875,0.01662171000927865,0.026531250000000003,True
54662,29756,0,29757,4227.0,41395.0,45473.0,-0.002745,-0.002379,0.0015249999999999999,0.31500000000000006,-0.9975,-3.8150000000000004,0.5911875,-0.244125,-0.339125,0.59146875,0.5486875,-0.655875,-0.99715625,0.4406875,0.01669987376233859,0.026324244382798543,True
54663,29757,0,29758,4226.0,41393.0,45475.0,-0.000915,-0.000488,-0.000366,0.36750000000000005,-1.155,-3.8150000000000004,0.5974375000000001,-0.242,-0.3373125,0.599125,0.5555625,-0.65359375,-1.00021875,0.43934375000000003,0.016695081219142746,0.02651601798484263,True
54664,29758,0,29759,4223.0,41394.0,45472.0,0.0021349999999999997,0.000122,-0.002196,0.24500000000000002,-1.4700000000000002,-3.8675,0.5817187500000001,-0.24734375,-0.33618750000000003,0.59065625,0.55103125,-0.655625,-0.99734375,0.4456875,0.016559355116733,0.02644906021264759,True
54665,29759,0,29760,4224.0,41393.0,45468.0,0.000793,0.00061,-0.000366,0.24500000000000002,-1.3475000000000001,-3.8850000000000002,0.59809375,-0.24606250000000002,-0.33603125,0.598375,0.5539375,-0.65378125,-0.99884375,0.44706250000000003,0.01653777754680126,0.02651372625983952,True
54666,29760,0,29761,4222.0,41389.0,45470.0,0.001769,0.0015249999999999999,0.001464,0.4025,-1.3825,-3.9025000000000003,0.5900625,-0.24446875,-0.33590625,0.5914375000000001,0.54871875,-0.65996875,-0.997,0.439875,0.01684916977033882,0.0264469236308357,True
54667,29761,0,29762,4221.0,41389.0,45470.0,0.000915,0.000366,-0.001769,0.3325,-1.3475000000000001,-3.9550000000000005,0.5859375,-0.245,-0.3360625,0.5920625,0.564375,-0.6478125,-1.00015625,0.44728125,0.016342728183281984,0.026563583977600145,True
54668,29762,0,29763,4219.0,41392.0,45471.0,-0.003111,0.001403,-0.002074,0.4025,-1.3125000000000002,-3.9375000000000004,0.5959375,-0.24434375,-0.33921875,0.590875,0.5424375,-0.656625,-0.9944375,0.435625,0.01672091172250866,0.026214582744660684,True
54669,29763,0,29764,4219.0,41392.0,45473.0,-0.002989,0.001464,0.002074,0.42000000000000004,-1.4875,-3.7100000000000004,0.59096875,-0.24725,-0.335,0.59184375,0.56021875,-0.6520312500000001,-0.99890625,0.45496875000000003,0.016419792993731502,0.026557411886770042,True
54670,29764,0,29765,4217.0,41390.0,45470.0,0.001281,0.000976,0.003355,0.4025,-1.7675,-3.7800000000000002,0.5963125,-0.24425,-0.3335625,0.584375,0.5353125,-0.66215625,-0.994,0.45306250000000003,0.016945243788243376,0.026423841722013282,True
54671,29765,0,29766,4218.0,41389.0,45471.0,0.004941,-6.1e-05,0.001586,0.36750000000000005,-1.9075000000000002,-3.7625,0.598375,-0.24428125,-0.33965625,0.59140625,0.54284375,-0.66203125,-0.9939375,0.45653125,0.016938994025481983,0.026177598067531376,True
54672,29766,0,29767,4215.0,41392.0,45471.0,0.003904,-0.001037,-0.001647,0.4025,-1.9250000000000003,-3.7625,0.5915312500000001,-0.24384375,-0.33625,0.5921875,0.5429375,-0.65925,-0.9946875000000001,0.45584375,0.016845859058973813,0.026343097908305513,True
54673,29767,0,29768,4214.0,41392.0,45471.0,0.002257,-6.1e-05,-0.0017079999999999999,0.5075000000000001,-1.9775000000000003,-3.6925000000000003,0.58196875,-0.24456250000000002,-0.33659375,0.5928125,0.539375,-0.6606562500000001,-0.99503125,0.44675000000000004,0.016872776854833297,0.02634273561870422,True
54674,29768,0,29769,4214.0,41392.0,45470.0,0.0013419999999999999,-0.000915,-0.0017079999999999999,0.43750000000000006,-1.6975000000000002,-3.5875000000000004,0.58990625,-0.245,-0.33184375,0.58746875,0.54525,-0.6584375,-0.99521875,0.45006250000000003,0.016766573307818063,0.026540075789494744,True
54675,29769,0,29770,4212.0,41391.0,45470.0,0.003538,-0.0018909999999999999,0.000183,0.385,-1.33,-3.6225000000000005,0.5905625,-0.24781250000000002,-0.33587500000000003,0.5985,0.54359375,-0.65825,-0.9885625,0.4435,0.016645037664878896,0.026119449648214055,True
54676,29770,0,29771,4214.0,41388.0,45470.0,0.0006709999999999999,-0.001586,0.001586,0.36750000000000005,-1.225,-3.6750000000000003,0.5909375,-0.24746875000000002,-0.3359375,0.59471875,0.5475,-0.65115625,-1.0050625,0.4348125,0.016376006703539513,0.026759581184810075,True
54677,29771,0,29772,4212.0,41391.0,45469.0,-0.001281,-0.002074,0.001952,0.36750000000000005,-1.0850000000000002,-3.6925000000000003,0.58234375,-0.23696875,-0.3395,0.58928125,0.5670000000000001,-0.65459375,-0.99809375,0.44571875,0.016939033927500832,0.02634575886411339,True
54678,29772,0,29773,4212.0,41388.0,45471.0,-0.003843,-0.001647,-0.000366,0.31500000000000006,-0.8925000000000001,-3.7975000000000003,0.59865625,-0.24546875,-0.33296875,0.5863125,0.542375,-0.6585625,-0.99534375,0.45206250000000003,0.016752547923261953,0.02649993561300792,True
54679,29773,0,29774,4211.0,41390.0,45470.0,-0.0035989999999999998,0.000793,0.000366,0.4025,-0.6825000000000001,-3.6925000000000003,0.59171875,-0.24456250000000002,-0.33628125000000003,0.59753125,0.537125,-0.65453125,-0.99371875,0.44778125,0.01662853557599072,0.026304108907362973,True
54680,29774,0,29775,4210.0,41389.0,45472.0,-0.0025009999999999998,-0.0013419999999999999,0.000488,0.3325,-0.9275000000000001,-3.6750000000000003,0.5895,-0.24790625,-0.336875,0.59996875,0.54209375,-0.656625,-0.99490625,0.440375,0.016576427227976257,0.026326614047612204,True
54681,29775,0,29776,4210.0,41390.0,45470.0,-0.000244,-0.000305,-0.000976,0.3325,-1.1900000000000002,-3.7100000000000004,0.59215625,-0.2358125,-0.338875,0.59328125,0.5553125,-0.6539375000000001,-0.995625,0.4453125,0.01695976555469081,0.02627459805465956,True
54682,29776,0,29777,4209.0,41388.0,45470.0,-0.000305,0.000732,-0.001769,0.31500000000000006,-1.435,-3.6400000000000006,0.59059375,-0.24381250000000002,-0.3354375,0.59853125,0.54940625,-0.65209375,-0.9970625000000001,0.43803125,0.01656172713524587,0.02646811000292535,True
54683,29777,0,29778,4207.0,41387.0,45470.0,0.003294,0.00122,-0.0008539999999999999,0.35000000000000003,-1.6275000000000002,-3.6575,0.59009375,-0.2466875,-0.33653125,0.59828125,0.55025,-0.6535625,-0.9984375,0.43984375000000003,0.01650370002306969,0.02647790486905431,True
54684,29778,0,29779,4208.0,41386.0,45468.0,0.003477,0.0021349999999999997,0.001037,0.49000000000000005,-1.7325000000000002,-3.535,0.591,-0.24731250000000002,-0.33690625,0.59440625,0.54940625,-0.64725,-0.99825,0.43943750000000004,0.016226455284058056,0.026455601892132447,True
54685,29779,0,29780,4207.0,41386.0,45467.0,0.004148,6.1e-05,0.0,0.56,-1.6450000000000002,-3.5875000000000004,0.59078125,-0.24115625000000002,-0.33625,0.59746875,0.55203125,-0.653375,-0.998625,0.43971875,0.016720580853534252,0.02649645730515178,True
54686,29780,0,29781,4207.0,41384.0,45467.0,0.00244,0.000976,-0.000488,0.5775,-1.54,-3.6400000000000006,0.59059375,-0.24521875,-0.3346875,0.5943125,0.5468125,-0.6531875,-0.99821875,0.43984375000000003,0.016548316520936694,0.026543141198810415,True
54687,29781,0,29782,4206.0,41382.0,45469.0,0.0008539999999999999,0.003721,-0.000732,0.5425000000000001,-1.3650000000000002,-3.5525,0.595125,-0.24365625000000002,-0.33925,0.59175,0.555,-0.65440625,-0.9994375,0.44028125,0.01666030793177183,0.026408094182119094,True
54688,29782,0,29783,4206.0,41387.0,45468.0,-0.0044529999999999995,0.000549,0.0013419999999999999,0.56,-1.0325000000000002,-3.6225000000000005,0.5965,-0.24353125,-0.3328125,0.59028125,0.545125,-0.65409375,-1.0005625,0.44665625000000003,0.016652913879667552,0.026709399038521636,True
54689,29783,0,29784,4207.0,41387.0,45472.0,-0.0057339999999999995,-0.001464,0.0011589999999999999,0.45500000000000007,-0.9450000000000001,-3.5525,0.5929375,-0.244375,-0.33909375,0.59075,0.5494687500000001,-0.65221875,-0.9968750000000001,0.43993750000000004,0.01654389627708459,0.026314539317414676,True
54690,29784,0,29785,4206.0,41388.0,45474.0,-0.003843,-0.0028669999999999998,0.0025009999999999998,0.31500000000000006,-0.9275000000000001,-3.6050000000000004,0.59075,-0.24675,-0.336125,0.59471875,0.55771875,-0.6540625,-0.99771875,0.44721875,0.016521110871686968,0.026466165037559677,True
54691,29785,0,29786,4207.0,41388.0,45471.0,-0.002196,-0.003172,0.002196,0.35000000000000003,-1.12,-3.6575,0.5991875,-0.24425,-0.33746875,0.59184375,0.54975,-0.6535625,-0.99946875,0.43943750000000004,0.016602570115373794,0.02648056271195763,True
54692,29786,0,29787,4207.0,41385.0,45473.0,-0.000366,-0.0032329999999999998,-0.000183,0.385,-1.2600000000000002,-3.6050000000000004,0.5923437500000001,-0.24656250000000002,-0.337125,0.606,0.55765625,-0.65359375,-0.99803125,0.43643750000000003,0.016510016921975117,0.026438332018646468,True
54693,29787,0,29788,4207.0,41387.0,45474.0,0.002257,-0.001281,-0.002623,0.45500000000000007,-1.5225000000000002,-3.5875000000000004,0.5909375,-0.24953125,-0.336375,0.59996875,0.5489375,-0.6551875,-0.998125,0.4473125,0.016453180491935015,0.02647198539890492,True
54694,29788,0,29789,4208.0,41384.0,45471.0,0.001586,0.000793,-0.0030499999999999998,0.47250000000000003,-1.61,-3.6400000000000006,0.59021875,-0.24690625,-0.33487500000000003,0.58415625,0.54803125,-0.65578125,-0.99709375,0.44615625000000003,0.016583331749019308,0.026491829675199738,True
54695,29789,0,29790,4208.0,41384.0,45472.0,0.0025009999999999998,0.003111,-0.000366,0.6125,-1.5925000000000002,-3.6575,0.58675,-0.24778125,-0.33403125,0.60221875,0.5495625000000001,-0.65671875,-0.99628125,0.44575000000000004,0.016585236022128858,0.02649394097371984,True
54696,29790,0,29791,4207.0,41384.0,45473.0,0.002623,0.0030499999999999998,-0.000122,0.5775,-1.54,-3.7100000000000004,0.586125,-0.249,-0.33540625,0.60040625,0.54871875,-0.6567500000000001,-0.9903125,0.44440625,0.016537053747959485,0.026206404981930498,True
54697,29791,0,29792,4208.0,41387.0,45477.0,0.001586,0.0025009999999999998,-0.000183,0.7175,-1.5575,-3.6925000000000003,0.58565625,-0.242125,-0.33290625,0.58815625,0.54903125,-0.6540312500000001,-0.99953125,0.44025000000000003,0.016707460367155983,0.02666549997812459,True
54698,29792,0,29793,4207.0,41386.0,45478.0,0.0015249999999999999,-6.1e-05,-0.0006709999999999999,0.47250000000000003,-1.61,-3.6925000000000003,0.6035625,-0.23753125,-0.34359375000000003,0.58859375,0.55071875,-0.6535,-1.00034375,0.4295,0.01687260429553613,0.026269638792466608,True
54699,29793,0,29794,4208.0,41386.0,45478.0,0.00042699999999999997,-0.000915,0.0006709999999999999,0.47250000000000003,-1.4175000000000002,-3.7275000000000005,0.60096875,-0.243375,-0.3394375,0.5834375,0.5509375,-0.65440625,-0.9961875,0.43228125,0.016671715628925353,0.026274006786034868,True
54700,29794,0,29795,4209.0,41385.0,45477.0,-0.001403,-0.001647,0.002562,0.3325,-1.2075,-3.7275000000000005,0.5945,-0.246375,-0.33434375,0.60396875,0.55,-0.6568437500000001,-0.9961875,0.44521875,0.016647254375369923,0.026477787862649056,True
54701,29795,0,29796,4207.0,41389.0,45478.0,-0.003294,-0.002074,0.002257,0.4025,-1.12,-3.6575,0.58840625,-0.24456250000000002,-0.33628125000000003,0.5935625,0.5504375,-0.65271875,-0.9975625,0.440375,0.0165562368247924,0.026453829248351716,True
54702,29796,0,29797,4208.0,41388.0,45481.0,-0.005063,-0.002379,0.0011589999999999999,0.525,-1.0675000000000001,-3.5525,0.604,-0.24284375,-0.3424375,0.58090625,0.55484375,-0.6535625,-0.9980625000000001,0.440125,0.016659610553241545,0.02622703259502612,True
54703,29797,0,29798,4207.0,41390.0,45483.0,-0.00183,0.000732,-0.001098,0.6475000000000001,-1.3475000000000001,-3.6575,0.59115625,-0.2479375,-0.33215625,0.6050625000000001,0.54928125,-0.65453125,-0.99671875,0.44378125,0.01649164390420118,0.026585989411110206,True
54704,29798,0,29799,4208.0,41389.0,45482.0,0.000915,0.001098,-0.001586,0.47250000000000003,-1.7325000000000002,-3.7275000000000005,0.5886875,-0.24265625000000002,-0.3375625,0.5925625,0.549125,-0.6535625,-0.99553125,0.44025000000000003,0.016667215944957247,0.02632345531763803,True
54705,29799,0,29800,4208.0,41388.0,45480.0,0.005246,0.001037,-0.002013,0.35000000000000003,-1.9775000000000003,-3.7450000000000006,0.59146875,-0.24271875,-0.33996875,0.58778125,0.55259375,-0.653875,-0.9999375,0.43975000000000003,0.016677145073543207,0.02639881599703999,True
54706,29800,0,29801,4208.0,41389.0,45483.0,0.005429,0.00122,-0.001037,0.36750000000000005,-2.0475000000000003,-3.8325000000000005,0.60078125,-0.242125,-0.3380625,0.58734375,0.55278125,-0.65421875,-0.9989687500000001,0.438625,0.016714938493031743,0.02643734054029729,True
54707,29801,0,29802,4208.0,41389.0,45480.0,0.004758,0.0,-0.000305,0.45500000000000007,-1.9250000000000003,-3.9550000000000005,0.597125,-0.24296875,-0.3349375,0.59078125,0.5514375,-0.65434375,-0.9966875000000001,0.4404375,0.016685700668873007,0.026473507739775522,True
54708,29802,0,29803,4209.0,41389.0,45482.0,-0.002013,-0.00061,0.00122,0.49000000000000005,-1.4875,-3.6925000000000003,0.593625,-0.244125,-0.338375,0.59109375,0.55359375,-0.654375,-0.99725,0.440625,0.01664004867290288,0.02635789936893058,True
54709,29803,0,29804,4208.0,41390.0,45481.0,-0.002562,-0.000549,0.000366,0.49000000000000005,-1.3125000000000002,-3.6400000000000006,0.5925312500000001,-0.24403125,-0.33668750000000003,0.591125,0.5496875,-0.656125,-0.99734375,0.43903125,0.016713646203529546,0.026429058087421787,True
54710,29804,0,29805,4208.0,41389.0,45483.0,0.0,-0.00122,0.001281,0.35000000000000003,-1.5575,-3.6925000000000003,0.597375,-0.24403125,-0.33953125,0.58203125,0.5495625000000001,-0.65059375,-0.99734375,0.43990625,0.016493010437121824,0.02631529600020002,True
54711,29805,0,29806,4208.0,41388.0,45486.0,6.1e-05,-0.000244,0.00042699999999999997,0.45500000000000007,-1.54,-3.7100000000000004,0.59771875,-0.24421875,-0.3395,0.5913125,0.55425,-0.654875,-0.99709375,0.43843750000000004,0.01665618868479357,0.02630680816644935,True
54712,29806,0,29807,4209.0,41389.0,45486.0,0.000732,6.1e-05,0.000122,0.5775,-1.5750000000000002,-3.6225000000000005,0.59121875,-0.24621875000000001,-0.33140625,0.5988125,0.5684375,-0.65421875,-1.00590625,0.4286875,0.016548891860546176,0.02697362748050773,True
54713,29807,0,29808,4209.0,41390.0,45487.0,-0.000732,0.000732,-0.000976,0.5075000000000001,-1.4875,-3.7625,0.59178125,-0.24696875000000001,-0.3368125,0.597,0.55084375,-0.64975,-1.00046875,0.432875,0.016340175863852575,0.026545752267144992,True
54714,29808,0,29809,4209.0,41391.0,45487.0,-0.002562,0.000244,0.000183,0.5075000000000001,-1.4525000000000001,-3.6225000000000005,0.59175,-0.24690625,-0.33584375,0.58978125,0.5583125,-0.64859375,-0.997125,0.45925,0.016296568642988,0.026454292243608016,True
54715,29809,0,29810,4208.0,41389.0,45488.0,0.000305,-0.000732,0.0006709999999999999,0.42000000000000004,-1.5750000000000002,-3.6400000000000006,0.5908125,-0.24431250000000002,-0.33834375,0.5925,0.536875,-0.66015625,-0.9898750000000001,0.43609375,0.01686298115000792,0.026071809082678487,True
54716,29810,0,29811,4211.0,41389.0,45487.0,0.0015249999999999999,-0.00061,0.000549,0.43750000000000006,-1.7500000000000002,-3.7625,0.59328125,-0.24406250000000002,-0.33403125,0.5916250000000001,0.563125,-0.64484375,-1.00015625,0.429,0.016262275957825867,0.026644833469790817,True
54717,29811,0,29812,4209.0,41387.0,45488.0,0.003477,-0.000732,-0.000122,0.525,-1.7325000000000002,-3.8675,0.59159375,-0.2434375,-0.33853125,0.59178125,0.5621875000000001,-0.65225,-0.99925,0.44146875,0.016583171921427053,0.02642954288628659,True
54718,29812,0,29813,4210.0,41391.0,45490.0,-0.001281,0.00042699999999999997,0.000915,0.5425000000000001,-1.5225000000000002,-3.6400000000000006,0.5993437500000001,-0.24431250000000002,-0.33871875,0.592125,0.55275,-0.65671875,-0.99009375,0.445,0.016725917758217523,0.026065328386373102,True
54719,29813,0,29814,4210.0,41392.0,45494.0,-0.002928,0.000244,0.000915,0.5775,-1.2950000000000002,-3.5700000000000003,0.5848125,-0.24396875,-0.33653125,0.583375,0.537125,-0.6659375,-0.991375,0.45846875000000004,0.017107346923262087,0.02620278996253707,True
54720,29814,0,29815,4211.0,41393.0,45494.0,-0.002623,0.0,0.000183,0.5775,-1.3125000000000002,-3.6225000000000005,0.59128125,-0.23953125,-0.3314375,0.59990625,0.538125,-0.65609375,-0.9955625,0.44965625000000004,0.016894910614135707,0.026569716124612123,True
54721,29815,0,29816,4213.0,41392.0,45494.0,0.000732,0.0,0.000549,0.47250000000000003,-1.4000000000000001,-3.6750000000000003,0.59075,-0.24496875,-0.33571875,0.592,0.53928125,-0.6585625,-0.99134375,0.46303125,0.016772824855463494,0.02623408355142968,True
54722,29816,0,29817,4212.0,41393.0,45494.0,0.000122,0.000549,0.000305,0.385,-1.4175000000000002,-3.8500000000000005,0.59765625,-0.2434375,-0.33890625,0.59175,0.53740625,-0.66625,-0.9989375,0.42903125000000003,0.017141336846906198,0.026402372100814288,True
54723,29817,0,29818,4212.0,41393.0,45495.0,0.0,0.0008539999999999999,0.00042699999999999997,0.47250000000000003,-1.33,-3.8150000000000004,0.5913437500000001,-0.24728125,-0.3338125,0.594,0.56715625,-0.6488125,-0.9994375,0.45684375,0.01629008496859636,0.026625599075979205,True
54724,29818,0,29819,4214.0,41391.0,45498.0,0.000244,0.000366,-0.000244,0.36750000000000005,-1.3825,-3.8150000000000004,0.5979375,-0.24346875,-0.336375,0.59653125,0.535,-0.6534375,-1.00290625,0.42871875,0.01662927330113701,0.026658150989947425,True
54725,29819,0,29820,4215.0,41395.0,45498.0,0.000183,-0.0015249999999999999,-0.000366,0.5075000000000001,-1.4175000000000002,-3.7975000000000003,0.591375,-0.24746875000000002,-0.33584375,0.5913437500000001,0.55771875,-0.6540312500000001,-0.99075,0.4538125,0.016490710824421464,0.026205946200094036,True
54726,29820,0,29821,4214.0,41393.0,45498.0,-0.000183,0.000305,-0.001952,0.36750000000000005,-1.4175000000000002,-3.7975000000000003,0.5985625,-0.243625,-0.3365,0.59678125,0.5459375,-0.6512187500000001,-0.9931875,0.43603125,0.016534425909469488,0.02627465984480771,True
54727,29821,0,29822,4215.0,41393.0,45500.0,-0.000366,0.0008539999999999999,0.00061,0.2625,-1.4525000000000001,-3.8325000000000005,0.58296875,-0.24740625,-0.33515625,0.58459375,0.54640625,-0.6525625,-0.99621875,0.44021875,0.01643465055610345,0.026446500033130014,True
54728,29822,0,29823,4214.0,41394.0,45500.0,0.000915,-0.000793,-0.000549,0.2625,-1.5225000000000002,-3.8850000000000002,0.597625,-0.2436875,-0.33890625,0.5923125,0.5554375,-0.6528437500000001,-0.9979687500000001,0.44025000000000003,0.016596716149632842,0.02636464212717284,True
54729,29823,0,29824,4216.0,41395.0,45502.0,0.0018909999999999999,-6.1e-05,0.00061,0.36750000000000005,-1.54,-3.9550000000000005,0.59546875,-0.24265625000000002,-0.3365625,0.592875,0.54821875,-0.6529375000000001,-1.00065625,0.4391875,0.016642286542932257,0.026563052719866108,True
54730,29824,0,29825,4216.0,41396.0,45503.0,0.000732,0.0006709999999999999,0.000976,0.24500000000000002,-1.54,-3.9550000000000005,0.5908125,-0.24584375,-0.33546875,0.5972500000000001,0.54396875,-0.6568125,-0.9975937500000001,0.44803125,0.016667553845412904,0.026487549426632315,True
54731,29825,0,29826,4220.0,41395.0,45502.0,-0.000793,-6.1e-05,0.001098,0.31500000000000006,-1.3825,-4.0075,0.59025,-0.245125,-0.33675,0.5953437500000001,0.5489375,-0.6548125,-0.9965,0.44756250000000003,0.016616938376635394,0.026393695117316426,True
54732,29826,0,29827,4217.0,41395.0,45501.0,-0.0017079999999999999,-0.000793,0.000366,0.24500000000000002,-1.2425000000000002,-3.9550000000000005,0.59040625,-0.24565625,-0.33553125,0.59440625,0.54925,-0.6566875,-0.996125,0.44721875,0.016670173152821113,0.02642784631617901,True
54733,29827,0,29828,4220.0,41394.0,45504.0,-0.00122,-0.0015249999999999999,-6.1e-05,0.3325,-1.435,-3.9025000000000003,0.59171875,-0.24409375,-0.3355625,0.5925312500000001,0.54984375,-0.65575,-0.99671875,0.4424375,0.01669615606907111,0.026449721525950282,True
54734,29828,0,29829,4219.0,41398.0,45504.0,-6.1e-05,-0.0013419999999999999,0.000122,0.36750000000000005,-1.4700000000000002,-3.8325000000000005,0.59465625,-0.243875,-0.33825,0.59103125,0.54940625,-0.65346875,-0.9993125,0.43940625,0.016614041381093684,0.026443227188747698,True
54735,29829,0,29830,4219.0,41397.0,45504.0,0.000976,-0.000244,-0.000732,0.35000000000000003,-1.5575,-3.8325000000000005,0.596125,-0.24365625000000002,-0.338,0.5921875,0.55225,-0.65425,-0.99809375,0.4385,0.01665407586927203,0.026405763439462257,True
54736,29830,0,29831,4221.0,41399.0,45507.0,0.001098,-0.0006709999999999999,-0.000366,0.22750000000000004,-1.5750000000000002,-3.7975000000000003,0.59465625,-0.24306250000000001,-0.33653125,0.593,0.55509375,-0.653625,-0.99065625,0.43946875,0.01665323050869801,0.026174782825080876,True
54737,29831,0,29832,4220.0,41399.0,45505.0,0.001037,0.0,-0.001098,0.2625,-1.5050000000000001,-3.9025000000000003,0.59103125,-0.24590625,-0.3365,0.60365625,0.552,-0.65265625,-0.9959687500000001,0.43746875,0.01649923626384074,0.026383004259436838,True
54738,29832,0,29833,4222.0,41399.0,45509.0,0.00122,0.001464,-0.000244,0.35000000000000003,-1.6625,-3.9200000000000004,0.57684375,-0.249625,-0.337375,0.60553125,0.54953125,-0.6568437500000001,-0.996125,0.43859375,0.016515445128697792,0.02635408488315689,True
54739,29833,0,29834,4222.0,41400.0,45510.0,0.0013419999999999999,0.0018909999999999999,-0.000732,0.4025,-1.6450000000000002,-3.8325000000000005,0.589375,-0.24840625,-0.33340625,0.5885,0.54934375,-0.65571875,-0.99625,0.43909375,0.016520001064661723,0.026517727659148872,True
54740,29834,0,29835,4222.0,41401.0,45512.0,-0.00042699999999999997,0.002562,0.000915,0.35000000000000003,-1.435,-3.8675,0.6005625,-0.2429375,-0.338625,0.58175,0.5570625,-0.65378125,-0.9985,0.43978125,0.016664532950701017,0.0263965837950277,True
54741,29835,0,29836,4224.0,41401.0,45514.0,-0.001586,0.00042699999999999997,0.001647,0.28,-1.4000000000000001,-3.8325000000000005,0.606,-0.24190625000000002,-0.3433125,0.5845625,0.5573750000000001,-0.65325,-1.00059375,0.43978125,0.01668517335442589,0.026290625597642052,True
54742,29836,0,29837,4224.0,41401.0,45514.0,-0.001952,-0.002379,0.0017079999999999999,0.35000000000000003,-1.3125000000000002,-3.7800000000000002,0.6016875,-0.2414375,-0.33728125000000003,0.60221875,0.5490625,-0.6540312500000001,-0.99728125,0.44790625,0.016735346273238787,0.026402871312255206,True
54743,29837,0,29838,4224.0,41401.0,45515.0,-0.0006709999999999999,-0.000183,0.001281,0.4025,-1.61,-3.8850000000000002,0.5846875,-0.24740625,-0.3323125,0.58525,0.5483750000000001,-0.65575,-0.9948750000000001,0.43946875,0.01656180606957809,0.026507934126495932,True
54744,29838,0,29839,4225.0,41402.0,45516.0,-0.000915,0.001586,0.00042699999999999997,0.36750000000000005,-1.5050000000000001,-3.8500000000000005,0.60965625,-0.2421875,-0.3394375,0.6003437500000001,0.55384375,-0.6534375,-0.9981875,0.44496875,0.01668124374136467,0.02635191051351223,True
54745,29839,0,29840,4227.0,41402.0,45516.0,0.000183,0.0008539999999999999,-0.000793,0.29750000000000004,-1.54,-3.8500000000000005,0.5845312500000001,-0.2516875,-0.3333125,0.5978125,0.55009375,-0.65734375,-0.9936875000000001,0.441875,0.016451741684462666,0.026421671472046694,True
54746,29840,0,29841,4227.0,41402.0,45517.0,0.0021349999999999997,0.00244,-0.002013,0.36750000000000005,-1.5225000000000002,-3.8150000000000004,0.59428125,-0.24278125,-0.3404375,0.5855625,0.54828125,-0.65328125,-0.99865625,0.44028125,0.016650927551479584,0.026330165246381997,True
54747,29841,0,29842,4227.0,41403.0,45517.0,-0.001464,-0.002928,-0.000915,0.1925,-1.5750000000000002,-4.0425,0.5974375000000001,-0.2488125,-0.3340625,0.6072500000000001,0.5546875,-0.65690625,-0.996625,0.44596875,0.016550890280486834,0.02650607832057327,True
54748,29842,0,29843,4229.0,41403.0,45518.0,-0.00061,-0.004392,-0.000915,0.2625,-1.7675,-3.9550000000000005,0.58365625,-0.2495625,-0.339625,0.586375,0.54421875,-0.656,-0.99784375,0.4365,0.01648432430240104,0.026331021050565614,True
54749,29843,0,29844,4228.0,41403.0,45520.0,0.000976,-0.001098,0.00042699999999999997,0.36750000000000005,-1.9250000000000003,-3.9375000000000004,0.6075,-0.2410625,-0.3385625,0.5908125,0.5553125,-0.65309375,-0.9930625000000001,0.4419375,0.01671316607068839,0.02618726696658323,True
54750,29844,0,29845,4230.0,41403.0,45519.0,0.00244,0.000915,0.0028669999999999998,0.49000000000000005,-1.9075000000000002,-3.8500000000000005,0.5928125,-0.24759375,-0.33434375,0.59959375,0.549625,-0.6556875,-0.9966875000000001,0.44565625000000003,0.016551708403994007,0.026497260887067536,True
54751,29845,0,29846,4230.0,41403.0,45521.0,0.004026,-0.000305,0.003172,0.28,-1.8550000000000002,-3.8325000000000005,0.58484375,-0.24646875000000001,-0.33428125000000003,0.5935,0.54925,-0.652875,-0.9969375,0.4463125,0.01648514625576124,0.026509497413433142,True
54752,29846,0,29847,4231.0,41405.0,45524.0,-0.000366,0.000793,-0.001098,0.2625,-1.61,-3.7800000000000002,0.58409375,-0.24846875000000002,-0.33453125,0.596625,0.54965625,-0.65671875,-0.9958750000000001,0.44571875,0.01655735315551669,0.0264581155890722,True
54753,29847,0,29848,4232.0,41406.0,45524.0,-0.004575,0.0034159999999999998,-0.004148,0.5075000000000001,-1.12,-3.7975000000000003,0.59040625,-0.24340625000000002,-0.33603125,0.59165625,0.5494687500000001,-0.65259375,-0.9969687500000001,0.43965625,0.016598152070712635,0.026440705935594694,True
54754,29848,0,29849,4233.0,41404.0,45524.0,-0.005307,0.005246,-0.006039,0.47250000000000003,-1.1025,-3.8850000000000002,0.59871875,-0.24384375,-0.33796875,0.59190625,0.55634375,-0.65028125,-0.99928125,0.44053125,0.016488148588568338,0.026453260531240273,True
54755,29849,0,29850,4235.0,41404.0,45525.0,-0.004392,0.001769,-0.001647,0.43750000000000006,-1.0325000000000002,-3.7625,0.59084375,-0.24606250000000002,-0.33575,0.5915312500000001,0.55334375,-0.65615625,-0.9938750000000001,0.44728125,0.016632509375827793,0.02633145120554536,True
54756,29850,0,29851,4234.0,41404.0,45522.0,-0.001586,-0.000488,0.004514,0.4025,-1.0850000000000002,-3.7625,0.59740625,-0.24390625000000002,-0.33665625,0.59184375,0.54675,-0.65334375,-0.9955625,0.438,0.01660778773670407,0.026360929064909024,True
54757,29851,0,29852,4234.0,41401.0,45521.0,0.002989,-0.00488,0.004575,0.12250000000000001,-1.54,-3.9025000000000003,0.59821875,-0.24334375,-0.3384375,0.592875,0.55709375,-0.65375,-0.997625,0.43928125,0.01664680829488415,0.0263700051504893,True
54758,29852,0,29853,4234.0,41399.0,45517.0,0.002562,-0.002745,-0.000549,0.14,-1.6800000000000002,-4.0600000000000005,0.59390625,-0.2461875,-0.3359375,0.5979375,0.54825,-0.6525,-0.99684375,0.44440625,0.01648159415880742,0.026439587997984747,True
54759,29853,0,29854,4235.0,41399.0,45512.0,0.000549,-0.000976,-0.002562,0.08750000000000001,-1.7500000000000002,-4.0425,0.59096875,-0.24634375,-0.33578125000000003,0.591375,0.54321875,-0.65275,-0.99609375,0.44125000000000003,0.0164852298425125,0.026416627598062195,True
54760,29854,0,29855,4233.0,41396.0,45508.0,-0.000732,-0.000305,-0.003904,0.14,-1.5925000000000002,-3.9025000000000003,0.59859375,-0.243875,-0.33918750000000003,0.59196875,0.54996875,-0.65353125,-0.9959687500000001,0.4390625,0.016616534396061415,0.02627548692226622,True
54761,29855,0,29856,4233.0,41398.0,45507.0,-0.000305,0.000122,-0.002074,0.21000000000000002,-1.5925000000000002,-3.8150000000000004,0.5871875,-0.24421875,-0.33953125,0.5915,0.5575,-0.653625,-0.9976875000000001,0.43984375000000003,0.016606330712014963,0.026328685403399815,True
54762,29856,0,29857,4233.0,41396.0,45504.0,0.000732,0.001464,-0.000793,0.24500000000000002,-1.6275000000000002,-4.130000000000001,0.58528125,-0.23725000000000002,-0.33803125,0.59178125,0.55178125,-0.65334375,-1.0001875,0.4400625,0.016877781538254824,0.02648605135461484,True
54763,29857,0,29858,4231.0,41397.0,45503.0,-0.000915,0.00061,0.001281,0.15750000000000003,-1.715,-4.095000000000001,0.59171875,-0.2451875,-0.33584375,0.5982500000000001,0.55159375,-0.65625,-0.997,0.4454375,0.016671736375158428,0.026449423930871706,True
54764,29858,0,29859,4234.0,41398.0,45502.0,-0.000244,0.0018909999999999999,0.002196,0.29750000000000004,-1.7675,-4.077500000000001,0.5910625,-0.24703125,-0.33653125,0.5955,0.55034375,-0.656375,-0.9975937500000001,0.43993750000000004,0.016601943716381667,0.026445045335613558,True
54765,29859,0,29860,4231.0,41400.0,45500.0,-0.00042699999999999997,0.002074,0.002257,0.31500000000000006,-1.6800000000000002,-4.0075,0.5915,-0.24325,-0.33396875,0.59178125,0.549125,-0.65315625,-0.99875,0.43059375,0.016626927840121892,0.026592579628981452,True
54766,29860,0,29861,4230.0,41397.0,45499.0,0.0006709999999999999,0.001037,0.001037,0.4025,-1.9075000000000002,-3.9725000000000006,0.59884375,-0.24425,-0.33884375,0.58696875,0.5444687500000001,-0.64734375,-0.99715625,0.43928125,0.01635444995974465,0.026335495662631624,True
54767,29861,0,29862,4230.0,41395.0,45499.0,0.0030499999999999998,-0.000366,-0.001464,0.28,-1.9600000000000002,-4.077500000000001,0.59521875,-0.24453125,-0.33515625,0.5951875,0.5428125,-0.653875,-0.99553125,0.44646875,0.016603627218844907,0.026419722525401413,True
54768,29862,0,29863,4230.0,41395.0,45499.0,0.0023179999999999997,0.0018909999999999999,-0.0025009999999999998,0.22750000000000004,-1.7675,-4.130000000000001,0.5895625,-0.24696875000000001,-0.3356875,0.598125,0.54884375,-0.65553125,-0.99421875,0.43940625,0.016570825258530986,0.026347342823027822,True
54769,29863,0,29864,4230.0,41395.0,45500.0,-0.001037,0.000732,-0.00042699999999999997,0.21000000000000002,-1.5575,-4.025,0.59075,-0.24690625,-0.33590625,0.5985,0.5490625,-0.6553125,-0.9957812500000001,0.44490625,0.016564634903735248,0.026399454908015728,True
54770,29864,0,29865,4228.0,41397.0,45499.0,-0.0034159999999999998,-0.0017079999999999999,0.000549,0.21000000000000002,-1.3125000000000002,-3.99,0.5905312500000001,-0.24709375,-0.33509375,0.59196875,0.5494375,-0.6553125,-0.99521875,0.44103125,0.016557030051839738,0.026410050922238883,True
54771,29865,0,29866,4228.0,41396.0,45501.0,-0.00366,-0.001464,0.000366,0.29750000000000004,-1.2600000000000002,-3.9725000000000006,0.596875,-0.24421875,-0.33859375,0.5919375,0.549,-0.65340625,-0.9968125,0.4395625,0.016597605046969926,0.02633210734368632,True
54772,29866,0,29867,4227.0,41397.0,45495.0,0.001098,-0.0025009999999999998,0.00122,0.17500000000000002,-1.715,-4.0075,0.5903437500000001,-0.24615625,-0.336125,0.5935625,0.55165625,-0.65378125,-0.9969687500000001,0.4390625,0.01653397488468427,0.026436955480852054,True
54773,29867,0,29868,4225.0,41398.0,45498.0,0.002196,-0.001464,-0.000976,0.14,-1.715,-3.99,0.58540625,-0.24390625000000002,-0.33559375,0.59715625,0.5525625,-0.65215625,-0.9971875,0.4438125,0.01656041750911748,0.02646672750684452,True
54774,29868,0,29869,4225.0,41395.0,45495.0,0.001647,-0.00042699999999999997,-0.00122,0.22750000000000004,-1.7675,-4.077500000000001,0.592125,-0.24409375,-0.33925,0.59103125,0.54971875,-0.65071875,-0.99790625,0.44021875,0.01649546222663386,0.02634845668324722,True
54775,29869,0,29870,4225.0,41394.0,45497.0,0.0008539999999999999,-0.000244,-0.000793,0.36750000000000005,-1.6625,-4.077500000000001,0.59003125,-0.24365625000000002,-0.3359375,0.59165625,0.55340625,-0.65340625,-0.99625,0.44315625000000003,0.016620421366722902,0.026416462469370405,True
54776,29870,0,29871,4225.0,41393.0,45495.0,0.0,0.000183,0.000244,0.4025,-1.6975000000000002,-3.9550000000000005,0.59171875,-0.24378125,-0.33709375,0.5915312500000001,0.552875,-0.6536875,-0.9990625000000001,0.43162500000000004,0.016626569554757276,0.026479742990362137,True
54777,29871,0,29872,4222.0,41393.0,45495.0,-0.001281,-6.1e-05,0.000366,0.28,-1.7500000000000002,-4.025,0.594,-0.24353125,-0.33675,0.5915625,0.55,-0.65425,-0.9979687500000001,0.43193750000000003,0.016659145989028262,0.02645089913555477,True
54778,29872,0,29873,4222.0,41392.0,45496.0,-0.000549,0.000244,-0.001586,0.17500000000000002,-1.8900000000000001,-3.99,0.5816875,-0.24375,-0.33725,0.58696875,0.55403125,-0.6535,-1.00015625,0.438625,0.016620358164155188,0.026516084274473287,True
54779,29873,0,29874,4222.0,41392.0,45494.0,0.0006709999999999999,-0.000305,-6.1e-05,0.1925,-1.9600000000000002,-3.9025000000000003,0.5949375,-0.24353125,-0.33634375,0.59171875,0.55,-0.65428125,-0.99565625,0.42940625,0.016660392401421156,0.026377083018174406,True
54780,29874,0,29875,4222.0,41392.0,45499.0,0.001647,0.000122,0.000244,0.2625,-1.9775000000000003,-3.9200000000000004,0.5954375000000001,-0.243375,-0.33759375,0.592,0.55240625,-0.649625,-0.99565625,0.43921875,0.016480980947986022,0.02632707432916469,True
54781,29875,0,29876,4219.0,41394.0,45497.0,0.00042699999999999997,0.000915,0.001281,0.29750000000000004,-1.8550000000000002,-3.8850000000000002,0.59471875,-0.24381250000000002,-0.334625,0.59165625,0.55040625,-0.65546875,-0.99365625,0.45165625000000004,0.016696346525555312,0.02636794086499449,True
54782,29876,0,29877,4221.0,41392.0,45499.0,-6.1e-05,0.001647,-0.002196,0.45500000000000007,-1.8025000000000002,-3.9200000000000004,0.59215625,-0.24575,-0.33265625,0.59175,0.5456875,-0.65534375,-0.99540625,0.43643750000000003,0.016612777909454212,0.026514872107749804,True
54783,29877,0,29878,4219.0,41392.0,45499.0,-0.000793,0.001769,-0.002745,0.5075000000000001,-1.9425000000000001,-3.8500000000000005,0.59515625,-0.24053125,-0.342625,0.59128125,0.561375,-0.651375,-0.99803125,0.4363125,0.016666159595560087,0.026218314692282016,True
54784,29878,0,29879,4219.0,41390.0,45500.0,-0.000976,0.0018909999999999999,-0.0008539999999999999,0.43750000000000006,-1.9425000000000001,-3.8150000000000004,0.59975,-0.2378125,-0.3325625,0.59225,0.5501875,-0.65434375,-0.9939375,0.44165625000000003,0.01689484231353755,0.026461416893596698,True
54785,29879,0,29880,4220.0,41394.0,45498.0,0.001647,0.000488,0.000366,0.43750000000000006,-1.995,-3.7975000000000003,0.58696875,-0.2505,-0.32884375,0.6021562500000001,0.55009375,-0.65475,-0.99190625,0.44915625000000003,0.016396434764092114,0.026531089440206268,True
54786,29880,0,29881,4217.0,41394.0,45499.0,0.004026,0.000732,0.002074,0.4025,-1.9600000000000002,-3.8325000000000005,0.59059375,-0.23953125,-0.33940625,0.58275,0.5473750000000001,-0.65196875,-1.002125,0.4355,0.01673040819508584,0.026506496947759438,True
54787,29881,0,29882,4216.0,41393.0,45499.0,-0.000915,-0.0025009999999999998,0.001952,0.35000000000000003,-1.6450000000000002,-3.6225000000000005,0.60290625,-0.24296875,-0.3368125,0.58196875,0.55825,-0.6499375000000001,-0.9961875,0.43721875,0.016509930299011915,0.026379022800977148,True
54788,29882,0,29883,4215.0,41392.0,45502.0,-0.002257,-0.003172,-0.000183,0.3325,-1.54,-3.6750000000000003,0.597875,-0.24265625000000002,-0.33759375,0.5825312500000001,0.55353125,-0.65359375,-0.99865625,0.42878125,0.01666846238187891,0.026443921360773143,True
54789,29883,0,29884,4217.0,41391.0,45502.0,-0.000915,-0.002806,-0.001037,0.385,-1.5050000000000001,-3.6225000000000005,0.61375,-0.2390625,-0.3466875,0.5805625,0.5626875,-0.6510312500000001,-1.00065625,0.43534375000000003,0.016712029035296446,0.026158063350837042,True
54790,29884,0,29885,4216.0,41393.0,45498.0,0.000488,-0.003721,-0.002623,0.22750000000000004,-1.6450000000000002,-3.6050000000000004,0.60759375,-0.24481250000000002,-0.3256875,0.6025,0.56371875,-0.65190625,-0.9935,0.44865625000000003,0.01651368238510967,0.02671944705623462,True
54791,29885,0,29886,4217.0,41390.0,45498.0,0.001952,-0.0021349999999999997,-0.002074,0.22750000000000004,-1.5925000000000002,-3.6575,0.56290625,-0.24653125,-0.33825,0.58528125,0.5445625000000001,-0.65646875,-0.99703125,0.440625,0.016625961493370783,0.026354379582575437,True
54792,29886,0,29887,4215.0,41390.0,45498.0,-0.001647,0.001464,-0.000976,0.5075000000000001,-1.2950000000000002,-3.99,0.60553125,-0.23978125,-0.34334375,0.5825625,0.55934375,-0.65225,-0.99690625,0.4365,0.016731484955734264,0.02614573553477243,True
54793,29887,0,29888,4215.0,41391.0,45500.0,-0.0050019999999999995,0.00244,0.0011589999999999999,0.525,-1.2425000000000002,-3.8850000000000002,0.59540625,-0.24559375,-0.3325,0.59996875,0.55209375,-0.65215625,-0.995375,0.43996875,0.0164919650791196,0.02651990618264379,True
54794,29888,0,29889,4215.0,41391.0,45504.0,-0.00488,0.001952,0.002928,0.5425000000000001,-1.155,-3.7275000000000005,0.58546875,-0.2499375,-0.33046875000000003,0.60840625,0.54975,-0.6555625,-0.9955,0.444125,0.016451662784006654,0.026606039087035665,True
54795,29889,0,29890,4214.0,41392.0,45504.0,-0.0034159999999999998,0.002196,0.003111,0.45500000000000007,-1.33,-3.7450000000000006,0.57896875,-0.24990625,-0.33453125,0.6031875,0.549,-0.6564375,-0.99625,0.44425000000000003,0.016487834059563552,0.026472720908136217,True
54796,29890,0,29891,4215.0,41391.0,45504.0,-0.001098,0.0021349999999999997,0.0018909999999999999,0.56,-1.6450000000000002,-3.7975000000000003,0.58490625,-0.24671875000000001,-0.33484375,0.59609375,0.54934375,-0.650875,-0.99665625,0.44184375000000004,0.01639520909501184,0.026476041170506556,True
54797,29891,0,29892,4215.0,41390.0,45502.0,0.005307,0.0011589999999999999,-0.002379,0.5075000000000001,-2.31,-3.8325000000000005,0.5950625,-0.24296875,-0.33596875,0.5921875,0.55028125,-0.65359375,-0.99925,0.44025000000000003,0.016655786745086606,0.026532045961378842,True
54798,29892,0,29893,4215.0,41389.0,45502.0,0.0051849999999999995,0.000183,-0.0018909999999999999,0.43750000000000006,-2.205,-3.7800000000000002,0.589375,-0.2405625,-0.33553125,0.593625,0.5523125,-0.65278125,-0.99971875,0.4395,0.01672098356042485,0.026567798887737484,True
54799,29893,0,29894,4214.0,41391.0,45502.0,0.003294,0.001769,-0.0013419999999999999,0.56,-1.9600000000000002,-3.7625,0.59009375,-0.24175,-0.33665625,0.594875,0.55746875,-0.65275,-0.9987812500000001,0.43996875,0.016671568080640093,0.02648629120669633,True
54800,29894,0,29895,4213.0,41391.0,45503.0,-0.000793,0.000183,-0.0013419999999999999,0.4025,-1.7325000000000002,-3.7100000000000004,0.5906875,-0.23896875,-0.33878125000000003,0.592625,0.5554375,-0.6535625,-0.9995,0.43743750000000003,0.016816788648699354,0.02642927858557171,True
54801,29895,0,29896,4214.0,41392.0,45505.0,-0.00183,-0.000488,-6.1e-05,0.45500000000000007,-1.5225000000000002,-3.7800000000000002,0.59965625,-0.24315625000000002,-0.336,0.5982500000000001,0.55225,-0.65765625,-0.99590625,0.44509375,0.016810194602335737,0.026400573093844113,True
54802,29896,0,29897,4214.0,41390.0,45505.0,-0.0021349999999999997,-0.001647,-6.1e-05,0.525,-1.4000000000000001,-3.8850000000000002,0.5915625,-0.24571875,-0.33634375,0.597125,0.55,-0.6556875,-0.9955625,0.448,0.016627755766291247,0.02637343128405292,True
54803,29897,0,29898,4214.0,41393.0,45505.0,-0.002623,-0.00183,0.0030499999999999998,0.47250000000000003,-1.3825,-3.7800000000000002,0.59128125,-0.244375,-0.332125,0.59190625,0.54934375,-0.6569375000000001,-0.99521875,0.44125000000000003,0.01673210632910109,0.02652882363752068,True
54804,29898,0,29899,4214.0,41392.0,45507.0,-0.001647,-0.00061,0.001403,0.45500000000000007,-1.435,-3.7625,0.597875,-0.24371875,-0.33718750000000003,0.59196875,0.55003125,-0.65396875,-0.9937812500000001,0.4420625,0.01664032286890929,0.026270284733327418,True
54805,29899,0,29900,4214.0,41390.0,45508.0,-0.0018909999999999999,-0.000732,-0.000305,0.5075000000000001,-1.5050000000000001,-3.7100000000000004,0.5938125,-0.24403125,-0.3368125,0.5963125,0.554625,-0.65365625,-0.99953125,0.437125,0.016615182585747297,0.02650924704838216,True
54806,29900,0,29901,4214.0,41391.0,45505.0,0.0026839999999999998,-0.0011589999999999999,0.00042699999999999997,0.49000000000000005,-1.8375000000000001,-3.7975000000000003,0.59075,-0.2449375,-0.3359375,0.6003125,0.5415,-0.6526875,-0.9966875000000001,0.43971875,0.016539778878063495,0.026433502439073178,True
54807,29901,0,29902,4213.0,41389.0,45506.0,0.0064659999999999995,-0.000244,-0.0018909999999999999,0.385,-2.0475000000000003,-3.7975000000000003,0.5908125,-0.24778125,-0.33525,0.5915625,0.55084375,-0.65334375,-0.9955,0.44578125,0.01645060824659941,0.026414754655838053,True
54808,29902,0,29903,4214.0,41392.0,45504.0,0.002989,0.00042699999999999997,-0.001952,0.36750000000000005,-1.8025000000000002,-3.9025000000000003,0.59721875,-0.2426875,-0.33025,0.59065625,0.5513125,-0.65334375,-0.99871875,0.43909375,0.016657223221495054,0.026740120431172097,True
54809,29903,0,29904,4214.0,41390.0,45506.0,-0.001586,0.000488,0.000244,0.47250000000000003,-1.4700000000000002,-3.8850000000000002,0.5876875,-0.24281250000000001,-0.33696875,0.59471875,0.5565625,-0.653375,-0.99715625,0.43959375,0.016653399382437498,0.026410504194852163,True
54810,29904,0,29905,4213.0,41390.0,45507.0,-0.0034159999999999998,-6.1e-05,0.000732,0.6125,-1.1900000000000002,-3.7625,0.5911875,-0.24709375,-0.33584375,0.5975,0.55790625,-0.65478125,-0.9967812500000001,0.44475000000000003,0.01653583927052689,0.026440904266424304,True
54811,29905,0,29906,4213.0,41391.0,45506.0,-0.0023179999999999997,0.000915,0.0028669999999999998,0.47250000000000003,-0.9975,-3.7450000000000006,0.5908125,-0.24540625,-0.33437500000000003,0.5924375000000001,0.5493750000000001,-0.65634375,-0.9958125,0.44659375,0.016666603295551474,0.026461932373672586,True
54812,29906,0,29907,4214.0,41394.0,45508.0,-0.0028669999999999998,0.0006709999999999999,0.001098,0.2625,-1.1725,-3.8675,0.59890625,-0.244375,-0.33940625,0.5919375,0.5495625000000001,-0.6536875,-0.9980625000000001,0.4336875,0.016602485936434458,0.026348291992629433,True
54813,29907,0,29908,4214.0,41392.0,45509.0,-0.003294,0.0,-0.000732,0.45500000000000007,-1.3475000000000001,-3.9200000000000004,0.59090625,-0.24606250000000002,-0.33528125000000003,0.59853125,0.5554687500000001,-0.6535625,-0.9927812500000001,0.4443125,0.01652905132878869,0.026307596318436946,True
54814,29908,0,29909,4213.0,41392.0,45512.0,-0.001403,0.0011589999999999999,0.000244,0.385,-1.5575,-3.8850000000000002,0.59078125,-0.24403125,-0.33609375,0.59346875,0.54609375,-0.6563125,-0.99665625,0.44396875,0.01672112364734183,0.02642603448211198,True
54815,29909,0,29910,4213.0,41392.0,45509.0,0.000488,0.001586,-0.0006709999999999999,0.36750000000000005,-1.8200000000000003,-3.9025000000000003,0.5915625,-0.2441875,-0.33659375,0.59190625,0.55,-0.6567500000000001,-0.99665625,0.43909375,0.016732233566873173,0.026406031806754153,True
54816,29910,0,29911,4214.0,41389.0,45510.0,0.003721,-0.000122,-0.003477,0.42000000000000004,-2.0475000000000003,-3.7275000000000005,0.5910625,-0.24646875000000001,-0.3354375,0.5920625,0.557625,-0.65359375,-0.99875,0.439375,0.016513819613012806,0.026533826691334566,True
54817,29911,0,29912,4214.0,41390.0,45509.0,0.0035989999999999998,-0.001647,-0.0018909999999999999,0.47250000000000003,-2.0125,-3.8150000000000004,0.5908125,-0.24734375,-0.3350625,0.5913437500000001,0.5493125,-0.65509375,-0.9953125,0.44340625,0.016538164654109257,0.026414952803650683,True
54818,29912,0,29913,4214.0,41391.0,45511.0,0.002257,0.00042699999999999997,0.0,0.385,-1.9250000000000003,-3.7800000000000002,0.5951875,-0.24409375,-0.33865625,0.5878125,0.5498125,-0.65578125,-0.9963125,0.43953125,0.01669740235872672,0.026310130744284784,True
54819,29913,0,29914,4212.0,41391.0,45510.0,0.00183,-0.000305,0.0011589999999999999,0.36750000000000005,-1.6800000000000002,-3.8850000000000002,0.59671875,-0.24046875,-0.33587500000000003,0.59984375,0.55396875,-0.64978125,-0.9970625000000001,0.43915625,0.01660511693181861,0.02645060794643371,True
54820,29914,0,29915,4214.0,41390.0,45510.0,0.00122,0.000244,0.002257,0.36750000000000005,-1.4700000000000002,-4.0600000000000005,0.5909375,-0.23790625,-0.33853125,0.5918125,0.54840625,-0.65521875,-0.9965625,0.4398125,0.016925929728366332,0.02632486966957957,True
54821,29915,0,29916,4214.0,41391.0,45514.0,-0.0050019999999999995,-0.000305,0.0006709999999999999,0.29750000000000004,-1.1725,-3.9550000000000005,0.59821875,-0.243,-0.33484375,0.59778125,0.55484375,-0.65265625,-0.99784375,0.43903125,0.01661712416892196,0.026522287547300953,True
54822,29916,0,29917,4215.0,41391.0,45512.0,-0.00671,-0.000305,0.0013419999999999999,0.385,-1.2075,-3.8500000000000005,0.590875,-0.24609375,-0.33578125000000003,0.59090625,0.5496875,-0.655,-0.9941562500000001,0.44709375,0.016585124721151895,0.02634115724550614,True
54823,29917,0,29918,4213.0,41393.0,45515.0,-0.003843,6.1e-05,0.001403,0.3325,-1.4700000000000002,-3.9550000000000005,0.59903125,-0.24403125,-0.33815625,0.59221875,0.5495625000000001,-0.6469375,-0.99575,0.43193750000000003,0.01634711209049806,0.026308222397807626,True
54824,29918,0,29919,4213.0,41387.0,45512.0,-0.0013419999999999999,-0.000366,-0.000732,0.42000000000000004,-1.7500000000000002,-3.9200000000000004,0.5994375000000001,-0.24331250000000001,-0.3395625,0.5928125,0.5555,-0.65325,-1.0010000000000001,0.43971875,0.01662813219352418,0.02645644174233031,True
54825,29919,0,29920,4214.0,41387.0,45512.0,0.0030499999999999998,-0.0011589999999999999,-0.002379,0.36750000000000005,-1.995,-3.9200000000000004,0.59084375,-0.24340625000000002,-0.3314375,0.5909375,0.566625,-0.65034375,-1.00265625,0.4370625,0.016508390476299137,0.026845897623377513,True
54826,29920,0,29921,4215.0,41387.0,45512.0,0.004941,0.000549,-0.001403,0.3325,-2.2575000000000003,-3.9725000000000006,0.5974375000000001,-0.2429375,-0.33871875,0.59115625,0.56446875,-0.65365625,-0.9944375,0.45356250000000004,0.016659547202050404,0.026234587195651027,True
54827,29921,0,29922,4215.0,41389.0,45511.0,0.004941,0.000305,0.00042699999999999997,0.385,-2.0475000000000003,-4.025,0.59709375,-0.2445,-0.33365625,0.59809375,0.54303125,-0.65953125,-0.99471875,0.44796875,0.016830459824738152,0.026448087158412212,True
54828,29922,0,29923,4215.0,41389.0,45513.0,0.003477,0.001647,0.001098,0.35000000000000003,-1.6975000000000002,-4.0425,0.5914375000000001,-0.24556250000000002,-0.33575,0.5989375,0.54890625,-0.65725,-0.99365625,0.44121875,0.01669640775025601,0.02632292944334625,True
54829,29923,0,29924,4214.0,41388.0,45511.0,0.000244,0.000305,-0.000305,0.35000000000000003,-1.4525000000000001,-4.0425,0.59165625,-0.2446875,-0.33646875,0.591375,0.5661875000000001,-0.65109375,-1.0008125,0.4375,0.01648633744699462,0.026572886381192616,True
54830,29924,0,29925,4213.0,41387.0,45513.0,-0.001647,0.000366,-0.000366,0.29750000000000004,-1.2600000000000002,-4.0075,0.59790625,-0.24284375,-0.3384375,0.59140625,0.5503125,-0.65509375,-0.9933125,0.4403125,0.016720682718961474,0.026202009037417512,True
54831,29925,0,29926,4215.0,41388.0,45518.0,-0.00549,0.000183,-0.000366,0.42000000000000004,-1.1025,-3.8500000000000005,0.587875,-0.24328125,-0.3380625,0.5954375000000001,0.545,-0.6555,-0.9986875000000001,0.433625,0.016719139745695687,0.026426387385337733,True
54832,29926,0,29927,4217.0,41390.0,45518.0,-0.006344,-0.000366,0.000793,0.36750000000000005,-1.1025,-3.8675,0.59075,-0.24584375,-0.33590625,0.59746875,0.56425,-0.65040625,-1.00340625,0.43393750000000003,0.016412001323507598,0.026696362620592943,True
54833,29927,0,29928,4216.0,41388.0,45517.0,-0.003965,-0.000976,0.0013419999999999999,0.35000000000000003,-1.33,-3.99,0.592125,-0.244875,-0.3364375,0.59365625,0.5553125,-0.650625,-1.00453125,0.433875,0.016460028903932455,0.026718907198070355,True
54834,29928,0,29929,4217.0,41388.0,45516.0,-0.000122,-0.002257,0.001647,0.29750000000000004,-1.61,-4.0600000000000005,0.59178125,-0.2380625,-0.336125,0.58421875,0.56584375,-0.65140625,-1.00271875,0.43028125,0.016767552561022758,0.02666085063249372,True
54835,29929,0,29930,4216.0,41387.0,45516.0,0.0040869999999999995,-0.0018909999999999999,0.002074,0.36750000000000005,-1.8550000000000002,-3.99,0.5915,-0.24715625,-0.33571875,0.5980625,0.56846875,-0.6508125,-1.00409375,0.43340625,0.01637496735655265,0.026730622860506592,True
54836,29930,0,29931,4216.0,41386.0,45515.0,0.005063,0.002379,-0.0030499999999999998,0.4025,-2.1175,-4.165,0.5910625,-0.24365625000000002,-0.33603125,0.59721875,0.5669062500000001,-0.64915625,-1.0008125,0.4276875,0.01645086735981074,0.0265903858124611,True
54837,29931,0,29932,4217.0,41386.0,45513.0,0.002562,0.00244,-0.0042699999999999995,0.45500000000000007,-1.9075000000000002,-4.1825,0.5913437500000001,-0.2471875,-0.33584375,0.5956875,0.54715625,-0.65478125,-0.99534375,0.448125,0.01653203676264619,0.026384914190267936,True
54838,29932,0,29933,4216.0,41386.0,45516.0,-0.000915,0.001769,-0.0026839999999999998,0.28,-1.7850000000000001,-4.112500000000001,0.5945625,-0.24346875,-0.33746875,0.592625,0.54296875,-0.66053125,-0.99628125,0.434625,0.016912145799778747,0.02635642051755199,True
54839,29933,0,29934,4216.0,41388.0,45518.0,0.000366,0.001281,-0.000366,0.29750000000000004,-1.6275000000000002,-4.095000000000001,0.5923437500000001,-0.2400625,-0.3385625,0.5921875,0.55321875,-0.65240625,-0.99828125,0.43575,0.01672630841056337,0.02639056435129915,True
54840,29934,0,29935,4217.0,41387.0,45519.0,0.000732,-6.1e-05,0.0015249999999999999,0.21000000000000002,-1.54,-4.165,0.59975,-0.24303125,-0.33437500000000003,0.58584375,0.5560625,-0.6538125,-0.99425,0.44025000000000003,0.016661976722667133,0.02640107224661672,True
54841,29935,0,29936,4218.0,41389.0,45521.0,-0.0026839999999999998,-0.00244,0.0028669999999999998,0.14,-1.3475000000000001,-3.9200000000000004,0.59803125,-0.24375,-0.337375,0.59125,0.54996875,-0.6550312500000001,-0.9966875000000001,0.43393750000000003,0.016681432922539898,0.02637599481931356,True
54842,29936,0,29937,4220.0,41389.0,45523.0,-0.003477,-0.0017079999999999999,0.002196,0.24500000000000002,-1.2950000000000002,-3.8675,0.59821875,-0.243625,-0.3383125,0.59109375,0.55071875,-0.653625,-0.99890625,0.4326875,0.016630414391392748,0.02642490608964142,True
54843,29937,0,29938,4218.0,41390.0,45523.0,-0.003538,-0.000793,-0.000366,0.3325,-1.435,-3.9200000000000004,0.5915312500000001,-0.24696875000000001,-0.33565625,0.5972500000000001,0.54721875,-0.6566875,-0.99621875,0.44571875,0.016616942158187306,0.02642649700767241,True
54844,29938,0,29939,4218.0,41387.0,45521.0,-0.001464,-0.000549,0.000488,0.35000000000000003,-1.7500000000000002,-3.9025000000000003,0.594625,-0.24406250000000002,-0.3370625,0.5920625,0.55025,-0.6541875,-0.9971875,0.43965625,0.01663510509117366,0.026407970896725887,True
54845,29939,0,29940,4220.0,41388.0,45522.0,0.001281,0.0,0.000244,0.31500000000000006,-1.8025000000000002,-3.8675,0.5929375,-0.24331250000000001,-0.3390625,0.59209375,0.5554687500000001,-0.651625,-0.99871875,0.43984375000000003,0.016563309720961598,0.02638760236462119,True
54846,29940,0,29941,4220.0,41387.0,45519.0,0.00549,0.0,-0.003904,0.22750000000000004,-2.0650000000000004,-4.0075,0.59175,-0.24509375,-0.3354375,0.58928125,0.5560625,-0.6531875,-0.9979375,0.441,0.01655338685920431,0.02650218643038051,True
54847,29941,0,29942,4222.0,41385.0,45519.0,0.002928,0.001281,-0.000915,0.3325,-1.9075000000000002,-4.0425,0.59128125,-0.24496875,-0.335,0.59503125,0.551625,-0.6560312500000001,-0.9971875,0.44765625000000003,0.01667188428794679,0.02649048017902014,True
54848,29942,0,29943,4221.0,41388.0,45519.0,0.000549,0.001098,0.001464,0.35000000000000003,-1.7325000000000002,-3.9200000000000004,0.59125,-0.24581250000000002,-0.33603125,0.5945625,0.5499375,-0.65253125,-0.996,0.44609375,0.016498052304466708,0.02640297447591615,True
54849,29943,0,29944,4222.0,41386.0,45522.0,0.000488,0.000976,0.000732,0.42000000000000004,-1.4000000000000001,-3.9200000000000004,0.5920625,-0.24409375,-0.3359375,0.5923437500000001,0.54915625,-0.65715625,-0.99609375,0.431375,0.016752235976117483,0.026410376621347084,True
54850,29944,0,29945,4223.0,41388.0,45524.0,-0.001403,0.000183,-0.000549,0.31500000000000006,-1.1375000000000002,-3.8500000000000005,0.591125,-0.24756250000000002,-0.33590625,0.59190625,0.5572812500000001,-0.6530312500000001,-0.9921562500000001,0.44540625,0.016447013995489906,0.026258238522336382,True
54851,29945,0,29946,4225.0,41388.0,45523.0,-0.0053679999999999995,-0.001281,0.0021349999999999997,0.36750000000000005,-1.1375000000000002,-3.8675,0.59709375,-0.24378125,-0.341,0.59203125,0.5493125,-0.655875,-0.996375,0.43834375000000003,0.016713815672735197,0.026218801726250306,True
54852,29946,0,29947,4225.0,41387.0,45525.0,-0.004148,-0.000732,0.001403,0.4025,-1.225,-3.7450000000000006,0.586125,-0.243125,-0.33925,0.591,0.5585,-0.65325,-0.99834375,0.4390625,0.016635737681644405,0.026365496714157315,True
54853,29947,0,29948,4225.0,41387.0,45526.0,-0.003355,-0.000366,0.001952,0.4025,-1.4175000000000002,-3.7625,0.5994375000000001,-0.24165625000000002,-0.34003125,0.5903437500000001,0.556625,-0.6533125,-0.99803125,0.43990625,0.016697806836302422,0.02632207286323798,True
54854,29948,0,29949,4226.0,41390.0,45531.0,-0.0021349999999999997,0.000122,0.000732,0.49000000000000005,-1.715,-3.7975000000000003,0.59028125,-0.24190625000000002,-0.339,0.58903125,0.55859375,-0.65275,-0.9996875000000001,0.43925000000000003,0.016665230045329632,0.026427830347879353,True
54855,29949,0,29950,4228.0,41389.0,45527.0,0.002745,0.002379,0.000793,0.525,-1.9075000000000002,-3.7975000000000003,0.6032500000000001,-0.23925000000000002,-0.340375,0.5891875,0.55759375,-0.65234375,-0.99921875,0.43971875,0.016756773886864206,0.02635457358042439,True
54856,29950,0,29951,4227.0,41388.0,45527.0,0.007259,0.001769,-0.0017079999999999999,0.35000000000000003,-2.0825,-4.025,0.60590625,-0.2390625,-0.341,0.5876250000000001,0.55665625,-0.6515625,-0.99828125,0.43943750000000004,0.01673321924320213,0.02629305764771328,True
54857,29951,0,29952,4228.0,41386.0,45527.0,0.005795,-0.0018909999999999999,-0.0035989999999999998,0.14,-2.0125,-4.1825,0.6043125,-0.24253125,-0.3420625,0.57978125,0.5515625000000001,-0.65296875,-1.0,0.44028125,0.016648603426311488,0.026317500000000004,True
54858,29952,0,29953,4228.0,41386.0,45527.0,0.001037,-0.0023179999999999997,-0.002989,0.17500000000000002,-1.6625,-4.2700000000000005,0.6041562500000001,-0.241875,-0.3323125,0.5995,0.556125,-0.653375,-1.00034375,0.43893750000000004,0.016691426630228115,0.02672088258786442,True
54859,29953,0,29954,4228.0,41388.0,45528.0,-0.0034159999999999998,-0.000976,0.000366,0.31500000000000006,-1.3475000000000001,-4.0075,0.58790625,-0.2494375,-0.33434375,0.604375,0.54959375,-0.655625,-0.99621875,0.4451875,0.0164744353469036,0.026479004949498612,True
54860,29954,0,29955,4229.0,41389.0,45530.0,-0.0051849999999999995,6.1e-05,0.004331,0.49000000000000005,-1.2075,-3.8675,0.58746875,-0.2471875,-0.33440625,0.60753125,0.549625,-0.65490625,-0.995125,0.44534375,0.016537022930273766,0.02643390461139922,True
54861,29955,0,29956,4230.0,41390.0,45531.0,0.000732,-0.000488,0.000793,0.36750000000000005,-1.2425000000000002,-3.8325000000000005,0.57909375,-0.25028125,-0.33321875,0.5835,0.55009375,-0.653875,-0.996625,0.44484375,0.01637039816256065,0.02653983287743845,True
54862,29956,0,29957,4230.0,41389.0,45533.0,0.000549,-0.000976,-0.000183,0.31500000000000006,-1.3475000000000001,-3.9200000000000004,0.60465625,-0.24259375,-0.33546875,0.60321875,0.55171875,-0.65240625,-0.9958750000000001,0.44009375,0.016623630806830467,0.026420609400551093,True
54863,29957,0,29958,4229.0,41390.0,45531.0,0.002379,0.001403,-0.001464,0.22750000000000004,-1.4000000000000001,-3.7800000000000002,0.58746875,-0.24425,-0.3395625,0.5886250000000001,0.54971875,-0.655625,-0.99803125,0.4391875,0.016684833582600322,0.02634082433991677,True
54864,29958,0,29959,4231.0,41390.0,45532.0,-6.1e-05,0.003355,-0.006527,0.47250000000000003,-1.3825,-3.8150000000000004,0.58665625,-0.24871875000000002,-0.3334375,0.59159375,0.5500625,-0.65475,-0.9968750000000001,0.4433125,0.01646868250539957,0.02654081760220028,True
54865,29959,0,29960,4230.0,41391.0,45533.0,-0.003721,0.0026839999999999998,-0.006527,0.42000000000000004,-1.3125000000000002,-3.9025000000000003,0.590125,-0.24478125,-0.33571875,0.58809375,0.550125,-0.65590625,-0.99609375,0.43959375,0.016674503700305075,0.02641912798874824,True
54866,29960,0,29961,4232.0,41388.0,45532.0,-0.002196,-0.003538,0.008173999999999999,0.29750000000000004,-1.3125000000000002,-3.7100000000000004,0.59140625,-0.24590625,-0.33396875,0.5923125,0.55421875,-0.65328125,-0.99665625,0.445,0.016524169576818504,0.02651104585238276,True
54867,29961,0,29962,4230.0,41386.0,45524.0,0.0015249999999999999,-0.004575,0.007076,0.29750000000000004,-1.61,-3.7450000000000006,0.596875,-0.24134375,-0.33803125,0.5934375000000001,0.55,-0.6539375000000001,-0.99821875,0.4400625,0.016735409911702748,0.02640938166844388,True
54868,29962,0,29963,4231.0,41385.0,45522.0,0.002562,-0.002013,0.004209,0.31500000000000006,-1.6450000000000002,-3.9550000000000005,0.591375,-0.24534375,-0.3346875,0.59196875,0.55175,-0.65315625,-0.9973125,0.44096875,0.01654199956648553,0.026507849593831338,True
54869,29963,0,29964,4232.0,41383.0,45516.0,0.002623,-0.003355,-0.0021349999999999997,0.28,-1.8725000000000003,-3.8150000000000004,0.597,-0.24071875,-0.3399375,0.59259375,0.554,-0.65346875,-0.9985625,0.4360625,0.016742065961813185,0.026346514924608166,True
54870,29964,0,29965,4229.0,41383.0,45514.0,-0.0017079999999999999,-0.002379,-0.006954,0.36750000000000005,-2.1175,-3.6400000000000006,0.59284375,-0.245375,-0.3354375,0.5976875,0.5606875,-0.64778125,-0.998125,0.4403125,0.01632626668982629,0.026509488211615872,True
54871,29965,0,29966,4228.0,41382.0,45509.0,0.005795,0.006405,0.0068319999999999995,0.525,-2.0125,-3.8500000000000005,0.59159375,-0.245375,-0.33821875,0.5931875,0.54440625,-0.6558125,-0.9976875000000001,0.46690625,0.016646683211108942,0.02638119026009906,True
54872,29966,0,29967,4229.0,41379.0,45503.0,0.013297999999999999,0.005307,0.00122,0.36750000000000005,-1.8900000000000001,-4.025,0.59846875,-0.2436875,-0.336,0.5965625,0.5396562500000001,-0.6539375000000001,-1.0056875,0.42534375,0.016640343961284075,0.026781407229855208,True
54873,29967,0,29968,4228.0,41378.0,45503.0,0.006039,0.001098,-0.004941,0.14,-1.5575,-4.112500000000001,0.59203125,-0.2444375,-0.33665625,0.5916250000000001,0.544125,-0.655,-0.99375,0.45915625,0.016652301764348003,0.026290322580645165,True
54874,29968,0,29969,4227.0,41380.0,45504.0,-0.008296,0.000183,-0.003965,0.29750000000000004,-1.1025,-3.9725000000000006,0.59778125,-0.24365625000000002,-0.33896875,0.59228125,0.531125,-0.6653125,-0.99071875,0.4391875,0.017095110795778485,0.026079682081972935,True
54875,29969,0,29970,4227.0,41383.0,45508.0,-0.01159,0.0028669999999999998,0.004331,0.6125,-0.9800000000000001,-3.6400000000000006,0.59096875,-0.24653125,-0.33537500000000003,0.5990625,0.56375,-0.6494375,-1.00134375,0.42475,0.016345454130545577,0.02663731824414438,True
54876,29970,0,29971,4228.0,41383.0,45505.0,0.002379,0.001769,0.013115,0.35000000000000003,-1.1375000000000002,-3.7625,0.59109375,-0.243875,-0.338625,0.59265625,0.54996875,-0.66134375,-0.9895625,0.45340625,0.016928061756569936,0.026048375196644595,True
54877,29971,0,29972,4225.0,41379.0,45502.0,0.011346,-0.004941,-0.0040869999999999995,-0.07,-1.6800000000000002,-3.7975000000000003,0.59709375,-0.24331250000000001,-0.33621875,0.59190625,0.537875,-0.652,-0.98934375,0.43846875,0.01657826951160149,0.02613614052990087,True
54878,29972,0,29973,4225.0,41377.0,45500.0,0.0034159999999999998,-0.008662,-0.012565999999999999,0.052500000000000005,-2.45,-3.8500000000000005,0.578,-0.24059375,-0.33628125000000003,0.59921875,0.56715625,-0.64265625,-1.00228125,0.4294375,0.016315712718672527,0.026637569321799382,True
54879,29973,0,29974,4223.0,41377.0,45502.0,0.00061,-0.004575,-0.003843,0.29750000000000004,-2.1875,-3.8150000000000004,0.5918125,-0.244625,-0.33187500000000003,0.59215625,0.5640625,-0.65265625,-0.99521875,0.46159375,0.016551208351027087,0.026538825550386513,True
54880,29974,0,29975,4223.0,41377.0,45498.0,0.008357,0.0017079999999999999,-0.001769,0.49000000000000005,-2.0300000000000002,-3.7275000000000005,0.597875,-0.24406250000000002,-0.33375,0.58490625,0.5376875,-0.65696875,-0.99934375,0.43140625,0.016746026414946078,0.026624448891783406,True
54881,29975,0,29976,4222.0,41374.0,45495.0,0.0073809999999999995,-0.002196,0.000915,0.0,-1.7675,-4.165,0.5906250000000001,-0.245625,-0.33587500000000003,0.59740625,0.5741875,-0.6495625,-1.00896875,0.43675,0.016387207683706356,0.02691409456857352,True
54882,29976,0,29977,4221.0,41373.0,45494.0,0.004697,-0.0053679999999999995,0.002379,-0.07,-1.6625,-4.340000000000001,0.590125,-0.24628125,-0.3355,0.5985625,0.55115625,-0.65625,-0.998125,0.441125,0.016627376425855513,0.026506988024101806,True
54883,29977,0,29978,4221.0,41373.0,45494.0,-0.003721,-0.001037,0.002013,0.28,-1.33,-4.165,0.5913125,-0.2459375,-0.33078125,0.59875,0.55378125,-0.65765625,-0.99575,0.44728125,0.016697400021545034,0.026603272556334576,True
54884,29978,0,29979,4220.0,41371.0,45496.0,-0.011101999999999999,0.0077469999999999995,0.007686,0.5950000000000001,-0.8225000000000001,-4.2700000000000005,0.59178125,-0.2455,-0.33571875,0.5933437500000001,0.54725,-0.65340625,-0.99271875,0.44640625,0.01654563454086593,0.02628765627989152,True
54885,29979,0,29980,4219.0,41377.0,45501.0,-0.007991,0.005978,0.006039,0.6125,-0.525,-4.025,0.5981562500000001,-0.2429375,-0.33903125,0.5920625,0.5376875,-0.6546875,-0.99334375,0.43675,0.01670067811648393,0.026179470283963103,True
54886,29980,0,29981,4220.0,41378.0,45500.0,-0.005978,-0.001098,0.002623,0.22750000000000004,-0.8225000000000001,-3.9550000000000005,0.5955,-0.24090625000000002,-0.33896875,0.59225,0.55278125,-0.65134375,-0.99728125,0.43990625,0.016649700891051833,0.026335363970831832,True
54887,29981,0,29982,4219.0,41378.0,45501.0,-0.004209,-0.0032329999999999998,-0.000488,0.22750000000000004,-1.6275000000000002,-3.8150000000000004,0.59784375,-0.24271875,-0.3349375,0.596,0.5545,-0.6528437500000001,-0.99765625,0.43959375,0.016636011819123303,0.026511235428321407,True
54888,29982,0,29983,4219.0,41378.0,45500.0,0.0028669999999999998,-0.001647,-0.001952,0.31500000000000006,-2.3625000000000003,-3.6750000000000003,0.5790625,-0.24503125,-0.3359375,0.59653125,0.55096875,-0.6534375,-0.9928750000000001,0.437125,0.01656589471549353,0.026284991222498413,True
54889,29983,0,29984,4216.0,41376.0,45497.0,0.01098,-0.0025009999999999998,-0.0077469999999999995,0.36750000000000005,-2.6775,-3.6925000000000003,0.59171875,-0.24396875,-0.3350625,0.59115625,0.55009375,-0.6535625,-0.99690625,0.44534375,0.016613978202947344,0.02647702653203334,True
54890,29984,0,29985,4218.0,41376.0,45492.0,0.006893,-0.0034159999999999998,-0.00732,0.2625,-2.2575000000000003,-3.8500000000000005,0.59796875,-0.24346875,-0.3375625,0.5950625,0.55503125,-0.6540312500000001,-0.997375,0.4400625,0.016652956096175956,0.02639527150350787,True
54891,29985,0,29986,4215.0,41372.0,45490.0,0.0026839999999999998,-0.002989,-0.002623,0.3325,-1.9075000000000002,-3.7625,0.59165625,-0.24046875,-0.33565625,0.59675,0.5504375,-0.65553125,-0.9965937500000001,0.44765625000000003,0.016834457785207934,0.026441102600229284,True
54892,29986,0,29987,4215.0,41371.0,45491.0,-0.000732,0.001647,0.001281,0.43750000000000006,-1.5925000000000002,-3.8150000000000004,0.59140625,-0.24465625,-0.3355625,0.59275,0.54709375,-0.65659375,-0.9960625000000001,0.44546875,0.016706991410766134,0.026424161805484365,True
54893,29987,0,29988,4214.0,41371.0,45493.0,-0.00042699999999999997,0.0060999999999999995,0.004209,0.45500000000000007,-1.4700000000000002,-3.8850000000000002,0.59678125,-0.24331250000000001,-0.33753125,0.59184375,0.5509375,-0.65353125,-0.9981875,0.439,0.016639350600129544,0.026428166042038046,True
54894,29988,0,29989,4213.0,41374.0,45494.0,-0.000122,0.004575,0.002562,0.31500000000000006,-1.4000000000000001,-3.9025000000000003,0.5948125,-0.24340625000000002,-0.33684375,0.59240625,0.5563750000000001,-0.65290625,-1.00021875,0.43959375,0.016610617662978375,0.02653476782078157,True
54895,29989,0,29990,4212.0,41371.0,45493.0,-0.005063,-0.001098,0.0011589999999999999,0.45500000000000007,-1.54,-3.9550000000000005,0.5918125,-0.24584375,-0.3355,0.59490625,0.5408125,-0.65540625,-0.9961875,0.4430625,0.016611468326546027,0.026431530808448286,True
54896,29990,0,29991,4213.0,41372.0,45498.0,-0.004941,-0.0011589999999999999,0.004209,0.5425000000000001,-1.4175000000000002,-3.7800000000000002,0.59303125,-0.2436875,-0.33696875,0.5924375000000001,0.54928125,-0.65321875,-0.99528125,0.44021875,0.01661167469257944,0.026337471197688565,True
54897,29991,0,29992,4212.0,41373.0,45497.0,-0.0011589999999999999,-0.0006709999999999999,0.0046359999999999995,0.385,-1.54,-3.7100000000000004,0.59440625,-0.2431875,-0.33537500000000003,0.605375,0.5553750000000001,-0.6535,-0.9964375,0.44565625000000003,0.016643174397144418,0.02644626859327454,True
54898,29992,0,29993,4211.0,41375.0,45497.0,0.0013419999999999999,-0.003172,0.000488,0.28,-1.6625,-3.7450000000000006,0.5885625,-0.24365625000000002,-0.33959375,0.58140625,0.5495,-0.6538437500000001,-0.99228125,0.429,0.016637872137078017,0.026115563180131862,True
54899,29993,0,29994,4211.0,41370.0,45498.0,0.002562,-0.003477,0.00061,0.07,-1.7325000000000002,-3.7975000000000003,0.5935625,-0.24828125,-0.33509375,0.60734375,0.54540625,-0.6570312500000001,-0.996125,0.44028125,0.016577421501219863,0.02644534902909951,True
54900,29994,0,29995,4211.0,41372.0,45497.0,-0.0059169999999999995,-0.0013419999999999999,-0.007991,0.5950000000000001,-1.6275000000000002,-3.6575,0.59203125,-0.24284375,-0.33540625,0.5855625,0.5522812500000001,-0.65265625,-0.998625,0.43993750000000004,0.01662346222833493,0.026530209161503882,True
54901,29995,0,29996,4210.0,41373.0,45497.0,-0.006893,0.002196,-0.003965,0.6300000000000001,-1.54,-3.6575,0.6062500000000001,-0.24178125,-0.3383125,0.5886250000000001,0.5553750000000001,-0.65371875,-1.0003125,0.4346875,0.01670893970103395,0.026479669004137445,True
54902,29996,0,29997,4210.0,41375.0,45498.0,-0.0023179999999999997,0.0035989999999999998,0.00183,0.6125,-1.8200000000000003,-3.6225000000000005,0.59921875,-0.23834375,-0.339375,0.58609375,0.5560625,-0.65328125,-0.9985,0.44125000000000003,0.01683092387549832,0.0263665819949197,True
54903,29997,0,29998,4209.0,41373.0,45498.0,0.0066489999999999995,0.002013,0.003904,0.49000000000000005,-2.1,-3.7800000000000002,0.60534375,-0.2414375,-0.33587500000000003,0.6065,0.55484375,-0.6531875,-0.9917812500000001,0.44040625,0.016701694253532125,0.0262448780036437,True
54904,29998,0,29999,4210.0,41370.0,45494.0,0.010003999999999999,0.002562,0.002806,0.36750000000000005,-2.31,-3.9375000000000004,0.58490625,-0.24725,-0.33709375,0.57475,0.54953125,-0.6531250000000001,-0.99565625,0.44078125,0.016463430092533912,0.026347077804768578,True
54905,29999,0,30000,4210.0,41369.0,45494.0,0.001037,0.000793,-0.000915,0.6125,-2.1700000000000004,-3.6575,0.59575,-0.2465,-0.33378125000000003,0.6071562500000001,0.55640625,-0.65315625,-0.99621875,0.44625000000000004,0.01649509887805948,0.02650150835313841,True
54906,30000,0,30001,4209.0,41368.0,45494.0,-0.002928,0.002623,-0.003355,0.7000000000000001,-1.9250000000000003,-3.5175000000000005,0.586375,-0.24378125,-0.33668750000000003,0.5864375000000001,0.55025,-0.65359375,-0.9976875000000001,0.4405625,0.016622830089426617,0.026442445926248177,True
54907,30001,0,30002,4207.0,41371.0,45494.0,-0.004209,0.002745,-0.0018909999999999999,0.5950000000000001,-1.7325000000000002,-3.5175000000000005,0.61046875,-0.24378125,-0.33428125000000003,0.60728125,0.556125,-0.65309375,-0.9965625,0.445125,0.01660288579399898,0.02649489304779407,True
54908,30002,0,30003,4208.0,41369.0,45494.0,0.000732,-0.0021349999999999997,0.000244,0.5075000000000001,-1.6450000000000002,-3.6925000000000003,0.5843125,-0.245,-0.3400625,0.58715625,0.5503750000000001,-0.6544375,-0.99821875,0.440875,0.016607050961921156,0.026328125878968878,True
54909,30003,0,30004,4207.0,41368.0,45494.0,0.0046359999999999995,-0.0051849999999999995,0.00122,0.17500000000000002,-1.7500000000000002,-3.6750000000000003,0.58478125,-0.24859375,-0.33503125,0.58096875,0.54090625,-0.65640625,-0.99621875,0.4388125,0.016539819139295694,0.026451500789494414,True
54910,30004,0,30005,4208.0,41366.0,45491.0,0.0023179999999999997,-0.001098,-0.0021349999999999997,0.43750000000000006,-1.5225000000000002,-3.6400000000000006,0.60653125,-0.24540625,-0.33321875,0.591875,0.55790625,-0.65321875,-0.996625,0.445375,0.016541957629771974,0.02653983287743845,True
54911,30005,0,30006,4206.0,41367.0,45491.0,-0.0011589999999999999,0.0026839999999999998,-0.001647,0.5425000000000001,-0.9800000000000001,-3.7625,0.593625,-0.24190625000000002,-0.33584375,0.5965625,0.55290625,-0.65346875,-0.997625,0.4455,0.016693898297780105,0.026473765007675728,True
54912,30006,0,30007,4206.0,41367.0,45492.0,-0.0070149999999999995,0.0028669999999999998,0.000976,0.43750000000000006,-0.4025,-3.9725000000000006,0.592625,-0.24359375,-0.33515625,0.59025,0.5493125,-0.65328125,-0.9995937500000001,0.4395625,0.016617970478067703,0.026577931891393236,True
54913,30007,0,30008,4208.0,41368.0,45496.0,-0.010797,0.000549,0.0026839999999999998,0.42000000000000004,-0.385,-3.7975000000000003,0.58809375,-0.24331250000000001,-0.3384375,0.5923437500000001,0.55846875,-0.65375,-0.999375,0.44025000000000003,0.01664807585052984,0.026438160954023848,True
54914,30008,0,30009,4207.0,41369.0,45498.0,-0.007686,0.000549,0.0034159999999999998,0.5425000000000001,-0.7175,-3.7100000000000004,0.59046875,-0.245375,-0.33796875,0.5923125,0.54925,-0.65659375,-0.9959375,0.438875,0.016677840993344833,0.026323027491967445,True
54915,30009,0,30010,4206.0,41370.0,45499.0,0.005307,0.000183,0.001647,0.29750000000000004,-1.8725000000000003,-3.8850000000000002,0.59784375,-0.2471875,-0.33553125,0.59390625,0.55696875,-0.6535,-0.9967812500000001,0.4463125,0.016480925629221002,0.026453405876006537,True
54916,30010,0,30011,4206.0,41367.0,45498.0,0.007259,-0.0015249999999999999,-0.0011589999999999999,0.29750000000000004,-2.0650000000000004,-3.8150000000000004,0.5989375,-0.2431875,-0.3359375,0.59878125,0.5508125,-0.6541250000000001,-0.99715625,0.446,0.016668103207881035,0.02645175888757346,True
54917,30011,0,30012,4209.0,41367.0,45495.0,0.0064659999999999995,-0.0018909999999999999,-0.0030499999999999998,0.2625,-2.0475000000000003,-3.6575,0.5951875,-0.24284375,-0.33875,0.597875,0.54996875,-0.6538437500000001,-0.9987812500000001,0.43575,0.016670828458544118,0.02640253712368478,True
54918,30012,0,30013,4207.0,41368.0,45499.0,0.003477,-0.001464,-0.003111,0.3325,-1.9775000000000003,-3.6400000000000006,0.58384375,-0.24553125,-0.3356875,0.59209375,0.54990625,-0.65571875,-0.99603125,0.43975000000000003,0.016636606872391425,0.02641794384858596,True
54919,30013,0,30014,4207.0,41367.0,45499.0,0.0018909999999999999,-0.0011589999999999999,-0.00183,0.49000000000000005,-1.6625,-3.6050000000000004,0.59684375,-0.244125,-0.334125,0.5918125,0.55103125,-0.65396875,-0.99721875,0.4401875,0.01662384479172344,0.026526701095496874,True
54920,30014,0,30015,4207.0,41366.0,45500.0,-0.00122,0.000183,-0.000183,0.43750000000000006,-0.9800000000000001,-3.7625,0.58734375,-0.246625,-0.3354375,0.59971875,0.54690625,-0.649,-0.9880625000000001,0.4465,0.01632419165077691,0.02611747109244664,True
54921,30015,0,30016,4206.0,41368.0,45502.0,-0.004148,-0.000183,0.001098,0.43750000000000006,-0.8400000000000001,-3.8675,0.5933125,-0.24390625000000002,-0.336375,0.592125,0.5503125,-0.65478125,-0.9988750000000001,0.44040625,0.016665124538470605,0.026501192553664916,True
54922,30016,0,30017,4209.0,41369.0,45501.0,-0.005246,0.000244,0.0034159999999999998,0.47250000000000003,-0.8750000000000001,-3.6925000000000003,0.5929375,-0.24331250000000001,-0.335,0.5993437500000001,0.5576875,-0.65275,-0.99846875,0.43478125,0.016608187727535466,0.02654037559800538,True
54923,30017,0,30018,4206.0,41369.0,45504.0,-0.0040869999999999995,0.0008539999999999999,0.0025009999999999998,0.45500000000000007,-1.1375000000000002,-3.6400000000000006,0.591125,-0.2469375,-0.33475,0.58128125,0.5504375,-0.6561875,-0.9964375,0.443875,0.016598267676217176,0.026471272156282272,True
54924,30018,0,30019,4207.0,41369.0,45503.0,0.000183,0.0013419999999999999,0.0006709999999999999,0.47250000000000003,-1.4175000000000002,-3.6225000000000005,0.5982500000000001,-0.2436875,-0.33587500000000003,0.59865625,0.55565625,-0.6531875,-0.99984375,0.44678125,0.01661042816471501,0.026558915993224956,True
54925,30019,0,30020,4208.0,41368.0,45502.0,0.001769,0.000915,-0.001647,0.49000000000000005,-1.8025000000000002,-3.7800000000000002,0.59271875,-0.24359375,-0.33646875,0.5953125,0.5505,-0.65034375,-0.9949687500000001,0.44075000000000003,0.016500784091499736,0.026345301992025897,True
54926,30020,0,30021,4208.0,41366.0,45503.0,0.001586,0.001586,-0.000793,0.5075000000000001,-1.6450000000000002,-3.8325000000000005,0.591,-0.242875,-0.3351875,0.59278125,0.549,-0.6515625,-0.99615625,0.444625,0.01657856373201496,0.02644281558289587,True
54927,30021,0,30022,4207.0,41367.0,45501.0,0.001769,0.000793,-0.000488,0.43750000000000006,-1.5225000000000002,-3.8500000000000005,0.5999375,-0.24321875,-0.33521875,0.59409375,0.55334375,-0.65346875,-0.99721875,0.44615625000000003,0.01664066035332249,0.02648294622776784,True
54928,30022,0,30023,4210.0,41366.0,45501.0,0.000549,-0.000732,-0.000549,0.3325,-1.5225000000000002,-3.8150000000000004,0.598625,-0.24281250000000001,-0.338,0.5961875,0.55065625,-0.65365625,-0.9991875,0.44065625,0.01666461744391362,0.026448359571686078,True
54929,30023,0,30024,4209.0,41366.0,45502.0,-0.000122,-0.000122,0.001037,0.385,-1.4525000000000001,-3.7100000000000004,0.5911875,-0.241875,-0.33025,0.592125,0.5365625,-0.6541250000000001,-0.996625,0.444125,0.016721339735237005,0.02665859891085296,True
54930,30024,0,30025,4209.0,41366.0,45503.0,-0.001952,-0.001403,-0.000793,0.35000000000000003,-1.4000000000000001,-3.7625,0.59690625,-0.2451875,-0.33484375,0.59403125,0.55421875,-0.6501875,-0.99484375,0.44759375,0.016429895310126952,0.026405446123262923,True
54931,30025,0,30026,4207.0,41368.0,45503.0,-0.002074,0.0013419999999999999,0.000366,0.3325,-1.3125000000000002,-3.7625,0.5952500000000001,-0.243,-0.33571875,0.59540625,0.55003125,-0.645875,-0.99740625,0.44671875,0.01634654886466802,0.026470246288052383,True
54932,30026,0,30027,4212.0,41369.0,45506.0,-0.000305,0.0006709999999999999,0.000488,0.29750000000000004,-1.3825,-3.6575,0.59409375,-0.24309375,-0.33709375,0.59675,0.5501875,-0.65296875,-0.9989687500000001,0.4279375,0.016625786701652313,0.026476092138800724,True
54933,30027,0,30028,4209.0,41366.0,45506.0,0.000183,-0.000244,-0.0008539999999999999,0.36750000000000005,-1.5050000000000001,-3.7975000000000003,0.59128125,-0.24359375,-0.33565625,0.5905625,0.5499375,-0.65553125,-0.99521875,0.44071875,0.016707711378151708,0.02638754661829075,True
54934,30028,0,30029,4210.0,41365.0,45504.0,0.0034159999999999998,0.0,0.002745,0.3325,-1.54,-3.7625,0.590875,-0.24525,-0.3334375,0.59275,0.5499375,-0.65459375,-0.99625,0.43290625,0.016603143176918096,0.026516477471620746,True
54935,30029,0,30030,4211.0,41366.0,45503.0,0.002989,-0.001647,-0.0015249999999999999,0.2625,-1.3650000000000002,-3.7975000000000003,0.58565625,-0.24453125,-0.3356875,0.59271875,0.5539375,-0.6535,-0.99740625,0.4431875,0.016588668951670146,0.026471496417753343,True
54936,30030,0,30031,4210.0,41367.0,45504.0,-0.0017079999999999999,0.000122,-0.001098,0.35000000000000003,-0.9975,-3.8850000000000002,0.5841875,-0.24540625,-0.3348125,0.5841875,0.55509375,-0.65321875,-0.99715625,0.44646875,0.016541957629771974,0.026496764006905787,True
54937,30031,0,30032,4211.0,41368.0,45505.0,-0.0035989999999999998,-0.0013419999999999999,-0.00061,0.36750000000000005,-1.0675000000000001,-3.7275000000000005,0.5942500000000001,-0.24406250000000002,-0.33540625,0.5951875,0.54971875,-0.653875,-1.0000625,0.43928125,0.01662264045712895,0.026586183534541168,True
54938,30032,0,30033,4211.0,41368.0,45506.0,-0.0026839999999999998,-0.00122,-0.000183,0.3325,-1.155,-3.6400000000000006,0.5910625,-0.2436875,-0.3380625,0.5809375,0.5499375,-0.65696875,-0.995625,0.43809375,0.01676123509707575,0.026307103743155053,True
54939,30033,0,30034,4210.0,41366.0,45504.0,0.001647,-0.000366,-6.1e-05,0.42000000000000004,-1.225,-3.7625,0.5966875,-0.24365625000000002,-0.33609375,0.5953125,0.55384375,-0.6528437500000001,-1.00134375,0.43634375000000003,0.01659798375187447,0.02660856978937382,True
54940,30034,0,30035,4212.0,41367.0,45504.0,0.000488,0.001281,-0.000366,0.5075000000000001,-1.5575,-3.8500000000000005,0.5915312500000001,-0.24340625000000002,-0.33584375,0.5925,0.55096875,-0.65196875,-0.99525,0.440125,0.016573219938062753,0.026381262439863575,True
54941,30035,0,30036,4213.0,41367.0,45509.0,-0.000488,0.001464,6.1e-05,0.42000000000000004,-1.3125000000000002,-3.7450000000000006,0.59178125,-0.24971875000000002,-0.3326875,0.5963437500000001,0.561625,-0.6528437500000001,-0.99446875,0.44696875,0.016352068916998676,0.02647710806015831,True
54942,30036,0,30037,4214.0,41368.0,45509.0,-0.000549,0.00183,0.000183,0.525,-1.2425000000000002,-3.7625,0.59759375,-0.23750000000000002,-0.3465625,0.57978125,0.54584375,-0.65234375,-1.000625,0.4368125,0.0168277610521312,0.026161845953851157,True
54943,30037,0,30038,4214.0,41369.0,45509.0,-0.0011589999999999999,0.0021349999999999997,0.001403,0.5075000000000001,-1.33,-3.7800000000000002,0.587875,-0.2555,-0.33059375,0.58465625,0.5470625,-0.65696875,-0.99321875,0.4391875,0.01628216160999109,0.02651219143192591,True
54944,30038,0,30039,4215.0,41368.0,45509.0,0.0013419999999999999,-0.000915,-0.000732,0.43750000000000006,-1.5050000000000001,-3.6750000000000003,0.59996875,-0.240125,-0.33778125000000003,0.610375,0.5569375,-0.6520312500000001,-1.0009375,0.45387500000000003,0.016708815830338525,0.02652525530292614,True
54945,30039,0,30040,4216.0,41368.0,45510.0,0.003294,-0.0008539999999999999,-0.0008539999999999999,0.22750000000000004,-1.715,-3.9375000000000004,0.57884375,-0.2439375,-0.342375,0.60021875,0.5446875,-0.653875,-1.00203125,0.4371875,0.016627710654004695,0.026384106291363823,True
54946,30040,0,30041,4216.0,41368.0,45511.0,0.0021349999999999997,-0.0013419999999999999,-0.000183,0.29750000000000004,-1.4875,-3.9025000000000003,0.5787187500000001,-0.24706250000000002,-0.3394375,0.5858125,0.54528125,-0.6600625,-0.9979375,0.43246875,0.016747727220885997,0.026342173229291423,True
54947,30041,0,30042,4217.0,41369.0,45510.0,-0.0008539999999999999,-0.000305,0.000244,0.35000000000000003,-1.1900000000000002,-3.7450000000000006,0.61240625,-0.24425,-0.33003125,0.58490625,0.56521875,-0.65078125,-0.994625,0.4426875,0.016491617278864133,0.0265894667353481,True
54948,30042,0,30043,4217.0,41370.0,45511.0,-0.002989,0.0006709999999999999,0.000244,0.35000000000000003,-1.0675000000000001,-3.6225000000000005,0.61209375,-0.24528125,-0.33096875000000003,0.59896875,0.564375,-0.6512187500000001,-0.9938125,0.45228125,0.016467238561987934,0.026520313777659968,True
54949,30043,0,30044,4217.0,41369.0,45510.0,-0.000183,0.00061,0.001037,0.22750000000000004,-1.2600000000000002,-3.7275000000000005,0.6066875,-0.2391875,-0.333125,0.61528125,0.5546875,-0.651375,-0.99525,0.45203125,0.016720669739517573,0.026490033106290195,True
54950,30044,0,30045,4217.0,41367.0,45511.0,0.003294,0.000793,0.000488,0.31500000000000006,-1.3475000000000001,-3.9200000000000004,0.60096875,-0.23965625000000002,-0.33525,0.61334375,0.54796875,-0.6521250000000001,-0.9968125,0.443875,0.016731569793679044,0.026465874398985872,True
54951,30045,0,30046,4217.0,41368.0,45512.0,0.00183,0.0006709999999999999,-0.000366,0.35000000000000003,-1.4000000000000001,-3.8325000000000005,0.58625,-0.23615625,-0.34046875,0.60240625,0.5444687500000001,-0.652625,-1.00009375,0.441125,0.016893484973709696,0.026384901056621037,True
54952,30046,0,30047,4218.0,41369.0,45512.0,0.001098,0.00061,-0.001464,0.31500000000000006,-1.3475000000000001,-3.8675,0.57925,-0.24771875000000002,-0.34375,0.5816250000000001,0.5485625000000001,-0.65759375,-0.9989375,0.4401875,0.016622668219602732,0.02620861386608931,True
54953,30047,0,30048,4219.0,41370.0,45516.0,-0.000976,0.000549,-0.001403,0.3325,-1.2425000000000002,-3.8325000000000005,0.5820625,-0.2505625,-0.3294375,0.5827187500000001,0.55034375,-0.64853125,-0.99571875,0.439,0.01614573890685677,0.026655814808285914,True
54954,30048,0,30049,4220.0,41370.0,45514.0,-0.001952,0.000122,0.001281,0.36750000000000005,-1.05,-3.7800000000000002,0.61184375,-0.244125,-0.33537500000000003,0.59325,0.55553125,-0.6534375,-0.99821875,0.44125000000000003,0.01660265429516675,0.0265156392392958,True
54955,30049,0,30050,4220.0,41368.0,45517.0,-0.0015249999999999999,-0.00042699999999999997,0.0018909999999999999,0.31500000000000006,-1.1725,-3.7975000000000003,0.58275,-0.2515625,-0.3324375,0.58528125,0.53853125,-0.65671875,-0.9963125,0.4403125,0.016431880255761932,0.02655891744032245,True
54956,30050,0,30051,4222.0,41369.0,45514.0,0.000122,-0.001769,0.000732,0.4025,-1.33,-3.7275000000000005,0.5952500000000001,-0.24140625000000002,-0.33321875,0.59015625,0.55571875,-0.65321875,-0.99690625,0.44265625000000003,0.01670420824866935,0.026550785659725393,True
54957,30051,0,30052,4222.0,41368.0,45516.0,-0.001037,-0.000549,-0.0018909999999999999,0.3325,-1.33,-3.6750000000000003,0.594375,-0.24403125,-0.337625,0.59796875,0.55034375,-0.65325,-0.99634375,0.44075000000000003,0.01659897782239664,0.026352604068344995,True
54958,30052,0,30053,4222.0,41368.0,45519.0,-0.000122,-0.00061,-0.000366,0.31500000000000006,-1.435,-3.5875000000000004,0.5916875,-0.24609375,-0.33715625,0.59303125,0.5525,-0.65046875,-0.9968750000000001,0.436375,0.016404353365491276,0.02639204900612577,True
54959,30053,0,30054,4224.0,41371.0,45517.0,0.004331,-0.00122,-0.002074,0.4025,-1.5750000000000002,-3.6750000000000003,0.59746875,-0.242875,-0.33584375,0.598375,0.556,-0.6525625,-0.99953125,0.44706250000000003,0.016618454978057556,0.02654799777495828,True
54960,30054,0,30055,4222.0,41371.0,45517.0,0.001769,0.00042699999999999997,-0.000915,0.43750000000000006,-1.4875,-3.7625,0.59221875,-0.243625,-0.338625,0.590375,0.54953125,-0.6524375,-0.9958125,0.44103125,0.016583045794153217,0.026291903893902232,True
54961,30055,0,30056,4224.0,41371.0,45517.0,-0.001098,0.00122,0.000976,0.6125,-1.3650000000000002,-3.5875000000000004,0.58990625,-0.2446875,-0.33478125000000003,0.59446875,0.5558125,-0.65278125,-0.99671875,0.44809375,0.016553659640329628,0.02648097562805118,True
54962,30056,0,30057,4224.0,41372.0,45521.0,-0.003843,0.00122,0.002013,0.525,-1.0150000000000001,-3.6400000000000006,0.59496875,-0.24009375,-0.33953125,0.5925312500000001,0.5475,-0.6546875,-0.9969375,0.43965625,0.0168160212941251,0.026299471685281444,True
54963,30057,0,30058,4225.0,41374.0,45523.0,-0.003965,0.00183,0.0023179999999999997,0.5075000000000001,-1.12,-3.6925000000000003,0.5913125,-0.24665625,-0.33453125,0.5974375000000001,0.5573750000000001,-0.65265625,-0.99609375,0.4436875,0.016468813578658488,0.026466635411783093,True
54964,30058,0,30059,4229.0,41375.0,45526.0,0.000549,0.000305,-0.000183,0.35000000000000003,-1.435,-3.7975000000000003,0.592625,-0.24428125,-0.3369375,0.5919375,0.5495625000000001,-0.6563125,-0.9986875000000001,0.44,0.016710984256060185,0.02647138974796177,True
54965,30059,0,30060,4227.0,41378.0,45524.0,0.00042699999999999997,-0.000793,0.000122,0.28,-1.5050000000000001,-3.8150000000000004,0.591875,-0.24690625,-0.33575,0.59578125,0.55321875,-0.64996875,-0.995375,0.4461875,0.016351440607810103,0.026389882128193716,True
54966,30060,0,30061,4228.0,41377.0,45524.0,0.000366,-0.003843,-0.000793,0.22750000000000004,-1.5925000000000002,-3.7800000000000002,0.5942500000000001,-0.24421875,-0.33765625,0.59215625,0.5489375,-0.6573125,-0.99546875,0.44,0.016753397192009467,0.02631727000518844,True
54967,30061,0,30062,4228.0,41377.0,45527.0,0.00042699999999999997,-0.004575,-0.002806,0.2625,-1.8025000000000002,-3.6750000000000003,0.59075,-0.23978125,-0.33490625,0.58634375,0.55646875,-0.65309375,-0.99703125,0.446125,0.01676513723556501,0.02648814546727424,True
54968,30062,0,30063,4231.0,41377.0,45524.0,0.001281,-0.002623,-0.002074,0.42000000000000004,-1.9600000000000002,-3.6050000000000004,0.597875,-0.241125,-0.3365625,0.59740625,0.54890625,-0.6535,-0.99665625,0.44046875,0.016726833918104932,0.02640728197396402,True
54969,30063,0,30064,4230.0,41376.0,45525.0,0.005673,0.001647,0.003172,0.47250000000000003,-1.9075000000000002,-3.6225000000000005,0.5911875,-0.24628125,-0.33546875,0.5973125,0.5463125,-0.6524375,-0.9993125,0.4408125,0.016475297828054528,0.02655448024820683,True
54970,30064,0,30065,4231.0,41377.0,45525.0,0.0040869999999999995,0.001586,0.0018909999999999999,0.31500000000000006,-1.4875,-3.6225000000000005,0.5911875,-0.2405,-0.3349375,0.58446875,0.557625,-0.65196875,-0.99646875,0.44728125,0.016691111130830067,0.02646498817958037,True
54971,30065,0,30066,4231.0,41376.0,45526.0,-0.001403,0.002257,-6.1e-05,0.385,-1.2600000000000002,-3.5700000000000003,0.5985625,-0.24231250000000001,-0.3364375,0.5985,0.549625,-0.65375,-0.9978125,0.4396875,0.01668863763119201,0.02645731501506382,True
54972,30066,0,30067,4233.0,41376.0,45527.0,-0.005246,0.003172,-0.003294,0.5075000000000001,-0.9100000000000001,-3.6050000000000004,0.5915,-0.24728125,-0.3343125,0.5945312500000001,0.55134375,-0.65640625,-0.9959375,0.44675000000000004,0.016593050741123314,0.026469301261454987,True
54973,30067,0,30068,4234.0,41378.0,45528.0,-0.006039,0.005307,-0.00366,0.5775,-0.9275000000000001,-3.6225000000000005,0.5981875,-0.2358125,-0.33515625,0.59309375,0.549875,-0.6567500000000001,-0.9955,0.4404375,0.017071897147839844,0.026418505330959574,True
54974,30068,0,30069,4235.0,41378.0,45530.0,0.000793,-0.0017079999999999999,0.00244,0.35000000000000003,-1.0850000000000002,-3.8675,0.60053125,-0.24253125,-0.33537500000000003,0.59846875,0.55525,-0.65290625,-0.99584375,0.44525000000000003,0.01664611043576252,0.026423142847498395,True
54975,30069,0,30070,4235.0,41377.0,45529.0,0.002013,-0.003965,0.004331,0.21000000000000002,-1.1375000000000002,-3.8500000000000005,0.5835312500000001,-0.244,-0.33846875,0.59296875,0.550125,-0.6545625,-0.997625,0.43290625,0.01665259726267704,0.026368755031728013,True
54976,30070,0,30071,4235.0,41374.0,45524.0,0.0013419999999999999,-0.003965,0.0028669999999999998,0.29750000000000004,-1.33,-3.7975000000000003,0.58959375,-0.2431875,-0.33590625,0.59965625,0.55396875,-0.6524375,-0.99765625,0.4395,0.016600792517981234,0.026472481795168302,True
54977,30071,0,30072,4236.0,41374.0,45521.0,-0.002257,-0.003904,0.0006709999999999999,0.28,-1.4175000000000002,-3.6925000000000003,0.5920625,-0.24509375,-0.33821875,0.5920625,0.5501875,-0.65528125,-0.9957812500000001,0.4401875,0.016636902083605312,0.026306939296006204,True
54978,30072,0,30073,4235.0,41372.0,45518.0,-0.002745,-0.003294,-0.001952,0.10500000000000001,-1.4000000000000001,-3.7275000000000005,0.59865625,-0.24331250000000001,-0.33537500000000003,0.59978125,0.5558125,-0.65334375,-0.99915625,0.4443125,0.016631871690833012,0.026552146134932054,True
54979,30073,0,30074,4235.0,41371.0,45514.0,0.002196,0.00042699999999999997,-0.002745,0.385,-1.8025000000000002,-3.7975000000000003,0.59146875,-0.244125,-0.3355,0.59221875,0.5503125,-0.6479375,-0.98865625,0.443625,0.016383216648451823,0.026138110167488498,True
54980,30074,0,30075,4235.0,41372.0,45508.0,0.003294,0.000793,-0.0017079999999999999,0.24500000000000002,-1.8725000000000003,-3.8850000000000002,0.59884375,-0.24290625000000002,-0.33784375,0.5935,0.5516875,-0.64590625,-0.9996875000000001,0.44025000000000003,0.016351599974133636,0.026474080926011577,True
54981,30075,0,30076,4236.0,41368.0,45509.0,0.003477,0.0008539999999999999,6.1e-05,0.22750000000000004,-1.8200000000000003,-3.8850000000000002,0.591125,-0.24615625,-0.33546875,0.5974375000000001,0.5556875,-0.65346875,-1.00084375,0.4383125,0.016521508763345932,0.026614101774065126,True
54982,30076,0,30077,4237.0,41369.0,45507.0,0.002196,0.001098,0.001586,0.4025,-1.6450000000000002,-3.8675,0.59184375,-0.24406250000000002,-0.33587500000000003,0.59190625,0.5515625000000001,-0.6578125,-0.9961875,0.4438125,0.016779671757176352,0.026416528520599388,True
54983,30077,0,30078,4233.0,41370.0,45504.0,-0.002562,0.00244,0.002623,0.5075000000000001,-1.4000000000000001,-3.7625,0.5903125,-0.246625,-0.334625,0.59240625,0.56484375,-0.65140625,-0.9978125,0.4434375,0.016420209293333925,0.026529821359368946,True
54984,30078,0,30079,4235.0,41369.0,45505.0,-0.002928,0.00122,-0.000305,0.45500000000000007,-1.3825,-3.7625,0.5979375,-0.24634375,-0.334625,0.59228125,0.53221875,-0.65134375,-0.9988125,0.455125,0.01642912468006942,0.026568762016195766,True
54985,30079,0,30080,4233.0,41370.0,45506.0,-0.004514,0.0017079999999999999,-0.002745,0.5075000000000001,-1.6625,-3.7975000000000003,0.5965625,-0.24331250000000001,-0.33203125,0.59390625,0.543625,-0.65209375,-1.00290625,0.4426875,0.01658200938814781,0.026831880793857718,True
54986,30080,0,30081,4234.0,41372.0,45504.0,-0.000305,0.001647,0.001281,0.5075000000000001,-1.6275000000000002,-3.8500000000000005,0.59896875,-0.24378125,-0.33596875,0.59696875,0.5436562500000001,-0.6550625,-1.00025,0.43675,0.016681411779021042,0.026570984290157102,True
54987,30081,0,30082,4233.0,41370.0,45504.0,0.004331,0.000976,-0.00042699999999999997,0.36750000000000005,-1.8725000000000003,-3.8500000000000005,0.59753125,-0.24296875,-0.33553125,0.59946875,0.5426562500000001,-0.65878125,-0.99328125,0.434625,0.016862654150841292,0.0263170727132917,True
54988,30082,0,30083,4232.0,41369.0,45503.0,0.00671,-0.00122,-0.001464,0.24500000000000002,-2.0300000000000002,-3.9375000000000004,0.58925,-0.24315625000000002,-0.33587500000000003,0.590375,0.55265625,-0.64990625,-0.99875,0.4358125,0.016501076956428586,0.026516325816290813,True
54989,30083,0,30084,4233.0,41367.0,45501.0,0.0017079999999999999,-0.002013,-0.002379,0.29750000000000004,-1.5575,-3.9200000000000004,0.59696875,-0.244375,-0.3370625,0.60009375,0.54278125,-0.66171875,-0.9954375,0.4338125,0.0169227357683657,0.026339807014780194,True
54990,30084,0,30085,4231.0,41369.0,45502.0,-0.001098,-0.001098,-0.0006709999999999999,0.3325,-1.4175000000000002,-3.8500000000000005,0.589125,-0.23896875,-0.33175,0.60046875,0.54784375,-0.6606875,-0.99625,0.4340625,0.01710085130432799,0.02658398759813972,True
54991,30085,0,30086,4232.0,41369.0,45500.0,-0.002562,0.000366,0.0018909999999999999,0.2625,-1.155,-3.8675,0.59321875,-0.24334375,-0.3393125,0.59490625,0.53571875,-0.6615625,-0.997,0.43703125,0.016958323301696724,0.026310657278873464,True
54992,30086,0,30087,4233.0,41367.0,45500.0,-0.003843,-0.00122,0.003355,0.28,-1.12,-3.9550000000000005,0.59128125,-0.2464375,-0.3368125,0.593,0.5690625,-0.65140625,-0.9912500000000001,0.44725000000000004,0.016427815350290614,0.026186665332866503,True
54993,30087,0,30088,4231.0,41366.0,45500.0,-0.003355,-0.0032329999999999998,0.001952,0.1925,-1.2600000000000002,-3.9025000000000003,0.5989375,-0.24681250000000002,-0.335625,0.5915312500000001,0.5565,-0.65125,-0.99803125,0.449125,0.016406368845393236,0.026498336744018594,True
54994,30088,0,30089,4231.0,41369.0,45503.0,6.1e-05,-0.000244,-0.001647,0.4025,-1.4000000000000001,-4.025,0.59753125,-0.24281250000000001,-0.3359375,0.598,0.54340625,-0.65340625,-0.9998125,0.439,0.016654645846352366,0.02655519916399373,True
54995,30089,0,30090,4232.0,41368.0,45500.0,0.001586,0.002928,0.000305,0.31500000000000006,-1.4875,-4.077500000000001,0.594625,-0.24425,-0.33759375,0.59753125,0.5427500000000001,-0.6567500000000001,-0.99403125,0.435,0.01672969876403014,0.026263770475200957,True
54996,30090,0,30091,4230.0,41369.0,45502.0,0.000915,0.0011589999999999999,-0.000549,0.24500000000000002,-1.4175000000000002,-4.0075,0.5918125,-0.24484375,-0.3365625,0.59059375,0.5514687500000001,-0.65521875,-0.99346875,0.44096875,0.016644549138303627,0.026283116464176266,True
54997,30091,0,30092,4230.0,41367.0,45501.0,-6.1e-05,0.000793,-0.001769,0.14,-1.54,-4.025,0.5913437500000001,-0.24359375,-0.33765625,0.5971875,0.5508125,-0.65715625,-0.9968125,0.44040625,0.01677251406475554,0.026369612125546005,True
54998,30092,0,30093,4230.0,41372.0,45501.0,-0.0017079999999999999,0.0,-0.0008539999999999999,0.2625,-1.715,-4.0600000000000005,0.5908125,-0.24396875,-0.33825,0.59,0.5494687500000001,-0.654375,-0.99221875,0.4404375,0.01664638629046569,0.026166894445896285,True
54999,30093,0,30094,4230.0,41368.0,45503.0,0.0015249999999999999,0.0013419999999999999,0.00183,0.42000000000000004,-1.6975000000000002,-3.9200000000000004,0.5915625,-0.245625,-0.3369375,0.5855312500000001,0.5543750000000001,-0.65553125,-0.9935,0.43943750000000004,0.01662532621356516,0.02626933002580671,True
55000,30094,0,30095,4231.0,41370.0,45504.0,0.002989,0.00122,0.000915,0.3325,-1.715,-4.025,0.59215625,-0.2459375,-0.3348125,0.59196875,0.5541875,-0.65496875,-0.99628125,0.44471875,0.016590215714631557,0.026462686324590787,True
55001,30095,0,30096,4231.0,41370.0,45503.0,0.0018909999999999999,0.000915,-0.001281,0.35000000000000003,-1.8200000000000003,-3.99,0.595375,-0.2426875,-0.33134375,0.59659375,0.55578125,-0.6533125,-0.999625,0.44478125,0.01665597675768723,0.026731650974764615,True
55002,30096,0,30097,4231.0,41371.0,45506.0,-6.1e-05,0.000122,-0.00183,0.43750000000000006,-1.8725000000000003,-3.8150000000000004,0.5946875,-0.24378125,-0.33703125,0.59165625,0.55021875,-0.6535625,-0.99884375,0.43984375000000003,0.016621583594663047,0.026473724409753954,True
55003,30097,0,30098,4231.0,41369.0,45505.0,0.002074,0.0006709999999999999,0.000183,0.35000000000000003,-1.7500000000000002,-3.7800000000000002,0.59178125,-0.24456250000000002,-0.3350625,0.5964375000000001,0.55646875,-0.65321875,-0.9865625,0.44578125,0.016576182369695637,0.02607401478294583,True
55004,30098,0,30099,4230.0,41370.0,45505.0,0.0017079999999999999,-0.0006709999999999999,0.001403,0.3325,-1.5575,-3.8325000000000005,0.592,-0.2436875,-0.3368125,0.5925625,0.5506875,-0.6565625,-0.99528125,0.44071875,0.01674503491717469,0.026343722377598768,True
55005,30099,0,30100,4230.0,41370.0,45506.0,6.1e-05,-0.0015249999999999999,0.0025009999999999998,0.35000000000000003,-1.5925000000000002,-3.8850000000000002,0.59503125,-0.24365625000000002,-0.335,0.5973125,0.55221875,-0.65278125,-0.9959375,0.445375,0.016595490620353433,0.026441796791978694,True
55006,30100,0,30101,4231.0,41367.0,45504.0,-0.0023179999999999997,-0.002928,0.002074,0.36750000000000005,-1.4875,-3.7625,0.59671875,-0.243375,-0.33640625,0.59021875,0.54996875,-0.65390625,-0.99746875,0.43493750000000003,0.016651772982222646,0.02644517757422939,True
55007,30101,0,30102,4231.0,41369.0,45508.0,-0.0017079999999999999,-0.002623,0.001464,0.4025,-1.2775,-3.7275000000000005,0.59171875,-0.24915625,-0.33237500000000003,0.6051875,0.54553125,-0.65471875,-0.9957812500000001,0.4459375,0.016449690791950324,0.02654072874797622,True
55008,30102,0,30103,4233.0,41370.0,45510.0,-0.0018909999999999999,-0.00122,-0.002074,0.28,-1.225,-3.8325000000000005,0.59109375,-0.245875,-0.33428125000000003,0.59771875,0.54640625,-0.6534375,-0.99553125,0.44159375,0.016531670279246048,0.026454728782769915,True
55009,30103,0,30104,4230.0,41371.0,45507.0,-0.000183,-0.001464,-0.00183,0.3325,-1.4175000000000002,-3.7800000000000002,0.59378125,-0.24184375,-0.33625,0.5886250000000001,0.548125,-0.6533125,-0.99940625,0.43546875,0.016690201367463294,0.02652688001340032,True
55010,30104,0,30105,4233.0,41366.0,45508.0,0.000488,0.000488,-0.001769,0.4025,-1.4175000000000002,-3.7275000000000005,0.5965,-0.24228125,-0.3393125,0.58996875,0.55871875,-0.653375,-0.99790625,0.44125000000000003,0.016674948156185514,0.026345956473854685,True
55011,30105,0,30106,4233.0,41370.0,45507.0,0.0011589999999999999,0.001464,0.000488,0.4025,-1.33,-3.7450000000000006,0.5904375000000001,-0.246,-0.33525,0.6013437500000001,0.55621875,-0.6531875,-0.9970625000000001,0.439625,0.016516626906764087,0.02647561088427891,True
55012,30106,0,30107,4233.0,41370.0,45508.0,0.001586,0.00244,0.0013419999999999999,0.42000000000000004,-1.3825,-3.8850000000000002,0.58725,-0.24875,-0.3335,0.60209375,0.55003125,-0.6543125,-0.9960625000000001,0.4454375,0.01644996184744555,0.026506674801281202,True
55013,30107,0,30108,4234.0,41369.0,45507.0,-0.0026839999999999998,0.0018909999999999999,0.000732,0.5425000000000001,-1.4875,-3.9025000000000003,0.58775,-0.2436875,-0.341125,0.58821875,0.544625,-0.6568437500000001,-0.99590625,0.43921875,0.016756250483194957,0.02619553951959633,True
55014,30108,0,30109,4234.0,41370.0,45509.0,-0.002928,0.003965,0.002074,0.6300000000000001,-1.4700000000000002,-3.7275000000000005,0.5960625,-0.2471875,-0.33225,0.60378125,0.5561875000000001,-0.65325,-0.995625,0.44428125,0.016470952105706146,0.02653964443777661,True
55015,30109,0,30110,4232.0,41370.0,45511.0,-0.00244,0.00183,0.0023179999999999997,0.6300000000000001,-1.435,-3.6050000000000004,0.58765625,-0.2465,-0.33753125,0.58878125,0.5495,-0.6548437500000001,-0.9957812500000001,0.439875,0.01656241483988314,0.026334443937414437,True
55016,30110,0,30111,4232.0,41370.0,45513.0,0.000549,0.0013419999999999999,0.001403,0.6475000000000001,-1.6800000000000002,-3.5525,0.60075,-0.24728125,-0.33359375,0.6035,0.5554375,-0.6526875,-0.99559375,0.44459375,0.0164447081073818,0.02648466792272138,True
55017,30111,0,30112,4233.0,41371.0,45513.0,0.0030499999999999998,-0.000122,-0.000244,0.43750000000000006,-1.9425000000000001,-3.7800000000000002,0.58378125,-0.24453125,-0.33934375,0.5885312500000001,0.55053125,-0.65428125,-0.9948125,0.43940625,0.01661983149478349,0.02622419151974035,True
55018,30112,0,30113,4231.0,41372.0,45512.0,0.003172,-0.0023179999999999997,-0.0018909999999999999,0.21000000000000002,-1.995,-3.8500000000000005,0.60434375,-0.24140625000000002,-0.3370625,0.59821875,0.55521875,-0.6530312500000001,-0.99771875,0.44015625,0.016696729737849175,0.0264286616153724,True
55019,30113,0,30114,4233.0,41368.0,45513.0,0.0026839999999999998,-0.000976,-0.00183,0.1925,-1.715,-3.8500000000000005,0.5877187500000001,-0.24515625,-0.3344375,0.59,0.5500625,-0.653375,-0.99653125,0.44140625,0.016558331262960958,0.026487425130236816,True
55020,30114,0,30115,4234.0,41370.0,45513.0,6.1e-05,-0.0011589999999999999,-0.000244,0.22750000000000004,-1.4000000000000001,-3.9025000000000003,0.5875312500000001,-0.2445,-0.3294375,0.60090625,0.55003125,-0.65378125,-0.99521875,0.44309375,0.01660115524875114,0.02663634420082841,True
55021,30115,0,30116,4234.0,41370.0,45515.0,-0.002257,-0.00244,0.00061,0.24500000000000002,-1.2600000000000002,-3.8150000000000004,0.58971875,-0.24296875,-0.33465625,0.59084375,0.55025,-0.65425,-0.9976875000000001,0.43975000000000003,0.016681961527931288,0.02652370344256844,True
55022,30116,0,30117,4233.0,41371.0,45516.0,-0.0037819999999999998,-0.0015249999999999999,0.001403,0.2625,-1.4000000000000001,-3.7975000000000003,0.59278125,-0.24456250000000002,-0.33278125000000003,0.590875,0.554875,-0.652875,-0.99590625,0.44578125,0.01656246989448492,0.02652934418010949,True
55023,30117,0,30118,4235.0,41371.0,45513.0,0.001037,-0.001098,-0.000183,0.24500000000000002,-1.715,-3.8850000000000002,0.59128125,-0.24375,-0.33690625,0.59128125,0.5509375,-0.6565625,-0.9963125,0.44025000000000003,0.01674250009505583,0.026380141070807946,True
55024,30118,0,30119,4233.0,41371.0,45516.0,0.000976,0.000183,-0.000793,0.15750000000000003,-1.6275000000000002,-3.9200000000000004,0.59709375,-0.24203125,-0.3383125,0.592,0.55675,-0.65325,-0.998375,0.44065625,0.016680103029012402,0.026404216274057816,True
55025,30119,0,30120,4236.0,41373.0,45518.0,0.00042699999999999997,0.000305,6.1e-05,0.3325,-1.5925000000000002,-3.9025000000000003,0.598375,-0.24321875,-0.33775,0.584375,0.5608125,-0.653,-0.9958750000000001,0.4566875,0.01662196284427859,0.0263293443418164,True
55026,30120,0,30121,4235.0,41373.0,45520.0,-0.000244,0.001098,-0.000793,0.45500000000000007,-1.7325000000000002,-3.8150000000000004,0.59740625,-0.24306250000000001,-0.3305625,0.589875,0.53803125,-0.66403125,-0.99290625,0.43425,0.01706812425482959,0.026501269735287387,True
55027,30121,0,30122,4235.0,41371.0,45518.0,0.000183,0.00122,-0.000366,0.42000000000000004,-1.7500000000000002,-3.7450000000000006,0.59190625,-0.24084375,-0.3354375,0.59990625,0.56384375,-0.65146875,-0.9951562500000001,0.43093750000000003,0.01665722250322306,0.02639386381111341,True
55028,30122,0,30123,4236.0,41372.0,45517.0,-0.000244,0.002257,0.001586,0.525,-1.7675,-3.9375000000000004,0.58778125,-0.24634375,-0.33528125000000003,0.593875,0.57321875,-0.6492187500000001,-0.9977812500000001,0.44153125,0.01634433139995563,0.026502352083747436,True
55029,30123,0,30124,4235.0,41373.0,45521.0,-0.0006709999999999999,0.000549,0.0015249999999999999,0.43750000000000006,-1.8025000000000002,-3.8500000000000005,0.60065625,-0.2426875,-0.33521875,0.598375,0.537875,-0.65428125,-1.0014375,0.43115625,0.016694615666396684,0.02664721778497736,True
55030,30124,0,30125,4236.0,41371.0,45519.0,0.000183,-0.0006709999999999999,0.0017079999999999999,0.4025,-1.7675,-3.7975000000000003,0.5975,-0.2426875,-0.33515625,0.6001875,0.53990625,-0.6645,-0.9963125,0.429,0.017102008960246506,0.026450151397331114,True
55031,30125,0,30126,4236.0,41374.0,45522.0,0.0015249999999999999,-0.000488,0.000488,0.42000000000000004,-1.8200000000000003,-3.8675,0.59190625,-0.23878125,-0.337625,0.5846250000000001,0.5651875000000001,-0.65640625,-0.99046875,0.4624375,0.016937788733911698,0.026123709664309516,True
55032,30126,0,30127,4238.0,41374.0,45523.0,0.002379,-0.000793,-0.002745,0.4025,-1.995,-3.7975000000000003,0.59559375,-0.24625,-0.32834375,0.592,0.55771875,-0.6415625,-0.9988125,0.45340625,0.016042509479664697,0.026820023951137677,True
55033,30127,0,30128,4238.0,41373.0,45524.0,0.002562,0.000366,-0.001464,0.385,-1.8025000000000002,-3.8675,0.59928125,-0.24259375,-0.33484375,0.5978125,0.53734375,-0.65471875,-0.999,0.43565625,0.016715867018357287,0.026567312692507703,True
55034,30128,0,30129,4238.0,41373.0,45523.0,-0.001952,0.001952,-0.000366,0.31500000000000006,-1.5050000000000001,-3.8675,0.59165625,-0.24403125,-0.33765625,0.59259375,0.5449375,-0.662625,-0.98303125,0.44153125,0.016972797907765295,0.025832533832338703,True
55035,30129,0,30130,4240.0,41373.0,45524.0,-0.00366,0.000976,0.000915,0.31500000000000006,-1.2950000000000002,-3.8675,0.592625,-0.245,-0.33490625,0.5983437500000001,0.56315625,-0.6494375,-1.008,0.4328125,0.016407575223572547,0.026915137156110047,True
55036,30130,0,30131,4238.0,41377.0,45525.0,-0.0053679999999999995,-0.001037,0.002257,0.385,-1.3650000000000002,-3.9550000000000005,0.58740625,-0.24328125,-0.3290625,0.5984375000000001,0.5406562500000001,-0.6585625,-1.00384375,0.4390625,0.016841259501643703,0.026987100733262256,True
55037,30131,0,30132,4239.0,41377.0,45532.0,-0.002196,-0.0021349999999999997,0.0017079999999999999,0.35000000000000003,-1.54,-4.0075,0.59709375,-0.243375,-0.3359375,0.59859375,0.5338437500000001,-0.65346875,-0.99990625,0.43990625,0.016634322502791822,0.026558849595685986,True
55038,30132,0,30133,4240.0,41375.0,45531.0,0.00122,-0.000549,-0.0015249999999999999,0.28,-1.8200000000000003,-3.99,0.599875,-0.24331250000000001,-0.33609375,0.5979375,0.5378125,-0.6533125,-1.000875,0.42978125,0.01663062519489014,0.026590319338823137,True
55039,30133,0,30134,4239.0,41374.0,45531.0,0.002196,-0.00042699999999999997,-0.002196,0.36750000000000005,-2.0125,-3.99,0.5911875,-0.24596875,-0.33521875,0.58384375,0.55234375,-0.6568125,-0.9914375,0.4455,0.016662484252577252,0.026257743277072396,True
55040,30134,0,30135,4241.0,41375.0,45530.0,0.0021349999999999997,-0.000183,-0.000976,0.4025,-1.9775000000000003,-3.7800000000000002,0.6005,-0.2434375,-0.3354375,0.5975625,0.54596875,-0.652375,-0.9984375,0.44140625,0.016588158341741925,0.026521657603600226,True
55041,30135,0,30136,4241.0,41375.0,45533.0,0.002257,-0.000488,0.000305,0.43750000000000006,-1.995,-3.7625,0.59121875,-0.24346875,-0.3369375,0.592375,0.55075,-0.6536875,-0.9984375,0.43984375000000003,0.01663924514334823,0.026461653853365835,True
55042,30136,0,30137,4243.0,41374.0,45531.0,0.002745,-0.000549,-0.00061,0.36750000000000005,-2.1700000000000004,-3.8325000000000005,0.59246875,-0.24281250000000001,-0.3349375,0.594,0.5562812500000001,-0.65221875,-0.996,0.44706250000000003,0.016607277996022164,0.026446731477036328,True
55043,30137,0,30138,4243.0,41376.0,45533.0,0.001586,0.000183,-0.000244,0.35000000000000003,-1.7675,-3.9025000000000003,0.59671875,-0.2435,-0.335125,0.5959375,0.55353125,-0.6528437500000001,-0.9955,0.44556250000000003,0.01660432176308261,0.026419755556000082,True
55044,30138,0,30139,4244.0,41376.0,45532.0,-0.000122,-0.000488,-0.000122,0.45500000000000007,-1.4700000000000002,-3.9025000000000003,0.59590625,-0.24315625000000002,-0.337375,0.59259375,0.5501875,-0.65409375,-0.9975,0.4405,0.016668124335334777,0.026407640764076413,True
55045,30139,0,30140,4245.0,41378.0,45532.0,-0.00244,0.000488,0.0013419999999999999,0.5075000000000001,-1.2075,-3.8150000000000004,0.591875,-0.246375,-0.33475,0.59221875,0.549875,-0.64890625,-0.9949687500000001,0.44090625,0.01633059276210278,0.02641406583074844,True
55046,30140,0,30141,4245.0,41375.0,45535.0,-0.0040869999999999995,0.000793,0.00122,0.43750000000000006,-1.0850000000000002,-3.9375000000000004,0.59821875,-0.24575,-0.33384375,0.59475,0.55953125,-0.652625,-0.99534375,0.446,0.016504327632452933,0.026464929093043578,True
55047,30141,0,30142,4245.0,41377.0,45535.0,-0.005063,0.00183,0.000793,0.42000000000000004,-1.2775,-3.9725000000000006,0.59646875,-0.24296875,-0.33309375,0.59653125,0.5505625000000001,-0.65290625,-0.9981875,0.44090625,0.01662836404937045,0.026605678911721102,True
55048,30142,0,30143,4247.0,41380.0,45537.0,-0.000732,-0.000122,-0.00061,0.28,-1.6450000000000002,-3.8500000000000005,0.592375,-0.24281250000000001,-0.33478125000000003,0.5971875,0.55103125,-0.65325,-0.997125,0.445625,0.01664841349517812,0.026496797131670143,True
55049,30143,0,30144,4246.0,41379.0,45540.0,0.0025009999999999998,-0.001464,-0.000549,0.28,-1.8025000000000002,-3.7975000000000003,0.598625,-0.24325,-0.3320625,0.5943437500000001,0.55009375,-0.64540625,-0.99675,0.44590625,0.016317696122375748,0.026590956824387176,True
55050,30144,0,30145,4248.0,41377.0,45540.0,0.002745,0.000976,-0.0015249999999999999,0.1925,-1.9075000000000002,-3.9375000000000004,0.5992500000000001,-0.243375,-0.33528125000000003,0.6025625,0.55359375,-0.6530625,-0.99575,0.44596875,0.01661811793159572,0.026423241951131687,True
55051,30145,0,30146,4247.0,41376.0,45539.0,0.002928,0.000366,-0.000793,0.21000000000000002,-2.0475000000000003,-3.9375000000000004,0.59246875,-0.24396875,-0.339375,0.5904375000000001,0.5499375,-0.6535625,-0.9966875000000001,0.4360625,0.016613978202947344,0.026295984217908876,True
55052,30146,0,30147,4246.0,41379.0,45539.0,0.001403,-0.000488,-0.00042699999999999997,0.29750000000000004,-1.7850000000000001,-3.9550000000000005,0.5881875,-0.250625,-0.3356875,0.58890625,0.55,-0.65509375,-0.995125,0.4370625,0.016405078565154517,0.02638264461570006,True
55053,30147,0,30148,4247.0,41378.0,45539.0,0.000976,0.000305,0.000244,0.2625,-1.6625,-4.0600000000000005,0.587125,-0.24671875000000001,-0.33487500000000003,0.58725,0.5505,-0.6570625,-0.9905625,0.44009375,0.01664203714453009,0.026237404620244143,True
55054,30148,0,30149,4248.0,41377.0,45540.0,-0.000488,0.00042699999999999997,-0.000305,0.31500000000000006,-1.5050000000000001,-4.0075,0.5903437500000001,-0.246125,-0.338625,0.58709375,0.5552812500000001,-0.65575,-0.99703125,0.44025000000000003,0.01661377163541973,0.026339377801113888,True
55055,30149,0,30150,4248.0,41378.0,45543.0,-0.0026839999999999998,0.0011589999999999999,0.000549,0.35000000000000003,-1.3825,-3.9725000000000006,0.58534375,-0.2495625,-0.33178125,0.58590625,0.5490625,-0.65221875,-0.9933125,0.4396875,0.01633346897021186,0.026468330278349456,True
55056,30150,0,30151,4251.0,41377.0,45543.0,-0.0035989999999999998,-0.000122,0.0006709999999999999,0.3325,-1.5225000000000002,-3.99,0.607,-0.241625,-0.33725,0.5905312500000001,0.55409375,-0.65271875,-0.99809375,0.44228125,0.016675392039671083,0.026435765727136695,True
55057,30151,0,30152,4249.0,41377.0,45544.0,-0.000976,-0.000244,0.001281,0.42000000000000004,-1.54,-3.9725000000000006,0.59328125,-0.24765625,-0.3333125,0.60346875,0.55,-0.65390625,-0.99475,0.44471875,0.01647811895934341,0.026463057242020825,True
