frame_seq,absolute_seq_u64,segment_id,sample_seq,PPG_G,PPG_R,PPG_IR,ACC_X,ACC_Y,ACC_Z,GYRO_X,GYRO_Y,GYRO_Z,Uh1,Uh2,Uh3,Uh4,Uc1,Uc2,Uc3,Uc4,UD1,UD2,parser_valid
558,223730,1,223655,3410.0,38465.0,45260.0,-6.1e-05,-0.002562,-0.001586,-0.15750000000000003,-1.8900000000000001,-3.7625,0.849375,-0.1073125,-0.22062500000000002,1.06215625,0.8043750000000001,-0.531375,-1.11121875,1.01725,0.017286536119561175,0.035465970762570014,True
559,223731,1,223656,3411.0,38466.0,45261.0,0.003904,0.002745,0.0026839999999999998,0.17500000000000002,-1.8900000000000001,-3.6575,0.84875,-0.10665625000000001,-0.217625,1.0685625,0.79940625,-0.5348437500000001,-1.109125,1.00953125,0.017452220375359026,0.03550502058514584,True
560,223732,1,223657,3411.0,38465.0,45264.0,-0.0015249999999999999,0.005429,0.000915,0.052500000000000005,-2.0125,-3.9025000000000003,0.8493125,-0.11156250000000001,-0.21621875000000002,1.0678125,0.8049375,-0.532625,-1.1113125,1.0101875,0.017163369186950033,0.03564504045736359,True
561,223733,1,223658,3411.0,38465.0,45265.0,-0.000122,-0.001403,0.0011589999999999999,-0.17500000000000002,-2.0475000000000003,-3.6925000000000003,0.84971875,-0.11121875,-0.21709375,1.0701875,0.79878125,-0.531875,-1.111625,1.00984375,0.017147333825889784,0.03562219689088222,True
562,223734,1,223659,3410.0,38466.0,45268.0,0.002257,-0.002196,0.000915,-0.14,-1.7675,-3.3950000000000005,0.8485312500000001,-0.11059375,-0.21390625,1.0695937500000001,0.80478125,-0.52778125,-1.10971875,1.01025,0.017008774489131583,0.03567592727417547,True
563,223735,1,223660,3410.0,38468.0,45267.0,0.000488,0.00122,-0.001647,-0.0175,-1.7675,-3.5875000000000004,0.83896875,-0.11071875,-0.2186875,1.06346875,0.79828125,-0.5310625,-1.1099375,1.0100625,0.01713516281653108,0.0354939155065599,True
564,223736,1,223661,3409.0,38464.0,45268.0,0.001647,0.001464,0.0006709999999999999,0.24500000000000002,-1.2950000000000002,-3.3425000000000002,0.8505312500000001,-0.10659375,-0.217875,1.0680625,0.7934375,-0.5335625,-1.1081875,1.0153125,0.017403454960933623,0.03545905095698366,True
565,223737,1,223662,3411.0,38465.0,45271.0,0.002013,0.001281,0.0021349999999999997,0.22750000000000004,-1.2950000000000002,-3.2025,0.8492500000000001,-0.10871875,-0.2170625,1.0623125,0.80103125,-0.5310312500000001,-1.11153125,1.01034375,0.01721544013768276,0.03561984098440832,True
566,223738,1,223663,3410.0,38467.0,45274.0,-0.002196,-0.002379,-0.001586,0.07,-1.4525000000000001,-3.22,0.855,-0.10734375,-0.21840625,1.0584375,0.8026562500000001,-0.53415625,-1.10803125,1.0155,0.017396665108464857,0.0354318899455727,True
567,223739,1,223664,3412.0,38466.0,45276.0,-0.00366,-0.0037819999999999998,-0.001952,0.1925,-1.3825,-3.325,0.85628125,-0.1079375,-0.22015625,1.06321875,0.7995,-0.533875,-1.10853125,1.015375,0.017361199565906323,0.03538140049510064,True
568,223740,1,223665,3410.0,38467.0,45275.0,-0.003172,-0.0032329999999999998,0.001647,0.31500000000000006,-1.2600000000000002,-3.5700000000000003,0.855375,-0.10678125000000001,-0.21771875000000002,1.06815625,0.79984375,-0.53071875,-1.10753125,1.001875,0.01728190292019063,0.03544006342718383,True
569,223741,1,223666,3413.0,38468.0,45275.0,-0.002257,-0.00183,0.000915,0.5075000000000001,-1.12,-3.6750000000000003,0.84903125,-0.11059375,-0.21703125,1.0585,0.79671875,-0.53190625,-1.10815625,1.01040625,0.01717406285946491,0.035491455092406476,True
570,223742,1,223667,3411.0,38470.0,45279.0,0.000305,0.003111,0.003111,0.665,-1.225,-3.7275000000000005,0.8488125,-0.10971875,-0.21596875000000001,1.06109375,0.80640625,-0.53171875,-1.1095,1.01075,0.017202219065877725,0.03558538600927935,True
571,223743,1,223668,3412.0,38469.0,45279.0,0.002196,0.0062829999999999995,0.0006709999999999999,0.5950000000000001,-1.5750000000000002,-3.7975000000000003,0.8500625,-0.10771875,-0.21653125,1.06528125,0.80390625,-0.5319375000000001,-1.108375,1.010625,0.01729250899974778,0.035519771789293414,True
572,223744,1,223669,3413.0,38471.0,45281.0,0.00122,0.0030499999999999998,-0.0023179999999999997,0.43750000000000006,-2.3275,-3.9725000000000006,0.85090625,-0.10915625,-0.21596875000000001,1.06525,0.804875,-0.53153125,-1.109375,1.00828125,0.01721763699524464,0.03558058494088363,True
573,223745,1,223670,3412.0,38472.0,45282.0,0.000915,-0.000793,-0.0040869999999999995,0.36750000000000005,-2.87,-4.025,0.849625,-0.1090625,-0.2170625,1.06571875,0.80609375,-0.53221875,-1.1087500000000001,1.010875,0.017249000357947648,0.03551301837009011,True
574,223746,1,223671,3411.0,38472.0,45285.0,0.004209,0.000122,-6.1e-05,0.29750000000000004,-2.87,-3.7275000000000005,0.8491562500000001,-0.10390625,-0.21671875000000002,1.067125,0.80815625,-0.53153125,-1.11071875,1.00259375,0.01743164728047704,0.03560232619785126,True
575,223747,1,223672,3413.0,38472.0,45288.0,0.00061,-0.001098,0.000793,0.14,-2.555,-3.4825000000000004,0.8503437500000001,-0.10640625000000001,-0.213375,1.06340625,0.800125,-0.531,-1.1065,1.018,0.017308456646691943,0.035573457072869574,True
576,223748,1,223673,3414.0,38476.0,45291.0,-0.001037,-0.002562,-0.000915,0.21000000000000002,-2.1525000000000003,-3.2025,0.85390625,-0.1073125,-0.22,1.0625625,0.79609375,-0.53659375,-1.10596875,1.019875,0.017495551924357877,0.0352891680389748,True
577,223749,1,223674,3413.0,38475.0,45291.0,-0.001952,-6.1e-05,6.1e-05,0.43750000000000006,-1.8900000000000001,-3.2375000000000003,0.8544375000000001,-0.1075,-0.21971875000000002,1.06375,0.78921875,-0.535,-1.1005,1.01753125,0.017424088037497454,0.035090187446465214,True
578,223750,1,223675,3413.0,38478.0,45294.0,-0.0032329999999999998,0.002806,-0.0013419999999999999,0.36750000000000005,-2.1700000000000004,-3.7450000000000006,0.8494375000000001,-0.10396875,-0.21928125,1.063625,0.79515625,-0.53571875,-1.1048125,1.0214375,0.01759679446928776,0.035273366411320534,True
579,223751,1,223676,3414.0,38478.0,45296.0,0.0035989999999999998,-0.0021349999999999997,0.000549,0.42000000000000004,-1.61,-3.7100000000000004,0.84840625,-0.10675,-0.22403125000000002,1.05521875,0.79525,-0.53846875,-1.1046562500000001,1.0176875,0.01759354890471721,0.035078154077493096,True
580,223752,1,223677,3413.0,38479.0,45298.0,-0.000183,0.004941,0.0023179999999999997,0.6300000000000001,-1.2950000000000002,-4.0075,0.8680625000000001,-0.09990625,-0.22046875,1.05240625,0.79553125,-0.536125,-1.1046562500000001,1.01765625,0.01777863252652976,0.03522006002372568,True
581,223753,1,223678,3415.0,38480.0,45299.0,-0.006588,0.0066489999999999995,-0.001037,0.7875000000000001,-1.6625,-4.0075,0.86728125,-0.10390625,-0.21903125,1.0519687500000001,0.7949375,-0.536375,-1.10425,1.02478125,0.017625617068536003,0.035261708674825976,True
582,223754,1,223679,3416.0,38479.0,45300.0,-0.005856,0.0026839999999999998,-0.0059169999999999995,0.6300000000000001,-2.1875,-3.8325000000000005,0.865125,-0.110875,-0.21490625,1.074125,0.7959375,-0.5276875,-1.10878125,1.0079375,0.016993550655764023,0.03560009508625593,True
583,223755,1,223680,3416.0,38481.0,45301.0,0.0013419999999999999,-0.001586,-0.004331,0.43750000000000006,-2.5200000000000005,-3.535,0.83784375,-0.1138125,-0.2114375,1.085375,0.80915625,-0.53075,-1.1018125,1.0070625,0.016996524769931617,0.03547054620059807,True
584,223756,1,223681,3416.0,38482.0,45306.0,0.003538,-0.002806,0.0040869999999999995,0.12250000000000001,-2.2750000000000004,-2.8875,0.8366875,-0.11290625,-0.2104375,1.07771875,0.8120937500000001,-0.53025,-1.1095625,1.00625,0.017013432394696347,0.035808071128280314,True
585,223757,1,223682,3417.0,38480.0,45307.0,-0.002074,-0.003355,0.002196,-0.12250000000000001,-1.995,-2.6425,0.86359375,-0.10478125,-0.22034375,1.06484375,0.8021875,-0.5324375,-1.1,1.01503125,0.017432277163653226,0.03504606573705179,True
586,223758,1,223683,3417.0,38482.0,45311.0,-0.0026839999999999998,-0.0018909999999999999,-0.002074,-0.15750000000000003,-1.9425000000000001,-2.6950000000000003,0.83825,-0.1135,-0.211625,1.0820625,0.7995,-0.5309375000000001,-1.10678125,1.0090000000000001,0.017016777283787057,0.03565396301049144,True
587,223759,1,223684,3419.0,38482.0,45312.0,0.0008539999999999999,-0.0017079999999999999,0.000122,0.035,-1.8375000000000001,-2.9225000000000003,0.83809375,-0.11790625,-0.20975,1.07259375,0.8055625000000001,-0.53140625,-1.10625,1.01009375,0.01685594359271597,0.03570823998008464,True
588,223760,1,223685,3417.0,38481.0,45312.0,-0.000976,-0.000366,0.0030499999999999998,0.1925,-1.5575,-3.4125000000000005,0.84846875,-0.1091875,-0.21665625,1.074125,0.80271875,-0.53190625,-1.105,1.01021875,0.01723138616673949,0.035385132443736304,True
589,223761,1,223686,3419.0,38484.0,45314.0,0.000915,-0.0008539999999999999,0.0040869999999999995,0.3325,-1.4525000000000001,-3.8500000000000005,0.83828125,-0.11068750000000001,-0.21084375,1.07628125,0.80696875,-0.5317500000000001,-1.10821875,1.010625,0.01716398137108034,0.03574028922302583,True
590,223762,1,223687,3418.0,38484.0,45315.0,0.002379,0.001952,-0.000183,0.5075000000000001,-1.54,-3.7625,0.8469375,-0.1083125,-0.209375,1.05940625,0.8054687500000001,-0.5285625,-1.10925,1.00659375,0.01713308719171782,0.03583838625207842,True
591,223763,1,223688,3418.0,38482.0,45317.0,0.003477,0.002562,0.00042699999999999997,0.5950000000000001,-1.6450000000000002,-3.8150000000000004,0.85265625,-0.10728125000000001,-0.21884375,1.06234375,0.8026562500000001,-0.53153125,-1.10534375,1.016125,0.017294069239970497,0.035311207399819015,True
592,223764,1,223689,3418.0,38483.0,45317.0,0.001464,0.000305,-0.00183,0.36750000000000005,-1.6450000000000002,-4.0600000000000005,0.85590625,-0.1069375,-0.21659375,1.062875,0.79871875,-0.53309375,-1.10496875,1.0169062500000001,0.017370668956091198,0.03538642126371896,True
593,223765,1,223690,3419.0,38486.0,45319.0,-0.004697,-0.000976,-0.003477,0.4025,-1.5050000000000001,-4.077500000000001,0.85690625,-0.10603125000000001,-0.217,1.0623125,0.8001875,-0.5331875,-1.1024375,1.01553125,0.017411363688473014,0.03527296900948364,True
594,223766,1,223691,3420.0,38485.0,45323.0,-0.005429,0.000488,-0.000549,0.42000000000000004,-1.3825,-4.0425,0.8539375,-0.10956250000000001,-0.215875,1.058125,0.799625,-0.5336875,-1.1045625000000001,1.01259375,0.017287454240215622,0.03539944183452709,True
595,223767,1,223692,3420.0,38486.0,45321.0,-0.00244,0.001037,0.002806,0.6300000000000001,-1.4525000000000001,-3.8850000000000002,0.85259375,-0.1066875,-0.218125,1.06128125,0.8083125,-0.532125,-1.1045625000000001,1.01684375,0.017342056589064337,0.03530981669168702,True
596,223768,1,223693,3421.0,38488.0,45323.0,0.001098,0.002013,0.006893,0.77,-1.7325000000000002,-3.9025000000000003,0.8496875,-0.107875,-0.214625,1.062625,0.7956562500000001,-0.5313125,-1.10621875,1.0101875,0.017261102519484026,0.035512864716037734,True
597,223769,1,223694,3422.0,38489.0,45327.0,0.002806,0.002013,-0.0044529999999999995,0.8400000000000001,-2.6250000000000004,-4.095000000000001,0.85678125,-0.10796875,-0.21734375,1.0666875,0.8022812500000001,-0.52825,-1.10446875,1.01740625,0.017134579515456667,0.035337334115066676,True
598,223770,1,223695,3422.0,38489.0,45326.0,0.0050019999999999995,-0.00183,0.001037,0.9100000000000001,-1.9075000000000002,-4.0075,0.84903125,-0.10971875,-0.21534375,1.05696875,0.79971875,-0.5317500000000001,-1.106375,1.0101875,0.01720347101205581,0.035490239032914955,True
599,223771,1,223696,3422.0,38491.0,45328.0,-0.0013419999999999999,0.007442,0.0006709999999999999,1.155,-1.9075000000000002,-4.235,0.85490625,-0.1069375,-0.21634375,1.06753125,0.80453125,-0.534875,-1.10578125,1.016,0.017442008569434325,0.0354275969802772,True
600,223772,1,223697,3423.0,38490.0,45327.0,-0.0046359999999999995,0.006405,6.1e-05,1.0150000000000001,-2.0300000000000002,-4.2875000000000005,0.84984375,-0.108375,-0.215875,1.0623125,0.7990625,-0.53159375,-1.106625,1.01003125,0.017251987551766792,0.035478683415234025,True
601,223773,1,223698,3424.0,38489.0,45328.0,-0.005856,0.001037,-0.005612,0.6825000000000001,-2.1350000000000002,-4.095000000000001,0.85653125,-0.10640625000000001,-0.21821875000000002,1.06265625,0.80690625,-0.531375,-1.10659375,1.0104375,0.017323478606478437,0.035384130911824706,True
602,223774,1,223699,3425.0,38493.0,45330.0,-0.0053679999999999995,-0.00183,-0.000488,0.5425000000000001,-2.2925000000000004,-3.8675,0.85428125,-0.1091875,-0.21546875000000001,1.06975,0.7997500000000001,-0.5326875,-1.103625,1.0104375,0.0172626826963006,0.03537960155156875,True
603,223775,1,223700,3425.0,38492.0,45331.0,-0.000183,-0.0026839999999999998,-0.001098,0.47250000000000003,-2.9400000000000004,-3.2375000000000003,0.8501875,-0.10678125000000001,-0.217125,1.06209375,0.80659375,-0.53065625,-1.103875,1.01609375,0.017279399119214355,0.03532323197115983,True
604,223776,1,223701,3425.0,38493.0,45335.0,0.003477,-0.00366,-0.001586,0.3325,-3.2550000000000003,-3.2725000000000004,0.8505,-0.10771875,-0.21603125,1.0683125,0.7986875,-0.53334375,-1.1041875,1.0098125,0.01734883774251115,0.03537880881426655,True
605,223777,1,223702,3426.0,38494.0,45335.0,0.005063,-0.0021349999999999997,-0.0026839999999999998,0.29750000000000004,-3.325,-3.3075,0.85203125,-0.10665625000000001,-0.21846875000000002,1.0639687500000001,0.80496875,-0.5310312500000001,-1.10478125,1.0163125,0.01729951732053662,0.03530452988910231,True
606,223778,1,223703,3426.0,38494.0,45339.0,0.0064659999999999995,0.000244,-0.00244,0.31500000000000006,-3.2375000000000003,-3.4825000000000004,0.8493125,-0.10375000000000001,-0.21559375,1.06521875,0.79990625,-0.53340625,-1.103875,1.01021875,0.017513110312596728,0.035384228530455954,True
607,223779,1,223704,3427.0,38496.0,45339.0,0.006039,0.0021349999999999997,0.0015249999999999999,0.35000000000000003,-2.8350000000000004,-3.4825000000000004,0.85778125,-0.10278125,-0.21581250000000002,1.0693125,0.80425,-0.53309375,-1.10421875,1.01121875,0.01754008297465541,0.03538872325991025,True
608,223780,1,223705,3428.0,38494.0,45342.0,-0.0040869999999999995,0.0011589999999999999,-0.00042699999999999997,0.49000000000000005,-2.3800000000000003,-3.5175000000000005,0.8404375000000001,-0.10846875,-0.21653125,1.0629375,0.80025,-0.5274375,-1.10621875,1.014,0.017081635617255165,0.03543693731259312,True
609,223781,1,223706,3428.0,38496.0,45343.0,-0.00549,0.00061,-0.0050019999999999995,0.49000000000000005,-2.2225,-3.5525,0.85175,-0.10928125,-0.21503125,1.0683125,0.796125,-0.53221875,-1.10434375,1.01009375,0.017240083512625615,0.03542464638216245,True
610,223782,1,223707,3428.0,38498.0,45343.0,-0.003172,-0.000488,-0.0055509999999999995,0.5775,-2.1350000000000002,-3.6750000000000003,0.8495625,-0.10975,-0.21590625,1.069,0.7993750000000001,-0.53428125,-1.10446875,1.015625,0.017303594332929564,0.035394594836825624,True
611,223783,1,223708,3428.0,38496.0,45342.0,0.0006709999999999999,-0.002074,0.000366,0.7525000000000001,-1.8375000000000001,-3.6225000000000005,0.844375,-0.10859375,-0.21471875,1.06265625,0.7914375,-0.5325625,-1.1035625,1.02096875,0.017281877912264567,0.035407076186895786,True
612,223784,1,223709,3432.0,38497.0,45332.0,0.0025009999999999998,0.002013,0.0040869999999999995,0.8575,-1.435,-3.6925000000000003,0.856625,-0.10678125000000001,-0.21953125,1.063375,0.800625,-0.52928125,-1.09996875,1.01184375,0.01722431226964712,0.03507723490691597,True
613,223785,1,223710,3428.0,38493.0,45315.0,-0.001769,0.002257,0.000732,0.805,-1.6275000000000002,-3.7625,0.8559375,-0.1065625,-0.21859375,1.0618125,0.80096875,-0.5308125,-1.1106562500000001,1.0045,0.01729457595422084,0.03552525633415097,True
614,223786,1,223711,3429.0,38491.0,45305.0,-0.004941,-0.0011589999999999999,0.000305,0.49000000000000005,-1.9075000000000002,-3.8500000000000005,0.8535625,-0.1081875,-0.21425,1.0679687500000001,0.8133125,-0.53028125,-1.10653125,1.009375,0.017207048940786198,0.035539806001675354,True
615,223787,1,223712,3431.0,38491.0,45297.0,-0.0011589999999999999,-0.003355,0.002928,0.21000000000000002,-2.0650000000000004,-3.7100000000000004,0.8494375000000001,-0.10934375,-0.21556250000000002,1.0605625,0.7985625000000001,-0.534375,-1.10009375,1.02565625,0.017323907782448095,0.03524015722052831,True
616,223788,1,223713,3431.0,38490.0,45292.0,0.0062829999999999995,-0.000793,0.0017079999999999999,0.36750000000000005,-2.1350000000000002,-3.535,0.84965625,-0.104375,-0.21406250000000002,1.0694375,0.7921875,-0.53921875,-1.09021875,1.01965625,0.01772035835492929,0.03492023161416239,True
617,223789,1,223714,3430.0,38490.0,45292.0,0.0070149999999999995,0.000244,0.003965,0.28,-1.8375000000000001,-3.5000000000000004,0.84965625,-0.1086875,-0.21531250000000002,1.06859375,0.7935,-0.53715625,-1.09940625,1.00784375,0.01746203780236351,0.03522369179549815,True
618,223790,1,223715,3430.0,38488.0,45288.0,-0.007137,-0.001098,-0.006161,0.24500000000000002,-1.6450000000000002,-3.2025,0.8496875,-0.1090625,-0.21525,1.071125,0.7988125,-0.53421875,-1.0998125,1.01715625,0.01732911303727574,0.03524179712497853,True
619,223791,1,223716,3430.0,38490.0,45287.0,-0.003111,-0.0026839999999999998,-0.002562,0.07,-1.3825,-3.1850000000000005,0.8499375,-0.110375,-0.21515625,1.0655625,0.79103125,-0.53190625,-1.0992187500000001,1.011375,0.017182979818374286,0.035222709870202644,True
620,223792,1,223717,3431.0,38492.0,45288.0,0.001586,-0.00042699999999999997,0.000122,0.21000000000000002,-1.4000000000000001,-3.1675000000000004,0.84928125,-0.10796875,-0.21528125,1.0619687500000001,0.7993750000000001,-0.52728125,-1.10759375,0.9902500000000001,0.01709575944133637,0.03553954667599319,True
621,223793,1,223718,3429.0,38490.0,45284.0,0.00061,0.003294,0.002562,0.15750000000000003,-1.61,-3.3950000000000005,0.8511875,-0.10968750000000001,-0.2141875,1.0639375,0.81703125,-0.5308125,-1.105375,1.00440625,0.017167185147251036,0.03549787645076005,True
622,223794,1,223719,3427.0,38490.0,45283.0,-0.002013,0.001464,0.001098,0.0,-1.8550000000000002,-3.6225000000000005,0.84975,-0.1086875,-0.215,1.06275,0.81284375,-0.5298437500000001,-1.1055625,1.00534375,0.017169137084291457,0.03547271645476974,True
623,223795,1,223720,3430.0,38489.0,45282.0,0.001952,-0.000122,0.000549,-0.14,-2.1350000000000002,-3.3775000000000004,0.8556875,-0.10734375,-0.21778125,1.0625625,0.8110937500000001,-0.52990625,-1.105875,1.00475,0.017226421319893957,0.03537394135834739,True
624,223796,1,223721,3428.0,38488.0,45281.0,-6.1e-05,0.003843,-0.000915,-0.08750000000000001,-2.4325,-3.6225000000000005,0.85490625,-0.10521875,-0.21746875000000002,1.06271875,0.81184375,-0.529375,-1.1027500000000001,1.0118125,0.01729176752363238,0.03526630548445888,True
625,223797,1,223722,3427.0,38490.0,45281.0,0.0013419999999999999,0.001403,0.0023179999999999997,-0.1925,-2.3975000000000004,-3.6400000000000006,0.84184375,-0.107125,-0.21778125,1.0638750000000001,0.7963125,-0.530625,-1.10409375,1.0108125000000001,0.017264134118066703,0.03530549673795733,True
626,223798,1,223723,3427.0,38490.0,45279.0,0.0008539999999999999,-0.002257,-0.00061,-0.10500000000000001,-2.5025000000000004,-3.3950000000000005,0.84890625,-0.10975,-0.21506250000000002,1.06525,0.8063125,-0.53215625,-1.1019375,1.0148125000000001,0.01721847218383015,0.035330938099897666,True
627,223799,1,223724,3426.0,38493.0,45277.0,0.00042699999999999997,-0.003294,-0.000488,-0.21000000000000002,-2.1,-3.0975,0.84975,-0.10746875,-0.21484375,1.067,0.7996875,-0.53178125,-1.0985,1.00934375,0.01729644071402275,0.03520753232264876,True
628,223800,1,223725,3424.0,38491.0,45277.0,-6.1e-05,0.00244,-0.003111,0.45500000000000007,-2.1,-3.08,0.84971875,-0.10796875,-0.2149375,1.0685,0.803,-0.53228125,-1.103625,1.01015625,0.017296088189923228,0.03540076383390845,True
629,223801,1,223726,3424.0,38489.0,45277.0,0.0,0.000915,-0.000122,0.28,-1.9075000000000002,-3.6050000000000004,0.84103125,-0.1091875,-0.21378125,1.06715625,0.80478125,-0.5324375,-1.10525,1.01003125,0.017252668023713502,0.035509256032104836,True
630,223802,1,223727,3425.0,38490.0,45275.0,0.001464,-0.003843,0.001647,0.052500000000000005,-1.5225000000000002,-3.4825000000000004,0.85040625,-0.10884375,-0.21156250000000001,1.06590625,0.80040625,-0.5315,-1.1046875,0.99975,0.01722912377963027,0.035576025393664036,True
631,223803,1,223728,3423.0,38490.0,45276.0,0.00183,-0.00366,0.00061,0.21000000000000002,-1.435,-2.9400000000000004,0.8495,-0.10909375,-0.21521875000000001,1.06334375,0.7994375,-0.5308437500000001,-1.1026562500000001,1.0187187500000001,0.01719264140680037,0.03535233447655565,True
632,223804,1,223729,3423.0,38491.0,45276.0,-0.0023179999999999997,0.00366,-0.0008539999999999999,0.665,-1.6800000000000002,-3.7625,0.851875,-0.1066875,-0.21790625,1.06228125,0.8,-0.53371875,-1.10290625,1.01646875,0.017405891636383092,0.03525488209159049,True
633,223805,1,223730,3422.0,38489.0,45275.0,0.0011589999999999999,-0.0044529999999999995,-0.000549,0.17500000000000002,-1.6450000000000002,-3.6575,0.8552500000000001,-0.10625,-0.21540625,1.0615,0.79984375,-0.5325,-1.1028437500000001,1.0170937500000001,0.017374910832569042,0.03535207042030846,True
634,223806,1,223731,3421.0,38489.0,45275.0,0.004026,-0.000976,0.00366,0.08750000000000001,-1.6275000000000002,-3.8325000000000005,0.8498125,-0.11178125,-0.21456250000000002,1.07453125,0.7974687500000001,-0.5288437500000001,-1.10175,1.0108125000000001,0.017002941689821808,0.03534365133905007,True
635,223807,1,223732,3423.0,38491.0,45279.0,-0.0032329999999999998,0.002257,-0.00244,0.36750000000000005,-1.54,-3.6575,0.8481562500000001,-0.10771875,-0.21746875000000002,1.05915625,0.79871875,-0.53140625,-1.1040625,1.01125,0.017271227571798907,0.035316744052879885,True
636,223808,1,223733,3421.0,38489.0,45279.0,-0.0062829999999999995,0.0011589999999999999,-0.001403,0.45500000000000007,-1.5575,-3.5175000000000005,0.860625,-0.10400000000000001,-0.21975,1.058,0.80325,-0.53053125,-1.10325,1.0150000000000001,0.0173877705971003,0.035194646111559265,True
637,223809,1,223734,3420.0,38490.0,45281.0,-0.0037819999999999998,0.0011589999999999999,-0.000366,0.43750000000000006,-1.7850000000000001,-3.6225000000000005,0.86165625,-0.1054375,-0.21256250000000002,1.06034375,0.7949375,-0.53228125,-1.1023125,1.01865625,0.017399268565780036,0.03544494157659778,True
638,223810,1,223735,3418.0,38489.0,45281.0,0.001281,0.000366,-0.000976,0.4025,-2.3275,-3.4475000000000002,0.86384375,-0.105625,-0.2175,1.059125,0.7999375,-0.53209375,-1.10234375,1.01096875,0.01738411545080615,0.03524944757399396,True
639,223811,1,223736,3419.0,38490.0,45283.0,0.0023179999999999997,0.0006709999999999999,-0.003111,0.24500000000000002,-2.5900000000000003,-3.3425000000000002,0.8573437500000001,-0.10715625000000001,-0.21206250000000001,1.04915625,0.793375,-0.530625,-1.1018125,1.01053125,0.01726286020025988,0.03544564760014839,True
640,223812,1,223737,3417.0,38490.0,45284.0,0.000793,0.001098,-0.0025009999999999998,0.24500000000000002,-2.6425,-3.2725000000000004,0.8511562500000001,-0.1080625,-0.212375,1.06690625,0.80584375,-0.5309375000000001,-1.098625,1.01121875,0.017238436158422403,0.03531069929129584,True
641,223813,1,223738,3417.0,38492.0,45283.0,-0.0017079999999999999,-0.001098,-0.0006709999999999999,0.24500000000000002,-2.6250000000000004,-3.0625000000000004,0.85296875,-0.10728125000000001,-0.2204375,1.059625,0.80571875,-0.53115625,-1.10228125,1.014875,0.017279046926293985,0.03513002428813118,True
642,223814,1,223739,3418.0,38492.0,45285.0,-0.001647,0.000549,0.002623,0.4025,-2.5900000000000003,-3.0450000000000004,0.8501562500000001,-0.11118750000000001,-0.21275,1.0726875,0.79934375,-0.5325625,-1.1046875,1.01065625,0.017176151084910107,0.03552872347046742,True
643,223815,1,223740,3415.0,38489.0,45282.0,0.0046359999999999995,0.000366,-0.004148,-0.052500000000000005,-2.7475,-3.535,0.8450625,-0.10915625,-0.21359375,1.06625,0.80496875,-0.531,-1.10228125,1.0100625,0.017196353593412417,0.03540265887189038,True
644,223816,1,223741,3416.0,38492.0,45285.0,0.00549,-0.006588,-0.004697,-0.052500000000000005,-2.5200000000000005,-3.2900000000000005,0.84471875,-0.10387500000000001,-0.20809375,1.07,0.8023750000000001,-0.53125,-1.1015,1.00978125,0.017421656050955414,0.035591747505129175,True
645,223817,1,223742,3415.0,38492.0,45284.0,0.0034159999999999998,-0.0040869999999999995,-0.000976,0.14,-1.8725000000000003,-3.5525,0.84646875,-0.1081875,-0.21206250000000001,1.068875,0.8018125,-0.53190625,-1.1039375,1.0096875,0.017272149407468084,0.03552729526991533,True
646,223818,1,223743,3414.0,38492.0,45286.0,-0.000244,-0.001647,0.002196,0.10500000000000001,-1.4700000000000002,-3.6225000000000005,0.84715625,-0.10953125,-0.21356250000000002,1.06140625,0.80321875,-0.5313125,-1.1030312500000001,1.009875,0.017193586767931802,0.035432722890786354,True
647,223819,1,223744,3413.0,38494.0,45288.0,-0.000549,-0.001281,0.002562,0.4025,-1.3125000000000002,-3.5175000000000005,0.854125,-0.10690625000000001,-0.21684375,1.05540625,0.80271875,-0.530875,-1.1020625,1.01553125,0.01728306674751716,0.0352647815294062,True
648,223820,1,223745,3415.0,38490.0,45285.0,-0.001464,0.0006709999999999999,-0.001952,0.49000000000000005,-0.805,-3.9375000000000004,0.84765625,-0.10671875,-0.21490625,1.06771875,0.79146875,-0.5295625,-1.101875,1.01809375,0.017238128482723655,0.035334760849538134,True
649,223821,1,223746,3413.0,38493.0,45284.0,-0.0023179999999999997,0.0015249999999999999,0.000305,0.6825000000000001,-0.36750000000000005,-3.9725000000000006,0.84196875,-0.10943750000000001,-0.213625,1.06890625,0.79984375,-0.5334375,-1.10171875,1.01384375,0.0172825353153222,0.0353797984450766,True
650,223822,1,223747,3412.0,38489.0,45286.0,-0.00244,0.004148,0.003721,0.7875000000000001,-0.2625,-4.130000000000001,0.849625,-0.10946875,-0.21365625,1.0600625000000001,0.7915625000000001,-0.53209375,-1.1023125,1.005875,0.017227432941796905,0.03540136989370999,True
651,223823,1,223748,3412.0,38490.0,45286.0,-0.001769,0.00549,0.00549,0.7350000000000001,-0.28,-4.0600000000000005,0.8472500000000001,-0.10796875,-0.216875,1.0625625,0.824375,-0.52571875,-1.10925,1.0008125,0.017033139956397814,0.03553969154793552,True
652,223824,1,223749,3414.0,38492.0,45288.0,0.0,-0.000244,-0.001098,0.6125,-0.6300000000000001,-4.077500000000001,0.8569687500000001,-0.10665625000000001,-0.21559375,1.06575,0.80871875,-0.53253125,-1.1006562500000001,1.0195625,0.017359602874244782,0.0352605322819,True
653,223825,1,223750,3412.0,38492.0,45288.0,-0.000244,-0.002379,0.001952,0.31500000000000006,-0.9275000000000001,-3.9375000000000004,0.84965625,-0.1068125,-0.21481250000000002,1.06284375,0.783625,-0.5347500000000001,-1.09246875,1.02046875,0.01744209743323246,0.034976879267808195,True
654,223826,1,223751,3414.0,38493.0,45291.0,-0.003294,0.0023179999999999997,0.000549,0.35000000000000003,-1.2600000000000002,-3.7975000000000003,0.85471875,-0.10703125000000001,-0.21534375,1.06365625,0.7965625000000001,-0.53478125,-1.09975,1.03025,0.017434433005185237,0.03523565971772628,True
655,223827,1,223752,3414.0,38495.0,45293.0,-0.0008539999999999999,0.0023179999999999997,-0.001403,0.1925,-1.9075000000000002,-3.8500000000000005,0.847125,-0.109,-0.21321875,1.0624375,0.7871875,-0.535875,-1.09959375,0.99728125,0.017397993754043824,0.03531431659127949,True
656,223828,1,223753,3412.0,38494.0,45294.0,0.0034159999999999998,-0.0035989999999999998,-0.001647,-0.17500000000000002,-2.1875,-3.7275000000000005,0.84878125,-0.106875,-0.21675,1.06203125,0.825375,-0.53028125,-1.1004375,1.0181875,0.017260554238447634,0.035206059655334694,True
657,223829,1,223754,3414.0,38495.0,45297.0,0.002013,-0.002196,0.001037,-0.08750000000000001,-1.61,-3.2900000000000005,0.85228125,-0.107125,-0.21740625,1.06221875,0.78896875,-0.53371875,-1.1015625,1.0139375,0.017388059036097005,0.03522315592903828,True
658,223830,1,223755,3414.0,38496.0,45298.0,-0.001586,0.000793,-0.000915,0.24500000000000002,-1.7325000000000002,-3.4125000000000005,0.854875,-0.1075625,-0.2175,1.06428125,0.8041875,-0.52859375,-1.102375,1.0256875,0.017164915946312656,0.03525064859400755,True
659,223831,1,223756,3415.0,38497.0,45300.0,-0.0032329999999999998,0.0,-0.000976,0.29750000000000004,-1.715,-3.535,0.84965625,-0.11053125,-0.21471875,1.06884375,0.78746875,-0.541,-1.098,1.02028125,0.017540799070942508,0.03519329229420671,True
660,223832,1,223757,3413.0,38499.0,45300.0,0.000366,-0.0013419999999999999,-0.001464,0.2625,-1.8725000000000003,-3.5700000000000003,0.84928125,-0.110375,-0.21496875000000001,1.0659375,0.78709375,-0.53721875,-1.0991875,1.0020625,0.01739576739926973,0.03522897902571547,True
661,223833,1,223758,3412.0,38498.0,45302.0,0.002989,0.00122,-0.00061,0.31500000000000006,-1.9250000000000003,-3.6750000000000003,0.84840625,-0.10765625000000001,-0.21421875,1.0685625,0.8045625000000001,-0.528125,-1.0980625,1.00465625,0.01714231112243598,0.0352156167433243,True
662,223834,1,223759,3414.0,38497.0,45304.0,0.000183,-0.000366,-0.001098,0.4025,-1.5925000000000002,-3.7100000000000004,0.84996875,-0.11025,-0.21384375,1.0660625,0.80221875,-0.5305,-1.101,1.0096875,0.01713173396384093,0.035343462411856104,True
663,223835,1,223760,3414.0,38499.0,45306.0,-0.0044529999999999995,-0.000305,0.00183,0.43750000000000006,-1.3825,-3.7275000000000005,0.84965625,-0.108875,-0.213375,1.0670625,0.7996875,-0.53121875,-1.10346875,1.00996875,0.017216582441506294,0.03545700233160009,True
664,223836,1,223761,3414.0,38498.0,45305.0,-0.004575,0.0013419999999999999,0.004331,0.47250000000000003,-1.435,-3.8150000000000004,0.84978125,-0.108125,-0.21378125,1.06678125,0.7974375,-0.53159375,-1.10228125,1.010375,0.017262178491766356,0.03539518943123944,True
665,223837,1,223762,3416.0,38500.0,45307.0,-0.001037,0.002745,0.001952,0.42000000000000004,-1.6800000000000002,-3.6225000000000005,0.85021875,-0.10696875,-0.216625,1.056625,0.80159375,-0.5326875,-1.10015625,1.0170000000000001,0.017353123256471592,0.03520022908223927,True
666,223838,1,223763,3415.0,38500.0,45310.0,0.002196,0.0,-0.003111,0.1925,-1.9250000000000003,-3.6050000000000004,0.854,-0.1065,-0.21640625,1.0629375,0.79959375,-0.53309375,-1.1006562500000001,1.01740625,0.017388502010676907,0.03522816261029032,True
667,223839,1,223764,3415.0,38503.0,45313.0,0.0017079999999999999,-0.002196,-0.00042699999999999997,0.0,-1.8200000000000003,-3.5000000000000004,0.8504375000000001,-0.1056875,-0.21359375,1.06703125,0.7994687500000001,-0.5320625,-1.10025,1.002125,0.017380316065964695,0.0353245983605741,True
668,223840,1,223765,3418.0,38502.0,45315.0,-0.000305,-0.001037,0.00122,0.07,-1.715,-3.5000000000000004,0.8499375,-0.106625,-0.21709375,1.063125,0.7997500000000001,-0.535625,-1.09525,1.01778125,0.017484779784497036,0.034992926948326876,True
669,223841,1,223766,3416.0,38503.0,45316.0,-0.000366,0.0013419999999999999,0.0,0.28,-1.61,-3.4125000000000005,0.8472500000000001,-0.1058125,-0.2109375,1.064375,0.7993750000000001,-0.53346875,-1.10009375,1.013875,0.017431544408085385,0.03542441948050493,True
670,223842,1,223767,3418.0,38503.0,45316.0,0.001281,0.000793,-0.00122,0.14,-1.6975000000000002,-3.3075,0.8441875,-0.10815625,-0.2139375,1.0679687500000001,0.8,-0.527625,-1.1025625000000001,1.01040625,0.017101890215624218,0.035399772433591194,True
671,223843,1,223768,3417.0,38506.0,45319.0,0.0023179999999999997,0.000183,-0.00183,0.15750000000000003,-1.5925000000000002,-3.3950000000000005,0.8505625,-0.11093750000000001,-0.214,1.07875,0.80678125,-0.5310625,-1.10415625,1.0105,0.017126245550921407,0.03545852093714562,True
672,223844,1,223769,3418.0,38507.0,45323.0,-0.001464,-0.000244,-0.0015249999999999999,0.22750000000000004,-1.3650000000000002,-3.325,0.83778125,-0.109625,-0.21553125,1.05803125,0.8071875000000001,-0.53046875,-1.1027500000000001,1.0046875,0.01715596038090385,0.0353434882632381,True
673,223845,1,223770,3417.0,38507.0,45321.0,-0.0025009999999999998,6.1e-05,0.001281,0.3325,-1.155,-3.3775000000000004,0.86328125,-0.10515625,-0.21821875000000002,1.05165625,0.79959375,-0.5321875,-1.100875,1.0148125000000001,0.017406978077270933,0.035164361800136455,True
674,223846,1,223771,3418.0,38505.0,45323.0,-0.002074,0.001464,0.003477,0.43750000000000006,-1.3125000000000002,-3.535,0.858625,-0.11228125,-0.21109375,1.077,0.79878125,-0.5306875,-1.10365625,1.0063125,0.01705644205854402,0.03555507975058414,True
675,223847,1,223772,3418.0,38509.0,45323.0,-0.0037819999999999998,0.003477,-0.001647,0.42000000000000004,-1.8025000000000002,-3.7800000000000002,0.835,-0.10300000000000001,-0.21278125,1.05709375,0.80603125,-0.531625,-1.10028125,1.01659375,0.017472344371805785,0.035358169542422956,True
676,223848,1,223773,3418.0,38509.0,45325.0,0.00122,-0.0034159999999999998,0.002074,0.08750000000000001,-1.8375000000000001,-3.7450000000000006,0.86625,-0.1059375,-0.21778125,1.070625,0.79959375,-0.53425,-1.09515625,1.008125,0.01745773765246543,0.03496192616852107,True
677,223849,1,223774,3419.0,38509.0,45329.0,0.000122,0.0015249999999999999,-0.000976,0.29750000000000004,-2.0475000000000003,-3.6925000000000003,0.8436875,-0.11203125,-0.212125,1.072625,0.8043125,-0.53140625,-1.1030625,1.01053125,0.017095432513168703,0.03549118757920473,True
678,223850,1,223775,3417.0,38508.0,45329.0,-0.001281,0.000732,-0.000244,0.07,-1.9775000000000003,-3.7625,0.84471875,-0.11209375,-0.21421875,1.067375,0.80596875,-0.530875,-1.10378125,1.01034375,0.017071598546729374,0.03543539880072847,True
679,223851,1,223776,3420.0,38509.0,45329.0,-0.001281,-0.001586,-0.001952,-0.0175,-2.0825,-3.5700000000000003,0.83525,-0.1043125,-0.22087500000000002,1.0581562500000001,0.80175,-0.53234375,-1.1008437500000001,1.01765625,0.01744762972351551,0.03505733746500056,True
680,223852,1,223777,3419.0,38514.0,45329.0,0.001037,0.00061,-0.000915,0.052500000000000005,-1.9250000000000003,-3.4825000000000004,0.86609375,-0.10121875,-0.20990625000000002,1.07396875,0.799875,-0.5244375,-1.1028125,1.0101875,0.01725702169519688,0.035569968504525144,True
681,223853,1,223778,3419.0,38512.0,45334.0,0.0018909999999999999,0.002013,0.001952,0.15750000000000003,-1.8200000000000003,-3.4475000000000002,0.8460625,-0.1156875,-0.2135,1.06184375,0.80025,-0.53171875,-1.1031250000000001,1.0018125,0.01695891161315389,0.035438814888584594,True
682,223854,1,223779,3420.0,38512.0,45335.0,0.00061,-0.002379,0.000915,0.052500000000000005,-1.8900000000000001,-3.2025,0.85046875,-0.1088125,-0.21096875,1.061625,0.8038125,-0.52490625,-1.1020625,1.00653125,0.016966170869664385,0.03549882604268075,True
683,223855,1,223780,3420.0,38513.0,45337.0,-6.1e-05,-0.0023179999999999997,-0.0006709999999999999,0.0,-1.8375000000000001,-3.0975,0.8473125,-0.1085,-0.21359375,1.06034375,0.800125,-0.5289375000000001,-1.101375,1.00678125,0.017140469292646697,0.03536783343541937,True
684,223856,1,223781,3422.0,38513.0,45340.0,-0.00042699999999999997,-0.000549,-0.001098,0.15750000000000003,-1.8725000000000003,-3.1325000000000003,0.85321875,-0.10515625,-0.2144375,1.0673125,0.7994375,-0.53153125,-1.10090625,1.01684375,0.0173806924506598,0.03531620496769912,True
685,223857,1,223782,3421.0,38516.0,45341.0,0.001098,0.000122,-0.0018909999999999999,0.31500000000000006,-1.8550000000000002,-3.1675000000000004,0.849375,-0.11015625,-0.213625,1.065375,0.8015,-0.531125,-1.1036875,1.00959375,0.017160596996672592,0.0354554485272333,True
686,223858,1,223783,3423.0,38516.0,45343.0,0.0026839999999999998,0.00042699999999999997,-0.003172,0.22750000000000004,-1.8200000000000003,-3.325,0.853125,-0.1069375,-0.21609375,1.06253125,0.8035,-0.53075,-1.101375,1.01078125,0.017276785259317386,0.03526823729775759,True
687,223859,1,223784,3421.0,38516.0,45347.0,-0.002013,-0.000183,-0.0011589999999999999,0.36750000000000005,-1.4525000000000001,-3.9550000000000005,0.85678125,-0.106875,-0.21034375,1.06628125,0.80025,-0.5327500000000001,-1.10034375,1.01746875,0.0173594480847031,0.035457681729956385,True
688,223860,1,223785,3423.0,38518.0,45350.0,-0.000976,-0.002806,0.005856,0.29750000000000004,-1.1375000000000002,-3.6750000000000003,0.85046875,-0.108625,-0.2144375,1.06390625,0.799625,-0.5321875,-1.0996875,1.01175,0.017265582207049414,0.035269363413389106,True
689,223861,1,223786,3422.0,38519.0,45350.0,0.002196,0.002257,0.0026839999999999998,0.5775,-1.225,-3.6050000000000004,0.849875,-0.10968750000000001,-0.214,1.06834375,0.80559375,-0.5311875,-1.10271875,1.01003125,0.017182209381425177,0.03540328674558408,True
690,223862,1,223787,3423.0,38522.0,45352.0,0.0023179999999999997,0.001647,0.001464,0.36750000000000005,-1.3475000000000001,-3.9375000000000004,0.85090625,-0.1071875,-0.21309375,1.063625,0.806,-0.53059375,-1.10309375,1.01153125,0.017260334352893515,0.03545379740295955,True
691,223863,1,223788,3424.0,38524.0,45355.0,-0.000732,-0.001769,0.000366,0.28,-1.6450000000000002,-3.7975000000000003,0.85559375,-0.10721875,-0.2163125,1.0620625000000001,0.8070625,-0.5315625,-1.10059375,1.01565625,0.017297868816957745,0.03522949531821334,True
692,223864,1,223789,3426.0,38522.0,45357.0,-0.001037,0.000244,-0.0017079999999999999,0.42000000000000004,-1.3475000000000001,-3.8675,0.8571562500000001,-0.10646875,-0.216375,1.062,0.79984375,-0.53340625,-1.10009375,1.01765625,0.017402292027834495,0.035207786823505394,True
693,223865,1,223790,3425.0,38522.0,45356.0,-0.000305,0.003355,0.000244,0.665,-1.1725,-3.99,0.84865625,-0.10596875,-0.21434375,1.06625,0.7996875,-0.53340625,-1.09465625,1.0170937500000001,0.01742267240204364,0.035079679563253634,True
694,223866,1,223791,3426.0,38525.0,45359.0,-0.002745,0.0037819999999999998,0.0015249999999999999,0.5950000000000001,-1.0150000000000001,-4.0075,0.85353125,-0.10721875,-0.21553125,1.06190625,0.7994687500000001,-0.53471875,-1.09959375,1.0151875000000001,0.017424287775868633,0.03522218362598,True
695,223867,1,223792,3426.0,38525.0,45361.0,-0.0050019999999999995,6.1e-05,0.00244,0.6125,-1.1025,-3.9725000000000006,0.8493125,-0.109375,-0.21465625,1.06859375,0.7991875,-0.53196875,-1.09978125,1.00453125,0.0172262468742954,0.035264251555977205,True
696,223868,1,223793,3427.0,38524.0,45362.0,-0.004148,-0.00061,-0.002379,0.5425000000000001,-1.4875,-3.8675,0.85,-0.1091875,-0.21359375,1.0675937500000001,0.7991875,-0.53234375,-1.09953125,1.00584375,0.017248912468870815,0.03529697392257077,True
697,223869,1,223794,3428.0,38526.0,45362.0,0.005673,-0.001281,-0.00042699999999999997,0.22750000000000004,-1.7500000000000002,-3.535,0.8423125,-0.1023125,-0.21071875,1.0675937500000001,0.8071875000000001,-0.53096875,-1.1030625,1.00353125,0.01747408569015441,0.035547206640624024,True
698,223870,1,223795,3426.0,38527.0,45364.0,0.004026,-0.00042699999999999997,-0.002257,0.14,-1.8725000000000003,-3.4475000000000002,0.8493125,-0.1091875,-0.21384375,1.06375,0.80134375,-0.53321875,-1.1009375000000001,1.0148125000000001,0.017283963197858004,0.035341060468359005,True
699,223871,1,223796,3428.0,38528.0,45365.0,0.002379,-6.1e-05,-0.001403,0.1925,-1.8550000000000002,-3.3950000000000005,0.857,-0.1066875,-0.21378125,1.0556875000000001,0.7999375,-0.5347500000000001,-1.09934375,1.0050937500000001,0.017447192247730264,0.035282296972405904,True
700,223872,1,223797,3428.0,38526.0,45368.0,-0.000915,-0.001098,-0.001769,0.28,-1.6975000000000002,-3.3075,0.84965625,-0.109125,-0.2139375,1.064125,0.80521875,-0.531,-1.10259375,1.0139375,0.01719762749174514,0.03540097325600069,True
701,223873,1,223798,3430.0,38527.0,45368.0,-0.002745,-0.000122,0.001647,0.31500000000000006,-1.4175000000000002,-3.4475000000000002,0.85165625,-0.10696875,-0.21553125,1.06246875,0.800125,-0.53253125,-1.1008437500000001,1.01553125,0.017346864686048243,0.03527022871492119,True
702,223874,1,223799,3432.0,38530.0,45370.0,0.0023179999999999997,0.001952,0.001037,0.6475000000000001,-1.5050000000000001,-3.5175000000000005,0.85375,-0.10696875,-0.21359375,1.06334375,0.7994375,-0.5310625,-1.10421875,1.009875,0.017288030226982627,0.03547710481928461,True
703,223875,1,223800,3432.0,38529.0,45371.0,0.002745,0.0011589999999999999,-0.001098,0.5425000000000001,-1.5050000000000001,-3.7100000000000004,0.85003125,-0.10653125000000001,-0.21559375,1.06284375,0.805875,-0.530125,-1.1029375000000001,1.01140625,0.01726830784596491,0.03534820377097302,True
704,223876,1,223801,3431.0,38532.0,45374.0,0.0015249999999999999,-0.000793,-0.002257,0.49000000000000005,-1.1900000000000002,-3.6400000000000006,0.85284375,-0.10725,-0.21421875,1.05525,0.8041875,-0.53090625,-1.1036875,1.0055,0.01727030569855119,0.035431796623504014,True
705,223877,1,223802,3431.0,38531.0,45375.0,0.0008539999999999999,-6.1e-05,0.005612,0.5775,-0.8925000000000001,-3.6575,0.8493437500000001,-0.10815625,-0.21409375,1.0655937500000001,0.8085,-0.52878125,-1.10565625,1.01053125,0.01714822255997737,0.03551241565334505,True
706,223878,1,223803,3433.0,38533.0,45376.0,-0.0062829999999999995,0.006954,-0.0040869999999999995,0.6300000000000001,-1.6975000000000002,-4.025,0.849875,-0.1088125,-0.21396875,1.0626875,0.8069375,-0.5343125,-1.0994375,1.02515625,0.01734305780934355,0.03527843004449801,True
707,223879,1,223804,3434.0,38534.0,45375.0,0.000488,-0.006771,-0.004392,-0.035,-2.0125,-3.9725000000000006,0.85390625,-0.10746875,-0.21728125,1.06225,0.798,-0.53521875,-1.10209375,0.99890625,0.017434122122917693,0.035248553718751054,True
708,223880,1,223805,3434.0,38539.0,45380.0,0.006222,-0.006222,-0.000366,0.14,-1.8200000000000003,-3.9200000000000004,0.8501875,-0.10721875,-0.2139375,1.07175,0.81034375,-0.5300625,-1.1031250000000001,1.00675,0.017237777115325325,0.03542138677953443,True
709,223881,1,223806,3435.0,38537.0,45380.0,0.0037819999999999998,0.000732,-0.002562,0.49000000000000005,-1.5575,-3.99,0.84903125,-0.11534375000000001,-0.211875,1.0718750000000001,0.81115625,-0.5310312500000001,-1.1011250000000001,1.00053125,0.01694537403518248,0.03542669900253475,True
710,223882,1,223807,3437.0,38539.0,45383.0,-0.001037,0.000915,0.006039,0.5775,-1.0325000000000002,-4.0075,0.84675,-0.09940625,-0.21403125,1.08196875,0.80778125,-0.53009375,-1.10296875,1.008375,0.01755751544977279,0.03541164827367281,True
711,223883,1,223808,3438.0,38540.0,45381.0,-0.004514,0.0008539999999999999,0.005246,0.665,-0.7175,-3.9025000000000003,0.84184375,-0.11203125,-0.21971875000000002,1.0559687500000001,0.80525,-0.53096875,-1.0984375,1.0213125,0.01707790280398119,0.035010894602502646,True
712,223884,1,223809,3437.0,38540.0,45382.0,-0.002745,0.00183,-0.005978,0.6125,-1.4700000000000002,-4.1475,0.8533125,-0.1095,-0.2109375,1.0831875,0.795375,-0.53353125,-1.0979375,1.0058125,0.01728374304045611,0.03534154947991244,True
713,223885,1,223810,3438.0,38542.0,45385.0,-0.0006709999999999999,-0.001098,-0.0068319999999999995,0.6300000000000001,-1.61,-4.0075,0.834375,-0.11068750000000001,-0.21025,1.08175,0.8130000000000001,-0.52978125,-1.10225,1.00571875,0.017085099362637,0.035534663227399926,True
714,223886,1,223811,3440.0,38542.0,45387.0,0.0013419999999999999,-0.000122,-0.000915,0.8400000000000001,-1.3125000000000002,-4.0600000000000005,0.8376875,-0.114375,-0.20875,1.081,0.80765625,-0.52621875,-1.106625,1.0073125,0.01679197899186967,0.035762473052431375,True
715,223887,1,223812,3441.0,38542.0,45385.0,0.000915,0.003355,0.003294,0.8225000000000001,-1.155,-4.0600000000000005,0.83275,-0.11759375,-0.2115,1.0794375,0.80678125,-0.5311875,-1.1025,1.00746875,0.016859915566663865,0.03549447266208545,True
716,223888,1,223813,3441.0,38541.0,45381.0,-0.002196,0.00042699999999999997,0.0037819999999999998,0.8225000000000001,-1.1375000000000002,-3.7275000000000005,0.83946875,-0.11615625,-0.2070625,1.07834375,0.8079375,-0.5294375,-1.10034375,1.00703125,0.01684837860631741,0.035588407031278205,True
717,223889,1,223814,3442.0,38541.0,45367.0,-0.004758,0.001586,-0.002806,0.5425000000000001,-2.0825,-3.6400000000000006,0.83934375,-0.11515625,-0.20750000000000002,1.08375,0.80190625,-0.5301875,-1.10240625,1.0092812500000001,0.016919204143873746,0.03565021779535577,True
718,223890,1,223815,3442.0,38537.0,45350.0,-0.000549,-0.000732,-0.005063,0.2625,-2.7825,-3.535,0.83028125,-0.1131875,-0.21228125,1.0801875,0.80703125,-0.53128125,-1.102625,1.01125,0.01704329039071288,0.0354681532309868,True
719,223891,1,223816,3443.0,38533.0,45338.0,0.005307,-0.003111,0.0028669999999999998,0.1925,-2.3975000000000004,-3.2725000000000004,0.83684375,-0.11265625,-0.208875,1.0752187500000001,0.80565625,-0.5266875,-1.10140625,1.01053125,0.01688084662879975,0.03555702183020124,True
720,223892,1,223817,3442.0,38533.0,45334.0,0.00488,-0.001098,0.0026839999999999998,0.43750000000000006,-2.3975000000000004,-3.1325000000000003,0.8425,-0.108125,-0.210375,1.069125,0.80375,-0.5311875,-1.09959375,1.00334375,0.0172459038112199,0.035427615237796424,True
721,223893,1,223818,3442.0,38534.0,45333.0,-0.001403,0.000183,-0.001769,0.36750000000000005,-2.1175,-2.8875,0.8417187500000001,-0.11125,-0.21153125,1.0654375,0.80575,-0.53128125,-1.10334375,1.0104375,0.01712227118182015,0.03552564586142036,True
722,223894,1,223819,3444.0,38537.0,45332.0,0.0,-0.0015249999999999999,-0.002196,-0.08750000000000001,-1.9775000000000003,-2.9575000000000005,0.850875,-0.10128125,-0.2141875,1.0619375,0.80771875,-0.5275625,-1.10325,1.0094375,0.01737968255100767,0.03541623096610997,True
723,223895,1,223820,3442.0,38535.0,45329.0,0.0023179999999999997,-0.002623,-0.0028669999999999998,-0.22750000000000004,-1.7325000000000002,-3.0100000000000002,0.84465625,-0.1065,-0.21634375,1.06328125,0.80703125,-0.53040625,-1.1033125,1.01046875,0.017280849150225548,0.035332737462436474,True
724,223896,1,223821,3441.0,38536.0,45327.0,0.004026,-0.00183,0.000976,-0.29750000000000004,-1.4175000000000002,-3.1675000000000004,0.848,-0.107,-0.21365625,1.061625,0.807,-0.52959375,-1.0965,1.017125,0.017227914750932227,0.03517796306257845,True
725,223897,1,223822,3443.0,38536.0,45328.0,0.000183,0.001403,0.002379,-0.29750000000000004,-1.4175000000000002,-3.4650000000000003,0.8495,-0.10659375,-0.21531250000000002,1.0635625,0.8004687500000001,-0.53403125,-1.10003125,1.01771875,0.017422228562621562,0.035247715080036005,True
726,223898,1,223823,3441.0,38539.0,45326.0,-0.00244,0.000732,0.002074,-0.35000000000000003,-1.1375000000000002,-3.6925000000000003,0.85028125,-0.10475,-0.21475,1.0675000000000001,0.79221875,-0.532,-1.09959375,1.0164375,0.017416028045002446,0.03525330962777037,True
727,223899,1,223824,3440.0,38538.0,45323.0,-0.0006709999999999999,0.00061,0.000366,-0.2625,-1.2950000000000002,-3.4825000000000004,0.85,-0.108,-0.214625,1.06290625,0.80025,-0.53353125,-1.100125,1.017375,0.017344883851565396,0.03527870877137066,True
728,223900,1,223825,3439.0,38541.0,45323.0,-0.000366,0.00122,0.002379,-0.36750000000000005,-1.2775,-3.5525,0.85084375,-0.10846875,-0.2129375,1.06865625,0.79940625,-0.5325,-1.1001875,1.01425,0.01728446958116784,0.03534834152135318,True
729,223901,1,223826,3440.0,38539.0,45322.0,-0.0015249999999999999,-0.00061,0.0021349999999999997,-0.31500000000000006,-1.1900000000000002,-3.3950000000000005,0.8478125,-0.10859375,-0.21353125,1.0621875,0.8008125,-0.530375,-1.1024375,1.0095,0.017194243871118974,0.03541115280139628,True
730,223902,1,223827,3438.0,38542.0,45320.0,-0.002806,-0.000549,0.0008539999999999999,-0.15750000000000003,-1.2950000000000002,-3.1500000000000004,0.8553437500000001,-0.1025625,-0.21453125,1.0615937500000001,0.80721875,-0.5305,-1.1033125,1.0099375,0.017445119341228266,0.03540493908921381,True
731,223903,1,223828,3436.0,38541.0,45321.0,0.001281,0.000305,-0.000915,-0.10500000000000001,-1.8550000000000002,-3.325,0.84978125,-0.1070625,-0.21240625,1.06675,0.80225,-0.5306875,-1.1013125,1.01046875,0.01726918579024742,0.035412739871670054,True
732,223904,1,223829,3435.0,38538.0,45320.0,0.003172,-0.0042699999999999995,0.000976,-0.17500000000000002,-2.1,-3.1850000000000005,0.8492500000000001,-0.11006250000000001,-0.213,1.0644375,0.8054375,-0.53046875,-1.1015625,1.01028125,0.017138125418006946,0.035398692810457516,True
733,223905,1,223830,3434.0,38537.0,45320.0,0.000122,-0.0021349999999999997,-0.004026,0.17500000000000002,-2.31,-3.22,0.8489375,-0.110375,-0.21321875,1.07040625,0.8086875,-0.5310312500000001,-1.101625,1.00628125,0.017147923612057688,0.035392379975400005,True
734,223906,1,223831,3436.0,38539.0,45317.0,0.000244,-0.002013,-0.0015249999999999999,0.052500000000000005,-2.205,-3.3775000000000004,0.85040625,-0.10840625,-0.21353125,1.06415625,0.80575,-0.5317500000000001,-1.10196875,1.0106875,0.01725697310628064,0.035393140229289785,True
735,223907,1,223832,3437.0,38537.0,45316.0,0.001281,0.000793,-0.000305,0.385,-2.1350000000000002,-3.535,0.8464375000000001,-0.10715625000000001,-0.2135,1.0577812500000001,0.8065,-0.53096875,-1.1026875,1.00984375,0.01727663119704557,0.035422004118084965,True
736,223908,1,223833,3433.0,38539.0,45315.0,-0.002013,-0.00061,0.0,0.5075000000000001,-2.1875,-3.4825000000000004,0.8495625,-0.10953125,-0.2141875,1.0643125,0.8055,-0.5306875,-1.10096875,1.00353125,0.01716854653992066,0.03532856675103426,True
737,223909,1,223834,3432.0,38538.0,45318.0,-0.000488,-0.000976,0.003477,0.17500000000000002,-2.1350000000000002,-3.6750000000000003,0.84946875,-0.10671875,-0.21575,1.0589375,0.80571875,-0.53159375,-1.1033125,1.01053125,0.01731950252926392,0.035356389719484224,True
738,223910,1,223835,3431.0,38539.0,45318.0,0.000915,0.000244,0.0018909999999999999,0.2625,-2.2225,-3.115,0.8562500000000001,-0.1065,-0.21775,1.0626875,0.79978125,-0.53078125,-1.101,1.01421875,0.01729587189564132,0.03518784112186765,True
739,223911,1,223836,3430.0,38537.0,45318.0,0.0015249999999999999,0.002623,0.001464,0.24500000000000002,-2.3800000000000003,-3.2725000000000004,0.857125,-0.1063125,-0.21434375,1.06784375,0.8005,-0.5318437500000001,-1.10015625,1.01153125,0.017346076973933117,0.03529111497064883,True
740,223912,1,223837,3428.0,38535.0,45317.0,0.002196,-0.000122,-0.00183,0.22750000000000004,-2.5025000000000004,-3.6925000000000003,0.84928125,-0.10953125,-0.21584375,1.06334375,0.80034375,-0.531125,-1.09846875,1.0110937500000001,0.017186074833502336,0.03516648799540809,True
741,223913,1,223838,3428.0,38534.0,45319.0,-0.001098,-0.00122,-0.003477,0.45500000000000007,-2.31,-3.8500000000000005,0.8491562500000001,-0.10884375,-0.21334375,1.06828125,0.8000625,-0.534125,-1.09853125,1.0106875,0.017334274199711626,0.03526849803213086,True
742,223914,1,223839,3428.0,38535.0,45320.0,-0.001769,0.003294,-0.0030499999999999998,0.6300000000000001,-1.9600000000000002,-3.99,0.84878125,-0.10734375,-0.2164375,1.05865625,0.80978125,-0.5308437500000001,-1.102375,1.009875,0.017263980167824437,0.03529297526628457,True
743,223915,1,223840,3427.0,38535.0,45319.0,-0.0013419999999999999,0.000549,-0.0028669999999999998,0.56,-2.1525000000000003,-3.7800000000000002,0.8554375000000001,-0.1043125,-0.213875,1.06728125,0.80609375,-0.533375,-1.1006562500000001,1.01125,0.017488930895158128,0.03532900658722818,True
744,223916,1,223841,3427.0,38537.0,45322.0,0.000976,-0.000549,-0.0011589999999999999,0.5950000000000001,-2.0125,-3.5875000000000004,0.85484375,-0.10596875,-0.2136875,1.0631875,0.819375,-0.5308437500000001,-1.10353125,1.01996875,0.017320032051486207,0.035446955296378875,True
745,223917,1,223842,3425.0,38537.0,45323.0,0.0018909999999999999,0.000976,-0.000488,0.525,-1.8725000000000003,-3.5525,0.83934375,-0.105,-0.2136875,1.06909375,0.792125,-0.53515625,-1.0918125,1.01190625,0.01753224008915778,0.03499647544393216,True
746,223918,1,223843,3426.0,38537.0,45322.0,0.002989,-0.000305,0.003721,0.4025,-1.7850000000000001,-3.2375000000000003,0.84965625,-0.10365625,-0.2168125,1.06290625,0.8105625,-0.525625,-1.10596875,1.0055,0.017205219031115413,0.03541612987947338,True
747,223919,1,223844,3426.0,38536.0,45322.0,0.001952,-0.0018909999999999999,0.001586,0.2625,-1.5750000000000002,-3.3425000000000002,0.85284375,-0.1066875,-0.21506250000000002,1.06275,0.80778125,-0.5289375000000001,-1.10159375,1.00596875,0.01721436160861024,0.03531772758452837,True
748,223920,1,223845,3426.0,38537.0,45322.0,0.001464,-0.001769,-0.0008539999999999999,0.22750000000000004,-1.6275000000000002,-3.3950000000000005,0.8564375,-0.1054375,-0.20828125,1.0631875,0.80375,-0.52809375,-1.1027500000000001,1.0055,0.017231516411665704,0.035632301241895814,True
749,223921,1,223846,3423.0,38537.0,45323.0,0.002379,-0.002562,6.1e-05,0.17500000000000002,-1.435,-3.5000000000000004,0.85675,-0.1063125,-0.21553125,1.06234375,0.81740625,-0.52865625,-1.09915625,1.01034375,0.017218381051754515,0.035205366714269534,True
750,223922,1,223847,3424.0,38539.0,45323.0,-0.000183,-0.001037,0.001464,0.3325,-1.2775,-3.7800000000000002,0.8395312500000001,-0.1089375,-0.21478125,1.06896875,0.79559375,-0.53365625,-1.099,1.02725,0.017311677708046473,0.0352292422008845,True
751,223923,1,223848,3424.0,38537.0,45321.0,-0.003904,0.001281,0.001098,0.5950000000000001,-0.9975,-4.025,0.8498125,-0.10815625,-0.2129375,1.06665625,0.7886875,-0.53640625,-1.10125,1.00771875,0.01745365623786083,0.03538917384592401,True
752,223924,1,223849,3424.0,38538.0,45322.0,-0.001281,0.00244,-0.0023179999999999997,0.665,-1.1025,-4.1475,0.8468125,-0.10578125000000001,-0.21578125,1.0628125,0.81353125,-0.529,-1.1063125,1.00334375,0.017253811814586816,0.03547041207266101,True
753,223925,1,223850,3424.0,38537.0,45322.0,-0.000366,0.000244,-0.002196,0.665,-1.155,-4.130000000000001,0.8555625,-0.107125,-0.21621875000000002,1.06228125,0.81478125,-0.5286875,-1.106625,1.00496875,0.01718650865440721,0.035464991809930645,True
754,223926,1,223851,3421.0,38537.0,45322.0,-0.001098,6.1e-05,-0.0026839999999999998,0.6300000000000001,-1.1375000000000002,-4.2175,0.84796875,-0.10968750000000001,-0.214125,1.06815625,0.8098125,-0.530625,-1.10165625,1.0147187500000001,0.017159672857907208,0.03535747765647934,True
755,223927,1,223852,3422.0,38539.0,45322.0,-0.0026839999999999998,0.00183,0.001281,0.6125,-1.0150000000000001,-4.2875000000000005,0.84275,-0.1074375,-0.21515625,1.06846875,0.80140625,-0.5311875,-1.09890625,1.0153125,0.01727392936032958,0.03521069767731413,True
756,223928,1,223853,3421.0,38539.0,45325.0,0.001952,0.0018909999999999999,0.001647,0.5425000000000001,-1.05,-4.095000000000001,0.849875,-0.10943750000000001,-0.2141875,1.0681875,0.801,-0.53121875,-1.101,1.00384375,0.017193652475990414,0.03532976773833712,True
757,223929,1,223854,3422.0,38538.0,45324.0,0.002806,6.1e-05,0.002745,0.45500000000000007,-1.2950000000000002,-3.8850000000000002,0.8491875,-0.10853125,-0.21378125,1.06540625,0.80403125,-0.53109375,-1.09446875,1.01365625,0.017225587424123723,0.0350948852025409,True
758,223930,1,223855,3423.0,38540.0,45326.0,0.000488,-0.000549,0.001403,0.6125,-1.3825,-3.8850000000000002,0.84909375,-0.10968750000000001,-0.21378125,1.06296875,0.80303125,-0.53115625,-1.1028437500000001,1.01190625,0.017180957379454954,0.03541680412204295,True
759,223931,1,223856,3424.0,38538.0,45327.0,-0.000488,-0.000244,0.001647,0.7875000000000001,-1.4000000000000001,-3.8500000000000005,0.854375,-0.1059375,-0.20946875,1.06265625,0.8032812500000001,-0.5308437500000001,-1.10053125,1.01628125,0.017321305957933065,0.03549974664380858,True
760,223932,1,223857,3422.0,38540.0,45329.0,-0.000488,0.000305,0.001281,0.8750000000000001,-1.5050000000000001,-3.8150000000000004,0.84965625,-0.109,-0.2146875,1.06815625,0.79971875,-0.534375,-1.09490625,1.0168125000000001,0.017337918736466694,0.035075594275232644,True
761,223933,1,223858,3424.0,38539.0,45332.0,-0.000122,-0.002257,-0.003355,0.6825000000000001,-1.8725000000000003,-3.6050000000000004,0.84928125,-0.10928125,-0.2139375,1.0675000000000001,0.795125,-0.5340625,-1.1004375,1.0109062500000001,0.017313938529340583,0.035318109495103424,True
762,223934,1,223859,3423.0,38542.0,45335.0,0.0,-0.002562,-0.003477,0.7000000000000001,-1.9250000000000003,-3.6225000000000005,0.849375,-0.104125,-0.21634375,1.062625,0.7969375,-0.5310312500000001,-1.1008437500000001,1.01821875,0.017402702954039083,0.0352378592851087,True
763,223935,1,223860,3421.0,38541.0,45335.0,-0.00042699999999999997,-0.001098,-0.000122,0.5950000000000001,-1.9075000000000002,-3.6750000000000003,0.8499375,-0.10965625,-0.21403125,1.057,0.7995,-0.53125,-1.0988125,1.011375,0.017185987261146497,0.035251916798852534,True
764,223936,1,223861,3422.0,38543.0,45334.0,-0.000549,0.00061,0.0017079999999999999,0.56,-1.7325000000000002,-3.6925000000000003,0.84903125,-0.10875,-0.2185625,1.06609375,0.79971875,-0.5306875,-1.10390625,1.01596875,0.017200394403948115,0.035267170821274084,True
765,223937,1,223862,3423.0,38541.0,45336.0,0.00061,0.001098,0.001464,0.665,-1.8025000000000002,-3.8500000000000005,0.85046875,-0.10956250000000001,-0.2129375,1.0610625,0.800875,-0.530875,-1.1026562500000001,1.0016875,0.01717478483747522,0.03544321131354377,True
766,223938,1,223863,3426.0,38543.0,45338.0,0.000915,0.0,-0.0025009999999999998,0.5950000000000001,-1.8550000000000002,-3.8850000000000002,0.8639687500000001,-0.10578125000000001,-0.22028125,1.05990625,0.8019375,-0.5333125,-1.1004375,1.018125,0.01742656031467418,0.03506537485651395,True
767,223939,1,223864,3424.0,38543.0,45337.0,-0.0011589999999999999,6.1e-05,-0.002013,0.7350000000000001,-1.8025000000000002,-3.99,0.851875,-0.10484375,-0.21653125,1.0596875000000001,0.79996875,-0.5331875,-1.096375,1.01153125,0.017459767508808222,0.03505859910046769,True
768,223940,1,223865,3424.0,38544.0,45341.0,-0.0015249999999999999,0.00061,0.000976,0.8400000000000001,-1.6275000000000002,-3.9725000000000006,0.84790625,-0.1128125,-0.2105,1.05953125,0.80634375,-0.5301875,-1.1015,1.01034375,0.01701474968342578,0.035495886699998,True
769,223941,1,223866,3426.0,38547.0,45341.0,0.000488,0.0017079999999999999,0.0023179999999999997,0.8750000000000001,-1.5050000000000001,-4.0075,0.8630625000000001,-0.1059375,-0.213,1.05784375,0.799,-0.53340625,-1.10040625,1.0129375,0.017423946175431713,0.03535425845946219,True
770,223942,1,223867,3426.0,38547.0,45343.0,0.0013419999999999999,-0.000549,0.002074,0.56,-1.5225000000000002,-3.9375000000000004,0.852375,-0.107875,-0.213875,1.059125,0.80471875,-0.5308437500000001,-1.10365625,1.0110937500000001,0.017242323758227845,0.03544428911625174,True
771,223943,1,223868,3426.0,38542.0,45342.0,6.1e-05,-0.0011589999999999999,-0.0023179999999999997,0.28,-1.5050000000000001,-4.0075,0.85128125,-0.10665625000000001,-0.213125,1.04953125,0.80521875,-0.5300312500000001,-1.1041875,1.01040625,0.017259456202282662,0.035494576353048674,True
772,223944,1,223869,3426.0,38545.0,45343.0,-0.001098,0.001647,-0.00183,0.31500000000000006,-1.3650000000000002,-4.0425,0.85409375,-0.1068125,-0.214875,1.06525,0.8045,-0.5309375000000001,-1.1028125,1.010875,0.017289392221556964,0.03537203251627681,True
773,223945,1,223870,3426.0,38545.0,45344.0,-0.0006709999999999999,0.001037,0.000732,0.385,-1.2950000000000002,-4.0075,0.8454375000000001,-0.1135,-0.21171875,1.06715625,0.8043125,-0.531125,-1.1009375000000001,1.01075,0.017024290569633473,0.035425718660906595,True
774,223946,1,223871,3428.0,38545.0,45345.0,0.000122,0.000305,0.002806,0.47250000000000003,-1.1725,-4.0075,0.8455625,-0.10925,-0.21465625,1.0591875,0.803875,-0.5298437500000001,-1.1020625,1.013875,0.01714620583345542,0.03535192576307226,True
775,223947,1,223872,3426.0,38547.0,45347.0,-0.0017079999999999999,0.001098,0.0008539999999999999,0.6475000000000001,-1.4175000000000002,-3.9725000000000006,0.85346875,-0.10821875,-0.21446875,1.07,0.7995625000000001,-0.5318437500000001,-1.09996875,1.0112812500000001,0.017268371848324693,0.03527892838512,True
776,223948,1,223873,3427.0,38545.0,45351.0,0.001647,0.000549,0.0,0.6125,-1.715,-3.6225000000000005,0.84546875,-0.11171875,-0.21303125,1.06203125,0.8044687500000001,-0.5308437500000001,-1.1005625,1.010625,0.017085633265264268,0.03535901834869239,True
777,223949,1,223874,3426.0,38549.0,45351.0,0.0008539999999999999,-0.000793,-0.001037,0.49000000000000005,-1.7850000000000001,-3.5525,0.853,-0.10696875,-0.21596875000000001,1.06234375,0.8024687500000001,-0.53109375,-1.1028437500000001,1.01140625,0.0172892820973382,0.03532966260047729,True
778,223950,1,223875,3428.0,38548.0,45352.0,-0.00122,-0.0008539999999999999,-0.00122,0.49000000000000005,-1.7500000000000002,-3.4125000000000005,0.85378125,-0.1060625,-0.21084375,1.06075,0.80140625,-0.53115625,-1.1015,1.01125,0.017328728644822846,0.03548219229926498,True
779,223951,1,223876,3429.0,38549.0,45353.0,-0.001464,-0.002257,-0.0017079999999999999,0.56,-1.7675,-3.325,0.85065625,-0.1080625,-0.21434375,1.0677812500000001,0.80584375,-0.5304375,-1.10371875,1.01115625,0.017218404686015078,0.03542801801027985,True
780,223952,1,223877,3427.0,38551.0,45357.0,-0.001403,-0.000732,0.001586,0.56,-1.7500000000000002,-3.2900000000000005,0.8555,-0.1065,-0.21703125,1.0601875,0.8140937500000001,-0.52659375,-1.0946875,1.0125,0.01712809182889491,0.03497378678256105,True
781,223953,1,223878,3428.0,38551.0,45357.0,0.0030499999999999998,0.00042699999999999997,0.0008539999999999999,0.43750000000000006,-1.995,-3.43,0.85003125,-0.111,-0.21634375,1.0629375,0.8004375,-0.53309375,-1.102625,1.006,0.017205076306366786,0.035306317566389966,True
782,223954,1,223879,3427.0,38551.0,45358.0,0.002806,-0.002013,-0.0021349999999999997,0.385,-2.2575000000000003,-3.3950000000000005,0.84959375,-0.11009375,-0.21675,1.0608125,0.78853125,-0.5427500000000001,-1.102625,0.9999375,0.017628678530319547,0.035290133999930286,True
783,223955,1,223880,3428.0,38552.0,45361.0,-0.000488,-0.0040869999999999995,-0.006161,0.24500000000000002,-2.3275,-3.4475000000000002,0.8564375,-0.1063125,-0.21709375,1.063,0.82065625,-0.52671875,-1.10690625,1.01096875,0.01714074574284422,0.03544094565613794,True
784,223956,1,223881,3428.0,38554.0,45363.0,0.001647,-0.0042699999999999995,-0.0008539999999999999,0.36750000000000005,-1.7675,-3.4650000000000003,0.85,-0.10871875,-0.21378125,1.0677812500000001,0.78909375,-0.54015625,-1.09409375,1.0127187500000001,0.01758087827986018,0.035080465896482116,True
785,223957,1,223882,3430.0,38553.0,45364.0,0.0006709999999999999,0.004392,0.000976,0.7000000000000001,-1.4525000000000001,-3.6750000000000003,0.84928125,-0.1069375,-0.21659375,1.06225,0.80753125,-0.5294375,-1.1066875,1.0033750000000001,0.01722420255254528,0.035452456641283325,True
786,223958,1,223883,3430.0,38552.0,45366.0,0.000122,-0.000244,0.00122,0.6825000000000001,-1.3650000000000002,-3.7800000000000002,0.84446875,-0.10471875,-0.21753125,1.0623125,0.82196875,-0.52753125,-1.10796875,0.9996875000000001,0.01723828198159976,0.0354643383885843,True
787,223959,1,223884,3428.0,38553.0,45365.0,-0.001769,-0.0011589999999999999,0.00122,0.6125,-1.225,-3.9375000000000004,0.85765625,-0.10653125000000001,-0.21596875000000001,1.0624375,0.8250937500000001,-0.5273125,-1.1090625,0.9995625,0.01715561988293662,0.03556858206075993,True
788,223960,1,223885,3431.0,38553.0,45366.0,0.00122,-0.000488,0.001098,0.6825000000000001,-0.8925000000000001,-4.1825,0.85546875,-0.1059375,-0.216625,1.0629375,0.8210000000000001,-0.5271250000000001,-1.108875,0.9939375,0.017172314325466193,0.035535244012326314,True
789,223961,1,223886,3431.0,38553.0,45367.0,0.003843,0.00244,0.004697,0.8750000000000001,-0.47250000000000003,-4.3925,0.8543437500000001,-0.10628125000000001,-0.21321875,1.06471875,0.82078125,-0.5285625,-1.108,1.0009375,0.017215898811844356,0.03563729687748925,True
790,223962,1,223887,3431.0,38553.0,45367.0,-0.005978,0.0006709999999999999,0.0026839999999999998,0.9100000000000001,-0.47250000000000003,-4.340000000000001,0.84965625,-0.1069375,-0.215375,1.0524375,0.8162812500000001,-0.5289375000000001,-1.1064687500000001,0.99965625,0.01720416956502906,0.0354925959071803,True
791,223963,1,223888,3432.0,38553.0,45367.0,-0.005856,-0.000793,-0.002257,0.7175,-0.805,-4.305000000000001,0.854625,-0.10362500000000001,-0.2175625,1.06290625,0.82221875,-0.52675,-1.102625,1.00053125,0.017251572262937408,0.03525776686701092,True
792,223964,1,223889,3430.0,38555.0,45369.0,-0.001952,-0.0015249999999999999,-0.003904,0.6825000000000001,-1.1900000000000002,-4.305000000000001,0.857875,-0.1065,-0.2156875,1.06240625,0.8135,-0.5268125,-1.10034375,1.00290625,0.017136857877475927,0.03524478623923228,True
793,223965,1,223890,3433.0,38555.0,45369.0,0.0015249999999999999,-0.001403,-0.004026,0.6475000000000001,-1.5225000000000002,-4.235,0.857125,-0.1056875,-0.2141875,1.0659687500000001,0.79559375,-0.52915625,-1.097875,1.01721875,0.017263893861004697,0.03520965420379216,True
794,223966,1,223891,3432.0,38558.0,45370.0,0.002745,0.0008539999999999999,-0.00244,0.665,-1.5750000000000002,-4.165,0.8488125,-0.1089375,-0.21481250000000002,1.06709375,0.79925,-0.53109375,-1.0999375,1.01265625,0.017209026809087955,0.03526403203195227,True
795,223967,1,223892,3434.0,38557.0,45374.0,-0.000305,-0.00122,-0.000976,0.5775,-1.5575,-3.99,0.84928125,-0.10634375,-0.21675,1.051,0.8009375,-0.532375,-1.099625,1.017125,0.01736608257455709,0.03517482830918789,True
796,223968,1,223893,3434.0,38558.0,45372.0,-0.0030499999999999998,-0.0021349999999999997,-0.0006709999999999999,0.56,-1.5225000000000002,-3.9725000000000006,0.8391875,-0.10740625000000001,-0.21425,1.0669375,0.800125,-0.53434375,-1.098125,1.01146875,0.017401627055950903,0.03521677416141644,True
797,223969,1,223894,3434.0,38556.0,45373.0,-0.001403,-0.000366,0.001586,0.6475000000000001,-1.3475000000000001,-4.0075,0.84959375,-0.106125,-0.21590625,1.06215625,0.7999375,-0.5306875,-1.099625,1.0169375,0.017307403227080364,0.03520844434926817,True
798,223970,1,223895,3434.0,38555.0,45372.0,0.0034159999999999998,0.0030499999999999998,0.003538,0.8225000000000001,-1.2950000000000002,-3.99,0.8548125,-0.1059375,-0.21290625,1.06309375,0.7997500000000001,-0.533375,-1.0996875,1.009875,0.017422694594608365,0.03533037014903074,True
799,223971,1,223896,3436.0,38557.0,45377.0,0.004514,0.002806,0.0018909999999999999,0.7525000000000001,-1.0150000000000001,-3.8675,0.83984375,-0.10640625000000001,-0.21409375,1.065125,0.79921875,-0.535,-1.0987500000000001,1.017125,0.017468667210108008,0.03524702425419593,True
800,223972,1,223897,3436.0,38558.0,45376.0,-0.0050019999999999995,-0.002013,0.0023179999999999997,0.77,-0.5775,-4.112500000000001,0.8495625,-0.108625,-0.2065625,1.0684375,0.7997500000000001,-0.531375,-1.1019375,1.0086875,0.017233033207474106,0.03566955737978394,True
801,223973,1,223898,3437.0,38557.0,45377.0,-0.001464,-0.000122,0.0025009999999999998,0.7875000000000001,-0.7175,-4.235,0.85003125,-0.108625,-0.21406250000000002,1.06325,0.8063125,-0.53015625,-1.10203125,1.01075,0.017184205665220744,0.03537437831848767,True
802,223974,1,223899,3438.0,38559.0,45378.0,0.0034159999999999998,0.000915,-0.001647,0.5075000000000001,-1.0325000000000002,-4.0075,0.8559375,-0.10634375,-0.21565625,1.063625,0.80125,-0.5319375000000001,-1.10025,1.00484375,0.017348558384351013,0.0352424278642643,True
803,223975,1,223900,3438.0,38559.0,45379.0,0.004697,0.000488,-0.003965,0.56,-1.1375000000000002,-3.7100000000000004,0.8405312500000001,-0.109625,-0.21409375,1.08353125,0.7996562500000001,-0.53171875,-1.10178125,1.001875,0.0172060406489048,0.03536352624378001,True
804,223976,1,223901,3439.0,38557.0,45380.0,-0.000488,-0.000122,-0.0025009999999999998,0.5075000000000001,-0.9625000000000001,-3.8325000000000005,0.8476250000000001,-0.113875,-0.21156250000000001,1.0679687500000001,0.806625,-0.53075,-1.10221875,1.006375,0.01699397694730084,0.035481176340238854,True
805,223977,1,223902,3438.0,38559.0,45382.0,-0.005124,0.00366,-0.00042699999999999997,0.6825000000000001,-0.9625000000000001,-3.7975000000000003,0.8463437500000001,-0.10921875,-0.20965625000000002,1.0620625000000001,0.80278125,-0.53090625,-1.09596875,1.01396875,0.017190049796876133,0.0353169271459186,True
806,223978,1,223903,3438.0,38560.0,45382.0,-0.000915,0.000488,0.0028669999999999998,0.7525000000000001,-1.155,-3.6225000000000005,0.85009375,-0.10496875,-0.2166875,1.06078125,0.80025,-0.5336875,-1.08984375,1.012375,0.01747469678172105,0.034801183247703565,True
807,223979,1,223904,3441.0,38564.0,45384.0,0.0008539999999999999,-0.000366,-6.1e-05,0.56,-1.3650000000000002,-3.7800000000000002,0.84275,-0.11021875,-0.21109375,1.07125,0.8062812500000001,-0.53040625,-1.10259375,1.01084375,0.017129251579353685,0.035514258362245935,True
808,223980,1,223905,3440.0,38564.0,45383.0,0.003843,-0.009089,0.0011589999999999999,0.4025,-1.54,-3.5000000000000004,0.8485312500000001,-0.1070625,-0.2115,1.06134375,0.8039375,-0.5235,-1.0992187500000001,1.01521875,0.01698116092727384,0.03536838173498927,True
809,223981,1,223906,3441.0,38562.0,45384.0,0.0011589999999999999,-0.0006709999999999999,0.00244,0.49000000000000005,-1.3125000000000002,-3.8500000000000005,0.8602500000000001,-0.1043125,-0.216875,1.05734375,0.7999375,-0.5336875,-1.09740625,1.0173125,0.017501445716221826,0.03508455181499084,True
810,223982,1,223907,3443.0,38565.0,45389.0,0.006161,0.000122,0.00488,0.7350000000000001,-1.6275000000000002,-3.4650000000000003,0.867,-0.10415625,-0.21825,1.0699375,0.79984375,-0.53253125,-1.09909375,1.0098125,0.017461508379817105,0.03509464360640511,True
811,223983,1,223908,3443.0,38565.0,45391.0,0.0030499999999999998,0.005673,0.0028669999999999998,0.5775,-1.225,-4.357500000000001,0.84328125,-0.1135625,-0.21115625000000002,1.0688125,0.8058125,-0.53034375,-1.1020625,1.01025,0.016990436589377187,0.03549135653693795,True
812,223984,1,223909,3443.0,38564.0,45392.0,-0.002074,0.000183,-0.003172,0.47250000000000003,-1.2600000000000002,-4.2,0.848875,-0.10909375,-0.2169375,1.0568125,0.80153125,-0.52971875,-1.0999375,1.0175625,0.017147567172982773,0.03517937046655993,True
813,223985,1,223910,3443.0,38566.0,45391.0,-0.005307,-0.000488,-0.003904,0.7000000000000001,-1.0150000000000001,-3.9375000000000004,0.8674375,-0.1048125,-0.219,1.05715625,0.7995,-0.52875,-1.10034375,1.01721875,0.017283290016817006,0.03511281593504073,True
814,223986,1,223911,3443.0,38566.0,45389.0,-0.0044529999999999995,0.001464,-0.004331,0.665,-0.9275000000000001,-4.357500000000001,0.862375,-0.104875,-0.213875,1.0581875,0.799625,-0.53125,-1.0994375,1.01746875,0.017380891719745224,0.03528216518796487,True
815,223987,1,223912,3443.0,38568.0,45393.0,-0.002989,0.001464,6.1e-05,0.7175,-1.1725,-3.7975000000000003,0.860125,-0.10400000000000001,-0.21509375,1.05859375,0.8004375,-0.53353125,-1.099,1.01653125,0.017507926014523494,0.035216791505637675,True
816,223988,1,223913,3446.0,38570.0,45392.0,-0.0035989999999999998,-0.002074,0.002074,0.5950000000000001,-1.3650000000000002,-3.4125000000000005,0.85559375,-0.1053125,-0.21565625,1.06253125,0.7946875,-0.533125,-1.0992187500000001,1.0110937500000001,0.017438157593050212,0.0352027889314284,True
817,223989,1,223914,3446.0,38570.0,45390.0,-0.002745,-0.001403,0.001769,0.45500000000000007,-1.6275000000000002,-3.5000000000000004,0.8569375,-0.10559375,-0.21303125,1.06153125,0.79921875,-0.5326875,-1.0999375,1.0129062500000001,0.01740917092756348,0.035334998344119385,True
818,223990,1,223915,3447.0,38570.0,45386.0,0.0013419999999999999,-0.001464,-0.001769,0.21000000000000002,-2.2750000000000004,-3.5000000000000004,0.85509375,-0.10575,-0.214625,1.05925,0.80071875,-0.5336875,-1.099625,1.0149375,0.017442852812077272,0.035259490928649335,True
819,223991,1,223916,3447.0,38566.0,45373.0,0.005856,-0.0011589999999999999,-0.004758,0.15750000000000003,-2.5900000000000003,-3.2900000000000005,0.85040625,-0.10446875,-0.2131875,1.06303125,0.7993125,-0.5299375000000001,-1.104,1.00984375,0.01734487705074667,0.0354848828871893,True
820,223992,1,223917,3447.0,38564.0,45360.0,0.003111,-0.000732,0.001403,0.035,-2.0125,-3.2725000000000004,0.8516875,-0.107625,-0.2141875,1.06303125,0.8035,-0.53,-1.1011875,1.01134375,0.017218711781492053,0.0353369735993566,True
821,223993,1,223918,3447.0,38561.0,45349.0,0.0021349999999999997,0.00122,0.002745,0.15750000000000003,-1.7500000000000002,-3.2375000000000003,0.85459375,-0.10584375,-0.2145,1.06340625,0.80678125,-0.526375,-1.10125,1.01153125,0.017146082533599033,0.035326925949902895,True
822,223994,1,223919,3447.0,38559.0,45345.0,0.003294,0.000732,0.001281,0.17500000000000002,-1.4525000000000001,-3.2725000000000004,0.85678125,-0.10559375,-0.2165,1.06184375,0.8023750000000001,-0.5327500000000001,-1.1005625,1.01953125,0.017411674190622742,0.03522082423451666,True
823,223995,1,223920,3448.0,38558.0,45345.0,0.0023179999999999997,-0.00183,-0.000488,0.0175,-1.2775,-3.2900000000000005,0.835875,-0.1091875,-0.21390625,1.06184375,0.7974687500000001,-0.5304375,-1.10253125,1.01103125,0.017172543294427585,0.03539981650256884,True
824,223996,1,223921,3447.0,38558.0,45340.0,-0.0006709999999999999,-0.0030499999999999998,-0.00183,0.0175,-1.05,-3.4125000000000005,0.848875,-0.10715625000000001,-0.21346875,1.062625,0.797125,-0.53034375,-1.10409375,1.01159375,0.01725159273399909,0.03547728146928228,True
825,223997,1,223922,3444.0,38557.0,45339.0,-0.002562,0.002806,0.003843,0.17500000000000002,-0.56,-3.7625,0.8546875,-0.1064375,-0.21484375,1.06325,0.80071875,-0.53153125,-1.0995,1.01934375,0.017328463750097133,0.035245971035279586,True
826,223998,1,223923,3443.0,38558.0,45338.0,-0.003172,0.002257,0.001098,0.14,-0.8925000000000001,-3.8500000000000005,0.85771875,-0.10578125000000001,-0.21434375,1.07059375,0.7954375,-0.5314375,-1.099375,1.01525,0.017351459734065728,0.0352610871784656,True
827,223999,1,223924,3443.0,38560.0,45337.0,-0.0028669999999999998,-0.000488,-0.0021349999999999997,-0.10500000000000001,-1.2425000000000002,-3.8675,0.85,-0.10943750000000001,-0.214,1.06471875,0.8069375,-0.5268125,-1.1018125,1.01040625,0.017017090989707693,0.035368461938754425,True
828,224000,1,223925,3442.0,38562.0,45336.0,-0.002623,-0.001098,-0.002745,-0.035,-1.435,-3.8500000000000005,0.85584375,-0.1064375,-0.21396875,1.0674062500000001,0.8050625,-0.52965625,-1.1004375,1.003875,0.017253350217657455,0.03531686449688377,True
829,224001,1,223926,3442.0,38559.0,45338.0,0.001281,-0.0018909999999999999,-0.000915,0.07,-1.4000000000000001,-3.7275000000000005,0.8491875,-0.10875,-0.2144375,1.06815625,0.8082812500000001,-0.5298125,-1.096625,1.01059375,0.01716533707707713,0.035151638915591234,True
830,224002,1,223927,3441.0,38560.0,45335.0,-0.0015249999999999999,0.001037,0.00244,0.36750000000000005,-1.2950000000000002,-3.6050000000000004,0.844875,-0.10759375,-0.21425,1.0625,0.797125,-0.52809375,-1.09965625,1.01653125,0.01714360701185758,0.03527563250990738,True
831,224003,1,223928,3441.0,38558.0,45337.0,-0.0030499999999999998,0.001952,0.001769,0.4025,-1.5225000000000002,-3.5700000000000003,0.85584375,-0.10675,-0.21321875,1.06296875,0.79915625,-0.53296875,-1.09965625,1.016125,0.017373305055059837,0.035316718729962684,True
832,224004,1,223929,3439.0,38559.0,45337.0,-0.001037,0.0006709999999999999,0.00122,0.4025,-1.8375000000000001,-3.3425000000000002,0.85528125,-0.1028125,-0.21653125,1.06271875,0.792375,-0.53203125,-1.0991875,1.01625,0.017496258080952835,0.03516672601453732,True
833,224005,1,223930,3437.0,38560.0,45335.0,0.001647,-0.000183,-0.0011589999999999999,0.22750000000000004,-2.2225,-3.3950000000000005,0.855625,-0.10628125000000001,-0.21531250000000002,1.0629375,0.79940625,-0.5315625,-1.10071875,1.01665625,0.01733608489063834,0.0352741393112498,True
834,224006,1,223931,3436.0,38561.0,45333.0,0.003172,-0.001403,-0.00183,0.14,-2.3800000000000003,-3.3425000000000002,0.85221875,-0.106625,-0.2141875,1.06634375,0.799125,-0.5328437500000001,-1.0999375,1.0110937500000001,0.017373393575704003,0.035288932492361785,True
835,224007,1,223932,3437.0,38558.0,45331.0,0.001769,-0.001464,-0.001647,0.21000000000000002,-2.4850000000000003,-3.4825000000000004,0.8491875,-0.10615625000000001,-0.21325,1.0670625,0.802125,-0.53028125,-1.1020625,1.00090625,0.01728985475859556,0.035407947056143294,True
836,224008,1,223933,3435.0,38558.0,45331.0,0.00061,-0.000793,-0.000549,0.31500000000000006,-2.3975000000000004,-3.6050000000000004,0.8488125,-0.10740625000000001,-0.214125,1.06271875,0.80709375,-0.53053125,-1.1031875,1.0111875000000001,0.01724891302547718,0.035416319142738344,True
837,224009,1,223934,3432.0,38558.0,45333.0,-0.0013419999999999999,-0.001403,0.000244,0.28,-2.1700000000000004,-3.6925000000000003,0.8539375,-0.1055,-0.2149375,1.0610625,0.80496875,-0.5301875,-1.10146875,1.0083125,0.01731285176682812,0.03531790345933443,True
838,224010,1,223935,3432.0,38558.0,45332.0,-0.0008539999999999999,0.0013419999999999999,-0.00042699999999999997,0.28,-2.0650000000000004,-3.9375000000000004,0.85459375,-0.10540625,-0.214625,1.06565625,0.8000625,-0.5305625,-1.09996875,1.02196875,0.017331695920140437,0.03527270327776802,True
839,224011,1,223936,3432.0,38557.0,45333.0,-0.000488,0.002196,-0.0008539999999999999,0.28,-2.0650000000000004,-3.9375000000000004,0.8505,-0.1065,-0.213875,1.06184375,0.7986875,-0.5306875,-1.10378125,1.00740625,0.017292116252347188,0.03544909195701344,True
840,224012,1,223937,3431.0,38557.0,45336.0,-0.00122,-0.00042699999999999997,-0.001769,0.2625,-1.7325000000000002,-3.8850000000000002,0.8478125,-0.106,-0.21490625,1.0634375,0.80334375,-0.53228125,-1.09821875,1.0235,0.017376339593367415,0.03519423066626989,True
841,224013,1,223938,3430.0,38557.0,45336.0,-0.002013,0.001464,0.000244,0.29750000000000004,-1.435,-3.7625,0.8524375000000001,-0.105625,-0.21478125,1.0551875,0.79571875,-0.53478125,-1.0963125,1.021125,0.01749174959528119,0.035125927364827,True
842,224014,1,223939,3427.0,38556.0,45336.0,-0.002379,0.001403,0.001586,0.42000000000000004,-1.33,-3.6925000000000003,0.84528125,-0.104125,-0.21962500000000001,1.06909375,0.79553125,-0.53753125,-1.0979375,1.0112812500000001,0.017662993297257644,0.034995405498957834,True
843,224015,1,223940,3428.0,38557.0,45338.0,-0.000915,0.00183,0.002074,0.43750000000000006,-1.4525000000000001,-3.5525,0.8435312500000001,-0.1166875,-0.20946875,1.0849375,0.80075,-0.5295,-1.10528125,1.0078125,0.01682922603395911,0.03568223319545564,True
844,224016,1,223941,3426.0,38558.0,45340.0,0.00061,0.0011589999999999999,0.002013,0.21000000000000002,-1.6625,-3.4125000000000005,0.82715625,-0.109875,-0.21356250000000002,1.05146875,0.81403125,-0.5288437500000001,-1.1011250000000001,1.0145625,0.017080656319154876,0.035359470940047516,True
845,224017,1,223942,3424.0,38556.0,45340.0,0.002989,-0.000244,0.000122,0.052500000000000005,-2.0650000000000004,-3.115,0.85759375,-0.11153125,-0.2156875,1.06909375,0.789375,-0.53303125,-1.0991875,1.01259375,0.017180918073464727,0.03520034264057352,True
846,224018,1,223943,3425.0,38556.0,45340.0,0.002257,-0.001098,-0.00042699999999999997,0.0,-2.1175,-3.0100000000000002,0.84384375,-0.10871875,-0.21253125,1.08146875,0.796875,-0.53159375,-1.10353125,1.00796875,0.017237975009267388,0.035493014553480404,True
847,224019,1,223944,3423.0,38557.0,45339.0,-0.00122,-0.0026839999999999998,-0.004148,-0.035,-2.1525000000000003,-2.9225000000000003,0.83778125,-0.1139375,-0.20921875,1.08271875,0.8130000000000001,-0.5296875,-1.1026562500000001,1.0074375,0.016948850245238546,0.035591353006716175,True
848,224020,1,223945,3422.0,38555.0,45339.0,-0.001098,-0.003111,-0.002745,-0.14,-1.995,-3.0275000000000003,0.85975,-0.1021875,-0.22140625,1.05128125,0.807,-0.5313125,-1.0995,1.01925,0.01749294906255016,0.03498451164365824,True
849,224021,1,223946,3422.0,38556.0,45340.0,0.002074,-0.001098,-0.001464,-0.17500000000000002,-1.8200000000000003,-3.2550000000000003,0.87321875,-0.10190625,-0.21759375,1.07603125,0.79590625,-0.53203125,-1.09796875,1.0127187500000001,0.01753319957963122,0.035077539890553885,True
850,224022,1,223947,3423.0,38556.0,45339.0,-0.000122,-0.0021349999999999997,-0.0006709999999999999,-0.14,-1.4875,-3.3950000000000005,0.837125,-0.11325,-0.20853125,1.07203125,0.80478125,-0.53196875,-1.1014375,1.01053125,0.017068289718899954,0.0355719169469876,True
851,224023,1,223948,3421.0,38557.0,45340.0,0.000305,-0.002257,0.0008539999999999999,0.035,-1.1725,-3.7100000000000004,0.85578125,-0.10934375,-0.21646875000000002,1.06025,0.80521875,-0.53,-1.1023125,1.01059375,0.017148644516918058,0.03528932842342713,True
852,224024,1,223949,3421.0,38555.0,45340.0,-0.0006709999999999999,0.001952,0.0026839999999999998,0.36750000000000005,-0.9975,-3.9025000000000003,0.858875,-0.10534375,-0.21315625,1.07646875,0.80103125,-0.52625,-1.10015625,1.00221875,0.017161459660567757,0.035338425433108604,True
853,224025,1,223950,3419.0,38556.0,45337.0,-0.0008539999999999999,0.002745,0.003111,0.5075000000000001,-0.9800000000000001,-3.9725000000000006,0.83715625,-0.105875,-0.21431250000000002,1.05925,0.8085,-0.527,-1.1005,1.01821875,0.017169853630692705,0.03530557160215932,True
854,224026,1,223951,3419.0,38556.0,45340.0,-0.001769,0.00244,0.000976,0.35000000000000003,-0.8400000000000001,-3.9550000000000005,0.85290625,-0.10584375,-0.21403125,1.0695000000000001,0.8004375,-0.53021875,-1.09771875,1.00871875,0.017300090322268324,0.035209873407319146,True
855,224027,1,223952,3417.0,38557.0,45340.0,-0.0013419999999999999,0.000915,-0.000183,0.31500000000000006,-0.8575,-3.6400000000000006,0.8503437500000001,-0.10590625000000001,-0.2185625,1.0626875,0.79978125,-0.5329375000000001,-1.1005,1.016125,0.01740644592601274,0.03513625226589112,True
856,224028,1,223953,3418.0,38558.0,45339.0,0.00122,0.000915,0.0008539999999999999,0.24500000000000002,-0.9275000000000001,-3.5525,0.855125,-0.1055,-0.2175625,1.06265625,0.80134375,-0.531375,-1.100625,1.011375,0.017360421093395705,0.035180896890017674,True
857,224029,1,223954,3415.0,38557.0,45341.0,0.0006709999999999999,0.00122,0.00122,0.15750000000000003,-0.8575,-3.5175000000000005,0.8571875,-0.10571875,-0.2168125,1.06334375,0.7998125,-0.529,-1.1010625,1.01740625,0.01725635981898977,0.035227592457490596,True
858,224030,1,223955,3417.0,38556.0,45342.0,-0.000305,0.00042699999999999997,0.000122,0.08750000000000001,-0.8575,-3.2900000000000005,0.8515,-0.10596875,-0.21471875,1.0684375,0.797625,-0.53325,-1.09959375,1.016125,0.017416414457929547,0.03525455466784198,True
859,224031,1,223956,3416.0,38557.0,45344.0,-0.001403,-0.003294,6.1e-05,-0.15750000000000003,-1.12,-2.9925,0.84865625,-0.10896875,-0.20878125,1.0701875,0.79984375,-0.53359375,-1.0998125,1.0074375,0.017307900519058686,0.03549951817369154,True
860,224032,1,223957,3414.0,38559.0,45347.0,-0.00122,-0.002257,0.0008539999999999999,-0.21000000000000002,-1.155,-2.9575000000000005,0.849625,-0.109875,-0.21406250000000002,1.061,0.793875,-0.53159375,-1.09909375,1.01696875,0.017190841911769388,0.03526148229953521,True
861,224033,1,223958,3415.0,38560.0,45348.0,0.001952,-0.001952,0.001586,-0.1925,-1.4175000000000002,-2.975,0.85475,-0.10646875,-0.21553125,1.06259375,0.7986562500000001,-0.5325,-1.1006875,1.0115,0.017365994089473147,0.035264223340496156,True
862,224034,1,223959,3415.0,38560.0,45348.0,0.002623,-0.000366,-0.000488,-0.10500000000000001,-1.7500000000000002,-2.975,0.856625,-0.10628125000000001,-0.216625,1.0630625,0.80678125,-0.52709375,-1.10184375,1.01565625,0.017157046990126993,0.03526508884432045,True
863,224035,1,223960,3415.0,38558.0,45350.0,0.001098,-0.000793,-0.0062829999999999995,-0.12250000000000001,-2.1,-3.1325000000000003,0.8575,-0.1055625,-0.210625,1.06315625,0.79996875,-0.5324375,-1.10090625,1.00634375,0.01740043157146533,0.03546809191401206,True
864,224036,1,223961,3415.0,38561.0,45352.0,0.0017079999999999999,-0.001098,-0.00061,0.12250000000000001,-1.7500000000000002,-3.4125000000000005,0.8500625,-0.10359375,-0.21446875,1.0686875,0.8033750000000001,-0.53034375,-1.101,1.01096875,0.017396821029057125,0.03531856300545795,True
865,224037,1,223962,3414.0,38559.0,45353.0,-0.00042699999999999997,0.0032329999999999998,0.004026,0.31500000000000006,-1.4000000000000001,-3.535,0.848875,-0.1058125,-0.2186875,1.06271875,0.80025,-0.5321875,-1.10028125,1.0141875,0.017380227507229028,0.03512286341413007,True
866,224038,1,223963,3413.0,38559.0,45353.0,-0.00244,0.0042699999999999995,0.0044529999999999995,0.1925,-1.2950000000000002,-3.5875000000000004,0.85440625,-0.10634375,-0.21059375,1.0695000000000001,0.80259375,-0.5301875,-1.1026562500000001,1.01409375,0.017278455372589388,0.03553657792688772,True
867,224039,1,223964,3413.0,38558.0,45355.0,-0.003904,0.0006709999999999999,0.000183,0.0175,-1.5050000000000001,-3.5525,0.8437187500000001,-0.10659375,-0.21503125,1.0620625000000001,0.7996562500000001,-0.531375,-1.09984375,1.0171875,0.017315835333323145,0.035251713469331855,True
868,224040,1,223965,3414.0,38560.0,45354.0,-0.00061,-0.000366,0.000244,0.0,-1.6275000000000002,-3.4825000000000004,0.85690625,-0.1061875,-0.21646875000000002,1.0618125,0.7993125,-0.532625,-1.100875,1.014125,0.017382465186664697,0.035234080485242056,True
869,224041,1,223966,3415.0,38558.0,45355.0,0.00122,-6.1e-05,0.000732,-0.22750000000000004,-1.7500000000000002,-3.3950000000000005,0.8552500000000001,-0.1058125,-0.21396875,1.06715625,0.80375,-0.52196875,-1.10309375,1.010375,0.01697075199151781,0.03541894114146787,True
870,224042,1,223967,3414.0,38559.0,45358.0,0.0030499999999999998,-0.0034159999999999998,0.0023179999999999997,-0.22750000000000004,-1.4175000000000002,-3.2725000000000004,0.8501562500000001,-0.1089375,-0.21415625,1.07028125,0.80503125,-0.5313125,-1.09990625,1.0034375,0.01721779052792222,0.03528897642794981,True
871,224043,1,223968,3413.0,38559.0,45358.0,-0.000793,-0.002745,-0.001403,-0.10500000000000001,-1.3475000000000001,-3.2375000000000003,0.84946875,-0.1085625,-0.2145,1.0684375,0.8028125,-0.5298125,-1.10165625,1.0029375,0.017172980837093642,0.03534253840321791,True
872,224044,1,223969,3413.0,38558.0,45359.0,-0.002257,-0.000122,-0.003355,0.10500000000000001,-1.12,-3.2900000000000005,0.8508125,-0.10509375,-0.21381250000000002,1.0586875,0.8015,-0.530375,-1.09978125,1.0110937500000001,0.017336924119586435,0.03529786738679246,True
873,224045,1,223970,3412.0,38560.0,45361.0,-0.003538,0.00183,-0.0023179999999999997,0.1925,-0.9975,-3.3950000000000005,0.849875,-0.1063125,-0.216,1.06209375,0.8003125,-0.53278125,-1.10078125,1.01828125,0.017383628283075322,0.03524915185657817,True
874,224046,1,223971,3411.0,38561.0,45360.0,0.0028669999999999998,0.000732,0.000549,0.0,-1.1900000000000002,-3.2900000000000005,0.8538125,-0.10690625000000001,-0.21828125,1.054,0.79515625,-0.52975,-1.1006562500000001,1.0091875000000001,0.017237996718270674,0.03515346336811413,True
875,224047,1,223972,3413.0,38563.0,45365.0,0.001403,0.00042699999999999997,0.0028669999999999998,-0.08750000000000001,-1.4525000000000001,-3.2550000000000003,0.8546875,-0.10571875,-0.21684375,1.06234375,0.7985625000000001,-0.5335,-1.10175,1.0088125000000001,0.01743661727841523,0.035252771221130005,True
876,224048,1,223973,3413.0,38563.0,45366.0,-0.004697,0.00042699999999999997,-0.004209,-0.08750000000000001,-1.9775000000000003,-3.325,0.85203125,-0.10290625,-0.209,1.0623125,0.8160937500000001,-0.52828125,-1.105,1.004875,0.017342226129276793,0.03569010157339175,True
877,224049,1,223974,3413.0,38563.0,45367.0,-0.002989,-0.001464,0.002257,-0.15750000000000003,-1.8725000000000003,-3.3425000000000002,0.8511562500000001,-0.10921875,-0.21359375,1.067625,0.79590625,-0.53590625,-1.0975,1.0208125000000001,0.017390329733591968,0.035218896304412786,True
878,224050,1,223975,3412.0,38564.0,45369.0,0.0017079999999999999,0.000732,0.00122,-0.08750000000000001,-2.0475000000000003,-3.2550000000000003,0.849125,-0.10840625,-0.21440625,1.06328125,0.79334375,-0.53178125,-1.10221875,1.0054375,0.017258224981115056,0.03536788954163664,True
879,224051,1,223976,3414.0,38564.0,45371.0,0.000122,-0.0017079999999999999,0.0006709999999999999,-0.15750000000000003,-1.9425000000000001,-3.1500000000000004,0.8548125,-0.10628125000000001,-0.21746875000000002,1.06328125,0.81665625,-0.52553125,-1.10425,1.016875,0.017094430931032332,0.03532394913211906,True
880,224052,1,223977,3412.0,38565.0,45372.0,-0.002623,-0.004331,-0.001037,-0.10500000000000001,-1.7325000000000002,-3.0450000000000004,0.8491875,-0.10968750000000001,-0.21503125,1.06965625,0.79459375,-0.537,-1.09809375,1.026875,0.017415026286832135,0.03518444503379863,True
881,224053,1,223978,3412.0,38565.0,45373.0,0.000244,-0.0013419999999999999,-0.001586,0.0175,-1.7675,-3.0975,0.85071875,-0.1083125,-0.2146875,1.0656875000000001,0.793,-0.5365,-1.09934375,1.00615625,0.017451042324699934,0.035246190450696546,True
882,224054,1,223979,3413.0,38566.0,45373.0,0.003172,0.000305,-0.000366,-0.08750000000000001,-1.6975000000000002,-3.2725000000000004,0.85003125,-0.1068125,-0.21453125,1.0625,0.8089375,-0.52028125,-1.1050312500000001,0.9980625000000001,0.016862316781133986,0.03547097755554477,True
883,224055,1,223980,3412.0,38563.0,45379.0,0.003355,0.000366,0.000915,-0.035,-1.6450000000000002,-3.2725000000000004,0.85765625,-0.10665625000000001,-0.217,1.06209375,0.8180000000000001,-0.52909375,-1.104625,1.0050000000000001,0.017221895937349907,0.03535703082599322,True
884,224056,1,223981,3414.0,38567.0,45380.0,-0.0026839999999999998,0.000549,-0.002928,-0.22750000000000004,-1.54,-3.4650000000000003,0.85184375,-0.1033125,-0.21396875,1.070375,0.794,-0.537375,-1.0945,1.0173125,0.017689850686962237,0.03508861503516707,True
885,224057,1,223982,3413.0,38568.0,45382.0,-0.001281,-0.0008539999999999999,-0.000549,-0.21000000000000002,-1.3825,-3.5175000000000005,0.849875,-0.1055625,-0.21728125,1.06078125,0.79690625,-0.5256875,-1.10721875,1.01634375,0.017129998904210124,0.03544548318399464,True
886,224058,1,223983,3412.0,38570.0,45383.0,0.0,0.00122,0.000793,-0.21000000000000002,-1.4175000000000002,-3.5175000000000005,0.8498125,-0.10853125,-0.21490625,1.0640625,0.79334375,-0.5364375,-1.099375,1.007125,0.017439624232327942,0.035238676261859114,True
887,224059,1,223984,3412.0,38568.0,45382.0,-6.1e-05,0.000976,0.0046359999999999995,-0.21000000000000002,-1.4700000000000002,-3.6400000000000006,0.8571562500000001,-0.10540625,-0.2170625,1.06328125,0.806125,-0.5305,-1.1004375,1.016,0.017329192230080916,0.03519360967313817,True
888,224060,1,223985,3411.0,38568.0,45383.0,0.000976,0.000183,-0.00042699999999999997,-0.2625,-1.6625,-3.6225000000000005,0.84659375,-0.10553125000000001,-0.21490625,1.067125,0.79934375,-0.5340625,-1.10028125,1.0181875,0.017466787247321963,0.03527350913647631,True
889,224061,1,223986,3412.0,38569.0,45385.0,-0.000488,-0.002196,-0.001647,-0.0175,-1.3475000000000001,-3.5000000000000004,0.85084375,-0.10853125,-0.21490625,1.06840625,0.799875,-0.53134375,-1.1026875,1.01103125,0.01723560292126272,0.035365984219817105,True
890,224062,1,223987,3411.0,38569.0,45384.0,-0.0023179999999999997,0.000305,0.001464,0.10500000000000001,-1.1025,-3.5525,0.8495312500000001,-0.1066875,-0.21481250000000002,1.0564375,0.80425,-0.530375,-1.10290625,1.01003125,0.017271953649302143,0.035378124793817446,True
891,224063,1,223988,3413.0,38569.0,45388.0,-0.002928,0.000915,0.00122,0.14,-1.2075,-3.5875000000000004,0.85478125,-0.1058125,-0.21484375,1.05734375,0.7865,-0.531625,-1.09990625,1.0118125,0.017357696442856927,0.035261585887397494,True
892,224064,1,223989,3413.0,38571.0,45390.0,0.000122,0.0008539999999999999,-0.00244,0.10500000000000001,-1.2950000000000002,-3.5700000000000003,0.8491875,-0.107,-0.21381250000000002,1.06790625,0.7986875,-0.5269375000000001,-1.10240625,1.01103125,0.01712148122854719,0.035398747879000644,True
893,224065,1,223990,3414.0,38575.0,45392.0,0.00122,6.1e-05,-0.000915,0.14,-1.3825,-3.7100000000000004,0.85003125,-0.1070625,-0.21381250000000002,1.06375,0.80721875,-0.53040625,-1.1026875,1.00525,0.01725791842521972,0.03540955525180322,True
894,224066,1,223991,3414.0,38573.0,45391.0,0.000122,-0.00061,0.002623,0.15750000000000003,-1.3825,-3.8500000000000005,0.84978125,-0.10775,-0.214,1.063375,0.80709375,-0.53071875,-1.103875,1.01125,0.017242411619105127,0.035447714745233554,True
895,224067,1,223992,3417.0,38574.0,45396.0,0.000305,0.002989,0.001037,0.28,-1.4000000000000001,-3.7800000000000002,0.85265625,-0.1069375,-0.213875,1.067,0.80653125,-0.52546875,-1.10234375,1.0109062500000001,0.017065168224358607,0.035393856400361016,True
896,224068,1,223993,3416.0,38574.0,45394.0,6.1e-05,0.0013419999999999999,0.002745,0.47250000000000003,-1.54,-3.8150000000000004,0.85009375,-0.11015625,-0.21446875,1.0735625,0.80371875,-0.52996875,-1.10253125,1.0109375,0.017114269662491927,0.035377408403783984,True
897,224069,1,223994,3416.0,38574.0,45394.0,-0.00183,-0.00122,0.0,0.385,-1.9075000000000002,-3.8325000000000005,0.8505,-0.11015625,-0.21531250000000002,1.07453125,0.80534375,-0.53040625,-1.0952187500000001,0.99953125,0.017131799437687664,0.035062704922625955,True
898,224070,1,223995,3417.0,38574.0,45396.0,-0.0015249999999999999,-0.002745,0.000305,0.28,-1.8025000000000002,-3.7275000000000005,0.83925,-0.10884375,-0.213375,1.07475,0.8033750000000001,-0.53159375,-1.10228125,1.01125,0.017232879539267602,0.03541137321931648,True
899,224071,1,223996,3418.0,38576.0,45398.0,0.00042699999999999997,0.00244,-0.002196,0.56,-1.8375000000000001,-3.7625,0.8465625,-0.11134375,-0.212125,1.06471875,0.80825,-0.53121875,-1.10096875,1.011125,0.017115945370631044,0.03541073489444506,True
900,224072,1,223997,3419.0,38575.0,45400.0,-0.00244,0.001769,-0.002013,0.6125,-1.6975000000000002,-3.7975000000000003,0.8491562500000001,-0.105625,-0.21709375,1.06125,0.8065625000000001,-0.53065625,-1.1008437500000001,1.01034375,0.017326534018020822,0.03520797981143563,True
901,224073,1,223998,3421.0,38577.0,45400.0,-6.1e-05,0.001464,-0.000366,0.6300000000000001,-1.5575,-3.6225000000000005,0.8451875,-0.11321875,-0.21175,1.05790625,0.7913125,-0.53075,-1.09553125,1.0106875,0.017020729084924024,0.03521667826816777,True
902,224074,1,223999,3421.0,38579.0,45402.0,0.001464,0.002379,0.0018909999999999999,0.56,-1.54,-3.5175000000000005,0.86278125,-0.10453125,-0.21559375,1.07415625,0.79990625,-0.5327500000000001,-1.10021875,1.0050625,0.017454983644312198,0.03524371675047653,True
903,224075,1,224000,3420.0,38579.0,45404.0,0.002257,0.000305,0.002928,0.5075000000000001,-1.6975000000000002,-3.43,0.83715625,-0.1125,-0.2085,1.07146875,0.80671875,-0.53059375,-1.10159375,1.01009375,0.017043768049845916,0.035579165167550365,True
904,224076,1,224001,3421.0,38576.0,45405.0,0.00042699999999999997,-0.003843,-0.0053679999999999995,0.3325,-2.5200000000000005,-3.5000000000000004,0.8455625,-0.11315625,-0.2125,1.0749375,0.80371875,-0.5300312500000001,-1.0995625,1.010875,0.0169944748847395,0.0353417514747518,True
905,224077,1,224002,3421.0,38579.0,45403.0,0.004392,-0.00549,0.000976,0.43750000000000006,-2.1175,-3.7100000000000004,0.8452500000000001,-0.11081250000000001,-0.21225,1.05984375,0.801625,-0.53034375,-1.1011875,1.01096875,0.01710254264170269,0.03541416118261337,True
906,224078,1,224003,3421.0,38578.0,45409.0,0.003355,0.001037,0.00366,0.6475000000000001,-1.9600000000000002,-3.8500000000000005,0.8533437500000001,-0.106875,-0.21912500000000001,1.0593125,0.80465625,-0.53025,-1.10021875,1.01465625,0.017259302290029657,0.035103030725578833,True
907,224079,1,224004,3421.0,38578.0,45411.0,0.000915,0.003294,0.0040869999999999995,0.5775,-1.5750000000000002,-3.9725000000000006,0.86271875,-0.1053125,-0.21965625,1.0615,0.794625,-0.531625,-1.10015625,1.0150937500000001,0.017378078296892276,0.03507946290174986,True
908,224080,1,224005,3422.0,38580.0,45413.0,-0.005795,0.0,0.001098,0.56,-1.2425000000000002,-3.9375000000000004,0.8493125,-0.1079375,-0.21334375,1.06840625,0.7997500000000001,-0.53190625,-1.10046875,1.01084375,0.017282340217650228,0.035342965457567405,True
909,224081,1,224006,3422.0,38581.0,45410.0,-0.00549,6.1e-05,-0.009089,0.5075000000000001,-1.715,-3.8675,0.8464375000000001,-0.105,-0.2165,1.05790625,0.8034687500000001,-0.52590625,-1.10240625,1.01053125,0.017161700192016353,0.03529168642946331,True
910,224082,1,224007,3423.0,38584.0,45415.0,-0.001037,0.000549,-0.005246,0.6475000000000001,-1.6800000000000002,-3.8850000000000002,0.85496875,-0.10034375,-0.216125,1.06259375,0.8009375,-0.52921875,-1.1021875,1.01103125,0.017484250288240428,0.03529821853175147,True
911,224083,1,224008,3423.0,38586.0,45416.0,0.000976,0.0021349999999999997,0.001952,0.805,-1.3825,-3.8150000000000004,0.8551875,-0.10715625000000001,-0.21421875,1.0689375,0.80496875,-0.5304375,-1.102,1.0110000000000001,0.01725534858479389,0.035366952832443635,True
912,224084,1,224009,3425.0,38585.0,45417.0,-0.0013419999999999999,0.00366,0.003355,0.8400000000000001,-1.3475000000000001,-3.7100000000000004,0.8498125,-0.1074375,-0.21025,1.0624375,0.7995,-0.53296875,-1.0996875,1.02396875,0.017345281540783766,0.03543619815983764,True
913,224085,1,224010,3426.0,38584.0,45413.0,-0.000488,0.001037,0.00122,0.665,-1.4700000000000002,-3.5000000000000004,0.8556875,-0.10534375,-0.2178125,1.06321875,0.8009375,-0.5318125,-1.09990625,1.008375,0.017384314754566137,0.0351433085531943,True
914,224086,1,224011,3424.0,38587.0,45411.0,0.004514,-0.000122,0.000549,0.28,-2.345,-3.3075,0.8572500000000001,-0.105875,-0.21403125,1.0663125,0.79996875,-0.527625,-1.10053125,1.0105625,0.01719489758996234,0.035317977582645786,True
915,224087,1,224012,3425.0,38585.0,45399.0,0.008052,-0.0008539999999999999,0.003111,0.17500000000000002,-2.5900000000000003,-3.22,0.8500625,-0.10884375,-0.2129375,1.06790625,0.7985625000000001,-0.53478125,-1.09403125,1.02884375,0.01736055828906157,0.035111686170391614,True
916,224088,1,224013,3425.0,38581.0,45385.0,0.0034159999999999998,0.000488,-0.003111,-0.035,-3.0100000000000002,-3.115,0.8463125,-0.1083125,-0.214875,1.06809375,0.78709375,-0.54178125,-1.0955625,1.0305625,0.01766248120233734,0.03509335564803538,True
917,224089,1,224014,3425.0,38578.0,45374.0,0.001586,-0.003965,-0.000366,-0.14,-2.5725000000000002,-2.9575000000000005,0.84978125,-0.10665625000000001,-0.21496875000000001,1.06303125,0.785,-0.5316875,-1.0989375000000001,1.0147187500000001,0.017325805654421447,0.03521936934581394,True
918,224090,1,224015,3425.0,38577.0,45369.0,0.002013,-0.000122,-0.000183,-0.08750000000000001,-1.7850000000000001,-3.0275000000000003,0.84365625,-0.106125,-0.21759375,1.0635000000000001,0.80115625,-0.5266875,-1.1041875,0.9925625,0.01714713819385516,0.03531656820201809,True
919,224091,1,224016,3425.0,38576.0,45369.0,-0.0006709999999999999,-0.0006709999999999999,0.000183,0.0175,-1.4875,-3.2725000000000004,0.8568125,-0.1055625,-0.2163125,1.0635000000000001,0.8140000000000001,-0.52609375,-1.1050312500000001,1.000875,0.01714627915421713,0.03540002564227042,True
920,224092,1,224017,3424.0,38579.0,45368.0,-0.0028669999999999998,-0.0030499999999999998,-0.001647,0.0,-1.3825,-3.43,0.855875,-0.10640625000000001,-0.2179375,1.0635625,0.8249062500000001,-0.5232187500000001,-1.1028437500000001,1.0261875,0.016996647310011048,0.0352512352310682,True
921,224093,1,224018,3423.0,38580.0,45365.0,-0.002562,-0.00122,-0.002379,0.0,-1.3475000000000001,-3.5525,0.84940625,-0.10956250000000001,-0.21434375,1.0679375,0.78678125,-0.539625,-1.0889375000000001,1.018125,0.017525227056240673,0.03485973648744591,True
922,224094,1,224019,3420.0,38578.0,45366.0,-0.0006709999999999999,0.0008539999999999999,0.001647,-0.035,-1.2425000000000002,-3.8500000000000005,0.84975,-0.10675,-0.21321875,1.05509375,0.79234375,-0.53290625,-1.10121875,1.00178125,0.017370801716572,0.035376768309307687,True
923,224095,1,224020,3418.0,38578.0,45362.0,-0.0021349999999999997,0.001281,0.00183,0.035,-1.3125000000000002,-3.8500000000000005,0.84984375,-0.10993750000000001,-0.20903125,1.06990625,0.81825,-0.5278125,-1.098375,1.0161875,0.017036782224260725,0.035434315966671154,True
924,224096,1,224021,3419.0,38578.0,45363.0,-0.0035989999999999998,0.00061,0.001037,0.0175,-1.3650000000000002,-3.6225000000000005,0.84940625,-0.10665625000000001,-0.20984375,1.0655000000000001,0.79740625,-0.53140625,-1.10040625,1.00446875,0.017314539397838228,0.035480003436199364,True
925,224097,1,224022,3417.0,38580.0,45363.0,-0.002928,0.001586,0.0011589999999999999,0.052500000000000005,-1.4875,-3.3775000000000004,0.8500625,-0.108625,-0.21371875,1.067375,0.8000625,-0.528625,-1.10040625,1.01053125,0.017122851362438785,0.03532562346475966,True
926,224098,1,224023,3414.0,38580.0,45361.0,-0.00122,0.0013419999999999999,0.001647,-0.0175,-1.7325000000000002,-3.2900000000000005,0.849625,-0.10903125,-0.2134375,1.06896875,0.8079375,-0.5305625,-1.10153125,1.01046875,0.017183921078042952,0.03538006272027728,True
927,224099,1,224024,3414.0,38578.0,45361.0,0.000305,0.0008539999999999999,0.0008539999999999999,-0.1925,-2.1350000000000002,-3.2550000000000003,0.8495312500000001,-0.10828125,-0.21328125,1.06384375,0.80853125,-0.52834375,-1.1008437500000001,1.01165625,0.017125595771218756,0.03535986713594041,True
928,224100,1,224025,3413.0,38579.0,45362.0,0.0026839999999999998,-0.003965,-0.000244,-0.28,-2.5200000000000005,-2.9400000000000004,0.8498125,-0.10634375,-0.21359375,1.0625,0.80525,-0.52865625,-1.1035625,1.0109375,0.017217107031698892,0.03545189054342387,True
929,224101,1,224026,3411.0,38577.0,45362.0,0.0028669999999999998,-0.0008539999999999999,-0.0032329999999999998,0.0,-2.5025000000000004,-3.0100000000000002,0.8553437500000001,-0.10571875,-0.21234375,1.0605,0.7997500000000001,-0.5337500000000001,-1.09596875,1.014375,0.01744662964283895,0.03520983823348122,True
930,224102,1,224027,3410.0,38578.0,45360.0,0.002196,0.000488,0.0,-0.0175,-2.2750000000000004,-3.5700000000000003,0.85040625,-0.10659375,-0.21359375,1.063375,0.8041875,-0.52865625,-1.1031250000000001,1.011125,0.017206914871253906,0.03543508029378813,True
931,224103,1,224028,3408.0,38577.0,45360.0,0.002806,-0.003111,-0.002806,-0.052500000000000005,-2.0825,-3.4650000000000003,0.8462500000000001,-0.10703125000000001,-0.2165,1.06628125,0.8043750000000001,-0.532,-1.0992187500000001,1.0173125,0.017323037257459643,0.03516917234724687,True
932,224104,1,224029,3406.0,38576.0,45360.0,0.002013,-0.0051849999999999995,-0.003904,0.052500000000000005,-2.1175,-3.1850000000000005,0.84875,-0.108,-0.215,1.06821875,0.79990625,-0.530875,-1.100375,1.0105625,0.01723848007867636,0.035273377389780036,True
933,224105,1,224030,3405.0,38577.0,45360.0,-0.000793,0.003355,0.002989,0.42000000000000004,-1.4525000000000001,-3.6225000000000005,0.84775,-0.10540625,-0.2160625,1.0511875,0.8074375,-0.5299375000000001,-1.101,1.0121875,0.017306658445420012,0.03525506951914266,True
934,224106,1,224031,3401.0,38575.0,45361.0,-0.0037819999999999998,0.001586,0.0042699999999999995,0.36750000000000005,-1.435,-3.6050000000000004,0.85721875,-0.10625,-0.21725,1.06375,0.79996875,-0.5327500000000001,-1.09996875,1.0169062500000001,0.017384924233932196,0.035168121474254826,True
935,224107,1,224032,3403.0,38577.0,45361.0,-0.004331,-0.001037,0.0015249999999999999,0.052500000000000005,-1.6450000000000002,-3.4475000000000002,0.87059375,-0.10615625000000001,-0.21384375,1.0785,0.79490625,-0.53353125,-1.10253125,1.011125,0.017420036098553894,0.03540230629132271,True
936,224108,1,224033,3401.0,38578.0,45362.0,-0.001403,-0.000915,-0.003355,0.24500000000000002,-1.7675,-3.5000000000000004,0.846375,-0.1123125,-0.213625,1.0595,0.799875,-0.53059375,-1.1021875,1.01146875,0.01705141156642407,0.035397811445715646,True
937,224109,1,224034,3399.0,38574.0,45362.0,0.000915,0.005673,-0.003172,0.29750000000000004,-1.5925000000000002,-4.077500000000001,0.84846875,-0.10371875,-0.2186875,1.0563125,0.8052812500000001,-0.5305,-1.100125,1.0175,0.017397984142190334,0.035116856987764004,True
938,224110,1,224035,3399.0,38575.0,45365.0,-0.001098,-0.002562,0.000366,0.24500000000000002,-1.7325000000000002,-2.9925,0.8609687500000001,-0.10321875,-0.21628125,1.071375,0.800125,-0.53,-1.09990625,1.011125,0.017398338768854462,0.03520431475715174,True
939,224111,1,224036,3397.0,38576.0,45366.0,-0.004026,0.0015249999999999999,-0.0006709999999999999,0.35000000000000003,-1.5925000000000002,-3.3775000000000004,0.84315625,-0.1105,-0.21215625,1.06996875,0.806,-0.53053125,-1.100875,1.0110937500000001,0.01712279468060848,0.035405887244966565,True
940,224112,1,224037,3396.0,38576.0,45368.0,-0.000183,0.0025009999999999998,0.003538,0.5950000000000001,-1.4875,-3.6225000000000005,0.8572500000000001,-0.10378125,-0.217375,1.0579687500000001,0.80025,-0.53215625,-1.09959375,1.01115625,0.017461775297473087,0.035148726261754734,True
941,224113,1,224038,3396.0,38576.0,45368.0,0.002623,-0.000305,-0.0013419999999999999,0.36750000000000005,-1.8025000000000002,-3.3775000000000004,0.855375,-0.10396875,-0.21381250000000002,1.072625,0.80021875,-0.53415625,-1.10021875,1.0110000000000001,0.01753422842898867,0.03531468226746032,True
942,224114,1,224039,3394.0,38575.0,45366.0,0.004758,-0.002623,-0.000366,0.3325,-1.7850000000000001,-3.1675000000000004,0.8433125,-0.11459375000000001,-0.21159375,1.07625,0.8043750000000001,-0.5305625,-1.1021875,1.01040625,0.01695716313068647,0.03547873068831153,True
943,224115,1,224040,3394.0,38576.0,45366.0,-0.001464,-0.000366,0.001098,0.43750000000000006,-1.4000000000000001,-3.5000000000000004,0.8433125,-0.113625,-0.21103125,1.0618125,0.7953125,-0.52871875,-1.10271875,1.01025,0.016922765278965093,0.035521550828035306,True
944,224116,1,224041,3392.0,38574.0,45366.0,-0.001037,-0.003172,0.00183,0.5425000000000001,-1.435,-3.2550000000000003,0.861375,-0.10465625,-0.2185625,1.05721875,0.79934375,-0.5293125,-1.09746875,1.01746875,0.017312195358104715,0.035019716878818705,True
945,224117,1,224042,3392.0,38575.0,45365.0,0.0015249999999999999,0.000976,0.0006709999999999999,0.24500000000000002,-1.5225000000000002,-3.6400000000000006,0.85384375,-0.1089375,-0.213125,1.06734375,0.79453125,-0.5316875,-1.10090625,1.0110937500000001,0.017232813682303755,0.03536849391642981,True
946,224118,1,224043,3391.0,38576.0,45367.0,0.003538,-0.0023179999999999997,-0.00122,0.0175,-1.715,-3.3950000000000005,0.84365625,-0.107875,-0.21196875,1.066375,0.8063125,-0.5314375,-1.10321875,1.01075,0.017266110067948526,0.0355034152741867,True
947,224119,1,224044,3389.0,38576.0,45366.0,0.001464,-0.002623,-0.004209,0.15750000000000003,-1.6800000000000002,-3.4125000000000005,0.847125,-0.10671875,-0.21306250000000002,1.05571875,0.8055625000000001,-0.52628125,-1.10221875,1.01071875,0.01710664962712193,0.03542142066625087,True
948,224120,1,224045,3389.0,38575.0,45365.0,-0.004026,-0.000732,-0.000976,0.45500000000000007,-1.2075,-3.7800000000000002,0.8560625000000001,-0.1050625,-0.2164375,1.06284375,0.8043125,-0.530125,-1.09871875,1.0133125,0.01732818320330614,0.035152441795460176,True
949,224121,1,224046,3389.0,38573.0,45368.0,-0.0018909999999999999,0.00244,0.001464,0.6300000000000001,-1.0850000000000002,-3.9025000000000003,0.8564375,-0.106125,-0.2161875,1.0625,0.7997500000000001,-0.53140625,-1.09925,1.0174375,0.01733619531085789,0.03518282418797374,True
950,224122,1,224047,3388.0,38575.0,45367.0,0.00061,0.002562,6.1e-05,0.665,-1.1025,-4.0600000000000005,0.85821875,-0.10603125000000001,-0.21578125,1.06365625,0.7905625000000001,-0.5298437500000001,-1.100375,1.0110937500000001,0.017277423546572735,0.035242252356787504,True
951,224123,1,224048,3388.0,38575.0,45368.0,-0.00122,0.001281,-0.000122,0.6825000000000001,-0.9975,-4.095000000000001,0.85721875,-0.10590625000000001,-0.2161875,1.0631875,0.79996875,-0.5318125,-1.09925,1.014375,0.01736138534403033,0.03518282418797374,True
952,224124,1,224049,3387.0,38575.0,45368.0,-0.001952,0.0013419999999999999,0.0021349999999999997,0.7000000000000001,-0.8575,-4.0425,0.8553437500000001,-0.10571875,-0.216625,1.05628125,0.799125,-0.53221875,-1.10021875,1.010625,0.017385300707870137,0.03520263145117012,True
953,224125,1,224050,3386.0,38576.0,45371.0,0.000183,0.003355,0.0034159999999999998,0.7875000000000001,-1.0325000000000002,-3.7625,0.85503125,-0.10746875,-0.213,1.06215625,0.803875,-0.52609375,-1.1023125,1.0111875000000001,0.017068555811094052,0.03542751290344266,True
954,224126,1,224051,3386.0,38577.0,45371.0,0.0006709999999999999,0.001281,0.000793,0.6300000000000001,-1.3825,-3.6050000000000004,0.85228125,-0.10640625000000001,-0.21540625,1.06284375,0.80525,-0.52878125,-1.101625,1.0150625,0.01721956731951368,0.03530523422288398,True
955,224127,1,224052,3387.0,38576.0,45375.0,-0.000915,6.1e-05,-0.001586,0.5425000000000001,-1.5225000000000002,-3.535,0.85578125,-0.1058125,-0.2149375,1.06259375,0.80390625,-0.53009375,-1.0995625,1.01696875,0.017296356643561547,0.03524463822825597,True
956,224128,1,224053,3385.0,38574.0,45375.0,-0.000976,-0.000732,-0.001769,0.43750000000000006,-1.7500000000000002,-3.3600000000000003,0.8511562500000001,-0.10384375,-0.21409375,1.06765625,0.8000625,-0.53125,-1.10134375,1.0100625,0.01742292993630573,0.03534671326111775,True
957,224129,1,224054,3386.0,38575.0,45376.0,0.000549,-0.000549,-0.00244,0.35000000000000003,-1.8200000000000003,-3.2375000000000003,0.8488125,-0.10709375,-0.2096875,1.066,0.80575,-0.53140625,-1.0988125,1.01621875,0.01729670511652792,0.03542498275565826,True
958,224130,1,224055,3387.0,38578.0,45377.0,0.001281,-0.00244,-0.0037819999999999998,0.15750000000000003,-1.8375000000000001,-3.3775000000000004,0.85478125,-0.1065625,-0.2126875,1.06265625,0.79928125,-0.5326875,-1.100125,1.00440625,0.017369682795657832,0.03535589962201384,True
959,224131,1,224056,3385.0,38577.0,45379.0,0.002074,-0.002989,-0.000793,0.29750000000000004,-1.6275000000000002,-3.4475000000000002,0.84978125,-0.10953125,-0.21321875,1.0636875000000001,0.807,-0.5309375000000001,-1.099875,1.0169062500000001,0.017178562784239293,0.035325126121146015,True
960,224132,1,224057,3384.0,38576.0,45379.0,0.003294,0.000366,0.00061,0.2625,-1.3475000000000001,-3.5175000000000005,0.8569375,-0.10646875,-0.21206250000000001,1.06784375,0.79953125,-0.53046875,-1.10125,1.0111875000000001,0.01728462689894583,0.03542403266769583,True
961,224133,1,224058,3383.0,38577.0,45382.0,0.002074,0.000183,0.000244,0.45500000000000007,-0.9975,-3.4125000000000005,0.84396875,-0.10553125000000001,-0.2155,1.06265625,0.80759375,-0.53159375,-1.09909375,1.0163125,0.01736790949426186,0.03520420931532637,True
962,224134,1,224059,3384.0,38576.0,45381.0,-0.000976,0.000244,0.0037819999999999998,0.5425000000000001,-0.6475000000000001,-3.4650000000000003,0.8549375,-0.1068125,-0.2134375,1.06928125,0.80040625,-0.53021875,-1.10140625,1.00984375,0.017260598216230747,0.03537525910525431,True
963,224135,1,224060,3384.0,38577.0,45384.0,-0.000793,0.002379,0.006222,0.525,-0.6125,-3.4125000000000005,0.84465625,-0.10846875,-0.21406250000000002,1.06346875,0.80625,-0.529625,-1.09765625,1.015875,0.01716929019501929,0.03520622568093385,True
964,224136,1,224061,3385.0,38579.0,45385.0,0.002806,0.000976,0.0023179999999999997,0.42000000000000004,-0.9975,-3.5175000000000005,0.85471875,-0.1053125,-0.21525,1.06453125,0.79959375,-0.531,-1.0988125,1.0159375,0.017353043088337208,0.03520335872464086,True
965,224137,1,224062,3382.0,38577.0,45385.0,-0.000305,-0.001769,-0.0034159999999999998,0.1925,-1.3475000000000001,-3.4825000000000004,0.84975,-0.1070625,-0.21371875,1.063125,0.8,-0.53115625,-1.0990625,1.01765625,0.017287964157824808,0.03527397686666584,True
966,224138,1,224063,3384.0,38578.0,45385.0,-0.00366,-0.002928,-0.005246,0.21000000000000002,-1.4875,-3.4825000000000004,0.8542500000000001,-0.10609375,-0.21346875,1.06290625,0.79996875,-0.53315625,-1.09928125,1.0108125000000001,0.01740756450772615,0.035292345273831294,True
967,224139,1,224064,3383.0,38579.0,45387.0,-0.003111,-0.000732,-0.002745,0.15750000000000003,-1.4525000000000001,-3.5175000000000005,0.85240625,-0.10590625000000001,-0.21303125,1.0659375,0.79521875,-0.53021875,-1.10121875,1.01165625,0.017297542444459447,0.03538423806612975,True
968,224140,1,224065,3386.0,38579.0,45387.0,0.00183,0.002013,-0.000183,0.052500000000000005,-1.33,-3.8150000000000004,0.85021875,-0.10753125000000001,-0.21325,1.0658750000000001,0.809625,-0.5248125,-1.10359375,1.0088125000000001,0.01701465607535226,0.03546678451167973,True
969,224141,1,224066,3382.0,38582.0,45393.0,0.0026839999999999998,0.0013419999999999999,0.0,0.0175,-1.3475000000000001,-3.7625,0.8500625,-0.10184375,-0.213875,1.06228125,0.8053750000000001,-0.526,-1.097875,1.01275,0.017294147027644133,0.03522210545713531,True
970,224142,1,224067,3384.0,38582.0,45390.0,0.0034159999999999998,-0.0011589999999999999,0.00122,0.07,-1.3650000000000002,-3.4650000000000003,0.85040625,-0.10509375,-0.2164375,1.06328125,0.79725,-0.5334375,-1.0974375,1.0030000000000001,0.01745958959073713,0.035103185335156224,True
971,224143,1,224068,3385.0,38581.0,45394.0,0.004331,-0.0013419999999999999,0.000976,0.21000000000000002,-1.155,-3.3775000000000004,0.8574375,-0.10653125000000001,-0.21203125,1.06371875,0.80603125,-0.52334375,-1.10290625,0.99534375,0.01699656067496913,0.035488918738243704,True
972,224144,1,224069,3385.0,38582.0,45395.0,-0.000793,0.000366,0.004209,0.4025,-0.9100000000000001,-3.4825000000000004,0.8563125,-0.104375,-0.22362500000000002,1.0593125,0.80903125,-0.5291875,-1.0998125,1.02025,0.017318653542845643,0.03490812929379453,True
973,224145,1,224070,3385.0,38584.0,45397.0,-0.0055509999999999995,0.0008539999999999999,0.001464,0.56,-1.155,-3.3950000000000005,0.86628125,-0.1049375,-0.20978125,1.08496875,0.7965625000000001,-0.532,-1.09965625,1.00725,0.01740838496657427,0.035453672796813704,True
974,224146,1,224071,3385.0,38583.0,45396.0,-0.002013,0.000244,-0.0015249999999999999,0.35000000000000003,-1.715,-3.43,0.83740625,-0.11359375000000001,-0.208125,1.07725,0.81125,-0.5290312500000001,-1.1015625,1.00734375,0.016936563689199918,0.03559290382819794,True
975,224147,1,224072,3385.0,38583.0,45398.0,-0.000732,-0.002745,-0.0044529999999999995,0.31500000000000006,-1.8725000000000003,-3.3600000000000003,0.84428125,-0.1076875,-0.21281250000000002,1.0705625,0.8082812500000001,-0.5288437500000001,-1.10125,1.0103125,0.017169837041340362,0.0353941536776057,True
976,224148,1,224073,3385.0,38585.0,45401.0,0.0,-0.0017079999999999999,-0.003477,0.3325,-2.1350000000000002,-3.3775000000000004,0.8475625,-0.1065625,-0.21496875000000001,1.06925,0.80496875,-0.5310625,-1.0947500000000001,1.01065625,0.017304590863114876,0.035058378744558125,True
977,224149,1,224074,3384.0,38584.0,45405.0,0.0032329999999999998,0.0013419999999999999,-0.000915,0.3325,-2.1875,-3.3950000000000005,0.8658750000000001,-0.10203125,-0.21821875000000002,1.04828125,0.78325,-0.5335625,-1.09659375,1.02025,0.017589424691175613,0.03499976964005325,True
978,224150,1,224075,3387.0,38586.0,45404.0,0.0013419999999999999,-0.000305,0.00183,0.3325,-1.8375000000000001,-3.6400000000000006,0.8561562500000001,-0.11021875,-0.20740625000000001,1.0834375,0.79784375,-0.528875,-1.1055625,1.0085,0.01706789447131187,0.03577518926333556,True
979,224151,1,224076,3384.0,38585.0,45404.0,-0.000732,-0.000976,0.0021349999999999997,0.3325,-1.5750000000000002,-3.5700000000000003,0.8462500000000001,-0.09765625,-0.217625,1.06815625,0.80665625,-0.533,-1.0965625,1.0118125,0.0177452309134635,0.03502222664956606,True
980,224152,1,224077,3387.0,38586.0,45404.0,-0.000305,0.0017079999999999999,0.002257,0.28,-1.715,-3.5700000000000003,0.8390625,-0.10146875,-0.22212500000000002,1.05315625,0.8065625000000001,-0.53128125,-1.09671875,1.01403125,0.017520996788539127,0.034848928208991464,True
981,224153,1,224078,3387.0,38587.0,45406.0,0.00061,0.0030499999999999998,0.002745,0.2625,-1.6450000000000002,-3.6050000000000004,0.83628125,-0.10300000000000001,-0.218125,1.05884375,0.79603125,-0.53059375,-1.0983125,1.012625,0.01743103955647221,0.035069588841879315,True
982,224154,1,224079,3385.0,38586.0,45410.0,0.001952,-0.001769,-0.000976,0.14,-1.8900000000000001,-3.6050000000000004,0.83696875,-0.11425,-0.2151875,1.0515625,0.80665625,-0.5305,-1.10090625,1.01696875,0.01696867165365565,0.03528632556842445,True
983,224155,1,224080,3385.0,38586.0,45411.0,0.0015249999999999999,-0.000549,-0.001403,0.0175,-1.9425000000000001,-3.6400000000000006,0.86546875,-0.1029375,-0.2109375,1.07040625,0.79790625,-0.53225,-1.09353125,1.01021875,0.017499923569994597,0.03517216214836244,True
984,224156,1,224081,3388.0,38587.0,45412.0,6.1e-05,-0.000549,-0.0032329999999999998,0.17500000000000002,-1.8550000000000002,-3.5875000000000004,0.84109375,-0.105125,-0.21175,1.06653125,0.80571875,-0.5309375000000001,-1.0980625,1.01640625,0.017358182906788623,0.035313980909880985,True
985,224157,1,224082,3388.0,38590.0,45413.0,-0.002928,0.0,-0.004209,0.21000000000000002,-1.7325000000000002,-3.5875000000000004,0.84971875,-0.106125,-0.21540625,1.06446875,0.79978125,-0.5315,-1.09840625,1.0190625,0.0173399506756619,0.035181516754674416,True
986,224158,1,224083,3387.0,38589.0,45415.0,-0.001586,-0.001098,-0.002623,0.35000000000000003,-1.5050000000000001,-3.535,0.85671875,-0.10287500000000001,-0.2084375,1.06678125,0.8001875,-0.52959375,-1.1023125,1.00990625,0.01739607897093689,0.035609269066345976,True
987,224159,1,224084,3387.0,38592.0,45418.0,-0.003172,0.00061,0.002989,0.47250000000000003,-1.0150000000000001,-3.7100000000000004,0.84971875,-0.1086875,-0.21496875000000001,1.06628125,0.806125,-0.53065625,-1.0978125,1.0186875,0.01720169023199288,0.03517612341713048,True
988,224160,1,224085,3389.0,38592.0,45422.0,-0.00183,0.000915,0.005429,0.43750000000000006,-0.8925000000000001,-3.7275000000000005,0.8559375,-0.1058125,-0.215875,1.06265625,0.79290625,-0.5317500000000001,-1.09846875,1.01165625,0.017362703435343997,0.035165242899529485,True
989,224161,1,224086,3388.0,38593.0,45422.0,-6.1e-05,0.0,0.0034159999999999998,0.45500000000000007,-1.0850000000000002,-3.6750000000000003,0.85359375,-0.10703125000000001,-0.21365625,1.06946875,0.808125,-0.53096875,-1.101,1.01078125,0.017281726796867732,0.03535093223377555,True
990,224162,1,224087,3391.0,38594.0,45424.0,0.002562,-0.000366,0.0,0.42000000000000004,-1.3825,-3.6750000000000003,0.84984375,-0.10725,-0.21340625,1.06709375,0.80503125,-0.5310312500000001,-1.1006562500000001,1.01059375,0.017275313283048384,0.035347681397772224,True
991,224163,1,224088,3389.0,38595.0,45423.0,0.003111,-0.001586,-0.000793,0.385,-1.5925000000000002,-3.5875000000000004,0.8499375,-0.10721875,-0.2088125,1.06871875,0.80396875,-0.5309375000000001,-1.099625,1.01415625,0.01727283150103823,0.03549106809364682,True
992,224164,1,224089,3389.0,38596.0,45426.0,-0.001098,0.001464,-0.00122,0.7175,-1.6975000000000002,-3.7450000000000006,0.84996875,-0.10796875,-0.21390625,1.06765625,0.80140625,-0.53065625,-1.0980625,1.0160625,0.017230990304223925,0.035228067903647936,True
993,224165,1,224090,3390.0,38596.0,45425.0,-0.0006709999999999999,0.001098,-0.002196,0.7000000000000001,-1.6275000000000002,-3.7275000000000005,0.8493437500000001,-0.1064375,-0.21459375,1.061125,0.7998125,-0.53246875,-1.09134375,1.0089375,0.0173660162106596,0.03494232946372193,True
994,224166,1,224091,3391.0,38596.0,45424.0,-0.003843,0.00061,-0.0011589999999999999,0.5775,-1.5750000000000002,-3.7625,0.84984375,-0.1074375,-0.215875,1.0637812500000001,0.79959375,-0.53415625,-1.0981875,1.0156875,0.017392843905116973,0.03515443097235607,True
995,224167,1,224092,3392.0,38597.0,45428.0,0.000366,0.00042699999999999997,0.000976,0.6300000000000001,-1.5050000000000001,-3.7800000000000002,0.85540625,-0.10415625,-0.21331250000000002,1.066875,0.80053125,-0.52990625,-1.09846875,1.01075,0.017356364743546463,0.03526734076157535,True
996,224168,1,224093,3392.0,38595.0,45427.0,0.000976,0.000488,0.000122,0.6475000000000001,-1.6975000000000002,-3.7275000000000005,0.8495,-0.11,-0.21475,1.0536875,0.80134375,-0.5337500000000001,-1.09778125,1.0164375,0.017272125133744334,0.03518363799588858,True
997,224169,1,224094,3392.0,38598.0,45430.0,-0.000976,0.000732,0.001281,0.43750000000000006,-1.4700000000000002,-3.6750000000000003,0.8506875,-0.10540625,-0.21440625,1.056625,0.80021875,-0.53121875,-1.09725,1.016875,0.017357983895520884,0.035176911813047246,True
998,224170,1,224095,3393.0,38598.0,45431.0,-0.002013,-0.001037,0.002562,0.35000000000000003,-1.4875,-3.6225000000000005,0.85640625,-0.10459375,-0.21478125,1.062,0.79934375,-0.5304375,-1.09621875,1.01384375,0.017359810643409846,0.03512232295950959,True
999,224171,1,224096,3393.0,38599.0,45431.0,0.0017079999999999999,-0.001281,0.0026839999999999998,0.24500000000000002,-1.7675,-3.5875000000000004,0.8533437500000001,-0.1060625,-0.21403125,1.0675625,0.8000625,-0.53178125,-1.09853125,1.0145,0.017353764313384295,0.03524110599101292,True
1000,224172,1,224097,3394.0,38598.0,45435.0,0.0042699999999999995,-0.002806,-0.002013,0.15750000000000003,-1.9250000000000003,-3.6400000000000006,0.84965625,-0.10821875,-0.2124375,1.0701875,0.7943125,-0.53190625,-1.09925,1.0105625,0.017270875556195314,0.03533223104276024,True
1001,224173,1,224098,3395.0,38599.0,45434.0,0.005795,-0.003538,-0.002745,0.36750000000000005,-1.9075000000000002,-3.8500000000000005,0.84965625,-0.108375,-0.21228125,1.06984375,0.80475,-0.5300625,-1.0980625,1.01096875,0.017190641075618948,0.035292813937330816,True
1002,224174,1,224099,3394.0,38600.0,45439.0,0.001098,0.002623,0.001281,0.7525000000000001,-1.225,-4.130000000000001,0.849875,-0.10978125,-0.21121875,1.06675,0.8045625000000001,-0.52990625,-1.0987500000000001,1.0115,0.017127052819453807,0.03536157179142388,True
1003,224175,1,224100,3395.0,38598.0,45436.0,-0.003477,0.002074,0.001403,0.7175,-0.9800000000000001,-4.165,0.849875,-0.106375,-0.21356250000000002,1.0625,0.80453125,-0.53046875,-1.09225,1.01140625,0.01728844867670945,0.03501828253743686,True
1004,224176,1,224101,3396.0,38599.0,45438.0,-0.006527,0.002013,-0.0013419999999999999,0.5775,-1.0850000000000002,-4.2175,0.85703125,-0.10559375,-0.21378125,1.063375,0.8061875000000001,-0.530375,-1.100875,1.01125,0.017316541226948225,0.035341148465939935,True
