frame_seq,absolute_seq_u64,segment_id,sample_seq,PPG_G,PPG_R,PPG_IR,ACC_X,ACC_Y,ACC_Z,GYRO_X,GYRO_Y,GYRO_Z,Uh1,Uh2,Uh3,Uh4,Uc1,Uc2,Uc3,Uc4,UD1,UD2,parser_valid
54018,133,0,134,3730.0,38228.0,44317.0,-0.0013419999999999999,0.001586,-0.000488,0.47250000000000003,-1.8025000000000002,-3.7100000000000004,0.60390625,-0.11896875,0.11765625,0.88,0.56084375,-0.6218125,-0.6224375,0.85765625,0.020422694308146486,0.03005769635926581,True
54019,134,0,135,3729.0,38227.0,44318.0,0.000793,0.00122,-0.000244,0.07,-2.0125,-3.7275000000000005,0.6023125,-0.11909375,0.11653125,0.8759375,0.54178125,-0.6209375,-0.6235625,0.8562500000000001,0.020382804269739933,0.030056323084850133,True
54020,135,0,136,3729.0,38227.0,44317.0,0.002196,-0.0015249999999999999,-0.000305,-0.35000000000000003,-2.0300000000000002,-3.7975000000000003,0.60465625,-0.1236875,0.11803125,0.8638125,0.56140625,-0.62209375,-0.62496875,0.85278125,0.02024223671067778,0.030172627122623252,True
54021,136,0,137,3728.0,38229.0,44315.0,0.004026,-0.003538,0.001952,-0.805,-1.9250000000000003,-3.6925000000000003,0.61234375,-0.12684375,0.1225625,0.87075,0.562,-0.62215625,-0.6225625,0.85840625,0.02011653630051186,0.030261878713882848,True
54022,137,0,138,3727.0,38225.0,44317.0,0.0028669999999999998,-0.0057339999999999995,0.001647,-1.0850000000000002,-1.7675,-3.4825000000000004,0.6167812500000001,-0.11921875,0.12259375,0.88253125,0.5560625,-0.62240625,-0.62315625,0.8579687500000001,0.020436162692263272,0.030286531605792814,True
54023,138,0,139,3728.0,38226.0,44317.0,0.001769,-0.005612,-0.00042699999999999997,-1.33,-1.4875,-3.4650000000000003,0.60396875,-0.116875,0.12065625,0.88475,0.5553750000000001,-0.62140625,-0.62628125,0.85678125,0.020491569201088997,0.030330909178583346,True
54024,139,0,140,3728.0,38227.0,44315.0,-0.00183,-0.003538,6.1e-05,-0.6125,-0.9800000000000001,-3.535,0.5955625,-0.11578125,0.11259375,0.85284375,0.5555,-0.6251875,-0.6265000000000001,0.8504375000000001,0.020686390712761075,0.03001213124073661,True
54025,140,0,141,3728.0,38229.0,44318.0,-0.0015249999999999999,-6.1e-05,0.002562,-0.12250000000000001,-0.9975,-3.7800000000000002,0.60421875,-0.1274375,0.11925000000000001,0.88403125,0.56303125,-0.6141875,-0.62328125,0.85809375,0.01977518047264408,0.030155658072581207,True
54026,141,0,142,3728.0,38227.0,44315.0,-0.002745,0.003294,0.002989,0.29750000000000004,-1.0675000000000001,-3.8325000000000005,0.593875,-0.1213125,0.11571875000000001,0.86625,0.5565625,-0.62509375,-0.62371875,0.855125,0.020458043941457074,0.030029481229353304,True
54027,142,0,143,3727.0,38227.0,44316.0,-0.000976,0.005124,0.0030499999999999998,0.6475000000000001,-1.225,-3.8500000000000005,0.6111562500000001,-0.116125,0.11684375,0.8629375,0.55684375,-0.62184375,-0.6266875000000001,0.8510625,0.020539434622965633,0.03019209343522145,True
54028,143,0,144,3729.0,38227.0,44314.0,-0.001403,0.005429,0.0011589999999999999,0.5950000000000001,-1.5575,-3.9200000000000004,0.60825,-0.116,0.11065625,0.853375,0.5615,-0.62165625,-0.624375,0.85090625,0.020537052620089275,0.029849742379248204,True
54029,144,0,145,3728.0,38225.0,44316.0,0.000305,0.001952,-0.000915,0.43750000000000006,-1.8550000000000002,-3.7625,0.61446875,-0.115375,0.10925,0.86253125,0.55665625,-0.62171875,-0.625875,0.8508125,0.020564922991007685,0.029851731156760923,True
54030,145,0,146,3726.0,38223.0,44316.0,0.001281,-0.000122,-0.000976,0.29750000000000004,-1.8900000000000001,-3.6400000000000006,0.61571875,-0.1178125,0.11115625,0.86625,0.5616875,-0.62175,-0.61959375,0.85009375,0.02046716825570888,0.029681643304938776,True
54031,146,0,147,3727.0,38224.0,44314.0,-0.0017079999999999999,-0.000549,-0.000915,0.35000000000000003,-1.9075000000000002,-3.5525,0.597625,-0.12140625000000001,0.1200625,0.8758125,0.5582812500000001,-0.62265625,-0.6228750000000001,0.8559687500000001,0.020357267506425105,0.030172654493027317,True
54032,147,0,148,3729.0,38225.0,44315.0,-0.0030499999999999998,-0.001586,-0.001403,0.49000000000000005,-1.8025000000000002,-3.3950000000000005,0.59309375,-0.122,0.1180625,0.87021875,0.55496875,-0.6249375,-0.6235625,0.8525625,0.02042390970535458,0.030118509456135766,True
54033,148,0,149,3729.0,38224.0,44315.0,-0.0021349999999999997,-6.1e-05,-0.002074,0.665,-1.715,-3.3425000000000002,0.6058125,-0.116875,0.11553125,0.862625,0.56225,-0.62153125,-0.62446875,0.8505625,0.0204965420255899,0.03005140973853497,True
54034,149,0,150,3729.0,38226.0,44315.0,0.00244,0.00042699999999999997,-0.002196,0.6300000000000001,-1.9250000000000003,-3.3075,0.6059375,-0.11825000000000001,0.11771875,0.8563125,0.56140625,-0.6215,-0.6251875,0.8444375000000001,0.020439453323314993,0.0301685520161014,True
54035,150,0,151,3728.0,38224.0,44315.0,0.0028669999999999998,-0.000915,-0.00183,0.3325,-1.8900000000000001,-3.2725000000000004,0.608125,-0.120625,0.11762500000000001,0.8750625,0.56203125,-0.62128125,-0.62321875,0.85671875,0.020334289061419174,0.030087201739212102,True
54036,151,0,152,3729.0,38224.0,44314.0,0.001281,-0.00122,-0.000793,0.052500000000000005,-1.9075000000000002,-3.2375000000000003,0.6005,-0.12071875,0.11521875000000001,0.8679687500000001,0.55065625,-0.625375,-0.6263125,0.851,0.02049334274097349,0.030111339243339825,True
54037,152,0,153,3730.0,38224.0,44314.0,0.000976,-0.002806,-6.1e-05,-0.07,-1.7850000000000001,-3.2375000000000003,0.59909375,-0.11884375,0.11415625,0.8685,0.55959375,-0.62203125,-0.6251875,0.85246875,0.020436473940386213,0.0300238830668802,True
54038,153,0,154,3728.0,38224.0,44315.0,0.000732,-0.0023179999999999997,0.000549,-0.08750000000000001,-1.7850000000000001,-3.2900000000000005,0.6021875,-0.1216875,0.117,0.8674375,0.5555625,-0.623,-0.62415625,0.85078125,0.020359521585509483,0.030098747038286845,True
54039,154,0,155,3729.0,38224.0,44320.0,0.001769,0.000122,0.001037,-0.0175,-1.8550000000000002,-3.6575,0.6009375,-0.12109375,0.11903125,0.8679375,0.56284375,-0.6223125,-0.6237812500000001,0.8425312500000001,0.02035628253844963,0.0301664676297431,True
54040,155,0,156,3729.0,38225.0,44317.0,0.001769,0.000122,0.001281,-0.07,-1.8725000000000003,-3.7625,0.60634375,-0.12015625,0.1155625,0.8711875,0.563625,-0.6225625,-0.6265000000000001,0.84065625,0.020404303979327906,0.03013268227316103,True
54041,156,0,157,3728.0,38223.0,44318.0,0.00061,0.00042699999999999997,0.001281,-0.14,-1.6800000000000002,-3.6925000000000003,0.600375,-0.11850000000000001,0.113875,0.86759375,0.55596875,-0.62140625,-0.6261875,0.85190625,0.020425569721469503,0.03005185029148341,True
54042,157,0,158,3728.0,38223.0,44318.0,-0.002196,0.00122,0.000488,-0.10500000000000001,-1.4875,-3.7275000000000005,0.59309375,-0.12090625,0.115875,0.86859375,0.5511875,-0.624875,-0.62140625,0.8506875,0.02046583992812146,0.029944725435818685,True
54043,158,0,159,3728.0,38224.0,44320.0,-0.002562,0.0017079999999999999,0.000244,0.035,-1.4000000000000001,-3.7100000000000004,0.60471875,-0.121625,0.11737500000000001,0.86471875,0.56159375,-0.624125,-0.6225937500000001,0.8505,0.02040681648586498,0.030052428981004492,True
54044,159,0,160,3731.0,38225.0,44321.0,-0.000549,0.002257,0.000976,0.28,-1.4700000000000002,-3.8150000000000004,0.606875,-0.12121875,0.12059375,0.86703125,0.56428125,-0.622375,-0.619625,0.850875,0.02035369252559917,0.030066207344750375,True
54045,160,0,161,3729.0,38225.0,44318.0,0.0,0.002562,0.000915,0.1925,-1.5750000000000002,-3.7450000000000006,0.6004375,-0.12071875,0.11440625,0.86859375,0.54996875,-0.62321875,-0.62290625,0.85078125,0.020407567552475244,0.029944170379968858,True
54046,161,0,162,3729.0,38223.0,44319.0,0.000122,0.001281,0.0008539999999999999,0.15750000000000003,-1.6625,-3.6750000000000003,0.6003125,-0.1184375,0.11778125,0.87521875,0.55678125,-0.6186875000000001,-0.6245937500000001,0.8445,0.020319929728179056,0.030147705482450854,True
54047,162,0,163,3728.0,38223.0,44319.0,0.000122,-0.000366,0.000244,-0.14,-1.6975000000000002,-3.6050000000000004,0.6010625,-0.11800000000000001,0.1151875,0.8765937500000001,0.5558125,-0.62146875,-0.62390625,0.857125,0.02044836378820821,0.030015292557410544,True
54048,163,0,164,3729.0,38225.0,44319.0,0.000549,-0.001586,-0.00042699999999999997,-0.2625,-1.9600000000000002,-3.6750000000000003,0.6013437500000001,-0.1186875,0.11775000000000001,0.87640625,0.556125,-0.62215625,-0.62265625,0.8593437500000001,0.02044779282886729,0.030070120887140277,True
54049,164,0,165,3729.0,38226.0,44322.0,0.0017079999999999999,-0.002257,-6.1e-05,-0.42000000000000004,-1.8900000000000001,-3.7625,0.600375,-0.11837500000000001,0.11809375,0.87584375,0.5555625,-0.6214375,-0.6220625,0.8563125,0.020431889892700214,0.030060692519158376,True
54050,165,0,166,3730.0,38226.0,44320.0,0.000488,-0.002257,-0.001586,-0.29750000000000004,-1.8900000000000001,-3.7100000000000004,0.607625,-0.1136875,0.11678125,0.8679375,0.5615,-0.62103125,-0.62246875,0.851125,0.020606112914137175,0.030023390729250088,True
54051,166,0,167,3728.0,38224.0,44319.0,0.001952,-0.0017079999999999999,-0.001098,-0.21000000000000002,-1.6975000000000002,-3.535,0.6013437500000001,-0.120625,0.11396875000000001,0.8677812500000001,0.5553125,-0.623,-0.6234375,0.8515,0.020402672298257728,0.029947331683482455,True
54052,167,0,168,3728.0,38225.0,44321.0,0.000732,6.1e-05,-0.000976,-0.07,-1.5750000000000002,-3.6925000000000003,0.60028125,-0.1211875,0.1165625,0.8678750000000001,0.5553750000000001,-0.6254375,-0.6235,0.85128125,0.020476793559505286,0.030055130261741836,True
54053,168,0,169,3730.0,38225.0,44320.0,-0.00061,0.00122,0.0013419999999999999,0.10500000000000001,-1.2950000000000002,-3.8150000000000004,0.6039375,-0.12071875,0.11509375000000001,0.86840625,0.55915625,-0.62425,-0.6196875000000001,0.85109375,0.020448592342913997,0.02984527118794664,True
54054,169,0,170,3730.0,38224.0,44319.0,-0.0011589999999999999,0.000732,0.0011589999999999999,0.10500000000000001,-1.2950000000000002,-3.7275000000000005,0.6011875,-0.11821875,0.11812500000000001,0.871,0.55625,-0.62146875,-0.62246875,0.8486875,0.020439479265427656,0.030077964866946985,True
54055,170,0,171,3729.0,38223.0,44319.0,-0.0013419999999999999,0.000366,0.0008539999999999999,-0.035,-1.54,-3.8325000000000005,0.60653125,-0.1218125,0.1165625,0.8685625,0.561375,-0.6215937500000001,-0.6236875000000001,0.846375,0.02029849306566518,0.030062516022427595,True
54056,171,0,172,3729.0,38223.0,44318.0,0.000366,-0.001403,0.001037,-0.1925,-1.7850000000000001,-3.8850000000000002,0.593375,-0.11834375,0.11565625,0.87153125,0.55596875,-0.62103125,-0.62603125,0.8579375,0.020416996140240878,0.030118028052124723,True
54057,172,0,173,3730.0,38224.0,44320.0,0.001037,-0.001037,0.0011589999999999999,-0.42000000000000004,-1.8900000000000001,-3.9200000000000004,0.60471875,-0.11890625,0.1181875,0.86825,0.5622812500000001,-0.621375,-0.62290625,0.8515,0.02040782653283986,0.03009773673649917,True
54058,173,0,174,3729.0,38222.0,44318.0,0.002013,-0.000366,-0.000183,-0.28,-1.9600000000000002,-3.9375000000000004,0.6025625,-0.12103125,0.116875,0.8680625000000001,0.560375,-0.62453125,-0.6220625,0.84928125,0.020447089728865393,0.030011194228753178,True
54059,174,0,175,3731.0,38221.0,44319.0,0.0018909999999999999,0.000183,-0.00183,-0.15750000000000003,-1.6800000000000002,-3.9375000000000004,0.60084375,-0.11959375,0.11709375,0.869,0.55553125,-0.6225625,-0.6245625,0.84965625,0.020427148880219105,0.030118555405806702,True
54060,175,0,176,3730.0,38220.0,44319.0,-0.001098,6.1e-05,-0.00042699999999999997,0.0,-1.3125000000000002,-3.99,0.6001562500000001,-0.11446875000000001,0.11759375,0.8684375,0.55540625,-0.6271875,-0.6229375,0.8458125,0.020819216567056226,0.03007485398523227,True
54061,176,0,177,3731.0,38223.0,44319.0,-0.0021349999999999997,0.000488,-0.000244,0.14,-1.155,-4.0425,0.60678125,-0.1176875,0.11775000000000001,0.87471875,0.5670937500000001,-0.6225937500000001,-0.62075,0.8574375,0.020505810846999012,0.02999502452199872,True
54062,177,0,178,3730.0,38221.0,44321.0,-0.003172,0.000244,0.00122,0.17500000000000002,-1.0675000000000001,-3.9725000000000006,0.6081562500000001,-0.11746875,0.11762500000000001,0.88246875,0.56865625,-0.62,-0.61528125,0.86278125,0.020411504874086106,0.029774441435642746,True
54063,178,0,179,3730.0,38224.0,44321.0,-0.0026839999999999998,-0.000488,0.0006709999999999999,0.1925,-1.3650000000000002,-4.095000000000001,0.5924375000000001,-0.1191875,0.10625,0.85309375,0.552,-0.6198750000000001,-0.6266875000000001,0.8482500000000001,0.020336719824938187,0.029761919868435415,True
54064,179,0,180,3731.0,38224.0,44321.0,-0.001586,-0.001281,0.0,0.07,-1.5925000000000002,-3.9725000000000006,0.58928125,-0.12640625,0.11171875,0.86153125,0.5515,-0.62471875,-0.6228125,0.8475625,0.02023627173406803,0.0298313301943066,True
54065,180,0,181,3732.0,38225.0,44321.0,0.0011589999999999999,-0.0006709999999999999,0.000122,-0.07,-2.1,-4.095000000000001,0.6238125,-0.121625,0.12175,0.872375,0.55978125,-0.62046875,-0.61484375,0.8630625000000001,0.02026134250591797,0.029924778620623992,True
54066,181,0,182,3731.0,38222.0,44322.0,0.004575,-0.000244,-0.000183,-0.07,-2.1875,-4.0075,0.624625,-0.123125,0.1216875,0.85653125,0.5623125,-0.6200625,-0.6198125,0.85578125,0.020184250141525837,0.030118019785893988,True
54067,182,0,183,3731.0,38223.0,44321.0,0.002989,-0.00061,0.0,0.10500000000000001,-2.1,-3.9375000000000004,0.61928125,-0.13184375,0.12453125,0.857375,0.56878125,-0.62225,-0.62096875,0.8485625,0.019917198875001266,0.03027906852771583,True
54068,183,0,184,3732.0,38221.0,44321.0,-6.1e-05,-0.000366,-6.1e-05,0.42000000000000004,-1.5225000000000002,-3.7275000000000005,0.60859375,-0.12959375,0.11725000000000001,0.8454375000000001,0.5679375,-0.626625,-0.6213125,0.847,0.020182678300416722,0.02999687770503705,True
54069,184,0,185,3731.0,38222.0,44320.0,-0.001098,0.000732,-0.000488,0.47250000000000003,-1.3125000000000002,-3.7100000000000004,0.592875,-0.1226875,0.1090625,0.86640625,0.56271875,-0.625375,-0.625125,0.847875,0.02041339471987736,0.029814569469190512,True
54070,185,0,186,3731.0,38223.0,44322.0,-0.002074,0.000793,-0.000366,0.42000000000000004,-1.155,-3.6925000000000003,0.59178125,-0.11215625,0.11453125,0.8885000000000001,0.5513125,-0.61990625,-0.62509375,0.8618125,0.020623555380110355,0.030035418646883322,True
54071,186,0,187,3733.0,38223.0,44323.0,-0.002562,0.000305,-0.000305,0.45500000000000007,-1.225,-3.7100000000000004,0.61865625,-0.11640625,0.12284375,0.868375,0.5543125,-0.6200625,-0.62184375,0.85709375,0.02045714749911784,0.03024499333036341,True
54072,187,0,188,3732.0,38221.0,44322.0,-0.000305,6.1e-05,0.000732,0.5075000000000001,-1.4175000000000002,-3.6575,0.61159375,-0.12071875,0.12103125,0.87565625,0.56621875,-0.6213125,-0.62165625,0.85640625,0.02033172480142966,0.030163994349486543,True
54073,188,0,189,3732.0,38221.0,44323.0,0.001586,0.001098,-0.000732,0.45500000000000007,-1.6975000000000002,-3.6225000000000005,0.6201875,-0.13271875,0.11878125,0.85871875,0.55946875,-0.624375,-0.6224375,0.8505312500000001,0.01996624279804056,0.030103386393000288,True
54074,189,0,190,3731.0,38219.0,44322.0,0.0015249999999999999,-0.000366,-0.001403,0.49000000000000005,-1.7850000000000001,-3.6400000000000006,0.60740625,-0.12340625000000001,0.116125,0.85703125,0.5631875000000001,-0.62265625,-0.62303125,0.85121875,0.020276041501411938,0.03001889744992303,True
54075,190,0,191,3732.0,38223.0,44324.0,0.000366,0.001098,-0.000976,0.5075000000000001,-1.8725000000000003,-3.7975000000000003,0.6079687500000001,-0.1235625,0.11575,0.8570625000000001,0.5644375,-0.6231875,-0.6224375,0.8463125,0.020290833589274335,0.029980277135437952,True
54076,191,0,192,3732.0,38222.0,44321.0,0.000732,0.0006709999999999999,-0.000122,0.6475000000000001,-1.9075000000000002,-3.6400000000000006,0.60090625,-0.121375,0.1183125,0.861125,0.561125,-0.62475,-0.62340625,0.85103125,0.020441831896770526,0.03012250792881266,True
54077,192,0,193,3733.0,38222.0,44324.0,-0.000183,0.0015249999999999999,-0.001098,0.6825000000000001,-1.8900000000000001,-3.4650000000000003,0.599125,-0.12296875,0.1194375,0.87021875,0.5628125,-0.62540625,-0.623625,0.85146875,0.020403216698201682,0.030176811903202715,True
54078,193,0,194,3732.0,38219.0,44322.0,0.0025009999999999998,0.002257,-0.001952,0.5950000000000001,-1.5575,-3.5175000000000005,0.60584375,-0.11875000000000001,0.122625,0.87421875,0.56259375,-0.6215625,-0.62303125,0.852625,0.020421632461384204,0.03028287794582562,True
54079,194,0,195,3733.0,38221.0,44322.0,0.003538,0.00183,-0.001586,0.29750000000000004,-1.5050000000000001,-3.7800000000000002,0.607375,-0.1186875,0.11809375,0.87225,0.56303125,-0.6227812500000001,-0.622625,0.8419375,0.02047265680029546,0.030082850630263832,True
54080,195,0,196,3731.0,38221.0,44324.0,-0.000244,-0.00244,-0.000793,0.0175,-1.435,-3.9025000000000003,0.60859375,-0.114375,0.11821875,0.874125,0.560375,-0.6168750000000001,-0.62296875,0.8522500000000001,0.020412826567141443,0.03010146776066554,True
54081,196,0,197,3733.0,38224.0,44326.0,-0.0030499999999999998,-0.00488,0.000183,-0.47250000000000003,-1.2600000000000002,-3.9200000000000004,0.60765625,-0.11821875,0.1181875,0.87503125,0.5630000000000001,-0.62175,-0.6230625,0.8536875,0.02045066861616254,0.030103891422929213,True
54082,197,0,198,3733.0,38226.0,44324.0,-0.005307,-0.006771,0.0023179999999999997,-0.6300000000000001,-1.5925000000000002,-3.9200000000000004,0.60784375,-0.12059375,0.11690625,0.87128125,0.55953125,-0.624625,-0.62365625,0.85140625,0.020468585816027653,0.030075245222772308,True
54083,198,0,199,3734.0,38225.0,44326.0,0.0028669999999999998,-0.001647,0.00244,-0.17500000000000002,-1.8900000000000001,-3.9550000000000005,0.60821875,-0.11265625,0.1168125,0.87384375,0.55715625,-0.62153125,-0.62271875,0.85603125,0.020667885958555073,0.030034508272974526,True
54084,199,0,200,3735.0,38224.0,44325.0,0.0048189999999999995,0.000976,0.00244,0.17500000000000002,-1.8375000000000001,-4.112500000000001,0.5949375,-0.11850000000000001,0.11290625,0.86865625,0.5570625,-0.6215,-0.6256875000000001,0.8513437500000001,0.020429299595881648,0.02999281745941103,True
54085,200,0,201,3734.0,38225.0,44325.0,0.0028669999999999998,0.002074,6.1e-05,0.45500000000000007,-1.4525000000000001,-4.0075,0.60253125,-0.11937500000000001,0.11446875000000001,0.86875,0.55115625,-0.62365625,-0.6258125,0.8510625,0.02047954393450404,0.030061190874412776,True
54086,201,0,202,3734.0,38225.0,44326.0,-0.0015249999999999999,0.001586,-0.0015249999999999999,0.5425000000000001,-1.12,-3.8325000000000005,0.6071562500000001,-0.1216875,0.11765625,0.86840625,0.54228125,-0.6231875,-0.6245,0.85209375,0.02036698132603669,0.030138936831204697,True
54087,202,0,203,3735.0,38227.0,44330.0,-0.005429,6.1e-05,-0.00061,0.8750000000000001,-0.6825000000000001,-3.5700000000000003,0.608625,-0.11840625,0.1185625,0.87403125,0.56378125,-0.6210625,-0.622375,0.85821875,0.020415700987721382,0.030092040268251945,True
54088,203,0,204,3734.0,38227.0,44330.0,-0.0071979999999999995,0.005978,-0.001281,1.8200000000000003,-0.9975,-3.6575,0.6,-0.1189375,0.11603125,0.86871875,0.55540625,-0.6215,-0.62575,0.85121875,0.0204115305728733,0.03012217901992833,True
54089,204,0,205,3734.0,38224.0,44328.0,-0.002806,0.007503,-0.0008539999999999999,2.0300000000000002,-1.4525000000000001,-3.8675,0.60503125,-0.11828125,0.11803125,0.8745625,0.56153125,-0.62346875,-0.6228125,0.8542500000000001,0.02051650419886516,0.030087698145774375,True
54090,205,0,206,3735.0,38225.0,44326.0,0.0025009999999999998,0.006588,-0.001464,1.5925000000000002,-1.9075000000000002,-3.8675,0.5974375000000001,-0.11853125,0.11737500000000001,0.868125,0.5555,-0.62184375,-0.62296875,0.85746875,0.020441706360840667,0.03006720097469969,True
54091,206,0,207,3733.0,38224.0,44325.0,0.0064659999999999995,0.0026839999999999998,-0.0018909999999999999,0.6125,-2.4325,-3.8150000000000004,0.6012500000000001,-0.1200625,0.1165,0.86825,0.55603125,-0.6220625,-0.62525,0.850375,0.02038821889920879,0.030121521608917675,True
54092,207,0,208,3735.0,38222.0,44321.0,0.006954,-0.0028669999999999998,-0.001586,-0.36750000000000005,-2.4675000000000002,-3.7100000000000004,0.60884375,-0.11875000000000001,0.1173125,0.87553125,0.561375,-0.62253125,-0.622375,0.8576875,0.020460173037652248,0.03004127343523929,True
54093,208,0,209,3735.0,38224.0,44321.0,0.001281,-0.012139,-0.002623,-1.2600000000000002,-1.8900000000000001,-3.325,0.6009375,-0.12228125000000001,0.11690625,0.869375,0.55765625,-0.621125,-0.626125,0.85175,0.02026080246130102,0.03017247942987376,True
54094,209,0,210,3735.0,38225.0,44322.0,-0.0023179999999999997,-0.009516,0.000122,-0.9275000000000001,-1.5750000000000002,-3.3075,0.600875,-0.12175,0.116625,0.87409375,0.56315625,-0.62084375,-0.625,0.852625,0.020271187903542095,0.03011675126903553,True
54095,210,0,211,3734.0,38223.0,44320.0,-0.001586,-0.0040869999999999995,0.000732,-0.28,-1.2075,-3.5000000000000004,0.6023125,-0.11796875,0.1141875,0.8685,0.56125,-0.62134375,-0.6246875000000001,0.8515625,0.02044465993047191,0.03000545692204216,True
54096,211,0,212,3733.0,38225.0,44319.0,-0.0015249999999999999,0.001586,0.001586,0.665,-1.1900000000000002,-3.7625,0.6061875,-0.1223125,0.1174375,0.876625,0.55615625,-0.62228125,-0.62465625,0.84690625,0.020305541347839167,0.03013620748512987,True
54097,212,0,213,3732.0,38222.0,44316.0,-0.002074,0.0070149999999999995,0.0011589999999999999,1.1375000000000002,-1.225,-4.077500000000001,0.601375,-0.11862500000000001,0.113875,0.869,0.55215625,-0.62128125,-0.6261875,0.851375,0.02041551960257958,0.03005185029148341,True
54098,213,0,214,3731.0,38222.0,44315.0,-0.000183,0.0075639999999999995,-0.000183,0.6300000000000001,-1.8025000000000002,-4.2,0.60775,-0.1189375,0.11803125,0.8761875,0.5563125,-0.622125,-0.6221875,0.85621875,0.020436396127466658,0.03006307827036083,True
54099,214,0,215,3729.0,38218.0,44312.0,0.00122,0.003477,0.00122,-0.052500000000000005,-1.9600000000000002,-4.0075,0.60071875,-0.12096875,0.11762500000000001,0.8679375,0.55675,-0.62090625,-0.623,0.8514375000000001,0.0203054061017758,0.03007858506274621,True
54100,215,0,216,3729.0,38218.0,44311.0,0.000244,-0.000244,0.000793,-0.56,-1.9600000000000002,-3.9200000000000004,0.607125,-0.11865625,0.1155625,0.86928125,0.54921875,-0.6210625,-0.62353125,0.856125,0.020405547079863022,0.030015749670348358,True
54101,216,0,217,3730.0,38219.0,44311.0,0.000915,-0.003965,-6.1e-05,-1.0150000000000001,-1.6625,-3.8150000000000004,0.601,-0.12046875,0.11446875000000001,0.8600625000000001,0.5563750000000001,-0.62209375,-0.62684375,0.85090625,0.020372962798909006,0.030101807098199502,True
54102,217,0,218,3728.0,38217.0,44312.0,6.1e-05,-0.0059169999999999995,6.1e-05,-0.9975,-1.54,-3.6750000000000003,0.607375,-0.11887500000000001,0.11784375,0.8746875000000001,0.55571875,-0.6245,-0.62390625,0.85790625,0.020533411845925803,0.030123165369020197,True
54103,218,0,219,3728.0,38220.0,44311.0,0.0,-0.000915,0.001647,-0.31500000000000006,-1.2775,-3.7450000000000006,0.6022500000000001,-0.11784375,0.11790625,0.86240625,0.5705,-0.6199687500000001,-0.6273125,0.85253125,0.020395029949012426,0.03025984869441195,True
54104,219,0,220,3728.0,38218.0,44311.0,-0.000488,0.001037,0.003111,0.0175,-1.2775,-3.7100000000000004,0.6088125,-0.11846875,0.11471875000000001,0.86559375,0.54296875,-0.6264375,-0.61975,0.8648125,0.020626968476459492,0.02983250236090943,True
54105,220,0,221,3727.0,38218.0,44307.0,-0.000366,0.002196,0.0015249999999999999,0.12250000000000001,-1.4000000000000001,-3.7275000000000005,0.601,-0.121625,0.11771875,0.8725,0.54959375,-0.62571875,-0.62509375,0.845875,0.020470214701855147,0.030164859778452617,True
54106,221,0,222,3726.0,38215.0,44303.0,-0.000122,0.00183,6.1e-05,0.035,-1.6625,-3.7100000000000004,0.6061562500000001,-0.1185625,0.1144375,0.868125,0.565125,-0.62403125,-0.6188125,0.8663125,0.02052745729844702,0.0297841335767109,True
54107,222,0,223,3724.0,38214.0,44304.0,0.0034159999999999998,-0.001281,-0.002196,-0.2625,-1.8725000000000003,-3.7100000000000004,0.59953125,-0.12134375,0.11628125,0.86890625,0.5486875,-0.6146875,-0.627,0.84496875,0.020042657458072547,0.030181558858163805,True
54108,223,0,224,3724.0,38213.0,44300.0,0.003355,-0.0026839999999999998,-0.0008539999999999999,-0.4025,-1.995,-3.6225000000000005,0.607375,-0.12028125,0.11821875,0.8745937500000001,0.55021875,-0.629,-0.62415625,0.83809375,0.020655274270169312,0.03014824111993685,True
54109,224,0,225,3722.0,38214.0,44299.0,0.001769,-0.002745,0.00061,-0.2625,-1.8025000000000002,-3.6750000000000003,0.6073125,-0.11815625,0.1170625,0.8759687500000001,0.5700937500000001,-0.62140625,-0.6201875,0.86534375,0.020439531149850552,0.029944938477824343,True
54110,225,0,226,3722.0,38212.0,44297.0,-0.0011589999999999999,-0.001586,-0.000183,-0.035,-1.6275000000000002,-3.7975000000000003,0.6008125,-0.1214375,0.116,0.8690625000000001,0.544125,-0.6167812500000001,-0.62853125,0.85178125,0.020122198144812295,0.0302304364983194,True
54111,226,0,227,3721.0,38212.0,44296.0,-0.0025009999999999998,0.000244,0.000366,0.15750000000000003,-1.3475000000000001,-3.8675,0.60675,-0.12090625,0.116625,0.8745,0.5505625000000001,-0.6291875,-0.62496875,0.845,0.020637353546478138,0.030115520451168082,True
54112,227,0,228,3722.0,38211.0,44297.0,-0.002196,0.00122,-0.001281,0.35000000000000003,-1.5575,-3.9025000000000003,0.6032500000000001,-0.11765625,0.1146875,0.867125,0.57309375,-0.6179687500000001,-0.620375,0.86590625,0.02032306178794707,0.02985586125312876,True
54113,228,0,229,3719.0,38212.0,44296.0,-0.0026839999999999998,0.001403,-0.000122,0.47250000000000003,-1.61,-3.8150000000000004,0.60078125,-0.1205,0.1161875,0.8689687500000001,0.550125,-0.6224375,-0.629375,0.84521875,0.02038537005119822,0.030271271601492122,True
54114,229,0,230,3718.0,38210.0,44293.0,0.000183,0.000915,0.0018909999999999999,0.47250000000000003,-1.9425000000000001,-3.8850000000000002,0.608875,-0.11987500000000001,0.116875,0.86871875,0.55125,-0.62509375,-0.62290625,0.8455625,0.020516419353733426,0.030044432711918402,True
54115,230,0,231,3717.0,38209.0,44293.0,0.0023179999999999997,0.0018909999999999999,0.001037,0.2625,-1.995,-3.8150000000000004,0.60853125,-0.1178125,0.117125,0.8755000000000001,0.5543750000000001,-0.6255937500000001,-0.6200625,0.84075,0.020620061191417977,0.029942551933001795,True
54116,231,0,232,3716.0,38206.0,44291.0,0.001281,0.001281,-0.0006709999999999999,0.1925,-1.9775000000000003,-3.7450000000000006,0.60140625,-0.11859375,0.11478125,0.8688750000000001,0.55140625,-0.61984375,-0.62471875,0.84990625,0.02035959306199902,0.03003079984416066,True
54117,232,0,233,3718.0,38208.0,44291.0,-0.001098,-0.001098,-0.002562,0.2625,-1.5750000000000002,-3.7100000000000004,0.598125,-0.1218125,0.11721875,0.8735937500000001,0.55265625,-0.6227812500000001,-0.6236875000000001,0.8564375,0.02034574181176223,0.030089167189114144,True
54118,233,0,234,3714.0,38208.0,44292.0,-0.0017079999999999999,-0.000976,0.000244,0.28,-1.4525000000000001,-3.5700000000000003,0.6004375,-0.11478125,0.11503125,0.867625,0.55859375,-0.62090625,-0.6266875000000001,0.8544375000000001,0.02055671691613707,0.030118494417895224,True
54119,234,0,235,3713.0,38210.0,44290.0,-0.002074,0.000732,0.0011589999999999999,0.28,-1.4525000000000001,-3.535,0.6009375,-0.12171875,0.11371875000000001,0.86815625,0.55621875,-0.6210625,-0.62565625,0.85184375,0.020281161708598075,0.030024580563208343,True
54120,235,0,236,3713.0,38207.0,44288.0,-0.0008539999999999999,-0.0008539999999999999,6.1e-05,0.17500000000000002,-1.61,-3.5525,0.60259375,-0.12071875,0.11737500000000001,0.87153125,0.5554687500000001,-0.62396875,-0.6250625,0.8434375000000001,0.02043740410448661,0.03014966967088916,True
54121,236,0,237,3713.0,38206.0,44288.0,0.001098,-0.001037,-6.1e-05,0.0,-1.6975000000000002,-3.5525,0.60553125,-0.11765625,0.1149375,0.8648125,0.5568125,-0.62146875,-0.6254375,0.853875,0.020462325181149075,0.03006545568987353,True
54122,237,0,238,3712.0,38208.0,44286.0,0.0026839999999999998,-0.000915,0.000244,-0.17500000000000002,-1.7850000000000001,-3.5875000000000004,0.6015,-0.12115625000000001,0.12253125000000001,0.8745,0.55609375,-0.62275,-0.6227812500000001,0.8522500000000001,0.020371150663512406,0.030269224765175545,True
54123,238,0,239,3713.0,38204.0,44286.0,0.001769,-0.0013419999999999999,0.002806,-0.12250000000000001,-1.5750000000000002,-3.6225000000000005,0.606625,-0.11850000000000001,0.117125,0.8741875,0.56490625,-0.6218125,-0.62309375,0.857,0.020441732305450704,0.03006197180238572,True
54124,239,0,240,3711.0,38206.0,44287.0,-0.001098,-0.0026839999999999998,6.1e-05,-0.10500000000000001,-1.5225000000000002,-3.6400000000000006,0.60346875,-0.11812500000000001,0.11596875000000001,0.8676875000000001,0.5519375,-0.6214375,-0.62325,0.8582500000000001,0.020442043645908164,0.030021169017087512,True
54125,240,0,241,3711.0,38205.0,44287.0,-0.0013419999999999999,-0.002379,-0.00042699999999999997,-0.07,-1.5050000000000001,-3.6400000000000006,0.6015,-0.122125,0.11640625,0.86915625,0.55525,-0.6238125,-0.62528125,0.8435312500000001,0.02037407895304596,0.030118945341994826,True
54126,241,0,242,3712.0,38207.0,44283.0,-0.000976,-0.001037,0.000305,0.24500000000000002,-1.54,-3.6750000000000003,0.60434375,-0.121625,0.117,0.8604375,0.5556875,-0.6235937500000001,-0.623375,0.852125,0.0203856819234601,0.030067974028743016,True
54127,242,0,243,3710.0,38205.0,44286.0,0.002013,0.0021349999999999997,0.000793,0.56,-1.6975000000000002,-3.7275000000000005,0.6041875,-0.1185625,0.1213125,0.879,0.56378125,-0.62175,-0.6243125,0.85678125,0.020436707382700255,0.03028003319889642,True
54128,243,0,244,3709.0,38206.0,44285.0,0.001586,0.0032329999999999998,0.001586,0.6475000000000001,-1.7325000000000002,-3.6575,0.61421875,-0.11275,0.11684375,0.87646875,0.56290625,-0.62109375,-0.62325,0.85746875,0.0206466761859432,0.03005670453737829,True
54129,244,0,245,3709.0,38203.0,44280.0,0.0011589999999999999,0.001647,-0.000732,0.8225000000000001,-1.6275000000000002,-3.6050000000000004,0.60475,-0.1176875,0.11887500000000001,0.8675,0.55953125,-0.6209375,-0.62296875,0.8592500000000001,0.020439920291418633,0.03012811970530564,True
54130,245,0,246,3710.0,38202.0,44282.0,-0.001403,0.001464,-0.0018909999999999999,0.7875000000000001,-1.6275000000000002,-3.6575,0.6125,-0.11765625,0.115,0.87409375,0.564375,-0.621,-0.6229375,0.8491562500000001,0.020443676130132815,0.029969515213203138,True
54131,246,0,247,3707.0,38201.0,44280.0,-0.000305,0.001403,-0.0018909999999999999,0.8750000000000001,-1.61,-3.535,0.596875,-0.11709375,0.11440625,0.87925,0.5565,-0.62109375,-0.6263125,0.85903125,0.020470252260828176,0.03007834607800092,True
54132,247,0,248,3706.0,38203.0,44282.0,-0.00122,0.001098,0.001281,0.9625000000000001,-1.435,-3.6225000000000005,0.597375,-0.122625,0.1125625,0.86490625,0.55615625,-0.624875,-0.62565625,0.8511562500000001,0.020396042619505683,0.029977627499774756,True
54133,248,0,249,3705.0,38203.0,44281.0,-0.00061,0.0013419999999999999,0.0023179999999999997,0.8400000000000001,-1.4875,-3.6925000000000003,0.6071875,-0.12478125,0.12046875,0.87390625,0.56084375,-0.62446875,-0.62296875,0.8571562500000001,0.020292315950978638,0.030192845856574464,True
54134,249,0,250,3705.0,38202.0,44278.0,-0.00183,-0.001403,-0.000244,0.7350000000000001,-1.61,-3.6400000000000006,0.6154375,-0.1176875,0.1191875,0.88084375,0.56434375,-0.62165625,-0.62228125,0.85678125,0.020468515394856918,0.03011373083068816,True
54135,250,0,251,3703.0,38201.0,44280.0,-0.002745,-0.002379,-0.000366,0.5425000000000001,-1.7850000000000001,-3.5525,0.5924375000000001,-0.11696875,0.11421875000000001,0.85903125,0.55625,-0.6215,-0.62421875,0.85146875,0.020491491176410862,0.029988261048891147,True
54136,251,0,252,3704.0,38201.0,44279.0,0.000549,-0.0021349999999999997,-0.0017079999999999999,0.525,-2.0475000000000003,-3.6400000000000006,0.59678125,-0.11659375,0.112625,0.87475,0.55675,-0.6205625,-0.6206875000000001,0.852125,0.020469424693282296,0.029784403867682413,True
54137,252,0,253,3703.0,38202.0,44278.0,0.0026839999999999998,-0.000793,-0.002928,0.45500000000000007,-2.24,-3.6575,0.59790625,-0.1223125,0.11509375000000001,0.8643125,0.55684375,-0.6211875,-0.62453125,0.8518125,0.020262020262020262,0.03003610474818683,True
54138,253,0,254,3702.0,38201.0,44278.0,0.002623,0.000366,-0.001952,0.43750000000000006,-2.0125,-3.5700000000000003,0.6145,-0.11684375,0.1145625,0.87171875,0.548125,-0.62115625,-0.623625,0.85475,0.020482892634256362,0.02997883130530131,True
54139,254,0,255,3702.0,38200.0,44275.0,0.000549,0.000976,-0.002928,0.525,-1.6275000000000002,-3.5700000000000003,0.59759375,-0.12028125,0.111,0.86521875,0.55590625,-0.6228125,-0.62309375,0.85146875,0.020409173403728758,0.029813221581873724,True
54140,255,0,256,3702.0,38197.0,44277.0,-0.0006709999999999999,0.000549,0.001769,0.5425000000000001,-1.225,-3.6575,0.6059375,-0.1236875,0.1185625,0.8713125,0.5579375,-0.6223125,-0.6234375,0.85203125,0.020250941092555787,0.030133891744400024,True
54141,256,0,257,3699.0,38198.0,44279.0,0.00042699999999999997,0.001952,0.00122,0.45500000000000007,-1.0850000000000002,-3.7975000000000003,0.60734375,-0.11787500000000001,0.11871875,0.87146875,0.56059375,-0.62125,-0.623375,0.85540625,0.020444737777326492,0.030137775589252083,True
54142,257,0,258,3700.0,38199.0,44275.0,-0.002074,0.000976,0.0011589999999999999,0.12250000000000001,-1.1725,-3.7100000000000004,0.60128125,-0.12046875,0.1164375,0.8748125,0.5563125,-0.624,-0.623625,0.851125,0.02044879995126706,0.03005497768910954,True
54143,258,0,259,3700.0,38200.0,44276.0,-0.000549,-0.000732,0.002074,-0.10500000000000001,-1.3475000000000001,-3.6575,0.59540625,-0.1176875,0.11384375000000001,0.87009375,0.5593125,-0.62075,-0.62196875,0.857125,0.020432460424641814,0.029884389322035833,True
54144,259,0,260,3699.0,38199.0,44275.0,0.000549,-0.000183,0.001281,-0.22750000000000004,-1.6275000000000002,-3.7100000000000004,0.602,-0.1208125,0.1140625,0.86884375,0.55659375,-0.6201875,-0.62740625,0.8524375000000001,0.020283151783470375,0.030107464118353917,True
54145,260,0,261,3698.0,38196.0,44276.0,0.002257,-0.000732,0.002257,-0.22750000000000004,-1.6800000000000002,-3.7975000000000003,0.6103125,-0.11821875,0.11490625,0.86846875,0.56425,-0.61371875,-0.61509375,0.8803125,0.020131049884528317,0.029656600434438726,True
54146,261,0,262,3697.0,38197.0,44274.0,0.0013419999999999999,-0.000244,6.1e-05,-0.22750000000000004,-1.8025000000000002,-3.8850000000000002,0.607625,-0.11925000000000001,0.11734375,0.875,0.55153125,-0.6335937500000001,-0.61984375,0.858,0.020879769116107963,0.029942817975845193,True
54147,262,0,263,3698.0,38199.0,44274.0,-0.00183,-0.000976,-0.000244,-0.22750000000000004,-1.4000000000000001,-3.8675,0.6006875,-0.1210625,0.11678125,0.86525,0.5760000000000001,-0.6164375,-0.62840625,0.84015625,0.02012374861309643,0.03025723599146819,True
54148,263,0,264,3698.0,38198.0,44276.0,-0.001647,-0.001403,-0.000305,-0.29750000000000004,-1.3825,-3.99,0.60321875,-0.11771875,0.1156875,0.8689687500000001,0.56225,-0.62090625,-0.617125,0.87165625,0.02043740774164233,0.02976840309337504,True
54149,264,0,265,3697.0,38197.0,44273.0,-0.00122,-0.00042699999999999997,0.001403,-0.10500000000000001,-1.3650000000000002,-3.9375000000000004,0.602375,-0.12178125000000001,0.11653125,0.8696875000000001,0.54453125,-0.6265625,-0.62646875,0.83975,0.02049743036609352,0.030170789305714,True
54150,265,0,266,3696.0,38196.0,44275.0,-0.000366,-0.001098,0.001281,-0.08750000000000001,-1.435,-3.9025000000000003,0.59959375,-0.12096875,0.11703125,0.86803125,0.56696875,-0.6169687500000001,-0.63175,0.8400625,0.020148703320753088,0.03039902767769241,True
54151,266,0,267,3696.0,38197.0,44275.0,-0.000183,0.000305,0.0015249999999999999,0.0175,-1.5050000000000001,-3.9025000000000003,0.60740625,-0.1154375,0.1150625,0.86884375,0.56978125,-0.6160625,-0.6174375,0.87425,0.02033733055398279,0.029755330951891312,True
54152,267,0,268,3697.0,38196.0,44274.0,0.000305,0.000305,-0.00042699999999999997,0.1925,-1.7850000000000001,-3.8850000000000002,0.5916875,-0.11971875,0.1174375,0.8771875,0.54325,-0.6315000000000001,-0.6195625,0.86084375,0.020777510504841366,0.02993554414299604,True
54153,268,0,269,3696.0,38196.0,44274.0,0.000915,0.0,-0.0013419999999999999,0.035,-1.8025000000000002,-3.8850000000000002,0.601375,-0.12025,0.11646875,0.869375,0.56946875,-0.612,-0.62784375,0.8415,0.019980091012514224,0.030222398174830065,True
54154,269,0,270,3695.0,38195.0,44274.0,0.0013419999999999999,-0.000549,-0.002074,-0.035,-1.8550000000000002,-3.7975000000000003,0.60471875,-0.11796875,0.11471875000000001,0.86890625,0.56434375,-0.6194375,-0.62328125,0.8629375,0.020368814275305843,0.02997163507605226,True
54155,270,0,271,3696.0,38197.0,44274.0,0.000915,-0.002562,-0.000549,-0.0175,-1.8900000000000001,-3.6225000000000005,0.60121875,-0.12215625000000001,0.11709375,0.866625,0.544,-0.6247812500000001,-0.62228125,0.86,0.020411348831778964,0.030028696061621018,True
54156,271,0,272,3695.0,38196.0,44274.0,0.0008539999999999999,-0.000732,0.000793,0.052500000000000005,-1.7675,-3.6400000000000006,0.60040625,-0.12025,0.11675,0.86984375,0.55846875,-0.6164375,-0.63103125,0.83840625,0.020156755013799214,0.0303593155483492,True
54157,272,0,273,3694.0,38196.0,44274.0,0.000244,0.0011589999999999999,0.000549,0.42000000000000004,-1.4700000000000002,-3.6225000000000005,0.60790625,-0.11784375,0.116375,0.8693125,0.572125,-0.6194375,-0.62315625,0.8453437500000001,0.020373891564338137,0.030033974625003648,True
54158,273,0,274,3695.0,38195.0,44275.0,0.000122,0.0017079999999999999,0.000122,0.4025,-1.3125000000000002,-3.7625,0.60840625,-0.11812500000000001,0.1216875,0.87515625,0.55521875,-0.62321875,-0.6195625,0.8538125,0.020512905121309537,0.030108171093617117,True
54159,274,0,275,3694.0,38197.0,44273.0,6.1e-05,0.00122,0.000305,0.5075000000000001,-1.3650000000000002,-3.7975000000000003,0.6015,-0.11965625,0.115875,0.8667812500000001,0.54965625,-0.62384375,-0.62471875,0.8483125,0.020475580706200674,0.030075216595113394,True
54160,275,0,276,3693.0,38196.0,44272.0,-0.000183,0.0015249999999999999,-0.00042699999999999997,0.43750000000000006,-1.5050000000000001,-3.7975000000000003,0.60690625,-0.11765625,0.11675,0.8740625,0.55921875,-0.621375,-0.62371875,0.8568125,0.020458595427753322,0.030071361580995968,True
54161,276,0,277,3694.0,38196.0,44271.0,0.0011589999999999999,0.000122,0.0,0.3325,-1.54,-3.7275000000000005,0.6022500000000001,-0.12028125,0.11653125,0.8651875,0.55625,-0.6206875000000001,-0.62465625,0.85196875,0.020324625378556147,0.030099404940931915,True
54162,277,0,278,3694.0,38196.0,44272.0,-0.00042699999999999997,-0.001037,0.000549,0.28,-1.3825,-3.7450000000000006,0.6068125,-0.11796875,0.115625,0.868125,0.56534375,-0.62090625,-0.620125,0.85090625,0.020427253769344903,0.029884088728225382,True
54163,278,0,279,3692.0,38195.0,44272.0,-0.0017079999999999999,-0.0006709999999999999,-0.000488,0.3325,-1.4175000000000002,-3.8850000000000002,0.60434375,-0.11853125,0.11675,0.87321875,0.55725,-0.621625,-0.62290625,0.85821875,0.020433003508095016,0.030039356138148805,True
54164,279,0,280,3693.0,38194.0,44272.0,-0.002379,0.000244,0.000305,0.43750000000000006,-1.4875,-3.9025000000000003,0.601375,-0.11850000000000001,0.11696875,0.8719375,0.54865625,-0.62384375,-0.6238750000000001,0.8571875,0.02052253722573268,0.03008639988628922,True
54165,280,0,281,3694.0,38192.0,44272.0,-0.002623,0.000244,-0.001586,0.56,-1.5925000000000002,-3.8675,0.60184375,-0.11790625,0.1193125,0.8691875,0.5572812500000001,-0.620375,-0.625375,0.85203125,0.020408655432746253,0.03024065623366142,True
54166,281,0,282,3693.0,38192.0,44270.0,-0.0026839999999999998,0.00042699999999999997,-0.0011589999999999999,0.6125,-1.6800000000000002,-3.9550000000000005,0.60728125,-0.11871875,0.11621875,0.86459375,0.564625,-0.62121875,-0.6239375,0.8559687500000001,0.02040922527443935,0.030058403535177917,True
54167,282,0,283,3692.0,38193.0,44270.0,0.0018909999999999999,0.0011589999999999999,-0.002013,0.5075000000000001,-1.9075000000000002,-3.7625,0.60178125,-0.11950000000000001,0.11690625,0.8685625,0.54878125,-0.6228750000000001,-0.62328125,0.852875,0.020443388515760243,0.030060473764031752,True
54168,283,0,284,3695.0,38195.0,44271.0,0.0008539999999999999,0.0017079999999999999,-0.001586,0.29750000000000004,-1.9075000000000002,-3.5175000000000005,0.6076875,-0.11828125,0.11750000000000001,0.87140625,0.56575,-0.62025,-0.62446875,0.8582500000000001,0.020388450564068194,0.030131360701944082,True
54169,284,0,285,3692.0,38194.0,44271.0,0.002928,0.000122,-0.000183,0.24500000000000002,-1.715,-3.4650000000000003,0.60203125,-0.11753125,0.113375,0.856625,0.557625,-0.62096875,-0.6265000000000001,0.852,0.02044750980807772,0.03004385519663777,True
54170,285,0,286,3692.0,38192.0,44272.0,0.00244,-0.000122,-0.000244,0.07,-1.3650000000000002,-3.4825000000000004,0.61259375,-0.11403125,0.11740625,0.88125,0.563375,-0.62146875,-0.6231875,0.8512500000000001,0.020609554415798207,0.03007708689218242,True
54171,286,0,287,3692.0,38191.0,44269.0,-0.000976,-0.002806,0.0015249999999999999,-0.07,-1.2950000000000002,-3.4650000000000003,0.5979375,-0.11171875,0.11315625,0.8748125,0.5565625,-0.62096875,-0.62540625,0.8481562500000001,0.020683589064707294,0.029991890996722136,True
54172,287,0,288,3692.0,38190.0,44269.0,-0.0013419999999999999,-0.0021349999999999997,0.001586,-0.052500000000000005,-1.2425000000000002,-3.43,0.5952500000000001,-0.12562500000000001,0.1178125,0.85640625,0.5569375,-0.62515625,-0.6235937500000001,0.855625,0.020285404280429693,0.030109587476442184,True
54173,288,0,289,3691.0,38191.0,44271.0,-0.001586,-0.00061,0.0008539999999999999,-0.07,-1.4875,-3.43,0.6176875000000001,-0.11621875,0.11421875000000001,0.86725,0.56340625,-0.6203125,-0.6265937500000001,0.85096875,0.0204747096528527,0.030081809426039687,True
54174,289,0,290,3690.0,38193.0,44272.0,0.001281,-0.001098,0.001403,-0.035,-1.5925000000000002,-3.5875000000000004,0.59609375,-0.12446875,0.11946875,0.87071875,0.5510625,-0.62134375,-0.6226875000000001,0.8586875,0.02018066134184898,0.030141155387688693,True
54175,290,0,291,3690.0,38190.0,44270.0,0.0026839999999999998,0.000732,0.000305,-0.14,-1.7675,-3.6225000000000005,0.586375,-0.1219375,0.11540625,0.8637812500000001,0.556875,-0.62290625,-0.623625,0.8522500000000001,0.020345638525103023,0.030013097178015015,True
54176,291,0,292,3692.0,38191.0,44273.0,0.003538,-0.001098,0.001586,-0.07,-1.4525000000000001,-3.535,0.61628125,-0.11615625,0.10968750000000001,0.8631562500000001,0.56378125,-0.62096875,-0.6265937500000001,0.8511562500000001,0.02050335651394708,0.0298978111822712,True
54177,292,0,293,3690.0,38192.0,44271.0,-0.000488,-0.00042699999999999997,0.000366,0.22750000000000004,-1.33,-3.5875000000000004,0.6110625000000001,-0.11915625,0.12065625,0.8856875000000001,0.563625,-0.62115625,-0.6265000000000001,0.8584375,0.02038896934419967,0.030339522465636613,True
54178,293,0,294,3691.0,38190.0,44268.0,-0.003294,-0.000244,0.000549,0.525,-1.2950000000000002,-3.535,0.59490625,-0.12053125,0.11875000000000001,0.87621875,0.5563750000000001,-0.62328125,-0.623375,0.85553125,0.020417668745915007,0.03013904470853407,True
54179,294,0,295,3691.0,38191.0,44269.0,-0.0018909999999999999,0.001098,0.001586,0.6300000000000001,-1.155,-3.6575,0.61240625,-0.1151875,0.114125,0.865625,0.55678125,-0.6201875,-0.626625,0.85140625,0.02051162282984238,0.030079233350083497,True
54180,295,0,296,3691.0,38191.0,44268.0,-0.0013419999999999999,0.0008539999999999999,0.0011589999999999999,0.77,-1.3475000000000001,-3.7100000000000004,0.59928125,-0.12390625000000001,0.11940625,0.88309375,0.5622812500000001,-0.6248125,-0.6235625,0.85971875,0.02034152544308713,0.030173081169712956,True
54181,296,0,297,3693.0,38192.0,44270.0,-0.0006709999999999999,0.000122,-0.00122,0.525,-1.7675,-3.7275000000000005,0.596125,-0.12121875,0.11471875000000001,0.8639375,0.55709375,-0.62371875,-0.6237812500000001,0.85165625,0.020407153164060565,0.02999133205831253,True
54182,297,0,298,3691.0,38192.0,44272.0,-6.1e-05,-0.0006709999999999999,-0.001769,0.525,-1.9075000000000002,-3.7800000000000002,0.6120625000000001,-0.11640625,0.11290625,0.86265625,0.5545,-0.62140625,-0.62475,0.85190625,0.02051060751251769,0.029955887877034286,True
54183,298,0,299,3692.0,38192.0,44273.0,-0.001098,-0.00122,-0.002562,0.56,-2.0125,-3.6050000000000004,0.60121875,-0.11912500000000001,0.11965625,0.8727812500000001,0.5650000000000001,-0.62125,-0.623375,0.8581562500000001,0.020393968624663653,0.03017584916771158,True
54184,299,0,300,3691.0,38191.0,44272.0,0.00122,0.0006709999999999999,-0.001281,0.7175,-1.8025000000000002,-3.7625,0.599625,-0.121375,0.1194375,0.87565625,0.5565,-0.62390625,-0.61671875,0.84871875,0.020408266864645003,0.02990472684341815,True
54185,300,0,301,3690.0,38192.0,44272.0,0.000549,0.000793,-0.000366,0.8400000000000001,-1.8375000000000001,-3.6750000000000003,0.60159375,-0.1188125,0.11278125,0.8691875,0.55696875,-0.621125,-0.627,0.84125,0.020401687575202193,0.030039438421244978,True
54186,301,0,302,3692.0,38191.0,44271.0,-0.0011589999999999999,0.00183,-0.000122,0.8225000000000001,-1.5925000000000002,-3.4475000000000002,0.608125,-0.11775000000000001,0.11775000000000001,0.8745,0.563375,-0.622,-0.62475,0.856,0.0204796523434327,0.030152590381628243,True
54187,302,0,303,3690.0,38187.0,44272.0,-0.000915,0.001647,-0.00061,0.8575,-1.6275000000000002,-3.4125000000000005,0.602125,-0.11715625,0.1150625,0.87,0.55646875,-0.62053125,-0.626,0.8520625000000001,0.020445334622907457,0.03009268659140745,True
54188,303,0,304,3690.0,38190.0,44269.0,0.001647,0.001647,-0.001464,0.6825000000000001,-1.7325000000000002,-3.3950000000000005,0.5955625,-0.12065625,0.11703125,0.87346875,0.55659375,-0.62334375,-0.62390625,0.8551875,0.020415078679149736,0.030090168979586655,True
54189,304,0,305,3691.0,38189.0,44273.0,0.0026839999999999998,0.000732,-0.000793,0.36750000000000005,-1.5050000000000001,-3.5000000000000004,0.6081562500000001,-0.11275,0.1149375,0.86184375,0.5635,-0.620625,-0.6227812500000001,0.8513125,0.020628030360723984,0.029960821343039797,True
54190,305,0,306,3690.0,38189.0,44273.0,-0.0006709999999999999,-0.002196,-0.00061,-0.052500000000000005,-1.5575,-3.6400000000000006,0.60478125,-0.12184375,0.1214375,0.87346875,0.55684375,-0.624625,-0.6235625,0.84690625,0.020417823621679515,0.030255573294887775,True
54191,306,0,307,3691.0,38190.0,44274.0,-0.0025009999999999998,-0.0050019999999999995,-0.000915,-0.45500000000000007,-2.0125,-3.7275000000000005,0.6079375,-0.11837500000000001,0.12240625000000001,0.8739375,0.5648125,-0.6196875000000001,-0.6238125,0.8589375,0.02036226089384766,0.03030476088948452,True
54192,307,0,308,3689.0,38192.0,44276.0,0.001098,-0.0025009999999999998,-0.000305,-0.385,-2.4675000000000002,-3.7275000000000005,0.60821875,-0.11825000000000001,0.11753125,0.87421875,0.56484375,-0.62109375,-0.6238125,0.8599687500000001,0.020423290496588926,0.030106781799122292,True
54193,308,0,309,3690.0,38191.0,44276.0,0.007137,0.000122,0.00183,-0.10500000000000001,-2.5025000000000004,-3.6400000000000006,0.6016875,-0.1176875,0.11525,0.86921875,0.556625,-0.6210625,-0.624,0.8519375,0.020444893472814175,0.030021523716699156,True
54194,309,0,310,3691.0,38189.0,44274.0,0.007686,0.003355,0.00122,0.17500000000000002,-2.205,-3.6925000000000003,0.60075,-0.12153125000000001,0.1180625,0.8695625,0.557,-0.62465625,-0.624375,0.85196875,0.02043175729610439,0.03015051143430036,True
54195,310,0,311,3691.0,38187.0,44273.0,0.0062829999999999995,0.004209,0.001647,0.21000000000000002,-1.5225000000000002,-3.7800000000000002,0.60925,-0.11784375,0.11703125,0.87165625,0.5635625,-0.6214375,-0.6233125,0.86021875,0.020453466618267108,0.030066781226124634,True
54196,311,0,312,3691.0,38189.0,44273.0,-0.005673,-6.1e-05,0.000488,0.035,-0.36750000000000005,-3.4125000000000005,0.6061875,-0.11043750000000001,0.1145625,0.86846875,0.556875,-0.6206875000000001,-0.6247812500000001,0.85303125,0.020724441590024654,0.030024378389148128,True
54197,312,0,313,3691.0,38187.0,44273.0,-0.009211,-0.00122,0.000488,0.21000000000000002,-0.2625,-3.4125000000000005,0.604125,-0.11884375,0.11737500000000001,0.8766875000000001,0.55678125,-0.624375,-0.623625,0.85771875,0.02052970887585979,0.03009305088101366,True
54198,313,0,314,3692.0,38192.0,44276.0,-0.00793,0.000183,0.0021349999999999997,0.47250000000000003,-0.8225000000000001,-3.6400000000000006,0.6014375,-0.11659375,0.113375,0.86921875,0.55646875,-0.61746875,-0.62728125,0.8427187500000001,0.020346324193059043,0.03007462506645958,True
54199,314,0,315,3691.0,38191.0,44278.0,-0.002928,0.002379,0.002196,0.5775,-1.5925000000000002,-3.9025000000000003,0.607875,-0.1203125,0.1175625,0.87415625,0.56190625,-0.624125,-0.62328125,0.85853125,0.020460117872208656,0.0300871253704256,True
54200,315,0,316,3692.0,38190.0,44276.0,0.00244,0.0034159999999999998,-0.000183,0.31500000000000006,-2.3275,-4.077500000000001,0.601625,-0.11784375,0.11665625,0.8641562500000001,0.5524375,-0.62040625,-0.6239375,0.85203125,0.020412437345545428,0.030076170799247685,True
54201,316,0,317,3692.0,38190.0,44275.0,0.00549,-0.0023179999999999997,-0.003904,-0.5425000000000001,-2.765,-3.9025000000000003,0.60846875,-0.11896875,0.11734375,0.87509375,0.5629375,-0.62234375,-0.6235937500000001,0.859375,0.02044382960090873,0.03009055085633063,True
54202,317,0,318,3692.0,38188.0,44271.0,0.0035989999999999998,-0.0051849999999999995,-0.00244,-0.8225000000000001,-2.3800000000000003,-3.8500000000000005,0.6026875,-0.11987500000000001,0.11671875,0.8735,0.5542812500000001,-0.62240625,-0.6239375,0.8535625,0.020409510138758274,0.030078708979829078,True
54203,318,0,319,3690.0,38187.0,44269.0,0.001403,-0.0059169999999999995,0.000366,-0.9100000000000001,-1.7850000000000001,-3.7975000000000003,0.60240625,-0.11796875,0.11396875000000001,0.86946875,0.55790625,-0.62128125,-0.62525,0.8523125,0.020442173373897837,0.03001873077430686,True
54204,319,0,320,3690.0,38188.0,44269.0,-0.00183,-0.0060999999999999995,0.001586,-0.7175,-1.05,-3.5525,0.60628125,-0.11803125,0.11715625,0.87265625,0.5618125,-0.62121875,-0.62425,0.8583437500000001,0.020437148343844677,0.030108785039138244,True
54205,320,0,321,3688.0,38187.0,44267.0,-0.004392,-0.003111,0.002074,-0.2625,-0.7875000000000001,-3.3425000000000002,0.601625,-0.1159375,0.11571875000000001,0.8688125,0.5568125,-0.6214375,-0.61803125,0.8530625000000001,0.020530888986477737,0.029805389088536475,True
54206,321,0,322,3687.0,38188.0,44266.0,-0.0050019999999999995,0.0028669999999999998,0.000122,0.6300000000000001,-0.8925000000000001,-3.5700000000000003,0.6024375,-0.11978125,0.11725000000000001,0.86890625,0.5563750000000001,-0.62328125,-0.62334375,0.852125,0.020448127724650832,0.030076896034885593,True
54207,322,0,323,3688.0,38188.0,44265.0,-0.0015249999999999999,0.0059169999999999995,-0.000122,0.7175,-1.4175000000000002,-3.7975000000000003,0.60553125,-0.11809375,0.11809375,0.8719375,0.56571875,-0.62090625,-0.62315625,0.8596875,0.02042217678319619,0.030103776805623768,True
54208,323,0,324,3686.0,38185.0,44262.0,0.002928,0.004331,0.0011589999999999999,0.5075000000000001,-1.9075000000000002,-3.8500000000000005,0.602375,-0.11900000000000001,0.11721875,0.8725625,0.55678125,-0.6229375,-0.62540625,0.8540625000000001,0.020466181177611325,0.030156862894393878,True
54209,324,0,325,3685.0,38186.0,44259.0,0.004514,0.001586,0.000366,0.08750000000000001,-2.31,-3.7625,0.60159375,-0.1176875,0.11709375,0.869625,0.54378125,-0.6201875,-0.6298125,0.84909375,0.020410080142565932,0.030325291757702176,True
54210,325,0,326,3684.0,38183.0,44258.0,0.0050019999999999995,-0.00042699999999999997,-0.000183,-0.3325,-2.2925000000000004,-3.7450000000000006,0.6064375,-0.11762500000000001,0.11390625,0.8694375,0.569625,-0.6178750000000001,-0.623125,0.8506875,0.02032060037675876,0.029932482168693045,True
54211,326,0,327,3683.0,38182.0,44255.0,0.002013,-0.002928,-0.003294,-0.43750000000000006,-2.1,-3.6050000000000004,0.6024375,-0.1213125,0.116875,0.87075,0.553125,-0.62465625,-0.62446875,0.8493437500000001,0.02044064066884182,0.030105979443718966,True
54212,327,0,328,3682.0,38182.0,44252.0,-0.0006709999999999999,-0.0008539999999999999,-0.000549,0.08750000000000001,-1.4175000000000002,-3.5875000000000004,0.60290625,-0.11762500000000001,0.11240625,0.86846875,0.56996875,-0.61315625,-0.626625,0.84490625,0.02013277959830934,0.03000944100135524,True
54213,328,0,329,3680.0,38181.0,44253.0,-0.001952,0.001403,-0.000183,0.47250000000000003,-1.0850000000000002,-3.5700000000000003,0.5953437500000001,-0.12309375,0.1178125,0.89675,0.560375,-0.62365625,-0.6219375,0.8655,0.02032852046494923,0.030044345616586834,True
54214,329,0,330,3680.0,38179.0,44251.0,-0.004209,0.001647,0.0017079999999999999,0.7525000000000001,-0.9275000000000001,-3.535,0.59540625,-0.10934375,0.107625,0.85878125,0.5531875,-0.62471875,-0.6280625,0.84709375,0.020929173048930765,0.029871919482094864,True
54215,330,0,331,3678.0,38180.0,44250.0,-0.002562,0.001952,0.002928,0.5775,-0.9275000000000001,-3.5000000000000004,0.59546875,-0.12321875,0.11996875,0.8604375,0.56646875,-0.62775,-0.62190625,0.85884375,0.020486290871070238,0.03013068900788297,True
54216,331,0,332,3678.0,38179.0,44249.0,0.0030499999999999998,-0.001098,6.1e-05,-0.17500000000000002,-1.6800000000000002,-3.6225000000000005,0.62721875,-0.11509375000000001,0.11484375000000001,0.86165625,0.5695,-0.61684375,-0.62690625,0.84765625,0.02038238553632612,0.03011949582583074,True
54217,332,0,333,3676.0,38178.0,44249.0,0.004148,-0.002928,-0.000244,-0.45500000000000007,-1.9425000000000001,-3.6050000000000004,0.61084375,-0.11862500000000001,0.11409375000000001,0.86884375,0.5666875,-0.621125,-0.62621875,0.8522500000000001,0.020409302986764417,0.030061963938333002,True
54218,333,0,334,3675.0,38180.0,44246.0,0.0028669999999999998,-0.004575,-0.000732,-0.385,-1.7500000000000002,-3.4475000000000002,0.601125,-0.12259375,0.12165625000000001,0.888125,0.56215625,-0.62215625,-0.62240625,0.865375,0.02028914506624496,0.030218918997813222,True
54219,334,0,335,3675.0,38177.0,44243.0,0.0008539999999999999,-0.0044529999999999995,0.001464,-0.21000000000000002,-1.5050000000000001,-3.4125000000000005,0.598125,-0.11890625,0.1088125,0.858625,0.5544687500000001,-0.6243125,-0.6259375,0.8409375,0.02052468469931902,0.029836427547174603,True
54220,335,0,336,3673.0,38176.0,44241.0,-0.000915,-0.002379,0.000183,0.31500000000000006,-1.2425000000000002,-3.5000000000000004,0.62409375,-0.11709375,0.122,0.88884375,0.5698125,-0.62040625,-0.619375,0.8600625000000001,0.020442899881069187,0.030113477697951307,True
54221,336,0,337,3671.0,38175.0,44241.0,-0.005978,0.0035989999999999998,-0.00042699999999999997,1.2600000000000002,-1.0675000000000001,-3.6225000000000005,0.60375,-0.11396875000000001,0.11025,0.8551875,0.543375,-0.61975,-0.6280625,0.85021875,0.02054371998090964,0.02997850521128083,True
54222,337,0,338,3670.0,38174.0,44237.0,-0.0048189999999999995,0.0042699999999999995,0.0013419999999999999,1.435,-1.1725,-3.5875000000000004,0.6178125,-0.11925000000000001,0.11996875,0.86475,0.56378125,-0.61815625,-0.62540625,0.851875,0.020265784526410258,0.030268536178971666,True
54223,338,0,339,3668.0,38175.0,44239.0,-0.003111,0.004026,0.00122,1.4175000000000002,-1.4525000000000001,-3.7100000000000004,0.60975,-0.12390625000000001,0.12171875,0.8798750000000001,0.561875,-0.62175,-0.62025,0.85209375,0.020219673662513836,0.030136523796468355,True
54224,339,0,340,3668.0,38173.0,44239.0,-0.000305,0.003721,-6.1e-05,1.3125000000000002,-1.8725000000000003,-3.7625,0.6234375,-0.116875,0.11684375,0.88584375,0.5619375,-0.62075,-0.62334375,0.85875,0.02046546104403806,0.03006039746328116,True
54225,340,0,341,3667.0,38172.0,44236.0,0.002562,0.0028669999999999998,0.0,1.12,-2.2750000000000004,-3.6575,0.591125,-0.1159375,0.11121875,0.86253125,0.55646875,-0.62215625,-0.62703125,0.852,0.020559480853753413,0.029977222691021682,True
54226,341,0,342,3664.0,38173.0,44234.0,0.004148,-0.000915,-0.0040869999999999995,0.7875000000000001,-2.2575000000000003,-3.22,0.60103125,-0.1181875,0.1190625,0.8753125,0.5630000000000001,-0.62384375,-0.62403125,0.8569375,0.02053522817695755,0.030177583128270274,True
54227,342,0,343,3666.0,38172.0,44233.0,0.002379,-0.000915,-0.002379,0.8400000000000001,-1.7675,-3.2025,0.60925,-0.11790625,0.114375,0.86971875,0.56303125,-0.62146875,-0.62228125,0.85959375,0.020452171440828445,0.029918277779399503,True
54228,343,0,344,3664.0,38173.0,44234.0,-0.000915,-0.0008539999999999999,-0.0017079999999999999,0.8925000000000001,-1.3825,-3.1500000000000004,0.6020625000000001,-0.1203125,0.11553125,0.87171875,0.55703125,-0.62071875,-0.62603125,0.8559375,0.0203245995813993,0.030112952122563395,True
54229,344,0,345,3663.0,38172.0,44232.0,-0.002745,-0.001586,-6.1e-05,0.8925000000000001,-1.2075,-3.0975,0.60165625,-0.11728125,0.11425,0.876625,0.5433125,-0.6205,-0.62328125,0.8595625,0.020439014236104062,0.029952598214342367,True
54230,345,0,346,3661.0,38174.0,44232.0,-0.001464,-0.0008539999999999999,-0.000305,0.77,-1.3125000000000002,-3.2550000000000003,0.5946875,-0.11734375,0.1179375,0.87671875,0.553125,-0.61803125,-0.61834375,0.85646875,0.02033824292915381,0.029907830416089628,True
54231,346,0,347,3659.0,38172.0,44231.0,0.00122,0.00042699999999999997,-0.000183,0.36750000000000005,-1.715,-3.535,0.6099375,-0.11975000000000001,0.1165625,0.8695,0.5639375,-0.62309375,-0.6244375,0.8518125,0.02044193776421779,0.030092057940409807,True
54232,347,0,348,3658.0,38170.0,44230.0,0.0023179999999999997,-0.00042699999999999997,6.1e-05,0.24500000000000002,-1.9600000000000002,-3.5875000000000004,0.60478125,-0.11428125,0.11603125,0.87409375,0.56271875,-0.62321875,-0.62340625,0.85590625,0.02066900778355795,0.030029862338806196,True
54233,348,0,349,3658.0,38173.0,44230.0,0.000915,-0.002623,6.1e-05,0.035,-1.9775000000000003,-3.5875000000000004,0.60721875,-0.1143125,0.117125,0.87565625,0.5650625,-0.62071875,-0.62334375,0.8598125,0.020568296772408397,0.030071819551315,True
54234,349,0,350,3657.0,38172.0,44229.0,0.00042699999999999997,-0.002013,0.0013419999999999999,-0.12250000000000001,-1.7850000000000001,-3.6750000000000003,0.595125,-0.1198125,0.1139375,0.8695625,0.55734375,-0.6204375,-0.62709375,0.8523125,0.02033371665308547,0.030090081173301256,True
54235,350,0,351,3657.0,38171.0,44228.0,-0.000488,-0.001098,0.00042699999999999997,-0.07,-1.5925000000000002,-3.6925000000000003,0.6014375,-0.12165625000000001,0.12346875,0.8755625,0.5513750000000001,-0.61759375,-0.62384375,0.85821875,0.020145652943842247,0.030349140759147325,True
54236,351,0,352,3655.0,38171.0,44228.0,-0.000244,0.0,0.0013419999999999999,0.2625,-1.3125000000000002,-3.5700000000000003,0.60184375,-0.11759375,0.11321875,0.8697812500000001,0.5534687500000001,-0.6206875000000001,-0.6254375,0.8521562500000001,0.02043378155057612,0.02999565997558419,True
54237,352,0,353,3655.0,38173.0,44226.0,-0.002745,0.0021349999999999997,-0.000549,0.47250000000000003,-1.2075,-3.3425000000000002,0.6085625,-0.11862500000000001,0.11628125,0.86890625,0.54834375,-0.62346875,-0.62334375,0.8519375,0.020502543939915047,0.03003755328721348,True
54238,353,0,354,3656.0,38169.0,44228.0,-0.0023179999999999997,0.002623,0.001037,0.6475000000000001,-1.1025,-3.2725000000000004,0.6078125,-0.11853125,0.11750000000000001,0.87740625,0.56415625,-0.62184375,-0.61928125,0.8470625,0.020441706360840667,0.029927000813640733,True
54239,354,0,355,3654.0,38172.0,44227.0,-0.000488,0.002562,0.001647,0.7875000000000001,-1.2775,-3.2025,0.6020625000000001,-0.11765625,0.11325,0.87059375,0.55815625,-0.62065625,-0.62625,0.8580625000000001,0.020429999708070332,0.030028932541495353,True
54240,355,0,356,3652.0,38173.0,44228.0,0.000488,0.001098,0.001769,0.77,-1.6800000000000002,-3.08,0.6025625,-0.11934375,0.11762500000000001,0.87115625,0.55703125,-0.6224375,-0.62109375,0.85221875,0.020432329252536432,0.03000349040139616,True
54241,356,0,357,3653.0,38169.0,44224.0,0.0011589999999999999,0.000549,0.00061,0.5775,-1.8725000000000003,-3.22,0.60659375,-0.11784375,0.11503125,0.869125,0.5622812500000001,-0.621,-0.62365625,0.85421875,0.020436060679907397,0.029999098935601817,True
54242,357,0,358,3652.0,38170.0,44226.0,0.001281,-0.000915,-0.0006709999999999999,0.45500000000000007,-2.1,-3.2025,0.59965625,-0.11821875,0.116875,0.876625,0.55709375,-0.6228750000000001,-0.6228750000000001,0.857875,0.020495423462938426,0.030043201697608428,True
54243,358,0,359,3651.0,38172.0,44225.0,0.00183,-0.0015249999999999999,0.000122,0.5775,-2.0475000000000003,-3.08,0.60259375,-0.12096875,0.11909375,0.87628125,0.55640625,-0.6237812500000001,-0.6238750000000001,0.8569687500000001,0.020419792350129008,0.030172698245097492,True
54244,359,0,360,3651.0,38171.0,44225.0,0.000732,-0.002196,0.001464,0.7175,-2.0300000000000002,-3.0450000000000004,0.60184375,-0.11750000000000001,0.1184375,0.869125,0.55746875,-0.61975,-0.6251875,0.852,0.02040028838635648,0.03019773961111971,True
54245,360,0,361,3650.0,38171.0,44225.0,-0.001952,-0.0015249999999999999,-0.002257,0.9450000000000001,-2.1875,-3.3775000000000004,0.60165625,-0.1138125,0.11640625,0.870125,0.55771875,-0.6238125,-0.62665625,0.852375,0.020711658684048215,0.030173097494711653,True
54246,361,0,362,3649.0,38171.0,44227.0,-0.003721,-0.000793,-0.001586,1.1025,-2.3625000000000003,-3.325,0.6084375,-0.11775000000000001,0.11737500000000001,0.87703125,0.56296875,-0.62075,-0.6234375,0.85671875,0.020429921915457488,0.0300856653340948,True
54247,362,0,363,3650.0,38168.0,44227.0,-0.0026839999999999998,-0.000488,-0.003172,1.2425000000000002,-2.9050000000000002,-3.3075,0.60221875,-0.1180625,0.114125,0.86959375,0.562,-0.62075,-0.62625,0.85184375,0.020417229369535862,0.030064463732805444,True
54248,363,0,364,3648.0,38170.0,44228.0,0.001586,0.0013419999999999999,-0.000793,1.3125000000000002,-3.1325000000000003,-3.3075,0.6098125,-0.1185625,0.11965625,0.876,0.55740625,-0.6225,-0.623375,0.85809375,0.02046654482688598,0.03017584916771158,True
54249,364,0,365,3648.0,38169.0,44223.0,0.0062829999999999995,0.002623,-0.001586,1.33,-3.3600000000000003,-3.3075,0.60209375,-0.11750000000000001,0.1150625,0.8698750000000001,0.5508125,-0.62071875,-0.62653125,0.85178125,0.020438832639684813,0.030113609686707298,True
54250,365,0,366,3646.0,38167.0,44223.0,0.005856,0.0006709999999999999,-0.001464,0.9800000000000001,-2.9225000000000003,-3.4650000000000003,0.60921875,-0.11800000000000001,0.1163125,0.87715625,0.55703125,-0.623375,-0.62371875,0.8661875,0.02052419702823029,0.030053594159086962,True
54251,366,0,367,3645.0,38168.0,44223.0,0.001769,-0.000122,-0.000732,0.9275000000000001,-2.3275,-3.3775000000000004,0.59159375,-0.1145,0.1136875,0.8689687500000001,0.54990625,-0.62025,-0.6254375,0.85246875,0.020542033488693247,0.030014695170390376,True
54252,367,0,368,3646.0,38167.0,44224.0,-0.000793,-0.000488,-0.000793,1.05,-1.8200000000000003,-3.325,0.5949375,-0.11950000000000001,0.1159375,0.8698750000000001,0.552,-0.618125,-0.6294062500000001,0.85478125,0.020254385742212295,0.0302623515335454,True
54253,368,0,369,3644.0,38168.0,44225.0,-0.004392,0.00061,0.002257,1.1725,-1.33,-3.3425000000000002,0.60209375,-0.1209375,0.11390625,0.86984375,0.5505,-0.6178125,-0.629125,0.8555,0.020183556114094215,0.03016880421046221,True
54254,369,0,370,3646.0,38169.0,44222.0,-0.0026839999999999998,0.001098,0.0032329999999999998,1.3125000000000002,-1.2950000000000002,-3.3950000000000005,0.60196875,-0.11996875,0.12375,0.8698125,0.54953125,-0.61859375,-0.62946875,0.8464375000000001,0.020254000088855605,0.03058201367010809,True
54255,370,0,371,3645.0,38169.0,44226.0,-0.000305,0.002379,-0.0008539999999999999,0.9450000000000001,-1.7850000000000001,-3.7100000000000004,0.60578125,-0.11790625,0.11859375,0.87684375,0.55140625,-0.6271875,-0.6215937500000001,0.85978125,0.020679635057799434,0.030062534030722524,True
54256,371,0,372,3643.0,38167.0,44224.0,-0.000366,0.000366,-0.000976,0.7350000000000001,-1.9250000000000003,-3.7625,0.60275,-0.11671875,0.11671875,0.86859375,0.571625,-0.61425,-0.62525,0.85353125,0.020213138730613363,0.030130404767464286,True
54257,372,0,373,3644.0,38168.0,44226.0,0.0,-0.001464,0.000366,0.45500000000000007,-1.9250000000000003,-3.6925000000000003,0.606,-0.1186875,0.11834375,0.864625,0.53878125,-0.627,-0.6221875,0.8523437500000001,0.02064045559751492,0.030075770075262402,True
54258,373,0,374,3643.0,38166.0,44223.0,-0.000122,-0.000915,0.000488,0.3325,-1.9425000000000001,-3.6925000000000003,0.60171875,-0.11990625,0.11746875,0.86540625,0.561625,-0.6176875000000001,-0.62965625,0.847,0.02022047156135198,0.030334365710037062,True
54259,374,0,375,3642.0,38167.0,44223.0,-0.000183,-0.0017079999999999999,-0.000183,0.4025,-1.9425000000000001,-3.7625,0.6041562500000001,-0.117125,0.11740625,0.8688750000000001,0.57240625,-0.61915625,-0.61871875,0.85971875,0.02039189503092739,0.02990102805411025,True
54260,375,0,376,3643.0,38168.0,44224.0,-0.0008539999999999999,-0.000488,0.001098,0.8225000000000001,-1.7850000000000001,-3.7975000000000003,0.60771875,-0.12146875,0.11821875,0.87621875,0.5504375,-0.628,-0.62446875,0.83940625,0.02056729129446159,0.03016054914890296,True
54261,376,0,377,3643.0,38167.0,44225.0,0.000915,0.000976,0.000183,0.7525000000000001,-1.9075000000000002,-3.8675,0.60203125,-0.11778125,0.1158125,0.8693125,0.5716875,-0.6193125,-0.6253125,0.8555625,0.020371456351593896,0.030096064770751642,True
54262,377,0,378,3642.0,38168.0,44225.0,0.00122,0.001769,-0.001098,0.8225000000000001,-2.0125,-3.9725000000000006,0.6099687500000001,-0.11846875,0.11778125,0.87409375,0.5505625000000001,-0.6277812500000001,-0.615,0.8621875,0.020680405385686135,0.029769703432866137,True
54263,378,0,379,3644.0,38168.0,44225.0,-0.000244,0.001586,0.000732,0.7525000000000001,-1.9075000000000002,-3.7450000000000006,0.60221875,-0.11928125,0.11790625,0.869625,0.552,-0.6178125,-0.62253125,0.8473437500000001,0.02025083463447453,0.03007154270542351,True
54264,379,0,380,3642.0,38168.0,44224.0,-0.000122,-0.00042699999999999997,-0.000793,0.47250000000000003,-1.8900000000000001,-3.5525,0.6099687500000001,-0.11778125,0.1190625,0.8700625000000001,0.5595,-0.61921875,-0.6247812500000001,0.85175,0.020367725925502813,0.03020712112924861,True
54265,380,0,381,3642.0,38168.0,44226.0,0.00061,-0.00122,0.000122,0.24500000000000002,-1.715,-3.6050000000000004,0.60990625,-0.11825000000000001,0.1155625,0.87059375,0.55840625,-0.62215625,-0.6167812500000001,0.86046875,0.020465561378280994,0.02974977689254155,True
54266,381,0,382,3641.0,38170.0,44225.0,6.1e-05,-0.0018909999999999999,0.000183,0.2625,-1.6975000000000002,-3.6925000000000003,0.6021875,-0.11528125,0.11828125,0.86475,0.55734375,-0.62396875,-0.61953125,0.858875,0.020658225534825696,0.029968584393742264,True
54267,382,0,383,3642.0,38167.0,44225.0,0.0,-0.0006709999999999999,0.000976,0.22750000000000004,-1.6975000000000002,-3.8150000000000004,0.595125,-0.11728125,0.1164375,0.8695625,0.55465625,-0.6198125,-0.6246875000000001,0.8528125,0.020411660324383057,0.03009682863995736,True
54268,383,0,384,3642.0,38169.0,44226.0,-0.000305,-0.000488,0.002562,0.35000000000000003,-1.5575,-3.7800000000000002,0.600125,-0.11787500000000001,0.1160625,0.86975,0.5643125,-0.6210625,-0.62528125,0.8516875,0.020437278041920404,0.030104986110564724,True
54269,384,0,385,3641.0,38167.0,44224.0,-0.000488,0.000793,-0.001403,0.5425000000000001,-1.6625,-3.7625,0.604625,-0.120625,0.11800000000000001,0.86721875,0.55690625,-0.62284375,-0.623,0.854,0.020396456034855844,0.03009381472606912,True
54270,385,0,386,3643.0,38168.0,44227.0,0.001464,0.000915,0.000366,0.5425000000000001,-1.6275000000000002,-3.7975000000000003,0.59578125,-0.11771875,0.117125,0.86990625,0.56075,-0.6186875000000001,-0.62128125,0.8558125,0.020349125029512645,0.029990569641862162,True
54271,386,0,387,3641.0,38167.0,44223.0,0.0015249999999999999,0.00061,0.0011589999999999999,0.5425000000000001,-1.6975000000000002,-3.8325000000000005,0.6015625,-0.11925000000000001,0.12015625,0.86890625,0.55734375,-0.62209375,-0.6238750000000001,0.853125,0.020422461026491704,0.030215847424501625,True
54272,387,0,388,3643.0,38168.0,44225.0,0.000915,0.00042699999999999997,0.0017079999999999999,0.5075000000000001,-1.6625,-3.6925000000000003,0.60809375,-0.11540625,0.1186875,0.87271875,0.56234375,-0.6175,-0.6229375,0.8492500000000001,0.020395805829186556,0.030119273949340934,True
54273,388,0,389,3642.0,38166.0,44226.0,-0.000244,-0.000549,0.001403,0.42000000000000004,-1.5925000000000002,-3.5525,0.6086875,-0.11809375,0.12253125000000001,0.8768750000000001,0.56378125,-0.62103125,-0.61853125,0.85740625,0.020427150060986988,0.030101816086205383,True
54274,389,0,390,3641.0,38166.0,44225.0,-0.0006709999999999999,-0.000732,-0.0011589999999999999,0.45500000000000007,-1.6800000000000002,-3.6400000000000006,0.60271875,-0.11753125,0.11953125,0.8760625,0.559,-0.618,-0.624375,0.8599375,0.020329382971809248,0.03021015761821366,True
54275,390,0,391,3642.0,38166.0,44226.0,0.002196,0.000488,0.000244,0.7000000000000001,-1.715,-3.6750000000000003,0.6023437500000001,-0.11728125,0.11800000000000001,0.8799375,0.5573125,-0.621375,-0.6224375,0.8586875,0.020473826096227363,0.0300716572029069,True
54276,391,0,392,3642.0,38166.0,44227.0,0.000549,0.0006709999999999999,-0.000244,0.77,-1.7500000000000002,-3.6575,0.6010625,-0.116625,0.11421875000000001,0.86734375,0.5575,-0.6204375,-0.62290625,0.8522500000000001,0.020463182264734328,0.02993655551931446,True
54277,392,0,393,3643.0,38167.0,44226.0,-0.001586,-0.0011589999999999999,0.002196,0.8750000000000001,-1.715,-3.5700000000000003,0.599,-0.1235625,0.11328125,0.8661562500000001,0.55753125,-0.6238125,-0.62334375,0.85190625,0.020315700503323764,0.029915717681519186,True
54278,393,0,394,3643.0,38167.0,44227.0,-0.00183,-0.000244,0.000488,0.9275000000000001,-1.6800000000000002,-3.5700000000000003,0.5980625,-0.1155625,0.113375,0.86825,0.55034375,-0.61990625,-0.625875,0.8532500000000001,0.02048520188820784,0.030019237895100172,True
54279,394,0,395,3643.0,38167.0,44227.0,-0.0017079999999999999,0.000244,-0.00183,0.9450000000000001,-1.7325000000000002,-3.7450000000000006,0.5981875,-0.11928125,0.1158125,0.8688750000000001,0.55740625,-0.6228125,-0.62390625,0.85259375,0.020449786148515732,0.030040674395436343,True
54280,395,0,396,3644.0,38169.0,44231.0,0.000976,0.000488,-0.0018909999999999999,1.0675000000000001,-1.8900000000000001,-3.8675,0.5983437500000001,-0.121125,0.11571875000000001,0.8779375,0.55040625,-0.62203125,-0.624875,0.85321875,0.02034382317665201,0.030075025761552087,True
54281,396,0,397,3643.0,38167.0,44230.0,-6.1e-05,0.00061,-0.001098,1.0150000000000001,-2.0825,-3.8500000000000005,0.5988125,-0.11625,0.116875,0.882,0.5576875,-0.62053125,-0.62453125,0.858625,0.02048214333311756,0.030108441150529516,True
54282,397,0,398,3643.0,38169.0,44228.0,0.002562,-0.00042699999999999997,0.000366,1.0675000000000001,-1.9250000000000003,-3.6575,0.6010625,-0.11215625,0.12084375,0.8659687500000001,0.55784375,-0.620625,-0.6217812500000001,0.85475,0.020652146320412255,0.03016130280988505,True
54283,398,0,399,3642.0,38167.0,44228.0,0.001037,-0.00042699999999999997,-0.001281,0.9100000000000001,-1.7675,-3.5700000000000003,0.6154375,-0.1168125,0.121125,0.8805000000000001,0.56303125,-0.61246875,-0.62128125,0.85390625,0.020138420693779448,0.03015303072418297,True
54284,399,0,400,3643.0,38170.0,44230.0,-0.000915,-0.000244,-0.0011589999999999999,0.9625000000000001,-1.6450000000000002,-3.6575,0.60296875,-0.1165,0.12040625,0.87528125,0.55971875,-0.61871875,-0.620125,0.85690625,0.020399873571812097,0.03007828961063358,True
54285,400,0,401,3641.0,38168.0,44230.0,-0.000793,0.000915,-0.0030499999999999998,1.12,-1.6800000000000002,-3.7100000000000004,0.6157812500000001,-0.12340625000000001,0.11990625,0.86675,0.5623125,-0.6210625,-0.62203125,0.85253125,0.02021262283055412,0.0301330744188703,True
54286,401,0,402,3644.0,38170.0,44230.0,-0.000366,0.002257,0.001281,1.155,-1.6625,-3.6225000000000005,0.59828125,-0.11459375000000001,0.1159375,0.86565625,0.55746875,-0.6211875,-0.62146875,0.852,0.020575520575520572,0.029949726293237486,True
54287,402,0,403,3643.0,38168.0,44232.0,0.002379,0.002196,0.002074,1.05,-1.7850000000000001,-3.5525,0.598125,-0.12253125000000001,0.11803125,0.8668125,0.55153125,-0.6221875,-0.62253125,0.852625,0.020292926857128354,0.030076619356509092,True
54288,403,0,404,3643.0,38172.0,44232.0,0.002074,0.002806,0.000976,0.9450000000000001,-1.8725000000000003,-3.6400000000000006,0.59821875,-0.11753125,0.11634375,0.87615625,0.55771875,-0.6223125,-0.62315625,0.85278125,0.0205009683797978,0.030032705494446914,True
54289,404,0,405,3642.0,38168.0,44231.0,0.0025009999999999998,0.0013419999999999999,-0.000366,0.8400000000000001,-1.9075000000000002,-3.5525,0.5995,-0.11753125,0.11796875,0.86703125,0.5576875,-0.620625,-0.62315625,0.8561875,0.020433833422181604,0.03009870028339685,True
54290,405,0,406,3641.0,38168.0,44232.0,0.000122,-0.002196,0.0,0.47250000000000003,-1.5575,-3.4825000000000004,0.60753125,-0.11778125,0.1195625,0.8698125,0.5593125,-0.6201875,-0.62134375,0.8535,0.020406272291793065,0.030092031431062732,True
54291,406,0,407,3641.0,38168.0,44232.0,-0.000976,-0.002806,0.001037,0.42000000000000004,-1.4525000000000001,-3.535,0.6080625000000001,-0.121,0.11853125,0.86984375,0.5620625,-0.61821875,-0.62434375,0.852375,0.020197186280993627,0.030168316668337605,True
54292,407,0,408,3643.0,38169.0,44233.0,-0.002623,-0.002257,0.00183,0.4025,-1.5575,-3.6225000000000005,0.60265625,-0.12046875,0.11659375,0.8691875,0.5554375,-0.61284375,-0.627875,0.8536875,0.020004799323523923,0.030228704262954074,True
54293,408,0,409,3644.0,38172.0,44235.0,-0.0028669999999999998,-0.000793,0.0011589999999999999,0.525,-1.715,-3.7800000000000002,0.6024375,-0.11178125,0.116375,0.87490625,0.55865625,-0.61846875,-0.62190625,0.8679687500000001,0.02058160095761439,0.02998473158429803,True
54294,409,0,410,3643.0,38172.0,44238.0,-0.002562,0.001769,-0.000183,0.77,-1.995,-3.9375000000000004,0.6034375,-0.11759375,0.11940625,0.8698750000000001,0.58934375,-0.6283125,-0.6266875000000001,0.8454375000000001,0.020737058212981507,0.030296147218337836,True
54295,410,0,411,3644.0,38171.0,44236.0,0.0030499999999999998,0.004209,-0.001952,0.9275000000000001,-2.1525000000000003,-4.112500000000001,0.608375,-0.12025,0.11975000000000001,0.8690625000000001,0.5455,-0.62584375,-0.62853125,0.84578125,0.02053102241420662,0.03038269892769184,True
54296,411,0,412,3643.0,38168.0,44236.0,0.00061,0.0015249999999999999,-0.00042699999999999997,0.6475000000000001,-2.0650000000000004,-4.1475,0.6018125,-0.12003125,0.11815625,0.870625,0.54359375,-0.62046875,-0.6285000000000001,0.87371875,0.020326075229579046,0.03031675700915606,True
54297,412,0,413,3641.0,38169.0,44235.0,-0.002806,-0.001464,0.000122,0.10500000000000001,-1.8900000000000001,-4.1475,0.6023125,-0.121,0.11846875,0.86909375,0.5554687500000001,-0.61628125,-0.62734375,0.8565,0.020120067892058228,0.03028391967769565,True
54298,413,0,414,3645.0,38169.0,44236.0,-0.001952,-0.003721,-0.000488,-0.31500000000000006,-2.0125,-3.9375000000000004,0.60296875,-0.12096875,0.11987500000000001,0.8648125,0.54559375,-0.6159687500000001,-0.62765625,0.84621875,0.02010889780642901,0.030353324831712315,True
54299,414,0,415,3645.0,38171.0,44238.0,0.004209,-0.0035989999999999998,0.001769,-0.43750000000000006,-2.1175,-3.7275000000000005,0.6091875,-0.11746875,0.1195625,0.8656875,0.55253125,-0.63228125,-0.6178750000000001,0.86159375,0.02089991157436951,0.02995536779677369,True
54300,415,0,416,3644.0,38169.0,44235.0,0.003111,-0.0044529999999999995,0.00122,-0.29750000000000004,-1.7325000000000002,-3.535,0.601625,-0.1210625,0.11800000000000001,0.8695625,0.5618125,-0.61571875,-0.6271875,0.8437187500000001,0.020095137380459385,0.030258733361249634,True
54301,416,0,417,3644.0,38170.0,44234.0,0.000366,-0.003538,0.00122,-0.35000000000000003,-1.3825,-3.7975000000000003,0.6111875,-0.11812500000000001,0.12078125,0.8718125,0.5616875,-0.61959375,-0.6165625,0.873125,0.020368685003179635,0.029953156538407827,True
54302,417,0,418,3644.0,38171.0,44238.0,-0.001647,-0.0026839999999999998,0.001403,-0.14,-1.0675000000000001,-3.7100000000000004,0.6019375,-0.11928125,0.11865625,0.86815625,0.5490625,-0.6258125,-0.629125,0.83821875,0.02056911827782332,0.030361665304796663,True
54303,418,0,419,3646.0,38170.0,44239.0,-0.002623,-0.001281,0.000305,0.3325,-0.9275000000000001,-3.6750000000000003,0.6095625,-0.1179375,0.11728125,0.8738125,0.5740625,-0.62215625,-0.614,0.8715625,0.02047825319929078,0.029709971967173152,True
54304,419,0,420,3645.0,38172.0,44240.0,-0.0025009999999999998,0.0059169999999999995,0.000915,0.9625000000000001,-1.3125000000000002,-4.0600000000000005,0.60128125,-0.1128125,0.11721875,0.8651562500000001,0.55615625,-0.61675,-0.6189687500000001,0.86121875,0.020471325418668185,0.029903263108857884,True
54305,420,0,421,3644.0,38175.0,44242.0,-0.0006709999999999999,0.0077469999999999995,0.000366,1.6275000000000002,-1.5050000000000001,-4.1475,0.60453125,-0.12175,0.1201875,0.8761875,0.544875,-0.62271875,-0.620125,0.8528125,0.020345793455485088,0.030069404602941698,True
54306,421,0,422,3646.0,38172.0,44241.0,0.002013,0.006954,0.001098,1.435,-1.715,-4.077500000000001,0.601,-0.113,0.12465625,0.8691875,0.562625,-0.6195625,-0.61425,0.851625,0.020575609335056217,0.03001945011527875,True
54307,422,0,423,3645.0,38171.0,44239.0,0.002074,0.004575,-0.0008539999999999999,1.0850000000000002,-1.9250000000000003,-4.0075,0.60246875,-0.11609375,0.12678125,0.87546875,0.5573125,-0.62396875,-0.62046875,0.8595625,0.020625229229142845,0.030350762513406654,True
54308,423,0,424,3645.0,38169.0,44238.0,0.0023179999999999997,-0.00042699999999999997,-0.000732,0.525,-1.8200000000000003,-3.7975000000000003,0.60271875,-0.11978125,0.11796875,0.8698750000000001,0.55715625,-0.62315625,-0.62390625,0.8522500000000001,0.020443155007798804,0.030128241736625355,True
54309,424,0,425,3645.0,38171.0,44236.0,0.000976,-0.0070149999999999995,-0.000183,-0.14,-1.4525000000000001,-3.5175000000000005,0.6054375,-0.1208125,0.11962500000000001,0.87465625,0.56071875,-0.6238125,-0.6198125,0.8589687500000001,0.02042738101583579,0.03003424579289546,True
54310,425,0,426,3645.0,38170.0,44234.0,-0.001403,-0.007442,0.000183,0.12250000000000001,-1.3650000000000002,-3.3600000000000003,0.6028125,-0.114125,0.12071875,0.86959375,0.560625,-0.62028125,-0.62221875,0.84896875,0.02055850803897701,0.030173458677439455,True
54311,426,0,427,3645.0,38171.0,44232.0,-0.00244,-0.0066489999999999995,0.000183,0.5775,-1.225,-3.325,0.60259375,-0.11925000000000001,0.1193125,0.8695625,0.55721875,-0.6228750000000001,-0.6167812500000001,0.844,0.02045354167618526,0.02990211199930942,True
54312,427,0,428,3643.0,38171.0,44232.0,-0.002745,-0.002562,-0.0011589999999999999,1.2075,-1.4175000000000002,-3.5525,0.60440625,-0.11984375,0.1201875,0.87484375,0.5503750000000001,-0.6235937500000001,-0.6208750000000001,0.85671875,0.020458021079884002,0.030098950585631095,True
54313,428,0,429,3643.0,38171.0,44232.0,-0.001952,0.0023179999999999997,-0.00183,1.6800000000000002,-1.6275000000000002,-3.7450000000000006,0.6019375,-0.11765625,0.1171875,0.86190625,0.5591875000000001,-0.6204375,-0.62353125,0.852625,0.020421296331553814,0.03008174345424156,True
54314,429,0,430,3642.0,38167.0,44229.0,-0.000305,0.007137,-0.001098,2.2225,-1.9600000000000002,-3.9725000000000006,0.60865625,-0.11765625,0.1205625,0.8755937500000001,0.56525,-0.6204375,-0.620625,0.85175,0.020421296331553814,0.030104333257177672,True
54315,430,0,431,3642.0,38168.0,44228.0,0.00061,0.006039,-0.000732,1.9600000000000002,-2.1,-4.0600000000000005,0.6048125,-0.11750000000000001,0.12065625,0.87109375,0.5610937500000001,-0.62071875,-0.6197812500000001,0.8591562500000001,0.020438832639684813,0.030074901660631127,True
54316,431,0,432,3641.0,38164.0,44225.0,0.00244,0.004575,-0.0015249999999999999,1.6450000000000002,-2.24,-3.9550000000000005,0.5881875,-0.11775000000000001,0.11737500000000001,0.86959375,0.5575625,-0.6230625,-0.624375,0.85284375,0.020521919237300394,0.030122591943957968,True
54317,432,0,433,3638.0,38166.0,44224.0,0.002196,0.002379,-0.003904,1.2600000000000002,-2.1875,-3.99,0.60121875,-0.1226875,0.11900000000000001,0.868125,0.5574375,-0.6235625,-0.62034375,0.85240625,0.0203412889584925,0.03002978989682059,True
54318,433,0,434,3637.0,38168.0,44223.0,0.0028669999999999998,0.000549,-0.002196,1.0675000000000001,-1.9775000000000003,-3.8150000000000004,0.60128125,-0.12496875,0.12971875,0.8649687500000001,0.56246875,-0.6188125,-0.6169687500000001,0.844,0.020059608886496858,0.030332227642771818,True
54319,434,0,435,3638.0,38164.0,44221.0,-0.0011589999999999999,0.000488,0.0,0.9100000000000001,-1.5225000000000002,-3.6225000000000005,0.60903125,-0.12534375,0.12171875,0.8641562500000001,0.563375,-0.62021875,-0.6198750000000001,0.85240625,0.020100349433329064,0.030121751227412813,True
54320,435,0,436,3638.0,38165.0,44221.0,-0.0013419999999999999,0.000244,0.002257,0.8225000000000001,-1.2600000000000002,-3.6925000000000003,0.5983125,-0.1235,0.1195625,0.8640625000000001,0.56390625,-0.622625,-0.61884375,0.85246875,0.02027099060315462,0.02999353899388553,True
54321,436,0,437,3637.0,38166.0,44220.0,0.000183,-0.0006709999999999999,0.0008539999999999999,0.5425000000000001,-1.2600000000000002,-3.7800000000000002,0.61765625,-0.1194375,0.12365625000000001,0.8765625,0.565375,-0.62046875,-0.61915625,0.85940625,0.02035019134231553,0.030172134757867668,True
54322,437,0,438,3635.0,38163.0,44220.0,0.001464,-0.002257,-0.0015249999999999999,0.07,-1.4700000000000002,-3.7800000000000002,0.61875,-0.11553125,0.121375,0.884,0.558625,-0.6203125,-0.62096875,0.85340625,0.02050263375007933,0.030150874952879343,True
54323,438,0,439,3634.0,38164.0,44220.0,0.001586,-0.003965,-0.00042699999999999997,-0.21000000000000002,-1.4700000000000002,-3.7100000000000004,0.5964375000000001,-0.1220625,0.1210625,0.8645,0.54703125,-0.6226875000000001,-0.62053125,0.85271875,0.020331858575551514,0.030120948344686916,True
54324,439,0,440,3632.0,38163.0,44218.0,0.000549,-0.004575,0.002562,-0.385,-1.3650000000000002,-3.8675,0.62021875,-0.11621875,0.11928125,0.8726875000000001,0.56225,-0.62,-0.62321875,0.85278125,0.020462276604386674,0.03015446548798581,True
54325,440,0,441,3633.0,38164.0,44215.0,0.001098,-0.00183,0.003355,-0.035,-1.1725,-3.99,0.58971875,-0.124625,0.1191875,0.8551562500000001,0.55759375,-0.621375,-0.61965625,0.85271875,0.02017555883861076,0.03001031949826676,True
54326,441,0,442,3632.0,38161.0,44215.0,0.000549,0.001403,0.00183,0.4025,-1.0675000000000001,-4.0600000000000005,0.6108125,-0.1256875,0.12271875,0.8658125,0.56525,-0.62146875,-0.6198125,0.8585,0.020136136273348846,0.030159906782393248,True
54327,442,0,443,3630.0,38160.0,44212.0,-0.002806,0.0028669999999999998,0.001037,0.7175,-1.0675000000000001,-4.2,0.6188125,-0.11853125,0.1241875,0.87828125,0.5655625,-0.619,-0.6189687500000001,0.8599375,0.0203285572119095,0.03018632736190463,True
54328,443,0,444,3630.0,38161.0,44212.0,-0.0042699999999999995,0.004575,0.001037,0.8925000000000001,-1.1375000000000002,-4.1825,0.61865625,-0.11609375,0.1206875,0.8814062500000001,0.56134375,-0.6200625,-0.62034375,0.857125,0.02046984039947096,0.03009833077574313,True
54329,444,0,445,3629.0,38158.0,44213.0,-0.0011589999999999999,0.004392,0.0006709999999999999,0.9450000000000001,-1.6975000000000002,-4.077500000000001,0.59596875,-0.11596875000000001,0.12203125000000001,0.8804062500000001,0.55015625,-0.6196875000000001,-0.62128125,0.8466250000000001,0.020459997715243136,0.030189838313146276,True
54330,445,0,446,3628.0,38161.0,44215.0,0.001098,0.0021349999999999997,-0.000915,0.6825000000000001,-1.7500000000000002,-3.9025000000000003,0.595375,-0.12040625,0.11809375,0.85903125,0.5571875000000001,-0.62346875,-0.6223125,0.8522500000000001,0.02043020441626446,0.030070540693527468,True
54331,446,0,447,3628.0,38161.0,44215.0,0.001647,6.1e-05,-0.002928,0.47250000000000003,-1.9075000000000002,-3.8325000000000005,0.5999375,-0.12059375,0.11925000000000001,0.86934375,0.55778125,-0.6195,-0.62140625,0.8528125,0.020264678405329112,0.030081801278105308,True
54332,447,0,448,3628.0,38162.0,44213.0,0.0,-0.002013,-0.00183,0.31500000000000006,-1.8025000000000002,-3.8675,0.59890625,-0.1195625,0.1193125,0.86959375,0.5563750000000001,-0.62253125,-0.6221875,0.852375,0.02042717480559599,0.03011511467045729,True
54333,448,0,449,3626.0,38161.0,44213.0,-0.001281,-0.000915,-0.001952,0.22750000000000004,-1.54,-3.9375000000000004,0.60184375,-0.12225,0.121375,0.8624375,0.55796875,-0.62240625,-0.61953125,0.85359375,0.02031305327845446,0.030094246818773204,True
54334,449,0,450,3625.0,38163.0,44214.0,-0.001281,-0.000732,0.001037,0.385,-1.4000000000000001,-3.7975000000000003,0.60884375,-0.12075,0.12234375,0.8718125,0.562,-0.62384375,-0.61915625,0.84928125,0.02043116237691364,0.030118822613995958,True
54335,450,0,451,3626.0,38161.0,44214.0,6.1e-05,0.000183,0.001769,0.29750000000000004,-1.435,-3.7975000000000003,0.607625,-0.1183125,0.12228125000000001,0.86953125,0.5650625,-0.6210625,-0.61815625,0.8424375000000001,0.02041950870316827,0.030076886850533335,True
54336,451,0,452,3625.0,38162.0,44217.0,0.001403,0.000183,-0.001647,-0.0175,-1.6800000000000002,-3.9550000000000005,0.6093125,-0.11275,0.12234375,0.87253125,0.56346875,-0.62265625,-0.619125,0.858625,0.02070882380937272,0.0301175915066031,True
54337,452,0,453,3625.0,38160.0,44212.0,0.001403,-0.002196,-0.000122,-0.385,-1.6450000000000002,-4.0600000000000005,0.6035,-0.11715625,0.11887500000000001,0.87009375,0.5584375,-0.62046875,-0.6221875,0.8512500000000001,0.02044284798598727,0.03009734614359508,True
54338,453,0,454,3624.0,38159.0,44216.0,0.002257,-0.003477,-0.001098,-0.6475000000000001,-1.5925000000000002,-3.9025000000000003,0.6020625000000001,-0.1175625,0.12278125000000001,0.87615625,0.55253125,-0.61784375,-0.61965625,0.85959375,0.02032189557625249,0.03015629026095765,True
54339,454,0,455,3622.0,38160.0,44216.0,0.000732,-0.004209,0.0011589999999999999,-0.8925000000000001,-1.3825,-3.7275000000000005,0.6030625000000001,-0.1179375,0.12028125,0.87003125,0.5600937500000001,-0.61921875,-0.6201875,0.85328125,0.02036137925782068,0.03007567468769277,True
54340,455,0,456,3623.0,38160.0,44214.0,0.001586,-0.002806,0.003111,-0.5075000000000001,-1.1375000000000002,-3.7450000000000006,0.601875,-0.12028125,0.12153125000000001,0.87521875,0.55715625,-0.6239375,-0.6187812500000001,0.8486875,0.020453928215176796,0.03007104586056631,True
54341,456,0,457,3623.0,38162.0,44213.0,-0.000549,0.000183,0.002196,-0.08750000000000001,-1.05,-3.7275000000000005,0.60353125,-0.11962500000000001,0.1213125,0.872375,0.561,-0.61946875,-0.62146875,0.85253125,0.02030278374711071,0.030168031710131025,True
54342,457,0,458,3621.0,38162.0,44216.0,6.1e-05,0.002806,0.002074,0.31500000000000006,-0.9450000000000001,-3.7975000000000003,0.6060625000000001,-0.1176875,0.11890625,0.8697812500000001,0.564375,-0.61884375,-0.62190625,0.85265625,0.020356611995638502,0.030087536378301336,True
54343,458,0,459,3622.0,38162.0,44214.0,0.0,0.003843,0.002806,0.5775,-0.9450000000000001,-3.9375000000000004,0.61009375,-0.11775000000000001,0.12190625000000001,0.8696875000000001,0.56390625,-0.621,-0.6204375,0.8524375000000001,0.020439868405020104,0.03015152553645726,True
54344,459,0,460,3622.0,38162.0,44214.0,-0.001464,0.0026839999999999998,-0.00042699999999999997,0.7000000000000001,-1.2425000000000002,-3.8325000000000005,0.60221875,-0.1205625,0.12259375,0.8728125,0.5575625,-0.62296875,-0.619,0.85384375,0.02040396733233071,0.030122821804297498,True
54345,460,0,461,3621.0,38160.0,44214.0,-0.000915,0.0008539999999999999,-0.001098,0.7000000000000001,-1.2425000000000002,-3.6750000000000003,0.592,-0.11359375000000001,0.11990625,0.8695,0.55496875,-0.62034375,-0.62128125,0.852375,0.020582572085330854,0.030103530863163346,True
54346,461,0,462,3621.0,38159.0,44215.0,-0.0013419999999999999,0.000305,-0.001952,0.6125,-1.4875,-3.7100000000000004,0.6034375,-0.1200625,0.1233125,0.8758125,0.55725,-0.6235625,-0.6183125,0.8585625,0.020447894166410734,0.030124932405500987,True
54347,462,0,463,3620.0,38160.0,44213.0,0.000183,0.0011589999999999999,-0.001769,0.56,-1.6800000000000002,-3.8675,0.6023437500000001,-0.11865625,0.120875,0.8696875000000001,0.55771875,-0.6155,-0.61675,0.85253125,0.020184182730393452,0.02996435353976459,True
54348,463,0,464,3622.0,38161.0,44212.0,-0.000549,0.0015249999999999999,-0.001586,0.525,-1.715,-3.9550000000000005,0.607625,-0.11746875,0.12528125,0.8695625,0.56446875,-0.61965625,-0.620625,0.85253125,0.02039782744732677,0.0302959916736476,True
54349,464,0,465,3621.0,38160.0,44211.0,-0.000244,-0.000366,-0.001098,0.35000000000000003,-1.61,-3.6925000000000003,0.603125,-0.120875,0.1221875,0.86521875,0.55725,-0.61875,-0.619,0.8529375,0.020223406956080225,0.03010632032170275,True
54350,465,0,466,3620.0,38161.0,44213.0,-0.002379,-0.00244,-0.002562,0.17500000000000002,-1.7500000000000002,-3.7800000000000002,0.6038125,-0.1183125,0.12278125000000001,0.87,0.562625,-0.622375,-0.6196875000000001,0.85275,0.0204717254123536,0.03015752129266466,True
54351,466,0,467,3619.0,38159.0,44214.0,-0.000732,-0.002989,-0.000549,0.0,-1.6975000000000002,-3.7975000000000003,0.60553125,-0.11971875,0.12209375,0.87040625,0.5632812500000001,-0.617625,-0.61153125,0.85290625,0.02022560056057398,0.02980818188628552,True
54352,467,0,468,3618.0,38161.0,44213.0,0.00061,-0.0025009999999999998,-0.000732,-0.15750000000000003,-1.6975000000000002,-3.6925000000000003,0.60346875,-0.11953125,0.12246875,0.86375,0.55753125,-0.6228125,-0.6193125,0.85309375,0.02043963296231899,0.030130055418891168,True
54353,468,0,469,3620.0,38159.0,44214.0,0.000976,-0.0013419999999999999,-0.002562,-0.35000000000000003,-1.8200000000000003,-3.6050000000000004,0.60675,-0.11896875,0.1225625,0.87321875,0.56246875,-0.62084375,-0.61521875,0.85790625,0.020384151132107328,0.029972565244824407,True
54354,469,0,470,3620.0,38160.0,44215.0,0.0021349999999999997,-0.00061,0.000122,-0.1925,-1.5050000000000001,-3.6400000000000006,0.60178125,-0.1181875,0.12025,0.8721875,0.5593125,-0.62034375,-0.6208750000000001,0.85071875,0.02039598858159728,0.03010148908192743,True
54355,470,0,471,3621.0,38162.0,44214.0,0.000915,0.001952,0.001952,-0.31500000000000006,-1.4525000000000001,-3.6575,0.6025625,-0.112875,0.120875,0.8696875000000001,0.55746875,-0.61953125,-0.61665625,0.85309375,0.020579443404309332,0.029960659258911334,True
54356,471,0,472,3619.0,38161.0,44213.0,0.000793,0.0017079999999999999,0.0021349999999999997,-0.4025,-1.3125000000000002,-3.8325000000000005,0.6051562500000001,-0.11871875,0.12259375,0.8694375,0.5580625,-0.6243125,-0.6194375,0.85075,0.02053229912510248,0.03014005701795583,True
54357,472,0,473,3618.0,38159.0,44213.0,0.0008539999999999999,0.001281,0.002013,-0.36750000000000005,-1.3125000000000002,-3.7975000000000003,0.6091875,-0.11734375,0.12253125000000001,0.86328125,0.56815625,-0.6270625,-0.6176875000000001,0.8492500000000001,0.020697505031304485,0.030068573662737415,True
54358,473,0,474,3618.0,38161.0,44212.0,-0.000549,-0.000122,0.003294,-0.43750000000000006,-1.225,-3.7800000000000002,0.60371875,-0.11765625,0.1206875,0.86971875,0.5630625,-0.619125,-0.61940625,0.86403125,0.020369072824480968,0.030061397195555842,True
54359,474,0,475,3619.0,38158.0,44210.0,-0.000183,0.000488,0.0006709999999999999,-0.5775,-1.5575,-3.9725000000000006,0.60246875,-0.12325,0.121125,0.8621875,0.55253125,-0.62371875,-0.61821875,0.8491562500000001,0.020324661562340175,0.030032382013828685,True
54360,475,0,476,3619.0,38159.0,44211.0,0.0011589999999999999,-0.000488,-0.000915,-0.56,-1.7325000000000002,-3.9725000000000006,0.60340625,-0.12896875,0.12078125,0.8649687500000001,0.55825,-0.62565625,-0.618125,0.84984375,0.020169513249012404,0.030014724923201914,True
54361,476,0,477,3620.0,38159.0,44214.0,0.000793,-0.001769,-0.001037,-0.47250000000000003,-1.6450000000000002,-3.9200000000000004,0.59365625,-0.1270625,0.124625,0.8680625000000001,0.56471875,-0.62090625,-0.61715625,0.8593437500000001,0.020057903027026067,0.030132694551183177,True
54362,477,0,478,3619.0,38159.0,44214.0,-0.00042699999999999997,-0.001281,0.000366,-0.35000000000000003,-1.6275000000000002,-3.9200000000000004,0.62728125,-0.112625,0.1203125,0.87565625,0.56090625,-0.61875,-0.62284375,0.8505312500000001,0.02055851739020056,0.03018157681319811,True
54363,478,0,479,3620.0,38158.0,44216.0,-0.0028669999999999998,-0.000244,-0.00042699999999999997,-0.31500000000000006,-1.5575,-3.9725000000000006,0.58965625,-0.12365625000000001,0.1241875,0.879,0.55653125,-0.62703125,-0.6178125,0.862125,0.020439938329960092,0.030140777130380696,True
54364,479,0,480,3619.0,38162.0,44216.0,-0.00183,-0.001098,0.0,0.052500000000000005,-1.6625,-3.99,0.6065,-0.1145625,0.12046875,0.86934375,0.549875,-0.6205625,-0.62415625,0.8514375000000001,0.020551926870070496,0.030239614809136863,True
54365,480,0,481,3619.0,38162.0,44217.0,-0.001464,0.000244,-0.0011589999999999999,0.12250000000000001,-1.8375000000000001,-3.9375000000000004,0.58971875,-0.1235625,0.12453125,0.852375,0.55396875,-0.6264375,-0.6173125,0.85159375,0.020420127759039446,0.030135042157831,True
54366,481,0,482,3618.0,38160.0,44215.0,0.001952,0.0011589999999999999,0.0006709999999999999,-0.07,-1.9775000000000003,-3.99,0.6230625,-0.10965625,0.11900000000000001,0.8818125,0.5602812500000001,-0.6185625,-0.61903125,0.8501875,0.020671647664237097,0.029978078442871307,True
54367,482,0,483,3619.0,38163.0,44215.0,0.0026839999999999998,0.000183,0.000488,-0.31500000000000006,-2.0475000000000003,-4.0425,0.5900625,-0.122125,0.11771875,0.8550625000000001,0.5456875,-0.62396875,-0.6181875,0.84940625,0.02038029511388167,0.02989278759859961,True
54368,483,0,484,3620.0,38159.0,44215.0,6.1e-05,-0.0032329999999999998,-0.00244,-0.5075000000000001,-1.8200000000000003,-3.7275000000000005,0.6083125,-0.12784375,0.12615625,0.87384375,0.5620625,-0.62096875,-0.6170625,0.857875,0.020028659514057502,0.030191203763649702,True
54369,484,0,485,3619.0,38162.0,44218.0,-0.0011589999999999999,-0.002074,-0.0025009999999999998,-0.43750000000000006,-1.61,-3.7275000000000005,0.62315625,-0.11821875,0.12653125,0.88728125,0.5635625,-0.61975,-0.6188125,0.8599375,0.020371094344987257,0.030275373761427363,True
54370,485,0,486,3621.0,38161.0,44220.0,-0.00061,0.0006709999999999999,0.0,-0.21000000000000002,-1.3475000000000001,-3.8850000000000002,0.6030625000000001,-0.11471875000000001,0.125,0.89015625,0.55765625,-0.61971875,-0.62115625,0.84428125,0.02051201336327207,0.030305491847077655,True
54371,486,0,487,3619.0,38161.0,44220.0,0.000488,0.0032329999999999998,0.0011589999999999999,-0.0175,-1.5575,-4.130000000000001,0.59378125,-0.11396875000000001,0.12440625,0.88584375,0.55803125,-0.6169687500000001,-0.62065625,0.8481875,0.020433060020844364,0.030261683215694137,True
54372,487,0,488,3621.0,38162.0,44219.0,0.000488,0.004026,0.00122,0.0175,-1.7325000000000002,-4.0600000000000005,0.60521875,-0.1143125,0.12309375,0.8764375,0.5575,-0.6199375,-0.6187812500000001,0.85359375,0.020537217042082254,0.030134513665253028,True
54373,488,0,489,3621.0,38163.0,44220.0,0.002013,0.0006709999999999999,0.001952,-0.49000000000000005,-1.9600000000000002,-3.7100000000000004,0.593875,-0.11628125,0.122125,0.8681875,0.5565625,-0.6199375,-0.621,0.8595,0.02045725136385907,0.03018256772673734,True
54374,489,0,490,3621.0,38162.0,44221.0,0.00122,-0.000915,-0.000976,-0.9100000000000001,-1.9075000000000002,-3.8325000000000005,0.6022500000000001,-0.11978125,0.12084375,0.87075,0.555625,-0.6196875000000001,-0.6219375,0.8550625000000001,0.0203051419722529,0.03016745737414044,True
54375,490,0,491,3621.0,38165.0,44219.0,0.001586,-0.002196,-0.0011589999999999999,-1.1725,-1.8025000000000002,-3.8675,0.60246875,-0.1205,0.1225625,0.87,0.55525,-0.62284375,-0.61884375,0.85328125,0.020401532621511276,0.03011539686952195,True
54376,491,0,492,3621.0,38161.0,44220.0,-0.00042699999999999997,-0.003355,-0.000366,-1.1900000000000002,-1.5575,-3.7275000000000005,0.60640625,-0.1196875,0.12178125000000001,0.8707812500000001,0.5571875000000001,-0.62240625,-0.6219375,0.84715625,0.020417125154045417,0.030205533175445675,True
54377,492,0,493,3622.0,38164.0,44222.0,-0.000366,-0.004148,0.0018909999999999999,-1.0150000000000001,-1.4000000000000001,-3.6575,0.6110625000000001,-0.11853125,0.123125,0.87775,0.56415625,-0.61334375,-0.6187812500000001,0.85921875,0.020103424590573966,0.030135783021346764,True
54378,493,0,494,3623.0,38163.0,44221.0,-0.000976,-0.000122,0.00183,-0.45500000000000007,-1.435,-3.9375000000000004,0.6023437500000001,-0.11740625,0.1246875,0.8753125,0.55975,-0.61846875,-0.61759375,0.85490625,0.020353113960428586,0.030152469714876173,True
54379,494,0,495,3622.0,38165.0,44221.0,-0.001037,0.0013419999999999999,0.0006709999999999999,-0.42000000000000004,-1.4700000000000002,-4.0600000000000005,0.6021875,-0.11703125,0.1283125,0.8730625,0.55765625,-0.6197812500000001,-0.620625,0.85903125,0.020420571364743546,0.0304191099941614,True
54380,495,0,496,3621.0,38163.0,44223.0,-0.00042699999999999997,0.002196,0.001098,-0.22750000000000004,-1.5750000000000002,-4.095000000000001,0.60271875,-0.120375,0.1219375,0.87009375,0.55765625,-0.61990625,-0.6210625,0.850375,0.020289729982217133,0.03017741415505525,True
54381,496,0,497,3621.0,38166.0,44225.0,-0.00042699999999999997,0.000183,-6.1e-05,-0.28,-1.5925000000000002,-4.112500000000001,0.61009375,-0.11787500000000001,0.123,0.87725,0.56415625,-0.62053125,-0.61871875,0.8595,0.02041614150791324,0.03012824337172299,True
54382,497,0,498,3622.0,38167.0,44222.0,0.000122,-0.0008539999999999999,-6.1e-05,-0.36750000000000005,-1.8550000000000002,-4.025,0.6028125,-0.12046875,0.12265625000000001,0.86534375,0.543875,-0.62121875,-0.61959375,0.8522500000000001,0.020338148370498518,0.0301487509313593,True
54383,498,0,499,3624.0,38170.0,44227.0,0.000549,-0.002623,-0.000183,-0.525,-1.995,-3.7975000000000003,0.6015625,-0.12128125000000001,0.12275,0.87403125,0.56015625,-0.62109375,-0.6205,0.85390625,0.020300174520069807,0.030188257752685774,True
54384,499,0,500,3624.0,38167.0,44224.0,0.0008539999999999999,-0.0018909999999999999,-0.0011589999999999999,-0.4025,-1.9075000000000002,-3.8150000000000004,0.6040625000000001,-0.11721875,0.12009375,0.870375,0.56546875,-0.61771875,-0.61634375,0.8520625000000001,0.020330884639747537,0.02991660774155382,True
54385,500,0,501,3623.0,38166.0,44229.0,0.000732,-0.000244,-0.001952,-0.0175,-1.7500000000000002,-3.8850000000000002,0.610375,-0.11625,0.11925000000000001,0.8684375,0.56390625,-0.6205625,-0.62125,0.8532500000000001,0.020483386600123377,0.03007564603746763,True
54386,501,0,502,3624.0,38169.0,44227.0,0.000183,0.002013,-0.002623,0.24500000000000002,-1.6975000000000002,-3.8325000000000005,0.6070625000000001,-0.12121875,0.12184375,0.87553125,0.5572812500000001,-0.623375,-0.6194375,0.85290625,0.02039347774218603,0.030109593283762066,True
54387,502,0,503,3623.0,38169.0,44227.0,-0.00042699999999999997,0.0032329999999999998,-0.0015249999999999999,0.5075000000000001,-1.6450000000000002,-3.6400000000000006,0.608375,-0.11800000000000001,0.12359375,0.8724375,0.56384375,-0.61975,-0.6185,0.86028125,0.020379979488012675,0.03014374352620996,True
54388,503,0,504,3625.0,38166.0,44229.0,-0.001403,0.003294,-0.000488,0.42000000000000004,-1.2775,-3.5000000000000004,0.6021875,-0.11996875,0.1208125,0.869375,0.558,-0.6193125,-0.6208125,0.8531562500000001,0.020282603342396344,0.03012187351656246,True
54389,504,0,505,3625.0,38166.0,44230.0,-0.002013,0.000183,-0.0013419999999999999,0.17500000000000002,-1.3125000000000002,-3.5525,0.60971875,-0.11759375,0.12303125000000001,0.8735,0.5473125,-0.62253125,-0.6130625000000001,0.858375,0.02050713206019385,0.029906629863715662,True
54390,505,0,506,3624.0,38166.0,44228.0,-0.000305,-0.002013,0.000183,-0.07,-1.6275000000000002,-3.535,0.60271875,-0.11996875,0.12253125000000001,0.87003125,0.55746875,-0.61934375,-0.6215625,0.85278125,0.02028384692423006,0.030221223774892433,True
54391,506,0,507,3626.0,38167.0,44230.0,0.000549,-0.001037,0.000793,-0.28,-1.8375000000000001,-3.5525,0.611375,-0.11871875,0.12225,0.8745625,0.5630000000000001,-0.62221875,-0.6183125,0.8565,0.02044901010393306,0.030081773476553275,True
54392,507,0,508,3626.0,38169.0,44230.0,0.001403,-0.001403,0.000183,-0.28,-2.0650000000000004,-3.5525,0.60659375,-0.11721875,0.12065625,0.86975,0.56475,-0.6201875,-0.6209375,0.8563437500000001,0.020429119396430266,0.030120451343495756,True
54393,508,0,509,3627.0,38170.0,44233.0,0.00244,0.000305,0.000915,-0.052500000000000005,-2.1175,-3.5875000000000004,0.603,-0.11921875,0.1190625,0.87021875,0.5569375,-0.61990625,-0.6195,0.85228125,0.020336694011578536,0.02999908609029428,True
54394,509,0,510,3626.0,38170.0,44230.0,0.004575,0.00244,-0.001464,0.0,-2.0475000000000003,-3.7800000000000002,0.60975,-0.1140625,0.122,0.87609375,0.55796875,-0.62209375,-0.61890625,0.85640625,0.020633145790048827,0.030095010821205758,True
54395,510,0,511,3624.0,38166.0,44230.0,0.004941,0.001586,-0.000122,-0.14,-1.7675,-3.8325000000000005,0.6033125,-0.11721875,0.12340625000000001,0.8768750000000001,0.5610937500000001,-0.61984375,-0.617625,0.859375,0.020415442319775077,0.030101654810323904,True
54396,511,0,512,3626.0,38166.0,44230.0,-0.000122,0.000549,-0.000244,-0.35000000000000003,-1.3475000000000001,-3.9375000000000004,0.6021875,-0.11459375000000001,0.122,0.8775625,0.557875,-0.6198750000000001,-0.62109375,0.8576875,0.020523306881127544,0.030181183563382515,True
54397,512,0,513,3625.0,38168.0,44233.0,-0.0055509999999999995,-0.003111,0.00061,-0.5075000000000001,-1.1725,-3.9200000000000004,0.60284375,-0.11715625,0.120125,0.87003125,0.558,-0.61965625,-0.62265625,0.8573125,0.02041052055712598,0.030166576768093416,True
54398,513,0,514,3627.0,38168.0,44234.0,-0.003843,-0.003355,0.001098,-0.6125,-1.8025000000000002,-3.8150000000000004,0.60309375,-0.11465625,0.12603125,0.8710625000000001,0.55846875,-0.61940625,-0.6214375,0.86790625,0.02050211913619972,0.030358452872623707,True
54399,514,0,515,3627.0,38170.0,44236.0,0.0023179999999999997,-0.001403,-0.001037,-0.56,-2.205,-3.8850000000000002,0.60365625,-0.11996875,0.12565625,0.87040625,0.55484375,-0.6193125,-0.625375,0.849,0.020282603342396344,0.030498266523860045,True
54400,515,0,516,3628.0,38169.0,44232.0,0.005429,-0.000183,0.003477,-0.385,-2.2750000000000004,-3.9725000000000006,0.6115625,-0.11115625,0.12340625000000001,0.875,0.5685,-0.62615625,-0.61646875,0.8568125,0.02091272364114883,0.03005609811520997,True
54401,516,0,517,3627.0,38169.0,44233.0,0.007991,-6.1e-05,0.0048189999999999995,-0.43750000000000006,-1.8725000000000003,-3.8500000000000005,0.60309375,-0.1170625,0.124375,0.86984375,0.5739062500000001,-0.61853125,-0.6218750000000001,0.8602500000000001,0.02036956408599721,0.030308414773448412,True
54402,517,0,518,3628.0,38169.0,44233.0,0.002745,-0.001769,0.001952,-0.525,-1.4875,-3.7450000000000006,0.608125,-0.1203125,0.1220625,0.86759375,0.5514687500000001,-0.62565625,-0.61903125,0.84409375,0.020521026723907106,0.03010247407683842,True
54403,518,0,519,3627.0,38170.0,44234.0,-0.0066489999999999995,-0.003294,-0.002074,0.10500000000000001,-0.8225000000000001,-3.5700000000000003,0.60565625,-0.11678125,0.1211875,0.87453125,0.5714375,-0.6174375,-0.61503125,0.8574375,0.020337464043526057,0.029909316081002335,True
54404,519,0,520,3630.0,38170.0,44235.0,-0.006588,0.001037,-0.001464,0.9275000000000001,-0.8925000000000001,-3.6225000000000005,0.6028125,-0.11750000000000001,0.12325,0.8703125,0.5600625,-0.61721875,-0.62303125,0.86875,0.020299561663520583,0.03030826068581625,True
54405,520,0,521,3630.0,38171.0,44237.0,-0.004148,0.006588,-0.0015249999999999999,1.54,-1.1725,-3.7275000000000005,0.60290625,-0.11753125,0.11990625,0.87525,0.5558125,-0.61671875,-0.61515625,0.86409375,0.020278393114435692,0.029862191104312003,True
54406,521,0,522,3632.0,38170.0,44238.0,-0.0018909999999999999,0.009699,-0.001586,1.8025000000000002,-1.7675,-3.9550000000000005,0.59540625,-0.1165,0.12103125,0.87709375,0.5740625,-0.61959375,-0.61509375,0.8699687500000001,0.020434689341695577,0.029905431499727683,True
54407,522,0,523,3631.0,38170.0,44237.0,0.0017079999999999999,0.007686,0.001281,1.5050000000000001,-2.1525000000000003,-3.9025000000000003,0.6033125,-0.1164375,0.12540625,0.87140625,0.56615625,-0.6178750000000001,-0.61934375,0.871125,0.02036883768399994,0.0302506032477003,True
54408,523,0,524,3630.0,38169.0,44235.0,0.00366,-0.0021349999999999997,-0.004392,-0.28,-2.6950000000000003,-3.6225000000000005,0.6030625000000001,-0.1170625,0.12184375,0.865375,0.55821875,-0.6180625,-0.61765625,0.86753125,0.02035091104346656,0.030039415307864657,True
54409,524,0,525,3630.0,38167.0,44232.0,0.005307,-0.006405,-0.001647,-1.05,-2.24,-3.5175000000000005,0.60328125,-0.117125,0.1223125,0.87365625,0.5689062500000001,-0.6191875,-0.61528125,0.86634375,0.020393138481925935,0.029964871922802023,True
54410,525,0,526,3630.0,38168.0,44230.0,0.002013,-0.009028,-0.002074,-1.1725,-1.7675,-3.325,0.6021875,-0.11715625,0.12090625,0.87753125,0.5575625,-0.61846875,-0.61834375,0.86365625,0.020363268938081294,0.030028421388014776,True
54411,526,0,527,3628.0,38167.0,44230.0,-0.0008539999999999999,-0.0077469999999999995,-0.0008539999999999999,-0.9275000000000001,-1.5575,-3.325,0.6029375,-0.11678125,0.12278125000000001,0.8753125,0.55903125,-0.61790625,-0.61640625,0.85465625,0.020356117815665174,0.0300282458979974,True
54412,527,0,528,3628.0,38168.0,44229.0,-0.0037819999999999998,-0.0037819999999999998,0.001952,-0.24500000000000002,-1.0325000000000002,-3.4650000000000003,0.6090625000000001,-0.1198125,0.12221875,0.8696875000000001,0.5604375,-0.62084375,-0.61653125,0.8515312500000001,0.02034988138861001,0.030010320808298286,True
54413,528,0,529,3628.0,38167.0,44230.0,-0.002623,0.0059169999999999995,0.000366,0.6125,-1.2600000000000002,-4.025,0.60965625,-0.11850000000000001,0.12296875,0.87025,0.5665,-0.624,-0.6153125,0.85296875,0.020528752436647174,0.029992763650674756,True
54414,529,0,530,3628.0,38166.0,44227.0,-0.000305,0.007259,0.000244,0.6475000000000001,-1.5225000000000002,-4.112500000000001,0.6051875,-0.12059375,0.123875,0.8708750000000001,0.5582812500000001,-0.6238125,-0.61984375,0.85,0.02043626469296743,0.030208101950281466,True
54415,530,0,531,3627.0,38167.0,44225.0,0.001403,0.0044529999999999995,0.000366,0.10500000000000001,-1.6800000000000002,-3.9725000000000006,0.60209375,-0.116875,0.12025,0.87603125,0.5585,-0.61965625,-0.61890625,0.85978125,0.02042194435594526,0.030023927240878136,True
54416,531,0,532,3626.0,38167.0,44223.0,0.00122,0.0011589999999999999,0.0008539999999999999,-0.45500000000000007,-1.8025000000000002,-3.9025000000000003,0.603125,-0.11765625,0.12059375,0.8739375,0.55859375,-0.61984375,-0.62221875,0.861,0.02039767210139179,0.0301683819619221,True
54417,532,0,533,3627.0,38165.0,44223.0,0.001647,-0.0026839999999999998,0.001464,-0.9975,-1.9775000000000003,-3.9025000000000003,0.5972500000000001,-0.1168125,0.12121875,0.8708750000000001,0.55809375,-0.61946875,-0.62103125,0.8535,0.020417022605331403,0.030146990695200878,True
54418,533,0,534,3627.0,38164.0,44223.0,0.001281,-0.003294,0.0006709999999999999,-1.0150000000000001,-1.61,-3.7625,0.60321875,-0.1178125,0.122125,0.86815625,0.55834375,-0.620625,-0.62096875,0.85375,0.020422410072855585,0.03018133679244445,True
54419,534,0,535,3627.0,38163.0,44221.0,0.000366,-0.0025009999999999998,0.0013419999999999999,-0.7175,-1.3650000000000002,-3.8325000000000005,0.60753125,-0.1135625,0.12290625000000001,0.87615625,0.55465625,-0.62084375,-0.61890625,0.8612500000000001,0.02060373134044198,0.030131821961018275,True
54420,535,0,536,3624.0,38164.0,44222.0,-0.001464,-0.000488,-6.1e-05,-0.385,-1.12,-3.9375000000000004,0.60328125,-0.11750000000000001,0.12196875,0.87565625,0.55753125,-0.62003125,-0.6218125,0.8580625000000001,0.02041147896593348,0.030208224922515348,True
54421,536,0,537,3624.0,38165.0,44217.0,-0.002074,0.00122,0.000244,-0.08750000000000001,-1.1725,-4.0075,0.603375,-0.1169375,0.1204375,0.8705625,0.5444375,-0.6193125,-0.62096875,0.853,0.020405728226570097,0.03011279765342296,True
54422,537,0,538,3624.0,38165.0,44217.0,-0.001952,0.0013419999999999999,0.000488,-0.14,-1.3125000000000002,-3.9550000000000005,0.6033125,-0.11821875,0.1206875,0.86990625,0.55740625,-0.6219375,-0.62034375,0.85475,0.02045812804130463,0.03009833077574313,True
54423,538,0,539,3623.0,38162.0,44218.0,0.0030499999999999998,-0.000915,0.000976,-0.525,-1.8025000000000002,-3.9550000000000005,0.60259375,-0.11621875,0.1215,0.8713125,0.558625,-0.6187812500000001,-0.6207812500000001,0.8621875,0.020413784699435517,0.030148566061444535,True
54424,539,0,540,3624.0,38160.0,44216.0,0.002989,-0.003721,0.000305,-0.5950000000000001,-1.8375000000000001,-4.0600000000000005,0.61059375,-0.1174375,0.1226875,0.86734375,0.55946875,-0.6191875,-0.61409375,0.8578125,0.020380445130449575,0.029933308026016597,True
54425,540,0,541,3622.0,38162.0,44216.0,0.001037,-0.0034159999999999998,-0.001037,-0.47250000000000003,-1.8550000000000002,-3.8675,0.61653125,-0.1179375,0.12359375,0.86740625,0.5666875,-0.6209375,-0.61884375,0.8533437500000001,0.02042976633200909,0.03015728551427197,True
54426,541,0,542,3621.0,38161.0,44214.0,0.000793,-0.0025009999999999998,-0.0011589999999999999,-0.36750000000000005,-1.5750000000000002,-3.7625,0.6174375,-0.11809375,0.1228125,0.86728125,0.56115625,-0.61975,-0.61940625,0.85328125,0.02037617156957321,0.030147711218665153,True
54427,542,0,543,3623.0,38162.0,44214.0,-0.0023179999999999997,0.002196,-0.000793,0.052500000000000005,-1.2775,-3.8850000000000002,0.611375,-0.12246875,0.122375,0.86828125,0.5650937500000001,-0.62184375,-0.6201875,0.85328125,0.020281787386454357,0.030160716688286796,True
54428,543,0,544,3620.0,38161.0,44213.0,-0.0040869999999999995,0.003172,0.000244,0.9100000000000001,-1.12,-3.9550000000000005,0.606875,-0.12209375,0.12325,0.86171875,0.5628125,-0.6224375,-0.6174375,0.85328125,0.020320642503407715,0.030087920401950848,True
54429,544,0,545,3619.0,38162.0,44212.0,-0.004514,0.0048189999999999995,0.0013419999999999999,1.05,-1.3125000000000002,-3.9375000000000004,0.59840625,-0.1149375,0.1189375,0.88353125,0.5555625,-0.6200625,-0.6195625,0.8610625000000001,0.02051680413077749,0.029996471302038776,True
54430,545,0,546,3619.0,38160.0,44211.0,-0.0037819999999999998,0.004331,0.000305,0.9975,-1.6975000000000002,-4.0425,0.59946875,-0.11678125,0.124,0.8667812500000001,0.55921875,-0.61540625,-0.61903125,0.853625,0.0202566228213276,0.030181173355470683,True
54431,546,0,547,3617.0,38159.0,44210.0,0.0,0.0035989999999999998,-0.000366,0.7000000000000001,-1.9775000000000003,-3.9375000000000004,0.6015625,-0.12028125,0.117,0.8798125,0.5634375,-0.62175,-0.62021875,0.85090625,0.020366901215388835,0.029943631187273674,True
54432,547,0,548,3616.0,38161.0,44207.0,0.0044529999999999995,-0.0015249999999999999,-0.002379,0.07,-2.205,-3.535,0.6003125,-0.1160625,0.11887500000000001,0.88290625,0.55853125,-0.6194375,-0.61965625,0.8575625,0.02044624293304833,0.029997626388467553,True
54433,548,0,549,3617.0,38156.0,44208.0,0.001586,-0.0023179999999999997,-0.0018909999999999999,0.0,-1.9250000000000003,-3.4475000000000002,0.6045,-0.11646875,0.1235625,0.869375,0.55865625,-0.619375,-0.6189375,0.85628125,0.020427254956716,0.030159709370073343,True
54434,549,0,550,3614.0,38158.0,44207.0,-0.000366,-0.0017079999999999999,-0.00183,0.17500000000000002,-1.6450000000000002,-3.2550000000000003,0.61321875,-0.11271875,0.12384375,0.87071875,0.561625,-0.61953125,-0.619375,0.856375,0.020585789991432107,0.03018836790129725,True
54435,550,0,551,3614.0,38159.0,44209.0,-0.001647,-0.000305,-0.000915,0.5075000000000001,-1.6625,-3.3425000000000002,0.61225,-0.1226875,0.12428125,0.8741875,0.56159375,-0.6217812500000001,-0.6199687500000001,0.85365625,0.020270416056921148,0.03022952659109285,True
54436,551,0,552,3617.0,38157.0,44208.0,-0.000488,0.001281,0.001464,0.6825000000000001,-1.6975000000000002,-3.4650000000000003,0.61146875,-0.11384375000000001,0.12359375,0.87240625,0.562125,-0.6199375,-0.6190625,0.85384375,0.020556256489278255,0.03016590294614184,True
54437,552,0,553,3613.0,38156.0,44207.0,0.002989,0.002379,0.000488,0.10500000000000001,-1.7850000000000001,-3.7275000000000005,0.60678125,-0.11850000000000001,0.12371875,0.87815625,0.55353125,-0.6203125,-0.62015625,0.85709375,0.020382052421146157,0.030214064949323785,True
54438,553,0,554,3612.0,38155.0,44207.0,0.000915,-0.000244,-0.000732,-0.36750000000000005,-1.8025000000000002,-3.6750000000000003,0.60590625,-0.11725000000000001,0.120625,0.8765937500000001,0.5625,-0.619375,-0.6195625,0.8515,0.02039552181970501,0.030065014355961848,True
54439,554,0,555,3615.0,38156.0,44207.0,-0.000793,-0.004575,-0.001769,-0.6475000000000001,-1.8200000000000003,-3.6575,0.60375,-0.11475,0.11921875,0.87,0.558625,-0.61928125,-0.621,0.8589375,0.020493337919846866,0.030064528248243374,True
54440,555,0,556,3613.0,38159.0,44207.0,0.0,-0.007259,-0.000183,-0.8925000000000001,-1.8375000000000001,-3.6750000000000003,0.5913125,-0.11996875,0.11834375,0.8693125,0.55934375,-0.61934375,-0.6250625,0.8528125,0.02028384692423006,0.03018900967256428,True
54441,556,0,557,3612.0,38156.0,44207.0,0.001281,-0.005795,0.00183,-0.8400000000000001,-1.6800000000000002,-3.7450000000000006,0.60321875,-0.1209375,0.121875,0.87515625,0.553,-0.6228125,-0.62253125,0.8488125,0.020382521289962305,0.030232726377390624,True
54442,557,0,558,3615.0,38158.0,44210.0,-0.000549,-0.001403,0.001464,-0.12250000000000001,-1.435,-3.8325000000000005,0.61153125,-0.112125,0.12125,0.8769375,0.58303125,-0.61165625,-0.61653125,0.8661875,0.020296531242183263,0.029970967172720565,True
54443,558,0,559,3613.0,38157.0,44208.0,-0.002562,0.0021349999999999997,-0.000183,0.47250000000000003,-1.4175000000000002,-3.7625,0.603625,-0.11796875,0.120375,0.8711875,0.57028125,-0.6160625,-0.62790625,0.85171875,0.02023450135455254,0.030383469971183606,True
54444,559,0,560,3613.0,38157.0,44207.0,-0.0025009999999999998,0.004514,0.00042699999999999997,0.9450000000000001,-1.5225000000000002,-3.9550000000000005,0.5949375,-0.1180625,0.1194375,0.86734375,0.545875,-0.6155625,-0.6225937500000001,0.8736875000000001,0.020210791445452445,0.030136193511294887,True
54445,560,0,561,3611.0,38159.0,44209.0,-0.000244,0.006222,0.0017079999999999999,1.12,-1.61,-4.0600000000000005,0.6034375,-0.1169375,0.124125,0.87675,0.55278125,-0.61603125,-0.61159375,0.8695,0.020275150975037865,0.029893177884914506,True
54446,561,0,562,3611.0,38157.0,44207.0,0.0013419999999999999,0.005612,0.0026839999999999998,1.0675000000000001,-1.8900000000000001,-3.8850000000000002,0.60265625,-0.11746875,0.1198125,0.8758750000000001,0.56734375,-0.6171875,-0.6133125,0.87240625,0.020299587432561092,0.029785710476799905,True
54447,562,0,563,3613.0,38157.0,44207.0,0.000305,0.001769,-0.00061,0.6825000000000001,-1.9600000000000002,-3.7975000000000003,0.60278125,-0.116625,0.11878125,0.87228125,0.57853125,-0.61503125,-0.6126875,0.876625,0.020248044576421168,0.02971917430796617,True
54448,563,0,564,3613.0,38158.0,44207.0,0.0011589999999999999,-0.000244,-0.002623,0.29750000000000004,-2.0300000000000002,-3.5700000000000003,0.60359375,-0.11862500000000001,0.124875,0.8766875000000001,0.5513750000000001,-0.62315625,-0.624125,0.8428125,0.020490112838397797,0.03041732447345845,True
54449,564,0,565,3614.0,38158.0,44207.0,6.1e-05,-0.002806,-0.002928,0.31500000000000006,-1.9600000000000002,-3.43,0.6032500000000001,-0.11715625,0.11871875,0.870375,0.577125,-0.616625,-0.620625,0.8773125,0.02028989554823214,0.03002944685604041,True
54450,565,0,566,3612.0,38158.0,44205.0,-6.1e-05,-0.003111,-0.000732,0.4025,-1.7500000000000002,-3.5175000000000005,0.6036875,-0.12025,0.120875,0.87090625,0.55009375,-0.615,-0.62853125,0.845875,0.020099532805200084,0.030428377656503566,True
54451,566,0,567,3612.0,38157.0,44208.0,-0.001586,-0.002928,-0.000793,0.31500000000000006,-1.61,-3.535,0.6105625,-0.117,0.11965625,0.87015625,0.572375,-0.6250625,-0.6143125,0.87809375,0.02063192733013368,0.029818779216360402,True
54452,567,0,568,3612.0,38159.0,44208.0,-0.002928,-0.002074,-0.0015249999999999999,0.6125,-1.8375000000000001,-3.4650000000000003,0.60353125,-0.12078125,0.12034375,0.87046875,0.548125,-0.62121875,-0.6215,0.84296875,0.02032545606622337,0.030129916942509594,True
54453,568,0,569,3611.0,38162.0,44209.0,0.000793,0.0,-0.000732,0.7350000000000001,-1.9075000000000002,-3.5875000000000004,0.59778125,-0.1168125,0.1186875,0.8698125,0.567875,-0.61946875,-0.61790625,0.84365625,0.020417022605331403,0.029921055938703152,True
54454,569,0,570,3613.0,38158.0,44207.0,0.002196,0.0025009999999999998,-0.00042699999999999997,0.77,-2.0125,-3.8675,0.60490625,-0.1171875,0.121625,0.870375,0.56621875,-0.61590625,-0.62090625,0.8524375000000001,0.02026001988043808,0.030158566969889663,True
54455,570,0,571,3612.0,38158.0,44208.0,0.003721,0.003172,-0.001098,0.665,-1.9250000000000003,-3.8675,0.59328125,-0.12096875,0.1216875,0.87228125,0.5579375,-0.62246875,-0.61421875,0.85609375,0.020367575854878486,0.029897607455040595,True
54456,571,0,572,3613.0,38157.0,44207.0,0.002074,0.0006709999999999999,-0.000732,0.525,-1.61,-3.6750000000000003,0.60984375,-0.11740625,0.12234375,0.87621875,0.5654375,-0.6188125,-0.6195,0.848375,0.020366792671254956,0.030132364589045273,True
54457,572,0,573,3612.0,38158.0,44208.0,-0.003721,-0.003294,-0.00061,0.052500000000000005,-1.4000000000000001,-3.5000000000000004,0.60953125,-0.1168125,0.12065625,0.86621875,0.56603125,-0.61903125,-0.622125,0.8531875,0.020399614627403344,0.030167227645867285,True
54458,573,0,574,3613.0,38159.0,44210.0,-0.002013,-0.002623,0.0011589999999999999,-0.07,-1.3650000000000002,-3.5875000000000004,0.59271875,-0.11746875,0.12134375,0.87125,0.55753125,-0.62128125,-0.619625,0.8543125,0.020462481009187936,0.03009667084693613,True
54459,574,0,575,3613.0,38157.0,44206.0,-0.000488,-0.00061,0.001037,-0.035,-1.6625,-3.7275000000000005,0.604125,-0.11715625,0.12078125,0.86903125,0.5675,-0.6199687500000001,-0.621125,0.84878125,0.020422954436122104,0.030132914316466045,True
54460,575,0,576,3612.0,38158.0,44208.0,0.000915,-0.000976,0.001464,0.07,-1.6800000000000002,-3.6575,0.6033437500000001,-0.1174375,0.12190625000000001,0.874375,0.5585625,-0.6225625,-0.620625,0.8596875,0.02051472100030206,0.030158911481735332,True
54461,576,0,577,3614.0,38158.0,44208.0,0.0023179999999999997,0.0006709999999999999,0.00122,0.22750000000000004,-1.715,-3.7100000000000004,0.5905,-0.11625,0.12046875,0.8713125,0.55209375,-0.6147812500000001,-0.6208750000000001,0.85359375,0.020253328475141337,0.0301103738189646,True
54462,577,0,578,3614.0,38158.0,44209.0,0.0021349999999999997,0.0037819999999999998,0.001586,0.5075000000000001,-1.4700000000000002,-3.8325000000000005,0.607125,-0.11775000000000001,0.12078125,0.8710625000000001,0.5644375,-0.62025,-0.6215625,0.85271875,0.02041002833033783,0.03015014786328041,True
54463,578,0,579,3614.0,38159.0,44209.0,-0.0008539999999999999,0.002562,0.000915,0.56,-1.3825,-3.7800000000000002,0.60875,-0.11803125,0.12175,0.87603125,0.56340625,-0.6205,-0.61971875,0.8595,0.02040855181657562,0.03011686516524483,True
54464,579,0,580,3613.0,38160.0,44209.0,-0.003172,0.000915,0.000732,0.6825000000000001,-1.4000000000000001,-3.7625,0.60290625,-0.11946875,0.1228125,0.87584375,0.55846875,-0.62115625,-0.62025,0.8590625000000001,0.02037627700770552,0.030180948609376427,True
54465,580,0,581,3615.0,38159.0,44209.0,-0.0018909999999999999,0.001098,-6.1e-05,0.6300000000000001,-1.5050000000000001,-3.7975000000000003,0.6033437500000001,-0.11659375,0.12071875,0.8704375,0.5595,-0.61921875,-0.62140625,0.85409375,0.020415960599887033,0.03014145465391523,True
54466,581,0,582,3614.0,38158.0,44210.0,0.000183,0.001586,-0.000976,0.36750000000000005,-1.7500000000000002,-3.8325000000000005,0.6115625,-0.11771875,0.12109375,0.86003125,0.5661875000000001,-0.6191875,-0.623375,0.85375,0.020369021114120846,0.030234228654682796,True
54467,582,0,583,3615.0,38160.0,44210.0,0.002806,-0.003172,-0.000122,-0.07,-1.8900000000000001,-3.9725000000000006,0.625125,-0.116375,0.11478125,0.8677812500000001,0.56559375,-0.62,-0.6224375,0.853625,0.020455930138099106,0.029940932939722154,True
54468,583,0,584,3615.0,38159.0,44209.0,0.0008539999999999999,-0.003294,-0.0017079999999999999,-0.36750000000000005,-1.8725000000000003,-4.025,0.61846875,-0.11603125,0.11884375,0.8647812500000001,0.56603125,-0.61946875,-0.623125,0.85340625,0.020448755621503816,0.030133005051146026,True
54469,584,0,585,3615.0,38160.0,44209.0,-0.002379,-0.0048189999999999995,-0.0011589999999999999,-0.29750000000000004,-1.7500000000000002,-3.9550000000000005,0.614125,-0.11737500000000001,0.12390625000000001,0.8767812500000001,0.56515625,-0.61590625,-0.6221875,0.85490625,0.020252402854353577,0.03030168420251044,True
54470,585,0,586,3617.0,38159.0,44210.0,-0.002806,-0.003904,-0.000488,0.07,-1.6975000000000002,-3.8850000000000002,0.5971875,-0.12175,0.12115625000000001,0.86528125,0.558625,-0.6215625,-0.62053125,0.85765625,0.020299788041477872,0.030124756142294856,True
