frame_seq,absolute_seq_u64,segment_id,sample_seq,PPG_G,PPG_R,PPG_IR,ACC_X,ACC_Y,ACC_Z,GYRO_X,GYRO_Y,GYRO_Z,Uh1,Uh2,Uh3,Uh4,Uc1,Uc2,Uc3,Uc4,UD1,UD2,parser_valid
20287,46849,0,46850,7251.0,81187.0,122848.0,0.00183,0.001037,0.002074,0.6825000000000001,-1.3125000000000002,-3.7800000000000002,0.68796875,-0.27984375,-0.59646875,0.92884375,0.64925,-0.9183125,-1.55515625,0.82678125,0.025622471425382435,0.037514444858853094,True
20288,46850,0,46851,7246.0,81185.0,122848.0,-0.00244,0.00183,0.000244,0.6300000000000001,-1.155,-3.8150000000000004,0.6855625,-0.275625,-0.5958125,0.9280625,0.649625,-0.9176562500000001,-1.5542500000000001,0.8260625,0.025766117148357404,0.037505992153947,True
20289,46851,0,46852,7247.0,81184.0,122845.0,-0.002989,0.001281,-0.001769,0.5075000000000001,-1.0150000000000001,-3.7275000000000005,0.68546875,-0.28075,-0.59515625,0.9281875,0.63846875,-0.91421875,-1.55484375,0.8230937500000001,0.02542599293826944,0.03755403513277204,True
20290,46852,0,46853,7252.0,81179.0,122845.0,-0.001403,-0.000244,0.001037,0.4025,-1.0150000000000001,-3.7450000000000006,0.686,-0.28075,-0.59575,0.927125,0.64875,-0.9177500000000001,-1.55478125,0.8273125,0.025564105908438762,0.03752844685375657,True
20291,46853,0,46854,7249.0,81179.0,122840.0,-0.001952,0.000183,0.0008539999999999999,0.385,-1.1375000000000002,-3.7450000000000006,0.68578125,-0.28084375,-0.594375,0.9264687500000001,0.6481250000000001,-0.915125,-1.55028125,0.82753125,0.025457678819592513,0.03741274863657323,True
20292,46854,0,46855,7249.0,81177.0,122837.0,-0.001769,-0.0008539999999999999,0.0,0.385,-1.225,-3.6050000000000004,0.6829375,-0.28021875,-0.5923437500000001,0.9230625,0.64796875,-0.9176875,-1.55403125,0.8286875,0.02558298196813007,0.03763349471524184,True
20293,46855,0,46856,7249.0,81179.0,122837.0,0.000122,0.0,0.000122,0.36750000000000005,-1.4700000000000002,-3.5525,0.68115625,-0.27834375,-0.59265625,0.92415625,0.651625,-0.91753125,-1.55359375,0.8286250000000001,0.025652119930621137,0.03760478895458687,True
20294,46856,0,46857,7248.0,81178.0,122834.0,0.000366,-0.000305,-0.0011589999999999999,0.31500000000000006,-1.6975000000000002,-3.6050000000000004,0.679625,-0.279,-0.59084375,0.920125,0.65040625,-0.9140312500000001,-1.55621875,0.8328125000000001,0.025488899954719292,0.03777456318728685,True
20295,46857,0,46858,7248.0,81170.0,122831.0,0.004148,-0.0011589999999999999,0.000183,0.22750000000000004,-1.8900000000000001,-3.7100000000000004,0.68384375,-0.28284375,-0.5980625,0.94159375,0.654625,-0.92053125,-1.54721875,0.83328125,0.02558884052682464,0.037153016901301635,True
20296,46858,0,46859,7249.0,81173.0,122826.0,0.003172,-0.000183,-0.001647,0.36750000000000005,-1.6275000000000002,-3.7100000000000004,0.7019375,-0.28565625,-0.598,0.93090625,0.65028125,-0.91809375,-1.5558750000000001,0.83059375,0.02538065336558901,0.03748159669743259,True
20297,46859,0,46860,7249.0,81173.0,122826.0,0.002257,-0.000976,-0.001037,0.35000000000000003,-1.4875,-3.6400000000000006,0.681125,-0.27609375,-0.5886250000000001,0.92378125,0.6466875,-0.9197500000000001,-1.55428125,0.825875,0.025829161608764133,0.03778843320040551,True
20298,46860,0,46861,7247.0,81168.0,122829.0,-0.00061,0.00061,0.000732,0.47250000000000003,-1.225,-3.6400000000000006,0.67228125,-0.27684375,-0.59015625,0.925,0.64871875,-0.9167500000000001,-1.5505625,0.8308125000000001,0.025681770295082628,0.037588458179736745,True
20299,46861,0,46862,7246.0,81171.0,122829.0,-0.002074,-6.1e-05,0.00061,0.42000000000000004,-1.0850000000000002,-3.7275000000000005,0.6881875000000001,-0.2838125,-0.59159375,0.9390625,0.6541875,-0.9194375,-1.55421875,0.83215625,0.025507196942146065,0.037669905287165156,True
20300,46862,0,46863,7248.0,81174.0,122832.0,-0.003904,0.000549,6.1e-05,0.6125,-1.0150000000000001,-3.6925000000000003,0.70215625,-0.28721875,-0.6004375,0.93921875,0.6525,-0.91778125,-1.5525625,0.8235,0.025305724200464272,0.037261429259785595,True
20301,46863,0,46864,7245.0,81172.0,122831.0,-0.001647,0.000488,0.0006709999999999999,0.5950000000000001,-1.0325000000000002,-3.7450000000000006,0.6965625,-0.28178125,-0.5943437500000001,0.93265625,0.64915625,-0.9184687500000001,-1.555125,0.8304375,0.025550827636629962,0.03759642146144854,True
20302,46864,0,46865,7246.0,81174.0,122831.0,-0.0006709999999999999,0.000549,0.00042699999999999997,0.525,-1.2075,-3.7100000000000004,0.68959375,-0.28159375000000003,-0.59771875,0.92953125,0.65475,-0.91909375,-1.5538125,0.8277187500000001,0.02558279231161847,0.0374149160717212,True
20303,46865,0,46866,7246.0,81170.0,122827.0,-0.00042699999999999997,0.0,-0.000183,0.56,-1.3125000000000002,-3.7100000000000004,0.686875,-0.27915625,-0.594,0.92940625,0.64925,-0.91778125,-1.54521875,0.82725,0.025629288321968875,0.037236664884695896,True
20304,46866,0,46867,7245.0,81170.0,122829.0,0.001769,6.1e-05,0.000183,0.5075000000000001,-1.5925000000000002,-3.7100000000000004,0.6911875000000001,-0.28003125,-0.596625,0.9333125,0.65565625,-0.9195625000000001,-1.556125,0.83615625,0.025663823351633884,0.03754481557747898,True
20305,46867,0,46868,7249.0,81170.0,122825.0,0.002257,-0.000366,-0.000732,0.5075000000000001,-1.5925000000000002,-3.8325000000000005,0.6925,-0.28178125,-0.5969375,0.9345625000000001,0.639625,-0.9235,-1.55853125,0.836875,0.025747537464641805,0.037623200668074376,True
20306,46868,0,46869,7250.0,81166.0,122827.0,0.0018909999999999999,0.000732,-0.000915,0.42000000000000004,-1.4175000000000002,-3.7450000000000006,0.6915625,-0.2825625,-0.59746875,0.929875,0.669625,-0.92040625,-1.55221875,0.84896875,0.025595238841662146,0.037364661336894665,True
20307,46869,0,46870,7250.0,81166.0,122829.0,0.00042699999999999997,0.0,-0.00042699999999999997,0.43750000000000006,-1.3650000000000002,-3.7100000000000004,0.68625,-0.27618750000000003,-0.59346875,0.928875,0.670625,-0.92003125,-1.5465625,0.81721875,0.02583639416583797,0.037308101628154476,True
20308,46870,0,46871,7251.0,81169.0,122827.0,-0.0021349999999999997,0.0006709999999999999,0.00042699999999999997,0.525,-1.3125000000000002,-3.6400000000000006,0.678875,-0.28,-0.59421875,0.92328125,0.63778125,-0.91490625,-1.54978125,0.8215,0.025482987719450078,0.03740002666363338,True
20309,46871,0,46872,7248.0,81163.0,122823.0,-0.000549,0.000122,0.000488,0.385,-1.3475000000000001,-3.7275000000000005,0.68525,-0.27896875,-0.59378125,0.9276562500000001,0.6435625,-0.91696875,-1.54934375,0.82025,0.025605040741562918,0.037400667091498196,True
20310,46872,0,46873,7248.0,81164.0,122827.0,-0.00042699999999999997,-0.0008539999999999999,-0.000305,0.385,-1.435,-3.7975000000000003,0.67990625,-0.2799375,-0.5945625,0.9233125,0.6475625,-0.9216875,-1.55490625,0.839125,0.02575066395483853,0.037579623286624265,True
20311,46873,0,46874,7250.0,81162.0,122824.0,-0.000549,-0.001647,-0.000183,0.36750000000000005,-1.5225000000000002,-3.7450000000000006,0.6859375,-0.282375,-0.59565625,0.934625,0.67440625,-0.92903125,-1.55728125,0.83446875,0.02593988685380624,0.03762626355258347,True
20312,46874,0,46875,7250.0,81164.0,122828.0,0.000915,-0.00061,0.000122,0.3325,-1.715,-3.6575,0.6913125,-0.27818750000000003,-0.59378125,0.92859375,0.6514375,-0.91096875,-1.5385312500000001,0.81634375,0.02540171184631268,0.03699312191260021,True
20313,46875,0,46876,7249.0,81162.0,122824.0,0.000915,-0.00061,-6.1e-05,0.42000000000000004,-1.7675,-3.7975000000000003,0.68553125,-0.2718125,-0.593625,0.92834375,0.62915625,-0.9137500000000001,-1.54459375,0.815875,0.025766394059505295,0.03722778914814412,True
20314,46876,0,46877,7250.0,81160.0,122833.0,0.002257,0.0008539999999999999,-0.000366,0.3325,-1.6625,-3.7100000000000004,0.678875,-0.27646875,-0.595875,0.93296875,0.63771875,-0.91621875,-1.5518125,0.83428125,0.025676046852012812,0.03741172959843846,True
20315,46877,0,46878,7250.0,81160.0,122830.0,0.001403,0.000549,0.000244,0.3325,-1.715,-3.8150000000000004,0.691875,-0.279875,-0.59503125,0.934125,0.65546875,-0.920375,-1.550875,0.83015625,0.025701860425455077,0.03740943314074371,True
20316,46878,0,46879,7254.0,81161.0,122830.0,0.000183,-0.000488,-0.00061,0.35000000000000003,-1.61,-3.7625,0.6909375,-0.28228125,-0.5955625,0.9334687500000001,0.64990625,-0.9153125,-1.54965625,0.827125,0.025407317287310764,0.03734272354447039,True
20317,46879,0,46880,7252.0,81159.0,122829.0,-0.0013419999999999999,-0.000122,0.000122,0.4025,-1.5225000000000002,-3.8500000000000005,0.68484375,-0.28253125,-0.5978125,0.92953125,0.6462187500000001,-0.919625,-1.55146875,0.82703125,0.02556594451160481,0.03732295232539225,True
20318,46880,0,46881,7254.0,81158.0,122829.0,-0.001464,-0.00061,0.001037,0.525,-1.435,-3.7275000000000005,0.68778125,-0.27915625,-0.5935312500000001,0.9293125,0.64875,-0.91746875,-1.55090625,0.82778125,0.02561706834688014,0.03746931676836315,True
20319,46881,0,46882,7254.0,81162.0,122827.0,-0.0011589999999999999,0.00122,-0.000366,0.45500000000000007,-1.5050000000000001,-3.6575,0.6856875,-0.27878125,-0.59328125,0.928125,0.6480312500000001,-0.917125,-1.550375,0.83115625,0.025618675910643787,0.03745908817385264,True
20320,46882,0,46883,7256.0,81158.0,122826.0,0.000122,-0.000183,0.000305,0.36750000000000005,-1.5925000000000002,-3.6925000000000003,0.691625,-0.28134375,-0.595625,0.9323750000000001,0.655,-0.920625,-1.55290625,0.8321875,0.02565269731397186,0.037462715224417964,True
20321,46883,0,46884,7256.0,81158.0,122827.0,0.0008539999999999999,0.00061,0.000244,0.29750000000000004,-1.6450000000000002,-3.7975000000000003,0.69165625,-0.27909375000000003,-0.59459375,0.93315625,0.65109375,-0.91896875,-1.552375,0.82784375,0.025678229561566426,0.03748306175062005,True
20322,46884,0,46885,7258.0,81157.0,122827.0,0.00042699999999999997,-0.000488,-0.000793,0.36750000000000005,-1.5050000000000001,-3.7800000000000002,0.68646875,-0.2799375,-0.593625,0.92821875,0.64934375,-0.9173125,-1.55028125,0.82371875,0.02557960454202274,0.03744210252088712,True
20323,46885,0,46886,7258.0,81154.0,122826.0,0.000915,-0.00061,0.000488,0.47250000000000003,-1.435,-3.6400000000000006,0.6873125,-0.2806875,-0.5945,0.9284375,0.648625,-0.9191875,-1.54871875,0.82759375,0.025622825784347908,0.037348986434006595,True
20324,46886,0,46887,7258.0,81158.0,122826.0,-0.001647,6.1e-05,-0.001037,0.45500000000000007,-1.5050000000000001,-3.7800000000000002,0.68621875,-0.27878125,-0.59296875,0.9315,0.6491250000000001,-0.91725,-1.552375,0.82984375,0.025623563996829506,0.03754665662193827,True
20325,46887,0,46888,7257.0,81164.0,122830.0,0.00061,-6.1e-05,0.000183,0.4025,-1.4000000000000001,-3.6575,0.6893125,-0.282375,-0.59284375,0.93090625,0.65609375,-0.9193125,-1.54846875,0.8335,0.02555999488348645,0.037404394343594466,True
20326,46888,0,46889,7258.0,81153.0,122829.0,0.00061,0.0,0.00042699999999999997,0.3325,-1.3475000000000001,-3.7975000000000003,0.69534375,-0.28240625,-0.5990625,0.9456875,0.64915625,-0.91828125,-1.5538125,0.8293125,0.025518413313518562,0.03736233096333473,True
20327,46889,0,46890,7259.0,81155.0,122827.0,0.000122,-0.000976,6.1e-05,0.47250000000000003,-1.435,-3.7100000000000004,0.70625,-0.2825625,-0.59953125,0.9432812500000001,0.64884375,-0.9174375,-1.5505625,0.8273125,0.02547914487595284,0.03722153866475542,True
20328,46890,0,46891,7259.0,81155.0,122825.0,0.000305,0.000732,-6.1e-05,0.4025,-1.3475000000000001,-3.6925000000000003,0.686875,-0.282875,-0.59684375,0.9333750000000001,0.6489375000000001,-0.9127500000000001,-1.54959375,0.82621875,0.02528323850237329,0.037290221101852164,True
20329,46891,0,46892,7260.0,81159.0,122833.0,-0.000732,0.0008539999999999999,0.000122,0.3325,-1.3650000000000002,-3.6925000000000003,0.6855625,-0.27871875,-0.5916250000000001,0.923125,0.64909375,-0.9175,-1.54971875,0.82925,0.02563584829938798,0.03749918969264583,True
20330,46892,0,46893,7259.0,81159.0,122831.0,-0.000183,-0.000305,-0.000732,0.42000000000000004,-1.3650000000000002,-3.5525,0.680625,-0.2810625,-0.59296875,0.9404375,0.6555625,-0.92009375,-1.5520625000000001,0.83146875,0.025643212116728095,0.0375348858824997,True
20331,46893,0,46894,7261.0,81156.0,122829.0,-0.000915,-0.000305,6.1e-05,0.45500000000000007,-1.3650000000000002,-3.5875000000000004,0.7034375,-0.2864375,-0.59396875,0.92240625,0.6500312500000001,-0.9168437500000001,-1.54528125,0.82634375,0.02530040547370692,0.03724024373385985,True
20332,46894,0,46895,7263.0,81159.0,122834.0,0.000305,-0.00042699999999999997,-0.001098,0.4025,-1.2950000000000002,-3.7800000000000002,0.68025,-0.27690625,-0.5856250000000001,0.92603125,0.6510625,-0.91859375,-1.5518125,0.8339062500000001,0.02575135284269402,0.03781287530972607,True
20333,46895,0,46896,7262.0,81160.0,122837.0,0.0015249999999999999,-0.001098,0.0006709999999999999,0.49000000000000005,-1.225,-3.6400000000000006,0.68475,-0.28315625,-0.59515625,0.9426875,0.6458125,-0.9188437500000001,-1.5519687500000001,0.83196875,0.025510312853099376,0.03744574476281794,True
20334,46896,0,46897,7263.0,81156.0,122833.0,-0.000183,0.00042699999999999997,0.000915,0.5950000000000001,-1.2600000000000002,-3.6750000000000003,0.70240625,-0.28596875,-0.59971875,0.9413125,0.6528125,-0.91734375,-1.5499687500000001,0.8266875,0.025338776329238547,0.037191826310942165,True
20335,46897,0,46898,7261.0,81151.0,122829.0,-0.000549,0.000122,-6.1e-05,0.56,-1.1900000000000002,-3.6750000000000003,0.687,-0.28090625,-0.59115625,0.922875,0.64953125,-0.91696875,-1.548125,0.8270937500000001,0.025527282486959815,0.03745749443452308,True
20336,46898,0,46899,7265.0,81156.0,122830.0,-0.001647,0.0008539999999999999,-0.000366,0.5775,-1.225,-3.6050000000000004,0.681125,-0.27668750000000003,-0.58975,0.93496875,0.6484375,-0.9168125,-1.5489375,0.83365625,0.0256904850891341,0.03754314636371865,True
20337,46899,0,46900,7265.0,81154.0,122833.0,-0.000976,0.0008539999999999999,-0.001586,0.5075000000000001,-1.2600000000000002,-3.6925000000000003,0.69159375,-0.280625,-0.5956875,0.93103125,0.64515625,-0.91859375,-1.5496875,0.8264375,0.025602116893133266,0.03733900854951749,True
20338,46900,0,46901,7267.0,81156.0,122832.0,-0.000915,0.000549,-0.000183,0.42000000000000004,-1.2950000000000002,-3.7450000000000006,0.6780625,-0.2785625,-0.59190625,0.9281875,0.648875,-0.9168125,-1.54740625,0.82675,0.02561523469344243,0.037401057103399686,True
20339,46901,0,46902,7266.0,81154.0,122841.0,-0.00042699999999999997,0.000183,0.0025009999999999998,0.56,-1.3475000000000001,-3.7100000000000004,0.692875,-0.2810625,-0.59503125,0.933625,0.6555,-0.91890625,-1.5509375,0.8265625,0.025596779553677243,0.03741178772794541,True
20340,46902,0,46903,7268.0,81155.0,122838.0,-0.000549,0.000122,0.0006709999999999999,0.29750000000000004,-1.54,-3.6575,0.68678125,-0.27934375,-0.59240625,0.9291875,0.6482187500000001,-0.91571875,-1.5481875,0.82978125,0.025541105451754226,0.03741092200767667,True
20341,46903,0,46904,7268.0,81149.0,122838.0,0.000732,-0.002745,-0.00183,0.1925,-1.6625,-3.535,0.6924375,-0.280625,-0.59459375,0.922625,0.65465625,-0.91609375,-1.54871875,0.8273125,0.025504348971234707,0.03734531697406548,True
20342,46904,0,46905,7268.0,81152.0,122839.0,0.00122,-0.002562,-0.0023179999999999997,0.1925,-1.6450000000000002,-3.5875000000000004,0.6865625,-0.2785625,-0.5946875,0.93390625,0.6486875,-0.91609375,-1.5506250000000001,0.83346875,0.02558712679430338,0.03741346835938456,True
20343,46905,0,46906,7270.0,81151.0,122843.0,0.0021349999999999997,-0.0018909999999999999,-0.0008539999999999999,0.2625,-1.435,-3.5525,0.687625,-0.27875,-0.591875,0.9186875,0.6480312500000001,-0.9168125,-1.54784375,0.832375,0.025607709653873264,0.03741876454837798,True
20344,46906,0,46907,7270.0,81150.0,122840.0,0.001037,0.002013,-0.000488,0.5075000000000001,-1.2425000000000002,-3.6400000000000006,0.69153125,-0.28140625,-0.594375,0.93515625,0.655875,-0.91871875,-1.5506250000000001,0.83303125,0.025575652841300277,0.03742569897996625,True
20345,46907,0,46908,7268.0,81147.0,122840.0,-0.0018909999999999999,0.002379,0.0008539999999999999,0.665,-1.2075,-3.6750000000000003,0.6939375,-0.27628125,-0.5928125,0.93475,0.6554375,-0.91978125,-1.5479375,0.82696875,0.025822859099134347,0.037385601088150464,True
20346,46908,0,46909,7273.0,81147.0,122846.0,-0.00183,0.0021349999999999997,0.000366,0.6825000000000001,-1.12,-3.5700000000000003,0.69378125,-0.282375,-0.59409375,0.9336875,0.6561875,-0.919125,-1.5447187500000001,0.8349375,0.02555266286436622,0.03721415018515325,True
20347,46909,0,46910,7269.0,81148.0,122845.0,-0.002928,0.001403,0.001037,0.6125,-1.1900000000000002,-3.5175000000000005,0.6931875000000001,-0.28259375000000003,-0.59409375,0.93465625,0.6575625,-0.92125,-1.55190625,0.83225,0.025626974971159146,0.03748497237852851,True
20348,46910,0,46911,7274.0,81144.0,122848.0,-0.000366,0.0013419999999999999,0.000305,0.5775,-1.2950000000000002,-3.6050000000000004,0.69428125,-0.2801875,-0.5953125,0.927,0.656875,-0.92025,-1.54784375,0.82603125,0.025684433342362135,0.037284213075712114,True
20349,46911,0,46912,7275.0,81149.0,122843.0,0.001403,-0.001464,0.000244,0.4025,-1.2775,-3.6050000000000004,0.68596875,-0.27934375,-0.59284375,0.92703125,0.64884375,-0.9164375,-1.547625,0.82684375,0.025569215101476684,0.03737260312847085,True
20350,46912,0,46913,7276.0,81146.0,122844.0,0.00183,-0.001464,0.000732,0.43750000000000006,-1.33,-3.43,0.67790625,-0.27965625,-0.5935312500000001,0.9336875,0.64971875,-0.9183125,-1.5504375000000001,0.826375,0.02562999601196911,0.037451658117400144,True
20351,46913,0,46914,7276.0,81148.0,122845.0,-0.0006709999999999999,-0.0013419999999999999,-6.1e-05,0.31500000000000006,-1.4700000000000002,-3.5175000000000005,0.6930625,-0.28034375,-0.59228125,0.92834375,0.65228125,-0.91740625,-1.5443437500000001,0.8196875,0.025566966866786146,0.03727097119102933,True
20352,46914,0,46915,7274.0,81147.0,122836.0,-0.0015249999999999999,-0.001952,-0.00042699999999999997,0.2625,-1.5750000000000002,-3.5000000000000004,0.68634375,-0.27315625,-0.59178125,0.92853125,0.6492187500000001,-0.916625,-1.5469375,0.82665625,0.02582487596133104,0.03738828773507588,True
20353,46915,0,46916,7274.0,81142.0,122831.0,-0.001281,-0.002562,0.000122,0.2625,-1.5750000000000002,-3.5175000000000005,0.6856875,-0.2789375,-0.5921875,0.9328125,0.6515625,-0.91925,-1.5491875,0.8310000000000001,0.02569549645354495,0.037457159841188685,True
20354,46916,0,46917,7277.0,81142.0,122826.0,0.0013419999999999999,6.1e-05,-0.000732,0.35000000000000003,-1.8375000000000001,-3.7450000000000006,0.69115625,-0.27953125,-0.594375,0.93321875,0.6540625,-0.91771875,-1.54784375,0.823625,0.02561179481970034,0.037320908931893715,True
20355,46917,0,46918,7274.0,81141.0,122818.0,0.0015249999999999999,0.001464,0.000305,0.47250000000000003,-1.8200000000000003,-3.8150000000000004,0.69225,-0.2818125,-0.593,0.92859375,0.65009375,-0.9169375000000001,-1.54640625,0.82684375,0.02548968949334163,0.037320562456803485,True
20356,46918,0,46919,7275.0,81139.0,122814.0,0.0013419999999999999,0.002196,0.00061,0.36750000000000005,-1.8025000000000002,-3.9025000000000003,0.6861875000000001,-0.27959375000000003,-0.5934375000000001,0.93190625,0.6491250000000001,-0.9146562500000001,-1.5489375,0.8251875,0.0254895148312552,0.03739881550847271,True
20357,46919,0,46920,7273.0,81137.0,122806.0,0.000732,0.0021349999999999997,-6.1e-05,0.4025,-1.7675,-3.8675,0.6905,-0.28009375000000003,-0.59403125,0.92871875,0.6558125,-0.9194375,-1.5470625,0.82534375,0.025656427838710243,0.03730492497914389,True
20358,46920,0,46921,7272.0,81131.0,122799.0,0.002013,0.002806,0.000305,0.4025,-1.6800000000000002,-3.9550000000000005,0.6864375,-0.27440625,-0.5925312500000001,0.92803125,0.64940625,-0.91615625,-1.546875,0.83153125,0.025756380460970982,0.037356574923547395,True
20359,46921,0,46922,7270.0,81129.0,122800.0,-0.001037,0.0011589999999999999,0.000183,0.35000000000000003,-1.7325000000000002,-3.8850000000000002,0.68740625,-0.27871875,-0.593625,0.9324375,0.65859375,-0.9179375000000001,-1.54971875,0.8335,0.025652955827503782,0.037420910944469796,True
20360,46922,0,46923,7267.0,81125.0,122784.0,-0.000915,-0.0011589999999999999,6.1e-05,0.14,-1.715,-3.8325000000000005,0.69253125,-0.27621875,-0.59403125,0.93240625,0.66778125,-0.920375,-1.5520625000000001,0.83203125,0.02584857772003832,0.037493304111947914,True
20361,46923,0,46924,7264.0,81122.0,122778.0,-0.002379,-0.0013419999999999999,0.0,0.08750000000000001,-1.8200000000000003,-3.7275000000000005,0.6869375,-0.27925,-0.584875,0.928875,0.65028125,-0.919125,-1.54490625,0.822625,0.02567806855176496,0.03758210112828266,True
20362,46924,0,46925,7265.0,81116.0,122774.0,-0.0015249999999999999,-0.0023179999999999997,0.000122,0.0,-1.8550000000000002,-3.7100000000000004,0.68671875,-0.27915625,-0.59196875,0.92521875,0.6428125,-0.9110312500000001,-1.5439687500000001,0.81746875,0.025365268649807506,0.03726907158857216,True
20363,46925,0,46926,7265.0,81118.0,122775.0,-0.000732,-0.000122,0.0,0.0,-1.995,-3.7100000000000004,0.681875,-0.27778125,-0.590875,0.9220625,0.6365625,-0.91546875,-1.54684375,0.8324375,0.025594039847233463,0.037420229260219276,True
20364,46926,0,46927,7262.0,81109.0,122761.0,0.001586,-0.000732,-0.000366,0.15750000000000003,-2.345,-3.7100000000000004,0.6794687500000001,-0.27465625,-0.5856250000000001,0.92325,0.6498125,-0.9153125,-1.54690625,0.83278125,0.025713353986629706,0.03762808852833207,True
20365,46927,0,46928,7261.0,81113.0,122759.0,0.0021349999999999997,-0.0006709999999999999,0.0,0.15750000000000003,-2.2925000000000004,-3.6400000000000006,0.676125,-0.28021875,-0.58865625,0.92334375,0.663875,-0.9234375,-1.5501562500000001,0.83790625,0.025807786345683655,0.03763186379731044,True
20366,46928,0,46929,7261.0,81109.0,122761.0,0.0021349999999999997,0.000183,-0.00042699999999999997,0.14,-2.24,-3.6575,0.67609375,-0.27503125,-0.58634375,0.9176875,0.6526875,-0.9180625,-1.547,0.83396875,0.02580582860324714,0.0376034857321799,True
20367,46929,0,46930,7263.0,81106.0,122758.0,0.002928,0.000488,-0.000244,0.08750000000000001,-2.205,-3.7450000000000006,0.67415625,-0.2721875,-0.5901875,0.9324375,0.6577500000000001,-0.9173125,-1.55059375,0.82953125,0.025890633269539,0.037588412206663493,True
20368,46930,0,46931,7260.0,81103.0,122753.0,0.0013419999999999999,0.0,-0.001769,0.21000000000000002,-1.7850000000000001,-3.7975000000000003,0.687,-0.28250000000000003,-0.5905312500000001,0.94215625,0.66228125,-0.92409375,-1.5505625,0.83934375,0.02574190887080899,0.037573781399137494,True
20369,46931,0,46932,7260.0,81101.0,122756.0,-0.000122,-0.000976,0.000732,0.4025,-1.5575,-3.6750000000000003,0.709125,-0.28871875,-0.5993125,0.94575,0.66128125,-0.91928125,-1.54590625,0.83025,0.02530420093878109,0.03705461613834898,True
20370,46932,0,46933,7259.0,81100.0,122753.0,-0.0017079999999999999,0.000183,0.001464,0.36750000000000005,-1.5050000000000001,-3.8150000000000004,0.70684375,-0.2823125,-0.5841875,0.90540625,0.657375,-0.92159375,-1.54753125,0.83028125,0.025651700144578436,0.03770789985822995,True
20371,46933,0,46934,7259.0,81100.0,122759.0,-0.0028669999999999998,0.0008539999999999999,0.001098,0.49000000000000005,-1.4875,-3.7975000000000003,0.67525,-0.2805,-0.59478125,0.94575,0.6484375,-0.91621875,-1.54446875,0.8267187500000001,0.025514254645882008,0.0371778136900968,True
20372,46934,0,46935,7258.0,81097.0,122752.0,-0.003843,0.000793,0.000366,0.4025,-1.6625,-3.8150000000000004,0.704,-0.28300000000000003,-0.58528125,0.91796875,0.6520312500000001,-0.919,-1.54865625,0.83321875,0.02552269352702757,0.037707462598938056,True
20373,46935,0,46936,7257.0,81097.0,122744.0,-0.000122,0.000732,0.000122,0.31500000000000006,-1.8900000000000001,-3.6925000000000003,0.6734375,-0.27625,-0.58634375,0.92440625,0.64975,-0.916875,-1.54371875,0.8269375,0.025710487370506935,0.03747985989706373,True
20374,46936,0,46937,7255.0,81095.0,122747.0,0.002074,6.1e-05,0.000549,0.2625,-1.9775000000000003,-3.6225000000000005,0.6814687500000001,-0.27825,-0.59,0.92528125,0.64853125,-0.9164375,-1.5451875,0.823875,0.025613111826279338,0.037392072381539576,True
20375,46937,0,46938,7257.0,81097.0,122742.0,0.003111,0.000488,-0.0008539999999999999,0.35000000000000003,-1.9600000000000002,-3.6925000000000003,0.67753125,-0.275875,-0.59125,0.92890625,0.64959375,-0.9166562500000001,-1.54484375,0.8269062500000001,0.02571698399539465,0.03733018527467016,True
20376,46938,0,46939,7255.0,81092.0,122742.0,0.0023179999999999997,-0.00042699999999999997,-0.000244,0.43750000000000006,-1.8550000000000002,-3.6050000000000004,0.6930625,-0.28046875,-0.59384375,0.9351875000000001,0.65521875,-0.9179375000000001,-1.547125,0.8344375,0.02558272529578341,0.03731461955112366,True
20377,46939,0,46940,7258.0,81097.0,122743.0,0.001281,-0.001098,-0.000122,0.36750000000000005,-1.6975000000000002,-3.6400000000000006,0.69375,-0.28203125,-0.5931875,0.9333750000000001,0.65025,-0.9188437500000001,-1.54609375,0.83359375,0.02555545941011007,0.037301446527416744,True
20378,46940,0,46941,7259.0,81091.0,122741.0,-0.0015249999999999999,-0.0008539999999999999,-0.00042699999999999997,0.35000000000000003,-1.4175000000000002,-3.7625,0.6940625,-0.27928125,-0.593625,0.934125,0.6568437500000001,-0.91940625,-1.54675,0.83396875,0.025687811080972286,0.037309051053460815,True
20379,46941,0,46942,7256.0,81089.0,122743.0,-0.00042699999999999997,-0.001647,-0.000244,0.3325,-1.3475000000000001,-3.7450000000000006,0.6911875000000001,-0.2800625,-0.59075,0.92859375,0.65621875,-0.9197500000000001,-1.5475,0.82734375,0.02566990038022051,0.037449848321753604,True
20380,46942,0,46943,7256.0,81090.0,122737.0,-0.000244,-0.001281,-0.000244,0.42000000000000004,-1.4000000000000001,-3.7800000000000002,0.68759375,-0.27790625,-0.59140625,0.92859375,0.64971875,-0.9166875,-1.5409375,0.8274375,0.025636684250264004,0.037176836206580126,True
20381,46943,0,46944,7252.0,81091.0,122736.0,-0.0011589999999999999,0.000183,0.0017079999999999999,0.525,-1.2425000000000002,-3.7625,0.6869375,-0.27784375,-0.590875,0.9263125,0.6496875,-0.9161875,-1.5455,0.8318125000000001,0.025619639842572223,0.03736959542776615,True
20382,46944,0,46945,7255.0,81092.0,122732.0,-0.000976,0.00061,0.001098,0.5775,-1.2075,-3.8150000000000004,0.68675,-0.27878125,-0.5901875,0.9320625,0.65640625,-0.91853125,-1.546375,0.83203125,0.025673664052731842,0.03742947874209159,True
20383,46945,0,46946,7253.0,81092.0,122732.0,0.001403,0.000915,-0.000183,0.56,-1.4700000000000002,-3.7625,0.6908125,-0.28046875,-0.58446875,0.93584375,0.654875,-0.91878125,-1.54725,0.8334375,0.02561571906731996,0.03768629695955534,True
20384,46946,0,46947,7252.0,81088.0,122722.0,0.0017079999999999999,0.001037,0.000183,0.5425000000000001,-1.3125000000000002,-3.7275000000000005,0.6833750000000001,-0.281375,-0.59496875,0.9350937500000001,0.6565,-0.9196562500000001,-1.54159375,0.8303125,0.02561356559643555,0.037062096017402985,True
20385,46947,0,46948,7255.0,81085.0,122721.0,0.001403,0.000732,0.000183,0.43750000000000006,-1.225,-3.7450000000000006,0.6926875,-0.28196875,-0.59215625,0.935,0.65578125,-0.9204687500000001,-1.54921875,0.8325312500000001,0.02562150842367281,0.037459560284989146,True
20386,46948,0,46949,7253.0,81085.0,122724.0,-0.000122,0.0008539999999999999,-0.000122,0.5950000000000001,-1.05,-3.6575,0.6920937500000001,-0.2808125,-0.59046875,0.93071875,0.65634375,-0.9178125,-1.539875,0.827375,0.025564041787376,0.03717348851550762,True
20387,46949,0,46950,7252.0,81080.0,122717.0,-0.0023179999999999997,-0.000244,-6.1e-05,0.525,-1.12,-3.6750000000000003,0.68371875,-0.27575,-0.59109375,0.9283750000000001,0.6520625,-0.91659375,-1.544375,0.82828125,0.025719556871612915,0.037318636686158896,True
20388,46950,0,46951,7255.0,81085.0,122716.0,-0.002379,-0.000732,0.000793,0.47250000000000003,-1.2775,-3.6225000000000005,0.6869375,-0.27890625,-0.5916875,0.92940625,0.6500312500000001,-0.9165,-1.5448125,0.8276875,0.025589217988080188,0.03731188083686267,True
20389,46951,0,46952,7251.0,81081.0,122716.0,-0.000915,-0.000366,0.0006709999999999999,0.28,-1.3475000000000001,-3.6225000000000005,0.68859375,-0.27896875,-0.59225,0.92153125,0.64884375,-0.91615625,-1.5459375,0.8201875000000001,0.025573266341994465,0.03733225684122964,True
20390,46952,0,46953,7254.0,81082.0,122714.0,0.0008539999999999999,-0.000488,-0.000732,0.31500000000000006,-1.435,-3.5175000000000005,0.687875,-0.27796875,-0.58796875,0.9352812500000001,0.6502187500000001,-0.91715625,-1.54621875,0.83178125,0.025652505991730096,0.03751044369335481,True
20391,46953,0,46954,7254.0,81079.0,122713.0,0.0011589999999999999,-0.0011589999999999999,-0.00042699999999999997,0.2625,-1.54,-3.6225000000000005,0.69425,-0.28015625,-0.59371875,0.92871875,0.6555625,-0.918625,-1.542125,0.8269375,0.02562215009857085,0.03713106290099199,True
20392,46954,0,46955,7253.0,81075.0,122710.0,0.0021349999999999997,-0.000366,-0.00042699999999999997,0.31500000000000006,-1.5750000000000002,-3.6050000000000004,0.68659375,-0.27753125,-0.59103125,0.93078125,0.6501250000000001,-0.91653125,-1.545125,0.82703125,0.025645624328225865,0.037349347478237045,True
20393,46955,0,46956,7251.0,81075.0,122711.0,-6.1e-05,-0.000488,0.000549,0.45500000000000007,-1.5225000000000002,-3.6575,0.68140625,-0.27928125,-0.5905625,0.92825,0.649,-0.9170625,-1.5446250000000001,0.8275,0.025596165278310795,0.037348855189692554,True
20394,46956,0,46957,7252.0,81073.0,122712.0,0.00061,6.1e-05,0.000366,0.47250000000000003,-1.3650000000000002,-3.6575,0.68653125,-0.277375,-0.5905,0.93075,0.64965625,-0.9166875,-1.54440625,0.827875,0.02565800530267115,0.03734305822825692,True
20395,46957,0,46958,7252.0,81075.0,122713.0,-6.1e-05,6.1e-05,0.000366,0.5775,-1.2775,-3.7275000000000005,0.6854375,-0.2813125,-0.59275,0.93415625,0.6558437500000001,-0.91359375,-1.54875,0.8395625,0.0253789660514152,0.03741866040412937,True
20396,46958,0,46959,7253.0,81073.0,122712.0,-0.000122,-6.1e-05,0.000549,0.525,-1.2775,-3.6750000000000003,0.6930625,-0.2813125,-0.59265625,0.934625,0.66578125,-0.92428125,-1.54828125,0.8423125,0.025796882307288202,0.0374046688561486,True
20397,46959,0,46960,7256.0,81072.0,122713.0,-0.000488,-6.1e-05,-0.000366,0.47250000000000003,-1.3125000000000002,-3.6575,0.6919375,-0.2765,-0.5910625,0.93053125,0.65546875,-0.91315625,-1.54009375,0.8220000000000001,0.025555021756827778,0.03715848732935837,True
20398,46960,0,46961,7254.0,81072.0,122711.0,-0.00061,-0.000793,-0.000549,0.49000000000000005,-1.1725,-3.7275000000000005,0.67771875,-0.28025,-0.58640625,0.9343750000000001,0.6430625,-0.91325,-1.5442500000000001,0.83528125,0.02540816633719005,0.03749743092868258,True
20399,46961,0,46962,7253.0,81073.0,122708.0,-0.000488,0.00061,-6.1e-05,0.49000000000000005,-1.1725,-3.6925000000000003,0.692625,-0.28034375,-0.5925,0.9296875,0.6585625,-0.9163125,-1.5453125,0.82171875,0.025524192233501646,0.03729891736497645,True
20400,46962,0,46963,7255.0,81073.0,122711.0,0.0,0.000244,-6.1e-05,0.665,-1.2600000000000002,-3.535,0.68425,-0.2785,-0.5836875,0.9263125,0.63828125,-0.91409375,-1.5399375,0.82221875,0.0255114135949657,0.037441360222592555,True
20401,46963,0,46964,7253.0,81070.0,122711.0,0.0008539999999999999,0.000732,0.000915,0.5775,-1.155,-3.5700000000000003,0.6846875,-0.280625,-0.59225,0.9346875,0.65315625,-0.918375,-1.54278125,0.82778125,0.02559356298313995,0.03721330268214233,True
20402,46964,0,46965,7254.0,81070.0,122716.0,0.000488,-0.000122,0.0,0.5950000000000001,-1.155,-3.7100000000000004,0.6925,-0.27868750000000003,-0.59265625,0.934125,0.6554375,-0.9175625000000001,-1.54315625,0.8377187500000001,0.02563954640426808,0.03721153293262261,True
20403,46965,0,46966,7255.0,81070.0,122715.0,-0.000915,0.0006709999999999999,-0.000488,0.5425000000000001,-1.2775,-3.6050000000000004,0.6930000000000001,-0.28184375,-0.593625,0.93496875,0.66334375,-0.920625,-1.5475625,0.8440625,0.025632633611717203,0.037339667923309706,True
20404,46966,0,46967,7256.0,81069.0,122712.0,-0.000732,0.0,0.000549,0.49000000000000005,-1.33,-3.5525,0.69371875,-0.28125,-0.588375,0.930875,0.6694687500000001,-0.9245625000000001,-1.5486875,0.836875,0.0258103828301901,0.03758754730551227,True
20405,46967,0,46968,7256.0,81073.0,122713.0,-0.000305,-0.000244,0.0,0.42000000000000004,-1.435,-3.5875000000000004,0.67859375,-0.2789375,-0.58940625,0.928875,0.65628125,-0.9166875,-1.541375,0.8158125,0.025595296325003077,0.037271632791891586,True
20406,46968,0,46969,7259.0,81072.0,122713.0,-0.000488,-0.000122,0.000183,0.36750000000000005,-1.4700000000000002,-3.6400000000000006,0.6869375,-0.27559375,-0.59128125,0.93565625,0.64271875,-0.914,-1.5411875,0.82928125,0.02562439792887533,0.03719115448332228,True
20407,46969,0,46970,7258.0,81071.0,122717.0,-0.000122,6.1e-05,-0.000122,0.45500000000000007,-1.5925000000000002,-3.6400000000000006,0.68740625,-0.28200000000000003,-0.59109375,0.92959375,0.6535625,-0.9173125,-1.54365625,0.8293125,0.025496830767764378,0.03729154865995348,True
20408,46970,0,46971,7260.0,81070.0,122717.0,6.1e-05,0.00042699999999999997,0.000122,0.4025,-1.7325000000000002,-3.5700000000000003,0.68571875,-0.27768750000000003,-0.58909375,0.92703125,0.6454375,-0.91546875,-1.53928125,0.8271875,0.02559780256993961,0.03720494287598638,True
20409,46971,0,46972,7258.0,81069.0,122719.0,0.000488,0.000549,0.000244,0.24500000000000002,-1.8025000000000002,-3.6925000000000003,0.6863125,-0.27859375000000003,-0.59140625,0.9331875000000001,0.6491875,-0.9156875,-1.544125,0.8337187500000001,0.02556998477364913,0.037296981204092916,True
20410,46972,0,46973,7257.0,81071.0,122714.0,0.000549,-0.000305,6.1e-05,0.3325,-1.9250000000000003,-3.6575,0.69321875,-0.28071875,-0.59065625,0.92790625,0.653625,-0.91921875,-1.543,0.82703125,0.025622793651987986,0.03728394276318365,True
20411,46973,0,46974,7259.0,81070.0,122718.0,0.0006709999999999999,-0.000305,-0.000488,0.3325,-1.9600000000000002,-3.5525,0.6805625,-0.27834375,-0.58934375,0.92825,0.650625,-0.9157500000000001,-1.5424375000000001,0.82684375,0.025582462899972912,0.03731412673516379,True
20412,46974,0,46975,7259.0,81069.0,122720.0,0.001464,0.000122,-0.0023179999999999997,0.4025,-1.9600000000000002,-3.6225000000000005,0.68721875,-0.279625,-0.5915625,0.93271875,0.6425,-0.918375,-1.54409375,0.8326875,0.02563369401094574,0.03728968658361583,True
20413,46975,0,46976,7262.0,81069.0,122717.0,0.000488,-0.000305,0.000183,0.35000000000000003,-1.6450000000000002,-3.7100000000000004,0.678875,-0.278875,-0.5886875,0.92871875,0.6558125,-0.9166562500000001,-1.54221875,0.82703125,0.02559658260726698,0.0373315748069067,True
20414,46976,0,46977,7262.0,81065.0,122716.0,0.000305,-0.001037,0.0006709999999999999,0.42000000000000004,-1.4525000000000001,-3.7100000000000004,0.68715625,-0.2785625,-0.5855312500000001,0.930875,0.65071875,-0.915625,-1.5415625,0.8310000000000001,0.02556879468205193,0.037430413664003515,True
20415,46977,0,46978,7261.0,81069.0,122722.0,-0.001098,6.1e-05,0.00042699999999999997,0.43750000000000006,-1.2600000000000002,-3.7100000000000004,0.68725,-0.28040625,-0.58996875,0.9350625,0.65659375,-0.9117500000000001,-1.544,0.83246875,0.02534321153672464,0.03734854564672722,True
20416,46978,0,46979,7266.0,81069.0,122726.0,-0.002074,-0.000183,-0.000366,0.42000000000000004,-1.2950000000000002,-3.7625,0.69503125,-0.28265625,-0.593,0.9398125,0.6556875,-0.9178125,-1.5444375000000001,0.8355,0.02549004853455736,0.03724636723748566,True
20417,46979,0,46980,7265.0,81067.0,122724.0,-0.0013419999999999999,0.000183,6.1e-05,0.36750000000000005,-1.2600000000000002,-3.6750000000000003,0.6961875,-0.2783125,-0.5876250000000001,0.9263125,0.65190625,-0.91825,-1.54265625,0.83234375,0.025681478434480754,0.037389660677910115,True
20418,46980,0,46981,7268.0,81071.0,122724.0,0.000122,0.000122,0.000976,0.47250000000000003,-1.2075,-3.7100000000000004,0.68421875,-0.2754375,-0.5856875,0.9235,0.64990625,-0.9157500000000001,-1.54409375,0.83359375,0.025699105987176788,0.037519681041728085,True
20419,46981,0,46982,7268.0,81068.0,122724.0,-6.1e-05,0.000793,0.000366,0.45500000000000007,-1.225,-3.8150000000000004,0.6918125,-0.28284375,-0.59309375,0.9219375,0.65865625,-0.918625,-1.5424375000000001,0.8267187500000001,0.025514299043386222,0.03716731224261585,True
20420,46982,0,46983,7267.0,81069.0,122723.0,6.1e-05,0.000915,0.000183,0.4025,-1.3650000000000002,-3.7800000000000002,0.68259375,-0.27659375,-0.585,0.9394375,0.6500312500000001,-0.9146875,-1.5423125,0.8335625,0.025611148042695694,0.03747947645695745,True
20421,46983,0,46984,7267.0,81065.0,122728.0,-0.000244,0.000793,-0.00061,0.4025,-1.4700000000000002,-3.7100000000000004,0.69959375,-0.2794375,-0.58309375,0.92415625,0.65178125,-0.916,-1.54140625,0.82759375,0.025548342430566705,0.037519958400880925,True
20422,46984,0,46985,7269.0,81073.0,122728.0,0.0006709999999999999,0.000183,-0.000366,0.47250000000000003,-1.4700000000000002,-3.6925000000000003,0.6815,-0.2681875,-0.58509375,0.923875,0.6490625,-0.9154375,-1.54315625,0.8239062500000001,0.02597787014576806,0.03750760049475092,True
20423,46985,0,46986,7271.0,81070.0,122728.0,-0.000244,-0.0006709999999999999,6.1e-05,0.35000000000000003,-1.4000000000000001,-3.6925000000000003,0.6915625,-0.28159375000000003,-0.5914375000000001,0.9413125,0.6560312500000001,-0.9186875,-1.54303125,0.8328125000000001,0.02556690636294548,0.03725453493308473,True
20424,46986,0,46987,7269.0,81067.0,122727.0,-0.000244,-6.1e-05,0.0,0.29750000000000004,-1.33,-3.6400000000000006,0.7029062500000001,-0.28046875,-0.58815625,0.9210625,0.6506875,-0.91096875,-1.53459375,0.8274375,0.02531013572083583,0.03706491316314754,True
20425,46987,0,46988,7268.0,81067.0,122727.0,0.000122,-6.1e-05,0.00042699999999999997,0.28,-1.4175000000000002,-3.7100000000000004,0.68153125,-0.27721875,-0.5858125,0.92721875,0.6425625,-0.9158125,-1.5405,0.8310000000000001,0.025630059224438298,0.037379358274113664,True
20426,46988,0,46989,7270.0,81066.0,122726.0,-0.0008539999999999999,-0.001098,-0.000793,0.2625,-1.435,-3.7800000000000002,0.67734375,-0.2755625,-0.58903125,0.92640625,0.65428125,-0.91596875,-1.5423437500000001,0.83040625,0.025702643008813374,0.03732282790219672,True
20427,46989,0,46990,7271.0,81068.0,122735.0,0.000732,0.000183,0.000305,0.36750000000000005,-1.5750000000000002,-3.6925000000000003,0.68684375,-0.27509375,-0.5856250000000001,0.92453125,0.6531250000000001,-0.9165,-1.5435,0.827125,0.025742229045010334,0.037499755319357175,True
20428,46990,0,46991,7271.0,81065.0,122729.0,-0.000732,0.000793,-0.000122,0.35000000000000003,-1.6975000000000002,-3.7275000000000005,0.68159375,-0.27718750000000003,-0.586875,0.9263125,0.6499375000000001,-0.91578125,-1.54121875,0.82825,0.025630091370303712,0.03736484775222405,True
20429,46991,0,46992,7272.0,81066.0,122730.0,0.002196,0.000244,6.1e-05,0.4025,-1.5925000000000002,-3.6925000000000003,0.68846875,-0.27778125,-0.58928125,0.92215625,0.65415625,-0.91796875,-1.54140625,0.8325,0.02569180122276219,0.03727770470742973,True
20430,46992,0,46993,7272.0,81063.0,122729.0,0.002257,-0.000793,6.1e-05,0.43750000000000006,-1.5575,-3.7100000000000004,0.6930937500000001,-0.28003125,-0.58934375,0.9336875,0.6560625,-0.91834375,-1.5425,0.83215625,0.025616168811380173,0.03731648233336596,True
20431,46993,0,46994,7271.0,81069.0,122732.0,0.000305,-0.000366,-0.001586,0.385,-1.6275000000000002,-3.7275000000000005,0.69221875,-0.2798125,-0.59078125,0.9255625000000001,0.65753125,-0.9180625,-1.5406250000000001,0.82884375,0.02561394972020798,0.03718952648966108,True
20432,46994,0,46995,7274.0,81063.0,122735.0,-0.0017079999999999999,0.000732,-0.000366,0.47250000000000003,-1.3125000000000002,-3.7800000000000002,0.68240625,-0.27759375000000003,-0.58790625,0.9250625,0.6510312500000001,-0.915125,-1.5410625,0.81903125,0.025588121673080104,0.03731858257658623,True
20433,46995,0,46996,7275.0,81064.0,122739.0,-0.001098,0.001464,0.000793,0.5425000000000001,-1.2600000000000002,-3.7275000000000005,0.6896875,-0.28071875,-0.5911875,0.93603125,0.6395625,-0.9133125,-1.5445,0.843875,0.025391796052813127,0.03731967742566893,True
20434,46996,0,46997,7276.0,81064.0,122738.0,-0.001586,0.0011589999999999999,0.002806,0.42000000000000004,-1.2950000000000002,-3.6925000000000003,0.693375,-0.281375,-0.59065625,0.9266562500000001,0.66884375,-0.9213125,-1.5429375,0.8445,0.025678322520132118,0.037281587131472255,True
20435,46997,0,46998,7275.0,81067.0,122739.0,-0.001098,0.000183,0.001586,0.3325,-1.4875,-3.7800000000000002,0.6943125,-0.28078125,-0.591,0.93009375,0.66378125,-0.9231875,-1.53990625,0.84240625,0.02577544505493128,0.037153865825173105,True
20436,46998,0,46999,7273.0,81065.0,122738.0,0.00122,-0.0015249999999999999,-0.0008539999999999999,0.17500000000000002,-1.6450000000000002,-3.7625,0.69334375,-0.27518750000000003,-0.5863125,0.921875,0.65840625,-0.91034375,-1.5345312500000001,0.81653125,0.025497691094688326,0.03713476236224231,True
20437,46999,0,47000,7281.0,81062.0,122741.0,0.0011589999999999999,-0.000732,-0.0018909999999999999,0.21000000000000002,-1.6625,-3.6575,0.6870625,-0.27778125,-0.58275,0.9281875,0.63678125,-0.91121875,-1.53371875,0.8166875,0.025427800476441963,0.03724364473937037,True
20438,47000,0,47001,7281.0,81062.0,122742.0,0.0017079999999999999,-0.0015249999999999999,-0.001037,0.29750000000000004,-1.54,-3.7450000000000006,0.6875625,-0.279125,-0.5898125,0.93478125,0.639125,-0.9064375,-1.53921875,0.8305625,0.02518676145474438,0.037174443717077295,True
20439,47001,0,47002,7279.0,81064.0,122740.0,0.000488,0.001769,0.000122,0.36750000000000005,-1.4875,-3.7625,0.69465625,-0.2768125,-0.588125,0.9283125,0.658375,-0.9235,-1.5443437500000001,0.8298125000000001,0.025946897506369488,0.037433678443980385,True
20440,47002,0,47003,7278.0,81065.0,122740.0,-0.001098,0.0013419999999999999,0.0017079999999999999,0.47250000000000003,-1.3825,-3.7800000000000002,0.68746875,-0.2780625,-0.5879375,0.9284687500000001,0.6515,-0.912375,-1.5434375,0.83565625,0.025461743410654346,0.03740686820244926,True
20441,47003,0,47004,7281.0,81064.0,122742.0,-0.001037,0.001952,0.000793,0.4025,-1.1725,-3.7450000000000006,0.68834375,-0.278375,-0.58709375,0.9286875,0.65834375,-0.9198125,-1.5433125,0.8251875,0.02574006124644799,0.037435189738997246,True
20442,47004,0,47005,7280.0,81063.0,122741.0,-0.002257,0.000305,-0.001037,0.42000000000000004,-1.5050000000000001,-3.5700000000000003,0.68621875,-0.27784375,-0.58728125,0.93353125,0.63784375,-0.9108437500000001,-1.5325625,0.83178125,0.025410620625806783,0.03702257656277156,True
20443,47005,0,47006,7282.0,81064.0,122750.0,-0.001098,-0.0008539999999999999,0.001281,0.42000000000000004,-1.5050000000000001,-3.5000000000000004,0.694375,-0.2813125,-0.5871875,0.92934375,0.658625,-0.92315625,-1.5386875,0.8279062500000001,0.025752908000967977,0.03725720047281208,True
20444,47006,0,47007,7282.0,81066.0,122751.0,-0.000244,-0.000305,0.000732,0.49000000000000005,-1.54,-3.6225000000000005,0.6864375,-0.2775625,-0.58703125,0.92884375,0.63678125,-0.9124375,-1.5358125,0.8249062500000001,0.02548425861580185,0.03715492702650445,True
20445,47007,0,47008,7285.0,81064.0,122750.0,0.0008539999999999999,0.000549,-0.000305,0.385,-1.6625,-3.6750000000000003,0.6870625,-0.27753125,-0.58703125,0.9335625000000001,0.65625,-0.9175625000000001,-1.54125,0.8291875,0.02568594941820654,0.037359907991973765,True
20446,47008,0,47009,7286.0,81065.0,122748.0,0.001403,-0.0018909999999999999,0.000366,0.17500000000000002,-1.7325000000000002,-3.5700000000000003,0.6933125,-0.27934375,-0.5893125,0.9340937500000001,0.6574375,-0.91690625,-1.542875,0.8296875,0.02558754660803847,0.03733183911364715,True
20447,47009,0,47010,7285.0,81059.0,122739.0,0.001037,-0.0023179999999999997,-0.001464,0.22750000000000004,-1.5575,-3.6050000000000004,0.691375,-0.2794375,-0.58728125,0.9291875,0.65015625,-0.91128125,-1.53928125,0.8263125,0.02536375964202965,0.03727591198362327,True
20448,47010,0,47011,7282.0,81060.0,122734.0,-0.0018909999999999999,-0.001647,-0.00061,0.28,-1.4875,-3.6575,0.687,-0.27790625,-0.586875,0.92821875,0.64925,-0.91446875,-1.53865625,0.83228125,0.02554991263861486,0.037268258779277,True
20449,47011,0,47012,7285.0,81057.0,122730.0,-0.0017079999999999999,-6.1e-05,0.0006709999999999999,0.31500000000000006,-1.5575,-3.7275000000000005,0.6920625,-0.27953125,-0.584875,0.933625,0.6575625,-0.91634375,-1.5424375000000001,0.83346875,0.025558023536258204,0.03748908067211675,True
20450,47012,0,47013,7284.0,81057.0,122726.0,-0.000366,0.001464,-0.000244,0.5075000000000001,-1.61,-3.8675,0.6920000000000001,-0.2795625,-0.58896875,0.92909375,0.6568437500000001,-0.9176875,-1.5406250000000001,0.82725,0.025609318681759696,0.03726049186345284,True
20451,47013,0,47014,7282.0,81056.0,122719.0,0.0,0.0017079999999999999,0.00042699999999999997,0.5075000000000001,-1.6800000000000002,-3.9025000000000003,0.6871875000000001,-0.2729375,-0.5829375,0.9353125,0.64553125,-0.914,-1.53846875,0.83378125,0.025731014690535445,0.037415369705750275,True
20452,47014,0,47015,7282.0,81048.0,122710.0,0.001952,0.001464,-0.000732,0.31500000000000006,-1.6800000000000002,-3.9375000000000004,0.688125,-0.27809375000000003,-0.5871875,0.93453125,0.64725,-0.91471875,-1.5306875,0.8359062500000001,0.025552164822249902,0.036955526559948694,True
20453,47015,0,47016,7280.0,81047.0,122704.0,0.000122,0.001586,0.0,0.31500000000000006,-1.715,-3.9200000000000004,0.69678125,-0.27884375,-0.58440625,0.9193125,0.6585625,-0.91446875,-1.53378125,0.833375,0.025512283901297318,0.0371811362643361,True
20454,47016,0,47017,7277.0,81047.0,122695.0,0.000305,0.001647,0.001037,0.36750000000000005,-1.7675,-3.9200000000000004,0.6874375,-0.28200000000000003,-0.59503125,0.9314375,0.6576875,-0.9164375,-1.53940625,0.82753125,0.0254626087698131,0.03697717130757494,True
20455,47017,0,47018,7278.0,81045.0,122691.0,-0.000915,-0.000366,0.00183,0.28,-1.715,-3.7975000000000003,0.68325,-0.273625,-0.5834375,0.9283125,0.64084375,-0.9141875,-1.53440625,0.83328125,0.025710752156778142,0.03724264197449274,True
20456,47018,0,47019,7276.0,81039.0,122685.0,-0.0008539999999999999,-0.000183,-0.000305,0.12250000000000001,-1.8025000000000002,-3.8150000000000004,0.6991875,-0.2858125,-0.5857187500000001,0.91603125,0.6585625,-0.914875,-1.5373125,0.82725,0.025248471043904496,0.03726287760311505,True
20457,47019,0,47020,7276.0,81038.0,122683.0,0.00042699999999999997,-0.001586,-0.00183,0.08750000000000001,-2.1175,-3.5700000000000003,0.69440625,-0.28328125,-0.5885625,0.92359375,0.65725,-0.91521875,-1.5383125,0.82775,0.025363514016909845,0.037189223054577315,True
20458,47020,0,47021,7274.0,81040.0,122679.0,0.000732,-0.001586,-0.0006709999999999999,0.052500000000000005,-2.1,-3.6225000000000005,0.67784375,-0.28375,-0.584875,0.9226562500000001,0.65659375,-0.91753125,-1.53746875,0.83265625,0.02543515421496662,0.037301807760410866,True
20459,47021,0,47022,7273.0,81037.0,122677.0,-6.1e-05,-0.0011589999999999999,0.001098,0.035,-2.1350000000000002,-3.6750000000000003,0.7011875,-0.2785,-0.5845,0.94203125,0.657625,-0.9141875,-1.53628125,0.83546875,0.025515080513863836,0.03727172491100285,True
20460,47022,0,47023,7271.0,81034.0,122671.0,0.0013419999999999999,0.000732,0.000488,0.14,-2.1175,-3.6750000000000003,0.69115625,-0.27734375,-0.584125,0.9338125,0.6500312500000001,-0.91428125,-1.53746875,0.83303125,0.025565156530453798,0.03733117637197304,True
20461,47023,0,47024,7271.0,81032.0,122670.0,0.0018909999999999999,-0.000366,-0.000366,0.22750000000000004,-1.995,-3.6575,0.70425,-0.28,-0.58134375,0.92340625,0.65396875,-0.91471875,-1.53765625,0.828125,0.025475653824107488,0.03744715218335668,True
20462,47024,0,47025,7271.0,81031.0,122667.0,0.001037,-0.000183,-0.001098,0.28,-1.7500000000000002,-3.7800000000000002,0.6880625,-0.28253125,-0.59090625,0.9214375,0.6476875,-0.9165625000000001,-1.5376875,0.8283125,0.02544617661445073,0.037073883451663354,True
20463,47025,0,47026,7270.0,81033.0,122663.0,0.000488,-0.000549,0.0008539999999999999,0.31500000000000006,-1.5575,-3.7450000000000006,0.67990625,-0.28021875,-0.5879375,0.9370625,0.6420625,-0.91734375,-1.54096875,0.81959375,0.02556953928927516,0.03731382545934167,True
20464,47026,0,47027,7271.0,81030.0,122662.0,-6.1e-05,-0.000549,0.00122,0.36750000000000005,-1.5225000000000002,-3.8500000000000005,0.68715625,-0.276,-0.58209375,0.9303125,0.65025,-0.9144375,-1.5363125,0.8341875,0.025625202254716768,0.03736713160915461,True
20465,47027,0,47028,7267.0,81028.0,122664.0,-0.000915,0.0015249999999999999,0.000793,0.35000000000000003,-1.54,-3.8675,0.6979375,-0.27703125,-0.58315625,0.9306562500000001,0.6565,-0.9141875,-1.5326875,0.83515625,0.025574032867818793,0.03718884860827909,True
20466,47028,0,47029,7269.0,81027.0,122663.0,-0.001952,0.000549,-0.000122,0.43750000000000006,-1.54,-3.7100000000000004,0.6918125,-0.27771875,-0.585125,0.9196562500000001,0.656875,-0.91528125,-1.5362500000000001,0.8279062500000001,0.025589215453869302,0.037246071760732295,True
20467,47029,0,47030,7267.0,81025.0,122658.0,-0.001037,-0.000183,6.1e-05,0.36750000000000005,-1.54,-3.7100000000000004,0.68665625,-0.27965625,-0.5885312500000001,0.9362812500000001,0.6538125,-0.9170625,-1.5313125,0.82875,0.0255811153501742,0.036926470192239436,True
20468,47030,0,47031,7267.0,81026.0,122655.0,0.0,-0.00042699999999999997,-0.000366,0.36750000000000005,-1.6275000000000002,-3.6750000000000003,0.6945625,-0.2734375,-0.5827187500000001,0.9289375,0.6530312500000001,-0.91446875,-1.53040625,0.82753125,0.025729276286495174,0.037119953780602295,True
20469,47031,0,47032,7268.0,81024.0,122658.0,-0.00061,0.000549,0.0,0.35000000000000003,-1.7850000000000001,-3.7625,0.68996875,-0.27746875,-0.5871875,0.9285625000000001,0.65309375,-0.915125,-1.537625,0.82646875,0.025593138705906553,0.037217145290527213,True
20470,47032,0,47033,7267.0,81022.0,122652.0,0.001952,0.001037,0.00061,0.35000000000000003,-1.8200000000000003,-3.6750000000000003,0.68634375,-0.27690625,-0.58503125,0.935125,0.63753125,-0.9140625,-1.5394375,0.82965625,0.025574161179052993,0.03736990096199261,True
20471,47033,0,47034,7267.0,81019.0,122656.0,0.001403,0.0,0.00042699999999999997,0.43750000000000006,-1.6625,-3.6575,0.68759375,-0.2769375,-0.588,0.9322812500000001,0.6494375,-0.9143125,-1.5393125,0.82940625,0.025582684651643508,0.037248947088924185,True
20472,47034,0,47035,7264.0,81019.0,122656.0,0.000183,-0.000549,0.000305,0.29750000000000004,-1.6800000000000002,-3.6925000000000003,0.68671875,-0.27740625,-0.58821875,0.93371875,0.64484375,-0.91434375,-1.537375,0.826375,0.025565092397828056,0.03716733806822353,True
20473,47035,0,47036,7267.0,81022.0,122657.0,0.000122,-0.000976,-0.000732,0.29750000000000004,-1.5575,-3.7975000000000003,0.6879375,-0.27878125,-0.588375,0.92884375,0.64940625,-0.915875,-1.53971875,0.8200625,0.025569792351261996,0.03724957816929758,True
20474,47036,0,47037,7265.0,81021.0,122656.0,-0.000366,-0.000915,-0.000366,0.1925,-1.4525000000000001,-3.6575,0.68803125,-0.279125,-0.5865,0.92903125,0.649625,-0.916125,-1.5365625,0.81571875,0.025565773168981933,0.037204008957744415,True
20475,47037,0,47038,7265.0,81016.0,122652.0,0.000793,0.000183,-0.001098,0.24500000000000002,-1.4525000000000001,-3.6575,0.68765625,-0.2804375,-0.58928125,0.9284375,0.651,-0.9176562500000001,-1.53821875,0.8235,0.025572981006189138,0.03715754451355383,True
20476,47038,0,47039,7266.0,81013.0,122651.0,0.000793,-0.000183,6.1e-05,0.4025,-1.3475000000000001,-3.6750000000000003,0.68746875,-0.27753125,-0.58490625,0.9362812500000001,0.6500625,-0.9140312500000001,-1.53715625,0.82828125,0.02554785267839784,0.037288803446938225,True
20477,47039,0,47040,7265.0,81013.0,122647.0,-0.000122,0.000549,0.000549,0.49000000000000005,-1.1900000000000002,-3.7100000000000004,0.6945,-0.27896875,-0.5855,0.9288125,0.65509375,-0.91446875,-1.5355,0.83053125,0.025507266736321643,0.037203109396722216,True
20478,47040,0,47041,7265.0,81012.0,122646.0,-0.000915,0.000549,-0.000183,0.5075000000000001,-1.225,-3.7450000000000006,0.695125,-0.2744375,-0.58509375,0.9334687500000001,0.6565625,-0.913875,-1.5354375,0.83228125,0.02566591909126942,0.03721666213864556,True
20479,47041,0,47042,7264.0,81012.0,122644.0,-0.00061,0.000915,-0.000244,0.42000000000000004,-1.12,-3.8150000000000004,0.6920625,-0.271,-0.58440625,0.934,0.65528125,-0.914,-1.53478125,0.8319375,0.025808782210805167,0.037218842436725394,True
20480,47042,0,47043,7263.0,81009.0,122643.0,-0.000244,0.001037,0.001464,0.6125,-1.0325000000000002,-3.6400000000000006,0.69428125,-0.27696875,-0.58440625,0.93340625,0.6526875,-0.91396875,-1.53440625,0.8335312500000001,0.02556798583124176,0.03720470296817652,True
20481,47043,0,47044,7262.0,81007.0,122639.0,-0.000915,0.00061,0.000732,0.6125,-1.0850000000000002,-3.6225000000000005,0.6870937500000001,-0.27703125,-0.58621875,0.93053125,0.6441250000000001,-0.9135625,-1.5369062500000001,0.82246875,0.02554958769947092,0.03722798253997585,True
20482,47044,0,47045,7261.0,81008.0,122637.0,-0.000183,-0.000244,0.001281,0.525,-1.0675000000000001,-3.6750000000000003,0.68675,-0.27784375,-0.587375,0.928875,0.6486875,-0.91625,-1.53775,0.82725,0.02562208398133748,0.037214515765876005,True
20483,47045,0,47046,7262.0,81006.0,122631.0,-0.00042699999999999997,-0.000183,-0.000244,0.43750000000000006,-1.12,-3.5875000000000004,0.6893125,-0.2755625,-0.58625,0.92759375,0.65128125,-0.91521875,-1.53196875,0.82728125,0.025673314628232996,0.03704057290920819,True
20484,47046,0,47047,7265.0,81006.0,122632.0,-0.00042699999999999997,-0.000366,-0.000549,0.35000000000000003,-1.225,-3.5875000000000004,0.68746875,-0.27725,-0.5814375,0.93271875,0.65046875,-0.9155625000000001,-1.53903125,0.8296250000000001,0.02561902826797509,0.03749530436868078,True
20485,47047,0,47048,7263.0,81003.0,122632.0,-0.0013419999999999999,-0.001403,0.00061,0.43750000000000006,-1.2425000000000002,-3.5175000000000005,0.68765625,-0.27765625,-0.58625,0.9325625000000001,0.6424062500000001,-0.9139375000000001,-1.5381562500000001,0.825875,0.025539168587863727,0.03727388307446823,True
20486,47048,0,47049,7264.0,81005.0,122632.0,0.000793,-0.000305,0.000122,0.525,-1.155,-3.6225000000000005,0.6875625,-0.27253125,-0.58490625,0.9245625000000001,0.6519375000000001,-0.9135625,-1.5348125000000001,0.82984375,0.02573021220871162,0.037200439595943775,True
20487,47049,0,47050,7264.0,81005.0,122626.0,0.000732,0.0,-0.001037,0.45500000000000007,-1.4175000000000002,-3.6400000000000006,0.69090625,-0.27696875,-0.5845625,0.9320625,0.66540625,-0.91471875,-1.534125,0.8249062500000001,0.025597318853940506,0.037187978832249,True
20488,47050,0,47051,7264.0,81004.0,122627.0,0.000732,0.00061,-0.000122,0.45500000000000007,-1.3650000000000002,-3.6575,0.69359375,-0.27896875,-0.58559375,0.929125,0.6630625,-0.92078125,-1.52865625,0.82284375,0.025754108330773136,0.03694132941290241,True
20489,47051,0,47052,7265.0,81000.0,122630.0,0.000732,0.000244,-0.000244,0.49000000000000005,-1.2950000000000002,-3.6925000000000003,0.686125,-0.2773125,-0.58540625,0.92871875,0.64546875,-0.9116875,-1.5325312500000001,0.82346875,0.025464954953372785,0.037094833674197504,True
20490,47052,0,47053,7264.0,81001.0,122629.0,0.000305,-0.000183,-0.000366,0.42000000000000004,-1.2775,-3.6925000000000003,0.69021875,-0.27225,-0.594625,0.9537187500000001,0.6546875,-0.91671875,-1.53903125,0.82415625,0.02586491248973142,0.03697893787572699,True
20491,47053,0,47054,7265.0,81005.0,122630.0,-0.000976,0.00042699999999999997,-0.00042699999999999997,0.4025,-1.2425000000000002,-3.6925000000000003,0.68796875,-0.27590625,-0.57946875,0.91853125,0.6450625,-0.9117500000000001,-1.52925,0.83221875,0.02552384918763234,0.03720364875583889,True
20492,47054,0,47055,7265.0,81003.0,122625.0,-0.000488,-0.000122,0.0013419999999999999,0.5425000000000001,-1.12,-3.5525,0.67503125,-0.27359375,-0.5786250000000001,0.93196875,0.6574375,-0.9140312500000001,-1.53459375,0.840875,0.025705896150387143,0.037438181290822374,True
20493,47055,0,47056,7265.0,80998.0,122629.0,0.00042699999999999997,0.0,0.000732,0.5075000000000001,-1.155,-3.7450000000000006,0.69475,-0.279125,-0.5855625,0.9422812500000001,0.66509375,-0.9191875,-1.533375,0.84303125,0.0256855284707818,0.03712053341949507,True
20494,47056,0,47057,7265.0,80999.0,122628.0,-0.000915,-0.000305,0.000305,0.36750000000000005,-1.2775,-3.7450000000000006,0.71159375,-0.279125,-0.58134375,0.9123125,0.6551250000000001,-0.91278125,-1.53159375,0.82375,0.025434986308483724,0.03721859314011684,True
20495,47057,0,47058,7264.0,81002.0,122631.0,0.0,-0.00061,-0.00042699999999999997,0.47250000000000003,-1.3825,-3.7625,0.67553125,-0.281125,-0.5908125,0.95096875,0.65840625,-0.91796875,-1.5376875,0.8348125000000001,0.025557610910801064,0.03707755449666302,True
20496,47058,0,47059,7268.0,80999.0,122630.0,-0.000183,0.000122,0.000549,0.6475000000000001,-1.4000000000000001,-3.6575,0.70875,-0.277875,-0.57484375,0.91859375,0.6505,-0.9126562500000001,-1.53209375,0.8248125000000001,0.025480271699249255,0.037492029027192494,True
20497,47059,0,47060,7267.0,80994.0,122630.0,-0.000183,0.0008539999999999999,0.000976,0.49000000000000005,-1.435,-3.7800000000000002,0.6779375,-0.2836875,-0.5888125,0.92034375,0.655625,-0.91728125,-1.53259375,0.82459375,0.025427884512882002,0.036963782811920545,True
20498,47060,0,47061,7266.0,80993.0,122631.0,-0.000793,0.00122,0.000366,0.47250000000000003,-1.5225000000000002,-3.7275000000000005,0.6664375,-0.27775,-0.5829375,0.9413125,0.64925,-0.9166562500000001,-1.53646875,0.834,0.025641733127814856,0.03733998068938173,True
20499,47061,0,47062,7268.0,81002.0,122637.0,-0.00042699999999999997,0.0,-0.000549,0.43750000000000006,-1.6450000000000002,-3.6750000000000003,0.69575,-0.28121875,-0.5885312500000001,0.9481875000000001,0.655375,-0.91509375,-1.53759375,0.82925,0.025441405372998042,0.03716334864164718,True
20500,47062,0,47063,7265.0,80996.0,122630.0,-0.000732,-6.1e-05,-0.000488,0.29750000000000004,-1.6975000000000002,-3.7100000000000004,0.68959375,-0.27518750000000003,-0.57825,0.9214375,0.64953125,-0.9134375,-1.5330000000000001,0.8325312500000001,0.025618704765249675,0.03739278580660322,True
20501,47063,0,47064,7269.0,80996.0,122631.0,0.000366,-0.001098,0.00042699999999999997,0.29750000000000004,-1.7325000000000002,-3.6400000000000006,0.68234375,-0.27821875,-0.5811875,0.92640625,0.6511875,-0.916,-1.53753125,0.82746875,0.025597256782790172,0.03744855916720611,True
20502,47064,0,47065,7268.0,80997.0,122628.0,0.000305,-0.0006709999999999999,6.1e-05,0.35000000000000003,-1.8900000000000001,-3.6750000000000003,0.68290625,-0.27778125,-0.5836250000000001,0.93325,0.6506875,-0.91378125,-1.5341875,0.83053125,0.02552803982735459,0.03722705098801361,True
20503,47065,0,47066,7268.0,80998.0,122632.0,0.000915,-0.00042699999999999997,-0.000732,0.31500000000000006,-1.8900000000000001,-3.6575,0.693125,-0.2800625,-0.5836875,0.929,0.6534375,-0.91725,-1.5385,0.82703125,0.025572143795964643,0.03738718013978894,True
20504,47066,0,47067,7270.0,81001.0,122634.0,0.0021349999999999997,0.0006709999999999999,-0.000488,0.3325,-1.8375000000000001,-3.6400000000000006,0.68784375,-0.27646875,-0.58328125,0.9225,0.65090625,-0.91378125,-1.534375,0.83259375,0.025580721513319058,0.037247582915187864,True
20505,47067,0,47068,7272.0,80996.0,122634.0,0.000732,-0.000549,0.000305,0.28,-1.8550000000000002,-3.7100000000000004,0.6939062500000001,-0.2800625,-0.583875,0.9223750000000001,0.65725,-0.91725,-1.53484375,0.82759375,0.025572143795964643,0.03724200387950288,True
20506,47068,0,47069,7272.0,80998.0,122632.0,-0.000732,0.000549,0.00042699999999999997,0.3325,-1.7675,-3.6400000000000006,0.68784375,-0.27659375,-0.583375,0.9354687500000001,0.6503125,-0.9135,-1.53384375,0.8335312500000001,0.025564703875408917,0.03722388056048161,True
20507,47069,0,47070,7271.0,81000.0,122636.0,-0.000183,-0.000305,-0.0006709999999999999,0.28,-1.5925000000000002,-3.7275000000000005,0.6938125,-0.27778125,-0.5873125,0.9285,0.65859375,-0.9161875,-1.53740625,0.82809375,0.025622148252014882,0.037204003441030746,True
20508,47070,0,47071,7272.0,80998.0,122633.0,0.0008539999999999999,-0.0006709999999999999,-6.1e-05,0.31500000000000006,-1.6450000000000002,-3.7800000000000002,0.687625,-0.2770625,-0.58396875,0.9281875,0.65009375,-0.9135,-1.53375,0.82784375,0.025545888775162062,0.037197092084006456,True
20509,47071,0,47072,7270.0,81000.0,122635.0,-0.001098,0.000244,-0.000244,0.3325,-1.715,-3.7100000000000004,0.6875625,-0.2755,-0.58128125,0.9294375,0.6500625,-0.9130312500000001,-1.5339375,0.82809375,0.02559027215927408,0.037309414186511576,True
20510,47072,0,47073,7272.0,80998.0,122631.0,-0.0006709999999999999,-0.000244,-0.00061,0.35000000000000003,-1.6625,-3.6575,0.68665625,-0.27790625,-0.5856875,0.9286875,0.6534375,-0.91125,-1.5360625,0.83321875,0.025424005218525766,0.037216975013277795,True
20511,47073,0,47074,7272.0,80998.0,122635.0,0.000976,-0.000366,0.000122,0.42000000000000004,-1.6275000000000002,-3.7450000000000006,0.68359375,-0.2774375,-0.58396875,0.929,0.65515625,-0.91440625,-1.53359375,0.82721875,0.025566282559914506,0.037191200318208245,True
20512,47074,0,47075,7272.0,81001.0,122638.0,0.001098,-0.000366,-0.0013419999999999999,0.42000000000000004,-1.5575,-3.7450000000000006,0.69246875,-0.28040625,-0.58759375,0.9284375,0.6480625,-0.915125,-1.5339375,0.83340625,0.025475238434485077,0.03706219418763753,True
20513,47075,0,47076,7271.0,80995.0,122638.0,0.001281,-0.00042699999999999997,6.1e-05,0.45500000000000007,-1.435,-3.7450000000000006,0.69428125,-0.27815625,-0.58425,0.9295625000000001,0.65625,-0.916375,-1.53409375,0.8274375,0.025614430269250647,0.03719903902992445,True
20514,47076,0,47077,7275.0,81001.0,122639.0,0.0,0.000732,0.0013419999999999999,0.47250000000000003,-1.3475000000000001,-3.7450000000000006,0.68759375,-0.27728125,-0.58375,0.93278125,0.650875,-0.91315625,-1.5336875,0.831875,0.025523662823733945,0.03720330249988374,True
20515,47077,0,47078,7276.0,81001.0,122641.0,-0.001403,0.0013419999999999999,0.000366,0.525,-1.2600000000000002,-3.7275000000000005,0.69475,-0.27975,-0.5837187500000001,0.9243750000000001,0.65596875,-0.916875,-1.5342500000000001,0.8280625,0.02557002031755587,0.03722573602122639,True
20516,47078,0,47079,7274.0,80998.0,122643.0,-0.001281,0.00061,0.000732,0.5075000000000001,-1.1725,-3.8325000000000005,0.68775,-0.27503125,-0.58609375,0.93440625,0.64971875,-0.9157500000000001,-1.5342500000000001,0.83284375,0.025715410934850448,0.03713272369464543,True
20517,47079,0,47080,7275.0,80997.0,122643.0,-0.001403,0.000244,-0.000244,0.4025,-1.3475000000000001,-3.7275000000000005,0.68721875,-0.27671875,-0.57978125,0.93053125,0.64959375,-0.91359375,-1.53175,0.82740625,0.025563353339981307,0.03728568351170601,True
20518,47080,0,47081,7276.0,80994.0,122646.0,-0.00061,-6.1e-05,-0.000183,0.49000000000000005,-1.2950000000000002,-3.6225000000000005,0.6930937500000001,-0.281,-0.583875,0.93565625,0.656375,-0.91521875,-1.53565625,0.83215625,0.025455074521470934,0.03727263715809144,True
20519,47081,0,47082,7275.0,80997.0,122643.0,0.000244,-0.000488,0.000915,0.5950000000000001,-1.1900000000000002,-3.6225000000000005,0.6935625,-0.27746875,-0.58609375,0.91953125,0.65640625,-0.9164375,-1.53628125,0.8275,0.025644466629709806,0.03720931370929352,True
20520,47082,0,47083,7275.0,80998.0,122648.0,0.0006709999999999999,-0.000244,-0.000183,0.5075000000000001,-1.435,-3.6925000000000003,0.6888125,-0.2779375,-0.57953125,0.9309375,0.6502187500000001,-0.91490625,-1.53009375,0.8283125,0.02556576948789442,0.03723302034486262,True
20521,47083,0,47084,7278.0,80993.0,122641.0,6.1e-05,0.000244,0.000183,0.43750000000000006,-1.33,-3.6050000000000004,0.6845625,-0.27675,-0.58296875,0.92940625,0.65078125,-0.91396875,-1.5299375,0.82784375,0.025576766046156333,0.03709248211046345,True
20522,47084,0,47085,7276.0,80995.0,122647.0,0.000793,-0.000305,-0.00061,0.47250000000000003,-1.3650000000000002,-3.7625,0.68846875,-0.276125,-0.58325,0.9299375,0.64309375,-0.91396875,-1.53428125,0.8255,0.025601852374483695,0.03724527198117237,True
20523,47085,0,47086,7277.0,80996.0,122648.0,0.00061,0.000183,0.0006709999999999999,0.49000000000000005,-1.4000000000000001,-3.7450000000000006,0.69375,-0.27953125,-0.58534375,0.9350625,0.657125,-0.9168125,-1.539625,0.8435625,0.02557635532233507,0.03736473225429112,True
20524,47086,0,47087,7279.0,80996.0,122651.0,6.1e-05,-0.000549,0.001098,0.5075000000000001,-1.4000000000000001,-3.6750000000000003,0.690375,-0.27718750000000003,-0.58140625,0.92971875,0.66359375,-0.91646875,-1.5339375,0.82178125,0.02565697637230396,0.03730451874098932,True
20525,47087,0,47088,7280.0,80999.0,122649.0,-0.000549,-0.000183,-0.000488,0.5425000000000001,-1.4875,-3.6575,0.6875625,-0.27865625,-0.5860625,0.934,0.6443125000000001,-0.91171875,-1.535125,0.83990625,0.02541223696177126,0.03716694161473656,True
20526,47088,0,47089,7281.0,80998.0,122657.0,-0.0011589999999999999,0.001037,-0.000122,0.45500000000000007,-1.3475000000000001,-3.6575,0.693125,-0.27618750000000003,-0.58265625,0.9293750000000001,0.664625,-0.915375,-1.5323437500000001,0.8220000000000001,0.025654339940699267,0.03719546898235694,True
20527,47089,0,47090,7282.0,81001.0,122657.0,-0.00061,0.000976,0.000305,0.5075000000000001,-1.4525000000000001,-3.7625,0.6875625,-0.27178125000000003,-0.5855,0.936875,0.644875,-0.91159375,-1.5296875,0.8314375,0.025683322649720067,0.036983903543668525,True
20528,47090,0,47091,7283.0,80997.0,122654.0,-0.000122,0.001281,0.0013419999999999999,0.47250000000000003,-1.61,-3.7975000000000003,0.6943125,-0.27771875,-0.58340625,0.9292812500000001,0.6528125,-0.92178125,-1.5345,0.8221875000000001,0.025843357404479267,0.03724740057569171,True
20529,47091,0,47092,7280.0,80997.0,122655.0,0.000305,6.1e-05,0.0023179999999999997,0.31500000000000006,-1.7325000000000002,-3.7800000000000002,0.69140625,-0.27778125,-0.58540625,0.93340625,0.6366875,-0.9168125,-1.53875,0.8436875,0.025646589024980626,0.03732930350937301,True
20530,47092,0,47093,7282.0,81000.0,122659.0,0.001098,-0.000793,-0.0011589999999999999,0.10500000000000001,-1.7675,-3.6575,0.67959375,-0.2764375,-0.5825312500000001,0.93378125,0.65340625,-0.91159375,-1.53046875,0.82221875,0.02549641168582399,0.03712965513020594,True
20531,47093,0,47094,7281.0,80994.0,122661.0,0.001403,-0.00244,-0.0021349999999999997,0.12250000000000001,-1.8025000000000002,-3.5875000000000004,0.6946875,-0.27409375,-0.5861875,0.9325,0.66371875,-0.9208125,-1.5375625,0.83846875,0.02595094963296241,0.037253947004534986,True
20532,47094,0,47095,7284.0,80991.0,122663.0,0.0006709999999999999,-0.001952,-0.0018909999999999999,0.24500000000000002,-1.6625,-3.6925000000000003,0.6879375,-0.27725,-0.58003125,0.9296875,0.656375,-0.91546875,-1.53,0.822125,0.02561536194256831,0.03720990011750881,True
20533,47095,0,47096,7286.0,80998.0,122663.0,0.001403,0.00061,-0.000122,0.4025,-1.4700000000000002,-3.8150000000000004,0.687125,-0.27728125,-0.58315625,0.9352812500000001,0.6441250000000001,-0.91134375,-1.530875,0.83165625,0.025452761856734445,0.037120496261878994,True
20534,47096,0,47097,7286.0,80997.0,122663.0,-0.0006709999999999999,0.001098,0.000488,0.6300000000000001,-1.33,-3.8500000000000005,0.68784375,-0.2769375,-0.5813125,0.9288125,0.6500312500000001,-0.91325,-1.5306250000000001,0.82825,0.025541127713164684,0.037183284780533184,True
20535,47097,0,47098,7284.0,80997.0,122662.0,-0.0008539999999999999,0.002989,0.000976,0.6125,-1.2075,-3.8675,0.68846875,-0.27596875,-0.5825312500000001,0.931875,0.64390625,-0.9127500000000001,-1.53428125,0.8325,0.025560455991410026,0.03727342041397778,True
20536,47098,0,47099,7286.0,80995.0,122661.0,-0.002989,0.0011589999999999999,-6.1e-05,0.47250000000000003,-1.3475000000000001,-3.6750000000000003,0.6929062500000001,-0.27571875,-0.5828125000000001,0.93421875,0.65678125,-0.916,-1.530125,0.83459375,0.02569759391555627,0.03710567417903359,True
20537,47099,0,47100,7288.0,80997.0,122663.0,-0.0015249999999999999,0.000183,0.000305,0.4025,-1.4525000000000001,-3.6750000000000003,0.68584375,-0.27678125,-0.58465625,0.9335625000000001,0.659,-0.91553125,-1.535375,0.834,0.02563661972890905,0.03723143873939584,True
20538,47100,0,47101,7287.0,81001.0,122670.0,0.000793,-0.00061,0.000793,0.3325,-1.54,-3.6575,0.6931875000000001,-0.27771875,-0.5845625,0.932625,0.657875,-0.9175625000000001,-1.53346875,0.83134375,0.025678424605135437,0.03716323306052962,True
20539,47101,0,47102,7287.0,80996.0,122669.0,0.00042699999999999997,-0.001098,0.000915,0.29750000000000004,-1.54,-3.6050000000000004,0.69096875,-0.277125,-0.58259375,0.92925,0.658375,-0.91628125,-1.534875,0.82746875,0.02565215264617388,0.0372933585929048,True
20540,47102,0,47103,7292.0,80994.0,122669.0,0.00042699999999999997,-0.0006709999999999999,-0.000122,0.36750000000000005,-1.5750000000000002,-3.6400000000000006,0.6880625,-0.2759375,-0.584875,0.9344687500000001,0.6512187500000001,-0.91,-1.5350000000000001,0.83446875,0.025454134885588117,0.03720873311141571,True
20541,47103,0,47104,7293.0,80998.0,122663.0,-0.001098,-0.002257,-0.000549,0.14,-1.7850000000000001,-3.5175000000000005,0.69359375,-0.27275,-0.5825312500000001,0.929875,0.65765625,-0.91390625,-1.53171875,0.827375,0.025734874473969736,0.03717679601965692,True
20542,47104,0,47105,7288.0,80992.0,122659.0,-0.0006709999999999999,-0.001769,-0.000488,0.052500000000000005,-1.9250000000000003,-3.5875000000000004,0.6800625,-0.27059375,-0.5865625,0.928625,0.6513125,-0.9146875,-1.5358125,0.8335,0.025851969847103237,0.03717328359925889,True
20543,47105,0,47106,7288.0,80998.0,122654.0,0.000488,-0.001403,0.0,0.1925,-2.1350000000000002,-3.6925000000000003,0.6902812500000001,-0.273125,-0.582875,0.93034375,0.6508125,-0.9068125,-1.5315,0.81578125,0.025442336308590267,0.03715508293676439,True
20544,47106,0,47107,7289.0,80993.0,122647.0,0.0015249999999999999,-0.000732,-0.000488,0.31500000000000006,-2.1350000000000002,-3.7450000000000006,0.67640625,-0.27646875,-0.57803125,0.92696875,0.65178125,-0.9131875,-1.5315,0.827625,0.025557498413239975,0.037344799561326206,True
20545,47107,0,47108,7285.0,80985.0,122640.0,0.0023179999999999997,0.001037,0.0,0.24500000000000002,-2.1175,-3.9375000000000004,0.6853125,-0.27440625,-0.58378125,0.93859375,0.65071875,-0.91609375,-1.5345,0.8349375,0.02575393664988116,0.03723271456265053,True
20546,47108,0,47109,7288.0,80983.0,122631.0,0.001098,0.002257,-0.0013419999999999999,0.4025,-1.8900000000000001,-3.8500000000000005,0.70075,-0.281125,-0.58559375,0.92884375,0.658375,-0.91746875,-1.5321875,0.8276875,0.025538057512362686,0.03707452602719607,True
20547,47109,0,47110,7286.0,80985.0,122624.0,0.00061,0.00122,-0.001403,0.49000000000000005,-1.6275000000000002,-3.8325000000000005,0.68475,-0.27559375,-0.58021875,0.92503125,0.63803125,-0.91315625,-1.5310625,0.82803125,0.02559139811921663,0.03724262356883894,True
20548,47110,0,47111,7283.0,80982.0,122619.0,-0.001098,0.0015249999999999999,0.000732,0.43750000000000006,-1.54,-3.8850000000000002,0.684125,-0.2793125,-0.5865312500000001,0.932125,0.6556875,-0.91659375,-1.535125,0.8270625,0.025576579864573182,0.0371485845477553,True
20549,47111,0,47112,7280.0,80976.0,122614.0,-0.0023179999999999997,0.000244,0.0017079999999999999,0.3325,-1.5575,-3.8850000000000002,0.684875,-0.27525,-0.58109375,0.9425,0.650375,-0.91328125,-1.5254375,0.83221875,0.025610084982282292,0.036996182729483094,True
20550,47112,0,47113,7281.0,80976.0,122610.0,-0.003111,0.0011589999999999999,0.0006709999999999999,0.22750000000000004,-1.5575,-3.8500000000000005,0.680625,-0.2750625,-0.57896875,0.94171875,0.65109375,-0.9089375000000001,-1.5327187500000001,0.833,0.02544769322256319,0.03735403226497375,True
20551,47113,0,47114,7280.0,80977.0,122609.0,-0.000915,-0.000732,-0.000183,0.14,-1.9775000000000003,-3.8325000000000005,0.70396875,-0.27946875,-0.5824375,0.91690625,0.655375,-0.91325,-1.53140625,0.82378125,0.025439525152278403,0.03716868317819352,True
20552,47114,0,47115,7278.0,80974.0,122604.0,-0.000366,-0.000732,-0.000122,0.035,-2.1175,-3.7625,0.68284375,-0.2724375,-0.5801875,0.92509375,0.64728125,-0.9071875,-1.53190625,0.8309375,0.025484611620641636,0.03727566366103197,True
20553,47115,0,47116,7278.0,80969.0,122600.0,0.0015249999999999999,-0.0015249999999999999,-0.000488,0.07,-2.2225,-3.6925000000000003,0.6939062500000001,-0.28171875,-0.586875,0.94059375,0.65446875,-0.91490625,-1.53359375,0.82821875,0.025414002912413126,0.03707737967750818,True
20554,47116,0,47117,7272.0,80968.0,122597.0,0.0023179999999999997,-0.001403,-0.001037,0.0,-2.2925000000000004,-3.6400000000000006,0.6898125,-0.274875,-0.57825,0.9321875000000001,0.6513125,-0.9130625,-1.53115625,0.83225,0.025616581662732153,0.03732327046488543,True
20555,47117,0,47118,7271.0,80966.0,122595.0,0.003355,-0.0006709999999999999,-0.002257,0.0175,-2.31,-3.535,0.69346875,-0.27865625,-0.58546875,0.9335625000000001,0.65490625,-0.9150312500000001,-1.533125,0.82853125,0.02554181022751076,0.037114777372530786,True
20556,47118,0,47119,7273.0,80963.0,122592.0,0.002379,-0.000488,-0.0008539999999999999,0.12250000000000001,-2.0475000000000003,-3.6925000000000003,0.6860937500000001,-0.27528125000000003,-0.5815625,0.92959375,0.65084375,-0.91340625,-1.531125,0.82859375,0.025613719520990827,0.03719234855495009,True
20557,47119,0,47120,7272.0,80961.0,122590.0,0.00122,-0.0013419999999999999,-0.0011589999999999999,0.17500000000000002,-1.7675,-3.6400000000000006,0.68803125,-0.2760625,-0.58196875,0.93115625,0.65109375,-0.91309375,-1.5313125,0.8316875,0.025570138192893044,0.03718350750671357,True
20558,47120,0,47121,7271.0,80961.0,122584.0,-0.000732,-0.000976,-0.001586,0.36750000000000005,-1.5575,-3.6925000000000003,0.694875,-0.27828125,-0.5853125,0.93290625,0.655625,-0.91709375,-1.53228125,0.83340625,0.025637520427116426,0.037089077185376844,True
20559,47121,0,47122,7267.0,80960.0,122591.0,-0.0026839999999999998,-0.000244,0.001281,0.5075000000000001,-1.4525000000000001,-3.7625,0.6883125,-0.2764375,-0.58196875,0.9301875000000001,0.65196875,-0.9130625,-1.5343125,0.8241875,0.02555386356053175,0.03729662782187693,True
20560,47122,0,47123,7269.0,80962.0,122591.0,-0.001403,0.0021349999999999997,0.001464,0.7350000000000001,-1.4175000000000002,-3.9025000000000003,0.6875,-0.27525,-0.58175,0.9324375,0.64071875,-0.90096875,-1.52178125,0.81859375,0.025128289436530456,0.036832509486382344,True
20561,47123,0,47124,7269.0,80959.0,122585.0,-0.001769,0.002379,0.0006709999999999999,0.6825000000000001,-1.5050000000000001,-3.9375000000000004,0.6940000000000001,-0.27846875,-0.58003125,0.9333125,0.6466875,-0.916125,-1.53821875,0.8474375000000001,0.025592111534197232,0.0375197467521105,True
20562,47124,0,47125,7267.0,80960.0,122581.0,-0.001037,0.001098,0.000366,0.49000000000000005,-1.6625,-3.8500000000000005,0.68784375,-0.27668750000000003,-0.5820625,0.9299375,0.67384375,-0.916,-1.5305312500000001,0.81865625,0.025658713276609405,0.03715037265430973,True
20563,47125,0,47126,7268.0,80954.0,122577.0,-6.1e-05,0.0008539999999999999,0.00061,0.47250000000000003,-1.7675,-3.7450000000000006,0.67971875,-0.27515625,-0.5845625,0.93540625,0.63634375,-0.9060625,-1.52571875,0.841375,0.025331432858967568,0.036870901039760144,True
20564,47126,0,47127,7266.0,80950.0,122578.0,0.000488,0.000244,0.0,0.385,-1.995,-3.7625,0.695875,-0.27746875,-0.5835625,0.9320625,0.6715,-0.925125,-1.54059375,0.84690625,0.0259840722965281,0.03747098675025909,True
20565,47127,0,47128,7264.0,80954.0,122576.0,0.002745,-0.000488,-0.0006709999999999999,0.29750000000000004,-2.0300000000000002,-3.6750000000000003,0.67825,-0.27596875,-0.58215625,0.92740625,0.66559375,-0.91371875,-1.52896875,0.8075625000000001,0.025598346292642484,0.037087769164197044,True
20566,47128,0,47129,7268.0,80952.0,122581.0,0.002928,-0.001769,-0.001281,0.22750000000000004,-1.995,-3.6225000000000005,0.688125,-0.27378125000000003,-0.58140625,0.9292812500000001,0.64215625,-0.91015625,-1.52603125,0.81696875,0.025546808844284143,0.03700634034129375,True
20567,47129,0,47130,7263.0,80951.0,122577.0,0.002074,-0.002013,-0.005673,0.22750000000000004,-1.6625,-3.6750000000000003,0.6760625,-0.27575,-0.581875,0.9334687500000001,0.63809375,-0.9087500000000001,-1.5232812500000001,0.8328125000000001,0.025412756561449288,0.036884217228143425,True
20568,47130,0,47131,7266.0,80947.0,122576.0,0.005429,-0.0034159999999999998,0.006588,0.6300000000000001,-0.35000000000000003,-3.9375000000000004,0.69384375,-0.277,-0.58309375,0.9294687500000001,0.65115625,-0.921625,-1.5384375000000001,0.83246875,0.025866090192754286,0.03740807361452713,True
20569,47131,0,47132,7264.0,80948.0,122566.0,-0.0040869999999999995,0.0026839999999999998,-0.0008539999999999999,0.5775,-0.3325,-4.112500000000001,0.6883125,-0.27525,-0.58134375,0.9335,0.6453125000000001,-0.91021875,-1.52409375,0.8260000000000001,0.02549029201118517,0.03693568944049189,True
20570,47132,0,47133,7263.0,80946.0,122569.0,-0.003355,-0.001769,-0.002013,0.665,-1.2775,-3.3775000000000004,0.6938125,-0.277125,-0.58296875,0.93565625,0.6523125,-0.91603125,-1.52953125,0.82925,0.025642376331503437,0.03707715941709662,True
20571,47133,0,47134,7263.0,80948.0,122569.0,6.1e-05,-0.000122,-0.000549,0.49000000000000005,-1.3125000000000002,-3.7450000000000006,0.69365625,-0.27815625,-0.58184375,0.9294687500000001,0.6551250000000001,-0.91653125,-1.5280625,0.82728125,0.025620540579861014,0.037065827067761216,True
20572,47134,0,47135,7263.0,80946.0,122562.0,0.002928,0.001769,0.000732,0.56,-1.2600000000000002,-4.0075,0.6880937500000001,-0.274625,-0.5806250000000001,0.92909375,0.65171875,-0.9135,-1.5298125,0.83321875,0.025643727296445703,0.037179571922042125,True
20573,47135,0,47136,7264.0,80947.0,122565.0,0.001586,0.000732,0.000244,0.665,-1.225,-3.9025000000000003,0.68984375,-0.27768750000000003,-0.5838125000000001,0.93571875,0.64384375,-0.91596875,-1.5325312500000001,0.8339375,0.02561735633899444,0.0371572540423308,True
20574,47136,0,47137,7264.0,80946.0,122563.0,0.001647,0.00122,0.001037,0.7350000000000001,-1.2775,-3.6750000000000003,0.6782812500000001,-0.27628125,-0.580125,0.929625,0.651,-0.91253125,-1.5290937500000001,0.8314375,0.02553935582117935,0.037172050026256814,True
20575,47137,0,47138,7262.0,80942.0,122564.0,-0.002257,0.002745,0.000549,0.6300000000000001,-1.0675000000000001,-3.8325000000000005,0.68884375,-0.2724375,-0.58209375,0.93421875,0.6571875,-0.914625,-1.5319375,0.8326875,0.025775523412453528,0.03720218060223592,True
20576,47138,0,47139,7261.0,80947.0,122560.0,-0.002257,0.000183,0.0011589999999999999,0.56,-1.0850000000000002,-3.6925000000000003,0.68984375,-0.276,-0.58178125,0.92071875,0.6511250000000001,-0.9121875,-1.5270937500000001,0.8280625,0.025537199412937944,0.03703173221589317,True
20577,47139,0,47140,7260.0,80945.0,122563.0,-0.001586,0.00122,0.001037,0.4025,-1.2775,-3.7800000000000002,0.6890000000000001,-0.27575,-0.58115625,0.9298125,0.65115625,-0.9120312500000001,-1.5295625,0.82915625,0.025541122825943795,0.037149334227721285,True
20578,47140,0,47141,7265.0,80946.0,122561.0,-0.000305,-0.001037,6.1e-05,0.42000000000000004,-1.3475000000000001,-3.6575,0.6884375,-0.2755,-0.5815,0.9302812500000001,0.6453125000000001,-0.91240625,-1.529125,0.82734375,0.025565826263771692,0.037119368564335835,True
20579,47141,0,47142,7266.0,80946.0,122558.0,0.0015249999999999999,-0.0023179999999999997,-0.0011589999999999999,0.3325,-1.4700000000000002,-3.5525,0.68853125,-0.27103125,-0.5803125,0.92953125,0.65125,-0.9123125,-1.52753125,0.83128125,0.025741538446099697,0.03710577183212732,True
20580,47142,0,47143,7262.0,80945.0,122559.0,0.00061,-0.00122,-0.001647,0.22750000000000004,-1.7500000000000002,-3.6925000000000003,0.68878125,-0.27571875,-0.58134375,0.93003125,0.6569375000000001,-0.9138125,-1.5309375,0.82559375,0.025612047533873028,0.03719384570190577,True
20581,47143,0,47144,7263.0,80938.0,122558.0,0.0013419999999999999,-0.00122,-0.0008539999999999999,0.17500000000000002,-1.6800000000000002,-3.6575,0.6731875,-0.27525,-0.58034375,0.92609375,0.65159375,-0.91328125,-1.5314375,0.8339375,0.025610084982282292,0.037251868407331155,True
20582,47144,0,47145,7264.0,80942.0,122554.0,0.0015249999999999999,-0.000549,-0.000366,0.31500000000000006,-1.6275000000000002,-3.6575,0.685125,-0.27403125,-0.57825,0.9239375,0.6564375,-0.91159375,-1.52575,0.8336875,0.02559300325777029,0.03711937945016307,True
20583,47145,0,47146,7261.0,80940.0,122556.0,0.000976,0.000244,-0.000244,0.4025,-1.6275000000000002,-3.6225000000000005,0.6823125,-0.27340625,-0.57296875,0.9226562500000001,0.6578437500000001,-0.91428125,-1.5324375000000001,0.835125,0.025723198416570822,0.03757842352497681,True
20584,47146,0,47147,7263.0,80944.0,122555.0,0.000305,0.0,0.000366,0.5425000000000001,-1.3650000000000002,-3.6050000000000004,0.69640625,-0.27818750000000003,-0.58609375,0.9394687500000001,0.65890625,-0.9070312500000001,-1.530125,0.82921875,0.025247639659985572,0.03697714954392115,True
20585,47147,0,47148,7261.0,80941.0,122551.0,-0.000488,0.000549,0.00061,0.7000000000000001,-1.12,-3.6575,0.70546875,-0.28300000000000003,-0.58396875,0.93234375,0.6510625,-0.9118125,-1.5295625,0.8279062500000001,0.025241539530694523,0.0370391678274941,True
20586,47148,0,47149,7263.0,80939.0,122553.0,-0.000976,-6.1e-05,0.0006709999999999999,0.7175,-1.0850000000000002,-3.6575,0.69625,-0.278125,-0.57403125,0.9273125,0.65084375,-0.913,-1.52821875,0.82825,0.025483683217597242,0.03737775476402951,True
20587,47149,0,47150,7265.0,80940.0,122551.0,-0.000915,6.1e-05,0.000183,0.6300000000000001,-1.0675000000000001,-3.7275000000000005,0.6830625,-0.2744375,-0.5776875,0.92415625,0.65134375,-0.9125,-1.5275625,0.833,0.025612142498745608,0.03720978060478747,True
20588,47150,0,47151,7265.0,80938.0,122551.0,-0.001403,0.000244,-0.000244,0.6300000000000001,-1.0325000000000002,-3.6925000000000003,0.6900000000000001,-0.274,-0.5829375,0.9440937500000001,0.65853125,-0.9098125,-1.53096875,0.83475,0.02552457992206886,0.037132599991921575,True
20589,47151,0,47152,7265.0,80941.0,122555.0,-0.0017079999999999999,0.00061,0.000732,0.6825000000000001,-1.225,-3.7625,0.7035,-0.28440625,-0.58878125,0.9426875,0.65446875,-0.9128125,-1.52465625,0.8275,0.025224219465385535,0.03666552806171484,True
20590,47152,0,47153,7268.0,80940.0,122552.0,-0.000183,0.0008539999999999999,0.0006709999999999999,0.6125,-1.3650000000000002,-3.7800000000000002,0.7019062500000001,-0.2793125,-0.5824375,0.9247500000000001,0.65146875,-0.91325,-1.52740625,0.827625,0.025445796915296078,0.03701781296327354,True
20591,47153,0,47154,7264.0,80936.0,122549.0,0.000305,-0.00042699999999999997,-0.000244,0.5425000000000001,-1.5225000000000002,-3.8150000000000004,0.68515625,-0.2779375,-0.580875,0.92528125,0.65753125,-0.91603125,-1.52803125,0.82675,0.025609766804253784,0.037102596777806744,True
20592,47154,0,47155,7266.0,80939.0,122552.0,0.001098,0.001281,-0.0008539999999999999,0.56,-1.5750000000000002,-3.9025000000000003,0.6833750000000001,-0.2765625,-0.58040625,0.93325,0.6505,-0.914875,-1.52965625,0.83409375,0.025619735198350386,0.037182247606643744,True
20593,47155,0,47156,7268.0,80940.0,122558.0,0.000244,6.1e-05,-0.000793,0.47250000000000003,-1.6625,-3.6925000000000003,0.6930937500000001,-0.27496875,-0.58065625,0.9296875,0.65190625,-0.913,-1.52821875,0.82740625,0.025610374101874524,0.03711823802826039,True
20594,47156,0,47157,7265.0,80935.0,122553.0,-0.000183,0.000366,0.0011589999999999999,0.43750000000000006,-1.7500000000000002,-3.6400000000000006,0.68796875,-0.2755625,-0.5747187500000001,0.9301875000000001,0.65134375,-0.91228125,-1.5210937500000001,0.8281875,0.025558428134717693,0.03708207059111642,True
20595,47157,0,47158,7269.0,80938.0,122555.0,0.000549,-0.00061,-0.0006709999999999999,0.21000000000000002,-1.9600000000000002,-3.6925000000000003,0.68875,-0.27534375,-0.57921875,0.9315,0.65125,-0.9123125,-1.52778125,0.83325,0.025568431272688957,0.03715804717654418,True
20596,47158,0,47159,7267.0,80939.0,122556.0,0.0008539999999999999,-0.000793,0.000305,0.29750000000000004,-1.9775000000000003,-3.6925000000000003,0.69653125,-0.27859375000000003,-0.5826250000000001,0.9365,0.65896875,-0.9149375000000001,-1.530375,0.8318125000000001,0.025540652068663627,0.037122447280934966,True
20597,47159,0,47160,7265.0,80937.0,122560.0,0.0011589999999999999,-0.000488,-0.00042699999999999997,0.2625,-1.9600000000000002,-3.7100000000000004,0.69325,-0.2716875,-0.5799375,0.9294687500000001,0.65146875,-0.9128437500000001,-1.52478125,0.82725,0.025735972032498302,0.03701672271922017,True
20598,47160,0,47161,7268.0,80932.0,122560.0,0.002379,-0.0006709999999999999,-0.000305,0.21000000000000002,-1.8900000000000001,-3.6750000000000003,0.6880937500000001,-0.27618750000000003,-0.581125,0.93503125,0.63875,-0.91278125,-1.52978125,0.83446875,0.025552897671752325,0.03715880840146251,True
20599,47161,0,47162,7268.0,80935.0,122562.0,0.0006709999999999999,-0.000488,-0.00042699999999999997,0.3325,-1.7500000000000002,-3.7625,0.69540625,-0.27621875,-0.5801875,0.92671875,0.655375,-0.9125625,-1.52725,0.82846875,0.025543086946595718,0.03710005974008168,True
20600,47162,0,47163,7270.0,80934.0,122565.0,-0.0013419999999999999,0.001037,0.00042699999999999997,0.45500000000000007,-1.61,-3.6050000000000004,0.68871875,-0.27590625,-0.5820625,0.93715625,0.65075,-0.91540625,-1.526125,0.83628125,0.025666850204379067,0.03698416818063846,True
20601,47163,0,47164,7269.0,80933.0,122564.0,-0.001098,0.000305,0.0,0.43750000000000006,-1.5575,-3.6750000000000003,0.6805,-0.27568750000000003,-0.57875,0.9352812500000001,0.64453125,-0.91228125,-1.5285,0.83459375,0.025553410529194315,0.037203517637150636,True
20602,47164,0,47165,7269.0,80935.0,122571.0,-0.0008539999999999999,-0.000122,0.000305,0.45500000000000007,-1.4525000000000001,-3.7100000000000004,0.6940625,-0.2784375,-0.58346875,0.93584375,0.659125,-0.912375,-1.52984375,0.8341875,0.025446690650730814,0.037069361225526495,True
20603,47165,0,47166,7270.0,80937.0,122574.0,-0.0006709999999999999,0.000793,6.1e-05,0.385,-1.5050000000000001,-3.7100000000000004,0.6941875000000001,-0.27603125,-0.58159375,0.93590625,0.6600625,-0.91246875,-1.52903125,0.83346875,0.025546946245542206,0.03711216029789615,True
20604,47166,0,47167,7270.0,80940.0,122574.0,-0.00122,-0.000183,0.0,0.3325,-1.5575,-3.6225000000000005,0.6963125,-0.27915625,-0.583375,0.9345625000000001,0.6500625,-0.91559375,-1.53121875,0.8334375,0.025543742059127128,0.03712489244172882,True
20605,47167,0,47168,7268.0,80939.0,122577.0,0.000976,-0.000305,6.1e-05,0.35000000000000003,-1.6275000000000002,-3.7275000000000005,0.69575,-0.27721875,-0.5831875,0.936,0.6569375000000001,-0.91540625,-1.5309062500000001,0.83325,0.02561417195435053,0.03712045082614332,True
20606,47168,0,47169,7270.0,80937.0,122578.0,0.001281,-0.000488,-0.000183,0.29750000000000004,-1.6975000000000002,-3.7100000000000004,0.6940937500000001,-0.27884375,-0.58178125,0.92759375,0.6578437500000001,-0.9088437500000001,-1.52996875,0.83403125,0.025292221763605554,0.03714017472113044,True
20607,47169,0,47170,7270.0,80938.0,122574.0,0.0008539999999999999,0.000183,-0.000793,0.36750000000000005,-1.8375000000000001,-3.6225000000000005,0.69478125,-0.26859375,-0.5788125000000001,0.93003125,0.6570312500000001,-0.9125,-1.52921875,0.82465625,0.025846713497240336,0.037228176048278015,True
20608,47170,0,47171,7273.0,80932.0,122575.0,0.000305,-6.1e-05,0.000122,0.2625,-1.7850000000000001,-3.6575,0.68925,-0.27071875,-0.57921875,0.9217500000000001,0.64209375,-0.91234375,-1.52703125,0.8285625,0.02575530453653121,0.037129758283192454,True
20609,47171,0,47172,7273.0,80937.0,122581.0,0.001037,-0.000488,0.000183,0.31500000000000006,-1.6625,-3.5875000000000004,0.687,-0.27553125,-0.579875,0.93134375,0.65096875,-0.9128437500000001,-1.527375,0.8281875,0.025581684146355234,0.0371170165361695,True
20610,47172,0,47173,7271.0,80936.0,122581.0,0.000915,-0.00061,-0.00061,0.29750000000000004,-1.4000000000000001,-3.7800000000000002,0.6880625,-0.27575,-0.57984375,0.927125,0.6512187500000001,-0.912875,-1.526875,0.82134375,0.025574125828512363,0.03709938055480743,True
20611,47173,0,47174,7273.0,80933.0,122580.0,-0.000549,-0.000122,0.0,0.35000000000000003,-1.2775,-3.6400000000000006,0.68771875,-0.275125,-0.5800625,0.9300625,0.6521875,-0.9127500000000001,-1.52675,0.82821875,0.02559432419142809,0.037086095958161536,True
20612,47174,0,47175,7272.0,80933.0,122577.0,-0.001647,6.1e-05,-0.000366,0.43750000000000006,-1.225,-3.5525,0.688875,-0.2755625,-0.58,0.9296562500000001,0.6515,-0.9121875,-1.52675,0.828125,0.02555476109835798,0.037088544370121546,True
20613,47175,0,47176,7273.0,80935.0,122578.0,-0.00122,-0.000183,0.0,0.47250000000000003,-1.3125000000000002,-3.5875000000000004,0.69059375,-0.278125,-0.5813125,0.92921875,0.65115625,-0.91453125,-1.5285625,0.82809375,0.02554357710422507,0.03710549702906304,True
20614,47176,0,47177,7272.0,80934.0,122581.0,-0.00061,0.000244,-0.000366,0.43750000000000006,-1.2075,-3.6925000000000003,0.6890000000000001,-0.275,-0.57975,0.9304687500000001,0.641375,-0.9129375000000001,-1.51984375,0.82628125,0.0256066752465461,0.036837754933354554,True
20615,47177,0,47178,7276.0,80930.0,122577.0,0.0011589999999999999,0.000549,0.000549,0.5425000000000001,-1.155,-3.6400000000000006,0.6888125,-0.27590625,-0.58246875,0.934875,0.6471250000000001,-0.9146562500000001,-1.5274375,0.8426875,0.025637520084187397,0.037017767647066026,True
20616,47178,0,47179,7273.0,80932.0,122581.0,0.000122,0.00042699999999999997,0.000732,0.5950000000000001,-1.1725,-3.6575,0.69328125,-0.27675,-0.5809375,0.9288125,0.658,-0.91509375,-1.5267187500000001,0.82659375,0.025620764521506165,0.037050639342355744,True
20617,47179,0,47180,7276.0,80934.0,122586.0,-0.000488,0.000244,0.001281,0.5950000000000001,-1.0325000000000002,-3.7450000000000006,0.68865625,-0.2763125,-0.5740625,0.9200625,0.6465,-0.9115625,-1.524375,0.82334375,0.025500206982199534,0.03723156786405152,True
20618,47180,0,47181,7279.0,80932.0,122584.0,-0.001037,0.000305,0.000183,0.5950000000000001,-1.1725,-3.8150000000000004,0.6889375,-0.27584375,-0.5807187500000001,0.92196875,0.6458125,-0.9116562500000001,-1.5228125000000001,0.82346875,0.025522690808645054,0.03691183132736645,True
20619,47181,0,47182,7278.0,80935.0,122585.0,-0.000732,-0.000183,-0.00042699999999999997,0.525,-1.1900000000000002,-3.6400000000000006,0.676,-0.2725,-0.57134375,0.9350625,0.64540625,-0.91159375,-1.52971875,0.8426875,0.025654470621736113,0.037539583157374184,True
20620,47182,0,47183,7279.0,80934.0,122589.0,-0.000305,0.0006709999999999999,0.0008539999999999999,0.6125,-1.1375000000000002,-3.6575,0.7049375,-0.28450000000000003,-0.58534375,0.9344687500000001,0.66740625,-0.91596875,-1.5249375,0.82428125,0.02534393730928082,0.03681081491384651,True
20621,47183,0,47184,7279.0,80937.0,122590.0,-0.000793,0.001037,0.00061,0.47250000000000003,-1.2600000000000002,-3.7625,0.6825,-0.27278125000000003,-0.5739375,0.91896875,0.6461250000000001,-0.9106562500000001,-1.5228125000000001,0.8306250000000001,0.025606511269649912,0.03717752500826467,True
20622,47184,0,47185,7280.0,80937.0,122593.0,-0.000305,0.000915,0.0017079999999999999,0.5075000000000001,-1.4000000000000001,-3.7275000000000005,0.693125,-0.27953125,-0.5807187500000001,0.9401875000000001,0.6620625,-0.9181875,-1.53025,0.84221875,0.025630124582696878,0.037192399212698665,True
20623,47185,0,47186,7280.0,80937.0,122595.0,-0.000366,-0.000732,0.0023179999999999997,0.385,-1.54,-3.6750000000000003,0.70315625,-0.28846875,-0.583125,0.91534375,0.66071875,-0.9145625000000001,-1.525375,0.82353125,0.025129630512275708,0.03691424709725126,True
20624,47186,0,47187,7281.0,80936.0,122596.0,0.0030499999999999998,-0.002074,-0.001586,0.22750000000000004,-1.715,-3.7100000000000004,0.68275,-0.27428125000000003,-0.57359375,0.92025,0.6470625,-0.910625,-1.52265625,0.8299062500000001,0.02554507363825677,0.037185099023539135,True
20625,47187,0,47188,7279.0,80934.0,122591.0,0.002562,-0.0011589999999999999,-0.001769,0.29750000000000004,-1.6450000000000002,-3.6925000000000003,0.6768125,-0.2745,-0.57221875,0.92840625,0.6538437500000001,-0.9126875,-1.527625,0.83328125,0.025616967258149083,0.03742636653429373,True
20626,47188,0,47189,7281.0,80934.0,122596.0,0.002074,-0.000488,-0.0006709999999999999,0.385,-1.4175000000000002,-3.7450000000000006,0.6971875,-0.279375,-0.57825,0.9470000000000001,0.658,-0.91534375,-1.52640625,0.83446875,0.025525184656543215,0.037144133831999944,True
20627,47189,0,47190,7284.0,80931.0,122597.0,0.000793,0.000793,-6.1e-05,0.5425000000000001,-1.2075,-3.7625,0.7104375,-0.2794375,-0.57984375,0.92875,0.65184375,-0.913,-1.52521875,0.8274375,0.025430999879580942,0.0370369010059904,True
20628,47190,0,47191,7282.0,80934.0,122598.0,-0.000549,0.0032329999999999998,0.000549,0.7350000000000001,-0.8925000000000001,-3.7800000000000002,0.6880000000000001,-0.2778125,-0.57578125,0.92428125,0.65096875,-0.91240625,-1.52634375,0.82821875,0.025473001027349573,0.037238490138251784,True
20629,47191,0,47192,7285.0,80933.0,122600.0,-0.0044529999999999995,0.001952,0.0008539999999999999,0.5775,-0.9800000000000001,-3.6575,0.68459375,-0.27521875,-0.58225,0.934625,0.6510312500000001,-0.9146562500000001,-1.5286875,0.8335312500000001,0.025665114283886622,0.037073488403976895,True
20630,47192,0,47193,7285.0,80938.0,122600.0,-0.0035989999999999998,0.00061,0.000732,0.5075000000000001,-1.1375000000000002,-3.6225000000000005,0.6953125,-0.27634375,-0.5789062500000001,0.92934375,0.6445625,-0.9129375000000001,-1.518375,0.82721875,0.025552737408023444,0.03681538303281459,True
20631,47193,0,47194,7286.0,80936.0,122600.0,-0.001464,-0.000488,0.001098,0.47250000000000003,-1.3825,-3.5875000000000004,0.68884375,-0.27496875,-0.5781875,0.92984375,0.64546875,-0.9130312500000001,-1.52571875,0.82703125,0.02561159634077046,0.03712064914920368,True
20632,47194,0,47195,7286.0,80936.0,122601.0,0.0006709999999999999,-0.00042699999999999997,0.0006709999999999999,0.31500000000000006,-1.61,-3.5525,0.68525,-0.27809375000000003,-0.57759375,0.93596875,0.6511875,-0.91334375,-1.52896875,0.83521875,0.025498383772752303,0.037266487703307635,True
20633,47195,0,47196,7286.0,80936.0,122598.0,0.00244,-0.001769,0.000488,0.385,-1.7850000000000001,-3.6050000000000004,0.6961875,-0.2779375,-0.5815,0.9374375,0.658375,-0.914125,-1.5209062500000001,0.83584375,0.025535213458229015,0.03680928258572323,True
20634,47196,0,47197,7286.0,80938.0,122602.0,0.0008539999999999999,-0.002379,-0.00042699999999999997,0.21000000000000002,-1.9425000000000001,-3.5875000000000004,0.6939375,-0.277875,-0.58025,0.9369375,0.6598437500000001,-0.914875,-1.52821875,0.8289062500000001,0.025567055825084416,0.03713415179035944,True
20635,47197,0,47198,7287.0,80936.0,122596.0,0.000549,-0.000976,-0.000976,0.10500000000000001,-2.0475000000000003,-3.7100000000000004,0.69465625,-0.27534375,-0.5820625,0.93215625,0.65890625,-0.91390625,-1.5260625,0.82840625,0.025630765950241143,0.036981810257653326,True
20636,47198,0,47199,7285.0,80938.0,122594.0,6.1e-05,-0.0021349999999999997,-0.001098,0.22750000000000004,-1.9600000000000002,-3.7625,0.6888125,-0.2755625,-0.577,0.92975,0.650875,-0.9126875,-1.5259375,0.82840625,0.0255743183066861,0.03717542205844545,True
20637,47199,0,47200,7284.0,80933.0,122590.0,0.002013,-0.0013419999999999999,-0.000976,0.35000000000000003,-1.9075000000000002,-3.7625,0.68846875,-0.27571875,-0.578875,0.93015625,0.651375,-0.90934375,-1.52446875,0.8281875,0.02543724179807025,0.03704655949009712,True
20638,47200,0,47201,7282.0,80932.0,122582.0,0.001098,0.000244,-0.000305,0.42000000000000004,-1.9250000000000003,-3.8325000000000005,0.68703125,-0.2745,-0.578125,0.930125,0.65159375,-0.91296875,-1.52078125,0.8289375,0.025627967361376788,0.0369368100751226,True
20639,47201,0,47202,7281.0,80930.0,122577.0,-0.000244,0.00244,0.0011589999999999999,0.49000000000000005,-1.7325000000000002,-3.9025000000000003,0.68921875,-0.27503125,-0.57778125,0.93,0.6410625,-0.9101250000000001,-1.5205625,0.8289062500000001,0.02549540598451433,0.03694202469087427,True
20640,47202,0,47203,7281.0,80927.0,122566.0,0.000793,0.0025009999999999998,-0.000244,0.5425000000000001,-1.6625,-4.025,0.6884375,-0.27478125000000003,-0.57753125,0.930125,0.65165625,-0.91259375,-1.5240625,0.82546875,0.025602011031067365,0.03708387918263404,True
20641,47203,0,47204,7278.0,80926.0,122561.0,0.000366,0.002257,0.000305,0.49000000000000005,-1.5575,-3.9200000000000004,0.688625,-0.27459375,-0.578375,0.92984375,0.65159375,-0.913375,-1.52446875,0.8290000000000001,0.025640092921974646,0.03706614853639217,True
20642,47204,0,47205,7277.0,80925.0,122557.0,-0.0008539999999999999,0.000732,0.001281,0.47250000000000003,-1.4875,-3.9200000000000004,0.6918125,-0.276625,-0.5810625,0.93375,0.651375,-0.91371875,-1.5263125,0.83321875,0.02557200538358008,0.03703041714309499,True
20643,47205,0,47206,7273.0,80919.0,122552.0,-0.0017079999999999999,0.0006709999999999999,0.00061,0.29750000000000004,-1.5750000000000002,-3.8850000000000002,0.689125,-0.27453125,-0.57821875,0.92984375,0.65165625,-0.913125,-1.5248125000000001,0.82759375,0.02563282406362108,0.037085238138380064,True
20644,47206,0,47207,7277.0,80917.0,122549.0,-0.003172,-0.0008539999999999999,-0.000793,0.0175,-1.8375000000000001,-3.6925000000000003,0.6811875000000001,-0.2763125,-0.57925,0.9299375,0.65290625,-0.9150312500000001,-1.5255,0.82828125,0.025635879946969767,0.03707077236489001,True
20645,47207,0,47208,7276.0,80914.0,122544.0,-0.001037,-0.00122,-0.00061,0.08750000000000001,-2.0300000000000002,-3.6750000000000003,0.689125,-0.27746875,-0.58065625,0.93384375,0.640625,-0.91334375,-1.5265625,0.8316875,0.025523470730419315,0.03705576299198139,True
20646,47208,0,47209,7272.0,80913.0,122538.0,0.000549,-0.002013,-0.001037,-0.035,-2.2225,-3.5875000000000004,0.6888125,-0.273375,-0.57828125,0.9335,0.6509375000000001,-0.912125,-1.52465625,0.82896875,0.02564012503951389,0.0370768950120533,True
20647,47209,0,47210,7269.0,80909.0,122536.0,0.002623,-0.002196,0.000732,0.0175,-2.3800000000000003,-3.6400000000000006,0.6943125,-0.27784375,-0.57940625,0.9298125,0.6575,-0.9149375000000001,-1.5260625,0.8280625,0.025570754492159575,0.03708587056856105,True
20648,47210,0,47211,7270.0,80910.0,122539.0,0.004148,-0.00042699999999999997,0.000183,0.12250000000000001,-2.3275,-3.6050000000000004,0.6882812500000001,-0.274,-0.577625,0.9293750000000001,0.65146875,-0.912875,-1.5250625,0.8160000000000001,0.025644370631651304,0.03711793066128633,True
20649,47211,0,47212,7266.0,80908.0,122535.0,0.001281,0.000183,-0.001037,0.12250000000000001,-2.1175,-3.6750000000000003,0.6920000000000001,-0.27625,-0.58125,0.9364375,0.65125,-0.91209375,-1.5293125,0.83840625,0.02552349699631329,0.037136233104593006,True
20650,47212,0,47213,7270.0,80904.0,122531.0,-0.00042699999999999997,0.000305,-0.001647,0.31500000000000006,-1.9075000000000002,-3.8325000000000005,0.6960937500000001,-0.27818750000000003,-0.5816875,0.93515625,0.66421875,-0.9107500000000001,-1.5314375,0.83859375,0.025393153558202784,0.037199237214904174,True
20651,47213,0,47214,7268.0,80905.0,122533.0,-0.000183,-0.000305,-0.000183,0.29750000000000004,-1.7850000000000001,-3.9375000000000004,0.68578125,-0.275375,-0.57828125,0.92890625,0.66125,-0.91415625,-1.52640625,0.81675,0.02563928890828884,0.037142909609534244,True
20652,47214,0,47215,7267.0,80902.0,122530.0,0.001098,-0.0006709999999999999,0.00183,0.36750000000000005,-1.5225000000000002,-3.9200000000000004,0.68915625,-0.2753125,-0.57346875,0.93015625,0.6461875,-0.91078125,-1.52190625,0.822625,0.025509788056125297,0.03716170299779234,True
20653,47215,0,47216,7267.0,80902.0,122527.0,-0.00122,0.000976,0.001769,0.42000000000000004,-1.5925000000000002,-3.8150000000000004,0.6936875,-0.27728125,-0.57996875,0.935875,0.652,-0.90996875,-1.521375,0.83075,0.025398968033631116,0.03688697219487586,True
20654,47216,0,47217,7264.0,80898.0,122522.0,-0.003172,0.001952,0.000366,0.49000000000000005,-1.7500000000000002,-3.8325000000000005,0.694875,-0.27246875,-0.57609375,0.92978125,0.6530312500000001,-0.919,-1.53084375,0.82315625,0.02594531281351579,0.03739594387670796,True
20655,47217,0,47218,7266.0,80899.0,122524.0,-0.0006709999999999999,0.0008539999999999999,6.1e-05,0.45500000000000007,-1.8375000000000001,-3.7625,0.68353125,-0.27509375,-0.57675,0.9375,0.6473125000000001,-0.91109375,-1.5205312500000001,0.83134375,0.02553079388575622,0.03698125406382362,True
20656,47218,0,47219,7263.0,80899.0,122525.0,0.00061,0.000183,-0.000122,0.385,-1.7325000000000002,-3.6750000000000003,0.6963125,-0.274375,-0.578375,0.9325625000000001,0.660125,-0.915125,-1.52259375,0.8228125000000001,0.025717310268361084,0.03699540725558115,True
20657,47219,0,47220,7262.0,80895.0,122523.0,0.00122,-6.1e-05,-0.0011589999999999999,0.3325,-1.8725000000000003,-3.8500000000000005,0.69678125,-0.2788125,-0.57828125,0.93040625,0.6645,-0.9118125,-1.528125,0.825125,0.02540963247856815,0.03720773656506304,True
20658,47220,0,47221,7261.0,80900.0,122525.0,0.001403,-0.000183,0.000488,0.28,-1.8725000000000003,-3.7450000000000006,0.68834375,-0.26687500000000003,-0.58075,0.9350625,0.6443125000000001,-0.90990625,-1.51971875,0.8357187500000001,0.025814278205081562,0.036793851813120004,True
20659,47221,0,47222,7262.0,80898.0,122524.0,0.001281,0.000122,0.000183,0.28,-1.8725000000000003,-3.6400000000000006,0.69596875,-0.27740625,-0.581,0.93534375,0.6585625,-0.9205,-1.52996875,0.8415625,0.02580581248369816,0.037170776012015294,True
20660,47222,0,47223,7264.0,80898.0,122527.0,-0.000305,-0.0018909999999999999,-0.000488,0.24500000000000002,-1.8375000000000001,-3.6225000000000005,0.6975,-0.27575,-0.5745625,0.92990625,0.666625,-0.9190625,-1.52840625,0.8273125,0.025816079557567623,0.037364014841310356,True
20661,47223,0,47224,7262.0,80894.0,122522.0,-0.00042699999999999997,-0.001647,-0.001281,0.12250000000000001,-1.8200000000000003,-3.6400000000000006,0.68840625,-0.2745625,-0.5777187500000001,0.929625,0.648625,-0.91,-1.5208125000000001,0.82396875,0.025509333600963472,0.03695390771747569,True
20662,47224,0,47225,7259.0,80892.0,122521.0,-0.00042699999999999997,-0.0006709999999999999,-0.0008539999999999999,0.1925,-1.7850000000000001,-3.6925000000000003,0.69421875,-0.2775625,-0.57909375,0.92559375,0.65421875,-0.91296875,-1.52065625,0.83278125,0.025505039418475563,0.03689413355113076,True
20663,47225,0,47226,7260.0,80889.0,122516.0,6.1e-05,-0.0011589999999999999,0.000122,0.1925,-1.7850000000000001,-3.8325000000000005,0.6961875,-0.27303125,-0.5783125,0.9293125,0.65825,-0.91525,-1.52534375,0.8275625,0.025776131084376038,0.037101606124305374,True
20664,47226,0,47227,7257.0,80891.0,122512.0,0.001281,0.000305,-0.000976,0.24500000000000002,-1.8200000000000003,-3.6925000000000003,0.6880625,-0.27509375,-0.57684375,0.93621875,0.65071875,-0.91209375,-1.5224375,0.83315625,0.02556991019672925,0.03704950790848249,True
20665,47227,0,47228,7257.0,80888.0,122513.0,0.0006709999999999999,0.00042699999999999997,-0.001647,0.42000000000000004,-1.6275000000000002,-3.8150000000000004,0.69571875,-0.2763125,-0.57834375,0.92909375,0.6575,-0.91290625,-1.5238125,0.82703125,0.025552769460608398,0.03704261461723244,True
20666,47228,0,47229,7260.0,80886.0,122510.0,0.00061,6.1e-05,-0.000244,0.47250000000000003,-1.4000000000000001,-3.8150000000000004,0.6854375,-0.2729375,-0.5801875,0.9344375,0.6516875,-0.9140312500000001,-1.5266250000000001,0.8343125,0.02573223672905203,0.03707648386733461,True
20667,47229,0,47230,7258.0,80883.0,122507.0,-0.000549,0.000732,0.001098,0.5775,-1.1725,-3.7625,0.6910000000000001,-0.27021875,-0.57778125,0.9304375,0.64534375,-0.91221875,-1.5235,0.82846875,0.025770486621148503,0.0370528630477795,True
20668,47230,0,47231,7259.0,80881.0,122502.0,-0.0018909999999999999,0.001037,0.001952,0.5950000000000001,-1.225,-3.7975000000000003,0.68921875,-0.27428125000000003,-0.576375,0.9349375,0.65128125,-0.912125,-1.516,0.83240625,0.02560374717130714,0.036824933375137175,True
20669,47231,0,47232,7260.0,80880.0,122502.0,-0.00183,0.000976,-0.000549,0.47250000000000003,-1.2950000000000002,-3.8500000000000005,0.69425,-0.2764375,-0.57784375,0.92415625,0.6591875,-0.91528125,-1.5243125,0.8283125,0.025640639717843847,0.037081067315721035,True
20670,47232,0,47233,7258.0,80874.0,122500.0,-0.0017079999999999999,-0.001037,-0.000366,0.385,-1.4000000000000001,-3.5875000000000004,0.6885625,-0.27509375,-0.57728125,0.92884375,0.6511250000000001,-0.9078437500000001,-1.52259375,0.8281875,0.02540364418337095,0.037038261442373974,True
20671,47233,0,47234,7256.0,80881.0,122494.0,-0.0006709999999999999,0.000122,-0.000793,0.29750000000000004,-1.5575,-3.5175000000000005,0.69821875,-0.27865625,-0.57996875,0.9382812500000001,0.6590312500000001,-0.9155625000000001,-1.5266875,0.82696875,0.025562587639753265,0.037087410969402115,True
20672,47234,0,47235,7260.0,80879.0,122498.0,-6.1e-05,-0.000976,-0.000244,0.21000000000000002,-1.6800000000000002,-3.5700000000000003,0.68540625,-0.275375,-0.57665625,0.9243750000000001,0.64759375,-0.9126875,-1.52221875,0.83140625,0.02558184459223839,0.03704860103512748,True
20673,47235,0,47236,7257.0,80874.0,122495.0,0.0017079999999999999,-0.00122,0.0008539999999999999,0.24500000000000002,-1.715,-3.6050000000000004,0.705125,-0.27934375,-0.5767187500000001,0.92678125,0.64790625,-0.9147500000000001,-1.5230000000000001,0.82753125,0.02550321596644558,0.03707562786506289,True
20674,47236,0,47237,7259.0,80875.0,122493.0,0.001098,6.1e-05,-0.001769,0.21000000000000002,-1.7500000000000002,-3.535,0.67925,-0.27990625,-0.5806875,0.9257500000000001,0.65275,-0.91615625,-1.52521875,0.82821875,0.02553564015316367,0.03700384546165741,True
20675,47237,0,47238,7259.0,80877.0,122494.0,-0.000183,-0.00042699999999999997,-0.00042699999999999997,0.31500000000000006,-1.6800000000000002,-3.5875000000000004,0.6835625,-0.27225,-0.5784375,0.94415625,0.65175,-0.9149375000000001,-1.525375,0.8349375,0.025795268400733498,0.03709788788607415,True
20676,47238,0,47239,7260.0,80872.0,122496.0,0.00042699999999999997,-0.000488,0.000793,0.28,-1.5925000000000002,-3.6750000000000003,0.688625,-0.27234375,-0.571875,0.93075,0.65240625,-0.9128437500000001,-1.52246875,0.8325312500000001,0.02570963019827875,0.03724536835802767,True
20677,47239,0,47240,7259.0,80878.0,122497.0,0.0,0.000244,0.000122,0.3325,-1.5225000000000002,-3.7100000000000004,0.69821875,-0.27959375000000003,-0.580125,0.92528125,0.657625,-0.915375,-1.518375,0.82778125,0.025517627167963554,0.03676762333024732,True
20678,47240,0,47241,7258.0,80873.0,122497.0,0.00042699999999999997,0.000549,0.002074,0.49000000000000005,-1.4000000000000001,-3.7100000000000004,0.6836875,-0.2728125,-0.5779375,0.94425,0.65090625,-0.9137500000000001,-1.5213125,0.83275,0.025726255581757063,0.03696420393739546,True
20679,47241,0,47242,7259.0,80876.0,122495.0,0.000305,0.00061,-0.0011589999999999999,0.49000000000000005,-1.4525000000000001,-3.6050000000000004,0.7041875,-0.27484375,-0.5746875,0.9264375,0.6548125,-0.91225,-1.52246875,0.82940625,0.025586057060281588,0.03713517133799997,True
20680,47242,0,47243,7260.0,80872.0,122497.0,-0.000793,-0.000183,0.0011589999999999999,0.4025,-1.435,-3.5525,0.697625,-0.28021875,-0.579375,0.9255625000000001,0.65746875,-0.91378125,-1.52325,0.8276875,0.025430202410563433,0.03698098792277629,True
20681,47243,0,47244,7259.0,80871.0,122500.0,-0.001037,-0.001586,0.001037,0.35000000000000003,-1.4175000000000002,-3.6400000000000006,0.6834687500000001,-0.276875,-0.5824375,0.94303125,0.651,-0.91490625,-1.5233125,0.8170937500000001,0.025608414641335446,0.03686335776361317,True
20682,47244,0,47245,7259.0,80871.0,122496.0,-0.000183,-0.000366,0.000122,0.36750000000000005,-1.4000000000000001,-3.7625,0.7007187500000001,-0.27359375,-0.5747187500000001,0.92521875,0.65159375,-0.9128437500000001,-1.5223125,0.827625,0.025659455275955804,0.03712805217003749,True
20683,47245,0,47246,7257.0,80876.0,122500.0,-0.000549,-0.00122,0.000366,0.45500000000000007,-1.2950000000000002,-3.6925000000000003,0.6852812500000001,-0.2763125,-0.5781875,0.931,0.65615625,-0.913875,-1.5250000000000001,0.82659375,0.02559065982309055,0.03709353574926543,True
20684,47246,0,47247,7258.0,80875.0,122505.0,-0.0023179999999999997,0.000244,0.000305,0.4025,-1.3475000000000001,-3.7100000000000004,0.68371875,-0.274625,-0.5774375,0.93334375,0.65196875,-0.913,-1.52284375,0.83175,0.02562417211897403,0.037041571827198916,True
20685,47247,0,47248,7258.0,80875.0,122501.0,-0.0035989999999999998,0.00061,-0.001037,0.5775,-1.5050000000000001,-3.7275000000000005,0.690875,-0.27184375,-0.57646875,0.93271875,0.6453125000000001,-0.91159375,-1.5209062500000001,0.8306250000000001,0.025680813777721467,0.037006424879602394,True
20686,47248,0,47249,7259.0,80872.0,122508.0,-0.000183,0.000915,0.001281,0.6125,-1.6450000000000002,-3.7100000000000004,0.6894375,-0.2765,-0.57153125,0.9282812500000001,0.6578125,-0.91378125,-1.52303125,0.82784375,0.025579467187462762,0.03728005465651734,True
20687,47249,0,47250,7258.0,80869.0,122502.0,0.0025009999999999998,0.001403,-0.00042699999999999997,0.47250000000000003,-1.8375000000000001,-3.7275000000000005,0.68590625,-0.27165625,-0.57709375,0.93134375,0.6520312500000001,-0.9158125,-1.52634375,0.8296250000000001,0.025853311024876268,0.037187072668799274,True
20688,47250,0,47251,7256.0,80870.0,122504.0,0.0050019999999999995,0.001586,0.000732,0.49000000000000005,-1.715,-3.7625,0.6890000000000001,-0.26865625,-0.57675,0.93225,0.65165625,-0.9119375000000001,-1.51675,0.827375,0.025822208730252313,0.0368385472287811,True
20689,47251,0,47252,7260.0,80871.0,122507.0,0.002623,0.0006709999999999999,-0.001647,0.49000000000000005,-1.6450000000000002,-3.5875000000000004,0.6964375,-0.27709375,-0.57653125,0.9305625000000001,0.6530625,-0.914625,-1.53275,0.833375,0.025588635189171018,0.03745067609246948,True
20690,47252,0,47253,7260.0,80869.0,122508.0,-0.0021349999999999997,0.000183,-0.000549,0.3325,-1.5750000000000002,-3.7100000000000004,0.6840625,-0.27565625,-0.5791875,0.9255625000000001,0.64590625,-0.90915625,-1.51946875,0.83221875,0.02543241503814486,0.036845643583391596,True
20691,47253,0,47254,7255.0,80871.0,122506.0,-0.0042699999999999995,-0.002196,0.0006709999999999999,0.17500000000000002,-1.3125000000000002,-3.6225000000000005,0.6940937500000001,-0.27475,-0.57584375,0.93040625,0.6721875,-0.9210625,-1.52246875,0.8206875,0.025934387829571873,0.03708986811865525,True
20692,47254,0,47255,7260.0,80871.0,122505.0,-0.0040869999999999995,-0.001952,0.000976,0.22750000000000004,-1.3125000000000002,-3.5175000000000005,0.6890000000000001,-0.27078125000000003,-0.57784375,0.93634375,0.6394375,-0.90896875,-1.5152812500000001,0.839875,0.025620791707806047,0.036740237774176995,True
20693,47255,0,47256,7259.0,80869.0,122512.0,-0.000244,-0.0013419999999999999,0.000183,0.15750000000000003,-1.5925000000000002,-3.5525,0.69746875,-0.27425,-0.5756875,0.929625,0.6685625000000001,-0.9244375,-1.51565625,0.8172812500000001,0.026086345980726747,0.03683890160575431,True
20694,47256,0,47257,7259.0,80873.0,122513.0,0.000366,0.000244,6.1e-05,0.31500000000000006,-1.7325000000000002,-3.6750000000000003,0.69503125,-0.27728125,-0.5786250000000001,0.9294375,0.63990625,-0.91578125,-1.52734375,0.83675,0.02562632869479058,0.03716480489671002,True
20695,47257,0,47258,7260.0,80871.0,122515.0,0.00122,0.000976,-0.002623,0.36750000000000005,-1.9600000000000002,-3.6925000000000003,0.69015625,-0.2753125,-0.57809375,0.9360625,0.64109375,-0.9083125,-1.524375,0.839125,0.02541320292171539,0.037073630598202706,True
20696,47258,0,47259,7257.0,80875.0,122517.0,0.002074,-0.000244,-0.000183,0.385,-1.9250000000000003,-3.6575,0.6878125,-0.27703125,-0.5769375,0.93353125,0.66309375,-0.921875,-1.522125,0.84678125,0.025874608150470216,0.03703404399124289,True
20697,47259,0,47260,7259.0,80874.0,122514.0,0.001647,0.001586,0.0006709999999999999,0.49000000000000005,-1.8725000000000003,-3.7800000000000002,0.689375,-0.274375,-0.57715625,0.93565625,0.65375,-0.9091875,-1.50971875,0.8385,0.025485074533242,0.036557145499693126,True
20698,47260,0,47261,7259.0,80874.0,122516.0,0.000122,0.001586,0.000976,0.525,-1.8200000000000003,-3.6050000000000004,0.6973125,-0.27346875,-0.57378125,0.92990625,0.66890625,-0.92153125,-1.51853125,0.82475,0.026004120433009106,0.03702211505609282,True
20699,47261,0,47262,7260.0,80874.0,122518.0,-0.000244,-6.1e-05,-0.003294,0.4025,-1.7675,-3.7450000000000006,0.68965625,-0.27040625,-0.5750625,0.93575,0.64003125,-0.90809375,-1.51475,0.82678125,0.025601617947981267,0.03682918703886968,True
20700,47262,0,47263,7260.0,80870.0,122516.0,-0.00122,-0.000244,-0.0021349999999999997,0.43750000000000006,-1.7500000000000002,-3.6925000000000003,0.6950000000000001,-0.27718750000000003,-0.5795,0.9293750000000001,0.65375,-0.9181875,-1.5195625,0.82815625,0.025724182386861003,0.0368369363698927,True
20701,47263,0,47264,7260.0,80871.0,122521.0,-0.000793,-0.000244,0.0026839999999999998,0.35000000000000003,-1.7675,-3.6050000000000004,0.6890625,-0.27428125000000003,-0.575625,0.93184375,0.64725,-0.91153125,-1.52075,0.833,0.02558052307603532,0.03703359031376429,True
20702,47264,0,47265,7262.0,80872.0,122521.0,-0.000244,-0.0008539999999999999,0.001464,0.2625,-1.7850000000000001,-3.7100000000000004,0.6945625,-0.27646875,-0.5764375,0.932875,0.66003125,-0.913125,-1.51825,0.8333125,0.025555053811996683,0.03690740940307427,True
20703,47265,0,47266,7262.0,80873.0,122522.0,0.0023179999999999997,-0.0017079999999999999,-0.000915,0.2625,-1.6275000000000002,-3.5875000000000004,0.69540625,-0.275125,-0.57534375,0.9330625,0.65778125,-0.91253125,-1.520125,0.8328125000000001,0.025585768206512535,0.037021027522396534,True
20704,47266,0,47267,7262.0,80871.0,122524.0,0.001098,-0.002379,0.00183,0.24500000000000002,-1.2775,-3.6225000000000005,0.69415625,-0.2744375,-0.575125,0.9361875000000001,0.658875,-0.9128437500000001,-1.52,0.8336875,0.025625587203387812,0.037024882445141065,True
20705,47267,0,47268,7263.0,80866.0,122522.0,-0.000915,-0.000305,-0.00122,0.3325,-1.12,-3.6925000000000003,0.6895,-0.27409375,-0.5774375,0.934625,0.645625,-0.9123125,-1.5228125000000001,0.835125,0.025618607264981923,0.037040392785865586,True
20706,47268,0,47269,7263.0,80870.0,122527.0,-0.003355,-0.00061,0.00122,0.36750000000000005,-1.1900000000000002,-3.6400000000000006,0.689125,-0.2743125,-0.57615625,0.9306562500000001,0.651,-0.908,-1.52165625,0.82746875,0.025441123333868634,0.037046968689581024,True
20707,47269,0,47270,7264.0,80870.0,122530.0,-0.003843,0.000915,0.001037,0.47250000000000003,-1.2775,-3.5000000000000004,0.68975,-0.2770625,-0.57865625,0.92903125,0.65184375,-0.915,-1.5232812500000001,0.82775,0.025604555488661453,0.037010327580823885,True
20708,47270,0,47271,7262.0,80872.0,122533.0,0.002074,0.00061,-0.000488,0.5425000000000001,-1.5225000000000002,-3.7275000000000005,0.6819375,-0.276375,-0.5759375,0.921,0.6540625,-0.9147500000000001,-1.52046875,0.826125,0.025622372289507225,0.03701073280638703,True
20709,47271,0,47272,7266.0,80871.0,122531.0,0.003721,0.001769,0.000488,0.35000000000000003,-1.6275000000000002,-3.7100000000000004,0.6920937500000001,-0.2783125,-0.576875,0.92784375,0.6570312500000001,-0.91609375,-1.5186250000000001,0.82821875,0.025597160469826852,0.03690441785166717,True
20710,47272,0,47273,7264.0,80869.0,122538.0,0.005124,-0.000183,-0.003355,0.36750000000000005,-1.5925000000000002,-3.7975000000000003,0.70115625,-0.277125,-0.570125,0.92803125,0.660375,-0.90909375,-1.52021875,0.828375,0.025371005318087895,0.037229059801848284,True
20711,47273,0,47274,7266.0,80874.0,122539.0,0.0025009999999999998,0.000732,-0.001647,0.43750000000000006,-1.3825,-3.6925000000000003,0.68859375,-0.27340625,-0.57965625,0.9455,0.6518125,-0.91509375,-1.5209375,0.833375,0.02575497031794231,0.03688270660119755,True
20712,47274,0,47275,7267.0,80869.0,122538.0,6.1e-05,0.000732,0.001464,0.6125,-1.0675000000000001,-3.6225000000000005,0.693625,-0.2718125,-0.572125,0.937125,0.6509375000000001,-0.9083125,-1.51975,0.833375,0.025553718261724874,0.03713300482959277,True
20713,47275,0,47276,7268.0,80871.0,122542.0,-0.003721,6.1e-05,0.0015249999999999999,0.56,-0.8400000000000001,-3.4825000000000004,0.70421875,-0.28003125,-0.57509375,0.92471875,0.6575,-0.9135,-1.5105625,0.82878125,0.025426726473598654,0.036669859788469976,True
20714,47276,0,47277,7269.0,80877.0,122544.0,-0.0032329999999999998,-0.00061,0.0008539999999999999,0.6300000000000001,-0.9100000000000001,-3.7100000000000004,0.68334375,-0.27653125,-0.5801875,0.9273125,0.65746875,-0.9140625,-1.52096875,0.82809375,0.025589212919410475,0.03686306970616074,True
20715,47277,0,47278,7269.0,80876.0,122544.0,-0.002623,6.1e-05,-0.000122,0.56,-0.9625000000000001,-3.6750000000000003,0.683,-0.27368750000000003,-0.57984375,0.93465625,0.650875,-0.9081250000000001,-1.523875,0.82853125,0.025471106315710236,0.03698620409322644,True
20716,47278,0,47279,7271.0,80876.0,122546.0,0.000122,-0.000915,-0.000244,0.45500000000000007,-1.1375000000000002,-3.5875000000000004,0.68309375,-0.272625,-0.5815,0.9338125,0.652,-0.911625,-1.5234375,0.8278125000000001,0.02565067513660791,0.03690480563207836,True
20717,47279,0,47280,7268.0,80881.0,122555.0,0.000549,-0.001586,-0.00061,0.43750000000000006,-1.1725,-3.6750000000000003,0.682875,-0.27325,-0.58165625,0.93778125,0.6515,-0.9125,-1.52375,0.8247187500000001,0.025659809332664322,0.03691047553748959,True
20718,47280,0,47281,7271.0,80883.0,122553.0,0.001952,-0.00061,0.0006709999999999999,0.42000000000000004,-1.2425000000000002,-3.6750000000000003,0.686625,-0.27025,-0.5715625,0.94559375,0.65159375,-0.9125625,-1.5208125000000001,0.83546875,0.025782674905481924,0.03719513240418972,True
20719,47281,0,47282,7271.0,80883.0,122553.0,0.002928,-6.1e-05,-0.001098,0.5775,-1.0850000000000002,-3.7100000000000004,0.7028125000000001,-0.27115625,-0.5729375,0.92503125,0.6513125,-0.913125,-1.51921875,0.8293125,0.02576829482451519,0.037081121458704534,True
20720,47282,0,47283,7271.0,80881.0,122554.0,0.001281,0.000915,0.000366,0.5950000000000001,-0.8925000000000001,-3.6575,0.68853125,-0.27796875,-0.579875,0.9394687500000001,0.655625,-0.91415625,-1.5207187500000001,0.83228125,0.025535181429232626,0.036865879805990966,True
20721,47283,0,47284,7271.0,80878.0,122552.0,0.000305,0.000732,-0.000732,0.665,-0.7000000000000001,-3.5700000000000003,0.68934375,-0.27275,-0.57178125,0.92484375,0.6515,-0.90959375,-1.51859375,0.8316875,0.025566203784435464,0.03710284780092946,True
20722,47284,0,47285,7275.0,80881.0,122560.0,-0.002013,0.001769,0.0018909999999999999,0.6300000000000001,-0.6125,-3.6400000000000006,0.68990625,-0.2745625,-0.57465625,0.93359375,0.65090625,-0.91334375,-1.5234375,0.827875,0.02564012508357093,0.0371729415365779,True
20723,47285,0,47286,7276.0,80879.0,122563.0,-0.0028669999999999998,0.001281,0.000915,0.6125,-0.6825000000000001,-3.5875000000000004,0.6879375,-0.27384375,-0.574625,0.93309375,0.6521250000000001,-0.91215625,-1.5187187500000001,0.836125,0.025622531168894708,0.03699612661783813,True
20724,47286,0,47287,7277.0,80887.0,122565.0,-0.002257,0.000549,-0.0008539999999999999,0.56,-0.8575,-3.7450000000000006,0.6969062500000001,-0.27671875,-0.5771875,0.92996875,0.65778125,-0.91546875,-1.519625,0.827875,0.025636684037903163,0.03692991178357832,True
20725,47287,0,47288,7280.0,80885.0,122571.0,-0.00061,0.000122,6.1e-05,0.5075000000000001,-1.05,-3.5875000000000004,0.68971875,-0.2745,-0.5775,0.937125,0.6523125,-0.9145625000000001,-1.522,0.83078125,0.02569029658859151,0.03700728783010736,True
20726,47288,0,47289,7278.0,80887.0,122570.0,0.000793,-0.000793,0.00183,0.35000000000000003,-1.2075,-3.6050000000000004,0.68921875,-0.27328125000000003,-0.574375,0.93696875,0.65215625,-0.91259375,-1.51359375,0.8346875,0.02566222154206645,0.03681248354124946,True
20727,47289,0,47290,7278.0,80888.0,122574.0,0.001403,-0.000976,0.001586,0.24500000000000002,-1.3475000000000001,-3.6050000000000004,0.6889375,-0.2755,-0.5739062500000001,0.9342812500000001,0.65115625,-0.90959375,-1.52028125,0.83446875,0.025455804553215562,0.037083251188699186,True
20728,47290,0,47291,7277.0,80882.0,122572.0,6.1e-05,-0.0028669999999999998,-0.001586,0.052500000000000005,-1.6625,-3.5525,0.69215625,-0.27471875,-0.57509375,0.93471875,0.65346875,-0.9128437500000001,-1.5186250000000001,0.8338125000000001,0.02561429784586515,0.03697421981004071,True
20729,47291,0,47292,7280.0,80885.0,122564.0,-0.0011589999999999999,-0.0025009999999999998,-0.000976,-0.052500000000000005,-1.8550000000000002,-3.6050000000000004,0.696125,-0.27446875,-0.57465625,0.93678125,0.66015625,-0.912875,-1.5190000000000001,0.83421875,0.02562555505938195,0.03700551549825621,True
20730,47292,0,47293,7279.0,80882.0,122564.0,0.000915,-0.0013419999999999999,-0.000366,-0.0175,-2.0300000000000002,-3.7275000000000005,0.6980625,-0.274625,-0.57403125,0.9303125,0.6590625,-0.9134375,-1.5187187500000001,0.82696875,0.025641282942187323,0.037019393851817115,True
20731,47293,0,47294,7276.0,80880.0,122559.0,0.00244,-0.000244,0.00042699999999999997,0.17500000000000002,-1.9600000000000002,-3.8500000000000005,0.69646875,-0.27646875,-0.57546875,0.93,0.66009375,-0.91634375,-1.520375,0.82775,0.02568093482816876,0.037025562908068556,True
20732,47294,0,47295,7277.0,80874.0,122554.0,0.001769,0.000732,0.000732,0.31500000000000006,-1.9425000000000001,-3.8850000000000002,0.689625,-0.27621875,-0.57746875,0.9328125,0.6525,-0.91534375,-1.52303125,0.8304375,0.02565186362319404,0.03704742163021879,True
