frame_seq,absolute_seq_u64,segment_id,sample_seq,PPG_G,PPG_R,PPG_IR,ACC_X,ACC_Y,ACC_Z,GYRO_X,GYRO_Y,GYRO_Z,Uh1,Uh2,Uh3,Uh4,Uc1,Uc2,Uc3,Uc4,UD1,UD2,parser_valid
682,24064,2,24010,3715.0,38618.0,43998.0,0.000122,0.0011589999999999999,-0.001281,0.3325,-1.5750000000000002,-3.7275000000000005,0.7876875,-0.2106875,-0.5376875,0.68840625,0.743125,-0.682125,-1.372125,0.5284375,0.019100361091275567,0.03288796267557408,True
683,24065,2,24011,3715.0,38619.0,43998.0,0.000732,0.0006709999999999999,6.1e-05,0.3325,-1.61,-3.7100000000000004,0.7671875,-0.2040625,-0.5338437500000001,0.6849375,0.74521875,-0.68003125,-1.37103125,0.53075,0.01928558133409981,0.032997771818991384,True
684,24066,2,24012,3714.0,38618.0,43998.0,-0.0006709999999999999,0.000366,0.001647,0.31500000000000006,-1.5575,-3.7275000000000005,0.7711875,-0.206125,-0.5344375,0.6889375,0.7439687500000001,-0.68190625,-1.373,0.52978125,0.01927651961647006,0.033049402908603635,True
685,24067,2,24013,3713.0,38620.0,43998.0,-0.00183,-0.000305,0.0032329999999999998,0.28,-1.3650000000000002,-3.6750000000000003,0.7705,-0.2050625,-0.53971875,0.69325,0.7406875,-0.6809375,-1.37315625,0.51815625,0.019281074716063763,0.03284721426803179,True
686,24068,2,24014,3714.0,38618.0,43999.0,-0.002989,-0.001586,0.001952,0.3325,-1.1900000000000002,-3.6750000000000003,0.7781875,-0.20853125,-0.54134375,0.69571875,0.747375,-0.67978125,-1.373125,0.52978125,0.019094577671753068,0.03278197896396285,True
687,24069,2,24015,3713.0,38620.0,44000.0,-0.004758,-0.006039,-0.002623,0.43750000000000006,-1.6275000000000002,-3.6225000000000005,0.7748125,-0.20615625,-0.53471875,0.691125,0.7459375,-0.6808125,-1.37225,0.52975,0.019231791903123123,0.033009735045177305,True
688,24070,2,24016,3714.0,38619.0,43997.0,-0.0017079999999999999,-0.0057339999999999995,-0.004758,0.0175,-2.1525000000000003,-3.7800000000000002,0.77090625,-0.20553125,-0.5400625,0.690625,0.74015625,-0.6778125,-1.3682812500000001,0.518875,0.019137889551596197,0.03264780699323097,True
689,24071,2,24017,3713.0,38618.0,43996.0,0.002928,-0.005673,-0.0070149999999999995,-0.24500000000000002,-2.5725000000000002,-3.9025000000000003,0.77196875,-0.20471875,-0.540625,0.6852812500000001,0.7379687500000001,-0.67784375,-1.36946875,0.514,0.0191720559054111,0.032670914719095175,True
690,24072,2,24018,3711.0,38616.0,43992.0,0.005673,-0.003538,-0.0044529999999999995,-0.08750000000000001,-2.415,-3.8500000000000005,0.7731250000000001,-0.20671875,-0.54003125,0.6908125,0.73740625,-0.678125,-1.36503125,0.5190625,0.019102190705331135,0.03252509298603762,True
691,24073,2,24019,3713.0,38615.0,43994.0,0.0028669999999999998,0.00122,0.000549,0.28,-1.7500000000000002,-3.6575,0.77353125,-0.20696875,-0.54440625,0.69575,0.7374375,-0.67775,-1.3636875,0.52284375,0.019077154521785815,0.03230134616664079,True
692,24074,2,24020,3712.0,38619.0,43993.0,-0.002379,0.013847,0.005795,1.0150000000000001,-0.9275000000000001,-3.325,0.77828125,-0.210375,-0.5426562500000001,0.69146875,0.739125,-0.6796875,-1.36971875,0.52328125,0.019016144349477685,0.03260038111380324,True
693,24075,2,24021,3712.0,38615.0,43996.0,-6.1e-05,0.014518,0.0030499999999999998,0.9800000000000001,-1.33,-3.4125000000000005,0.77696875,-0.20625000000000002,-0.541375,0.6901875000000001,0.7385625,-0.678625,-1.37059375,0.522875,0.019141058304504403,0.03268424689508893,True
694,24076,2,24022,3713.0,38618.0,43998.0,0.005246,0.009089,0.0021349999999999997,0.5950000000000001,-1.9425000000000001,-3.4475000000000002,0.77246875,-0.20646875,-0.5407500000000001,0.6886875,0.73678125,-0.6784687500000001,-1.3710625,0.52875,0.01912598406252414,0.03272675316613169,True
695,24077,2,24023,3713.0,38615.0,43997.0,0.008845,0.0026839999999999998,-0.002196,0.07,-2.7300000000000004,-3.6925000000000003,0.77309375,-0.20634375,-0.54171875,0.6854375,0.74115625,-0.68115625,-1.3725625000000001,0.52890625,0.019237854790534782,0.03274575636575928,True
696,24078,2,24024,3710.0,38612.0,43993.0,0.010797,-0.0037819999999999998,-0.001952,-0.28,-3.0275000000000003,-4.0075,0.7735625,-0.205875,-0.5354375,0.69453125,0.74628125,-0.68178125,-1.3713125,0.53015625,0.019281681706015442,0.0329456743713988,True
697,24079,2,24025,3710.0,38613.0,43991.0,0.0013419999999999999,-0.010065,0.000244,-0.22750000000000004,-1.61,-3.9375000000000004,0.7752187500000001,-0.20915625000000002,-0.54334375,0.69640625,0.7460625,-0.6806875,-1.37178125,0.5270312500000001,0.019105272087740665,0.032651925059459505,True
698,24080,2,24026,3710.0,38611.0,43991.0,-0.008357,-0.008784,0.003721,0.17500000000000002,-0.77,-3.9200000000000004,0.77971875,-0.2090625,-0.54521875,0.69671875,0.73971875,-0.67396875,-1.3705,0.5223125,0.018841972878805725,0.032529167734179465,True
699,24081,2,24027,3710.0,38613.0,43993.0,-0.015433,-0.0075639999999999995,0.000244,0.5425000000000001,-0.5425000000000001,-3.9200000000000004,0.779,-0.20750000000000002,-0.5379375,0.6968125000000001,0.7391875,-0.679125,-1.3705625000000001,0.52271875,0.019110280449570232,0.03281854708582044,True
700,24082,2,24028,3711.0,38615.0,43995.0,-0.014274,-0.002196,-0.0046359999999999995,0.7525000000000001,-0.7000000000000001,-3.9375000000000004,0.77965625,-0.20865625000000002,-0.54115625,0.6905625,0.73828125,-0.6781875,-1.369875,0.522875,0.019026164299951125,0.03266546445341177,True
701,24083,2,24029,3711.0,38613.0,43993.0,-0.006405,0.002379,-0.00122,0.77,-0.9450000000000001,-3.9025000000000003,0.77290625,-0.20659375,-0.5395,0.690625,0.7352500000000001,-0.677625,-1.36971875,0.52309375,0.019087381788158303,0.032724791243497725,True
702,24084,2,24030,3710.0,38614.0,43993.0,-0.003111,0.002013,0.001769,0.42000000000000004,-1.61,-3.7800000000000002,0.7729375,-0.2066875,-0.54015625,0.6912812500000001,0.7339375,-0.67784375,-1.3696875,0.5235625,0.01909227786564618,0.032697732283852525,True
703,24085,2,24031,3710.0,38614.0,43998.0,0.0017079999999999999,0.002257,0.002745,0.3325,-2.0475000000000003,-3.6050000000000004,0.7721875,-0.2064375,-0.5407500000000001,0.6910937500000001,0.7375,-0.67821875,-1.3688125,0.5231250000000001,0.019117313724273555,0.03264096417599365,True
704,24086,2,24032,3708.0,38614.0,43995.0,0.0071979999999999995,0.0025009999999999998,0.0015249999999999999,0.17500000000000002,-2.415,-3.4825000000000004,0.77378125,-0.2060625,-0.540125,0.6916875,0.73121875,-0.67921875,-1.37203125,0.5293125,0.019172253983931315,0.03278831883040504,True
705,24087,2,24033,3710.0,38612.0,43992.0,0.010675,0.001647,0.0011589999999999999,0.12250000000000001,-2.6075000000000004,-3.5875000000000004,0.77684375,-0.20675000000000002,-0.5437500000000001,0.69565625,0.7433125,-0.68171875,-1.37221875,0.528625,0.01924374695340048,0.03265259369561442,True
706,24088,2,24034,3709.0,38613.0,43991.0,0.011773,0.001281,-0.0042699999999999995,-0.08750000000000001,-2.6425,-3.7800000000000002,0.7750312500000001,-0.20646875,-0.5410625,0.6904375,0.7291875,-0.678125,-1.370125,0.5229375,0.019112321134608076,0.03267869196545149,True
707,24089,2,24035,3708.0,38610.0,43988.0,0.008479,-0.000915,-0.00244,-0.052500000000000005,-2.1875,-3.7450000000000006,0.7721875,-0.20671875,-0.541375,0.6911875000000001,0.73875,-0.6785625000000001,-1.37003125,0.52384375,0.019119579999848046,0.03266279973541617,True
708,24090,2,24036,3708.0,38607.0,43987.0,0.002989,-0.0023179999999999997,-0.001098,-0.08750000000000001,-1.4525000000000001,-3.8850000000000002,0.7735625,-0.20628125,-0.54103125,0.69115625,0.7376875,-0.67803125,-1.36965625,0.51709375,0.019116192666301126,0.03266205075206725,True
709,24091,2,24037,3708.0,38605.0,43988.0,-0.0046359999999999995,-0.001281,0.00244,0.14,-0.8225000000000001,-3.9375000000000004,0.762625,-0.2058125,-0.54034375,0.68484375,0.7389375,-0.6781875,-1.3710625,0.52290625,0.019141397641135517,0.03274276550302141,True
710,24092,2,24038,3708.0,38610.0,43988.0,-0.010369999999999999,0.000366,0.003965,0.385,-0.28,-3.9725000000000006,0.768875,-0.20609375,-0.5403125,0.6912812500000001,0.7437812500000001,-0.6800625,-1.36671875,0.529375,0.019204519842686788,0.03257836609238236,True
711,24093,2,24039,3708.0,38609.0,43991.0,-0.011712,0.002623,0.0044529999999999995,0.6825000000000001,-0.385,-3.6050000000000004,0.77675,-0.2083125,-0.542625,0.69665625,0.74134375,-0.6843750000000001,-1.3746875,0.53315625,0.019285985567793394,0.03279104422468257,True
712,24094,2,24040,3708.0,38611.0,43992.0,-0.007808,0.0015249999999999999,0.0018909999999999999,0.5075000000000001,-1.2600000000000002,-3.6225000000000005,0.76846875,-0.20615625,-0.5414375,0.69071875,0.75234375,-0.68,-1.3687500000000001,0.5081875,0.01919950364667747,0.032611480660261156,True
713,24095,2,24041,3708.0,38612.0,43992.0,-0.0013419999999999999,6.1e-05,-0.001281,0.28,-2.0650000000000004,-3.7625,0.7735,-0.2064375,-0.5409375,0.689625,0.73375,-0.67621875,-1.3675,0.530125,0.0190378134818569,0.032583522223317236,True
714,24096,2,24042,3709.0,38610.0,43992.0,0.0066489999999999995,-0.0008539999999999999,-0.0021349999999999997,0.0175,-2.6950000000000003,-3.8500000000000005,0.7772187500000001,-0.211875,-0.5464375,0.7090625,0.74896875,-0.68446875,-1.3714375,0.53509375,0.019145388737604487,0.03251688044873295,True
715,24097,2,24043,3708.0,38605.0,43990.0,0.010187,-0.002745,-0.002806,-0.07,-2.8525000000000005,-3.7625,0.80540625,-0.2155,-0.5456562500000001,0.6899375,0.74565625,-0.6806875,-1.369125,0.508375,0.0188482391343434,0.03245948569373204,True
716,24098,2,24044,3710.0,38609.0,43987.0,0.005978,-0.00366,-0.001037,0.10500000000000001,-2.1700000000000004,-3.7275000000000005,0.7645625,-0.20109375000000002,-0.53596875,0.68096875,0.7224375000000001,-0.67925,-1.3723125,0.535,0.01937482905679873,0.03296285074527598,True
717,24099,2,24045,3710.0,38609.0,43988.0,0.0018909999999999999,-0.001464,0.0,0.42000000000000004,-1.8550000000000002,-3.6575,0.787,-0.21246875,-0.55009375,0.69459375,0.7518750000000001,-0.6801875000000001,-1.3694375,0.52028125,0.018951183008638007,0.03229648863913518,True
718,24100,2,24046,3709.0,38607.0,43987.0,-0.002379,0.0015249999999999999,-0.0006709999999999999,0.43750000000000006,-1.6800000000000002,-3.7100000000000004,0.77,-0.205625,-0.5378125,0.67953125,0.7336875,-0.6778125,-1.36771875,0.519625,0.019134090592510984,0.03271505247195316,True
719,24101,2,24047,3709.0,38607.0,43987.0,-0.003538,0.002013,-0.0008539999999999999,0.4025,-1.3825,-3.7625,0.76328125,-0.2059375,-0.54021875,0.687,0.726625,-0.67721875,-1.368,0.50496875,0.01909782681648433,0.03263092281614633,True
720,24102,2,24048,3707.0,38606.0,43988.0,-0.004392,0.0011589999999999999,0.00061,0.3325,-1.2425000000000002,-3.7800000000000002,0.77365625,-0.2015,-0.54034375,0.6899375,0.7340625000000001,-0.6740625,-1.3663750000000001,0.5193125000000001,0.01915219676532796,0.032564024224982877,True
721,24103,2,24049,3709.0,38607.0,43988.0,-0.00488,0.0006709999999999999,0.002806,0.47250000000000003,-1.225,-3.5175000000000005,0.77378125,-0.20953125,-0.54259375,0.683625,0.7348125,-0.67740625,-1.3684687500000001,0.51271875,0.018959650591317715,0.03255517737939938,True
722,24104,2,24050,3709.0,38607.0,43992.0,-0.001464,0.002013,0.0023179999999999997,0.43750000000000006,-1.4525000000000001,-3.5875000000000004,0.76078125,-0.203625,-0.53503125,0.6808125,0.728875,-0.67675,-1.36709375,0.52965625,0.0191729056703172,0.032800860366592056,True
723,24105,2,24051,3708.0,38607.0,43991.0,0.001769,0.002257,0.000976,0.42000000000000004,-1.7850000000000001,-3.5875000000000004,0.7555625,-0.20890625000000002,-0.5397500000000001,0.70246875,0.7421875,-0.67803125,-1.3703125,0.52840625,0.019009822754803424,0.03273757467512471,True
724,24106,2,24052,3710.0,38607.0,43990.0,0.005856,0.00061,-0.001647,0.22750000000000004,-2.0650000000000004,-3.7800000000000002,0.7915,-0.22037500000000002,-0.54359375,0.6873750000000001,0.74440625,-0.679625,-1.36915625,0.52165625,0.01860846751115546,0.03254197703165631,True
725,24107,2,24053,3708.0,38607.0,43990.0,0.007991,-0.00061,-0.0037819999999999998,0.035,-2.2925000000000004,-3.7975000000000003,0.76459375,-0.2028125,-0.534875,0.6892812500000001,0.7381875,-0.6784687500000001,-1.36940625,0.52878125,0.019274139526991522,0.032895182558716755,True
726,24108,2,24054,3709.0,38606.0,43988.0,0.0040869999999999995,-0.000549,-0.001586,0.08750000000000001,-1.5750000000000002,-3.7800000000000002,0.7694375,-0.21084375,-0.53903125,0.694875,0.74628125,-0.6794375,-1.3725,0.528,0.018987213545689607,0.03284929549709331,True
727,24109,2,24055,3711.0,38605.0,43987.0,-0.001586,-0.0011589999999999999,-0.000305,0.36750000000000005,-1.1375000000000002,-3.8325000000000005,0.7765625,-0.20746875,-0.5353125,0.68965625,0.74625,-0.6823750000000001,-1.3725625000000001,0.52953125,0.01924070313330869,0.03299824367365339,True
728,24110,2,24056,3710.0,38610.0,43990.0,-0.0060999999999999995,-6.1e-05,0.002562,0.5075000000000001,-0.7175,-3.9025000000000003,0.7712187500000001,-0.20853125,-0.53371875,0.69465625,0.74609375,-0.68190625,-1.3740937500000001,0.52671875,0.019179029172432742,0.03311940943703655,True
729,24111,2,24057,3709.0,38607.0,43988.0,-0.007991,0.000732,0.002928,0.5425000000000001,-0.47250000000000003,-3.8150000000000004,0.7808125,-0.208875,-0.543625,0.69678125,0.74603125,-0.6809375,-1.3715,0.5239375000000001,0.0191266032742881,0.032630116469266696,True
730,24112,2,24058,3710.0,38610.0,43990.0,-0.007808,0.000488,0.00122,0.45500000000000007,-0.47250000000000003,-3.7100000000000004,0.77446875,-0.2078125,-0.53815625,0.6905625,0.743,-0.68096875,-1.3728125,0.5264375,0.019170894578439106,0.032895692978458735,True
731,24113,2,24059,3709.0,38609.0,43992.0,-0.001281,-0.002257,-6.1e-05,0.31500000000000006,-1.1725,-3.7100000000000004,0.7726875,-0.20800000000000002,-0.5406875,0.69559375,0.74015625,-0.67953125,-1.36765625,0.52828125,0.01910616718054562,0.03259933601473333,True
732,24114,2,24060,3710.0,38608.0,43992.0,0.0,-0.002196,-0.001403,0.1925,-1.5225000000000002,-3.7450000000000006,0.7706875,-0.20675000000000002,-0.54059375,0.6913125,0.7459375,-0.68090625,-1.369375,0.5228125,0.019211460276099063,0.03266857185090291,True
733,24115,2,24061,3711.0,38609.0,43990.0,0.003721,-0.000976,-0.002379,0.28,-1.9075000000000002,-3.6925000000000003,0.77334375,-0.206375,-0.5435625000000001,0.6985,0.7289375,-0.67875,-1.37134375,0.52915625,0.019140961353391075,0.03262662230887948,True
734,24116,2,24062,3709.0,38610.0,43989.0,0.006039,0.002196,0.000732,0.35000000000000003,-1.9250000000000003,-3.6925000000000003,0.78025,-0.20865625000000002,-0.54240625,0.6959375,0.74628125,-0.67525,-1.372625,0.531,0.01890938288365873,0.03272104285622792,True
735,24117,2,24063,3712.0,38611.0,43988.0,0.005307,0.002013,0.000732,0.2625,-1.8900000000000001,-3.7975000000000003,0.776875,-0.20625000000000002,-0.5406875,0.6905625,0.7436875000000001,-0.67975,-1.369875,0.52315625,0.019185769709984906,0.03268394109155051,True
736,24118,2,24064,3711.0,38610.0,43990.0,0.000793,-6.1e-05,-0.000366,0.5425000000000001,-1.6800000000000002,-3.7625,0.77296875,-0.2058125,-0.54184375,0.69465625,0.73803125,-0.6785,-1.37090625,0.5230312500000001,0.019153818100775977,0.03267768568574487,True
737,24119,2,24065,3711.0,38612.0,43992.0,-0.000122,0.000915,0.00061,0.47250000000000003,-1.4175000000000002,-3.8325000000000005,0.7818125,-0.2103125,-0.540375,0.69153125,0.74465625,-0.681875,-1.37153125,0.5238125,0.019105619001797875,0.03275940430280494,True
738,24120,2,24066,3711.0,38609.0,43992.0,-0.001403,0.002196,0.000732,0.45500000000000007,-1.2600000000000002,-3.7800000000000002,0.77315625,-0.21003125,-0.54415625,0.696625,0.72940625,-0.67878125,-1.37309375,0.53059375,0.01899404979733349,0.03266994195376746,True
739,24121,2,24067,3711.0,38611.0,43991.0,-0.001037,0.001037,0.000366,0.49000000000000005,-1.1900000000000002,-3.7450000000000006,0.77340625,-0.20665625,-0.5413125,0.69353125,0.74246875,-0.67915625,-1.36965625,0.52290625,0.019145711272037513,0.03265096467359506,True
740,24122,2,24068,3713.0,38609.0,43992.0,-0.001403,6.1e-05,-0.0011589999999999999,0.35000000000000003,-1.1025,-3.5175000000000005,0.7800625,-0.21053125,-0.54253125,0.6959375,0.74140625,-0.6815,-1.3730625,0.528875,0.019081852804732288,0.03273279486857371,True
741,24123,2,24069,3712.0,38608.0,43992.0,-0.0023179999999999997,-0.001098,-0.000549,0.2625,-0.9450000000000001,-3.5175000000000005,0.76496875,-0.20646875,-0.54028125,0.6910625,0.732,-0.67990625,-1.37184375,0.51490625,0.019183115819169698,0.03277501265551503,True
742,24124,2,24070,3713.0,38609.0,43992.0,-0.00122,0.000976,0.0018909999999999999,0.2625,-0.8750000000000001,-3.6400000000000006,0.76934375,-0.20615625,-0.54071875,0.6909375,0.7381562500000001,-0.6785,-1.36534375,0.5183125000000001,0.019139888972182263,0.032509908327183624,True
743,24125,2,24071,3713.0,38611.0,43990.0,-0.000305,0.00122,0.003355,0.28,-0.9100000000000001,-3.8850000000000002,0.7729375,-0.2065625,-0.54078125,0.690875,0.7358125,-0.67875,-1.36678125,0.52284375,0.01913336372385149,0.03256227078474925,True
744,24126,2,24072,3712.0,38609.0,43992.0,-0.002623,-0.001647,0.0008539999999999999,0.052500000000000005,-0.9100000000000001,-3.9725000000000006,0.77365625,-0.2066875,-0.54409375,0.69921875,0.7385,-0.6772812500000001,-1.37096875,0.52853125,0.019069918814496635,0.03259138459188714,True
745,24127,2,24073,3714.0,38610.0,43991.0,-0.002562,-0.0046359999999999995,-0.001281,-0.07,-0.8925000000000001,-4.095000000000001,0.77934375,-0.20625000000000002,-0.54340625,0.6965,0.74334375,-0.680125,-1.37303125,0.526875,0.019200672605993688,0.03269711812616003,True
746,24128,2,24074,3714.0,38608.0,43993.0,0.001952,-0.0017079999999999999,-0.003721,0.28,-1.6450000000000002,-3.7450000000000006,0.7750625,-0.199625,-0.53678125,0.69096875,0.7421875,-0.67425,-1.36978125,0.52309375,0.019235640394338227,0.03283433908205259,True
747,24129,2,24075,3714.0,38610.0,43991.0,0.0042699999999999995,0.000244,-0.00244,0.31500000000000006,-1.8725000000000003,-3.7625,0.773875,-0.20340625,-0.53659375,0.6906875,0.7385625,-0.67865625,-1.369875,0.523375,0.019257531495459765,0.03284530373129548,True
748,24130,2,24076,3714.0,38608.0,43991.0,0.005795,0.001586,0.0011589999999999999,0.28,-1.8025000000000002,-3.7800000000000002,0.77334375,-0.20971875,-0.5415,0.69896875,0.738,-0.68009375,-1.3725625000000001,0.5284375,0.019058882221628513,0.03275437788358981,True
749,24131,2,24077,3713.0,38608.0,43993.0,0.0034159999999999998,0.000976,0.002257,0.35000000000000003,-1.61,-3.8675,0.77678125,-0.2060625,-0.54025,0.69090625,0.74409375,-0.6795,-1.36984375,0.51478125,0.019183431593022545,0.03269999445700173,True
750,24132,2,24078,3716.0,38608.0,43990.0,-0.000732,0.00183,0.0021349999999999997,0.5425000000000001,-1.435,-3.7975000000000003,0.77253125,-0.20728125,-0.5436562500000001,0.69765625,0.73884375,-0.6746562500000001,-1.3720625,0.5288437500000001,0.018941499944908048,0.032650331442309825,True
751,24133,2,24079,3713.0,38608.0,43993.0,-0.002196,0.005612,-0.002379,0.77,-1.3125000000000002,-3.535,0.77834375,-0.20796875,-0.5415,0.69715625,0.74853125,-0.68234375,-1.37321875,0.528125,0.019219204010964313,0.03277939461267601,True
752,24134,2,24080,3716.0,38609.0,43993.0,-0.001769,0.0048189999999999995,-0.0026839999999999998,0.665,-1.0850000000000002,-3.8500000000000005,0.779,-0.2101875,-0.54,0.69796875,0.7456875000000001,-0.6860937500000001,-1.37709375,0.536,0.019278313321644907,0.03298619448887838,True
753,24135,2,24081,3713.0,38610.0,43996.0,0.000122,0.001403,0.000183,0.36750000000000005,-1.155,-3.8850000000000002,0.77965625,-0.210125,-0.54353125,0.69796875,0.75990625,-0.685875,-1.361125,0.535,0.019272154622835935,0.03223807106348791,True
754,24136,2,24082,3716.0,38610.0,43997.0,-0.000305,-0.0030499999999999998,0.001952,0.15750000000000003,-1.2075,-3.7800000000000002,0.7791250000000001,-0.20840625000000002,-0.53778125,0.6965,0.74040625,-0.68159375,-1.371875,0.52815625,0.019171675248888655,0.03287473826825964,True
755,24137,2,24083,3717.0,38611.0,43994.0,-0.001586,-0.0066489999999999995,0.001647,-0.0175,-1.33,-3.6925000000000003,0.7790312500000001,-0.2089375,-0.5436875,0.6880937500000001,0.7276875,-0.6764375,-1.36659375,0.5175625,0.018945198228066756,0.03244054988660037,True
756,24138,2,24084,3716.0,38607.0,43989.0,-0.000915,-0.0032329999999999998,-0.000915,0.1925,-1.3475000000000001,-3.9375000000000004,0.7735,-0.20609375,-0.5403125,0.69065625,0.7321875,-0.67703125,-1.3665,0.5166875,0.019084041967163293,0.03257002345613309,True
757,24139,2,24085,3715.0,38610.0,43989.0,0.0,-0.001769,-0.0011589999999999999,0.31500000000000006,-1.3825,-3.9200000000000004,0.7728125,-0.2031875,-0.54359375,0.69865625,0.73175,-0.679625,-1.377125,0.530625,0.01930489219345918,0.0328457715363738,True
758,24140,2,24086,3715.0,38609.0,43989.0,0.000183,0.0,-0.001281,0.36750000000000005,-1.4175000000000002,-3.7625,0.77875,-0.208875,-0.5425625000000001,0.691125,0.754625,-0.6803750000000001,-1.37021875,0.51934375,0.019104247808228197,0.032623142045237585,True
759,24141,2,24087,3713.0,38608.0,43987.0,0.000122,0.000244,-0.000244,0.42000000000000004,-1.5050000000000001,-3.6925000000000003,0.77340625,-0.2065625,-0.541,0.6948125,0.7309687500000001,-0.67353125,-1.36921875,0.52678125,0.018925898578056193,0.03264660051859105,True
760,24142,2,24088,3713.0,38609.0,43987.0,0.000244,0.001464,-0.0015249999999999999,0.4025,-1.715,-3.7975000000000003,0.7712187500000001,-0.20815625000000001,-0.54328125,0.6930625,0.754,-0.68640625,-1.373,0.5216875,0.01937301019665428,0.03270085326922319,True
761,24143,2,24089,3713.0,38607.0,43986.0,0.000793,0.0035989999999999998,0.000305,0.525,-1.6275000000000002,-3.99,0.7750625,-0.20590625,-0.539125,0.69115625,0.732,-0.67215625,-1.36565625,0.5159375,0.018897821304126997,0.03258465863661619,True
762,24144,2,24090,3713.0,38608.0,43982.0,0.000488,0.002257,0.000366,0.45500000000000007,-1.5050000000000001,-3.9025000000000003,0.77340625,-0.2064375,-0.54046875,0.69090625,0.73175,-0.67571875,-1.3665625000000001,0.517625,0.019017936407627438,0.032566247397533665,True
763,24145,2,24091,3713.0,38608.0,43985.0,0.000732,0.001403,0.000976,0.35000000000000003,-1.435,-3.8500000000000005,0.7661875,-0.2066875,-0.5405625000000001,0.69371875,0.7306875,-0.67575,-1.37021875,0.51665625,0.019009047344052357,0.03270197463315132,True
764,24146,2,24092,3710.0,38606.0,43982.0,0.000549,0.0008539999999999999,0.002013,0.3325,-1.4525000000000001,-3.7975000000000003,0.77953125,-0.2096875,-0.54253125,0.69603125,0.75096875,-0.6843750000000001,-1.37359375,0.5294375,0.01923028231421699,0.03275304665898972,True
765,24147,2,24093,3711.0,38605.0,43980.0,-6.1e-05,0.000366,-0.0008539999999999999,0.21000000000000002,-1.4525000000000001,-3.8150000000000004,0.779625,-0.20753125,-0.5427500000000001,0.690875,0.7435,-0.68096875,-1.370625,0.52875,0.01918228999824004,0.03263124183972606,True
766,24148,2,24094,3709.0,38604.0,43978.0,0.0015249999999999999,-0.000305,6.1e-05,0.21000000000000002,-1.6450000000000002,-3.9375000000000004,0.77834375,-0.20671875,-0.5420625,0.6966875,0.74646875,-0.68221875,-1.37334375,0.53025,0.019264880714988396,0.032761990622540635,True
767,24149,2,24095,3708.0,38603.0,43976.0,0.001647,-0.000549,0.00061,0.28,-1.6800000000000002,-3.9025000000000003,0.77796875,-0.210125,-0.54203125,0.6948125,0.744,-0.6816875,-1.37296875,0.53078125,0.019105764141937216,0.03274892694612254,True
768,24150,2,24096,3707.0,38602.0,43977.0,6.1e-05,-0.001952,-0.0011589999999999999,0.28,-1.6275000000000002,-3.7975000000000003,0.7731250000000001,-0.2066875,-0.5404375,0.691125,0.7427812500000001,-0.67821875,-1.36925,0.52334375,0.019107183333481065,0.032669964622525305,True
769,24151,2,24097,3707.0,38604.0,43973.0,-0.000244,-0.000793,-0.000366,0.31500000000000006,-1.435,-3.8850000000000002,0.7734375,-0.20590625,-0.5429375,0.69634375,0.73725,-0.67390625,-1.373375,0.528375,0.01896740610336071,0.03272869691162489,True
770,24152,2,24098,3705.0,38603.0,43974.0,-0.0025009999999999998,-0.001037,0.000366,0.47250000000000003,-1.2775,-3.9375000000000004,0.77946875,-0.20984375,-0.5431875,0.696125,0.74390625,-0.68025,-1.37103125,0.5185,0.019060027754986275,0.032629487616905595,True
771,24153,2,24099,3705.0,38602.0,43971.0,-0.003172,-0.000793,0.001037,0.385,-1.2600000000000002,-3.8675,0.7753125000000001,-0.2063125,-0.5400625,0.6910000000000001,0.7464375,-0.67909375,-1.36940625,0.523,0.019157156044273305,0.03269070398523812,True
772,24154,2,24100,3704.0,38600.0,43972.0,-0.001464,0.000183,0.000183,0.36750000000000005,-1.2950000000000002,-3.8675,0.77265625,-0.20665625,-0.535375,0.69525,0.72765625,-0.67871875,-1.3701875000000001,0.52296875,0.01912832285914357,0.032905255430217065,True
773,24155,2,24101,3702.0,38601.0,43969.0,0.000122,-0.00061,-0.001037,0.22750000000000004,-1.3650000000000002,-3.8675,0.7784375,-0.20690625,-0.54059375,0.69103125,0.74625,-0.6764375,-1.3688437500000001,0.523,0.019027513594699397,0.03264831492369455,True
774,24156,2,24102,3702.0,38599.0,43966.0,0.001037,-0.00061,-0.0015249999999999999,0.28,-1.5750000000000002,-3.7800000000000002,0.772875,-0.206125,-0.5369375,0.6905625,0.73665625,-0.67840625,-1.36921875,0.523625,0.019137429103631844,0.0328067355247193,True
775,24157,2,24103,3701.0,38600.0,43966.0,0.00061,0.00244,-0.00061,0.43750000000000006,-1.8375000000000001,-4.077500000000001,0.7725625,-0.20675000000000002,-0.54090625,0.69146875,0.7385,-0.6782812500000001,-1.36365625,0.52228125,0.019107134942795097,0.03243814660987609,True
776,24158,2,24104,3699.0,38596.0,43964.0,0.002257,0.003355,0.0006709999999999999,0.29750000000000004,-1.7500000000000002,-3.9725000000000006,0.77378125,-0.20171875,-0.5407500000000001,0.6872812500000001,0.72740625,-0.6785,-1.3683750000000001,0.51765625,0.019319701359482952,0.032624281216278146,True
777,24159,2,24105,3698.0,38597.0,43963.0,0.002257,0.000122,0.000183,0.21000000000000002,-1.7675,-3.8150000000000004,0.7711875,-0.2051875,-0.53834375,0.690875,0.738375,-0.6785625000000001,-1.3723750000000001,0.53125,0.01918162777917069,0.03287162711413496,True
778,24160,2,24106,3697.0,38597.0,43962.0,0.00042699999999999997,-0.001098,-0.000732,0.12250000000000001,-1.6450000000000002,-3.9025000000000003,0.7815,-0.21171875,-0.543875,0.70328125,0.74425,-0.6798125,-1.37278125,0.52590625,0.018966665569278535,0.03266911269335127,True
779,24161,2,24107,3696.0,38596.0,43960.0,-0.000915,-0.0028669999999999998,0.0,-0.0175,-1.4700000000000002,-3.9200000000000004,0.7861875,-0.21256250000000002,-0.5407500000000001,0.68615625,0.74225,-0.6804375,-1.3706562500000001,0.52290625,0.018957321968056686,0.03271126461303105,True
780,24162,2,24108,3695.0,38596.0,43960.0,-0.002196,0.000305,0.001098,0.21000000000000002,-1.3125000000000002,-3.9375000000000004,0.77384375,-0.20571875,-0.5394375,0.6869375,0.73740625,-0.6784687500000001,-1.3688125,0.5235,0.01915637492703027,0.032692700929537,True
781,24163,2,24109,3694.0,38596.0,43957.0,-0.0026839999999999998,0.0008539999999999999,0.0008539999999999999,0.43750000000000006,-1.5050000000000001,-3.9375000000000004,0.76903125,-0.203875,-0.5383125,0.69275,0.73765625,-0.6775625000000001,-1.3728125,0.528,0.019195068394619607,0.032889534812114346,True
782,24164,2,24110,3694.0,38594.0,43956.0,0.000244,0.0025009999999999998,0.000366,0.4025,-1.7500000000000002,-3.9375000000000004,0.7686875,-0.2101875,-0.54415625,0.69771875,0.74471875,-0.67596875,-1.3705625000000001,0.52459375,0.018875905327931656,0.03257343032894916,True
783,24165,2,24111,3692.0,38592.0,43955.0,0.0023179999999999997,0.001403,-0.001403,0.2625,-1.9075000000000002,-4.025,0.7782187500000001,-0.20509375,-0.5404375,0.68753125,0.73778125,-0.679,-1.3694375,0.5231250000000001,0.019202814133473807,0.03267711394862421,True
784,24166,2,24112,3690.0,38593.0,43954.0,0.003538,-0.000793,-0.0006709999999999999,0.035,-1.8900000000000001,-3.9725000000000006,0.76865625,-0.20509375,-0.5360625,0.67925,0.737125,-0.678,-1.3708437500000001,0.525,0.01916307034605722,0.03290317256397908,True
785,24167,2,24113,3690.0,38590.0,43950.0,0.00042699999999999997,-0.0017079999999999999,0.000366,0.15750000000000003,-1.8025000000000002,-3.7100000000000004,0.76784375,-0.20475000000000002,-0.53796875,0.6968125000000001,0.74115625,-0.67759375,-1.37146875,0.5270312500000001,0.01916085315246751,0.032851862389716796,True
786,24168,2,24114,3687.0,38587.0,43951.0,0.00042699999999999997,-0.000305,0.000732,0.4025,-1.6450000000000002,-3.7275000000000005,0.78109375,-0.21028125,-0.54359375,0.69528125,0.743625,-0.68065625,-1.3664375,0.526,0.019058447848200957,0.03243828582551255,True
787,24169,2,24115,3686.0,38589.0,43950.0,-0.000732,-0.000976,0.001403,0.36750000000000005,-1.435,-3.7100000000000004,0.779,-0.20928125,-0.5386562500000001,0.6873750000000001,0.7416875,-0.6809375,-1.37009375,0.5246875,0.019110143202623484,0.0327723463773168,True
788,24170,2,24116,3686.0,38591.0,43951.0,-0.001037,-0.00061,0.000122,0.5075000000000001,-1.4175000000000002,-3.7625,0.76909375,-0.2050625,-0.5393125,0.693125,0.73803125,-0.6788125,-1.3720937500000001,0.52690625,0.019196628687056964,0.03282272477020152,True
789,24171,2,24117,3686.0,38591.0,43950.0,-0.000915,0.000122,-0.0008539999999999999,0.43750000000000006,-1.3825,-3.7275000000000005,0.77028125,-0.2095625,-0.54171875,0.6919062500000001,0.7409687500000001,-0.67903125,-1.37121875,0.52721875,0.01902298130118053,0.03269452714012802,True
790,24172,2,24118,3685.0,38590.0,43951.0,-0.0006709999999999999,0.00061,6.1e-05,0.5075000000000001,-1.1375000000000002,-3.4825000000000004,0.77728125,-0.20834375,-0.543875,0.6973125,0.73859375,-0.67328125,-1.3713125,0.522375,0.01884376444661166,0.032613113728349685,True
791,24173,2,24119,3682.0,38589.0,43948.0,0.00061,0.002074,-6.1e-05,0.49000000000000005,-1.1025,-3.535,0.77371875,-0.20746875,-0.5405625000000001,0.6909375,0.7394375,-0.6789375,-1.3703125,0.52275,0.019104094331451667,0.032705549054628316,True
792,24174,2,24120,3683.0,38589.0,43948.0,0.001037,0.001403,-0.00042699999999999997,0.49000000000000005,-1.1900000000000002,-3.3600000000000003,0.77365625,-0.20590625,-0.5425625000000001,0.6969062500000001,0.7387812500000001,-0.67825,-1.36478125,0.5398125,0.01914008286649175,0.03241576349096249,True
793,24175,2,24121,3682.0,38588.0,43947.0,-0.00061,0.001037,6.1e-05,0.49000000000000005,-1.3125000000000002,-3.2900000000000005,0.779375,-0.2068125,-0.5408125,0.6905,0.762625,-0.67959375,-1.369875,0.51228125,0.019156767926943694,0.032679013988046846,True
794,24176,2,24122,3682.0,38587.0,43947.0,-0.000366,0.0013419999999999999,6.1e-05,0.43750000000000006,-1.33,-3.3775000000000004,0.779625,-0.20765625000000001,-0.542125,0.6910000000000001,0.73503125,-0.6815,-1.37965625,0.5411875,0.019198336810971783,0.03300010219799569,True
795,24177,2,24123,3681.0,38588.0,43945.0,-6.1e-05,0.0013419999999999999,-0.000122,0.5075000000000001,-1.4175000000000002,-3.3425000000000002,0.7730625,-0.2061875,-0.54009375,0.689875,0.74684375,-0.6785625000000001,-1.36809375,0.5169375,0.019141106780429372,0.0326394252622943,True
796,24178,2,24124,3680.0,38585.0,43946.0,-0.00042699999999999997,-0.000183,0.000976,0.42000000000000004,-1.5225000000000002,-3.4475000000000002,0.7726875,-0.20700000000000002,-0.5405625000000001,0.6911875000000001,0.7292500000000001,-0.67696875,-1.36825,0.5132187500000001,0.01904483304903484,0.032626905679343274,True
797,24179,2,24125,3680.0,38586.0,43943.0,-0.001281,-0.000366,0.000549,0.47250000000000003,-1.54,-3.43,0.772,-0.20703125,-0.540625,0.69125,0.72721875,-0.67621875,-1.3640625,0.51184375,0.01901375185369517,0.03246473233536623,True
798,24180,2,24126,3678.0,38587.0,43943.0,-0.00042699999999999997,-0.000366,-0.000305,0.49000000000000005,-1.6625,-3.4475000000000002,0.7721250000000001,-0.20650000000000002,-0.54,0.6905625,0.72603125,-0.67396875,-1.3642812500000001,0.5121875,0.018945827269883368,0.03249771763195537,True
799,24181,2,24127,3678.0,38587.0,43944.0,0.0,-0.001098,0.000244,0.43750000000000006,-1.7850000000000001,-3.4125000000000005,0.7730625,-0.20725000000000002,-0.54078125,0.6910625,0.7310625000000001,-0.6765625000000001,-1.3718125,0.53621875,0.019018552523269804,0.03275411443309382,True
800,24182,2,24128,3678.0,38585.0,43941.0,0.0008539999999999999,-0.001586,-0.00042699999999999997,0.15750000000000003,-1.5925000000000002,-3.6575,0.76615625,-0.208625,-0.5408125,0.6930000000000001,0.76025,-0.68353125,-1.36775,0.5163125000000001,0.019239801841561873,0.03259798366035616,True
801,24183,2,24129,3678.0,38586.0,43939.0,0.000488,-0.00122,0.001037,0.24500000000000002,-1.4875,-3.5525,0.77284375,-0.20709375,-0.54084375,0.69096875,0.7263437500000001,-0.67475,-1.36540625,0.5076875,0.018952826269769706,0.03250736423746416,True
802,24184,2,24130,3677.0,38585.0,43937.0,0.000549,-0.001037,0.0,0.36750000000000005,-1.4700000000000002,-3.5525,0.769,-0.20634375,-0.544625,0.698875,0.73740625,-0.683,-1.3821875000000001,0.5386562500000001,0.019311114937406313,0.03299804242640632,True
803,24185,2,24131,3676.0,38586.0,43941.0,-0.00061,0.000122,-0.000915,0.45500000000000007,-1.33,-3.535,0.7811875,-0.209375,-0.5431875,0.69921875,0.7613125000000001,-0.6875625,-1.37525,0.5399375,0.019369571216275402,0.03279031733677501,True
804,24186,2,24132,3676.0,38585.0,43941.0,-0.0011589999999999999,0.00122,0.0013419999999999999,0.42000000000000004,-1.1725,-3.4825000000000004,0.78065625,-0.20690625,-0.540375,0.69021875,0.756625,-0.67971875,-1.3626875,0.512,0.01915793712195363,0.03242213586395369,True
805,24187,2,24133,3675.0,38587.0,43943.0,-0.002257,-6.1e-05,0.001464,0.6475000000000001,-1.155,-3.3600000000000003,0.77334375,-0.2068125,-0.53834375,0.69075,0.72421875,-0.6748125,-1.36309375,0.5132187500000001,0.018966709473476243,0.032517720753210556,True
806,24188,2,24134,3676.0,38586.0,43939.0,-0.0018909999999999999,0.000305,0.0,0.6300000000000001,-1.2950000000000002,-3.2900000000000005,0.77275,-0.2064375,-0.54025,0.6893125,0.7284375,-0.67521875,-1.3645,0.5181250000000001,0.018998058527849932,0.03249620532634194,True
807,24189,2,24135,3675.0,38586.0,43942.0,-0.0006709999999999999,-0.000793,-0.002562,0.6300000000000001,-1.4700000000000002,-3.3075,0.76246875,-0.20721875,-0.54353125,0.6946875,0.741,-0.6799375,-1.37296875,0.5268125,0.019153968684077906,0.03268980891327508,True
808,24190,2,24136,3676.0,38588.0,43940.0,0.002196,0.00122,-0.002379,0.525,-1.6975000000000002,-3.3950000000000005,0.777875,-0.20700000000000002,-0.5410625,0.6964375,0.7465,-0.678625,-1.3703125,0.52934375,0.01911066763241469,0.03268584098047669,True
809,24191,2,24137,3673.0,38585.0,43940.0,0.0035989999999999998,0.000732,-0.000183,0.385,-1.7675,-3.4475000000000002,0.7779375000000001,-0.2065625,-0.5411875,0.6905,0.74446875,-0.681625,-1.36946875,0.52815625,0.019247618420586168,0.032648742398281395,True
810,24192,2,24138,3674.0,38587.0,43938.0,0.0008539999999999999,-6.1e-05,0.00042699999999999997,0.36750000000000005,-1.61,-3.5700000000000003,0.77240625,-0.20450000000000002,-0.54009375,0.68965625,0.7409375,-0.67771875,-1.36965625,0.52146875,0.019175951991105337,0.03269900434697455,True
811,24193,2,24139,3675.0,38587.0,43938.0,-0.000244,0.0006709999999999999,0.0006709999999999999,0.47250000000000003,-1.6450000000000002,-3.6400000000000006,0.77284375,-0.20659375,-0.53978125,0.6915,0.737375,-0.67775,-1.36871875,0.52290625,0.01909235039661233,0.0326755760970388,True
812,24194,2,24140,3674.0,38587.0,43941.0,0.000488,0.002074,-0.001464,0.43750000000000006,-1.5225000000000002,-3.7625,0.7733125000000001,-0.20559375,-0.5396875,0.6905625,0.73846875,-0.67871875,-1.36309375,0.51225,0.019171376147718366,0.03246474022909764,True
813,24195,2,24141,3674.0,38587.0,43940.0,-0.000305,0.002074,0.000244,0.525,-1.3125000000000002,-3.8500000000000005,0.77375,-0.20665625,-0.54084375,0.69034375,0.7252500000000001,-0.67815625,-1.37009375,0.52309375,0.019105965422356055,0.03268612280945947,True
814,24196,2,24142,3675.0,38589.0,43942.0,-0.00183,0.000366,0.000732,0.43750000000000006,-1.2950000000000002,-3.6925000000000003,0.7732187500000001,-0.20703125,-0.542,0.6941875000000001,0.73921875,-0.67871875,-1.36984375,0.52278125,0.019113127580823053,0.03263101492298311,True
815,24197,2,24143,3674.0,38590.0,43941.0,-0.002074,-0.004148,0.002196,0.28,-1.3475000000000001,-3.7800000000000002,0.7741250000000001,-0.20671875,-0.54071875,0.69065625,0.73790625,-0.6785625000000001,-1.369,0.5232187500000001,0.019119579999848046,0.03264934565808664,True
816,24198,2,24144,3675.0,38591.0,43940.0,-0.002989,-0.004026,0.000793,0.2625,-1.6275000000000002,-3.7275000000000005,0.7731250000000001,-0.20709375,-0.54009375,0.6909375,0.7368125,-0.67878125,-1.36853125,0.5284375,0.019113079176063447,0.03265610814579579,True
817,24199,2,24145,3674.0,38589.0,43942.0,-0.001647,-0.003843,-0.001952,0.36750000000000005,-1.7325000000000002,-3.6400000000000006,0.7732187500000001,-0.203,-0.54709375,0.6979062500000001,0.7454375,-0.68203125,-1.37253125,0.5279375000000001,0.019408096730288354,0.032532721779582,True
818,24200,2,24146,3675.0,38592.0,43943.0,-0.00042699999999999997,-0.0006709999999999999,-0.0023179999999999997,0.45500000000000007,-1.9075000000000002,-3.7625,0.7928437500000001,-0.2139375,-0.54384375,0.68890625,0.7411875,-0.6780625,-1.36975,0.5171875,0.01880718958386624,0.03255476502527617,True
819,24201,2,24147,3674.0,38591.0,43941.0,0.00122,0.002379,-0.000305,0.5950000000000001,-1.9250000000000003,-3.7800000000000002,0.7661875,-0.2048125,-0.5371875,0.6858125,0.73840625,-0.6796875,-1.3722812500000001,0.528875,0.01924153213042102,0.03291362498198699,True
820,24202,2,24148,3673.0,38590.0,43939.0,0.002928,0.003172,-0.000244,0.49000000000000005,-1.9425000000000001,-3.8150000000000004,0.78040625,-0.21506250000000002,-0.5420625,0.6903125,0.7465625,-0.67859375,-1.3688437500000001,0.5230625,0.018782725413598576,0.03259041910414227,True
821,24203,2,24149,3674.0,38593.0,43944.0,0.002806,0.000915,0.00061,0.385,-1.7675,-3.8500000000000005,0.76709375,-0.20009375000000001,-0.5411875,0.690875,0.7376875,-0.67884375,-1.3641875,0.52234375,0.019399207063742603,0.03244732361326378,True
822,24204,2,24150,3674.0,38592.0,43944.0,0.001647,0.001037,-0.00061,0.43750000000000006,-1.7850000000000001,-3.9200000000000004,0.7831875,-0.21225,-0.54690625,0.69965625,0.7379687500000001,-0.67840625,-1.3701875000000001,0.5231250000000001,0.01888923641493259,0.03245073573066813,True
823,24205,2,24151,3673.0,38591.0,43945.0,0.00122,0.002379,-0.0023179999999999997,0.525,-1.8725000000000003,-3.8675,0.79028125,-0.2109375,-0.54634375,0.7060625,0.7395625,-0.6786875,-1.36228125,0.5221250000000001,0.018953601158894696,0.03217129768245907,True
824,24206,2,24152,3673.0,38591.0,43943.0,0.002562,0.001403,-0.002257,0.45500000000000007,-1.7675,-3.7450000000000006,0.7910625,-0.20978125,-0.541375,0.68653125,0.7379687500000001,-0.6783750000000001,-1.36959375,0.5234375,0.01898803101906021,0.03264611795370195,True
825,24207,2,24153,3674.0,38591.0,43943.0,0.0,-0.0025009999999999998,0.001586,0.1925,-1.6975000000000002,-3.6575,0.7706875,-0.2066875,-0.540625,0.68721875,0.7385,-0.6725625000000001,-1.36946875,0.5235625,0.01888231106922923,0.032670914719095175,True
826,24208,2,24154,3673.0,38593.0,43941.0,-0.00042699999999999997,-0.003721,0.002074,0.28,-1.5750000000000002,-3.7275000000000005,0.7664375,-0.2053125,-0.5386875,0.6852812500000001,0.73771875,-0.67825,-1.36890625,0.52240625,0.019164142514157205,0.03272583933333744,True
827,24209,2,24155,3675.0,38593.0,43942.0,0.0,-0.0032329999999999998,6.1e-05,0.28,-1.4525000000000001,-3.6925000000000003,0.7733125000000001,-0.20878125,-0.5381875,0.68490625,0.73771875,-0.6784375,-1.36765625,0.52253125,0.019031036709678234,0.03269788670366424,True
828,24210,2,24156,3674.0,38592.0,43942.0,-0.000305,-0.001098,-0.001769,0.45500000000000007,-1.3125000000000002,-3.5700000000000003,0.76528125,-0.20575000000000002,-0.5371875,0.6855,0.7383125,-0.67378125,-1.3685,0.5273125,0.01896876872084614,0.03276947789581568,True
829,24211,2,24157,3676.0,38595.0,43942.0,-0.004148,0.0017079999999999999,0.000549,0.5950000000000001,-1.12,-3.4125000000000005,0.7661250000000001,-0.20465625,-0.53696875,0.68621875,0.7398125,-0.6783125,-1.3635,0.52353125,0.019193218742164807,0.03258742878545942,True
830,24212,2,24158,3675.0,38594.0,43946.0,-0.003965,0.0013419999999999999,0.000976,0.5950000000000001,-1.0675000000000001,-3.5000000000000004,0.7725,-0.2074375,-0.540875,0.6925625,0.73821875,-0.6778125,-1.36909375,0.5229375,0.019060644050196914,0.032646761376724384,True
831,24213,2,24159,3675.0,38595.0,43945.0,-0.0025009999999999998,0.000183,0.001647,0.45500000000000007,-1.1725,-3.5175000000000005,0.7709375,-0.20796875,-0.53759375,0.69721875,0.73359375,-0.67809375,-1.3694375,0.52284375,0.01905029637874684,0.03278920748637017,True
832,24214,2,24160,3674.0,38594.0,43946.0,-0.001464,-6.1e-05,0.000976,0.29750000000000004,-1.4875,-3.4825000000000004,0.77809375,-0.2085,-0.53990625,0.69071875,0.7413125,-0.681875,-1.372,0.524,0.019179053455217643,0.032795749251142994,True
833,24215,2,24161,3676.0,38596.0,43948.0,0.000305,-0.00122,-0.000549,0.24500000000000002,-1.54,-3.6575,0.77284375,-0.20840625000000002,-0.54234375,0.6819375,0.7380625000000001,-0.6785,-1.3707500000000001,0.52928125,0.01904871649411431,0.032652020535459146,True
834,24216,2,24162,3676.0,38597.0,43945.0,0.0013419999999999999,0.001403,0.0,0.42000000000000004,-1.5225000000000002,-3.7275000000000005,0.77278125,-0.20659375,-0.54259375,0.6881875000000001,0.73790625,-0.6779375,-1.3691875,0.5275625,0.019099803214916156,0.03258258665162217,True
835,24217,2,24163,3675.0,38598.0,43949.0,0.001403,0.000488,0.00042699999999999997,0.31500000000000006,-1.6800000000000002,-3.6400000000000006,0.77278125,-0.20421875,-0.54015625,0.6841875000000001,0.745,-0.6785625000000001,-1.3679375,0.52271875,0.019220882496701338,0.0326310032102531,True
836,24218,2,24164,3678.0,38597.0,43951.0,0.0023179999999999997,-0.000366,0.000793,0.22750000000000004,-1.6800000000000002,-3.5875000000000004,0.77346875,-0.20600000000000002,-0.5401875,0.69078125,0.7376875,-0.6785,-1.36759375,0.52296875,0.019146220394270316,0.032616662745160833,True
837,24219,2,24165,3677.0,38600.0,43952.0,0.002257,-0.001403,0.000244,0.24500000000000002,-1.5050000000000001,-3.6225000000000005,0.774,-0.207625,-0.538,0.69759375,0.738,-0.6786875,-1.3690625,0.52384375,0.01908782628735827,0.032758896786193814,True
838,24220,2,24166,3678.0,38599.0,43955.0,0.001952,-0.0006709999999999999,-0.000244,0.1925,-1.3650000000000002,-3.7450000000000006,0.7799375000000001,-0.2085,-0.54246875,0.69615625,0.7385,-0.677875,-1.3721875000000001,0.52684375,0.019020073648966938,0.0327019004569472,True
839,24221,2,24167,3678.0,38598.0,43952.0,0.000183,0.0030499999999999998,-0.000366,0.49000000000000005,-1.0150000000000001,-3.6925000000000003,0.78134375,-0.21040625000000002,-0.542,0.6939062500000001,0.7465,-0.6820625,-1.37096875,0.52653125,0.0191092721688068,0.032673910017724496,True
840,24222,2,24168,3679.0,38599.0,43953.0,0.0,0.001647,-6.1e-05,0.42000000000000004,-0.9100000000000001,-3.6400000000000006,0.76559375,-0.20415625,-0.53990625,0.69003125,0.74603125,-0.68003125,-1.37109375,0.512625,0.019281782716543357,0.03276120092378753,True
841,24223,2,24169,3678.0,38598.0,43951.0,-0.002745,-0.000244,-0.000488,0.35000000000000003,-0.9625000000000001,-3.6575,0.7739375000000001,-0.20215625,-0.54003125,0.69053125,0.7385,-0.67790625,-1.3688125,0.5229375,0.019278377799980498,0.032669296207695965,True
842,24224,2,24170,3679.0,38602.0,43956.0,-0.002989,-0.00042699999999999997,0.0006709999999999999,0.3325,-1.1375000000000002,-3.6050000000000004,0.77478125,-0.20940625000000002,-0.54371875,0.6970937500000001,0.73753125,-0.67853125,-1.370125,0.52378125,0.019009437605813757,0.032573992047733306,True
843,24225,2,24171,3678.0,38601.0,43956.0,-0.002562,-0.00122,0.0006709999999999999,0.47250000000000003,-1.3125000000000002,-3.6750000000000003,0.77184375,-0.2030625,-0.54140625,0.69534375,0.744125,-0.6790625,-1.37225,0.53034375,0.01928760462436529,0.032746159682330106,True
844,24226,2,24172,3678.0,38601.0,43955.0,0.000122,0.000793,-0.000793,0.42000000000000004,-1.6275000000000002,-3.7975000000000003,0.77346875,-0.20750000000000002,-0.538875,0.6910000000000001,0.74615625,-0.68059375,-1.36984375,0.52771875,0.019168653509399464,0.03275419266230207,True
845,24227,2,24173,3680.0,38606.0,43957.0,0.0011589999999999999,-0.000122,0.000122,0.28,-1.5575,-3.7975000000000003,0.77246875,-0.20646875,-0.540375,0.69078125,0.7420625000000001,-0.67984375,-1.3713125,0.5241875,0.019180631968142018,0.032751064809910795,True
846,24228,2,24174,3681.0,38600.0,43956.0,0.0017079999999999999,-0.001647,0.00042699999999999997,0.21000000000000002,-1.3825,-3.7450000000000006,0.77325,-0.20296875,-0.5356562500000001,0.6904375,0.74021875,-0.6783125,-1.36825,0.52225,0.019261598620246012,0.032820306879662565,True
847,24229,2,24175,3681.0,38604.0,43957.0,0.0013419999999999999,-0.002806,0.0,0.17500000000000002,-1.2775,-3.6225000000000005,0.77328125,-0.2060625,-0.5400625,0.69165625,0.737625,-0.67684375,-1.36915625,0.5226875,0.019077855124807034,0.03268117164913595,True
848,24230,2,24176,3682.0,38606.0,43957.0,0.00061,-0.0034159999999999998,-0.00061,0.2625,-1.4175000000000002,-3.6400000000000006,0.77196875,-0.20721875,-0.54290625,0.69578125,0.738625,-0.67753125,-1.3687500000000001,0.52378125,0.01905832861623871,0.032553584626755366,True
849,24231,2,24177,3681.0,38605.0,43958.0,0.00183,0.000793,-0.0013419999999999999,0.385,-1.4000000000000001,-3.8150000000000004,0.7770625,-0.2085,-0.54196875,0.695125,0.74221875,-0.68071875,-1.3723750000000001,0.5286875,0.019133103649989935,0.03272875519142374,True
850,24232,2,24178,3682.0,38606.0,43959.0,0.0015249999999999999,0.0018909999999999999,0.000183,0.47250000000000003,-1.4000000000000001,-3.7625,0.775625,-0.20609375,-0.5397500000000001,0.690625,0.74228125,-0.67978125,-1.3708125,0.524375,0.019193342728675927,0.032756637179041856,True
851,24233,2,24179,3683.0,38607.0,43961.0,-0.00042699999999999997,0.001586,0.00122,0.47250000000000003,-1.2425000000000002,-3.7275000000000005,0.77275,-0.20465625,-0.54096875,0.6910000000000001,0.73853125,-0.67703125,-1.3676875,0.520875,0.019142294517295308,0.032589440799442204,True
852,24234,2,24180,3683.0,38606.0,43962.0,-0.003111,0.001586,0.000732,0.5775,-1.1725,-3.6575,0.77384375,-0.20803125,-0.5427500000000001,0.69378125,0.7389687500000001,-0.678,-1.36990625,0.52840625,0.019044037199124727,0.03260383549899795,True
853,24235,2,24181,3684.0,38609.0,43963.0,-0.003843,0.000549,0.001769,0.5775,-1.3125000000000002,-3.6050000000000004,0.77709375,-0.20634375,-0.5405,0.6900000000000001,0.7453125,-0.67403125,-1.36928125,0.52334375,0.01895464487587532,0.03266869257480442,True
854,24236,2,24182,3684.0,38608.0,43964.0,0.0011589999999999999,0.000793,-0.00122,0.4025,-1.6625,-3.6575,0.77315625,-0.20378125,-0.5406562500000001,0.6908125,0.7383125,-0.67609375,-1.36896875,0.52240625,0.019140488960089155,0.03265061769607801,True
855,24237,2,24183,3683.0,38610.0,43962.0,0.0025009999999999998,0.000488,-0.00183,0.35000000000000003,-1.6625,-3.7100000000000004,0.77709375,-0.20396875,-0.54225,0.69384375,0.74371875,-0.67875,-1.375875,0.5318125,0.019238464265815727,0.0328510839527701,True
856,24238,2,24184,3685.0,38609.0,43963.0,0.002928,-0.000488,-0.002623,0.21000000000000002,-1.5225000000000002,-3.5175000000000005,0.77378125,-0.206375,-0.54084375,0.69078125,0.7446875000000001,-0.6764687500000001,-1.36740625,0.52678125,0.019050284494210708,0.03258364264182508,True
857,24239,2,24185,3685.0,38608.0,43964.0,6.1e-05,-0.001464,0.000915,0.2625,-1.4000000000000001,-3.4825000000000004,0.77490625,-0.20646875,-0.54028125,0.69053125,0.7459375,-0.6814375,-1.366125,0.518625,0.01924396623981079,0.032556953417205034,True
858,24240,2,24186,3687.0,38612.0,43965.0,-0.000549,-0.000122,0.0011589999999999999,0.42000000000000004,-1.3125000000000002,-3.6050000000000004,0.7729375,-0.206375,-0.541625,0.68746875,0.7329687500000001,-0.676625,-1.366875,0.517625,0.019056495772821445,0.03253258432503019,True
859,24241,2,24187,3686.0,38611.0,43967.0,0.00061,0.000732,0.003721,0.35000000000000003,-1.1900000000000002,-3.99,0.790125,-0.2195625,-0.54540625,0.70115625,0.73434375,-0.6785,-1.37040625,0.5363125,0.018596652957027372,0.0325182021868491,True
860,24242,2,24188,3686.0,38611.0,43966.0,-0.001647,-0.004209,-0.001769,0.12250000000000001,-1.435,-3.6400000000000006,0.7839375000000001,-0.20434375,-0.5416875,0.703375,0.74884375,-0.68053125,-1.37534375,0.53571875,0.019294053891161685,0.03285300322286275,True
861,24243,2,24189,3687.0,38612.0,43967.0,-0.001098,-0.00488,-0.003172,0.15750000000000003,-1.715,-3.43,0.7815625,-0.2031875,-0.534875,0.68109375,0.74934375,-0.68203125,-1.37128125,0.51703125,0.019400500110784032,0.032966653980078364,True
862,24244,2,24190,3688.0,38614.0,43969.0,0.00122,-0.0013419999999999999,-0.0030499999999999998,0.31500000000000006,-1.9425000000000001,-3.43,0.76275,-0.20578125,-0.54146875,0.6870625,0.73378125,-0.67634375,-1.3675,0.519875,0.019069376920963017,0.032562580072927956,True
863,24245,2,24191,3688.0,38613.0,43968.0,0.0042699999999999995,0.0006709999999999999,0.001403,0.43750000000000006,-1.7675,-3.6925000000000003,0.7690625,-0.20750000000000002,-0.5416562500000001,0.680875,0.7343125,-0.67621875,-1.3673125,0.51959375,0.018994755831462224,0.03254803795238458,True
864,24246,2,24192,3689.0,38615.0,43969.0,-0.00183,0.001037,0.002257,0.525,-1.05,-3.4825000000000004,0.7825625,-0.211875,-0.549,0.6935,0.733875,-0.67721875,-1.36859375,0.53615625,0.018857220285409995,0.032307417513042086,True
865,24247,2,24193,3688.0,38615.0,43967.0,-0.0032329999999999998,0.002257,0.0021349999999999997,0.6825000000000001,-0.9975,-3.2025,0.76071875,-0.2026875,-0.5385,0.6880937500000001,0.7504375,-0.677625,-1.3662812500000001,0.5203125,0.019245672952725393,0.03263313379843567,True
866,24248,2,24194,3689.0,38615.0,43970.0,-0.00366,0.00366,-0.0021349999999999997,0.7525000000000001,-1.0675000000000001,-3.2550000000000003,0.76409375,-0.20515625,-0.53828125,0.6873125,0.7234375000000001,-0.67621875,-1.3665625000000001,0.51715625,0.019089735942626945,0.03265248296847474,True
867,24249,2,24195,3690.0,38617.0,43974.0,-0.000793,0.0040869999999999995,-0.003538,0.7175,-1.1725,-3.4475000000000002,0.76809375,-0.20409375,-0.53546875,0.68271875,0.73446875,-0.67784375,-1.3665,0.5216875,0.01919738226724124,0.03276097411940946,True
868,24250,2,24196,3691.0,38619.0,43974.0,0.00122,0.001952,-0.001647,0.5075000000000001,-1.225,-3.7100000000000004,0.753875,-0.20809375,-0.5423125,0.69334375,0.73653125,-0.67771875,-1.3667500000000001,0.52353125,0.019030324672940042,0.03250071451802065,True
869,24251,2,24197,3692.0,38619.0,43975.0,-0.002745,-0.004331,0.002928,0.24500000000000002,-1.3475000000000001,-3.5875000000000004,0.7670625,-0.21071875,-0.5428125,0.69246875,0.7376875,-0.6780625,-1.369625,0.5228125,0.018937619191133827,0.03259064727996571,True
870,24252,2,24198,3694.0,38619.0,43975.0,-0.002196,-0.0050019999999999995,0.000976,0.17500000000000002,-1.6800000000000002,-3.5525,0.78171875,-0.2103125,-0.5401875,0.6890625,0.73759375,-0.677625,-1.369375,0.523,0.01893668859949043,0.032684585252888566,True
871,24253,2,24199,3692.0,38621.0,43975.0,0.0015249999999999999,-0.002379,0.000305,0.31500000000000006,-1.8200000000000003,-3.5700000000000003,0.77259375,-0.20640625,-0.53803125,0.6875625,0.73784375,-0.6774375,-1.368875,0.51853125,0.019087526814727016,0.03275051613443639,True
872,24254,2,24200,3693.0,38622.0,43975.0,0.002013,-0.0017079999999999999,-0.00122,0.3325,-1.7850000000000001,-3.6400000000000006,0.76903125,-0.20696875,-0.54021875,0.691375,0.73721875,-0.670875,-1.36896875,0.52328125,0.018803802054041457,0.03266786317437519,True
873,24255,2,24201,3693.0,38622.0,43974.0,0.001952,-0.00042699999999999997,-0.0030499999999999998,0.28,-1.8725000000000003,-3.6225000000000005,0.7809375000000001,-0.20934375,-0.5396562500000001,0.691125,0.7451875,-0.68078125,-1.3693125,0.5220625,0.01910140101420007,0.03270314282265236,True
874,24256,2,24202,3693.0,38621.0,43971.0,-0.000549,0.00122,0.00244,0.4025,-1.4175000000000002,-3.6050000000000004,0.77375,-0.2094375,-0.5431875,0.6980937500000001,0.73834375,-0.6793125,-1.36959375,0.52953125,0.019039225667246605,0.03257467416087417,True
875,24257,2,24203,3694.0,38620.0,43970.0,-0.000549,0.001647,0.001464,0.4025,-1.3650000000000002,-3.6925000000000003,0.77971875,-0.20696875,-0.54,0.69146875,0.74603125,-0.68015625,-1.36540625,0.522,0.019172791906453185,0.032540628045332406,True
876,24258,2,24204,3691.0,38622.0,43970.0,0.00042699999999999997,0.0018909999999999999,0.000366,0.35000000000000003,-1.5050000000000001,-3.8150000000000004,0.77315625,-0.2048125,-0.54003125,0.6910937500000001,0.73728125,-0.6772812500000001,-1.36453125,0.5230312500000001,0.01914589963187294,0.032506021572939574,True
877,24259,2,24205,3693.0,38622.0,43967.0,0.00061,0.0021349999999999997,0.000366,0.17500000000000002,-1.4700000000000002,-3.9025000000000003,0.77265625,-0.20584375,-0.54015625,0.6895625,0.7380625000000001,-0.67840625,-1.3684687500000001,0.5230312500000001,0.01914882570668436,0.03265126122364008,True
878,24260,2,24206,3692.0,38623.0,43967.0,-0.000305,0.002013,-6.1e-05,0.22750000000000004,-1.3475000000000001,-4.0425,0.774375,-0.20828125,-0.53771875,0.6953125,0.73246875,-0.6741875,-1.3730625,0.53,0.018882334018090773,0.03292246452315325,True
879,24261,2,24207,3691.0,38623.0,43970.0,-0.0021349999999999997,0.0026839999999999998,0.0015249999999999999,0.31500000000000006,-1.3825,-4.130000000000001,0.77859375,-0.210375,-0.5420625,0.69484375,0.7441875,-0.68090625,-1.37215625,0.522875,0.019064585604509562,0.0327167207162379,True
880,24262,2,24208,3689.0,38623.0,43969.0,-0.000305,0.000305,0.003294,0.22750000000000004,-1.4875,-4.112500000000001,0.77871875,-0.20784375,-0.539875,0.69065625,0.745375,-0.6812812500000001,-1.3620625,0.52246875,0.019182047123262696,0.032418006224848625,True
881,24263,2,24209,3690.0,38624.0,43969.0,0.00122,-0.0021349999999999997,0.00042699999999999997,0.15750000000000003,-2.0125,-4.0075,0.77259375,-0.20665625,-0.53990625,0.6904375,0.73771875,-0.6774687500000001,-1.36878125,0.5220312500000001,0.01907863828213743,0.032673031937630034,True
882,24264,2,24210,3688.0,38623.0,43966.0,0.003721,-0.0025009999999999998,-0.001464,0.12250000000000001,-2.4675000000000002,-4.0600000000000005,0.7725625,-0.20634375,-0.53834375,0.6944375,0.738625,-0.6778125,-1.368125,0.52640625,0.01910496523952437,0.0327096011234571,True
883,24265,2,24211,3689.0,38623.0,43967.0,0.0042699999999999995,-0.002745,-0.0032329999999999998,0.08750000000000001,-2.5900000000000003,-4.095000000000001,0.77540625,-0.20596875,-0.539875,0.69103125,0.74309375,-0.6793750000000001,-1.36915625,0.52246875,0.019182262516777675,0.03268856251378088,True
884,24266,2,24212,3687.0,38621.0,43964.0,0.002806,-0.00061,-0.000915,0.28,-2.0825,-4.0600000000000005,0.773625,-0.20071875,-0.53953125,0.690375,0.73840625,-0.6779375,-1.3685625000000001,0.525375,0.01933787011171416,0.032679472871196394,True
885,24267,2,24213,3686.0,38623.0,43962.0,-0.0011589999999999999,-0.00061,-0.0017079999999999999,0.14,-1.715,-4.077500000000001,0.7731250000000001,-0.2095625,-0.5405,0.6974375,0.740625,-0.6784687500000001,-1.370625,0.5300312500000001,0.019000621746436356,0.03271992708102382,True
886,24268,2,24214,3682.0,38623.0,43963.0,-0.003111,-0.001098,0.00183,0.31500000000000006,-1.4175000000000002,-3.9725000000000006,0.7795,-0.20778125,-0.54028125,0.69075,0.74340625,-0.6786875,-1.37071875,0.52240625,0.01908149491337414,0.032732123523303805,True
887,24269,2,24215,3685.0,38624.0,43962.0,-0.00366,-0.0017079999999999999,0.0017079999999999999,0.3325,-1.1725,-3.99,0.772625,-0.20609375,-0.5401875,0.69140625,0.73809375,-0.67734375,-1.3689375,0.52325,0.01909646373508089,0.032667903415348,True
888,24270,2,24216,3683.0,38621.0,43960.0,-0.004697,-0.0008539999999999999,0.001403,0.24500000000000002,-1.155,-3.9725000000000006,0.77334375,-0.20596875,-0.54034375,0.69765625,0.7383125,-0.6774375,-1.368625,0.5279375000000001,0.019105255559861107,0.03264982828198217,True
889,24271,2,24217,3683.0,38622.0,43962.0,-0.002928,0.000305,0.001403,0.5075000000000001,-1.61,-3.8675,0.78146875,-0.20940625000000002,-0.543125,0.69671875,0.74465625,-0.67978125,-1.3708437500000001,0.52684375,0.019059123548755115,0.032624801845622504,True
890,24272,2,24218,3682.0,38623.0,43962.0,0.000549,0.002196,0.0018909999999999999,0.45500000000000007,-1.715,-3.9375000000000004,0.7786875,-0.206625,-0.54021875,0.68953125,0.74215625,-0.68059375,-1.3709375,0.52315625,0.01920410646522635,0.03274292682325988,True
891,24273,2,24219,3679.0,38621.0,43959.0,0.00244,0.002623,0.0008539999999999999,0.49000000000000005,-1.8375000000000001,-3.9200000000000004,0.76878125,-0.198,-0.5400625,0.691125,0.7379687500000001,-0.6734687500000001,-1.368875,0.52284375,0.01927044611431054,0.032670447546452104,True
892,24274,2,24220,3679.0,38620.0,43957.0,0.002806,0.000976,-0.0023179999999999997,0.31500000000000006,-2.1175,-3.8850000000000002,0.7724375,-0.20678125,-0.54021875,0.684,0.73865625,-0.67765625,-1.36978125,0.52134375,0.01908102597871303,0.0326988432350003,True
893,24275,2,24221,3677.0,38619.0,43955.0,0.0034159999999999998,0.00061,-0.00549,0.1925,-2.205,-3.8675,0.7740625,-0.207125,-0.54134375,0.6905,0.738125,-0.67571875,-1.36890625,0.5230625,0.018990075010479685,0.03262113438572071,True
894,24276,2,24222,3677.0,38619.0,43955.0,0.002806,0.0025009999999999998,-0.001464,0.4025,-1.9775000000000003,-3.9025000000000003,0.7664062500000001,-0.20615625,-0.5356562500000001,0.69015625,0.73840625,-0.6785,-1.365125,0.5236875,0.019139888972182263,0.032701149708507245,True
895,24277,2,24223,3676.0,38619.0,43954.0,0.00061,0.001586,0.000366,0.3325,-1.6975000000000002,-3.9025000000000003,0.77228125,-0.2064375,-0.54034375,0.69475,0.7349375,-0.678125,-1.36521875,0.52328125,0.019113587438267694,0.03251992455219807,True
896,24278,2,24224,3676.0,38619.0,43956.0,-0.0013419999999999999,-0.000793,0.001586,0.21000000000000002,-1.6450000000000002,-3.7275000000000005,0.77825,-0.20796875,-0.5395625000000001,0.6905625,0.73921875,-0.6768125,-1.36725,0.52090625,0.018999364281752352,0.03262819186155378,True
897,24279,2,24225,3675.0,38618.0,43957.0,-0.0034159999999999998,-0.002806,0.001769,0.2625,-1.5925000000000002,-3.7625,0.7729375,-0.205875,-0.54003125,0.68940625,0.73340625,-0.6761875,-1.3668437500000001,0.5175625,0.01905936644386415,0.03259422055611472,True
898,24280,2,24226,3675.0,38621.0,43956.0,-0.000122,0.000732,0.0008539999999999999,0.28,-1.6450000000000002,-3.9200000000000004,0.7754375,-0.208625,-0.5431875,0.6958125000000001,0.72946875,-0.67684375,-1.37184375,0.53296875,0.018974012833387576,0.03266046638806058,True
899,24281,2,24227,3675.0,38620.0,43955.0,-0.001403,6.1e-05,0.0015249999999999999,0.21000000000000002,-1.5575,-3.8500000000000005,0.7803125,-0.2100625,-0.54321875,0.69540625,0.74840625,-0.68321875,-1.37484375,0.5361875,0.019169147054615795,0.032773600822665165,True
900,24282,2,24228,3673.0,38620.0,43953.0,-0.0008539999999999999,-0.000549,0.000732,0.22750000000000004,-1.6275000000000002,-3.7975000000000003,0.77390625,-0.206875,-0.54071875,0.69090625,0.75228125,-0.6823125,-1.36975,0.52271875,0.01926227536419045,0.03267794321977946,True
901,24283,2,24229,3672.0,38621.0,43954.0,6.1e-05,-0.001586,-0.000183,0.15750000000000003,-1.5750000000000002,-3.7800000000000002,0.77284375,-0.2066875,-0.5405,0.6856875,0.7341875,-0.67775,-1.36725,0.51709375,0.019088551427905703,0.03259123476135569,True
902,24284,2,24230,3672.0,38619.0,43955.0,0.000244,-0.002562,0.000976,0.07,-1.6975000000000002,-3.8500000000000005,0.773,-0.20465625,-0.54034375,0.6903125,0.73190625,-0.67584375,-1.3663125,0.51703125,0.019095091733185417,0.03256164056167013,True
903,24285,2,24231,3670.0,38616.0,43953.0,0.002623,-0.001647,-0.0018909999999999999,0.15750000000000003,-1.61,-3.99,0.77328125,-0.20603125,-0.53828125,0.69553125,0.7311875,-0.6746875,-1.3660625,0.5176875,0.01899340163882521,0.03263341521767519,True
904,24286,2,24232,3671.0,38619.0,43952.0,0.002013,-0.0011589999999999999,-0.000976,0.14,-1.3125000000000002,-3.8325000000000005,0.7796875,-0.20728125,-0.543375,0.69840625,0.740125,-0.6821875000000001,-1.3698125,0.53796875,0.0192408492966841,0.03257562506620812,True
905,24287,2,24233,3670.0,38619.0,43949.0,-0.000244,-6.1e-05,-0.0015249999999999999,0.385,-1.225,-3.7800000000000002,0.7785625,-0.2069375,-0.54071875,0.6909375,0.74428125,-0.68371875,-1.374625,0.5198125,0.019315616695721752,0.03286378616432755,True
906,24288,2,24234,3670.0,38617.0,43950.0,-0.002379,0.000915,0.000122,0.49000000000000005,-0.9625000000000001,-3.8500000000000005,0.77334375,-0.20696875,-0.53890625,0.69040625,0.73340625,-0.6755625000000001,-1.3666562500000001,0.5181875,0.018990195258973327,0.03263141944457106,True
907,24289,2,24235,3669.0,38620.0,43951.0,-0.001769,0.0021349999999999997,0.0,0.43750000000000006,-0.8575,-3.7275000000000005,0.7625937500000001,-0.20584375,-0.5395,0.690875,0.7310625000000001,-0.6756875,-1.36584375,0.517,0.01904075620993336,0.03257702594655461,True
908,24290,2,24236,3668.0,38621.0,43950.0,-0.0013419999999999999,0.002989,0.00042699999999999997,0.47250000000000003,-1.0675000000000001,-3.7450000000000006,0.7730625,-0.20515625,-0.54034375,0.69103125,0.731875,-0.67615625,-1.36609375,0.51853125,0.019087251483909697,0.03255329764757335,True
909,24291,2,24237,3668.0,38621.0,43951.0,-0.002013,0.002745,-0.000366,0.47250000000000003,-1.1725,-3.5525,0.7725625,-0.20628125,-0.5399375,0.69471875,0.72184375,-0.6764687500000001,-1.3676875,0.526,0.01905408366016714,0.032630092908547535,True
910,24292,2,24238,3668.0,38621.0,43951.0,0.000305,0.002623,0.000122,0.42000000000000004,-1.33,-3.5175000000000005,0.77796875,-0.20803125,-0.543875,0.6955,0.73021875,-0.68078125,-1.37175,0.51884375,0.01915458004393601,0.03262979494910678,True
911,24293,2,24239,3668.0,38621.0,43951.0,0.000793,0.001769,0.000549,0.35000000000000003,-1.54,-3.5875000000000004,0.7674062500000001,-0.20896875,-0.544,0.69228125,0.7430625000000001,-0.68175,-1.37121875,0.5241875,0.019155094351089363,0.03260461226365012,True
912,24294,2,24240,3667.0,38621.0,43950.0,0.0017079999999999999,0.00042699999999999997,0.000549,0.29750000000000004,-1.6800000000000002,-3.6925000000000003,0.77284375,-0.20734375,-0.5400625,0.69040625,0.73803125,-0.67896875,-1.36634375,0.52396875,0.019110401442523812,0.03257391992095826,True
913,24295,2,24241,3667.0,38620.0,43951.0,0.00366,-0.00366,0.0,0.0175,-1.8025000000000002,-3.7800000000000002,0.7726875,-0.20525000000000002,-0.5398125,0.69425,0.7302500000000001,-0.678,-1.368875,0.52646875,0.019156738795688466,0.03268030214189632,True
914,24296,2,24242,3668.0,38622.0,43949.0,-0.000183,-0.005124,-0.000122,0.052500000000000005,-1.9075000000000002,-3.9025000000000003,0.7776875,-0.2068125,-0.54103125,0.69634375,0.74428125,-0.68109375,-1.37090625,0.53,0.019216378933773957,0.03270971055675238,True
915,24297,2,24243,3668.0,38620.0,43950.0,-0.002623,-0.003172,-0.0028669999999999998,0.21000000000000002,-1.8025000000000002,-3.8675,0.7788125,-0.2094375,-0.54221875,0.6940000000000001,0.7398125,-0.6812812500000001,-1.3720625,0.52771875,0.019117473895323,0.032706988247407955,True
916,24298,2,24244,3668.0,38621.0,43948.0,-0.002928,-0.00061,0.0,0.5075000000000001,-1.6450000000000002,-3.9375000000000004,0.77384375,-0.2068125,-0.5407500000000001,0.6915625,0.73846875,-0.67778125,-1.3689375,0.52328125,0.019084728291770558,0.032645730630224454,True
917,24299,2,24245,3667.0,38620.0,43950.0,-0.0026839999999999998,0.00183,0.000732,0.6475000000000001,-1.5225000000000002,-3.7800000000000002,0.7703125000000001,-0.20628125,-0.5366875,0.695625,0.73821875,-0.6733750000000001,-1.37159375,0.5306875,0.01893108462056772,0.0329071266955786,True
918,24300,2,24246,3668.0,38620.0,43948.0,-0.002623,0.002928,-0.00042699999999999997,0.6300000000000001,-2.1,-3.7625,0.7789375000000001,-0.20425000000000001,-0.54325,0.6958125000000001,0.74515625,-0.67840625,-1.37096875,0.52965625,0.01921340645731529,0.03262464110677682,True
919,24301,2,24247,3669.0,38619.0,43950.0,0.0018909999999999999,0.005307,-0.002623,0.6300000000000001,-2.24,-3.7975000000000003,0.77415625,-0.2103125,-0.5456875,0.70296875,0.7450625,-0.67840625,-1.3675,0.52515625,0.01896774634707215,0.0323962747610131,True
920,24302,2,24248,3669.0,38621.0,43951.0,0.004026,0.004148,-0.00183,0.42000000000000004,-2.415,-3.9025000000000003,0.77684375,-0.20153125,-0.54440625,0.681875,0.736,-0.6776875,-1.36959375,0.523,0.019295010928394325,0.03252663436914515,True
921,24303,2,24249,3668.0,38622.0,43950.0,0.005063,0.0017079999999999999,0.000305,0.14,-2.3275,-3.9725000000000006,0.77115625,-0.2056875,-0.53853125,0.68696875,0.738625,-0.67796875,-1.3683750000000001,0.52346875,0.019137768378931105,0.03271174247463624,True
922,24304,2,24250,3669.0,38623.0,43949.0,0.003965,-0.002379,0.00122,-0.15750000000000003,-2.3625000000000003,-3.9200000000000004,0.765125,-0.20525000000000002,-0.53815625,0.68803125,0.732625,-0.67715625,-1.3685,0.5230312500000001,0.019123202253095918,0.03273129077399137,True
923,24305,2,24251,3669.0,38621.0,43947.0,0.003843,-0.0066489999999999995,-0.000183,-0.2625,-2.0475000000000003,-3.9200000000000004,0.7662187500000001,-0.20484375,-0.5376562500000001,0.6880000000000001,0.7383125,-0.67825,-1.36940625,0.523,0.019183136972840457,0.03278555248016496,True
924,24306,2,24252,3668.0,38618.0,43948.0,0.001586,-0.00549,-0.000183,-0.052500000000000005,-1.8025000000000002,-3.9025000000000003,0.7691875,-0.205625,-0.5393125,0.67421875,0.73784375,-0.6774375,-1.3643125,0.523875,0.019119185288180754,0.032526014651491145,True
925,24307,2,24253,3669.0,38619.0,43946.0,-0.0026839999999999998,-0.002379,0.00042699999999999997,0.2625,-1.5925000000000002,-3.9375000000000004,0.76734375,-0.20575000000000002,-0.53996875,0.6870625,0.73865625,-0.677625,-1.357875,0.52278125,0.019121572679704796,0.03225452645381365,True
926,24308,2,24254,3668.0,38621.0,43949.0,-0.0055509999999999995,0.000122,0.0,0.5075000000000001,-1.435,-3.7625,0.7680625,-0.2071875,-0.54134375,0.692625,0.73759375,-0.67825,-1.3693125,0.517,0.01908816467942419,0.03263662545053201,True
927,24309,2,24255,3667.0,38622.0,43951.0,-0.006771,0.003172,0.001403,0.7350000000000001,-1.33,-3.7275000000000005,0.7860625,-0.21271875,-0.54425,0.70321875,0.73775,-0.67409375,-1.3705,0.52746875,0.01869876173263709,0.032567351845647505,True
928,24310,2,24256,3667.0,38622.0,43949.0,-0.004026,0.006405,0.001281,0.5775,-1.4875,-3.8675,0.78246875,-0.21065625000000002,-0.5430625,0.70115625,0.74421875,-0.6795,-1.37059375,0.526375,0.01899729532608035,0.032617732882187674,True
929,24311,2,24257,3668.0,38621.0,43949.0,-0.0013419999999999999,0.003477,0.000976,0.49000000000000005,-1.8200000000000003,-3.9025000000000003,0.78553125,-0.21278125,-0.54259375,0.690875,0.74253125,-0.68053125,-1.37078125,0.52575,0.018952185237098573,0.03264335819378838,True
930,24312,2,24258,3666.0,38620.0,43951.0,-0.00061,0.000366,0.0006709999999999999,0.24500000000000002,-2.0825,-3.9550000000000005,0.7869375000000001,-0.21184375,-0.542375,0.69303125,0.7359375,-0.6776875,-1.36953125,0.5221875,0.018877123312303876,0.03260431743294429,True
931,24313,2,24259,3666.0,38619.0,43947.0,0.0035989999999999998,-0.000976,-0.0025009999999999998,0.1925,-2.2575000000000003,-3.99,0.7771250000000001,-0.2086875,-0.539375,0.688625,0.73771875,-0.678125,-1.36903125,0.52409375,0.01902241357477523,0.03270350538119188,True
932,24314,2,24260,3666.0,38617.0,43947.0,0.005246,0.000122,-0.003172,0.15750000000000003,-2.3975000000000004,-4.095000000000001,0.767875,-0.20546875,-0.53803125,0.68896875,0.73859375,-0.6776875,-1.3698125,0.5238125,0.019135453838614334,0.03278625925989796,True
933,24315,2,24261,3665.0,38620.0,43949.0,0.006039,-0.001586,-0.000244,0.0,-2.0475000000000003,-4.077500000000001,0.77028125,-0.2004375,-0.54034375,0.69578125,0.7376875,-0.67815625,-1.36971875,0.52146875,0.019357959531518892,0.032691533090015046,True
934,24316,2,24262,3667.0,38619.0,43947.0,0.002989,-0.0034159999999999998,0.001464,-0.17500000000000002,-1.8375000000000001,-3.9725000000000006,0.78009375,-0.20825,-0.541375,0.6958125000000001,0.7429375,-0.6790625,-1.3703750000000001,0.5288125,0.01907740620211971,0.032675906446002476,True
935,24317,2,24263,3667.0,38617.0,43946.0,0.000244,-0.004575,0.0008539999999999999,-0.10500000000000001,-1.4175000000000002,-3.8150000000000004,0.7785625,-0.2089375,-0.54046875,0.69140625,0.74603125,-0.6795,-1.37078125,0.5250625,0.019066938147045118,0.032727115961397525,True
936,24318,2,24264,3668.0,38617.0,43945.0,-0.000183,-0.002379,0.0006709999999999999,0.08750000000000001,-1.33,-3.7800000000000002,0.77265625,-0.20640625,-0.54046875,0.69125,0.73740625,-0.6784375,-1.36934375,0.523625,0.019127274569145637,0.03267230749711451,True
937,24319,2,24265,3667.0,38617.0,43947.0,-0.002074,-0.0008539999999999999,0.000305,0.42000000000000004,-1.2775,-3.8150000000000004,0.77290625,-0.19946875,-0.5378437500000001,0.6905625,0.73778125,-0.67740625,-1.372,0.51628125,0.019367412245766307,0.032877039650007885,True
938,24320,2,24266,3666.0,38615.0,43949.0,-0.003172,0.0026839999999999998,0.0011589999999999999,0.5425000000000001,-1.2950000000000002,-3.7450000000000006,0.76425,-0.20650000000000002,-0.5388437500000001,0.69628125,0.7349375,-0.6852812500000001,-1.37884375,0.541,0.019395414018221892,0.0330984345967298,True
939,24321,2,24267,3666.0,38617.0,43947.0,-0.0023179999999999997,0.001647,0.000549,0.6125,-1.435,-3.6400000000000006,0.77871875,-0.20800000000000002,-0.54303125,0.69478125,0.75140625,-0.6819375,-1.36878125,0.522,0.019201794834785558,0.03254984903935817,True
940,24322,2,24268,3667.0,38619.0,43946.0,-0.000122,0.001281,-0.000305,0.42000000000000004,-1.6975000000000002,-3.6225000000000005,0.78065625,-0.20871875,-0.54334375,0.69725,0.75225,-0.6786875,-1.3705625000000001,0.53146875,0.019043506669469357,0.03260545563386701,True
941,24323,2,24269,3668.0,38620.0,43946.0,-0.000122,-0.000122,-0.002806,0.4025,-1.9075000000000002,-3.6050000000000004,0.7806875,-0.20350000000000001,-0.5384375,0.695625,0.7445,-0.6828125,-1.363125,0.52628125,0.0194188770019624,0.032515216480619,True
942,24324,2,24270,3668.0,38617.0,43947.0,0.000793,-0.000305,-0.00183,0.5075000000000001,-1.7850000000000001,-3.5000000000000004,0.77290625,-0.20640625,-0.53996875,0.6905,0.724875,-0.6735,-1.3508125,0.5025000000000001,0.018930988712586378,0.03198492158781893,True
943,24325,2,24271,3669.0,38618.0,43949.0,0.001403,0.00042699999999999997,0.001281,0.31500000000000006,-1.5925000000000002,-3.5700000000000003,0.77284375,-0.20665625,-0.54009375,0.6889375,0.7169375,-0.67640625,-1.37153125,0.53209375,0.019036402434005156,0.032770489561996775,True
944,24326,2,24272,3667.0,38617.0,43946.0,-0.001952,-0.001281,0.000732,0.29750000000000004,-1.4875,-3.4825000000000004,0.7732187500000001,-0.20659375,-0.54109375,0.68990625,0.75290625,-0.68290625,-1.3674375,0.513,0.019297261642356237,0.032574979242582146,True
945,24327,2,24273,3668.0,38618.0,43949.0,-0.001952,-0.0006709999999999999,0.0,0.31500000000000006,-1.3825,-3.5175000000000005,0.773,-0.20859375,-0.54171875,0.69628125,0.71234375,-0.68446875,-1.3800000000000001,0.54159375,0.019278316451513663,0.0330292060677699,True
946,24328,2,24274,3668.0,38619.0,43948.0,-0.000793,-0.000732,0.001464,0.36750000000000005,-1.2600000000000002,-3.6400000000000006,0.77990625,-0.207625,-0.54115625,0.69384375,0.76078125,-0.689375,-1.3723750000000001,0.53653125,0.019512442093005594,0.032760778208583155,True
947,24329,2,24275,3668.0,38619.0,43947.0,0.000488,0.001403,0.000976,0.28,-1.2950000000000002,-3.6750000000000003,0.7746875,-0.20671875,-0.53971875,0.69346875,0.753625,-0.6823125,-1.3666875,0.53121875,0.019268605808309087,0.032600580978497884,True
948,24330,2,24276,3667.0,38619.0,43947.0,-0.001098,6.1e-05,0.0,0.43750000000000006,-1.8375000000000001,-3.7275000000000005,0.78071875,-0.2066875,-0.54140625,0.6849375,0.75853125,-0.6853125,-1.3726562500000001,0.52759375,0.019389059790107983,0.03276164670382117,True
949,24331,2,24277,3669.0,38618.0,43951.0,0.000305,6.1e-05,-0.000122,0.4025,-1.7850000000000001,-3.7450000000000006,0.7744375,-0.20271875,-0.54084375,0.68821875,0.7368750000000001,-0.67965625,-1.3674375,0.5161875,0.0193251273505886,0.03258483439645806,True
950,24332,2,24278,3670.0,38617.0,43947.0,0.000488,0.001647,-0.000793,0.35000000000000003,-1.6975000000000002,-3.9025000000000003,0.7729375,-0.2023125,-0.53915625,0.6918125,0.72946875,-0.6758125,-1.36459375,0.5121875,0.019188831168173288,0.032542902446446635,True
951,24333,2,24279,3668.0,38616.0,43945.0,0.001586,0.000366,-0.000549,0.28,-1.6275000000000002,-3.8850000000000002,0.772875,-0.20634375,-0.54084375,0.690875,0.7391875,-0.68075,-1.3725625000000001,0.52515625,0.01922171125269694,0.0327802424370814,True
952,24334,2,24280,3669.0,38619.0,43947.0,-6.1e-05,-0.0023179999999999997,0.000915,0.31500000000000006,-1.6625,-3.7275000000000005,0.7719375,-0.206125,-0.5399375,0.69015625,0.7437812500000001,-0.6805625,-1.36896875,0.52475,0.019223123460010278,0.032678949553280524,True
953,24335,2,24281,3669.0,38618.0,43946.0,0.002623,0.000793,-0.001647,0.42000000000000004,-1.6625,-3.7800000000000002,0.7724375,-0.2065625,-0.5404375,0.69371875,0.73659375,-0.6776875,-1.368875,0.5228125,0.01909113242478656,0.03265566565328577,True
954,24336,2,24282,3669.0,38619.0,43947.0,0.002989,0.000793,-0.00061,0.2625,-1.435,-3.7275000000000005,0.7775625,-0.209875,-0.54128125,0.69459375,0.7381562500000001,-0.678125,-1.37059375,0.526875,0.01897429403570976,0.032687942118027884,True
955,24337,2,24283,3670.0,38617.0,43948.0,0.0018909999999999999,-0.00122,0.001098,0.035,-1.225,-3.7625,0.77809375,-0.2068125,-0.53925,0.6903125,0.74009375,-0.67640625,-1.36896875,0.523,0.01903007047470699,0.03270604959060466,True
956,24338,2,24284,3670.0,38619.0,43947.0,-0.000915,-0.0018909999999999999,0.000244,0.15750000000000003,-1.0675000000000001,-3.7100000000000004,0.7764375,-0.20628125,-0.5405625000000001,0.69059375,0.7379375,-0.67884375,-1.3698125,0.52271875,0.019148486241378306,0.03268648516815014,True
957,24339,2,24285,3671.0,38621.0,43951.0,-0.004697,0.00042699999999999997,0.0011589999999999999,0.3325,-1.0150000000000001,-3.6400000000000006,0.77575,-0.2086875,-0.5414375,0.6910625,0.738375,-0.678625,-1.37284375,0.52909375,0.019042288620212837,0.032767562760874995,True
958,24340,2,24286,3671.0,38618.0,43949.0,-0.003965,0.002196,0.000549,0.665,-0.9100000000000001,-3.7800000000000002,0.77378125,-0.20675000000000002,-0.5403125,0.69075,0.7363125,-0.67725,-1.3685625000000001,0.5222187500000001,0.019066143917981136,0.032648676881080675,True
959,24341,2,24287,3672.0,38621.0,43952.0,-0.002806,0.002989,0.002623,0.525,-1.435,-3.7450000000000006,0.7729375,-0.2073125,-0.54015625,0.69096875,0.73778125,-0.67784375,-1.365875,0.52284375,0.019066951503816047,0.03255234641028547,True
960,24342,2,24288,3671.0,38621.0,43952.0,-0.001769,-0.0006709999999999999,0.000183,0.5075000000000001,-1.8900000000000001,-3.6575,0.77340625,-0.2015625,-0.540875,0.690875,0.7375,-0.6775625000000001,-1.36934375,0.52315625,0.01928877700137524,0.03265629407540351,True
961,24343,2,24289,3673.0,38621.0,43949.0,0.0032329999999999998,-0.001464,-0.002013,0.35000000000000003,-2.2225,-3.7275000000000005,0.7732187500000001,-0.2064375,-0.54215625,0.68915625,0.73828125,-0.6780625,-1.36815625,0.5224375,0.019111103231868386,0.0325605058507159,True
962,24344,2,24290,3671.0,38618.0,43950.0,0.005307,0.0,-0.001769,0.2625,-2.205,-3.7975000000000003,0.7731875,-0.20828125,-0.5407500000000001,0.675125,0.7388750000000001,-0.6773750000000001,-1.369,0.52228125,0.019009061944392384,0.03264811383972565,True
963,24345,2,24291,3672.0,38618.0,43947.0,0.002928,0.00122,0.000793,0.31500000000000006,-1.8550000000000002,-3.7625,0.7691875,-0.2031875,-0.5375,0.68553125,0.7388750000000001,-0.6708125,-1.37034375,0.52771875,0.01895458449128905,0.03282745232807498,True
964,24346,2,24292,3672.0,38618.0,43949.0,0.000305,0.001952,0.0032329999999999998,0.29750000000000004,-1.4700000000000002,-3.9375000000000004,0.78040625,-0.2104375,-0.547125,0.6965625,0.746,-0.6785625000000001,-1.36946875,0.51853125,0.018968892535778777,0.03241470123413601,True
965,24347,2,24293,3674.0,38618.0,43950.0,-0.0025009999999999998,-0.000732,0.0034159999999999998,0.1925,-1.2950000000000002,-4.025,0.77034375,-0.208125,-0.5415625000000001,0.6800625,0.72521875,-0.67834375,-1.3683750000000001,0.52259375,0.01905390227008245,0.03259225314983715,True
966,24348,2,24294,3673.0,38617.0,43949.0,-0.003294,-0.002562,0.0028669999999999998,0.10500000000000001,-1.12,-3.99,0.765625,-0.2046875,-0.53653125,0.69940625,0.733625,-0.68009375,-1.372125,0.5270625,0.019262740847570726,0.03293353434132931,True
967,24349,2,24295,3673.0,38618.0,43950.0,-0.000366,-0.001769,-0.00244,0.22750000000000004,-1.435,-3.8500000000000005,0.78859375,-0.211375,-0.5435625000000001,0.69246875,0.7458750000000001,-0.6779375,-1.36909375,0.5231875,0.018906057282947572,0.032540825389160775,True
968,24350,2,24296,3674.0,38618.0,43948.0,0.001098,-0.000549,-0.003843,0.2625,-1.6975000000000002,-3.7975000000000003,0.772375,-0.207875,-0.5425625000000001,0.6859375,0.73825,-0.6779375,-1.36934375,0.523,0.0190478843704017,0.03258977678521937,True
969,24351,2,24297,3674.0,38617.0,43947.0,0.0025009999999999998,0.000122,-0.0013419999999999999,0.42000000000000004,-1.6800000000000002,-3.9375000000000004,0.7745625,-0.20996875,-0.54121875,0.6920000000000001,0.7381562500000001,-0.6782812500000001,-1.368875,0.522875,0.018976706491664608,0.03262487004252258,True
970,24352,2,24298,3674.0,38620.0,43951.0,0.001098,0.0026839999999999998,-0.000122,0.47250000000000003,-1.5050000000000001,-3.9725000000000006,0.7714375,-0.2020625,-0.5388437500000001,0.68471875,0.73840625,-0.6782812500000001,-1.36871875,0.51928125,0.019297079289101626,0.03271253105756474,True
971,24353,2,24299,3675.0,38620.0,43950.0,0.000488,0.002379,0.003294,0.525,-1.4000000000000001,-3.8850000000000002,0.76628125,-0.20484375,-0.531625,0.685125,0.73809375,-0.677625,-1.3708437500000001,0.52253125,0.01915829622988436,0.033078078059583654,True
972,24354,2,24300,3675.0,38621.0,43948.0,-0.0017079999999999999,0.001281,-0.004148,0.6125,-1.4175000000000002,-3.5700000000000003,0.7666875,-0.2053125,-0.53890625,0.6843125,0.7385625,-0.68040625,-1.3695,0.5229375,0.01924983507919364,0.03273985494392873,True
973,24355,2,24301,3675.0,38619.0,43948.0,0.000305,0.002745,-0.0048189999999999995,0.6475000000000001,-1.4175000000000002,-3.7625,0.765375,-0.20021875,-0.53725,0.6856875,0.74015625,-0.67840625,-1.364875,0.52275,0.019376757767734697,0.03262878291337923,True
974,24356,2,24302,3676.0,38617.0,43949.0,0.000976,0.0035989999999999998,-0.0017079999999999999,0.5425000000000001,-1.2950000000000002,-4.0600000000000005,0.7655625,-0.20765625000000001,-0.540625,0.69159375,0.73740625,-0.6788125,-1.36215625,0.5235,0.019091528411263714,0.03239201122735769,True
975,24357,2,24303,3676.0,38620.0,43949.0,0.0011589999999999999,0.000305,0.000305,0.31500000000000006,-1.4000000000000001,-4.130000000000001,0.77396875,-0.20771875,-0.54028125,0.68565625,0.737125,-0.67765625,-1.36921875,0.52334375,0.019043036147324565,0.03267493209659836,True
976,24358,2,24304,3674.0,38619.0,43949.0,0.0006709999999999999,-0.004575,0.003294,-0.0175,-1.4875,-3.7975000000000003,0.773875,-0.20750000000000002,-0.53771875,0.69425,0.73771875,-0.67471875,-1.36953125,0.523,0.018935119574564552,0.03278785452529794,True
977,24359,2,24305,3676.0,38616.0,43943.0,-0.000732,-0.005856,0.003477,-0.035,-1.33,-3.9200000000000004,0.7761875,-0.20975,-0.54209375,0.6958125000000001,0.7370625000000001,-0.67903125,-1.37134375,0.52525,0.01901538375822592,0.03268451242358813,True
978,24360,2,24306,3677.0,38620.0,43946.0,-0.00183,-0.002562,-0.000976,0.2625,-1.3650000000000002,-4.0425,0.7788437500000001,-0.2090625,-0.54109375,0.69559375,0.74403125,-0.68065625,-1.371,0.52953125,0.01910782862591022,0.03271082141027157,True
979,24361,2,24307,3676.0,38617.0,43945.0,-0.001952,-0.000122,-0.004331,0.4025,-1.435,-4.025,0.77271875,-0.20646875,-0.54040625,0.68959375,0.7449375,-0.6772812500000001,-1.3687500000000001,0.5223125,0.01907878324319054,0.03265213106676522,True
980,24362,2,24308,3676.0,38615.0,43944.0,-0.001647,0.0025009999999999998,-0.0013419999999999999,0.5075000000000001,-1.5225000000000002,-3.9375000000000004,0.77965625,-0.20965625000000002,-0.54115625,0.6959375,0.73803125,-0.67509375,-1.37021875,0.52853125,0.018862643632306365,0.032678571208614435,True
981,24363,2,24309,3673.0,38615.0,43941.0,-0.0017079999999999999,0.0021349999999999997,0.00488,0.385,-1.7325000000000002,-3.7800000000000002,0.7791875,-0.2063125,-0.53959375,0.68971875,0.744625,-0.680625,-1.3663125,0.527875,0.01921801007875611,0.03259120733453079,True
982,24364,2,24310,3674.0,38615.0,43941.0,0.005246,0.002928,0.001281,0.385,-2.3275,-3.8325000000000005,0.7733125000000001,-0.20600000000000002,-0.54046875,0.6908125,0.7425625,-0.6812812500000001,-1.3687500000000001,0.5231875,0.019256749484996855,0.03264966740576497,True
983,24365,2,24311,3672.0,38614.0,43939.0,0.006588,0.0026839999999999998,-0.0040869999999999995,0.24500000000000002,-2.2225,-4.112500000000001,0.76578125,-0.20853125,-0.54246875,0.6964375,0.73809375,-0.67825,-1.36940625,0.5231875,0.019033713897865533,0.032595855490311285,True
984,24366,2,24312,3672.0,38611.0,43935.0,0.004026,0.002074,-0.004758,0.2625,-1.9075000000000002,-3.9725000000000006,0.77975,-0.210125,-0.54203125,0.695125,0.7415,-0.68175,-1.3726875,0.5289375000000001,0.01910824799700183,0.03273820520589315,True
985,24367,2,24313,3671.0,38611.0,43936.0,-0.002013,0.001098,-0.0018909999999999999,0.43750000000000006,-1.5050000000000001,-3.8675,0.77225,-0.2070625,-0.5404375,0.6910937500000001,0.74453125,-0.67771875,-1.36834375,0.5229375,0.01907211338163095,0.03263540805654685,True
986,24368,2,24314,3672.0,38613.0,43938.0,-0.0035989999999999998,0.00042699999999999997,0.002989,0.5425000000000001,-1.4000000000000001,-3.7625,0.7760625,-0.2085,-0.543,0.69115625,0.7374375,-0.675125,-1.36971875,0.5230312500000001,0.018910745133003375,0.03258683149571771,True
987,24369,2,24315,3670.0,38610.0,43932.0,0.002806,-0.00183,0.0025009999999999998,-0.08750000000000001,-1.9775000000000003,-4.077500000000001,0.77996875,-0.2106875,-0.5413125,0.69475,0.7388125,-0.6784375,-1.36978125,0.5221250000000001,0.018953793164579402,0.032655730920029116,True
988,24370,2,24316,3669.0,38610.0,43932.0,0.0055509999999999995,-0.0060999999999999995,-0.00061,-0.31500000000000006,-2.0650000000000004,-4.0425,0.77709375,-0.2108125,-0.54121875,0.6891875000000001,0.738625,-0.6734687500000001,-1.369125,0.5221250000000001,0.018751163636041245,0.032634403039127284,True
989,24371,2,24317,3668.0,38606.0,43925.0,0.00183,-0.004148,-0.003538,0.0,-1.7325000000000002,-4.0075,0.77365625,-0.20609375,-0.54028125,0.69034375,0.73803125,-0.67009375,-1.36796875,0.5228125,0.018808197678616446,0.03262726740784084,True
990,24372,2,24318,3666.0,38606.0,43927.0,-0.001769,-0.002196,-0.0026839999999999998,0.31500000000000006,-1.4000000000000001,-3.9725000000000006,0.7722187500000001,-0.2070625,-0.5404375,0.6903125,0.73734375,-0.67759375,-1.369125,0.51303125,0.019067144664377984,0.032665198346415174,True
991,24373,2,24319,3666.0,38607.0,43926.0,-0.004758,0.000793,-0.0015249999999999999,0.5775,-0.9975,-3.7975000000000003,0.77328125,-0.20746875,-0.54040625,0.69384375,0.7379687500000001,-0.67790625,-1.368875,0.52246875,0.0190631042696339,0.0326568974777163,True
992,24374,2,24320,3665.0,38607.0,43925.0,-0.004026,0.000793,0.002013,0.35000000000000003,-1.0325000000000002,-3.8150000000000004,0.77915625,-0.208375,-0.54290625,0.69640625,0.73890625,-0.6783125,-1.3711875,0.52215625,0.019042529751578434,0.032646530636376396,True
993,24375,2,24321,3664.0,38607.0,43923.0,-0.001403,6.1e-05,-0.000122,0.35000000000000003,-1.2075,-3.7800000000000002,0.7792187500000001,-0.20834375,-0.5400625,0.6910000000000001,0.7408125,-0.67859375,-1.369375,0.522375,0.01905497552914659,0.03268951245349954,True
994,24376,2,24322,3662.0,38604.0,43921.0,-0.000183,-0.00122,0.0011589999999999999,0.42000000000000004,-1.5575,-3.8325000000000005,0.7722187500000001,-0.20634375,-0.53946875,0.6910000000000001,0.73753125,-0.6783750000000001,-1.36909375,0.5220625,0.019127323010530477,0.03270219299812394,True
995,24377,2,24323,3661.0,38605.0,43920.0,0.002074,0.0017079999999999999,0.001586,0.56,-1.8200000000000003,-3.7450000000000006,0.7731875,-0.206125,-0.5400625,0.6949375,0.7388750000000001,-0.67821875,-1.3695,0.528625,0.019129976712764167,0.032694278562841204,True
996,24378,2,24324,3659.0,38604.0,43918.0,0.00244,0.00366,-0.000976,0.6825000000000001,-1.9600000000000002,-3.8150000000000004,0.7755,-0.2064375,-0.5397500000000001,0.6909375,0.74071875,-0.67834375,-1.3688437500000001,0.5230312500000001,0.019122282061574736,0.032681574224288405,True
997,24379,2,24325,3657.0,38601.0,43913.0,0.002989,0.0021349999999999997,0.001037,0.6475000000000001,-1.8025000000000002,-3.6225000000000005,0.772625,-0.20753125,-0.5415625000000001,0.694625,0.738,-0.67878125,-1.369375,0.5232187500000001,0.0190953513962526,0.032630386046167865,True
998,24380,2,24326,3657.0,38601.0,43913.0,0.0025009999999999998,-0.000366,-0.000488,0.5425000000000001,-1.7500000000000002,-3.6400000000000006,0.77725,-0.2080625,-0.54171875,0.69071875,0.74415625,-0.68175,-1.373625,0.52125,0.019191811763752568,0.03278625935395514,True
999,24381,2,24327,3655.0,38599.0,43912.0,0.000732,-0.00061,-0.00244,0.36750000000000005,-1.6625,-3.6050000000000004,0.7769375000000001,-0.20771875,-0.5405,0.69621875,0.749375,-0.68359375,-1.3725,0.53596875,0.01927899984174711,0.032791408020494635,True
1000,24382,2,24328,3654.0,38599.0,43909.0,0.000122,-0.0026839999999999998,-0.001281,0.45500000000000007,-1.4525000000000001,-3.6400000000000006,0.78,-0.20859375,-0.5400625,0.69065625,0.7536875000000001,-0.68384375,-1.37278125,0.52840625,0.019253484376800106,0.032819372137218895,True
1001,24383,2,24329,3655.0,38597.0,43908.0,-0.0026839999999999998,-0.001098,-0.002074,0.5775,-1.3475000000000001,-3.6225000000000005,0.7736875,-0.20265625,-0.54146875,0.69271875,0.7333125,-0.676875,-1.3678125,0.51253125,0.019217131423650686,0.03257449770255122,True
1002,24384,2,24330,3652.0,38598.0,43907.0,-0.0051849999999999995,0.000366,0.0017079999999999999,0.525,-1.2950000000000002,-3.5525,0.7771875,-0.211,-0.54609375,0.70253125,0.7395625,-0.680625,-1.3735625,0.5310312500000001,0.019028083770163847,0.03261145335819517,True
1003,24385,2,24331,3652.0,38599.0,43907.0,-0.003355,0.00244,0.0006709999999999999,0.5075000000000001,-1.4175000000000002,-3.6400000000000006,0.77525,-0.20575000000000002,-0.53834375,0.68315625,0.751125,-0.6833125,-1.36925,0.52509375,0.019347585539825744,0.03275249563940597,True
1004,24386,2,24332,3651.0,38597.0,43905.0,-0.000976,0.003294,-0.000488,0.5075000000000001,-1.5050000000000001,-3.8500000000000005,0.7674062500000001,-0.2121875,-0.5525625,0.7078125000000001,0.7340625000000001,-0.67659375,-1.368,0.52165625,0.01881970642726977,0.032144335383159896,True
1005,24387,2,24333,3649.0,38592.0,43903.0,-6.1e-05,0.00183,0.0,0.2625,-1.5225000000000002,-4.0075,0.792875,-0.2096875,-0.543625,0.67890625,0.7389375,-0.6792812500000001,-1.3747500000000001,0.5366562500000001,0.01902785357657043,0.03275401728095844,True
1006,24388,2,24334,3649.0,38595.0,43902.0,-0.0006709999999999999,-0.000305,-6.1e-05,0.0,-1.5050000000000001,-4.0600000000000005,0.7605625,-0.20278125,-0.53759375,0.696875,0.74590625,-0.6808125,-1.3673125,0.519625,0.01936853780644377,0.032708184992004966,True
1007,24389,2,24335,3647.0,38594.0,43903.0,0.00183,-0.003477,0.000183,0.052500000000000005,-1.9425000000000001,-4.0075,0.79525,-0.20584375,-0.53803125,0.67834375,0.72446875,-0.6794687500000001,-1.3730625,0.535375,0.019191053292020317,0.03291014831181692,True
1008,24390,2,24336,3647.0,38593.0,43900.0,0.005612,-0.002745,0.0,-0.035,-2.3800000000000003,-4.077500000000001,0.76209375,-0.2073125,-0.5427500000000001,0.71225,0.7360625000000001,-0.6765,-1.3666875,0.52125,0.019013535144773365,0.032481083704760425,True
1009,24391,2,24337,3646.0,38591.0,43899.0,0.007076,-0.003294,-0.002074,0.08750000000000001,-2.7475,-4.165,0.79559375,-0.21565625,-0.54821875,0.7118125000000001,0.7409375,-0.68071875,-1.373125,0.53421875,0.018843150586933373,0.03251102298199374,True
1010,24392,2,24338,3645.0,38589.0,43897.0,0.0060999999999999995,-0.00244,0.000183,0.14,-2.6250000000000004,-4.130000000000001,0.789375,-0.21084375,-0.53409375,0.68040625,0.7465937500000001,-0.6843125,-1.36771875,0.53059375,0.01918095754135344,0.03286164626056492,True
1011,24393,2,24339,3645.0,38588.0,43896.0,0.002074,-0.000793,0.000122,0.14,-2.1,-4.025,0.76065625,-0.203375,-0.53546875,0.6816875,0.7399375,-0.67703125,-1.3661875,0.5201250000000001,0.019194215268499935,0.03274905817044836,True
1012,24394,2,24340,3645.0,38588.0,43894.0,-0.001403,0.000793,0.00061,0.525,-1.2075,-3.7450000000000006,0.7644062500000001,-0.20690625,-0.543,0.6905625,0.7353125,-0.67734375,-1.36803125,0.520625,0.01906353879760661,0.03252247846391312,True
1013,24395,2,24341,3644.0,38589.0,43895.0,-0.003721,0.002806,0.000793,0.525,-0.8750000000000001,-3.5875000000000004,0.7935625000000001,-0.20984375,-0.5506875,0.70715625,0.73584375,-0.67853125,-1.3688437500000001,0.51765625,0.01899170964641585,0.03225043514251611,True
1014,24396,2,24342,3644.0,38587.0,43895.0,-0.003965,0.002013,-0.000244,0.49000000000000005,-0.8750000000000001,-3.3775000000000004,0.79259375,-0.2154375,-0.54059375,0.68125,0.7435,-0.68175,-1.37203125,0.5290625,0.01889300799173478,0.03276984376250917,True
1015,24397,2,24343,3643.0,38587.0,43894.0,-0.0008539999999999999,0.001098,-0.000183,0.45500000000000007,-0.9800000000000001,-3.2550000000000003,0.7613125000000001,-0.20675000000000002,-0.54228125,0.69728125,0.73765625,-0.67790625,-1.36934375,0.52346875,0.01909222951197491,0.03260086300025006,True
1016,24398,2,24344,3642.0,38588.0,43893.0,0.000244,0.002379,-0.0011589999999999999,0.49000000000000005,-1.0850000000000002,-3.2900000000000005,0.77415625,-0.20650000000000002,-0.53690625,0.6946875,0.74515625,-0.67896875,-1.3704687500000001,0.52890625,0.019144590472403755,0.032855620769718735,True
1017,24399,2,24345,3641.0,38586.0,43893.0,-0.000549,-0.00061,-0.000366,0.42000000000000004,-1.0150000000000001,-3.1675000000000004,0.77259375,-0.20790625000000001,-0.539625,0.69025,0.73771875,-0.68025,-1.36165625,0.52234375,0.019138531822003424,0.03241236463016882,True
1018,24400,2,24346,3640.0,38585.0,43892.0,-0.00366,-0.001403,-0.001952,0.56,-1.0150000000000001,-3.1325000000000003,0.77309375,-0.20696875,-0.54303125,0.69603125,0.738125,-0.67809375,-1.370125,0.5269375000000001,0.019090818147167468,0.03260109084996625,True
1019,24401,2,24347,3640.0,38586.0,43891.0,-0.005124,0.000549,0.000366,0.77,-1.0150000000000001,-3.2550000000000003,0.78,-0.20928125,-0.54325,0.69828125,0.74228125,-0.682125,-1.3730625,0.5289375000000001,0.019157335521151442,0.032704467582500146,True
1020,24402,2,24348,3641.0,38586.0,43891.0,-0.003294,0.001647,0.00183,0.7175,-1.0675000000000001,-3.4125000000000005,0.7774375,-0.20603125,-0.5341875,0.6901875000000001,0.7461875,-0.6772812500000001,-1.3684375,0.51465625,0.019096512100578344,0.03288535212308602,True
1021,24403,2,24349,3639.0,38583.0,43891.0,-0.0008539999999999999,-6.1e-05,0.0026839999999999998,0.6125,-1.225,-3.5525,0.7759375000000001,-0.21009375,-0.54246875,0.6959062500000001,0.73740625,-0.6793750000000001,-1.3675,0.53046875,0.019015118899891107,0.03252315955454814,True
1022,24404,2,24350,3640.0,38585.0,43889.0,-0.001281,-0.0006709999999999999,-0.001586,0.36750000000000005,-1.5750000000000002,-3.6050000000000004,0.779625,-0.20659375,-0.540125,0.6914375,0.74459375,-0.6791875,-1.3682812500000001,0.52259375,0.01914948577622339,0.03264534328670769,True
1023,24405,2,24351,3638.0,38587.0,43888.0,-0.001098,-0.001281,-0.0023179999999999997,0.45500000000000007,-1.5925000000000002,-3.7800000000000002,0.7722187500000001,-0.20640625,-0.540875,0.6926875,0.738375,-0.6774375,-1.3688125,0.52259375,0.019087526814727016,0.03263603686613238,True
1024,24406,2,24352,3638.0,38584.0,43888.0,0.0008539999999999999,0.0006709999999999999,-0.0011589999999999999,0.5075000000000001,-1.5750000000000002,-3.9200000000000004,0.76846875,-0.2095625,-0.54171875,0.6983125,0.74109375,-0.67903125,-1.3731875,0.5290312500000001,0.01902298130118053,0.03276958206374347,True
1025,24407,2,24353,3638.0,38587.0,43888.0,0.002745,0.001952,0.0,0.36750000000000005,-1.54,-4.095000000000001,0.781375,-0.207875,-0.540875,0.69615625,0.745,-0.68190625,-1.3726875,0.52859375,0.01920561747535201,0.032783775861346974,True
1026,24408,2,24354,3639.0,38584.0,43885.0,0.003172,-0.0011589999999999999,-0.000732,0.15750000000000003,-1.9250000000000003,-3.9725000000000006,0.77890625,-0.20996875,-0.54234375,0.696375,0.7465,-0.6773750000000001,-1.37025,0.5300312500000001,0.018940679468541527,0.03263295592278358,True
1027,24409,2,24355,3638.0,38582.0,43882.0,0.0042699999999999995,-0.001403,-0.001769,0.035,-1.8025000000000002,-4.077500000000001,0.7803125,-0.20884375,-0.53990625,0.6845625,0.74590625,-0.67853125,-1.36946875,0.5190625,0.019032230696468214,0.03269924601791277,True
1028,24410,2,24356,3637.0,38582.0,43883.0,0.0026839999999999998,-0.001952,-0.000183,0.15750000000000003,-1.6800000000000002,-4.165,0.7728125,-0.20600000000000002,-0.5385,0.68990625,0.73753125,-0.677625,-1.3686875,0.5228125,0.0191114420451725,0.03272488968930695,True
1029,24411,2,24357,3637.0,38580.0,43883.0,0.000244,-0.000793,0.0013419999999999999,0.21000000000000002,-1.3825,-4.1825,0.76515625,-0.20703125,-0.5398125,0.691125,0.73778125,-0.6783750000000001,-1.3689375,0.5219375,0.019099464612236425,0.03268268527209702,True
1030,24412,2,24358,3638.0,38580.0,43881.0,-0.002257,-0.000488,-0.000122,0.4025,-1.33,-4.130000000000001,0.7601875,-0.20653125,-0.5405625000000001,0.6909375,0.7293437500000001,-0.67540625,-1.3694375,0.5223125,0.019001713497624785,0.03267218676015186,True
1031,24413,2,24359,3637.0,38580.0,43880.0,-0.002562,0.000122,-0.000305,0.3325,-1.435,-4.130000000000001,0.7695625,-0.2074375,-0.54209375,0.6870625,0.738625,-0.67765625,-1.3699375,0.52378125,0.019054433096741104,0.03263089434098921,True
1032,24414,2,24360,3638.0,38579.0,43882.0,6.1e-05,-0.001098,0.000366,0.35000000000000003,-1.5575,-4.1475,0.7735625,-0.20090625,-0.54,0.68703125,0.73759375,-0.6778125,-1.36896875,0.52275,0.019325304866466587,0.03267648591352378,True
1033,24415,2,24361,3636.0,38580.0,43881.0,-0.0006709999999999999,-0.000976,0.000183,0.24500000000000002,-1.6975000000000002,-4.025,0.7735625,-0.20675000000000002,-0.54021875,0.6900000000000001,0.73759375,-0.6785625000000001,-1.3680625,0.5219375,0.019118313718637384,0.03263330615020363,True
1034,24416,2,24362,3637.0,38576.0,43880.0,0.00061,0.000488,-0.000366,0.2625,-1.7675,-3.8150000000000004,0.77284375,-0.20540625,-0.53459375,0.69403125,0.7375625,-0.678,-1.3699375,0.5183125000000001,0.019150407245319717,0.03292651982292034,True
1035,24417,2,24363,3637.0,38577.0,43878.0,0.002196,0.000305,-0.0011589999999999999,0.2625,-1.7675,-3.8150000000000004,0.7770312500000001,-0.20553125,-0.54021875,0.690875,0.7424375,-0.68053125,-1.37115625,0.52228125,0.0192459390435528,0.03275126650958212,True
1036,24418,2,24364,3636.0,38578.0,43878.0,0.001647,0.00061,0.001098,0.1925,-1.5225000000000002,-3.9200000000000004,0.77290625,-0.20675000000000002,-0.54025,0.6836875,0.73825,-0.677875,-1.36890625,0.52190625,0.019090987372291982,0.03266424818768054,True
1037,24419,2,24365,3635.0,38576.0,43877.0,0.00042699999999999997,0.000549,0.001586,0.1925,-1.2950000000000002,-3.9025000000000003,0.77490625,-0.20734375,-0.5428125,0.68059375,0.738125,-0.67865625,-1.3688437500000001,0.51453125,0.019097980669024472,0.032560855281392166,True
1038,24420,2,24366,3635.0,38577.0,43877.0,-0.001281,0.000366,0.00122,0.29750000000000004,-1.12,-3.7100000000000004,0.77359375,-0.2059375,-0.537375,0.69153125,0.73784375,-0.67778125,-1.36928125,0.52246875,0.01912018528813242,0.032791873045279904,True
1039,24421,2,24367,3637.0,38575.0,43878.0,-0.001769,-0.000488,0.000488,0.42000000000000004,-1.4000000000000001,-3.7275000000000005,0.7706875,-0.20640625,-0.53953125,0.69053125,0.7384375,-0.67815625,-1.36928125,0.52278125,0.019116095838804813,0.03270687852065182,True
1040,24422,2,24368,3636.0,38574.0,43875.0,-0.0028669999999999998,0.00042699999999999997,-0.000549,0.42000000000000004,-1.5050000000000001,-3.8500000000000005,0.7728125,-0.20603125,-0.54025,0.68471875,0.73825,-0.67825,-1.36834375,0.50959375,0.01913501767750955,0.03264279915790718,True
1041,24423,2,24369,3636.0,38575.0,43875.0,0.00042699999999999997,0.00122,0.000732,0.4025,-1.8725000000000003,-3.8500000000000005,0.7734375,-0.20665625,-0.53990625,0.6898125,0.73559375,-0.67640625,-1.36871875,0.51740625,0.019036402434005156,0.03267064876896867,True
1042,24424,2,24370,3634.0,38573.0,43874.0,0.000976,6.1e-05,-0.000976,0.22750000000000004,-1.8550000000000002,-3.8500000000000005,0.7724375,-0.20684375,-0.54009375,0.6800625,0.72828125,-0.6763125,-1.36584375,0.51703125,0.019025077186877088,0.03255361848548799,True
1043,24425,2,24371,3635.0,38571.0,43876.0,0.0011589999999999999,-0.001647,-0.000488,0.24500000000000002,-1.6975000000000002,-3.8325000000000005,0.773625,-0.20615625,-0.5413125,0.6961875,0.73128125,-0.6765,-1.36459375,0.51871875,0.019060391465564402,0.032457892214417985,True
1044,24426,2,24372,3636.0,38575.0,43876.0,0.0008539999999999999,-0.001952,-0.00061,0.12250000000000001,-1.5575,-3.8150000000000004,0.77934375,-0.206875,-0.5418125,0.69334375,0.7364375,-0.6755,-1.3611875,0.50865625,0.018991509797167228,0.032308226891978147,True
1045,24427,2,24373,3636.0,38573.0,43874.0,0.000244,-0.001037,0.001098,0.2625,-1.4000000000000001,-3.7975000000000003,0.77715625,-0.20825,-0.539125,0.6905625,0.732,-0.66528125,-1.3646562500000001,0.516875,0.018529334629014217,0.032546518346764516,True
1046,24428,2,24374,3637.0,38572.0,43874.0,0.000976,0.000549,0.000488,0.15750000000000003,-1.2950000000000002,-3.7975000000000003,0.77615625,-0.210125,-0.5406875,0.6965,0.72575,-0.6768125,-1.366875,0.53465625,0.01891198468197625,0.03256954197156725,True
1047,24429,2,24375,3635.0,38573.0,43873.0,0.000122,-0.001281,-0.000183,0.08750000000000001,-1.435,-3.8325000000000005,0.7796875,-0.210125,-0.5434375,0.69396875,0.74803125,-0.6795,-1.368125,0.529375,0.019018821288924005,0.032508807805070344,True
1048,24430,2,24376,3634.0,38571.0,43874.0,0.000793,-0.001403,-0.0013419999999999999,0.21000000000000002,-1.5575,-3.8150000000000004,0.7678125,-0.2091875,-0.54246875,0.6896875,0.7421875,-0.68578125,-1.3760937500000001,0.53021875,0.019306407408110692,0.03285080076597684,True
1049,24431,2,24377,3637.0,38570.0,43872.0,-0.001037,0.000366,-6.1e-05,0.43750000000000006,-1.4175000000000002,-3.8150000000000004,0.77678125,-0.2091875,-0.54328125,0.69721875,0.75325,-0.68621875,-1.36965625,0.5403125,0.01932378769024722,0.03257336212428972,True
1050,24432,2,24378,3638.0,38569.0,43874.0,-0.0021349999999999997,0.000976,0.0017079999999999999,0.45500000000000007,-1.4525000000000001,-3.8675,0.77925,-0.207625,-0.541875,0.68821875,0.7530625,-0.6824687500000001,-1.3718125,0.52134375,0.01923809789083598,0.03271100556966516,True
1051,24433,2,24379,3635.0,38571.0,43874.0,-0.001464,0.0018909999999999999,-0.001098,0.525,-1.8900000000000001,-3.7625,0.76584375,-0.21040625000000002,-0.54309375,0.697875,0.74653125,-0.68125,-1.372125,0.53365625,0.01907698151430742,0.032674884346502314,True
1052,24434,2,24380,3635.0,38570.0,43872.0,0.001586,0.00061,-0.0008539999999999999,0.49000000000000005,-1.8900000000000001,-3.7975000000000003,0.7748125,-0.2070625,-0.5406562500000001,0.69059375,0.74715625,-0.6790625,-1.36946875,0.52378125,0.01912552391323617,0.032669682923494404,True
1053,24435,2,24381,3637.0,38569.0,43873.0,0.000976,-6.1e-05,-0.0008539999999999999,0.385,-1.8550000000000002,-3.7800000000000002,0.7730312500000001,-0.20621875,-0.54021875,0.690875,0.73765625,-0.67871875,-1.3665625000000001,0.518625,0.01914605068385084,0.032576102891355506,True
1054,24436,2,24382,3635.0,38570.0,43872.0,0.000244,-0.000305,0.0008539999999999999,0.1925,-1.8025000000000002,-3.7975000000000003,0.76609375,-0.20696875,-0.53940625,0.6900000000000001,0.725,-0.678,-1.36746875,0.52278125,0.01908709174163222,0.032642693213133456,True
1055,24437,2,24383,3636.0,38570.0,43872.0,-0.0008539999999999999,-0.001586,0.000488,0.2625,-1.715,-3.7800000000000002,0.77253125,-0.20696875,-0.53946875,0.69503125,0.7379687500000001,-0.677625,-1.368125,0.5295625,0.019072185836359862,0.032665254132893146,True
1056,24438,2,24384,3636.0,38569.0,43873.0,0.000793,-0.000976,0.000366,0.31500000000000006,-1.6975000000000002,-3.8325000000000005,0.77871875,-0.20815625000000001,-0.54321875,0.690625,0.7449375,-0.679,-1.3715,0.521,0.019078720774747763,0.03264612853004355,True
1057,24439,2,24385,3636.0,38570.0,43873.0,0.00183,-0.000549,0.0,0.31500000000000006,-1.6275000000000002,-3.9200000000000004,0.77275,-0.20715625000000001,-0.53928125,0.69465625,0.73790625,-0.67809375,-1.36790625,0.526875,0.0190832203155886,0.03266430393718441,True
1058,24440,2,24386,3635.0,38569.0,43872.0,0.0013419999999999999,-0.002257,0.000549,0.31500000000000006,-1.6275000000000002,-3.8325000000000005,0.7781250000000001,-0.2095625,-0.542,0.68978125,0.73346875,-0.6813750000000001,-1.36946875,0.5224375,0.019116135142389763,0.032616715712661504,True
1059,24441,2,24387,3638.0,38568.0,43872.0,0.000183,-0.000732,0.000244,0.31500000000000006,-1.7325000000000002,-3.8150000000000004,0.7724375,-0.206375,-0.53946875,0.69090625,0.7380625000000001,-0.67740625,-1.3683125,0.52146875,0.019087550986036064,0.03267240381085655,True
1060,24442,2,24388,3637.0,38571.0,43873.0,-0.000183,-0.000732,-0.0006709999999999999,0.47250000000000003,-1.7850000000000001,-3.6925000000000003,0.77809375,-0.2079375,-0.54015625,0.690625,0.73603125,-0.678625,-1.36890625,0.520625,0.01907267929230255,0.03266794365641996,True
1061,24443,2,24389,3637.0,38569.0,43872.0,0.00122,0.0026839999999999998,-0.000366,0.42000000000000004,-1.4700000000000002,-3.7975000000000003,0.77265625,-0.20821875,-0.54171875,0.6938125,0.7379687500000001,-0.67940625,-1.3714375,0.5258125,0.01909233533525548,0.032702867151299574,True
1062,24444,2,24390,3638.0,38568.0,43872.0,-0.000915,0.0008539999999999999,-0.0006709999999999999,0.385,-1.33,-3.6575,0.77278125,-0.2059375,-0.5393125,0.68678125,0.7380625000000001,-0.67484375,-1.36940625,0.53065625,0.019003413142180483,0.03272026715248805,True
1063,24445,2,24391,3637.0,38564.0,43872.0,-0.0017079999999999999,0.000183,0.0011589999999999999,0.42000000000000004,-1.2950000000000002,-3.5875000000000004,0.7805,-0.21009375,-0.54225,0.69221875,0.74528125,-0.682,-1.369875,0.5231875,0.01911944939632121,0.03262235229775472,True
1064,24446,2,24392,3638.0,38571.0,43872.0,-0.003294,0.001403,-6.1e-05,0.47250000000000003,-1.2775,-3.7275000000000005,0.7595937500000001,-0.20709375,-0.540375,0.6910000000000001,0.7378750000000001,-0.6775,-1.3679375,0.5204375,0.019062151757673996,0.03262238012057543,True
1065,24447,2,24393,3640.0,38567.0,43875.0,-0.001586,0.0006709999999999999,6.1e-05,0.42000000000000004,-1.3475000000000001,-3.6575,0.7733125000000001,-0.21131250000000001,-0.543125,0.7056250000000001,0.7405625,-0.67984375,-1.36521875,0.52859375,0.018984368569999556,0.03241027637500662,True
1066,24448,2,24394,3642.0,38567.0,43872.0,-0.000488,0.000915,-6.1e-05,0.3325,-1.4175000000000002,-3.6400000000000006,0.7841875,-0.208625,-0.53075,0.6875,0.74453125,-0.6788125,-1.3688437500000001,0.5228125,0.019052274091389123,0.03303634009728962,True
1067,24449,2,24395,3641.0,38566.0,43871.0,6.1e-05,-0.0011589999999999999,0.0006709999999999999,0.2625,-1.5925000000000002,-3.7100000000000004,0.769,-0.20909375,-0.542875,0.69959375,0.744625,-0.679,-1.3724375,0.53028125,0.019040733011872448,0.0326954199808355,True
1068,24450,2,24396,3641.0,38565.0,43873.0,0.00122,-0.0011589999999999999,0.000793,0.17500000000000002,-1.7850000000000001,-3.6925000000000003,0.7858437500000001,-0.2088125,-0.54403125,0.7000000000000001,0.74434375,-0.68071875,-1.37290625,0.52896875,0.019120441944179604,0.03266772011976358,True
1069,24451,2,24397,3640.0,38565.0,43871.0,0.0025009999999999998,-0.003477,0.000305,0.1925,-1.9425000000000001,-3.6750000000000003,0.7847500000000001,-0.21075,-0.543125,0.7020000000000001,0.73984375,-0.68078125,-1.36496875,0.52978125,0.01904442348234013,0.03240073970128586,True
1070,24452,2,24398,3641.0,38566.0,43872.0,0.002196,-0.00122,-0.002257,0.2625,-2.1350000000000002,-3.6050000000000004,0.78571875,-0.2071875,-0.54340625,0.69465625,0.7443125,-0.68190625,-1.3715,0.5290312500000001,0.019233471887934103,0.03263873834814654,True
1071,24453,2,24399,3642.0,38565.0,43871.0,0.000915,0.000366,0.000915,0.4025,-1.8375000000000001,-3.6400000000000006,0.7781250000000001,-0.2051875,-0.5348125,0.6868125,0.744,-0.6793750000000001,-1.3691875,0.51596875,0.019213918504824377,0.03288930715656542,True
1072,24454,2,24400,3642.0,38565.0,43875.0,-6.1e-05,0.000915,0.002074,0.43750000000000006,-1.54,-3.6225000000000005,0.76890625,-0.20521875,-0.53771875,0.6868125,0.74071875,-0.675875,-1.3688437500000001,0.5233125,0.019073538425689058,0.03276164291090326,True
1073,24455,2,24401,3642.0,38564.0,43873.0,-0.001952,-0.000183,0.0006709999999999999,0.35000000000000003,-1.4000000000000001,-3.6750000000000003,0.77228125,-0.211,-0.5449375,0.6930625,0.74225,-0.6804687500000001,-1.371625,0.521625,0.019021873318350167,0.03258315145364162,True
1074,24456,2,24402,3641.0,38565.0,43874.0,-0.0030499999999999998,-0.000549,0.0,0.35000000000000003,-1.3650000000000002,-3.6925000000000003,0.75853125,-0.20509375,-0.53815625,0.69328125,0.7380625000000001,-0.67771875,-1.3680625,0.522375,0.01915189182549542,0.03271460916654553,True
1075,24457,2,24403,3642.0,38563.0,43872.0,-0.0035989999999999998,0.0006709999999999999,6.1e-05,0.49000000000000005,-1.2950000000000002,-3.7450000000000006,0.78440625,-0.21203125,-0.5466875,0.6886875,0.7427812500000001,-0.67953125,-1.36928125,0.5210625,0.018942823316386935,0.03242479524326295,True
1076,24458,2,24404,3641.0,38565.0,43873.0,-0.002013,0.003538,0.003477,0.43750000000000006,-1.3125000000000002,-4.025,0.76984375,-0.20875,-0.53715625,0.67509375,0.738375,-0.677875,-1.36903125,0.52228125,0.01900994311706336,0.0327909643770887,True
1077,24459,2,24405,3641.0,38563.0,43872.0,-0.001037,-0.0006709999999999999,0.001647,0.21000000000000002,-1.61,-4.0075,0.7691875,-0.2053125,-0.53978125,0.69425,0.73828125,-0.67796875,-1.3703750000000001,0.52640625,0.019152964119058622,0.03273872577760479,True
1078,24460,2,24406,3642.0,38563.0,43873.0,0.001769,-0.00549,-0.0017079999999999999,0.0,-2.1175,-3.9025000000000003,0.7780312500000001,-0.2069375,-0.53959375,0.68853125,0.74265625,-0.67878125,-1.36871875,0.52259375,0.01911941052599589,0.03268296708914399,True
1079,24461,2,24407,3642.0,38562.0,43871.0,0.004148,-0.005063,-0.002074,0.07,-2.5025000000000004,-3.8675,0.77759375,-0.209375,-0.54340625,0.68475,0.741,-0.6805,-1.37134375,0.52215625,0.01908895686878305,0.03263278083172083,True
1080,24462,2,24408,3642.0,38560.0,43869.0,0.007259,-0.001281,-0.0040869999999999995,0.1925,-2.6425,-3.8325000000000005,0.7726875,-0.20653125,-0.53925,0.68659375,0.7387812500000001,-0.6783125,-1.36909375,0.5224375,0.01911724109985235,0.0327108156947861,True
1081,24463,2,24409,3643.0,38558.0,43867.0,0.0053679999999999995,0.0021349999999999997,0.000305,0.385,-1.6975000000000002,-3.7450000000000006,0.77915625,-0.20828125,-0.5424375,0.69340625,0.73984375,-0.68240625,-1.3746562500000001,0.53346875,0.01920902667259194,0.03279724232717439,True
1082,24464,2,24410,3644.0,38557.0,43870.0,-0.0017079999999999999,6.1e-05,0.002623,0.45500000000000007,-1.0325000000000002,-3.535,0.77290625,-0.20290625,-0.539125,0.692375,0.7374375,-0.6693125,-1.36921875,0.50715625,0.01890633352672475,0.03272050898295794,True
1083,24465,2,24411,3641.0,38561.0,43870.0,-0.007808,0.001464,0.002196,0.6300000000000001,-0.7525000000000001,-3.535,0.77715625,-0.2086875,-0.5421875,0.6961875,0.7342500000000001,-0.67384375,-1.3641875,0.51246875,0.018852200521047715,0.032407897946662004,True
1084,24466,2,24412,3644.0,38560.0,43871.0,-0.007259,0.004331,0.0006709999999999999,0.7350000000000001,-0.805,-3.4125000000000005,0.7811250000000001,-0.21075,-0.54146875,0.69625,0.7319687500000001,-0.68090625,-1.3723125,0.53971875,0.01904939167296582,0.032746079018221144,True
1085,24467,2,24413,3643.0,38560.0,43871.0,0.000305,0.003721,-0.001098,0.77,-0.9625000000000001,-3.5525,0.776625,-0.20675000000000002,-0.5411875,0.69096875,0.759875,-0.68821875,-1.3751875,0.5366875,0.01950196386687476,0.03286675221611663,True
1086,24468,2,24414,3643.0,38560.0,43871.0,0.001403,-0.000732,0.000976,0.0,-1.7675,-3.5875000000000004,0.7725,-0.2064375,-0.54003125,0.6896875,0.73653125,-0.681875,-1.3708125,0.52584375,0.019262616798764273,0.032745551605806875,True
1087,24469,2,24415,3645.0,38560.0,43868.0,0.00042699999999999997,-0.0059169999999999995,0.0015249999999999999,-0.17500000000000002,-1.8900000000000001,-3.5525,0.7731250000000001,-0.20746875,-0.5403125,0.68975,0.74925,-0.6821875000000001,-1.37115625,0.52646875,0.019233252725269996,0.03274757136856938,True
1088,24470,2,24416,3645.0,38559.0,43868.0,0.000122,-0.006954,0.001464,0.07,-2.0125,-3.6575,0.7725,-0.206625,-0.53946875,0.69034375,0.7245625,-0.6775,-1.36325,0.51153125,0.01908114679363793,0.032479325401910245,True
1089,24471,2,24417,3644.0,38558.0,43866.0,0.000549,-0.003355,0.002013,0.28,-1.995,-3.6575,0.77853125,-0.208625,-0.54125,0.69271875,0.72603125,-0.6826875,-1.3675,0.54453125,0.019206275653735033,0.03257120331132354,True
1090,24472,2,24418,3644.0,38558.0,43866.0,0.000488,0.002745,-0.001769,0.6475000000000001,-1.7500000000000002,-3.6225000000000005,0.77296875,-0.2066875,-0.5395,0.69065625,0.74690625,-0.67428125,-1.36228125,0.511375,0.0189506533245016,0.03244113736811432,True
1091,24473,2,24419,3643.0,38557.0,43862.0,0.000793,0.00183,-0.003355,0.6475000000000001,-1.7325000000000002,-3.5525,0.764875,-0.2059375,-0.54203125,0.69425,0.72609375,-0.668375,-1.3620625,0.518,0.01874616791742464,0.03233298750840946,True
1092,24474,2,24420,3643.0,38557.0,43861.0,0.0006709999999999999,-0.000488,-0.0028669999999999998,0.49000000000000005,-1.7500000000000002,-3.5700000000000003,0.77728125,-0.20975,-0.542625,0.6929062500000001,0.73065625,-0.6806875,-1.36934375,0.52946875,0.019081214816240432,0.03258731318187921,True
1093,24475,2,24421,3643.0,38557.0,43861.0,0.002074,0.001586,-0.001464,0.47250000000000003,-1.7675,-3.6750000000000003,0.77353125,-0.2059375,-0.53953125,0.6901875000000001,0.7291875,-0.67909375,-1.36259375,0.51171875,0.01917235109170085,0.03245182681680576,True
1094,24476,2,24422,3641.0,38555.0,43858.0,0.002013,0.0026839999999999998,-0.001098,0.47250000000000003,-1.7675,-3.7100000000000004,0.7724375,-0.2061875,-0.5394375,0.69034375,0.72528125,-0.67371875,-1.36209375,0.5116875,0.01894855229311553,0.03243644858776693,True
1095,24477,2,24423,3642.0,38555.0,43855.0,-0.002745,0.000732,0.000793,0.24500000000000002,-1.4000000000000001,-3.9025000000000003,0.7665000000000001,-0.2064375,-0.5395625000000001,0.6946875,0.7361562500000001,-0.67809375,-1.36603125,0.52028125,0.019112345336640926,0.032581712994617554,True
1096,24478,2,24424,3640.0,38555.0,43858.0,-0.0042699999999999995,-0.000976,0.0028669999999999998,0.1925,-1.33,-3.8850000000000002,0.7778125,-0.209625,-0.54225,0.6975625,0.73875,-0.6814375,-1.369625,0.513375,0.019116086735223588,0.03261281946422149,True
1097,24479,2,24425,3641.0,38554.0,43855.0,-0.004331,-0.0018909999999999999,0.002257,0.14,-1.54,-3.9025000000000003,0.77775,-0.20815625000000001,-0.5439375,0.69203125,0.73821875,-0.67796875,-1.36703125,0.5220312500000001,0.019037729756424947,0.03244738187484986,True
1098,24480,2,24426,3640.0,38552.0,43854.0,-0.00244,-0.002562,0.003111,0.08750000000000001,-1.8375000000000001,-3.8325000000000005,0.77340625,-0.20625000000000002,-0.53990625,0.6838125,0.73725,-0.6775,-1.3685,0.52625,0.019096342822409077,0.03266230758617971,True
1099,24481,2,24427,3638.0,38549.0,43852.0,0.001586,-0.001037,0.001403,0.0175,-2.1350000000000002,-3.9025000000000003,0.7731250000000001,-0.20700000000000002,-0.54221875,0.6934375,0.7458125,-0.68,-1.3707500000000001,0.5290312500000001,0.019165316045380878,0.03265694746903423,True
1100,24482,2,24428,3637.0,38550.0,43850.0,0.004941,-0.000488,-0.003904,0.10500000000000001,-2.3975000000000004,-4.1475,0.7779375000000001,-0.2038125,-0.5400625,0.68990625,0.74325,-0.6779375,-1.36840625,0.521875,0.019212505096910956,0.032652573513560795,True
1101,24483,2,24429,3636.0,38547.0,43847.0,0.004697,-0.00061,-0.003721,0.0175,-2.2750000000000004,-3.9200000000000004,0.773375,-0.2064375,-0.54009375,0.6903125,0.7306875,-0.67759375,-1.3684375,0.5220312500000001,0.01909247128278056,0.03265253329062935,True
1102,24484,2,24430,3634.0,38546.0,43846.0,0.004148,-0.002074,-0.001464,0.10500000000000001,-2.0300000000000002,-3.8675,0.77325,-0.20634375,-0.53925,0.689875,0.7378750000000001,-0.67725,-1.36459375,0.50934375,0.019082606449259947,0.03253920634940191,True
1103,24485,2,24431,3634.0,38545.0,43845.0,0.001403,-0.000488,0.000305,0.12250000000000001,-1.9425000000000001,-3.9025000000000003,0.76365625,-0.206125,-0.54025,0.69015625,0.73721875,-0.677625,-1.36775,0.51490625,0.019106376727906355,0.032620157483418906,True
1104,24486,2,24432,3633.0,38546.0,43842.0,-6.1e-05,-0.0006709999999999999,0.000915,0.1925,-1.8375000000000001,-3.9725000000000006,0.7731875,-0.206625,-0.539375,0.69425,0.74209375,-0.68021875,-1.36878125,0.528875,0.0191892039044427,0.03269397303033625,True
1105,24487,2,24433,3632.0,38544.0,43842.0,-0.001403,-0.000244,0.0023179999999999997,0.14,-1.2600000000000002,-3.8850000000000002,0.780625,-0.20959375,-0.5439375,0.6965625,0.7441875,-0.67890625,-1.3703125,0.52965625,0.019016746335749787,0.032572519554104826,True
1106,24488,2,24434,3631.0,38543.0,43836.0,-0.004575,0.000122,0.001403,0.31500000000000006,-1.0675000000000001,-3.8500000000000005,0.78415625,-0.20550000000000002,-0.53978125,0.68796875,0.745125,-0.678625,-1.3699375,0.51728125,0.01917144897659412,0.03272204553125131,True
1107,24489,2,24435,3630.0,38543.0,43838.0,-0.006588,-0.000366,0.002379,0.36750000000000005,-0.9975,-3.8675,0.7866875,-0.20496875,-0.53840625,0.700125,0.74653125,-0.68134375,-1.371,0.5290312500000001,0.019301015569705357,0.03281674943833511,True
1108,24490,2,24436,3629.0,38542.0,43834.0,-0.0053679999999999995,0.002196,0.0032329999999999998,0.385,-1.1375000000000002,-3.9375000000000004,0.7790625,-0.2023125,-0.53734375,0.688125,0.7441875,-0.67990625,-1.371625,0.52721875,0.0193515220504535,0.03288245234587852,True
1109,24491,2,24437,3628.0,38540.0,43833.0,-0.002013,0.003721,0.0018909999999999999,0.56,-1.5925000000000002,-3.8500000000000005,0.765125,-0.203375,-0.5410625,0.6949375,0.745125,-0.68125,-1.3704687500000001,0.52996875,0.019361863762977972,0.03269179841227806,True
1110,24492,2,24438,3626.0,38538.0,43834.0,0.0040869999999999995,0.001464,-0.003904,0.29750000000000004,-1.9250000000000003,-3.9725000000000006,0.7722187500000001,-0.20446875,-0.53990625,0.697875,0.7439375,-0.68078125,-1.36775,0.52734375,0.01929892312464785,0.03263370815306836,True
1111,24493,2,24439,3624.0,38538.0,43829.0,0.004148,0.0,-0.004575,0.21000000000000002,-1.9075000000000002,-4.025,0.7853125,-0.2116875,-0.54515625,0.7009375,0.7410625000000001,-0.67784375,-1.36809375,0.52159375,0.018889666971005113,0.032439863558924295,True
1112,24494,2,24440,3624.0,38534.0,43829.0,0.001647,-0.0018909999999999999,-0.003355,0.29750000000000004,-1.54,-4.0075,0.7833125,-0.205875,-0.54559375,0.69875,0.7378750000000001,-0.6778125,-1.368875,0.5215,0.019123960034950423,0.032452414622248724,True
1113,24495,2,24441,3623.0,38537.0,43828.0,-0.00061,-0.002074,-0.00122,0.31500000000000006,-1.3825,-3.8850000000000002,0.773,-0.205625,-0.53659375,0.68365625,0.724,-0.6772812500000001,-1.36975,0.52725,0.019112974611009876,0.03284053843652381,True
1114,24496,2,24442,3620.0,38535.0,43827.0,-0.002257,0.000305,0.00122,0.49000000000000005,-1.4525000000000001,-3.9025000000000003,0.76690625,-0.20459375,-0.52996875,0.6850625,0.74540625,-0.6804687500000001,-1.37190625,0.52078125,0.01928144091671679,0.03318384876973918,True
1115,24497,2,24443,3621.0,38533.0,43825.0,-6.1e-05,0.0008539999999999999,0.00244,0.42000000000000004,-1.7850000000000001,-4.1825,0.7664062500000001,-0.2050625,-0.53878125,0.67653125,0.73721875,-0.677625,-1.3645,0.52175,0.019149431924668604,0.03255411106073449,True
1116,24498,2,24444,3618.0,38535.0,43822.0,0.001037,-0.000244,0.000793,0.17500000000000002,-1.9075000000000002,-4.1475,0.7721875,-0.2076875,-0.5410625,0.680875,0.738375,-0.6773125,-1.3685,0.522375,0.019030637959461753,0.03261672940851844,True
1117,24499,2,24445,3618.0,38534.0,43823.0,-0.000366,-0.0023179999999999997,0.00042699999999999997,-0.0175,-1.8725000000000003,-4.165,0.77590625,-0.20996875,-0.54340625,0.699125,0.73759375,-0.6782812500000001,-1.3684375,0.52090625,0.018976706491664608,0.032521957649145714,True
1118,24500,2,24446,3617.0,38532.0,43820.0,-0.000305,-0.002379,0.000549,0.15750000000000003,-1.6800000000000002,-4.130000000000001,0.7815,-0.211,-0.5371875,0.69178125,0.737125,-0.67925,-1.3719375,0.520625,0.018973429095292607,0.03290052247685065,True
1119,24501,2,24447,3617.0,38530.0,43819.0,-0.00061,-0.001952,0.00061,0.1925,-1.715,-4.112500000000001,0.7686875,-0.20440625,-0.53903125,0.68953125,0.74346875,-0.68015625,-1.3681875000000001,0.52290625,0.019276620260457226,0.03268488338002075,True
1120,24502,2,24448,3616.0,38530.0,43818.0,0.003355,-0.000366,-0.000793,0.15750000000000003,-1.8375000000000001,-4.112500000000001,0.7633125000000001,-0.20678125,-0.5409375,0.69396875,0.7379687500000001,-0.67771875,-1.36853125,0.51090625,0.019083510302183016,0.03262284843550018,True
1121,24503,2,24449,3616.0,38528.0,43816.0,0.0028669999999999998,-0.00244,-0.001769,0.07,-1.8200000000000003,-4.0075,0.7778437500000001,-0.2094375,-0.539875,0.69084375,0.739,-0.6819375,-1.371375,0.526875,0.019143553864035188,0.03277315478565904,True
1122,24504,2,24450,3614.0,38527.0,43815.0,0.001952,-0.0015249999999999999,-0.0018909999999999999,0.10500000000000001,-1.6975000000000002,-3.9725000000000006,0.77240625,-0.2069375,-0.538625,0.6960625,0.7379687500000001,-0.6778125,-1.3679375,0.5221250000000001,0.019080905165318036,0.032691364837996784,True
1123,24505,2,24451,3615.0,38527.0,43815.0,0.0,0.00042699999999999997,0.00042699999999999997,0.28,-1.4525000000000001,-3.8675,0.7813125,-0.20600000000000002,-0.5396875,0.69015625,0.74321875,-0.68034375,-1.3593125,0.5216875,0.01921949527141412,0.03232047398761303,True
1124,24506,2,24452,3612.0,38527.0,43815.0,-0.002196,0.0017079999999999999,0.00122,0.45500000000000007,-1.33,-3.8325000000000005,0.76975,-0.2069375,-0.5424375,0.6970937500000001,0.73803125,-0.67328125,-1.36840625,0.523,0.018900759298076743,0.0325589531269825,True
1125,24507,2,24453,3613.0,38526.0,43814.0,-0.00122,0.002806,-6.1e-05,0.6475000000000001,-1.6275000000000002,-3.8325000000000005,0.76765625,-0.210375,-0.54140625,0.69215625,0.73909375,-0.6791875,-1.3720625,0.5293125,0.01899626963002733,0.032739011658985157,True
1126,24508,2,24454,3613.0,38525.0,43816.0,0.001464,0.0018909999999999999,-0.000366,0.5425000000000001,-1.7675,-3.9025000000000003,0.7790312500000001,-0.2059375,-0.5394375,0.69071875,0.74528125,-0.6815,-1.36853125,0.5210625,0.019267973988614955,0.03268197680935903,True
1127,24509,2,24455,3611.0,38525.0,43815.0,0.003172,0.001098,0.000244,0.3325,-1.6625,-3.9025000000000003,0.7733125000000001,-0.2063125,-0.53978125,0.68590625,0.74171875,-0.6773750000000001,-1.3673125,0.52153125,0.019088841499551715,0.032621951970670915,True
1128,24510,2,24456,3609.0,38523.0,43814.0,0.000732,-0.000244,-0.0013419999999999999,0.24500000000000002,-1.4875,-3.8500000000000005,0.77678125,-0.20925,-0.5423125,0.69325,0.7354375,-0.6788125,-1.3720625,0.5286875,0.0190269487237281,0.03270329323837982,True
1129,24511,2,24457,3610.0,38522.0,43814.0,-0.0008539999999999999,-0.000549,-0.002379,0.35000000000000003,-1.2950000000000002,-3.7800000000000002,0.7730625,-0.20628125,-0.540625,0.69096875,0.7456875000000001,-0.67909375,-1.3684375,0.522,0.019158422298225602,0.032631591914164995,True
1130,24512,2,24458,3610.0,38524.0,43814.0,-0.0028669999999999998,0.00061,0.00042699999999999997,0.5075000000000001,-1.33,-3.8150000000000004,0.77325,-0.20696875,-0.54003125,0.6909375,0.7375,-0.67675,-1.3678125,0.521875,0.01903740362892196,0.03263116399965508,True
1131,24513,2,24459,3610.0,38525.0,43813.0,-0.003111,0.00042699999999999997,0.000915,0.35000000000000003,-1.4000000000000001,-3.8500000000000005,0.7754375,-0.20796875,-0.54371875,0.6965625,0.73753125,-0.6779375,-1.3638125,0.5248125,0.019044085430559177,0.03233322080424621,True
