frame_seq,absolute_seq_u64,segment_id,sample_seq,PPG_G,PPG_R,PPG_IR,ACC_X,ACC_Y,ACC_Z,GYRO_X,GYRO_Y,GYRO_Z,Uh1,Uh2,Uh3,Uh4,Uc1,Uc2,Uc3,Uc4,UD1,UD2,parser_valid
49863,76425,0,76426,6625.0,74780.0,118583.0,0.001647,0.002379,6.1e-05,0.5075000000000001,-1.3475000000000001,-3.535,0.729,-0.1044375,-0.040625,0.974125,0.69053125,-0.627,-0.6979375,0.93884375,0.021219088804970157,0.02661406443351798,True
49864,76426,0,76427,6625.0,74774.0,118582.0,-0.000549,0.0025009999999999998,-0.000976,0.6125,-1.4000000000000001,-3.5525,0.73128125,-0.10371875,-0.0380625,0.9685625,0.69584375,-0.6277812500000001,-0.6980937500000001,0.93025,0.02127932251306642,0.026723975408021117,True
49865,76427,0,76428,6626.0,74778.0,118579.0,-0.00061,0.002928,-0.000915,0.525,-1.2950000000000002,-3.6225000000000005,0.7299375,-0.10334375,-0.03778125,0.970375,0.68975,-0.6267812500000001,-0.6964375,0.93153125,0.02125480771060977,0.026670091587096316,True
49866,76428,0,76429,6626.0,74779.0,118582.0,0.000122,-0.000122,0.000793,0.35000000000000003,-1.54,-3.4125000000000005,0.73328125,-0.10578125000000001,-0.03803125,0.973125,0.6936875,-0.6298125,-0.70078125,0.9373125,0.021276298794398046,0.02683113514881235,True
49867,76429,0,76430,6624.0,74778.0,118576.0,0.000732,-0.000488,0.001281,0.3325,-1.6975000000000002,-3.4650000000000003,0.72259375,-0.10353125,-0.03753125,0.9656250000000001,0.6960000000000001,-0.6294375,-0.6990937500000001,0.9305625000000001,0.021352751153979867,0.026784889627782398,True
49868,76430,0,76431,6624.0,74779.0,118573.0,0.001281,-0.0006709999999999999,0.00122,0.28,-1.6975000000000002,-3.5175000000000005,0.7291562500000001,-0.1045625,-0.03875,0.97478125,0.68925,-0.6275937500000001,-0.697625,0.93415625,0.021237610759272822,0.02667766637480325,True
49869,76431,0,76432,6623.0,74778.0,118581.0,0.00061,-0.000244,0.0011589999999999999,0.42000000000000004,-1.5225000000000002,-3.4825000000000004,0.73409375,-0.10375000000000001,-0.03696875,0.96459375,0.69765625,-0.6268125,-0.6965625,0.92940625,0.021239553433884308,0.026707917346796745,True
49870,76432,0,76433,6621.0,74781.0,118578.0,-0.0023179999999999997,0.00061,-6.1e-05,0.49000000000000005,-1.4525000000000001,-3.4650000000000003,0.7244375000000001,-0.10400000000000001,-0.03559375,0.97115625,0.6900937500000001,-0.6266875000000001,-0.69734375,0.92975,0.02122443385859345,0.026794379456292743,True
49871,76433,0,76434,6625.0,74776.0,118574.0,-0.0021349999999999997,0.00061,0.00061,0.45500000000000007,-1.5050000000000001,-3.6575,0.7371562500000001,-0.1075,-0.042,0.982,0.6919375,-0.6291875,-0.69753125,0.92459375,0.021181677227476544,0.026542379615371474,True
49872,76434,0,76435,6621.0,74779.0,118576.0,-0.000183,-0.001037,0.000549,0.28,-1.6800000000000002,-3.6925000000000003,0.74640625,-0.10821875,-0.03846875,0.97178125,0.696875,-0.62925,-0.69846875,0.9378125,0.021154978328613336,0.026722304393870567,True
49873,76435,0,76436,6622.0,74779.0,118575.0,0.001952,-0.0026839999999999998,0.000122,0.35000000000000003,-1.8025000000000002,-3.535,0.7341875,-0.1058125,-0.03746875,0.97971875,0.6973125,-0.62928125,-0.6993125,0.9253750000000001,0.02125391905214449,0.026796039363443817,True
49874,76436,0,76437,6621.0,74781.0,118578.0,0.000366,-0.0025009999999999998,-6.1e-05,0.2625,-1.6975000000000002,-3.6050000000000004,0.73853125,-0.10375000000000001,-0.03534375,0.9644375000000001,0.6968125000000001,-0.63121875,-0.69846875,0.9331875000000001,0.02141464274884896,0.02684883045634155,True
49875,76437,0,76438,6623.0,74780.0,118574.0,0.0,6.1e-05,-0.0013419999999999999,0.28,-1.4875,-3.5175000000000005,0.714375,-0.10312500000000001,-0.0379375,0.96703125,0.6905625,-0.62715625,-0.69684375,0.9303750000000001,0.02127859362568506,0.026679775629223877,True
49876,76438,0,76439,6620.0,74780.0,118578.0,-0.0008539999999999999,-6.1e-05,-0.0025009999999999998,0.47250000000000003,-1.4000000000000001,-3.4825000000000004,0.7312500000000001,-0.11034375,-0.041375,0.9779375,0.6902812500000001,-0.622625,-0.691625,0.93640625,0.02080530609551175,0.02633484025453975,True
49877,76439,0,76440,6622.0,74781.0,118575.0,-0.001281,0.001464,-0.00122,0.5950000000000001,-1.4700000000000002,-3.5875000000000004,0.72671875,-0.10221875,-0.03571875,0.95628125,0.69571875,-0.6274375,-0.69671875,0.93121875,0.021326569197465225,0.026764689135069818,True
49878,76440,0,76441,6620.0,74775.0,118579.0,-0.000183,0.001769,0.002379,0.5425000000000001,-1.6625,-3.5875000000000004,0.7215312500000001,-0.1064375,-0.04490625,0.98321875,0.69021875,-0.627125,-0.69740625,0.93115625,0.021142845541247714,0.026419778392720895,True
49879,76441,0,76442,6619.0,74777.0,118579.0,0.001952,0.000122,0.002989,0.36750000000000005,-1.6275000000000002,-3.5000000000000004,0.7449687500000001,-0.10584375,-0.0406875,0.9641875,0.6933125,-0.62971875,-0.698375,0.9353125,0.021270035818009493,0.02662877618466802,True
49880,76442,0,76443,6618.0,74784.0,118578.0,0.002013,0.000305,0.000549,0.28,-1.6975000000000002,-3.6575,0.72440625,-0.10253125,-0.03803125,0.9639062500000001,0.6906875,-0.6264375,-0.6970625,0.9303125,0.021274138819307502,0.02668460064835646,True
49881,76443,0,76444,6618.0,74786.0,118584.0,-0.000366,0.000793,-0.00061,0.45500000000000007,-1.5225000000000002,-3.6400000000000006,0.724375,-0.10390625,-0.03825,0.965875,0.68715625,-0.62640625,-0.696875,0.93009375,0.0212170624773966,0.026668353789700117,True
49882,76444,0,76445,6618.0,74784.0,118584.0,-0.003111,0.000793,-0.000305,0.49000000000000005,-1.435,-3.6575,0.73146875,-0.10534375,-0.03775,0.969375,0.69078125,-0.62190625,-0.69621875,0.93084375,0.02097979314660091,0.02666273556554078,True
49883,76445,0,76446,6617.0,74784.0,118581.0,-0.002745,-0.000976,-0.00042699999999999997,0.45500000000000007,-1.4175000000000002,-3.5875000000000004,0.7313437500000001,-0.10625,-0.04015625,0.97296875,0.68990625,-0.62721875,-0.6973125,0.9306875,0.021154185346244185,0.026608411340302715,True
49884,76446,0,76447,6618.0,74783.0,118582.0,-0.002013,-0.0013419999999999999,-0.001464,0.385,-1.4000000000000001,-3.6925000000000003,0.73409375,-0.10840625,-0.039343750000000004,0.97528125,0.69203125,-0.6283125,-0.69865625,0.9324375,0.021110104478331594,0.026694266008904836,True
49885,76447,0,76448,6616.0,74785.0,118585.0,-0.000732,-0.001037,0.0011589999999999999,0.47250000000000003,-1.5750000000000002,-3.5700000000000003,0.7350625000000001,-0.106125,-0.0400625,0.97490625,0.6946875,-0.62946875,-0.6990937500000001,0.922875,0.02124868202851513,0.026682406110548087,True
49886,76448,0,76449,6616.0,74783.0,118582.0,0.001952,0.000915,0.001586,0.49000000000000005,-1.6975000000000002,-3.6050000000000004,0.73753125,-0.10771875,-0.03725,0.9635,0.6951875000000001,-0.630125,-0.700625,0.93090625,0.02121005273014246,0.026856607879355284,True
49887,76449,0,76450,6618.0,74782.0,118586.0,0.003965,0.002013,0.0017079999999999999,0.45500000000000007,-1.9250000000000003,-3.6925000000000003,0.72953125,-0.10359375,-0.03765625,0.96946875,0.67759375,-0.62746875,-0.69828125,0.93159375,0.02127197907823962,0.026747812664089734,True
49888,76450,0,76451,6617.0,74788.0,118590.0,0.003477,0.0015249999999999999,0.001281,0.31500000000000006,-1.9075000000000002,-3.6925000000000003,0.7358750000000001,-0.1056875,-0.035,0.96790625,0.70903125,-0.63659375,-0.69778125,0.9261875,0.021549498903435056,0.02683565957974464,True
49889,76451,0,76452,6617.0,74785.0,118590.0,0.001403,0.000488,-0.002196,0.36750000000000005,-1.7500000000000002,-3.7100000000000004,0.735125,-0.10415625,-0.03675,0.96921875,0.70003125,-0.62325,-0.69203125,0.91896875,0.02108144741250647,0.02653816704528916,True
49890,76452,0,76453,6616.0,74786.0,118587.0,-0.00244,-0.00042699999999999997,-0.003172,0.36750000000000005,-1.5050000000000001,-3.6750000000000003,0.72303125,-0.10396875,-0.03821875,0.9695,0.67678125,-0.6239375,-0.6960937500000001,0.92834375,0.021116393346921062,0.026638828255986846,True
49891,76453,0,76454,6619.0,74781.0,118587.0,-0.003538,-0.0011589999999999999,-0.001464,0.31500000000000006,-1.4175000000000002,-3.7800000000000002,0.72978125,-0.1041875,-0.03809375,0.96803125,0.692375,-0.63028125,-0.6974375,0.9353750000000001,0.02135963226160887,0.02669684861030623,True
49892,76454,0,76455,6617.0,74782.0,118585.0,-0.001403,-0.001952,0.002196,0.2625,-1.5225000000000002,-3.6925000000000003,0.7353125,-0.10753125000000001,-0.04159375,0.976125,0.71246875,-0.63596875,-0.70421875,0.9359375,0.021449836430726923,0.026822341831797457,True
49893,76455,0,76456,6617.0,74786.0,118590.0,6.1e-05,-0.001464,0.002562,0.24500000000000002,-1.6800000000000002,-3.5875000000000004,0.729875,-0.10465625,-0.03884375,0.9691875,0.6784687500000001,-0.624125,-0.6948125,0.92734375,0.021095927266451094,0.02656301804275696,True
49894,76456,0,76457,6615.0,74785.0,118592.0,0.002562,0.000122,0.002562,0.35000000000000003,-1.6625,-3.6575,0.72978125,-0.10390625,-0.0385,0.95928125,0.6778125,-0.6254375,-0.6999062500000001,0.9440625,0.021178557741359925,0.02677768260760099,True
49895,76457,0,76458,6617.0,74787.0,118596.0,0.002257,0.000488,-0.001037,0.42000000000000004,-1.7500000000000002,-3.6050000000000004,0.73340625,-0.10721875,-0.03309375,0.958375,0.71671875,-0.6376875,-0.69859375,0.91425,0.02153078490016565,0.026944853894768805,True
49896,76458,0,76459,6617.0,74787.0,118593.0,-0.000793,0.0015249999999999999,-0.003965,0.5075000000000001,-1.54,-3.5875000000000004,0.7295,-0.10440625,-0.03853125,0.97671875,0.6784687500000001,-0.6205625,-0.69803125,0.94934375,0.020964437754011512,0.026702533223169355,True
49897,76459,0,76460,6618.0,74785.0,118594.0,-0.002928,0.001281,-0.002562,0.525,-1.4000000000000001,-3.6225000000000005,0.73275,-0.10403125,-0.04146875,0.97628125,0.702125,-0.6211875,-0.6990000000000001,0.94653125,0.021004521004521003,0.026621776185270663,True
49898,76460,0,76461,6617.0,74789.0,118593.0,-0.003111,-0.000122,0.000305,0.49000000000000005,-1.3650000000000002,-3.7100000000000004,0.730625,-0.10365625,-0.0379375,0.969,0.69496875,-0.6264375,-0.69184375,0.920875,0.02122845620687117,0.026482682160986863,True
49899,76461,0,76462,6618.0,74789.0,118596.0,-0.002379,-0.0013419999999999999,0.000183,0.28,-1.435,-3.6400000000000006,0.7195,-0.10453125,-0.03834375,0.97496875,0.67940625,-0.62553125,-0.69584375,0.9255,0.02115690397542185,0.026623913183772063,True
49900,76462,0,76463,6619.0,74793.0,118596.0,0.003111,0.000183,0.000976,0.22750000000000004,-1.8200000000000003,-3.5875000000000004,0.7351562500000001,-0.09925,-0.0381875,0.96965625,0.69559375,-0.62878125,-0.698375,0.93109375,0.02150050563301828,0.026729997418858526,True
49901,76463,0,76464,6618.0,74790.0,118599.0,0.0040869999999999995,0.0006709999999999999,0.0,0.4025,-1.8025000000000002,-3.6400000000000006,0.729,-0.106875,-0.0385,0.97128125,0.69015625,-0.626625,-0.697875,0.9364375,0.021105206255424766,0.02669764099138084,True
49902,76464,0,76465,6618.0,74790.0,118600.0,0.003111,0.0023179999999999997,0.0006709999999999999,0.45500000000000007,-1.7850000000000001,-3.6225000000000005,0.7298125,-0.10434375,-0.03828125,0.9695312500000001,0.695375,-0.62734375,-0.696625,0.93040625,0.021236557434254354,0.026657235553441006,True
49903,76465,0,76466,6618.0,74791.0,118602.0,-0.000549,0.0017079999999999999,-0.000305,0.43750000000000006,-1.6275000000000002,-3.6750000000000003,0.7355,-0.10353125,-0.03815625,0.967125,0.69659375,-0.62434375,-0.6936875,0.92990625,0.021150309843282623,0.026546511127590808,True
49904,76466,0,76467,6620.0,74794.0,118600.0,-0.002562,-6.1e-05,-0.000488,0.45500000000000007,-1.3650000000000002,-3.5175000000000005,0.7296875,-0.10596875,-0.0386875,0.9754375000000001,0.69090625,-0.6273125,-0.69775,0.93690625,0.021169331814017468,0.026685123138747456,True
49905,76467,0,76468,6621.0,74790.0,118600.0,-0.003721,-0.001647,0.000793,0.28,-1.2950000000000002,-3.6575,0.7321875,-0.10378125,-0.037375,0.96909375,0.6979375,-0.62990625,-0.696375,0.92978125,0.02136122625314499,0.026684078128875185,True
49906,76468,0,76469,6621.0,74791.0,118603.0,-0.001403,-0.001647,0.000488,0.28,-1.4175000000000002,-3.6925000000000003,0.7291875,-0.10578125000000001,-0.03865625,0.972,0.6903125,-0.6241875,-0.6990937500000001,0.93875,0.02105272508991413,0.02673934139790048,True
49907,76469,0,76470,6622.0,74795.0,118603.0,0.0023179999999999997,-0.00061,0.00042699999999999997,0.31500000000000006,-1.6275000000000002,-3.7275000000000005,0.72921875,-0.10359375,-0.04021875,0.975875,0.6970937500000001,-0.6259375,-0.69659375,0.93221875,0.021211121404007462,0.02657755181319286,True
49908,76470,0,76471,6620.0,74797.0,118602.0,0.003843,0.000183,-0.000366,0.4025,-1.9075000000000002,-3.6750000000000003,0.7293125,-0.1038125,-0.03775,0.97196875,0.69753125,-0.6261875,-0.69621875,0.9305,0.02121217504739619,0.02666273556554078,True
49909,76471,0,76472,6620.0,74798.0,118609.0,0.0044529999999999995,0.0006709999999999999,-0.001464,0.47250000000000003,-1.9075000000000002,-3.6225000000000005,0.7399375,-0.10346875,-0.039468750000000004,0.9764375000000001,0.69315625,-0.62890625,-0.6970625,0.9302812500000001,0.021334179222839016,0.02662639534560031,True
49910,76472,0,76473,6619.0,74795.0,118606.0,-0.000183,0.0018909999999999999,0.000183,0.47250000000000003,-1.5225000000000002,-3.6050000000000004,0.73875,-0.10328125,-0.034375,0.97090625,0.69178125,-0.6234375,-0.6985625,0.93121875,0.02112443682974808,0.026891747242374933,True
49911,76473,0,76474,6620.0,74799.0,118614.0,-0.002257,-0.000305,0.002928,0.47250000000000003,-1.3825,-3.6925000000000003,0.74653125,-0.10165625,-0.03540625,0.9655,0.69090625,-0.62984375,-0.69946875,0.9304687500000001,0.021445020332295044,0.026885699717731783,True
49912,76474,0,76475,6620.0,74799.0,118609.0,-0.0026839999999999998,-0.001586,0.00366,0.35000000000000003,-1.2425000000000002,-3.7275000000000005,0.7421875,-0.10803125,-0.035312500000000004,0.9591875,0.6910625,-0.62715625,-0.6993125,0.93696875,0.021079372491495035,0.02688333936420295,True
49913,76475,0,76476,6621.0,74799.0,118612.0,-0.002806,-0.00042699999999999997,0.0,0.29750000000000004,-1.435,-3.5875000000000004,0.733625,-0.11153125,-0.04103125,0.96315625,0.69078125,-0.62665625,-0.69846875,0.9378125,0.020917374846615648,0.02661855302264437,True
49914,76476,0,76477,6623.0,74799.0,118611.0,-0.002013,6.1e-05,-0.001769,0.28,-1.5225000000000002,-3.5875000000000004,0.71546875,-0.10359375,-0.0403125,0.9859687500000001,0.6986875,-0.6260625,-0.6945625,0.9262812500000001,0.02121608966110599,0.026493686616233837,True
49915,76477,0,76478,6622.0,74796.0,118611.0,-0.000244,0.000732,-0.000915,0.525,-1.5575,-3.5525,0.73771875,-0.10346875,-0.039281250000000004,0.97621875,0.69465625,-0.62934375,-0.69696875,0.92990625,0.021351563620122846,0.026630292432143113,True
49916,76478,0,76479,6625.0,74799.0,118615.0,0.0008539999999999999,0.000244,0.000305,0.3325,-1.6975000000000002,-3.6400000000000006,0.723625,-0.1039375,-0.0455625,0.98159375,0.6978125000000001,-0.62903125,-0.69771875,0.9263125,0.021320113839231904,0.026405525813998514,True
49917,76479,0,76480,6625.0,74799.0,118616.0,0.003477,-0.000122,0.001464,0.28,-1.8200000000000003,-3.6750000000000003,0.7233125,-0.10337500000000001,-0.0325,0.9843125,0.69728125,-0.63015625,-0.69725,0.93096875,0.02138765360045168,0.02691595218091083,True
49918,76480,0,76481,6626.0,74800.0,118620.0,0.0037819999999999998,-0.0008539999999999999,-0.000305,0.24500000000000002,-2.0125,-3.5875000000000004,0.7449687500000001,-0.10559375,-0.035437500000000004,0.96325,0.6805,-0.629625,-0.70065625,0.93890625,0.02127646076625202,0.026931217667546786,True
49919,76481,0,76482,6625.0,74804.0,118619.0,0.003355,0.000915,-0.000366,0.4025,-1.995,-3.535,0.72709375,-0.105875,-0.04471875,0.9813125,0.6883125,-0.6260625,-0.697125,0.9275,0.021123454064164746,0.02641628327183832,True
49920,76482,0,76483,6628.0,74800.0,118616.0,-0.002074,0.000915,0.001464,0.43750000000000006,-1.4875,-3.7800000000000002,0.7416875,-0.10815625,-0.039625,0.9636875,0.69084375,-0.62684375,-0.699375,0.9365,0.021061874808865837,0.026711202206533564,True
49921,76483,0,76484,6627.0,74800.0,118621.0,-0.0037819999999999998,6.1e-05,0.000915,0.35000000000000003,-1.155,-3.7625,0.71565625,-0.104625,-0.04078125,0.9736875,0.6940625,-0.62734375,-0.69725,0.928,0.021225137201408496,0.0265806415694055,True
49922,76484,0,76485,6628.0,74805.0,118620.0,-0.003843,-0.002196,0.000122,0.15750000000000003,-1.05,-3.7625,0.73221875,-0.10475,-0.03703125,0.96990625,0.69628125,-0.630875,-0.69496875,0.93253125,0.021360386100777985,0.026642572690034283,True
49923,76485,0,76486,6625.0,74803.0,118626.0,-0.0013419999999999999,-0.0032329999999999998,-0.000244,0.08750000000000001,-1.225,-3.7100000000000004,0.729625,-0.104125,-0.03803125,0.9753125,0.691125,-0.6267812500000001,-0.6899375,0.9303125,0.02122308411701184,0.026403722164140758,True
49924,76486,0,76487,6629.0,74800.0,118628.0,0.001098,-0.002806,-0.000549,0.21000000000000002,-1.4875,-3.535,0.73753125,-0.10334375,-0.03790625,0.9693125,0.68790625,-0.62803125,-0.69703125,0.93040625,0.021304484092694177,0.026688430416105174,True
49925,76487,0,76488,6629.0,74803.0,118631.0,0.0034159999999999998,0.002989,-0.0023179999999999997,0.5425000000000001,-1.5575,-3.6050000000000004,0.72984375,-0.1040625,-0.03746875,0.9694375000000001,0.6926875,-0.626375,-0.69646875,0.93090625,0.021209475613036835,0.02668397683373255,True
49926,76488,0,76489,6629.0,74806.0,118635.0,-0.000244,0.004697,-0.000183,0.805,-1.3650000000000002,-3.4650000000000003,0.7301562500000001,-0.10471875,-0.039531250000000004,0.97590625,0.68784375,-0.62753125,-0.69728125,0.93096875,0.021228782320599025,0.026632486116260266,True
49927,76489,0,76490,6630.0,74807.0,118631.0,-0.002257,0.003721,0.0008539999999999999,0.77,-1.435,-3.5000000000000004,0.73653125,-0.1018125,-0.03859375,0.9772500000000001,0.69278125,-0.63009375,-0.6988125000000001,0.9372812500000001,0.02144860898062964,0.02673078918267832,True
49928,76490,0,76491,6632.0,74806.0,118636.0,-0.002928,0.00244,0.0018909999999999999,0.6300000000000001,-1.54,-3.4650000000000003,0.73553125,-0.10365625,-0.03746875,0.97003125,0.69565625,-0.6304062500000001,-0.69975,0.9323125,0.021386167757586217,0.02681327746232249,True
49929,76491,0,76492,6631.0,74806.0,118641.0,-0.001037,0.000549,0.001952,0.385,-1.6975000000000002,-3.535,0.7294375,-0.1036875,-0.03846875,0.9693125,0.69159375,-0.62234375,-0.69565625,0.93125,0.021064454922167998,0.026611461276717437,True
49930,76492,0,76493,6634.0,74805.0,118639.0,0.00061,-0.001586,0.0023179999999999997,0.2625,-2.0825,-3.7975000000000003,0.730625,-0.10134375,-0.04003125,0.9695,0.6910937500000001,-0.62728125,-0.699125,0.9366875,0.021355889619362675,0.026684902805261323,True
49931,76493,0,76494,6635.0,74806.0,118641.0,0.000305,-0.00244,0.002257,0.2625,-1.8725000000000003,-3.7275000000000005,0.7295,-0.10196875,-0.039,0.9754375000000001,0.6905625,-0.6254375,-0.69684375,0.9316562500000001,0.021257236546558814,0.026636753937433807,True
49932,76494,0,76495,6634.0,74804.0,118637.0,0.00042699999999999997,-0.003477,0.00122,0.15750000000000003,-1.7675,-3.7975000000000003,0.73759375,-0.1043125,-0.038125,0.96896875,0.698125,-0.6265937500000001,-0.69240625,0.9305625000000001,0.02120801826277741,0.026497265733265666,True
49933,76495,0,76496,6633.0,74803.0,118635.0,-0.00061,-0.0037819999999999998,-0.001037,0.17500000000000002,-1.5575,-3.8850000000000002,0.73140625,-0.105875,-0.04109375,0.96975,0.6906875,-0.6275000000000001,-0.70025,0.9360937500000001,0.021180590802964167,0.02668621775083248,True
49934,76496,0,76497,6634.0,74806.0,118629.0,0.000732,-0.0021349999999999997,-0.004941,0.2625,-1.6975000000000002,-3.8850000000000002,0.722375,-0.105875,-0.04096875,0.9715625,0.69140625,-0.627125,-0.69915625,0.9351875000000001,0.021165686209819456,0.026648177506063592,True
49935,76497,0,76498,6631.0,74807.0,118620.0,0.0026839999999999998,-0.0015249999999999999,-0.003477,0.22750000000000004,-1.8900000000000001,-3.7450000000000006,0.7291875,-0.10453125,-0.04003125,0.9755,0.69503125,-0.6263125,-0.69765625,0.9318125,0.021187956987064143,0.02662702052952899,True
49936,76498,0,76499,6626.0,74801.0,118615.0,0.004392,0.000366,0.000122,0.2625,-1.7500000000000002,-3.6925000000000003,0.72921875,-0.1040625,-0.039968750000000004,0.9743125,0.69075,-0.62796875,-0.6971875,0.93053125,0.02127281609450637,0.02661107666611836,True
49937,76499,0,76500,6625.0,74797.0,118608.0,0.00366,0.002013,0.0025009999999999998,0.36750000000000005,-1.7850000000000001,-3.5875000000000004,0.7288125,-0.1039375,-0.03784375,0.97003125,0.69734375,-0.62721875,-0.69728125,0.9244375,0.021248085515137596,0.026700813475167434,True
49938,76500,0,76501,6623.0,74802.0,118604.0,0.0023179999999999997,0.003172,0.003294,0.4025,-1.6625,-3.6225000000000005,0.7345,-0.105375,-0.038625,0.9654375000000001,0.6913125,-0.62821875,-0.6940000000000001,0.93034375,0.02122945858599701,0.02653984773629222,True
49939,76501,0,76502,6619.0,74801.0,118600.0,-0.003477,0.003294,0.000793,0.385,-1.3650000000000002,-3.6575,0.72928125,-0.10734375,-0.038625,0.96909375,0.69084375,-0.6266875000000001,-0.6978125000000001,0.9354375,0.021088656361112314,0.026690116786658738,True
49940,76502,0,76503,6618.0,74803.0,118589.0,-0.006161,0.002623,-0.000305,0.29750000000000004,-0.9100000000000001,-3.6225000000000005,0.729,-0.10350000000000001,-0.03840625,0.9689375,0.69184375,-0.62665625,-0.69703125,0.9309375,0.021243495044115053,0.026668185067790284,True
49941,76503,0,76504,6614.0,74797.0,118583.0,-0.007686,0.000244,-0.000244,0.3325,-0.9450000000000001,-3.5875000000000004,0.7259375,-0.1063125,-0.039281250000000004,0.9695312500000001,0.69134375,-0.625625,-0.69878125,0.9355625000000001,0.021088297251338796,0.02670172237749585,True
49942,76504,0,76505,6610.0,74795.0,118582.0,-0.0060999999999999995,-0.00122,-0.002257,0.29750000000000004,-1.1725,-3.7100000000000004,0.7334375,-0.1046875,-0.0385625,0.9705625,0.69621875,-0.6300625,-0.7005,0.93353125,0.021330640147583867,0.02679854658812575,True
49943,76505,0,76506,6608.0,74794.0,118580.0,-0.000732,-0.002196,0.000732,0.10500000000000001,-1.61,-3.7450000000000006,0.72978125,-0.10425,-0.0400625,0.97303125,0.6908125,-0.62734375,-0.69728125,0.9350625,0.021240364178536305,0.02661097565141912,True
49944,76506,0,76507,6605.0,74796.0,118578.0,0.006954,-0.0028669999999999998,6.1e-05,0.14,-2.3800000000000003,-3.7975000000000003,0.72459375,-0.10359375,-0.038125,0.969,0.7095312500000001,-0.6318125,-0.695875,0.9245625000000001,0.021444574977988323,0.026634002642141656,True
49945,76507,0,76508,6605.0,74792.0,118577.0,0.008296,-0.000488,-0.002379,0.24500000000000002,-2.2750000000000004,-3.7975000000000003,0.7295625,-0.10375000000000001,-0.0403125,0.97684375,0.67303125,-0.6248125,-0.69796875,0.94025,0.02116005959436239,0.026627948907741655,True
49946,76508,0,76509,6602.0,74791.0,118574.0,0.004697,0.001647,-0.0032329999999999998,0.28,-1.9425000000000001,-3.8500000000000005,0.7378125,-0.10346875,-0.038375,0.96940625,0.70403125,-0.6306875000000001,-0.69415625,0.9255,0.02140495469320538,0.026556131068458756,True
49947,76509,0,76510,6601.0,74796.0,118576.0,-0.000122,0.00183,-0.000915,0.47250000000000003,-1.4875,-3.7800000000000002,0.7223437500000001,-0.10934375,-0.05040625,0.977,0.6898125,-0.6285000000000001,-0.69865625,0.9422812500000001,0.021079491239823785,0.02624636714801033,True
49948,76510,0,76511,6597.0,74790.0,118567.0,-0.004026,0.001403,-0.000183,0.49000000000000005,-1.2600000000000002,-3.6575,0.72853125,-0.096375,-0.03625,0.9697187500000001,0.70484375,-0.6301875,-0.6939062500000001,0.92596875,0.02167309932171649,0.026632329585360763,True
49949,76511,0,76512,6597.0,74794.0,118567.0,-0.0035989999999999998,-0.002257,0.0018909999999999999,0.12250000000000001,-1.2950000000000002,-3.7975000000000003,0.738125,-0.112125,-0.0485,0.9879375,0.68478125,-0.6253125,-0.69271875,0.929625,0.020839837057905358,0.026089421603281333,True
49950,76512,0,76513,6595.0,74791.0,118562.0,-0.000976,-0.0025009999999999998,0.000793,0.08750000000000001,-1.435,-3.7625,0.75065625,-0.10956250000000001,-0.03403125,0.95875,0.700125,-0.633375,-0.70334375,0.93778125,0.021264341569111014,0.027094004227666554,True
49951,76513,0,76514,6593.0,74787.0,118565.0,0.0008539999999999999,-0.002379,-0.001098,0.14,-1.6800000000000002,-3.6575,0.71759375,-0.09334375,-0.03471875,0.96321875,0.6936875,-0.62990625,-0.69428125,0.9178125,0.02178499968914823,0.026709119140691732,True
49952,76514,0,76515,6591.0,74789.0,118562.0,0.0025009999999999998,0.000549,-0.000976,0.28,-1.6625,-3.5875000000000004,0.7371562500000001,-0.11603125,-0.0463125,0.98765625,0.67359375,-0.6270625,-0.698375,0.9339375,0.020750800059893458,0.026401028407739377,True
49953,76515,0,76516,6591.0,74791.0,118566.0,0.0011589999999999999,0.0023179999999999997,-0.001098,0.525,-1.5225000000000002,-3.6050000000000004,0.75290625,-0.11078125,-0.041125,0.9768125,0.69859375,-0.635125,-0.69934375,0.942875,0.021284395756059695,0.026649240427693552,True
49954,76516,0,76517,6588.0,74791.0,118565.0,-0.001403,0.002928,-0.000549,0.5425000000000001,-1.435,-3.6925000000000003,0.7284375,-0.0980625,-0.03425,0.95975,0.70178125,-0.63128125,-0.6969062500000001,0.93353125,0.021648031403157318,0.026831548992092887,True
49955,76517,0,76518,6588.0,74790.0,118562.0,-0.000488,0.001586,0.001037,0.36750000000000005,-1.61,-3.6750000000000003,0.70828125,-0.1054375,-0.03740625,0.9717187500000001,0.693375,-0.62484375,-0.69534375,0.92834375,0.021092773431303502,0.026642168121267802,True
49956,76518,0,76519,6588.0,74790.0,118560.0,0.0006709999999999999,-0.000122,0.000122,0.2625,-1.715,-3.6050000000000004,0.739125,-0.11225,-0.04125,0.9869687500000001,0.6890000000000001,-0.6265000000000001,-0.6980625,0.93253125,0.020881976732381787,0.02659368523340647,True
49957,76519,0,76520,6584.0,74786.0,118562.0,0.001403,-0.000732,0.0006709999999999999,0.21000000000000002,-1.8900000000000001,-3.5700000000000003,0.7493125,-0.11259375,-0.0385625,0.9597187500000001,0.69271875,-0.6285000000000001,-0.6981875,0.9258125,0.020947530300261894,0.026707425393057687,True
49958,76520,0,76521,6583.0,74790.0,118560.0,0.001586,-0.0017079999999999999,0.000915,0.22750000000000004,-1.8375000000000001,-3.6750000000000003,0.72084375,-0.1140625,-0.039406250000000004,0.96465625,0.691375,-0.62740625,-0.69271875,0.92753125,0.020844409873654483,0.02645769818278921,True
49959,76521,0,76522,6586.0,74789.0,118557.0,0.000122,-0.000976,0.001098,0.3325,-1.5925000000000002,-3.7450000000000006,0.725625,-0.10425,-0.039968750000000004,0.9666250000000001,0.69903125,-0.6281875,-0.6985625,0.9352812500000001,0.021273896018535673,0.026665266450223567,True
49960,76522,0,76523,6584.0,74792.0,118564.0,-0.000183,-0.001403,0.000122,0.21000000000000002,-1.5925000000000002,-3.6575,0.72209375,-0.09771875000000001,-0.0386875,0.9675312500000001,0.69340625,-0.62503125,-0.69653125,0.91815625,0.021413678409037556,0.02663709098823342,True
49961,76523,0,76524,6581.0,74795.0,118560.0,-0.0008539999999999999,-0.0018909999999999999,-0.001281,0.28,-1.5225000000000002,-3.6750000000000003,0.72403125,-0.1033125,-0.03875,0.96984375,0.69096875,-0.62675,-0.6978125000000001,0.9300625,0.021254834681799263,0.026685055609682033,True
49962,76524,0,76525,6580.0,74793.0,118561.0,-0.000793,-0.000305,-0.00366,0.31500000000000006,-1.435,-3.7800000000000002,0.729875,-0.10446875,-0.03890625,0.96928125,0.685,-0.626625,-0.6980625,0.9295625000000001,0.021202915543644327,0.026688581341147714,True
49963,76525,0,76526,6580.0,74792.0,118555.0,-0.000732,-0.000305,-0.002013,0.4025,-1.4525000000000001,-3.5875000000000004,0.73053125,-0.10475,-0.04,0.97265625,0.6910000000000001,-0.62684375,-0.6930000000000001,0.92996875,0.021200189325926107,0.02644474142469526,True
49964,76526,0,76527,6579.0,74792.0,118556.0,0.001098,0.000549,0.0017079999999999999,0.3325,-1.3125000000000002,-3.6575,0.73190625,-0.1063125,-0.0415625,0.97696875,0.69171875,-0.62709375,-0.69834375,0.93725,0.02114667915291466,0.026592117133360415,True
49965,76527,0,76528,6577.0,74800.0,118559.0,0.001037,0.000244,0.001586,0.3325,-1.54,-3.5175000000000005,0.7361562500000001,-0.1068125,-0.0384375,0.9733125,0.69740625,-0.62825,-0.6989375,0.93684375,0.021172332585547085,0.02674204102909285,True
49966,76528,0,76529,6578.0,74801.0,118558.0,0.0021349999999999997,0.001037,0.001037,0.4025,-1.4700000000000002,-3.5175000000000005,0.7365625,-0.106375,-0.0385625,0.9630625,0.6975625,-0.6268125,-0.69996875,0.9292812500000001,0.02113296229465344,0.026777614850221215,True
49967,76529,0,76530,6577.0,74796.0,118558.0,-0.000122,0.001464,0.000488,0.43750000000000006,-1.3475000000000001,-3.4475000000000002,0.7298125,-0.10321875,-0.03871875,0.96965625,0.6925625,-0.6228750000000001,-0.69746875,0.92409375,0.021104613088439104,0.026672773905220548,True
49968,76530,0,76531,6575.0,74798.0,118554.0,-0.001098,0.002257,0.000244,0.5425000000000001,-1.2775,-3.5000000000000004,0.73009375,-0.104875,-0.039375,0.9763437500000001,0.6910937500000001,-0.62784375,-0.69778125,0.93184375,0.021234857395909863,0.026658518161423915,True
49969,76531,0,76532,6577.0,74799.0,118554.0,-0.0032329999999999998,0.000732,0.001403,0.45500000000000007,-1.3475000000000001,-3.4125000000000005,0.73628125,-0.10478125,-0.039,0.9689375,0.69903125,-0.6273125,-0.69384375,0.9286562500000001,0.02121755063610778,0.02651850220766056,True
49970,76532,0,76533,6575.0,74798.0,118554.0,-0.001403,-0.00061,0.000122,0.36750000000000005,-1.4175000000000002,-3.4650000000000003,0.73009375,-0.10325000000000001,-0.039468750000000004,0.9696250000000001,0.6835625,-0.6265000000000001,-0.696625,0.93015625,0.021247436704363187,0.026609152060251145,True
49971,76533,0,76534,6573.0,74798.0,118550.0,0.000305,-0.00244,0.000122,0.385,-1.54,-3.3600000000000003,0.7298125,-0.10415625,-0.04053125,0.9753437500000001,0.6909375,-0.626875,-0.697125,0.9314375,0.02122554120244651,0.026585837420347508,True
49972,76534,0,76535,6574.0,74797.0,118550.0,0.000366,-0.0008539999999999999,-0.00042699999999999997,0.36750000000000005,-1.715,-3.5000000000000004,0.7366875,-0.10378125,-0.038875,0.9766875,0.69884375,-0.62915625,-0.69740625,0.93196875,0.021331425025979112,0.026663984198745567,True
49973,76535,0,76536,6573.0,74799.0,118549.0,0.001037,0.000122,-0.000122,0.31500000000000006,-1.7325000000000002,-3.5000000000000004,0.73659375,-0.1025625,-0.03415625,0.9710625,0.6951875000000001,-0.62784375,-0.6965625,0.91803125,0.021328755181825452,0.02682179959255463,True
49974,76536,0,76537,6574.0,74796.0,118547.0,0.0017079999999999999,0.0015249999999999999,-0.00061,0.5425000000000001,-1.5750000000000002,-3.5175000000000005,0.7293125,-0.1038125,-0.039218750000000004,0.973,0.6970000000000001,-0.62625,-0.6976875,0.929625,0.02121465915435765,0.02666114995584101,True
49975,76537,0,76538,6572.0,74795.0,118544.0,0.000366,0.001281,-0.000549,0.47250000000000003,-1.6275000000000002,-3.5700000000000003,0.73559375,-0.10540625,-0.039843750000000004,0.9745,0.69553125,-0.62803125,-0.6997187500000001,0.934625,0.021220738056356006,0.026715891248761694,True
49976,76538,0,76539,6571.0,74798.0,118553.0,0.0008539999999999999,-0.00042699999999999997,0.000915,0.35000000000000003,-1.5050000000000001,-3.5000000000000004,0.7339375,-0.10628125000000001,-0.04234375,0.973125,0.6968125000000001,-0.62834375,-0.69846875,0.9342812500000001,0.021197629255925908,0.026565412076406558,True
49977,76539,0,76540,6571.0,74800.0,118559.0,-0.001403,-0.002196,0.002013,0.21000000000000002,-1.4525000000000001,-3.5875000000000004,0.7288125,-0.10403125,-0.0393125,0.96965625,0.69359375,-0.6254375,-0.6970937500000001,0.9247500000000001,0.02117348168941161,0.026633953640800352,True
49978,76540,0,76541,6571.0,74796.0,118552.0,-0.000183,-0.002074,0.00244,0.2625,-1.5225000000000002,-3.4825000000000004,0.7296875,-0.10387500000000001,-0.039343750000000004,0.969375,0.69065625,-0.62596875,-0.6975625,0.92975,0.02120094260251183,0.026651162437588728,True
49979,76541,0,76542,6569.0,74796.0,118556.0,-0.0008539999999999999,-0.000915,-0.0028669999999999998,0.35000000000000003,-1.2075,-3.5700000000000003,0.72965625,-0.10415625,-0.0326875,0.9778125,0.6911875000000001,-0.6255000000000001,-0.69240625,0.93259375,0.02117088993116891,0.02671747513468842,True
49980,76542,0,76543,6567.0,74799.0,118549.0,-0.0018909999999999999,0.0006709999999999999,-0.003172,0.4025,-1.2775,-3.4825000000000004,0.737125,-0.10490625,-0.04225,0.9733125,0.69703125,-0.630375,-0.7010625,0.93596875,0.021334175789040972,0.02667142354706402,True
49981,76543,0,76544,6571.0,74799.0,118554.0,-0.0023179999999999997,0.000732,-0.002379,0.49000000000000005,-1.4000000000000001,-3.4650000000000003,0.73403125,-0.1039375,-0.03884375,0.9693125,0.6920937500000001,-0.625125,-0.6975625,0.9270625,0.021164867183415315,0.026671407350421728,True
49982,76544,0,76545,6572.0,74798.0,118553.0,0.000488,0.0006709999999999999,-0.000183,0.49000000000000005,-1.54,-3.5000000000000004,0.73053125,-0.1045625,-0.03328125,0.969875,0.68978125,-0.62540625,-0.6955625,0.92203125,0.021150666296114406,0.026817824052398073,True
49983,76545,0,76546,6570.0,74800.0,118557.0,0.0042699999999999995,0.001952,-0.000549,0.42000000000000004,-1.7850000000000001,-3.6050000000000004,0.7309687500000001,-0.10490625,-0.039125,0.970375,0.6864375,-0.6288125,-0.6953125,0.93475,0.021272087316430707,0.026571338184118953,True
49984,76546,0,76547,6571.0,74797.0,118558.0,0.0040869999999999995,0.001647,0.000732,0.36750000000000005,-1.995,-3.7800000000000002,0.7323125,-0.10590625000000001,-0.04103125,0.976125,0.70653125,-0.6324375,-0.7011875,0.9385625,0.021375523636262144,0.026725688795326136,True
49985,76547,0,76548,6572.0,74799.0,118563.0,0.001037,0.00183,0.0018909999999999999,0.43750000000000006,-1.6800000000000002,-3.7625,0.73571875,-0.1060625,-0.04125,0.97565625,0.69315625,-0.62946875,-0.70121875,0.94315625,0.021251219639075652,0.0267180642655537,True
49986,76548,0,76549,6574.0,74800.0,118561.0,-0.0028669999999999998,0.000549,0.0025009999999999998,0.385,-1.2600000000000002,-3.7100000000000004,0.7355,-0.106625,-0.0415625,0.9775312500000001,0.6923125,-0.63015625,-0.70046875,0.94359375,0.021255701534577152,0.026675860149415184,True
49987,76549,0,76550,6572.0,74799.0,118556.0,-0.0060999999999999995,-0.000732,0.001586,0.28,-0.9975,-3.7100000000000004,0.7359687500000001,-0.10596875,-0.04025,0.97621875,0.6994375,-0.6330625,-0.70084375,0.94446875,0.021397816450958944,0.026743772669708902,True
49988,76550,0,76551,6571.0,74802.0,118559.0,-0.006222,-0.0034159999999999998,0.000793,0.29750000000000004,-0.9625000000000001,-3.7625,0.72728125,-0.1058125,-0.040375,0.97096875,0.70803125,-0.63215625,-0.7033125,0.9420937500000001,0.021368155700944774,0.026835975944521608,True
49989,76551,0,76552,6574.0,74799.0,118562.0,-0.000122,-0.0021349999999999997,-0.002013,0.15750000000000003,-1.5925000000000002,-3.6225000000000005,0.73453125,-0.10175000000000001,-0.04046875,0.96965625,0.7036875,-0.634625,-0.70459375,0.93659375,0.021631139097916044,0.02688265213832954,True
49990,76552,0,76553,6573.0,74804.0,118560.0,0.0021349999999999997,-0.001952,-0.002257,0.21000000000000002,-1.9075000000000002,-3.6925000000000003,0.73875,-0.1075,-0.042625,0.97465625,0.7040625,-0.63425,-0.70515625,0.94571875,0.021382830814820824,0.026817529235420235,True
49991,76553,0,76554,6571.0,74806.0,118564.0,0.003294,0.001952,-0.0021349999999999997,0.45500000000000007,-2.0825,-3.5525,0.73725,-0.10478125,-0.03884375,0.96959375,0.70403125,-0.6323125,-0.69871875,0.915625,0.021416229190824042,0.02671697291990096,True
49992,76554,0,76555,6572.0,74803.0,118564.0,0.003843,0.00122,-0.0008539999999999999,0.42000000000000004,-1.9600000000000002,-3.6400000000000006,0.72996875,-0.10546875,-0.0415,0.9741562500000001,0.685125,-0.62315625,-0.695375,0.9364375,0.021024416802780915,0.026477629920582297,True
49993,76555,0,76556,6574.0,74805.0,118570.0,0.003355,0.0013419999999999999,0.001647,0.4025,-1.8900000000000001,-3.7100000000000004,0.73503125,-0.10371875,-0.0388125,0.9699375,0.6988125000000001,-0.6249375,-0.6960625,0.92909375,0.02116629737638928,0.0266135542862349,True
49994,76556,0,76557,6572.0,74806.0,118567.0,0.001098,0.000366,0.001403,0.35000000000000003,-1.7325000000000002,-3.7450000000000006,0.72571875,-0.10515625,-0.041875,0.97390625,0.6910625,-0.6250625,-0.69896875,0.93759375,0.02111289057641986,0.02660409657791887,True
49995,76557,0,76558,6573.0,74807.0,118570.0,0.000915,-0.000488,6.1e-05,0.1925,-1.6800000000000002,-3.6925000000000003,0.735375,-0.09909375000000001,-0.035,0.9686250000000001,0.69921875,-0.62903125,-0.6979062500000001,0.93003125,0.02151678215114531,0.02684058491800292,True
49996,76558,0,76559,6574.0,74805.0,118568.0,-0.001586,-0.0006709999999999999,-0.000366,0.31500000000000006,-1.5575,-3.6750000000000003,0.729875,-0.10350000000000001,-0.03853125,0.9703125,0.691625,-0.62571875,-0.69628125,0.92953125,0.021206233828200444,0.02663356451692499,True
49997,76559,0,76560,6574.0,74803.0,118569.0,-0.0028669999999999998,-0.000915,-0.001037,0.385,-1.4000000000000001,-3.6925000000000003,0.730125,-0.10350000000000001,-0.039218750000000004,0.969375,0.69121875,-0.624875,-0.69759375,0.9293750000000001,0.021172696308103083,0.026657455242982936,True
49998,76560,0,76561,6577.0,74807.0,118571.0,-0.002623,-0.000366,-0.0011589999999999999,0.31500000000000006,-1.4875,-3.7450000000000006,0.73040625,-0.10390625,-0.04003125,0.97390625,0.69115625,-0.624625,-0.69721875,0.93559375,0.021146261110575288,0.02660977766980341,True
49999,76561,0,76562,6576.0,74806.0,118570.0,-6.1e-05,-0.000549,0.001464,0.385,-1.61,-3.6575,0.73665625,-0.10387500000000001,-0.03975,0.9691875,0.69915625,-0.62546875,-0.6980625,0.92921875,0.021181068888282584,0.026654418742360866,True
50000,76562,0,76563,6575.0,74809.0,118576.0,0.000549,0.000793,0.000305,0.31500000000000006,-1.6625,-3.6925000000000003,0.72959375,-0.10221875,-0.04096875,0.975,0.69078125,-0.6248125,-0.69846875,0.93715625,0.021222242808955395,0.026621083543893788,True
50001,76563,0,76564,6577.0,74807.0,118580.0,0.00183,0.000305,0.000305,0.3325,-1.6625,-3.7275000000000005,0.73409375,-0.1038125,-0.0401875,0.9702500000000001,0.698625,-0.6249375,-0.69728125,0.9293125,0.021162490260127564,0.026605914365574142,True
50002,76564,0,76565,6577.0,74808.0,118578.0,0.002013,0.0015249999999999999,0.000244,0.45500000000000007,-1.6625,-3.6225000000000005,0.7308125,-0.10421875,-0.0401875,0.97146875,0.69165625,-0.6244375,-0.69134375,0.9296562500000001,0.021126117094045296,0.026371843371221948,True
50003,76565,0,76566,6580.0,74809.0,118578.0,-0.00061,0.000549,-0.000366,0.47250000000000003,-1.54,-3.6575,0.73790625,-0.11146875,-0.04628125,0.97175,0.6930937500000001,-0.62634375,-0.70046875,0.9256562500000001,0.020907488550751672,0.026484821264778628,True
50004,76566,0,76567,6579.0,74812.0,118583.0,-0.001464,-0.000793,0.000732,0.31500000000000006,-1.4875,-3.7275000000000005,0.7261562500000001,-0.10321875,-0.04296875,0.982,0.69734375,-0.6247812500000001,-0.6975,0.93075,0.021180391196368494,0.02650192327158619,True
50005,76567,0,76568,6584.0,74812.0,118581.0,-0.0011589999999999999,-0.001647,0.000183,0.3325,-1.5925000000000002,-3.6575,0.73228125,-0.10878125,-0.0419375,0.97209375,0.700125,-0.62784375,-0.6989375,0.93684375,0.021076246271052455,0.02660033452856019,True
50006,76568,0,76569,6582.0,74812.0,118581.0,-0.00042699999999999997,-0.0013419999999999999,-0.0008539999999999999,0.2625,-1.5750000000000002,-3.6050000000000004,0.7244375000000001,-0.10053125,-0.039156250000000004,0.96940625,0.69846875,-0.62509375,-0.69540625,0.9301875000000001,0.02130194935806082,0.026573768147669163,True
50007,76569,0,76570,6585.0,74813.0,118581.0,0.000488,-0.000366,6.1e-05,0.31500000000000006,-1.54,-3.7975000000000003,0.73784375,-0.10896875,-0.04203125,0.9708125,0.68253125,-0.6253125,-0.695875,0.93590625,0.020968008020202794,0.026475828453132358,True
50008,76570,0,76571,6584.0,74815.0,118587.0,0.0,-0.000122,-0.0006709999999999999,0.385,-1.5750000000000002,-3.5525,0.7282500000000001,-0.10203125,-0.03784375,0.9646875,0.698625,-0.62625,-0.69884375,0.92903125,0.021286990508096036,0.026762386397136503,True
50009,76571,0,76572,6584.0,74813.0,118588.0,0.00061,0.00042699999999999997,-0.0028669999999999998,0.47250000000000003,-1.5050000000000001,-3.6050000000000004,0.7253437500000001,-0.10378125,-0.04184375,0.97371875,0.69146875,-0.6236875000000001,-0.69846875,0.9296875,0.021114069531624785,0.026585656246401915,True
50010,76572,0,76573,6586.0,74818.0,118592.0,-0.001769,0.000305,-0.0008539999999999999,0.385,-1.5225000000000002,-3.6925000000000003,0.73871875,-0.1080625,-0.04640625,0.98409375,0.6913125,-0.6255000000000001,-0.69846875,0.92921875,0.021012263710381517,0.02640092819519429,True
50011,76573,0,76574,6587.0,74819.0,118591.0,-0.000305,0.001464,-0.0013419999999999999,0.42000000000000004,-1.61,-3.5700000000000003,0.746125,-0.09865625,-0.04503125,0.98190625,0.6920625,-0.6248125,-0.6980625,0.9295,0.021366913961273815,0.02644058617958393,True
50012,76574,0,76575,6584.0,74815.0,118594.0,0.000305,0.002196,-0.000366,0.525,-1.61,-3.6050000000000004,0.73890625,-0.11184375,-0.04115625,0.9557187500000001,0.6915625,-0.6240625,-0.69578125,0.9303125,0.0208015533586304,0.026507563918432425,True
50013,76575,0,76576,6583.0,74816.0,118595.0,0.001647,0.0,0.0037819999999999998,0.36750000000000005,-1.7675,-3.7275000000000005,0.72459375,-0.10284375,-0.03815625,0.96475,0.69203125,-0.62446875,-0.69728125,0.92959375,0.02118319811468014,0.026688160260554993,True
50014,76576,0,76577,6585.0,74819.0,118604.0,0.0015249999999999999,-0.000976,0.002013,0.28,-1.7675,-3.7450000000000006,0.72496875,-0.10503125,-0.04015625,0.974375,0.69221875,-0.6271875,-0.69925,0.9345,0.02120243125610669,0.026684767756105957,True
50015,76577,0,76578,6586.0,74821.0,118606.0,0.000366,-0.000366,-0.001098,0.29750000000000004,-1.6275000000000002,-3.7275000000000005,0.7364375,-0.106875,-0.04009375,0.97565625,0.69634375,-0.62571875,-0.69546875,0.933125,0.021069181990880977,0.0265382692928232,True
50016,76578,0,76579,6582.0,74820.0,118605.0,-0.002562,-0.0011589999999999999,-0.002074,0.36750000000000005,-1.4700000000000002,-3.7100000000000004,0.73671875,-0.10590625000000001,-0.04334375,0.97603125,0.6930625,-0.6266875000000001,-0.69975,0.92509375,0.021147027995543455,0.026575420803854288,True
50017,76579,0,76580,6587.0,74824.0,118601.0,-0.0032329999999999998,0.000122,-0.0011589999999999999,0.385,-1.3650000000000002,-3.7275000000000005,0.73865625,-0.10771875,-0.03578125,0.9705625,0.69521875,-0.626125,-0.694375,0.93034375,0.021051068732900528,0.026669788160259167,True
50018,76580,0,76581,6588.0,74816.0,118602.0,-0.0011589999999999999,-0.0008539999999999999,-0.00244,0.42000000000000004,-1.6450000000000002,-3.7275000000000005,0.730375,-0.1045625,-0.04084375,0.9643125,0.6919062500000001,-0.62525,-0.6990000000000001,0.93296875,0.02114445538623973,0.026647080853475853,True
50019,76581,0,76582,6586.0,74820.0,118604.0,0.001464,-0.000305,-0.001403,0.49000000000000005,-1.8550000000000002,-3.7275000000000005,0.7301562500000001,-0.10025,-0.0398125,0.969125,0.69053125,-0.62565625,-0.70053125,0.9281875,0.021335725824565593,0.026749171639780016,True
50020,76582,0,76583,6588.0,74824.0,118610.0,0.0026839999999999998,0.00042699999999999997,0.001647,0.525,-1.9425000000000001,-3.6575,0.73,-0.10634375,-0.0428125,0.9750625,0.71346875,-0.6348125,-0.70153125,0.92390625,0.02145211172197881,0.026667122104019364,True
50021,76583,0,76584,6589.0,74823.0,118612.0,0.003721,0.00061,0.0032329999999999998,0.5075000000000001,-1.9250000000000003,-3.5700000000000003,0.730375,-0.1035625,-0.04065625,0.9696250000000001,0.67875,-0.6210625,-0.6938125,0.92678125,0.021018589266811695,0.026450198809924556,True
50022,76584,0,76585,6590.0,74826.0,118614.0,0.003294,0.001403,0.002806,0.5075000000000001,-1.8900000000000001,-3.6050000000000004,0.72996875,-0.10553125000000001,-0.0400625,0.9695625,0.68971875,-0.62634375,-0.70059375,0.9350937500000001,0.021148592145352474,0.02674151304561252,True
50023,76585,0,76586,6589.0,74825.0,118615.0,-0.000732,0.00183,-0.000915,0.6300000000000001,-1.5925000000000002,-3.5525,0.7303437500000001,-0.10515625,-0.04059375,0.96959375,0.68765625,-0.62621875,-0.7005625,0.9325,0.021158851275127247,0.026718774116986203,True
50024,76586,0,76587,6589.0,74825.0,118616.0,-0.002623,0.000915,-0.00183,0.5950000000000001,-1.54,-3.4825000000000004,0.72996875,-0.10021875,-0.0405,0.969875,0.68953125,-0.6248125,-0.7000625,0.92896875,0.021303461701485036,0.02670286765468711,True
50025,76587,0,76588,6592.0,74826.0,118614.0,-0.0037819999999999998,-0.000488,0.0,0.49000000000000005,-1.5575,-3.6050000000000004,0.731875,-0.10559375,-0.04159375,0.9655625,0.7045,-0.6326875,-0.70184375,0.9498125000000001,0.021398142204337223,0.026728774041411385,True
50026,76588,0,76589,6592.0,74823.0,118617.0,-0.002623,-0.00183,-0.000122,0.35000000000000003,-1.7325000000000002,-3.8500000000000005,0.73246875,-0.10275000000000001,-0.04334375,0.97296875,0.711,-0.63775,-0.7039062500000001,0.95059375,0.021714645209079564,0.02673919230890864,True
50027,76589,0,76590,6594.0,74824.0,118618.0,0.00042699999999999997,-0.0026839999999999998,0.001281,0.08750000000000001,-1.9425000000000001,-3.8675,0.73490625,-0.10740625000000001,-0.03415625,0.97165625,0.7124375000000001,-0.63321875,-0.69878125,0.936125,0.021345667626160303,0.026909222494530982,True
50028,76590,0,76591,6593.0,74828.0,118621.0,0.0030499999999999998,-0.003904,-0.00061,0.052500000000000005,-1.995,-3.8675,0.73090625,-0.10465625,-0.04003125,0.9700625,0.6756875,-0.61903125,-0.69346875,0.9216875,0.02089338913366057,0.026461956666173115,True
50029,76591,0,76592,6596.0,74825.0,118624.0,0.0021349999999999997,-0.000549,-0.0006709999999999999,0.2625,-1.6975000000000002,-3.7800000000000002,0.737125,-0.10646875,-0.039468750000000004,0.97084375,0.7075,-0.62815625,-0.69446875,0.92009375,0.021182564163730284,0.02652415837048529,True
50030,76592,0,76593,6597.0,74827.0,118627.0,0.001037,0.001037,-0.000244,0.56,-1.5575,-3.5700000000000003,0.73053125,-0.10465625,-0.039843750000000004,0.9754375000000001,0.678625,-0.6237812500000001,-0.69421875,0.92734375,0.021082261685540275,0.02649911732882823,True
50031,76593,0,76594,6598.0,74833.0,118629.0,0.0006709999999999999,0.003294,6.1e-05,0.5950000000000001,-1.4000000000000001,-3.4475000000000002,0.73734375,-0.1068125,-0.042625,0.974375,0.6883125,-0.62453125,-0.69934375,0.93453125,0.02102451188791665,0.026588510069219955,True
50032,76594,0,76595,6597.0,74831.0,118633.0,-0.001647,0.004026,-0.00122,0.6475000000000001,-1.225,-3.5700000000000003,0.7359687500000001,-0.10553125000000001,-0.0410625,0.97440625,0.6973125,-0.62428125,-0.70084375,0.9370937500000001,0.021066604735925035,0.02671087905650996,True
50033,76595,0,76596,6597.0,74829.0,118632.0,-0.0040869999999999995,0.00061,-0.000183,0.5775,-1.4875,-3.4125000000000005,0.73528125,-0.10696875,-0.0423125,0.96746875,0.68925,-0.62228125,-0.69865625,0.9344687500000001,0.020928706595778977,0.026574067162054616,True
50034,76596,0,76597,6601.0,74831.0,118638.0,-0.0023179999999999997,0.000366,0.000732,0.525,-1.8375000000000001,-3.5525,0.7336875,-0.10278125,-0.0406875,0.9728125,0.6989375,-0.62646875,-0.6975625,0.92859375,0.021265229104355448,0.02659675423435005,True
50035,76597,0,76598,6601.0,74832.0,118637.0,0.0021349999999999997,-0.000305,0.000549,0.29750000000000004,-2.205,-3.5875000000000004,0.735,-0.1053125,-0.0400625,0.9700625,0.69325,-0.6274375,-0.69915625,0.93503125,0.021200947114371926,0.02668486904284433,True
50036,76598,0,76599,6600.0,74831.0,118636.0,0.0046359999999999995,0.000488,0.0,0.29750000000000004,-2.4675000000000002,-3.7800000000000002,0.73084375,-0.10496875,-0.042875,0.9721875,0.6925,-0.6255000000000001,-0.69825,0.929,0.02113789567724514,0.02653528083973561,True
50037,76599,0,76600,6603.0,74836.0,118634.0,0.003477,-0.000732,0.000305,0.31500000000000006,-2.3975000000000004,-3.8675,0.73459375,-0.105875,-0.04009375,0.9702500000000001,0.6921875000000001,-0.6265000000000001,-0.69996875,0.93253125,0.02114084421253528,0.026715620844662,True
50038,76600,0,76601,6602.0,74828.0,118626.0,0.0,-0.002928,0.003355,0.17500000000000002,-1.8375000000000001,-3.7800000000000002,0.72984375,-0.1069375,-0.04175,0.9716250000000001,0.6908125,-0.62484375,-0.6986875,0.93478125,0.021031859339209005,0.026598073278185332,True
50039,76601,0,76602,6604.0,74832.0,118621.0,-0.00061,-0.0037819999999999998,0.001037,0.052500000000000005,-1.7675,-3.7800000000000002,0.7311562500000001,-0.0994375,-0.0408125,0.969875,0.69753125,-0.62565625,-0.690625,0.92953125,0.021368719869140546,0.02631818757119352,True
50040,76602,0,76603,6601.0,74829.0,118619.0,-0.001281,-0.003477,-0.005246,0.07,-1.8375000000000001,-3.8850000000000002,0.73046875,-0.10584375,-0.03865625,0.97609375,0.69140625,-0.62484375,-0.69775,0.92878125,0.021076275864694575,0.026686388436193583,True
50041,76603,0,76604,6601.0,74828.0,118615.0,-0.00122,-0.0021349999999999997,-0.0059169999999999995,0.12250000000000001,-1.6625,-3.7100000000000004,0.7457812500000001,-0.11309375,-0.043562500000000004,0.97775,0.69146875,-0.62475,-0.6986875,0.9350625,0.020778129727205354,0.026524688811905492,True
50042,76604,0,76605,6597.0,74828.0,118603.0,-0.001281,0.00042699999999999997,-0.003355,0.22750000000000004,-1.54,-3.6750000000000003,0.72359375,-0.0964375,-0.045375,0.982375,0.6978125000000001,-0.6251875,-0.6981875,0.9296562500000001,0.021471917726514776,0.0264315954358999,True
50043,76605,0,76606,6597.0,74825.0,118599.0,0.003355,0.002257,0.0028669999999999998,0.4025,-1.8375000000000001,-3.7800000000000002,0.74346875,-0.1080625,-0.040875,0.96459375,0.69175,-0.62496875,-0.70165625,0.929875,0.02099114338977587,0.026750483583464164,True
50044,76606,0,76607,6592.0,74829.0,118597.0,0.003843,0.003477,0.005307,0.2625,-1.7500000000000002,-3.7450000000000006,0.72396875,-0.10365625,-0.04259375,0.9834375000000001,0.6999375,-0.6275000000000001,-0.6980000000000001,0.92559375,0.021270683179372654,0.026536814721839826,True
50045,76607,0,76608,6591.0,74829.0,118590.0,0.0023179999999999997,0.002928,0.002928,0.4025,-1.7325000000000002,-3.7450000000000006,0.72509375,-0.10315625,-0.0410625,0.98190625,0.696125,-0.6264375,-0.6980937500000001,0.929875,0.021248759590176202,0.02660250854380209,True
50046,76608,0,76609,6588.0,74829.0,118581.0,0.000244,0.0018909999999999999,0.00061,0.3325,-1.435,-3.6400000000000006,0.74828125,-0.11225,-0.044625,0.97090625,0.6809375,-0.6255000000000001,-0.6990625,0.9352812500000001,0.020842216401697432,0.026496451029264775,True
50047,76609,0,76610,6587.0,74825.0,118578.0,-0.003904,0.002379,0.00042699999999999997,0.42000000000000004,-1.12,-3.5875000000000004,0.7241562500000001,-0.10371875,-0.04246875,0.98553125,0.70009375,-0.62375,-0.698875,0.92853125,0.021119092339712677,0.026576362283707255,True
50048,76610,0,76611,6582.0,74824.0,118572.0,-0.006344,-0.001647,-0.00061,0.36750000000000005,-0.9975,-3.6400000000000006,0.7469687500000001,-0.11271875,-0.04396875,0.967,0.69165625,-0.6251875,-0.70121875,0.93471875,0.02081075524805649,0.02660799884621078,True
50049,76611,0,76612,6580.0,74823.0,118568.0,-0.004209,-0.002379,-0.0028669999999999998,0.22750000000000004,-1.33,-3.6750000000000003,0.72371875,-0.10337500000000001,-0.039125,0.97259375,0.69775,-0.62684375,-0.69134375,0.9288125,0.02125602270895961,0.026414874646099405,True
50050,76612,0,76613,6580.0,74819.0,118563.0,-0.0015249999999999999,-0.00183,-0.0023179999999999997,0.1925,-1.5575,-3.7450000000000006,0.74575,-0.10421875,-0.04334375,0.97265625,0.69134375,-0.6238750000000001,-0.7007187500000001,0.9353750000000001,0.02110375600915778,0.02661359803548227,True
50051,76613,0,76614,6575.0,74823.0,118567.0,0.002928,-0.003172,-0.0015249999999999999,0.15750000000000003,-2.0825,-3.8325000000000005,0.72359375,-0.1035625,-0.0380625,0.963375,0.69634375,-0.6263125,-0.698125,0.93,0.021227294991891296,0.026725206872991368,True
50052,76614,0,76615,6577.0,74821.0,118566.0,0.0062829999999999995,-0.00183,-0.001769,0.10500000000000001,-2.345,-3.7100000000000004,0.7274375000000001,-0.10478125,-0.0395625,0.9695625,0.69215625,-0.624375,-0.6986875,0.9295,0.02110078936013604,0.02668664073748858,True
50053,76615,0,76616,6574.0,74823.0,118564.0,0.004575,0.000488,-0.000244,0.28,-2.1,-3.6750000000000003,0.7233125,-0.10721875,-0.04053125,0.9729375,0.6920000000000001,-0.625125,-0.6986875,0.9286875,0.021031619128836908,0.026647418005511427,True
50054,76616,0,76617,6570.0,74824.0,118564.0,0.002623,0.001098,-0.0008539999999999999,0.35000000000000003,-1.7675,-3.8150000000000004,0.7328125,-0.10828125,-0.04321875,0.9659375,0.69103125,-0.62465625,-0.70115625,0.9346875,0.02096983587334341,0.026635898876191274,True
50055,76617,0,76618,6571.0,74822.0,118565.0,-0.0013419999999999999,0.001281,0.00042699999999999997,0.3325,-1.5750000000000002,-3.7975000000000003,0.7304375,-0.10534375,-0.03725,0.9648125000000001,0.69465625,-0.6250625,-0.6980000000000001,0.92859375,0.021105276382547253,0.026753178395011745,True
50056,76618,0,76619,6569.0,74824.0,118557.0,-0.0040869999999999995,0.000488,0.0030499999999999998,0.385,-1.4700000000000002,-3.7800000000000002,0.73290625,-0.10796875,-0.044,0.9765,0.6904375,-0.6245625,-0.7017187500000001,0.9360937500000001,0.02097879911572033,0.026626436672549353,True
50057,76619,0,76620,6566.0,74822.0,118552.0,-0.00244,-6.1e-05,0.002013,0.29750000000000004,-1.54,-3.8325000000000005,0.7354375,-0.105625,-0.039468750000000004,0.97175,0.69921875,-0.6280625,-0.69375,0.9343750000000001,0.021213097863463683,0.026495823842065294,True
50058,76620,0,76621,6564.0,74823.0,118556.0,-0.001098,0.000122,0.002257,0.07,-1.54,-3.8500000000000005,0.73121875,-0.105375,-0.0406875,0.97275,0.69621875,-0.626625,-0.7007187500000001,0.9362812500000001,0.02116611594158761,0.026721135392062226,True
50059,76621,0,76622,6565.0,74823.0,118556.0,-0.00122,-0.000793,-6.1e-05,0.22750000000000004,-1.4525000000000001,-3.7450000000000006,0.736625,-0.107375,-0.04225,0.9751562500000001,0.69840625,-0.62621875,-0.7008125000000001,0.9354687500000001,0.021068754211403244,0.026661572367305732,True
50060,76622,0,76623,6566.0,74822.0,118550.0,-0.0008539999999999999,0.000793,-0.001586,0.3325,-1.33,-3.6925000000000003,0.73653125,-0.10703125000000001,-0.0415,0.970375,0.6960937500000001,-0.6235625,-0.69878125,0.92896875,0.020977112877147652,0.026611890009755036,True
50061,76623,0,76624,6563.0,74822.0,118550.0,-0.001464,0.0008539999999999999,-0.002257,0.4025,-1.4700000000000002,-3.7450000000000006,0.7303437500000001,-0.10615625000000001,-0.04096875,0.9694375000000001,0.68646875,-0.620625,-0.6933125,0.92959375,0.0208958444393674,0.0264178307385856,True
50062,76624,0,76625,6562.0,74819.0,118548.0,-0.000183,0.001586,-0.002745,0.385,-1.7500000000000002,-3.6925000000000003,0.7309375,-0.1053125,-0.04071875,0.97096875,0.69259375,-0.62384375,-0.70040625,0.93190625,0.021058095367422074,0.026707556682392622,True
50063,76625,0,76626,6559.0,74820.0,118548.0,0.002745,0.000122,0.00122,0.35000000000000003,-1.9250000000000003,-3.5875000000000004,0.73759375,-0.1079375,-0.042375,0.96890625,0.6904375,-0.62665625,-0.701625,0.93571875,0.021063304117870246,0.026688527576627045,True
50064,76626,0,76627,6561.0,74817.0,118549.0,0.003294,-0.000305,0.00183,0.31500000000000006,-1.8900000000000001,-3.5875000000000004,0.739125,-0.10828125,-0.04396875,0.97590625,0.698125,-0.62771875,-0.70109375,0.9351875000000001,0.02109157999053404,0.026603072991454074,True
50065,76627,0,76628,6559.0,74820.0,118547.0,0.0,-0.0023179999999999997,0.001952,0.1925,-1.6975000000000002,-3.5875000000000004,0.7383125,-0.10846875,-0.04209375,0.9751875,0.6993125,-0.6255937500000001,-0.6990937500000001,0.93003125,0.020999493667030873,0.02660016625103907,True
50066,76628,0,76629,6558.0,74819.0,118545.0,-0.000488,-0.0018909999999999999,0.00061,0.2625,-1.4175000000000002,-3.535,0.7363125,-0.1075625,-0.04234375,0.9713125,0.69784375,-0.626375,-0.7007187500000001,0.9350625,0.021067351569201722,0.026654082687371194,True
50067,76629,0,76630,6557.0,74819.0,118550.0,-0.00061,-0.002928,-0.000732,0.24500000000000002,-1.4175000000000002,-3.6925000000000003,0.73171875,-0.10465625,-0.043750000000000004,0.975375,0.6970000000000001,-0.6259375,-0.70040625,0.934875,0.02116797583848331,0.02658483602875965,True
50068,76630,0,76631,6558.0,74819.0,118544.0,-0.0011589999999999999,-0.001464,-0.003904,0.22750000000000004,-1.33,-3.7450000000000006,0.7366875,-0.10721875,-0.043500000000000004,0.9744375000000001,0.69878125,-0.62753125,-0.70025,0.932875,0.021127269912610505,0.026588799708504977,True
50069,76631,0,76632,6557.0,74819.0,118543.0,-0.0011589999999999999,-0.000122,-0.002989,0.35000000000000003,-1.3475000000000001,-3.6750000000000003,0.73521875,-0.10775,-0.0425,0.97565625,0.69665625,-0.6279375,-0.70059375,0.93253125,0.021121845871177804,0.02664283120724578,True
50070,76632,0,76633,6553.0,74815.0,118535.0,0.0006709999999999999,0.0013419999999999999,0.0006709999999999999,0.43750000000000006,-1.4000000000000001,-3.6400000000000006,0.7336875,-0.10671875,-0.0388125,0.96984375,0.6912812500000001,-0.62371875,-0.6986875,0.92903125,0.02099601629018769,0.026717006723535414,True
50071,76633,0,76634,6554.0,74820.0,118536.0,0.002379,0.002806,0.001769,0.6125,-1.4875,-3.5000000000000004,0.73071875,-0.10428125,-0.04103125,0.9695312500000001,0.68225,-0.62390625,-0.6989062500000001,0.92903125,0.02110246013465065,0.026635794854276192,True
50072,76634,0,76635,6557.0,74820.0,118537.0,0.000915,0.002928,0.002745,0.56,-1.2775,-3.43,0.73371875,-0.10278125,-0.0411875,0.97009375,0.69621875,-0.62696875,-0.6931875000000001,0.92909375,0.02128510030289456,0.026404043625392632,True
50073,76635,0,76636,6554.0,74818.0,118536.0,-0.001952,0.002013,0.000488,0.42000000000000004,-1.1375000000000002,-3.5175000000000005,0.72953125,-0.108125,-0.04321875,0.9705312500000001,0.67984375,-0.62040625,-0.70225,0.91978125,0.020807181035040805,0.02667899685251344,True
50074,76636,0,76637,6551.0,74819.0,118530.0,-0.003965,-0.000244,-0.000244,0.31500000000000006,-1.1375000000000002,-3.4475000000000002,0.7305625,-0.10696875,-0.04225,0.9699375,0.69271875,-0.62646875,-0.706375,0.9276875,0.02109518848495077,0.02688071398576278,True
50075,76637,0,76638,6553.0,74816.0,118533.0,-0.004026,-0.001281,-0.000549,0.28,-1.1725,-3.6050000000000004,0.7304375,-0.1060625,-0.040625,0.9726875,0.69021875,-0.62184375,-0.69775,0.9298125,0.02094811644639732,0.02660667469708779,True
50076,76638,0,76639,6552.0,74819.0,118528.0,-0.002928,-0.0013419999999999999,0.00061,0.24500000000000002,-1.2600000000000002,-3.6400000000000006,0.73665625,-0.1086875,-0.0420625,0.97084375,0.7028125000000001,-0.6305000000000001,-0.69515625,0.9165625000000001,0.021185623515559977,0.02644622870122557,True
50077,76639,0,76640,6550.0,74818.0,118531.0,0.001952,-0.0011589999999999999,0.001647,0.2625,-1.6275000000000002,-3.43,0.7303125,-0.11215625,-0.04684375,0.9920625000000001,0.6885625,-0.6315000000000001,-0.703125,0.9375,0.02108453606154721,0.026566729917773563,True
50078,76640,0,76641,6552.0,74815.0,118533.0,0.003843,-0.000305,-0.000488,0.4025,-1.7500000000000002,-3.535,0.73775,-0.11290625,-0.042375,0.981125,0.70615625,-0.62803125,-0.7049062500000001,0.94178125,0.020916207015126313,0.026817800613997474,True
50079,76641,0,76642,6551.0,74818.0,118529.0,0.0035989999999999998,0.000549,-0.000915,0.36750000000000005,-1.7675,-3.535,0.733875,-0.10678125000000001,-0.044875,0.98371875,0.694625,-0.629875,-0.70128125,0.94215625,0.021238181273757983,0.026573773374609866,True
50080,76642,0,76643,6549.0,74818.0,118529.0,0.002379,0.001098,-0.00183,0.56,-1.5925000000000002,-3.5175000000000005,0.7478125,-0.11446875000000001,-0.047718750000000004,0.9819375,0.7009375,-0.62671875,-0.69984375,0.9385625,0.02080057863981575,0.02640198887897823,True
50081,76643,0,76644,6550.0,74817.0,118528.0,0.00061,0.002745,-0.00244,0.6125,-1.435,-3.5000000000000004,0.75253125,-0.11740625,-0.04396875,0.9754375000000001,0.69846875,-0.6276875000000001,-0.70053125,0.94396875,0.020719819918130763,0.02658090602808391,True
50082,76644,0,76645,6549.0,74815.0,118527.0,-0.002013,-0.000549,0.0017079999999999999,0.31500000000000006,-1.2600000000000002,-3.6400000000000006,0.74190625,-0.10703125000000001,-0.039468750000000004,0.97809375,0.70721875,-0.6293125,-0.7051875,0.94253125,0.021205677178362164,0.026946516799356408,True
50083,76645,0,76646,6547.0,74819.0,118529.0,-0.002745,-0.0018909999999999999,0.001769,0.36750000000000005,-1.4875,-3.6750000000000003,0.7398125,-0.10981250000000001,-0.0395625,0.97978125,0.69834375,-0.62965625,-0.7045625,0.9423750000000001,0.02110641515754001,0.026918104702319662,True
50084,76646,0,76647,6548.0,74818.0,118529.0,0.0,-0.002806,0.000366,0.21000000000000002,-1.5925000000000002,-3.6050000000000004,0.75028125,-0.11621875,-0.042,0.97921875,0.7066875,-0.62396875,-0.70115625,0.9312812500000001,0.020620152874422402,0.026685238671772703,True
50085,76647,0,76648,6547.0,74819.0,118528.0,0.000793,-0.0013419999999999999,-6.1e-05,0.2625,-1.6275000000000002,-3.5525,0.75396875,-0.1075625,-0.0529375,0.99021875,0.6930937500000001,-0.62403125,-0.69871875,0.92803125,0.020974175379995914,0.02614634615408947,True
50086,76648,0,76649,6550.0,74815.0,118528.0,0.0011589999999999999,-0.000793,-0.001586,0.43750000000000006,-1.61,-3.4825000000000004,0.72603125,-0.11375,-0.051125000000000004,0.99,0.688125,-0.625,-0.69878125,0.9268125,0.020761421319796955,0.02622219466800614,True
50087,76649,0,76650,6546.0,74813.0,118531.0,-0.000183,0.00122,-0.0008539999999999999,0.49000000000000005,-1.5750000000000002,-3.5175000000000005,0.74765625,-0.11146875,-0.043062500000000004,0.97,0.69175,-0.62425,-0.69975,0.92553125,0.02082423830167416,0.026586807558780956,True
50088,76650,0,76651,6549.0,74820.0,118531.0,0.001403,0.001769,-0.000305,0.4025,-1.5575,-3.5700000000000003,0.72278125,-0.10640625000000001,-0.03871875,0.95921875,0.6920937500000001,-0.6245,-0.699375,0.9286562500000001,0.021039767304919896,0.026747893418355727,True
50089,76651,0,76652,6548.0,74820.0,118533.0,0.00244,0.0017079999999999999,0.002013,0.4025,-1.6800000000000002,-3.6400000000000006,0.71921875,-0.10603125000000001,-0.03903125,0.968125,0.68740625,-0.61828125,-0.6995625,0.9294687500000001,0.020807707686741943,0.026742629550624633,True
50090,76652,0,76653,6546.0,74820.0,118534.0,0.00183,0.0021349999999999997,0.003355,0.31500000000000006,-1.6800000000000002,-3.6750000000000003,0.7283125,-0.1054375,-0.04146875,0.9625,0.69225,-0.62521875,-0.69940625,0.92609375,0.02110768051552842,0.026637786080384022,True
50091,76653,0,76654,6547.0,74824.0,118532.0,-0.000305,0.000793,0.0032329999999999998,0.3325,-1.4875,-3.6925000000000003,0.730875,-0.1034375,-0.0411875,0.9704375000000001,0.69078125,-0.625125,-0.699625,0.926625,0.02118517164887488,0.02665779338755143,True
50092,76654,0,76655,6548.0,74823.0,118529.0,-0.006954,-0.000793,-0.002379,0.31500000000000006,-0.9975,-3.6050000000000004,0.7309687500000001,-0.1070625,-0.0380625,0.97265625,0.69059375,-0.625125,-0.6999062500000001,0.9302812500000001,0.02103796427429303,0.026795395225437346,True
50093,76655,0,76656,6547.0,74820.0,118530.0,-0.006954,-0.001952,-0.0032329999999999998,0.4025,-1.0150000000000001,-3.5175000000000005,0.73653125,-0.10946875,-0.044125,0.97709375,0.69634375,-0.62803125,-0.703125,0.93478125,0.02105578374235659,0.026676786843769767,True
50094,76656,0,76657,6549.0,74823.0,118530.0,-0.004148,-0.0015249999999999999,-0.002013,0.36750000000000005,-1.4000000000000001,-3.5525,0.7312500000000001,-0.1020625,-0.03659375,0.9755625,0.6980937500000001,-0.62653125,-0.7013125,0.93415625,0.02129689905069355,0.026910260335356675,True
50095,76657,0,76658,6548.0,74822.0,118534.0,0.002257,-0.000976,0.000122,0.4025,-1.8200000000000003,-3.6225000000000005,0.73234375,-0.10981250000000001,-0.044125,0.9754375000000001,0.69846875,-0.627375,-0.7025625,0.9365625,0.021015739598718906,0.026654623381683583,True
50096,76658,0,76659,6547.0,74827.0,118541.0,0.008235,0.000305,-0.000549,0.2625,-2.3800000000000003,-3.7625,0.7364375,-0.10478125,-0.0411875,0.96228125,0.69940625,-0.62825,-0.69903125,0.9244375,0.021254809009978375,0.026634394820647063,True
50097,76659,0,76660,6552.0,74827.0,118542.0,0.009394,0.002623,0.0011589999999999999,0.35000000000000003,-2.4325,-3.6925000000000003,0.730625,-0.10984375,-0.04215625,0.96409375,0.6916875,-0.62653125,-0.6950937500000001,0.92878125,0.020980928850870946,0.026439968465396087,True
50098,76660,0,76661,6551.0,74831.0,118543.0,0.004148,0.001769,0.00244,0.385,-1.9775000000000003,-3.7275000000000005,0.73859375,-0.1065625,-0.041375,0.9751562500000001,0.6989375,-0.6259375,-0.6991875,0.9286562500000001,0.02109056761798409,0.026632961104489768,True
50099,76661,0,76662,6550.0,74828.0,118537.0,-0.002562,0.001037,0.0017079999999999999,0.35000000000000003,-1.2950000000000002,-3.7625,0.736375,-0.106125,-0.04115625,0.97084375,0.6861875000000001,-0.62434375,-0.6991875,0.92809375,0.021044977086952823,0.026641817671127842,True
50100,76662,0,76663,6552.0,74829.0,118533.0,-0.009089,-0.002928,-0.000183,0.28,-0.8225000000000001,-3.7625,0.7378125,-0.10284375,-0.0424375,0.96946875,0.6926875,-0.62703125,-0.70303125,0.9344375,0.021285046284253203,0.026741404458207937,True
50101,76663,0,76664,6552.0,74826.0,118532.0,-0.011712,-0.004331,-0.0018909999999999999,0.052500000000000005,-0.7000000000000001,-3.6400000000000006,0.7301562500000001,-0.1065,-0.041375,0.9695312500000001,0.69178125,-0.62428125,-0.6999375,0.9293125,0.02102726348611698,0.026662516858595286,True
50102,76664,0,76665,6553.0,74826.0,118534.0,-0.0026839999999999998,-0.002745,-0.000549,0.21000000000000002,-1.6625,-3.6575,0.73690625,-0.10665625000000001,-0.0415625,0.96978125,0.693625,-0.62696875,-0.69559375,0.92859375,0.021127752476642093,0.026483722425179594,True
50103,76665,0,76666,6554.0,74829.0,118530.0,0.003965,0.001281,0.0013419999999999999,0.47250000000000003,-2.1875,-3.5525,0.73090625,-0.111,-0.03690625,0.9696250000000001,0.6920625,-0.62825,-0.7010000000000001,0.92890625,0.0210023042644118,0.026885298166066152,True
50104,76666,0,76667,6554.0,74828.0,118541.0,0.008418,0.001769,0.000366,0.49000000000000005,-2.4675000000000002,-3.5525,0.73153125,-0.11071875,-0.0421875,0.9700625,0.6915625,-0.62721875,-0.699375,0.92853125,0.020972729614463673,0.0266074546420709,True
50105,76667,0,76668,6555.0,74825.0,118538.0,0.010126,0.003477,-0.002745,0.525,-2.415,-3.5525,0.725875,-0.10640625000000001,-0.0405,0.9696875,0.69121875,-0.625625,-0.6996875,0.92934375,0.02108449024136443,0.0266880906894065,True
50106,76668,0,76669,6553.0,74831.0,118543.0,0.005856,0.0050019999999999995,-0.0011589999999999999,0.5950000000000001,-1.9775000000000003,-3.535,0.732375,-0.10996875,-0.0415,0.9695312500000001,0.6929062500000001,-0.62671875,-0.7003125,0.92890625,0.020983307002683825,0.02667223339785681,True
50107,76669,0,76670,6550.0,74833.0,118542.0,-0.002989,0.0018909999999999999,0.002257,0.525,-1.2775,-3.5175000000000005,0.73121875,-0.10853125,-0.04434375,0.97096875,0.69228125,-0.6251875,-0.7013125,0.9335,0.020980804714684918,0.02659651182502954,True
50108,76670,0,76671,6555.0,74829.0,118545.0,-0.0068319999999999995,-0.001464,0.0023179999999999997,0.3325,-1.0150000000000001,-3.5525,0.73021875,-0.1086875,-0.04428125,0.9755625,0.69084375,-0.6255625,-0.701625,0.93325,0.0209893682631615,0.026611356540308582,True
50109,76671,0,76672,6553.0,74828.0,118542.0,-0.007442,-0.0042699999999999995,6.1e-05,0.14,-1.1025,-3.7275000000000005,0.7361875,-0.10703125000000001,-0.0415,0.97503125,0.70065625,-0.62628125,-0.7009062500000001,0.929125,0.021085197343793025,0.026695629841516445,True
50110,76672,0,76673,6552.0,74827.0,118539.0,-0.005795,-0.005124,-0.00061,0.12250000000000001,-1.2600000000000002,-3.5875000000000004,0.7368125,-0.1115,-0.04296875,0.97359375,0.69884375,-0.62709375,-0.70353125,0.94003125,0.020936037164352776,0.026739598210276112,True
50111,76673,0,76674,6553.0,74829.0,118546.0,-0.003111,-0.004697,-0.00122,0.14,-1.4875,-3.6050000000000004,0.7325625,-0.106625,-0.04209375,0.9706250000000001,0.696875,-0.62390625,-0.69265625,0.92596875,0.0210072782420539,0.026346396005897502,True
50112,76674,0,76675,6556.0,74830.0,118550.0,0.00488,-0.00042699999999999997,0.000122,0.385,-1.8375000000000001,-3.5700000000000003,0.7309687500000001,-0.10809375,-0.0425625,0.9739375,0.6900937500000001,-0.6276875000000001,-0.70540625,0.94065625,0.021097951238824193,0.0268299069156169,True
50113,76675,0,76676,6557.0,74828.0,118547.0,0.007076,0.003843,-0.003111,0.43750000000000006,-1.995,-3.5000000000000004,0.7388125,-0.109625,-0.043250000000000004,0.9761875,0.70634375,-0.63190625,-0.7025,0.93721875,0.021203444211712198,0.02668758222851938,True
50114,76676,0,76677,6556.0,74829.0,118551.0,0.005978,0.0051849999999999995,-0.00244,0.7000000000000001,-1.8900000000000001,-3.5525,0.7323125,-0.10740625000000001,-0.041625,0.9700625,0.68603125,-0.6220625,-0.6985625,0.9285625000000001,0.020902239607262795,0.02659820789165361,True
50115,76677,0,76678,6556.0,74832.0,118551.0,0.003172,0.0050019999999999995,-0.002013,0.7525000000000001,-1.6625,-3.4475000000000002,0.7365,-0.11068750000000001,-0.04409375,0.97009375,0.70525,-0.62896875,-0.7014375,0.9244687500000001,0.021043562776050052,0.026611558537838132,True
50116,76678,0,76679,6558.0,74833.0,118553.0,-0.0006709999999999999,0.004758,0.00183,0.6475000000000001,-1.3125000000000002,-3.535,0.72721875,-0.10640625000000001,-0.041125,0.97,0.6852812500000001,-0.6228125,-0.69528125,0.92840625,0.020972675237648016,0.026489119252286305,True
50117,76679,0,76680,6557.0,74831.0,118553.0,-0.006161,-0.004941,0.004392,0.0,-1.0150000000000001,-3.6575,0.7361875,-0.110375,-0.04259375,0.9654375000000001,0.70675,-0.63021875,-0.7031875,0.9226875,0.021105933133460295,0.026741235316292685,True
50118,76680,0,76681,6558.0,74829.0,118552.0,-0.004941,-0.006771,0.000976,-0.12250000000000001,-1.0850000000000002,-3.7100000000000004,0.7308125,-0.10803125,-0.041375,0.95934375,0.68484375,-0.62303125,-0.6990625,0.9228437500000001,0.020915377752282225,0.026628034970962965,True
50119,76681,0,76682,6560.0,74832.0,118555.0,-0.002257,-0.004331,-0.002196,0.22750000000000004,-1.3125000000000002,-3.5525,0.73059375,-0.107125,-0.045125,0.97646875,0.6856875,-0.6235,-0.70940625,0.9442812500000001,0.020970820557597417,0.026883739871329367,True
50120,76682,0,76683,6561.0,74831.0,118554.0,-0.000244,0.001098,-0.002074,0.525,-1.6275000000000002,-3.535,0.738,-0.1078125,-0.0416875,0.9700625,0.70125,-0.6209375,-0.698875,0.92759375,0.020841001688095755,0.02660799327904611,True
50121,76683,0,76684,6560.0,74835.0,118555.0,0.003172,0.004514,-0.00061,0.77,-1.7675,-3.5175000000000005,0.7384375,-0.11018750000000001,-0.0415625,0.970375,0.69771875,-0.6231875,-0.70103125,0.92296875,0.020834020778179106,0.026698025006547048,True
50122,76684,0,76685,6560.0,74833.0,118557.0,0.003477,0.002928,-0.00042699999999999997,0.43750000000000006,-1.5925000000000002,-3.5000000000000004,0.7300625000000001,-0.1039375,-0.04378125,0.97140625,0.68534375,-0.6245937500000001,-0.70403125,0.9324687500000001,0.02114374983343634,0.026726407253876833,True
50123,76685,0,76686,6563.0,74834.0,118558.0,0.0013419999999999999,-0.000122,-0.001281,0.385,-1.4525000000000001,-3.6400000000000006,0.7304375,-0.10609375,-0.043062500000000004,0.97028125,0.68984375,-0.62284375,-0.70275,0.9343750000000001,0.020986609233549638,0.026705022720142493,True
50124,76686,0,76687,6562.0,74835.0,118559.0,-0.001464,-0.001098,-0.000915,0.22750000000000004,-1.2950000000000002,-3.7100000000000004,0.73071875,-0.10740625000000001,-0.04128125,0.9695,0.69115625,-0.62421875,-0.70296875,0.9326875,0.020987975506837144,0.02678574817045016,True
50125,76687,0,76688,6566.0,74835.0,118559.0,-0.003721,-0.001586,-0.000915,0.36750000000000005,-1.225,-3.6925000000000003,0.7302500000000001,-0.10840625,-0.043875000000000004,0.9703125,0.68684375,-0.62721875,-0.70409375,0.9326875,0.021066629783357084,0.02672507466500365,True
50126,76688,0,76689,6563.0,74832.0,118559.0,-0.0034159999999999998,-0.00183,0.000183,0.35000000000000003,-1.4700000000000002,-3.6750000000000003,0.73053125,-0.1075,-0.03646875,0.9733437500000001,0.69215625,-0.6247812500000001,-0.70146875,0.9341875000000001,0.021006531783911785,0.02692147607619486,True
50127,76689,0,76690,6564.0,74836.0,118563.0,0.001098,-0.0006709999999999999,0.0011589999999999999,0.4025,-1.6800000000000002,-3.7100000000000004,0.7351562500000001,-0.1068125,-0.0415,0.96921875,0.698875,-0.6246875000000001,-0.7014375,0.9293125,0.02103072374014899,0.026716562548232264,True
50128,76690,0,76691,6567.0,74837.0,118568.0,0.0025009999999999998,-0.000915,0.000732,0.385,-1.9075000000000002,-3.535,0.734,-0.10871875,-0.041,0.96990625,0.69353125,-0.62715625,-0.70334375,0.929125,0.02105145615422,0.026811906788934192,True
50129,76691,0,76692,6569.0,74837.0,118566.0,0.0034159999999999998,0.00122,-0.001037,0.42000000000000004,-1.8375000000000001,-3.6050000000000004,0.7309375,-0.1079375,-0.041875,0.96575,0.69234375,-0.624625,-0.7019375,0.93003125,0.02098255303380254,0.026721082101353388,True
50130,76692,0,76693,6570.0,74835.0,118570.0,0.002013,0.00122,-0.000244,0.42000000000000004,-1.7500000000000002,-3.6575,0.7355625,-0.109875,-0.04475,0.978375,0.6980625,-0.62925,-0.70353125,0.93653125,0.021087731051493648,0.02666749313420526,True
50131,76693,0,76694,6569.0,74838.0,118571.0,-0.001037,0.001586,0.002074,0.43750000000000006,-1.6625,-3.7625,0.73665625,-0.100375,-0.039906250000000004,0.9693437500000001,0.7004375,-0.627375,-0.700875,0.928875,0.02139895137017242,0.026758920483586107,True
50132,76694,0,76695,6574.0,74840.0,118572.0,-0.001403,-0.000915,0.0018909999999999999,0.17500000000000002,-1.2775,-3.9025000000000003,0.73,-0.108375,-0.04171875,0.983875,0.69153125,-0.62484375,-0.70153125,0.9264375,0.020973483334285118,0.026711400735531327,True
50133,76695,0,76696,6575.0,74838.0,118578.0,-0.003172,-0.001281,-0.002989,0.15750000000000003,-1.155,-3.8850000000000002,0.749625,-0.11453125,-0.04896875,0.9835,0.6985,-0.62690625,-0.7044375,0.9350625,0.020805496021247087,0.026532429649531588,True
50134,76696,0,76697,6577.0,74840.0,118577.0,-0.00183,-0.0011589999999999999,-0.003294,0.17500000000000002,-1.1900000000000002,-3.8500000000000005,0.74,-0.10778125000000001,-0.03975,0.955375,0.69878125,-0.628625,-0.70209375,0.9282812500000001,0.0211479020854798,0.026813263551799128,True
50135,76697,0,76698,6581.0,74841.0,118579.0,0.001769,-0.000915,-0.00061,0.22750000000000004,-1.3650000000000002,-3.7100000000000004,0.73140625,-0.11196875,-0.0461875,0.9738125,0.6919062500000001,-0.6254375,-0.6998125000000001,0.93540625,0.020851152390693562,0.02646275148849814,True
50136,76698,0,76699,6579.0,74846.0,118582.0,0.0040869999999999995,0.000793,-0.00042699999999999997,0.385,-1.5575,-3.6225000000000005,0.72546875,-0.10590625000000001,-0.039093750000000003,0.9560625,0.6970625,-0.627375,-0.7044375,0.9310625,0.02117435374253245,0.026932155407302837,True
50137,76699,0,76700,6578.0,74840.0,118580.0,0.001586,0.002623,-0.0006709999999999999,0.35000000000000003,-1.4525000000000001,-3.6225000000000005,0.72509375,-0.106125,-0.04384375,0.983,0.69196875,-0.62584375,-0.696875,0.9285,0.021104606821847473,0.026441857522459828,True
50138,76700,0,76701,6580.0,74841.0,118580.0,-0.003538,0.002379,-0.001464,0.49000000000000005,-1.4000000000000001,-3.6400000000000006,0.74684375,-0.11321875,-0.04440625,0.96475,0.6902812500000001,-0.6275625,-0.70340625,0.93353125,0.020884882537603955,0.02667648312669432,True
50139,76701,0,76702,6583.0,74840.0,118581.0,-0.006161,0.0006709999999999999,0.0,0.49000000000000005,-1.4000000000000001,-3.535,0.72475,-0.10684375,-0.041625,0.9772500000000001,0.6970000000000001,-0.62403125,-0.70159375,0.9284375,0.021003364345551664,0.02671765865309804,True
50140,76702,0,76703,6581.0,74841.0,118578.0,-0.0044529999999999995,0.001037,0.000366,0.5075000000000001,-1.5575,-3.5525,0.7465,-0.11106250000000001,-0.0454375,0.9741875,0.69153125,-0.62621875,-0.70353125,0.93290625,0.020919015429439407,0.026639663104844575,True
50141,76703,0,76704,6580.0,74841.0,118578.0,-0.000122,-0.0021349999999999997,0.003843,0.21000000000000002,-1.9775000000000003,-3.8675,0.726,-0.10571875,-0.039718750000000004,0.9655625,0.696375,-0.6256875000000001,-0.6993125,0.92796875,0.021114892731421208,0.02670494371047777,True
50142,76704,0,76705,6580.0,74841.0,118577.0,0.002928,-0.002745,0.001586,0.052500000000000005,-2.2575000000000003,-3.7800000000000002,0.7272500000000001,-0.10946875,-0.0428125,0.97640625,0.6925625,-0.625125,-0.7016875,0.92890625,0.020940249034268863,0.026673278900479977,True
50143,76705,0,76706,6581.0,74843.0,118577.0,0.0037819999999999998,-0.003111,-0.00122,0.14,-2.2750000000000004,-3.7625,0.7388125,-0.1075625,-0.03853125,0.9668125000000001,0.6951875000000001,-0.62615625,-0.7024375,0.9296562500000001,0.021058655875295193,0.02687614329557559,True
50144,76706,0,76707,6581.0,74845.0,118571.0,0.002928,-0.001769,-0.000732,0.15750000000000003,-2.0650000000000004,-3.7800000000000002,0.72490625,-0.109,-0.0428125,0.97628125,0.69184375,-0.62534375,-0.70321875,0.93125,0.020967981411426997,0.026733611384144016,True
50145,76707,0,76708,6579.0,74840.0,118562.0,0.00244,-0.000549,-0.003721,0.1925,-1.9250000000000003,-3.7625,0.730875,-0.1049375,-0.0415,0.9695312500000001,0.6968125000000001,-0.62428125,-0.70178125,0.9279375,0.021090717114839647,0.026730106761025586,True
50146,76708,0,76709,6579.0,74837.0,118553.0,0.00122,0.0006709999999999999,0.000976,0.31500000000000006,-1.54,-3.6400000000000006,0.73784375,-0.11081250000000001,-0.04059375,0.975125,0.6916875,-0.62796875,-0.7030000000000001,0.9416875,0.020998737461854218,0.0268148099421123,True
50147,76709,0,76710,6578.0,74836.0,118547.0,0.001464,0.001037,0.0017079999999999999,0.3325,-1.435,-3.6400000000000006,0.73175,-0.100125,-0.0420625,0.97546875,0.69428125,-0.6245625,-0.6975,0.92053125,0.02129733269372806,0.026538617268954345,True
50148,76710,0,76711,6572.0,74836.0,118541.0,6.1e-05,0.0015249999999999999,0.001647,0.385,-1.5050000000000001,-3.6925000000000003,0.737,-0.11175,-0.04240625,0.9716250000000001,0.7215312500000001,-0.632875,-0.70015625,0.92171875,0.02115567102906177,0.02662938620074519,True
50149,76711,0,76712,6574.0,74837.0,118537.0,-0.000305,0.002623,0.001037,0.43750000000000006,-1.4000000000000001,-3.5875000000000004,0.7348750000000001,-0.10728125000000001,-0.0415625,0.9695625,0.6771875,-0.6209375,-0.69703125,0.9099375000000001,0.020862578851841042,0.026540386306552536,True
50150,76712,0,76713,6568.0,74835.0,118529.0,-0.00244,0.002196,0.000915,0.45500000000000007,-1.3125000000000002,-3.5525,0.73040625,-0.10796875,-0.041625,0.969875,0.6845,-0.62446875,-0.69865625,0.92378125,0.020975071797234204,0.02660190268448309,True
50151,76713,0,76714,6569.0,74839.0,118532.0,-0.003477,-0.000549,-0.00061,0.43750000000000006,-1.1900000000000002,-3.5000000000000004,0.72,-0.10684375,-0.0421875,0.9705,0.69078125,-0.6260625,-0.70434375,0.9381875000000001,0.021084115659984214,0.026803231719118224,True
50152,76714,0,76715,6565.0,74839.0,118528.0,-0.0018909999999999999,-0.0023179999999999997,-6.1e-05,0.2625,-1.3825,-3.4475000000000002,0.73109375,-0.1065,-0.04540625,0.97540625,0.69415625,-0.62815625,-0.71190625,0.9462812500000001,0.02118129529083201,0.02697080481195173,True
50153,76715,0,76716,6563.0,74836.0,118526.0,0.000488,-0.001769,-6.1e-05,0.31500000000000006,-1.6975000000000002,-3.4650000000000003,0.73834375,-0.10996875,-0.04378125,0.9673437500000001,0.71109375,-0.629375,-0.7030000000000001,0.93225,0.021088892836298122,0.026685777031129825,True
50154,76716,0,76717,6559.0,74841.0,118527.0,0.00366,-0.000122,-0.001647,0.35000000000000003,-1.8200000000000003,-3.5525,0.73003125,-0.1085,-0.04171875,0.97603125,0.6803125,-0.6209375,-0.69821875,0.9324375,0.020813078299719498,0.026580864257670405,True
50155,76717,0,76718,6556.0,74841.0,118522.0,0.005063,0.00122,0.004392,0.45500000000000007,-1.8200000000000003,-3.5700000000000003,0.72678125,-0.10771875,-0.042,0.96984375,0.71115625,-0.61809375,-0.695625,0.9383125,0.02073170267295777,0.026467238630324196,True
50156,76718,0,76719,6560.0,74841.0,118517.0,-0.001769,0.002074,-0.0017079999999999999,0.7000000000000001,-1.2075,-3.5700000000000003,0.7379687500000001,-0.10609375,-0.04,0.96984375,0.7126250000000001,-0.62465625,-0.69396875,0.9186875,0.021058669600717776,0.02648293421850224,True
50157,76719,0,76720,6558.0,74840.0,118516.0,-0.004697,0.000976,-0.000122,0.5075000000000001,-1.0850000000000002,-3.5175000000000005,0.7310625000000001,-0.10840625,-0.04453125,0.97709375,0.6685,-0.623,-0.7039375,0.9455625,0.020898905494862525,0.02669235420466879,True
50158,76720,0,76721,6557.0,74839.0,118516.0,-0.007137,-0.00244,-0.0008539999999999999,0.42000000000000004,-1.12,-3.4475000000000002,0.737,-0.10984375,-0.0414375,0.9696875,0.7083125,-0.6296875000000001,-0.6994375,0.92671875,0.021106388377846858,0.026640282799962552,True
50159,76721,0,76722,6554.0,74838.0,118516.0,-0.0048189999999999995,-0.00244,-0.002562,0.28,-1.12,-3.5875000000000004,0.7313437500000001,-0.10746875,-0.043187500000000004,0.9755312500000001,0.6799375,-0.623,-0.6990625,0.930625,0.0209369796531698,0.02655465161886205,True
50160,76722,0,76723,6553.0,74836.0,118508.0,-0.000732,-0.00244,-0.000549,0.28,-1.6450000000000002,-3.7100000000000004,0.73703125,-0.11015625,-0.03628125,0.9744375000000001,0.6951875000000001,-0.62828125,-0.697125,0.93196875,0.021037805876120568,0.02675792222778967,True
50161,76723,0,76724,6550.0,74836.0,118504.0,0.006222,-0.00122,-0.001464,0.4025,-2.205,-3.5700000000000003,0.7310625000000001,-0.10853125,-0.04125,0.96984375,0.700375,-0.628,-0.70125,0.928625,0.021092608007146338,0.026719295582207377,True
50162,76724,0,76725,6549.0,74835.0,118505.0,0.007808,0.000183,0.000122,0.45500000000000007,-2.24,-3.6225000000000005,0.7313125,-0.10993750000000001,-0.04340625,0.9748125,0.69165625,-0.62440625,-0.7030625,0.9333125,0.020892635736140846,0.02670341986949999,True
50163,76725,0,76726,6547.0,74834.0,118504.0,0.0046359999999999995,0.001281,0.00122,0.5075000000000001,-2.205,-3.6225000000000005,0.7359375,-0.11065625,-0.0411875,0.97046875,0.69375,-0.62703125,-0.7005,0.9358125,0.02096781356867771,0.026692273435760406,True
50164,76726,0,76727,6550.0,74838.0,118504.0,0.000549,0.002928,0.000366,0.49000000000000005,-1.6975000000000002,-3.6225000000000005,0.73490625,-0.10771875,-0.0411875,0.9700625,0.6984375,-0.6235937500000001,-0.703375,0.93309375,0.020950434986769552,0.026805547824942943,True
50165,76727,0,76728,6546.0,74835.0,118499.0,-0.0025009999999999998,0.0032329999999999998,0.000732,0.6125,-1.4175000000000002,-3.6050000000000004,0.73159375,-0.1085,-0.0415625,0.97128125,0.6960625,-0.6246875000000001,-0.7007187500000001,0.9282812500000001,0.020962194951712587,0.02668571132165942,True
50166,76728,0,76729,6545.0,74834.0,118497.0,-0.00488,0.003538,-0.000244,0.7000000000000001,-1.435,-3.4475000000000002,0.73540625,-0.1093125,-0.0408125,0.96559375,0.69246875,-0.62771875,-0.70359375,0.92909375,0.021049706441040136,0.026829345426715497,True
50167,76729,0,76730,6543.0,74832.0,118493.0,-0.002379,0.00183,0.0018909999999999999,0.6125,-1.6450000000000002,-3.4125000000000005,0.72790625,-0.10778125000000001,-0.04284375,0.9754375000000001,0.69234375,-0.62534375,-0.70175,0.928,0.021017473106339883,0.026674476504701086,True
50168,76730,0,76731,6542.0,74833.0,118492.0,-0.0006709999999999999,0.000488,0.0026839999999999998,0.5425000000000001,-1.7500000000000002,-3.4125000000000005,0.73853125,-0.11196875,-0.04415625,0.957125,0.6928125,-0.62828125,-0.705375,0.9349375,0.020964211621547886,0.02676416569268833,True
50169,76731,0,76732,6546.0,74835.0,118499.0,0.00061,-0.0030499999999999998,0.003294,0.36750000000000005,-1.8025000000000002,-3.5525,0.73040625,-0.10865625,-0.04296875,0.9783125,0.69771875,-0.62475,-0.7017187500000001,0.92784375,0.02095833460238175,0.026668184779652226,True
50170,76732,0,76733,6541.0,74840.0,118497.0,0.000915,-0.004697,0.0008539999999999999,0.14,-1.7675,-3.6575,0.74915625,-0.11096875,-0.039593750000000004,0.9668125000000001,0.69140625,-0.6227812500000001,-0.703375,0.9255625000000001,0.02078613682197254,0.02687006330106716,True
50171,76733,0,76734,6539.0,74833.0,118490.0,0.000244,-0.003538,-0.0021349999999999997,0.24500000000000002,-1.5750000000000002,-3.6050000000000004,0.72540625,-0.10628125000000001,-0.039968750000000004,0.9650625,0.69815625,-0.62590625,-0.702125,0.91834375,0.02110074629233188,0.026805639190960292,True
50172,76734,0,76735,6540.0,74833.0,118489.0,-0.001037,-0.00366,-0.0034159999999999998,0.22750000000000004,-1.6450000000000002,-3.5700000000000003,0.72465625,-0.10953125,-0.043312500000000004,0.98421875,0.692875,-0.6209375,-0.70203125,0.9285,0.020771193217155117,0.026666582328123318,True
50173,76735,0,76736,6541.0,74832.0,118483.0,0.0013419999999999999,-0.001098,-0.002989,0.42000000000000004,-1.61,-3.5000000000000004,0.748,-0.11309375,-0.0443125,0.977375,0.69146875,-0.625375,-0.702625,0.93490625,0.020802982695694992,0.02664949575196968,True
50174,76736,0,76737,6539.0,74834.0,118486.0,0.000305,0.001464,-0.00183,0.5775,-1.5575,-3.4650000000000003,0.725125,-0.10575,-0.04025,0.9638125000000001,0.69996875,-0.6281875,-0.70415625,0.928875,0.021212990196700428,0.02687427343324061,True
50175,76737,0,76738,6538.0,74832.0,118483.0,0.0015249999999999999,0.00244,-0.00122,0.56,-1.61,-3.535,0.7249375,-0.1075625,-0.0444375,0.965125,0.68334375,-0.62425,-0.7018125000000001,0.9284375,0.020982872574799232,0.026612419635198836,True
50176,76738,0,76739,6537.0,74830.0,118476.0,0.002013,0.004392,0.002623,0.6300000000000001,-1.6275000000000002,-3.4825000000000004,0.7379375,-0.09825,-0.04425,0.97,0.69165625,-0.6174375,-0.70275,0.92834375,0.021090233294996683,0.02665695114916355,True
50177,76739,0,76740,6535.0,74829.0,118476.0,0.001769,0.0028669999999999998,0.002989,0.49000000000000005,-1.5750000000000002,-3.5175000000000005,0.7451875,-0.1136875,-0.047718750000000004,0.9735312500000001,0.6919062500000001,-0.6215937500000001,-0.70253125,0.93590625,0.020628487950744456,0.02650791100608364,True
50178,76740,0,76741,6536.0,74831.0,118475.0,0.000976,0.000488,0.002745,0.31500000000000006,-1.5925000000000002,-3.4475000000000002,0.724125,-0.10928125,-0.0405,0.9702500000000001,0.700375,-0.62484375,-0.70115625,0.92821875,0.02093668107031136,0.026745964574026775,True
50179,76741,0,76742,6532.0,74829.0,118468.0,-0.001281,0.000122,0.00061,0.36750000000000005,-1.5225000000000002,-3.6050000000000004,0.74475,-0.11453125,-0.04446875,0.9641875,0.6822812500000001,-0.62640625,-0.70553125,0.93459375,0.02078561503467442,0.02675767192822458,True
50180,76742,0,76743,6538.0,74826.0,118466.0,-0.0021349999999999997,-0.001098,6.1e-05,0.36750000000000005,-1.54,-3.5175000000000005,0.72503125,-0.10678125000000001,-0.042,0.9801875,0.69634375,-0.6230625,-0.70178125,0.9283125,0.020967385758777973,0.026709865305766158,True
50181,76743,0,76744,6534.0,74830.0,118470.0,-0.0030499999999999998,-0.000244,-0.00061,0.385,-1.4175000000000002,-3.5700000000000003,0.730625,-0.10728125000000001,-0.0404375,0.96921875,0.6953125,-0.6281875,-0.70253125,0.92821875,0.02115081550357695,0.026802668248825715,True
50182,76744,0,76745,6535.0,74830.0,118467.0,-0.000732,-0.000366,-0.00042699999999999997,0.29750000000000004,-1.54,-3.5000000000000004,0.7308125,-0.10825,-0.03875,0.96915625,0.69228125,-0.6256875000000001,-0.70184375,0.9276875,0.021012103722992507,0.026843897026917276,True
50183,76745,0,76746,6531.0,74829.0,118468.0,0.000488,-0.000549,0.000122,0.36750000000000005,-1.6450000000000002,-3.5700000000000003,0.72984375,-0.10875,-0.04415625,0.97809375,0.67925,-0.625625,-0.70165625,0.92896875,0.02098931499200528,0.02661764836112963,True
50184,76746,0,76747,6531.0,74829.0,118470.0,0.000915,-0.00183,-0.000183,0.29750000000000004,-1.7675,-3.5700000000000003,0.73159375,-0.1085,-0.04175,0.96175,0.685875,-0.62734375,-0.70325,0.9353750000000001,0.021067791771087772,0.02677785311649277,True
50185,76747,0,76748,6533.0,74831.0,118467.0,0.000122,-0.001098,0.000122,0.36750000000000005,-1.6275000000000002,-3.535,0.73040625,-0.1070625,-0.04159375,0.9695312500000001,0.68546875,-0.62534375,-0.702125,0.92840625,0.02104666051616031,0.02673985537681475,True
50186,76748,0,76749,6530.0,74832.0,118471.0,0.0013419999999999999,0.000976,0.0,0.47250000000000003,-1.4875,-3.5700000000000003,0.73090625,-0.1074375,-0.043687500000000004,0.9770625000000001,0.69196875,-0.6255625,-0.70115625,0.92215625,0.021040128524982934,0.026616922031736875,True
50187,76749,0,76750,6533.0,74828.0,118472.0,6.1e-05,0.000732,0.000244,0.43750000000000006,-1.4525000000000001,-3.535,0.73571875,-0.10921875,-0.04184375,0.970875,0.6920625,-0.62890625,-0.7033125,0.9277500000000001,0.021100713719270418,0.026776520355316726,True
50188,76750,0,76751,6531.0,74828.0,118470.0,0.0023179999999999997,-0.000549,-0.001281,0.36750000000000005,-1.5925000000000002,-3.5525,0.73175,-0.10956250000000001,-0.04509375,0.97459375,0.69196875,-0.625625,-0.7029375,0.9344687500000001,0.020956320905560773,0.026630183151295263,True
50189,76751,0,76752,6531.0,74828.0,118467.0,0.000244,6.1e-05,-0.003355,0.385,-1.4700000000000002,-3.5875000000000004,0.7308125,-0.108875,-0.04303125,0.97384375,0.698375,-0.62575,-0.70184375,0.9285,0.020989208450504046,0.026670580004782035,True
50190,76752,0,76753,6533.0,74827.0,118470.0,-0.0008539999999999999,-0.000732,-0.000732,0.43750000000000006,-1.225,-3.6225000000000005,0.73865625,-0.11096875,-0.0448125,0.97275,0.692375,-0.6245625,-0.70340625,0.93603125,0.020856969540067972,0.026660038026132527,True
50191,76753,0,76754,6533.0,74830.0,118466.0,-0.001098,-0.000793,0.000488,0.385,-1.3650000000000002,-3.5175000000000005,0.72946875,-0.1076875,-0.04153125,0.969125,0.69715625,-0.625625,-0.70259375,0.92803125,0.021032461105048094,0.026760853807102747,True
50192,76754,0,76755,6531.0,74830.0,118470.0,-0.000549,-0.000732,0.001403,0.36750000000000005,-1.4175000000000002,-3.535,0.7223437500000001,-0.11053125,-0.03753125,0.9736875,0.6924375,-0.6188750000000001,-0.704875,0.927,0.02064853694573778,0.027012634146094647,True
50193,76755,0,76756,6532.0,74830.0,118474.0,-0.0006709999999999999,-0.000366,0.000366,0.385,-1.3825,-3.4650000000000003,0.7310625000000001,-0.10903125,-0.042625,0.97575,0.6989062500000001,-0.618375,-0.70253125,0.93015625,0.020689576383494036,0.0267141145707487,True
50194,76756,0,76757,6534.0,74833.0,118471.0,0.000305,0.00042699999999999997,-0.000366,0.4025,-1.33,-3.4475000000000002,0.72103125,-0.10834375,-0.0413125,0.97371875,0.6981875,-0.625,-0.70234375,0.9285625000000001,0.020980964467005078,0.026759859578101775,True
50195,76757,0,76758,6534.0,74834.0,118475.0,-0.000122,0.002257,0.00042699999999999997,0.4025,-1.33,-3.5525,0.7383125,-0.11071875,-0.040875,0.970125,0.69584375,-0.62790625,-0.70375,0.9335,0.021000059637631602,0.02683297070282852,True
50196,76758,0,76759,6532.0,74832.0,118472.0,-6.1e-05,0.0018909999999999999,0.004026,0.45500000000000007,-1.5925000000000002,-3.7625,0.7305625,-0.10859375,-0.04178125,0.97015625,0.69434375,-0.62521875,-0.70275,0.9283750000000001,0.020979509065274803,0.026756889415146083,True
50197,76759,0,76760,6532.0,74835.0,118471.0,0.0008539999999999999,-0.000915,-0.000366,0.4025,-1.7500000000000002,-3.7100000000000004,0.72175,-0.11156250000000001,-0.041625,0.975125,0.692125,-0.62615625,-0.7028125000000001,0.933625,0.02089622695381054,0.026765676985161104,True
50198,76760,0,76761,6532.0,74834.0,118469.0,0.001281,-0.0011589999999999999,-0.002928,0.22750000000000004,-1.7675,-3.6400000000000006,0.73534375,-0.1088125,-0.04103125,0.9705312500000001,0.69696875,-0.62440625,-0.70321875,0.9186562500000001,0.020938322116903836,0.02680571737235659,True
50199,76761,0,76762,6534.0,74833.0,118471.0,0.000549,-0.0006709999999999999,-0.002745,0.28,-1.6800000000000002,-3.5875000000000004,0.7303437500000001,-0.10859375,-0.040625,0.975,0.68653125,-0.62575,-0.702375,0.92890625,0.021000629422454137,0.026788922117812558,True
50200,76762,0,76763,6532.0,74832.0,118474.0,-0.000793,0.001647,0.003294,0.5075000000000001,-1.2950000000000002,-3.535,0.734375,-0.1084375,-0.040875,0.96984375,0.69725,-0.62715625,-0.6999375,0.928875,0.021062876474014332,0.026682759824797127,True
50201,76763,0,76764,6533.0,74832.0,118471.0,-0.000122,0.00122,0.000732,0.525,-1.4525000000000001,-3.6050000000000004,0.73121875,-0.10981250000000001,-0.04228125,0.9705312500000001,0.690875,-0.62590625,-0.70603125,0.92984375,0.02095735055435777,0.02686590951349177,True
50202,76764,0,76765,6535.0,74836.0,118472.0,0.000549,0.000793,-0.000244,0.36750000000000005,-1.5750000000000002,-3.6925000000000003,0.7311562500000001,-0.10925,-0.04284375,0.9740625,0.6929375,-0.626,-0.701375,0.9344375,0.02098391943474377,0.026659700117908417,True
50203,76765,0,76766,6537.0,74830.0,118471.0,0.0006709999999999999,-0.000488,-0.0013419999999999999,0.385,-1.6450000000000002,-3.6575,0.73634375,-0.1091875,-0.04159375,0.96909375,0.70415625,-0.631375,-0.7033125,0.9276875,0.021200095406772868,0.026786640455606917,True
50204,76766,0,76767,6537.0,74833.0,118472.0,0.000183,-0.001586,-0.0037819999999999998,0.28,-1.715,-3.6050000000000004,0.7285,-0.1081875,-0.0419375,0.97465625,0.68125,-0.62565625,-0.70228125,0.9299375,0.02101339938910258,0.02673209584641095,True
50205,76767,0,76768,6535.0,74832.0,118469.0,-0.0006709999999999999,-0.00183,0.0011589999999999999,0.31500000000000006,-1.6975000000000002,-3.5875000000000004,0.738125,-0.10709375,-0.03671875,0.96965625,0.70428125,-0.630375,-0.70234375,0.92359375,0.02124536268733221,0.02694582371358993,True
50206,76768,0,76769,6537.0,74833.0,118469.0,0.000732,-0.0017079999999999999,0.001464,0.2625,-1.7850000000000001,-3.535,0.73203125,-0.11596875000000001,-0.04090625,0.9824375000000001,0.68640625,-0.62715625,-0.70878125,0.93875,0.020757065688410528,0.027029864129781794,True
50207,76769,0,76770,6537.0,74839.0,118474.0,0.0021349999999999997,-0.001281,0.001952,0.29750000000000004,-1.6800000000000002,-3.6575,0.7387812500000001,-0.1130625,-0.042875,0.9631875,0.70715625,-0.63165625,-0.70628125,0.94075,0.021053953690182734,0.02685172419463168,True
50208,76770,0,76771,6534.0,74834.0,118470.0,0.0017079999999999999,-0.000122,0.0025009999999999998,0.35000000000000003,-1.7325000000000002,-3.5175000000000005,0.7159375,-0.10571875,-0.04078125,0.98975,0.70040625,-0.62440625,-0.69934375,0.92325,0.021063959664002055,0.026663157801510417,True
50209,76771,0,76772,6540.0,74830.0,118472.0,0.00042699999999999997,0.0011589999999999999,0.00042699999999999997,0.47250000000000003,-1.5750000000000002,-3.5175000000000005,0.7343125,-0.104875,-0.04209375,0.98890625,0.70734375,-0.62915625,-0.69903125,0.91434375,0.021287016277709472,0.02659770309817313,True
50210,76772,0,76773,6536.0,74830.0,118469.0,-0.001952,0.003111,-0.0021349999999999997,0.5950000000000001,-1.3475000000000001,-3.4650000000000003,0.744,-0.1040625,-0.04053125,0.9894375,0.6951875000000001,-0.62721875,-0.6999062500000001,0.92253125,0.021243009830332546,0.02669544545336078,True
50211,76773,0,76774,6539.0,74833.0,118466.0,-0.003172,0.00183,0.001281,0.6125,-1.2950000000000002,-3.3425000000000002,0.7221875,-0.10553125000000001,-0.039218750000000004,0.989625,0.70834375,-0.62890625,-0.69975,0.9234687500000001,0.02125043616177637,0.026742426542778773,True
50212,76774,0,76775,6539.0,74834.0,118469.0,-0.0023179999999999997,-0.0008539999999999999,0.000793,0.4025,-1.5575,-3.43,0.753,-0.10400000000000001,-0.03546875,0.9728125,0.6949062500000001,-0.62796875,-0.70225,0.9238125,0.021275353859623522,0.026992733455454464,True
50213,76775,0,76776,6542.0,74832.0,118466.0,0.001464,-0.001647,0.000305,0.3325,-1.5575,-3.5175000000000005,0.7527812500000001,-0.1183125,-0.04490625,0.95765625,0.68753125,-0.6291875,-0.70709375,0.9360937500000001,0.02074266558732398,0.026801513229373648,True
50214,76776,0,76777,6541.0,74830.0,118474.0,0.003172,-0.00122,-0.000732,0.36750000000000005,-1.6800000000000002,-3.5875000000000004,0.71821875,-0.10671875,-0.04490625,0.9919687500000001,0.69634375,-0.6230625,-0.70040625,0.91453125,0.020969924029555626,0.026538025057786244,True
50215,76777,0,76778,6539.0,74834.0,118476.0,0.0028669999999999998,0.001037,0.000915,0.45500000000000007,-1.6800000000000002,-3.5000000000000004,0.74471875,-0.11334375000000001,-0.03728125,0.9479062500000001,0.6949375,-0.62803125,-0.7041875,0.92903125,0.020898442704387916,0.026995676340296555,True
50216,76778,0,76779,6540.0,74836.0,118471.0,-0.000549,0.000915,0.0008539999999999999,0.49000000000000005,-1.4875,-3.4825000000000004,0.724375,-0.11209375,-0.04590625,0.9824375000000001,0.692375,-0.62646875,-0.702375,0.9301875000000001,0.020887079070156984,0.02657512688557274,True
50217,76779,0,76780,6545.0,74837.0,118473.0,-0.002623,0.001281,-0.00042699999999999997,0.5075000000000001,-1.1375000000000002,-3.4650000000000003,0.73471875,-0.10534375,-0.0360625,0.9624375000000001,0.69821875,-0.62696875,-0.7039062500000001,0.92975,0.021181047708114707,0.02703393314569432,True
50218,76780,0,76781,6540.0,74829.0,118477.0,-0.0030499999999999998,-0.000183,-0.0011589999999999999,0.5075000000000001,-1.1025,-3.4825000000000004,0.7295625,-0.110375,-0.041125,0.96965625,0.6925625,-0.62515625,-0.70559375,0.93053125,0.02090468969105526,0.026895477871281683,True
50219,76781,0,76782,6542.0,74837.0,118472.0,-0.002806,-0.001403,-0.000732,0.45500000000000007,-1.225,-3.535,0.7299375,-0.10815625,-0.04265625,0.97646875,0.6872812500000001,-0.62246875,-0.7028125000000001,0.9340625,0.02088793391198842,0.02672393072651141,True
50220,76782,0,76783,6545.0,74834.0,118476.0,-0.00061,-0.000732,0.001098,0.42000000000000004,-1.33,-3.4825000000000004,0.73653125,-0.108,-0.041875,0.9615625,0.69765625,-0.62903125,-0.6970000000000001,0.92803125,0.021155166222788402,0.026526501194477067,True
50221,76783,0,76784,6547.0,74838.0,118479.0,0.0023179999999999997,-0.0011589999999999999,0.003721,0.42000000000000004,-1.435,-3.4475000000000002,0.73075,-0.10396875,-0.04321875,0.9763437500000001,0.6920000000000001,-0.626875,-0.70225,0.931,0.021233154835926197,0.02667899685251344,True
50222,76784,0,76785,6543.0,74837.0,118477.0,0.003172,-0.000793,0.0017079999999999999,0.35000000000000003,-1.5750000000000002,-3.325,0.73690625,-0.111125,-0.04040625,0.97003125,0.6969062500000001,-0.62603125,-0.70015625,0.9312812500000001,0.020909022845489973,0.02671035734844795,True
50223,76785,0,76786,6546.0,74843.0,118483.0,0.001952,0.000732,-0.004575,0.4025,-1.5050000000000001,-3.3950000000000005,0.73075,-0.10896875,-0.04346875,0.9769375,0.6929062500000001,-0.6249375,-0.7030000000000001,0.93459375,0.020953098865733166,0.026698427316520265,True
50224,76786,0,76787,6544.0,74841.0,118485.0,0.002013,0.000305,-0.002623,0.5950000000000001,-1.2775,-3.3775000000000004,0.73734375,-0.10509375,-0.040875,0.9696875,0.70115625,-0.62471875,-0.70215625,0.92415625,0.021101763852632835,0.02677018327094421,True
50225,76787,0,76788,6548.0,74843.0,118491.0,-0.001464,0.001769,-0.000488,0.6125,-1.0675000000000001,-3.4125000000000005,0.7368750000000001,-0.11043750000000001,-0.0416875,0.9700625,0.69296875,-0.6231875,-0.7018125000000001,0.92240625,0.020823867746610793,0.026723747498285808,True
50226,76788,0,76789,6548.0,74842.0,118484.0,-0.001952,0.000488,0.001403,0.45500000000000007,-1.0150000000000001,-3.5000000000000004,0.731875,-0.11121875,-0.04353125,0.97009375,0.69253125,-0.62434375,-0.7055,0.93196875,0.020838118782353334,0.02679438788933638,True
50227,76789,0,76790,6548.0,74844.0,118483.0,-0.000915,0.000366,0.000549,0.5075000000000001,-1.0850000000000002,-3.4650000000000003,0.73046875,-0.10671875,-0.0425,0.9751875,0.69228125,-0.62621875,-0.70109375,0.9333125,0.021095402638701896,0.026662533921195292,True
50228,76790,0,76791,6550.0,74844.0,118485.0,-0.002379,-6.1e-05,0.000793,0.43750000000000006,-1.1725,-3.3775000000000004,0.73665625,-0.11065625,-0.03815625,0.9698125,0.70084375,-0.627625,-0.705125,0.9278125,0.020991417158577004,0.026997181758845586,True
50229,76791,0,76792,6548.0,74844.0,118489.0,0.000244,0.000183,0.002257,0.45500000000000007,-1.4000000000000001,-3.3425000000000002,0.7305,-0.10853125,-0.039406250000000004,0.9755625,0.68940625,-0.626125,-0.70015625,0.9201875,0.02101807531635611,0.02675084292229933,True
50230,76792,0,76793,6552.0,74847.0,118494.0,-0.000488,-0.001464,6.1e-05,0.2625,-1.3125000000000002,-3.4475000000000002,0.73865625,-0.11131250000000001,-0.04471875,0.975875,0.697625,-0.62796875,-0.70221875,0.9341875000000001,0.020978435340917017,0.026617042244434015,True
50231,76793,0,76794,6552.0,74844.0,118496.0,-0.000549,-0.00042699999999999997,-0.002745,0.4025,-1.3475000000000001,-3.4650000000000003,0.73640625,-0.10796875,-0.04134375,0.969375,0.69740625,-0.6271875,-0.69953125,0.92934375,0.021083152511832706,0.02664777292079177,True
50232,76794,0,76795,6552.0,74848.0,118500.0,-0.000976,-0.000183,-0.0030499999999999998,0.5075000000000001,-1.2950000000000002,-3.4650000000000003,0.73084375,-0.10765625000000001,-0.04175,0.9695312500000001,0.69228125,-0.624625,-0.7023125,0.9284687500000001,0.020993974527530875,0.02674091747483156,True
50233,76795,0,76796,6551.0,74849.0,118497.0,-0.001037,0.001281,-0.000793,0.525,-1.4525000000000001,-3.4125000000000005,0.73165625,-0.1081875,-0.04140625,0.9753437500000001,0.6920000000000001,-0.62515625,-0.7027187500000001,0.9280625,0.020993521614710565,0.026770838736120902,True
50234,76796,0,76797,6554.0,74849.0,118494.0,0.0013419999999999999,0.0,0.000793,0.525,-1.6275000000000002,-3.5000000000000004,0.7395,-0.10934375,-0.0421875,0.97375,0.696875,-0.62753125,-0.70221875,0.93253125,0.021040984365820265,0.026719512796800893,True
50235,76797,0,76798,6558.0,74847.0,118495.0,0.002257,-0.001037,0.0023179999999999997,0.35000000000000003,-1.7675,-3.5700000000000003,0.731375,-0.10553125000000001,-0.04159375,0.97065625,0.68890625,-0.6255000000000001,-0.70315625,0.9278125,0.021115053501451753,0.026780484781170424,True
50236,76798,0,76799,6557.0,74846.0,118495.0,0.001586,-6.1e-05,0.000915,0.28,-1.54,-3.6050000000000004,0.73153125,-0.10659375,-0.04221875,0.97021875,0.688375,-0.62584375,-0.702375,0.92796875,0.02108557194106293,0.026724404029976875,True
50237,76799,0,76800,6557.0,74848.0,118505.0,0.000244,-0.000305,0.001647,0.28,-1.2775,-3.7625,0.73184375,-0.1080625,-0.04209375,0.97284375,0.6925625,-0.6245,-0.7030625,0.92796875,0.020972507055980836,0.0267565509337152,True
50238,76800,0,76801,6556.0,74848.0,118505.0,-0.000732,-0.00061,0.0,0.49000000000000005,-1.2075,-3.6750000000000003,0.7329687500000001,-0.11190625,-0.04446875,0.9765,0.69434375,-0.6255625,-0.705,0.934875,0.020858660588971317,0.02673674357417527,True
50239,76801,0,76802,6557.0,74849.0,118507.0,-0.001281,-0.000366,-0.001952,0.47250000000000003,-1.225,-3.6225000000000005,0.7385625,-0.1078125,-0.0411875,0.969875,0.7025625,-0.62171875,-0.7025,0.916625,0.020872070517010517,0.026771075802044325,True
50240,76802,0,76803,6559.0,74850.0,118501.0,-0.0013419999999999999,-0.00042699999999999997,-0.003477,0.28,-1.1900000000000002,-3.3950000000000005,0.731375,-0.10790625000000001,-0.043312500000000004,0.974875,0.692875,-0.6196875000000001,-0.7030625,0.9486875,0.02078747953238643,0.02670721494551536,True
50241,76803,0,76804,6558.0,74848.0,118503.0,-0.001586,6.1e-05,-0.000793,0.47250000000000003,-1.2075,-3.43,0.73665625,-0.110875,-0.03540625,0.95996875,0.7060625,-0.62846875,-0.69640625,0.912375,0.021016075146775014,0.026765027806424268,True
50242,76804,0,76805,6560.0,74845.0,118503.0,-0.00244,0.001403,0.0021349999999999997,0.5775,-1.3825,-3.4825000000000004,0.7315625,-0.10387500000000001,-0.04396875,0.97684375,0.6858125,-0.62446875,-0.70821875,0.9445625,0.021141319038608702,0.026883767167554317,True
50243,76805,0,76806,6560.0,74846.0,118511.0,-0.000122,0.002379,0.002623,0.6125,-1.435,-3.535,0.725,-0.1083125,-0.041,0.9645625,0.6999062500000001,-0.62809375,-0.6996875,0.9225625000000001,0.02110521647661017,0.026667847518313744,True
50244,76806,0,76807,6564.0,74849.0,118511.0,0.00061,0.000976,0.0006709999999999999,0.47250000000000003,-1.6450000000000002,-3.5700000000000003,0.7311875,-0.112375,-0.04315625,0.97,0.68875,-0.63371875,-0.70453125,0.9329375,0.021163826513201544,0.026771404537376118,True
50245,76807,0,76808,6562.0,74851.0,118514.0,-0.000976,0.001281,0.000183,0.35000000000000003,-1.8900000000000001,-3.8150000000000004,0.73109375,-0.10753125000000001,-0.04259375,0.97571875,0.684625,-0.62425,-0.7017187500000001,0.9424375,0.020984141648984232,0.026683365909507817,True
50246,76808,0,76809,6565.0,74849.0,118517.0,-0.0021349999999999997,-0.000732,0.0006709999999999999,0.35000000000000003,-1.995,-3.8500000000000005,0.72846875,-0.10984375,-0.0414375,0.9599375,0.70715625,-0.62825,-0.69925,0.922875,0.02104925238293423,0.026632893711347513,True
50247,76809,0,76810,6564.0,74851.0,118507.0,0.000244,-0.00061,0.002806,0.1925,-2.0125,-3.9550000000000005,0.73165625,-0.11040625,-0.04275,0.975875,0.6865625,-0.63,-0.70521875,0.938625,0.02109597036134795,0.026814931561777815,True
50248,76810,0,76811,6566.0,74849.0,118509.0,0.00122,-0.001464,0.0018909999999999999,0.12250000000000001,-2.0650000000000004,-3.9725000000000006,0.73128125,-0.1078125,-0.0421875,0.97690625,0.6816875,-0.6244375,-0.70284375,0.94375,0.02098017467404078,0.026744137504411812,True
50249,76811,0,76812,6566.0,74853.0,118505.0,0.003477,-0.003477,-0.000305,0.035,-2.24,-4.0075,0.73990625,-0.11003125,-0.043812500000000004,0.9695312500000001,0.6761875,-0.62615625,-0.7051875,0.91828125,0.020958406775316383,0.0267706934019424,True
50250,76812,0,76813,6564.0,74850.0,118500.0,0.003538,-0.0035989999999999998,-0.0035989999999999998,0.07,-2.1,-3.9375000000000004,0.72428125,-0.10859375,-0.04178125,0.97528125,0.68559375,-0.62334375,-0.7034375,0.9385,0.020904959343712202,0.02678397490227828,True
50251,76813,0,76814,6565.0,74850.0,118490.0,0.0018909999999999999,-0.000976,-0.0026839999999999998,0.052500000000000005,-1.6625,-3.7975000000000003,0.73628125,-0.11003125,-0.04190625,0.97040625,0.7005,-0.6265000000000001,-0.70228125,0.9250625,0.020972072767141088,0.026733360911757896,True
50252,76814,0,76815,6563.0,74848.0,118491.0,-0.000122,0.000732,-0.002013,0.2625,-1.5225000000000002,-3.7100000000000004,0.73190625,-0.109375,-0.04428125,0.97575,0.68725,-0.6243125,-0.6997187500000001,0.9354687500000001,0.020911751343311618,0.02653623333261639,True
50253,76815,0,76816,6559.0,74850.0,118479.0,-0.001769,0.001769,0.0,0.42000000000000004,-1.4000000000000001,-3.7275000000000005,0.73090625,-0.1088125,-0.0411875,0.971125,0.6985625,-0.6236875000000001,-0.69684375,0.92825,0.02090974392036124,0.02654817986610131,True
50254,76816,0,76817,6558.0,74850.0,118473.0,-0.001403,0.002013,0.001586,0.385,-1.435,-3.8150000000000004,0.731125,-0.1080625,-0.04234375,0.9695312500000001,0.693125,-0.62596875,-0.7019375,0.92890625,0.02103089853064156,0.02670210585708105,True
50255,76817,0,76818,6554.0,74849.0,118467.0,-0.001281,0.001586,0.0030499999999999998,0.28,-1.4525000000000001,-3.6925000000000003,0.731125,-0.10759375,-0.041375,0.97,0.69225,-0.62540625,-0.7021875,0.9281875,0.021027571880159336,0.026751173352562396,True
50256,76818,0,76819,6552.0,74846.0,118459.0,-0.0006709999999999999,0.0017079999999999999,0.001098,0.24500000000000002,-1.4700000000000002,-3.6575,0.732,-0.1083125,-0.04175,0.9704375000000001,0.6921875000000001,-0.62534375,-0.7021875,0.9284375,0.020995899803429138,0.026735992510784724,True
50257,76819,0,76820,6553.0,74844.0,118464.0,-0.002257,0.001037,0.0006709999999999999,0.35000000000000003,-1.4000000000000001,-3.6050000000000004,0.73221875,-0.10759375,-0.04178125,0.9693125,0.69303125,-0.6253125,-0.70140625,0.92871875,0.021023844875065038,0.0267039452460323,True
50258,76820,0,76821,6550.0,74846.0,118453.0,-0.001281,0.001037,0.0,0.4025,-1.435,-3.6925000000000003,0.73109375,-0.10796875,-0.0415625,0.96025,0.6835625,-0.625375,-0.7029375,0.92771875,0.021011101353786494,0.026773131737875305,True
50259,76821,0,76822,6552.0,74843.0,118452.0,0.000488,0.0006709999999999999,-6.1e-05,0.4025,-1.54,-3.6400000000000006,0.730625,-0.108625,-0.04128125,0.9732500000000001,0.69196875,-0.6260625,-0.70209375,0.927875,0.02101178375552324,0.02675127487928022,True
50260,76822,0,76823,6547.0,74841.0,118443.0,0.001464,-0.0013419999999999999,-0.002196,0.29750000000000004,-1.8725000000000003,-3.6750000000000003,0.73575,-0.11031250000000001,-0.04140625,0.976,0.6883125,-0.627125,-0.7020625,0.936125,0.020985498713309004,0.02674498333894184,True
50261,76823,0,76824,6549.0,74844.0,118447.0,0.0011589999999999999,-0.0011589999999999999,-0.001281,0.29750000000000004,-1.8725000000000003,-3.7100000000000004,0.73909375,-0.11196875,-0.044875,0.98603125,0.69740625,-0.62696875,-0.7035625,0.9277500000000001,0.020912033682586286,0.026663664400630473,True
50262,76824,0,76825,6548.0,74842.0,118438.0,0.00061,-0.000732,-0.001037,0.29750000000000004,-1.8025000000000002,-3.7625,0.739125,-0.109125,-0.04128125,0.966375,0.6953125,-0.62590625,-0.702375,0.9306875,0.020985268308653614,0.026762355846350804,True
50263,76825,0,76826,6549.0,74845.0,118443.0,0.000366,-0.0008539999999999999,-0.000122,0.1925,-1.7850000000000001,-3.7975000000000003,0.74340625,-0.1125625,-0.04396875,0.97240625,0.6989375,-0.6294375,-0.7023125,0.9274375,0.0209860659627326,0.02665109794882564,True
50264,76826,0,76827,6547.0,74844.0,118441.0,0.000183,-0.001586,0.000244,0.28,-1.6800000000000002,-3.8150000000000004,0.728625,-0.10684375,-0.0403125,0.96646875,0.69178125,-0.6256875000000001,-0.7018125000000001,0.9275625000000001,0.021069208727675117,0.026779411429829293,True
50265,76827,0,76828,6544.0,74841.0,118437.0,0.000976,-0.0008539999999999999,-0.000305,0.10500000000000001,-1.7675,-3.7100000000000004,0.72540625,-0.10371875,-0.0445625,0.97975,0.69334375,-0.62653125,-0.69978125,0.93596875,0.02122964434952649,0.026527309831944363,True
50266,76828,0,76829,6545.0,74841.0,118438.0,6.1e-05,-0.0008539999999999999,-0.0023179999999999997,0.15750000000000003,-1.6975000000000002,-3.7275000000000005,0.74528125,-0.11303125,-0.0455,0.9829687500000001,0.699375,-0.62875,-0.70175,0.93396875,0.020939704613510635,0.026566943637596527,True
50267,76829,0,76830,6541.0,74840.0,118431.0,-0.0017079999999999999,0.000244,-0.0025009999999999998,0.29750000000000004,-1.54,-3.7450000000000006,0.7464375,-0.1075,-0.039531250000000004,0.96525,0.6974375,-0.62528125,-0.70384375,0.9285,0.021026409596844705,0.02689105819818019,True
50268,76830,0,76831,6543.0,74842.0,118434.0,-0.000122,0.000732,0.0011589999999999999,0.42000000000000004,-1.5225000000000002,-3.6750000000000003,0.7311875,-0.113375,-0.0468125,0.985375,0.69296875,-0.62575,-0.7026875,0.933875,0.02080647289930256,0.02655075485207834,True
50269,76831,0,76832,6540.0,74841.0,118429.0,0.000793,0.001281,0.002623,0.29750000000000004,-1.3125000000000002,-3.8150000000000004,0.747625,-0.11603125,-0.03621875,0.97446875,0.6960625,-0.627125,-0.6997187500000001,0.92853125,0.020753285249496236,0.026862654053500107,True
50270,76832,0,76833,6540.0,74840.0,118424.0,0.000793,0.00122,0.0018909999999999999,0.3325,-1.4000000000000001,-3.7625,0.7244375000000001,-0.10584375,-0.039531250000000004,0.9639062500000001,0.6974375,-0.62684375,-0.70259375,0.92821875,0.021155776407604,0.026841816965070726,True
50271,76833,0,76834,6539.0,74842.0,118426.0,-0.000183,0.002074,-6.1e-05,0.4025,-1.4175000000000002,-3.7800000000000002,0.731375,-0.10956250000000001,-0.045375,0.9818125,0.6923125,-0.6258125,-0.7030625,0.92825,0.02096377530690612,0.02662372327317716,True
50272,76834,0,76835,6537.0,74837.0,118420.0,-0.0021349999999999997,0.001281,-0.00042699999999999997,0.5075000000000001,-1.4175000000000002,-3.6050000000000004,0.7419375,-0.11046875,-0.042125,0.97146875,0.6945625,-0.62653125,-0.70259375,0.932625,0.020955549718355077,0.026736817869581007,True
50273,76835,0,76836,6537.0,74835.0,118421.0,-0.000976,0.001464,-0.000732,0.47250000000000003,-1.4175000000000002,-3.6750000000000003,0.7331875,-0.1069375,-0.040875,0.9763437500000001,0.69725,-0.627875,-0.7045625,0.9214687500000001,0.021152352770996277,0.026864976864091398,True
50274,76836,0,76837,6535.0,74840.0,118423.0,0.00061,-0.002074,-0.0015249999999999999,0.1925,-1.7850000000000001,-3.7275000000000005,0.7224375000000001,-0.1085,-0.043625000000000004,0.97540625,0.6971875,-0.6265937500000001,-0.70478125,0.9320625,0.02103797850646722,0.02676227906288383,True
50275,76837,0,76838,6537.0,74839.0,118420.0,0.001647,-0.003538,-0.00061,0.07,-1.8725000000000003,-3.7975000000000003,0.73853125,-0.11093750000000001,-0.043937500000000004,0.974375,0.6970000000000001,-0.6263125,-0.705,0.9350625,0.020927818568045865,0.02675824731835661,True
50276,76838,0,76839,6535.0,74841.0,118418.0,0.001403,-0.002989,-0.001769,0.17500000000000002,-1.8375000000000001,-3.8850000000000002,0.73725,-0.1076875,-0.0425,0.97015625,0.704,-0.62896875,-0.7060625,0.9425625,0.02116537055576068,0.026858286301186196,True
50277,76839,0,76840,6536.0,74838.0,118421.0,0.001098,-0.001952,-0.000549,0.2625,-1.6975000000000002,-3.7975000000000003,0.73709375,-0.11034375,-0.04421875,0.9694375000000001,0.7126875,-0.62596875,-0.7051875,0.91521875,0.020938262581040593,0.026754249487076345,True
50278,76840,0,76841,6536.0,74834.0,118413.0,0.000366,0.000488,-0.002257,0.31500000000000006,-1.6800000000000002,-3.7450000000000006,0.73371875,-0.1068125,-0.04146875,0.96940625,0.68953125,-0.6226875000000001,-0.700375,0.9176562500000001,0.020951206077728112,0.026675961397347205,True
50279,76841,0,76842,6532.0,74837.0,118412.0,0.000732,0.000793,0.0008539999999999999,0.45500000000000007,-1.8025000000000002,-3.5875000000000004,0.72590625,-0.10234375,-0.0419375,0.97428125,0.6890625,-0.6295937500000001,-0.70778125,0.9497187500000001,0.0214071740424058,0.026948747168465403,True
50280,76842,0,76843,6534.0,74836.0,118410.0,0.000244,0.0017079999999999999,0.001464,0.385,-1.715,-3.7100000000000004,0.737625,-0.11,-0.0440625,0.9700625,0.71325,-0.6290625,-0.696625,0.9167500000000001,0.02107520332939997,0.026423144862911432,True
50281,76843,0,76844,6532.0,74840.0,118411.0,-0.00042699999999999997,0.001403,0.000549,0.43750000000000006,-1.6625,-3.6925000000000003,0.72921875,-0.10753125000000001,-0.04178125,0.97015625,0.6723125,-0.621,-0.69840625,0.9225,0.020854910442305353,0.02658572352214022,True
50282,76844,0,76845,6532.0,74844.0,118415.0,-0.000915,0.000793,0.00061,0.35000000000000003,-1.6800000000000002,-3.535,0.72978125,-0.10915625,-0.04396875,0.9701875,0.6904375,-0.6339375,-0.70365625,0.9476875,0.021303181840093572,0.02670404305030758,True
50283,76845,0,76846,6529.0,74841.0,118413.0,-0.0011589999999999999,0.000183,0.0008539999999999999,0.45500000000000007,-1.715,-3.6400000000000006,0.7379687500000001,-0.11215625,-0.04175,0.97459375,0.7153437500000001,-0.62853125,-0.70153125,0.9363750000000001,0.020966536524584672,0.026710135631773844,True
50284,76846,0,76847,6529.0,74842.0,118413.0,-0.000244,0.000488,0.0021349999999999997,0.43750000000000006,-1.715,-3.5700000000000003,0.73228125,-0.11006250000000001,-0.0405625,0.96615625,0.687625,-0.6265625,-0.69628125,0.9106562500000001,0.020973288496922784,0.026551315291649422,True
50285,76847,0,76848,6532.0,74842.0,118409.0,-0.000244,-0.0006709999999999999,0.000305,0.45500000000000007,-1.8025000000000002,-3.6575,0.730875,-0.10740625000000001,-0.04378125,0.9773437500000001,0.68009375,-0.62509375,-0.71075,0.949375,0.02102276260369567,0.02699103628987384,True
50286,76848,0,76849,6531.0,74844.0,118412.0,0.000549,-0.000915,-0.000732,0.45500000000000007,-1.7850000000000001,-3.6225000000000005,0.72790625,-0.1076875,-0.035750000000000004,0.9693437500000001,0.7036875,-0.62925,-0.696875,0.918125,0.02117654820995361,0.026769581171706948,True
50287,76849,0,76850,6530.0,74842.0,118411.0,0.0018909999999999999,-0.00122,-0.0006709999999999999,0.35000000000000003,-1.715,-3.7450000000000006,0.73271875,-0.1074375,-0.04278125,0.96959375,0.68771875,-0.63321875,-0.70696875,0.9321875000000001,0.02134439901403466,0.026882597647677843,True
50288,76850,0,76851,6528.0,74846.0,118411.0,0.00042699999999999997,-0.000244,-0.000976,0.47250000000000003,-1.715,-3.8150000000000004,0.72159375,-0.10840625,-0.03846875,0.9745,0.67875,-0.62446875,-0.7075,0.932625,0.020957304916476627,0.027078063341090763,True
50289,76851,0,76852,6532.0,74843.0,118410.0,0.000793,0.000488,-0.002074,0.42000000000000004,-1.61,-3.6750000000000003,0.73334375,-0.10071875,-0.0411875,0.9703437500000001,0.6928125,-0.6264375,-0.70059375,0.92596875,0.021347738583788255,0.026695967581750944,True
50290,76852,0,76853,6528.0,74847.0,118413.0,0.0008539999999999999,0.000976,-0.003843,0.35000000000000003,-1.5050000000000001,-3.7975000000000003,0.7302500000000001,-0.1079375,-0.04228125,0.97396875,0.692625,-0.6238125,-0.70234375,0.92553125,0.02095024886986936,0.02672064265157026,True
50291,76853,0,76854,6529.0,74845.0,118410.0,0.00042699999999999997,0.000549,-0.000366,0.36750000000000005,-1.54,-3.7450000000000006,0.73746875,-0.11034375,-0.044625,0.9751875,0.6925625,-0.61815625,-0.7026875,0.9284687500000001,0.0206275601975676,0.026639307970033624,True
50292,76854,0,76855,6530.0,74846.0,118411.0,0.000488,-0.00042699999999999997,0.0008539999999999999,0.2625,-1.6450000000000002,-3.7625,0.73278125,-0.10759375,-0.0398125,0.97496875,0.6920937500000001,-0.625625,-0.70296875,0.92759375,0.02103626811502246,0.026845204586999283,True
50293,76855,0,76856,6530.0,74845.0,118409.0,0.0,-0.001647,0.001647,0.14,-1.7500000000000002,-3.6750000000000003,0.73678125,-0.10875,-0.04303125,0.9733125,0.6923125,-0.6263125,-0.70478125,0.9340625,0.021016646320881373,0.026786312872128754,True
50294,76856,0,76857,6533.0,74849.0,118408.0,-0.00061,-0.000549,0.000793,0.24500000000000002,-1.5750000000000002,-3.7800000000000002,0.7225625,-0.107875,-0.04309375,0.97278125,0.6979375,-0.62540625,-0.70325,0.9352812500000001,0.02101615074878206,0.02672345743981055,True
50295,76857,0,76858,6528.0,74849.0,118408.0,-0.001952,0.000732,0.000793,0.385,-1.61,-3.6575,0.73165625,-0.10721875,-0.04103125,0.9702500000000001,0.6976875,-0.62440625,-0.701875,0.9284687500000001,0.0210030444896514,0.026752776864104447,True
50296,76858,0,76859,6530.0,74846.0,118413.0,-0.000915,0.00042699999999999997,0.000122,0.5775,-1.5925000000000002,-3.6400000000000006,0.7319375,-0.108125,-0.0425625,0.97671875,0.69221875,-0.6251875,-0.7028125000000001,0.934875,0.020997302050999613,0.026727725840934104,True
50297,76859,0,76860,6534.0,74845.0,118413.0,-0.000976,0.002013,6.1e-05,0.47250000000000003,-1.6275000000000002,-3.6925000000000003,0.73778125,-0.11031250000000001,-0.04184375,0.970125,0.70028125,-0.62546875,-0.705,0.92878125,0.02091965254468506,0.026842997368953656,True
50298,76860,0,76861,6532.0,74846.0,118412.0,0.000305,0.000732,-0.0006709999999999999,0.31500000000000006,-1.61,-3.7275000000000005,0.73184375,-0.0995,-0.04196875,0.9689375,0.69221875,-0.62571875,-0.70178125,0.9283125,0.02136866563539389,0.026711130396719872,True
50299,76861,0,76862,6529.0,74849.0,118418.0,0.001098,0.000549,0.000488,0.31500000000000006,-1.7325000000000002,-3.7450000000000006,0.7244375000000001,-0.10387500000000001,-0.04309375,0.98359375,0.69234375,-0.6261875,-0.69634375,0.9203125,0.02120963709871859,0.02645128390715731,True
50300,76862,0,76863,6531.0,74855.0,118417.0,0.00042699999999999997,0.000366,0.001037,0.385,-1.7850000000000001,-3.7275000000000005,0.74153125,-0.11203125,-0.04275,0.97265625,0.69159375,-0.6259375,-0.70275,0.92825,0.02086849485425682,0.026717673133558006,True
50301,76863,0,76864,6531.0,74855.0,118420.0,0.00042699999999999997,0.000305,0.00122,0.3325,-1.6275000000000002,-3.7100000000000004,0.73190625,-0.1085625,-0.0415625,0.9666875,0.6929062500000001,-0.62509375,-0.7016875,0.922,0.02097580846773426,0.02672388273068389,True
50302,76864,0,76865,6532.0,74855.0,118416.0,0.000305,-0.000305,-0.000183,0.28,-1.6625,-3.7450000000000006,0.7275625,-0.10746875,-0.0418125,0.9651875,0.69334375,-0.6240625,-0.69453125,0.91925,0.020979225097402184,0.026431712486949917,True
50303,76865,0,76866,6532.0,74857.0,118420.0,-0.000976,-0.001098,-0.000122,0.2625,-1.6275000000000002,-3.6925000000000003,0.72978125,-0.1014375,-0.039968750000000004,0.96940625,0.6841875000000001,-0.62546875,-0.7025,0.92240625,0.021280051775664173,0.026820412913672705,True
50304,76866,0,76867,6533.0,74859.0,118418.0,-0.001769,-0.000549,-0.001464,0.36750000000000005,-1.5925000000000002,-3.8150000000000004,0.730375,-0.10946875,-0.04053125,0.9605625,0.69365625,-0.62596875,-0.70221875,0.92790625,0.020973794178147813,0.026786561429831074,True
50305,76867,0,76868,6532.0,74859.0,118420.0,-0.0013419999999999999,-0.000366,-0.0017079999999999999,0.31500000000000006,-1.6625,-3.6400000000000006,0.72565625,-0.1078125,-0.04096875,0.9660625,0.69071875,-0.62603125,-0.7017187500000001,0.9279375,0.0210435349788651,0.026749150805548703,True
50306,76868,0,76869,6532.0,74860.0,118418.0,-0.000366,-0.000549,-0.000122,0.31500000000000006,-1.8375000000000001,-3.6050000000000004,0.72428125,-0.10625,-0.0404375,0.964,0.69271875,-0.62384375,-0.70215625,0.9178125,0.021020022513747478,0.02678789427542383,True
