frame_seq,absolute_seq_u64,segment_id,sample_seq,PPG_G,PPG_R,PPG_IR,ACC_X,ACC_Y,ACC_Z,GYRO_X,GYRO_Y,GYRO_Z,Uh1,Uh2,Uh3,Uh4,Uc1,Uc2,Uc3,Uc4,UD1,UD2,parser_valid
45988,203624,1,203549,3899.0,40785.0,44954.0,0.00061,0.003721,0.003355,0.6125,-1.3825,-3.6400000000000006,0.81634375,-0.145,-0.203375,1.04071875,0.7531875,-0.60990625,-0.88696875,1.02134375,0.01889102076526602,0.02746793942110768,True
45989,203625,1,203550,3901.0,40784.0,44952.0,-0.0013419999999999999,0.000122,-0.00183,0.43750000000000006,-1.4000000000000001,-3.5000000000000004,0.81778125,-0.14400000000000002,-0.20046875,1.04240625,0.7465937500000001,-0.61165625,-0.87915625,1.0316875,0.01900141320233172,0.02727936161420265,True
45990,203626,1,203551,3901.0,40785.0,44956.0,-0.003355,0.000244,-0.0034159999999999998,0.29750000000000004,-1.61,-3.43,0.80090625,-0.146875,-0.20296875,1.0383125,0.74953125,-0.61003125,-0.87834375,1.00753125,0.018819815598568167,0.027147104597748793,True
45991,203627,1,203552,3901.0,40789.0,44958.0,-0.000915,0.0017079999999999999,0.001647,0.385,-1.5925000000000002,-3.3950000000000005,0.81234375,-0.145625,-0.20496875,1.040875,0.77175,-0.607,-0.881375,1.02296875,0.018749746007233715,0.027185243982697904,True
45992,203628,1,203553,3902.0,40787.0,44959.0,0.001769,0.00042699999999999997,0.0030499999999999998,0.31500000000000006,-1.7500000000000002,-3.535,0.81065625,-0.14646875,-0.2015,1.04115625,0.74271875,-0.6138125,-0.87825,1.01275,0.018987052493391665,0.027202476058404427,True
45993,203629,1,203554,3903.0,40787.0,44956.0,0.0023179999999999997,0.000976,-0.0006709999999999999,0.21000000000000002,-2.0300000000000002,-3.6050000000000004,0.81825,-0.1445625,-0.20621875,1.0386875,0.7723125000000001,-0.60459375,-0.882,1.02809375,0.018696965886705608,0.027159442568925326,True
45994,203630,1,203555,3902.0,40788.0,44958.0,0.001037,-0.002989,-0.003721,0.12250000000000001,-1.7675,-3.5875000000000004,0.81065625,-0.1466875,-0.20153125,1.04078125,0.74896875,-0.61228125,-0.87375,1.0124375,0.018917131056268913,0.027025227398361728,True
45995,203631,1,203556,3902.0,40787.0,44954.0,-0.001464,-0.000915,-0.001098,0.31500000000000006,-1.6450000000000002,-3.7450000000000006,0.8190937500000001,-0.14409375,-0.20240625,1.04765625,0.7675000000000001,-0.6119687500000001,-0.87928125,1.0280625,0.019010059892100264,0.027206372772525335,True
45996,203632,1,203557,3901.0,40786.0,44951.0,-0.0011589999999999999,0.000122,-0.000732,0.35000000000000003,-1.6975000000000002,-3.6050000000000004,0.8106875,-0.14521875,-0.20471875,1.0322500000000001,0.7584062500000001,-0.606375,-0.88284375,1.0193125,0.01874133227669659,0.027252713026420065,True
45997,203633,1,203558,3902.0,40784.0,44951.0,-0.000488,0.000549,0.001647,0.43750000000000006,-1.7850000000000001,-3.5525,0.8138125,-0.14325000000000002,-0.202,1.04725,0.75103125,-0.60971875,-0.8761875,1.01678125,0.01895465587147354,0.027101721274612516,True
45998,203634,1,203559,3900.0,40781.0,44948.0,0.00122,0.0006709999999999999,0.001403,0.45500000000000007,-1.6800000000000002,-3.5525,0.81059375,-0.14403125,-0.19625,1.04621875,0.7603125000000001,-0.6048125,-0.8807812500000001,1.02178125,0.01872728150234837,0.027512449995918037,True
45999,203635,1,203560,3901.0,40783.0,44950.0,0.003538,0.000488,0.003111,0.385,-1.2775,-3.6225000000000005,0.81025,-0.144625,-0.20175,1.04084375,0.761375,-0.60290625,-0.8777812500000001,1.02215625,0.01862711849336905,0.027174097368510307,True
46000,203636,1,203561,3900.0,40783.0,44946.0,-0.000183,0.0011589999999999999,0.0013419999999999999,0.31500000000000006,-1.155,-3.7450000000000006,0.8105625,-0.142375,-0.2024375,1.04096875,0.75615625,-0.6094375,-0.88315625,1.017625,0.018978999418414175,0.02735660794638944,True
46001,203637,1,203562,3897.0,40782.0,44944.0,-0.001037,0.001464,0.001098,0.28,-1.1375000000000002,-3.7275000000000005,0.81603125,-0.1433125,-0.201625,1.046375,0.7560625,-0.61003125,-0.88096875,1.0221875,0.01896457364311555,0.02730374997959032,True
46002,203638,1,203563,3900.0,40782.0,44944.0,-0.000549,-0.001098,6.1e-05,0.28,-1.2775,-3.4475000000000002,0.8103750000000001,-0.14425,-0.203375,1.0409375,0.75871875,-0.60875,-0.8843125000000001,1.01765625,0.01887540001015899,0.02736412750000628,True
46003,203639,1,203564,3897.0,40782.0,44943.0,-0.00244,-0.003294,-0.0025009999999999998,0.17500000000000002,-1.2950000000000002,-3.4650000000000003,0.8151875000000001,-0.1470625,-0.2030625,1.0425,0.75525,-0.6096875,-0.88096875,1.01703125,0.01879849144772765,0.027245974897983017,True
46004,203640,1,203565,3895.0,40783.0,44942.0,-0.003721,0.0006709999999999999,-0.0034159999999999998,0.5075000000000001,-1.5225000000000002,-3.7100000000000004,0.81453125,-0.14359375,-0.2021875,1.04009375,0.76346875,-0.6085,-0.88215625,1.02421875,0.018892100290550017,0.027327565310984653,True
46005,203641,1,203566,3898.0,40784.0,44943.0,-0.001464,0.000976,-0.002806,0.6125,-1.7500000000000002,-3.6575,0.81103125,-0.14409375,-0.204875,1.0463125,0.75915625,-0.60859375,-0.87946875,1.0245,0.018875519857773262,0.027114475665803755,True
46006,203642,1,203567,3895.0,40782.0,44939.0,0.002074,0.000732,-0.0015249999999999999,0.6475000000000001,-2.1875,-3.6925000000000003,0.8112812500000001,-0.14459375,-0.20390625,1.04875,0.75815625,-0.60428125,-0.8829375,1.02334375,0.018683232211873697,0.02728903088712898,True
46007,203643,1,203568,3895.0,40782.0,44940.0,0.002379,-0.0011589999999999999,-0.001769,0.49000000000000005,-2.5900000000000003,-3.7450000000000006,0.8025625000000001,-0.14453125,-0.20778125,1.049125,0.75628125,-0.60875,-0.88209375,1.0233125,0.018863971148473612,0.02710031184574248,True
46008,203644,1,203569,3892.0,40779.0,44938.0,0.0037819999999999998,-0.002562,0.0013419999999999999,0.42000000000000004,-2.5025000000000004,-3.6750000000000003,0.80978125,-0.14421875,-0.204375,1.05021875,0.7633125000000001,-0.6090625000000001,-0.88115625,1.01903125,0.018889128750841283,0.027200554636603754,True
46009,203645,1,203570,3892.0,40779.0,44936.0,0.0051849999999999995,-0.000488,0.003538,0.49000000000000005,-2.24,-3.8675,0.8081875000000001,-0.14359375,-0.2045625,1.0485,0.7639375,-0.6073125,-0.88075,1.02515625,0.018844753973031394,0.027177134933633433,True
46010,203646,1,203571,3893.0,40777.0,44934.0,0.002196,-0.000244,-0.0060999999999999995,0.5775,-1.8200000000000003,-3.9200000000000004,0.8062812500000001,-0.1454375,-0.20721875,1.03875,0.762125,-0.60909375,-0.8817812500000001,1.0226875,0.018840850244637716,0.027110699721307134,True
46011,203647,1,203572,3892.0,40775.0,44934.0,-0.003172,0.004697,-0.003172,0.805,-1.4000000000000001,-3.99,0.8070625,-0.145375,-0.20734375,1.04534375,0.7635937500000001,-0.60790625,-0.88203125,1.025,0.018796042430468864,0.027115451034569377,True
46012,203648,1,203573,3889.0,40779.0,44935.0,-0.006954,0.0075639999999999995,0.003172,0.9975,-0.77,-3.7100000000000004,0.8063750000000001,-0.14646875,-0.20625000000000002,1.0365,0.7575000000000001,-0.60821875,-0.8820625,1.02303125,0.018764056215974594,0.02716063027331436,True
46013,203649,1,203574,3887.0,40779.0,44936.0,-0.0077469999999999995,0.0021349999999999997,0.003294,0.8400000000000001,-0.7175,-3.6225000000000005,0.8095625,-0.151375,-0.20021875,1.03921875,0.756125,-0.608875,-0.88221875,1.01746875,0.01859085390941276,0.02740913126969435,True
46014,203650,1,203575,3885.0,40778.0,44928.0,0.005063,-0.002379,0.002806,0.22750000000000004,-1.155,-3.6050000000000004,0.82446875,-0.14375000000000002,-0.20178125,1.0505,0.7565000000000001,-0.60978125,-0.88065625,1.0130625,0.01893683024915144,0.02728525297639607,True
46015,203651,1,203576,3885.0,40776.0,44930.0,0.0040869999999999995,-0.000183,0.000183,0.36750000000000005,-1.3825,-3.6050000000000004,0.806875,-0.14946875,-0.200375,1.03496875,0.76025,-0.608625,-0.88421875,1.01675,0.01865834641309703,0.02748102148073265,True
46016,203652,1,203577,3884.0,40775.0,44929.0,0.001586,-0.00122,-0.001037,0.29750000000000004,-1.33,-3.6400000000000006,0.81875,-0.143125,-0.20496875,1.03734375,0.75615625,-0.60978125,-0.8807812500000001,1.02153125,0.01896222665530601,0.027162028925438186,True
46017,203653,1,203578,3883.0,40775.0,44930.0,-0.001586,-0.0015249999999999999,-0.00122,0.08750000000000001,-1.3825,-3.6400000000000006,0.8135,-0.14265625,-0.19578125000000002,1.05159375,0.756125,-0.611,-0.88175,1.01728125,0.019029854536589327,0.027569152089382782,True
46018,203654,1,203579,3881.0,40774.0,44930.0,-0.00244,-0.0026839999999999998,-0.0008539999999999999,0.17500000000000002,-1.3125000000000002,-3.5875000000000004,0.81521875,-0.143375,-0.20634375,1.0385625,0.75990625,-0.6079375,-0.8807812500000001,1.02115625,0.018878563065271116,0.027106765387441365,True
46019,203655,1,203580,3881.0,40774.0,44931.0,-0.0011589999999999999,6.1e-05,0.002196,0.3325,-1.5750000000000002,-3.8150000000000004,0.8061875000000001,-0.14571875,-0.20015625,1.04040625,0.7556875000000001,-0.60821875,-0.88215625,1.017875,0.018794533838415266,0.02740920011705175,True
46020,203656,1,203581,3879.0,40773.0,44929.0,0.001952,0.001647,-6.1e-05,0.35000000000000003,-1.6450000000000002,-3.7100000000000004,0.81659375,-0.1438125,-0.20025,1.047375,0.756,-0.60946875,-0.88121875,1.01771875,0.01892183267873265,0.027368785944217464,True
46021,203657,1,203582,3879.0,40774.0,44928.0,0.003111,0.0011589999999999999,0.0,0.4025,-1.6975000000000002,-3.7450000000000006,0.79884375,-0.14453125,-0.20459375,1.04146875,0.7614062500000001,-0.6085,-0.882625,1.02278125,0.018854003697909263,0.02724918492321449,True
46022,203658,1,203583,3877.0,40775.0,44930.0,0.002806,0.000488,0.000549,0.385,-1.7675,-3.8500000000000005,0.81121875,-0.1475625,-0.20165625,1.04115625,0.756,-0.6105,-0.8837812500000001,1.0181875,0.01881056865971841,0.02741243355046774,True
46023,203659,1,203584,3876.0,40772.0,44929.0,0.000976,0.00122,0.000793,0.5075000000000001,-1.54,-3.8675,0.8160625,-0.1449375,-0.19934375000000001,1.04590625,0.75834375,-0.6096875,-0.88171875,1.02859375,0.01888483955759292,0.0274247533643551,True
46024,203660,1,203585,3877.0,40773.0,44929.0,-0.002806,-0.000488,-0.000366,0.525,-1.4875,-3.9025000000000003,0.8105625,-0.14553125,-0.2036875,1.0415625,0.7503125,-0.6075,-0.885625,1.0109062500000001,0.01877349385349995,0.027402868121656578,True
46025,203661,1,203586,3875.0,40773.0,44928.0,-0.0018909999999999999,-0.00042699999999999997,-0.002013,0.4025,-1.715,-3.7800000000000002,0.8170000000000001,-0.14453125,-0.20225,1.04259375,0.7696875,-0.6125,-0.87925,1.03115625,0.019013458608430678,0.02721143121275762,True
46026,203662,1,203587,3875.0,40773.0,44929.0,-0.001098,-0.000549,-0.002257,0.385,-1.8550000000000002,-3.7800000000000002,0.81190625,-0.1460625,-0.19634375,1.04709375,0.7431875,-0.6194375,-0.87453125,1.01975,0.019227693565297743,0.027264332870594293,True
46027,203663,1,203588,3874.0,40773.0,44929.0,0.002806,-0.000915,0.000244,0.28,-1.8025000000000002,-3.8675,0.8150625,-0.1449375,-0.2040625,1.04559375,0.7661875,-0.60578125,-0.88675,1.025625,0.018729084247223405,0.027431765899524847,True
46028,203664,1,203589,3872.0,40775.0,44926.0,0.0006709999999999999,0.00042699999999999997,-0.001586,0.28,-1.6975000000000002,-3.8675,0.8102812500000001,-0.14796875,-0.201125,1.03265625,0.73875,-0.6165,-0.87946875,1.0091875000000001,0.0190332195884874,0.027265202356863028,True
46029,203665,1,203590,3875.0,40774.0,44928.0,-0.00042699999999999997,-0.001281,-0.003355,0.4025,-1.6975000000000002,-3.6225000000000005,0.8143125,-0.1443125,-0.2021875,1.04821875,0.779625,-0.60740625,-0.878375,1.040875,0.018819283320443414,0.02717972938345049,True
46030,203666,1,203591,3872.0,40772.0,44927.0,-0.000488,0.0011589999999999999,-0.001586,0.525,-1.54,-3.7450000000000006,0.81034375,-0.144625,-0.20140625,1.04384375,0.7622187500000001,-0.60553125,-0.885375,1.025875,0.018731814619934287,0.027484767659719817,True
46031,203667,1,203592,3873.0,40773.0,44927.0,-0.000305,0.001647,0.00061,0.6825000000000001,-1.4000000000000001,-3.7450000000000006,0.8105625,-0.1478125,-0.2013125,1.04159375,0.742625,-0.61425,-0.8794375,1.00421875,0.018949896909310662,0.02725644420216494,True
46032,203668,1,203593,3871.0,40773.0,44929.0,0.000244,0.001586,0.002806,0.7350000000000001,-1.3650000000000002,-3.7625,0.8180937500000001,-0.1445,-0.20146875,1.04696875,0.765,-0.61215625,-0.87703125,1.033,0.019001027185499036,0.027156073938685913,True
46033,203669,1,203594,3871.0,40773.0,44930.0,0.002013,0.002196,0.003477,0.6825000000000001,-1.2075,-3.7975000000000003,0.8113125,-0.14465625000000001,-0.20478125,1.0470625,0.76603125,-0.60621875,-0.88503125,1.03575,0.018757961338533576,0.027335710096807693,True
46034,203670,1,203595,3871.0,40773.0,44928.0,0.0,0.000244,0.00061,0.31500000000000006,-1.2775,-3.3950000000000005,0.808625,-0.14525,-0.2038125,1.0385,0.7465625,-0.608125,-0.88971875,1.012,0.01880984430955223,0.027557814408810864,True
46035,203671,1,203596,3871.0,40773.0,44930.0,-0.000732,-0.00183,-0.001098,0.1925,-1.2775,-3.2375000000000003,0.81753125,-0.144875,-0.20215625,1.0478750000000001,0.759125,-0.6130625000000001,-0.87509375,1.025625,0.019021911637367356,0.02705266186182715,True
46036,203672,1,203597,3871.0,40775.0,44932.0,-0.00122,-0.002196,-0.00061,0.0,-0.9975,-3.3950000000000005,0.81078125,-0.14215625,-0.20484375,1.04534375,0.75721875,-0.606625,-0.8793125,1.0241875,0.018875760084936473,0.02710962169875072,True
46037,203673,1,203598,3868.0,40777.0,44935.0,-0.0018909999999999999,-0.0021349999999999997,0.000122,-0.08750000000000001,-0.8925000000000001,-3.4125000000000005,0.81103125,-0.1450625,-0.20171875,1.04084375,0.76090625,-0.60940625,-0.88028125,1.02340625,0.018868547468511153,0.02727310407714945,True
46038,203674,1,203599,3871.0,40780.0,44935.0,-0.0023179999999999997,-0.00244,0.000732,-0.0175,-0.9100000000000001,-3.3775000000000004,0.8165,-0.14534375,-0.20190625,1.04553125,0.75603125,-0.612,-0.88271875,1.01815625,0.018960517227368766,0.027360856618612067,True
46039,203675,1,203600,3870.0,40779.0,44937.0,-0.000305,-0.0018909999999999999,-0.000976,0.17500000000000002,-1.3650000000000002,-3.535,0.813625,-0.14446875,-0.2028125,1.04459375,0.7605937500000001,-0.61275,-0.88046875,1.01703125,0.01902596215376177,0.027236474393192454,True
46040,203676,1,203601,3871.0,40781.0,44939.0,0.001586,-0.000122,-0.0008539999999999999,0.28,-1.4525000000000001,-3.5700000000000003,0.8109375,-0.14528125,-0.2038125,1.04171875,0.764,-0.60496875,-0.8814062500000001,1.024875,0.018682710174139115,0.02723293624129464,True
46041,203677,1,203602,3870.0,40779.0,44935.0,0.002623,0.00061,0.0025009999999999998,0.45500000000000007,-1.3825,-3.7450000000000006,0.81596875,-0.14546875,-0.20221875,1.0446875,0.75565625,-0.6113125,-0.8758125,1.0207187500000001,0.01892803360243384,0.027078261262823075,True
46042,203678,1,203603,3872.0,40781.0,44939.0,-0.000549,0.00244,0.0030499999999999998,0.7000000000000001,-1.3825,-3.8150000000000004,0.8103750000000001,-0.14678125,-0.2024375,1.04459375,0.7521875,-0.6091875,-0.88234375,1.01684375,0.018789984431627417,0.027324847563847354,True
46043,203679,1,203604,3871.0,40780.0,44940.0,-0.000732,0.0026839999999999998,0.0008539999999999999,0.77,-1.61,-3.8675,0.81084375,-0.14528125,-0.20153125,1.042625,0.7595937500000001,-0.609,-0.8821875,1.018,0.018843461741639235,0.027355161197141528,True
46044,203680,1,203605,3871.0,40779.0,44939.0,0.000122,0.000488,-0.0006709999999999999,0.665,-1.8725000000000003,-3.8150000000000004,0.8063750000000001,-0.144875,-0.19765625,1.0414375,0.7629375,-0.6042500000000001,-0.8809375,1.0207187500000001,0.01867055488381073,0.027462037955764327,True
46045,203681,1,203606,3872.0,40780.0,44940.0,-0.00042699999999999997,0.000549,-0.000793,0.665,-1.9600000000000002,-3.9725000000000006,0.81171875,-0.14721875,-0.19718750000000002,1.0435,0.76109375,-0.6086875,-0.88453125,1.01803125,0.018752269904683053,0.027621325999460003,True
46046,203682,1,203607,3872.0,40783.0,44944.0,0.000183,0.000183,-0.000976,0.5950000000000001,-2.0475000000000003,-3.9200000000000004,0.811125,-0.1438125,-0.2025,1.0578750000000001,0.761875,-0.60865625,-0.88371875,1.01753125,0.018889440580486794,0.02737608300608204,True
46047,203683,1,203608,3871.0,40781.0,44942.0,0.000793,-0.0006709999999999999,-0.001037,0.5950000000000001,-2.0300000000000002,-3.7100000000000004,0.809,-0.15259375,-0.20053125,1.037625,0.759875,-0.60934375,-0.88296875,1.02340625,0.018560023568283894,0.027425887435557707,True
46048,203684,1,203609,3871.0,40784.0,44945.0,0.000793,-0.00042699999999999997,-0.0017079999999999999,0.45500000000000007,-1.8725000000000003,-3.8500000000000005,0.8264375,-0.14225000000000002,-0.2005,1.04325,0.75603125,-0.6121875,-0.8775625,1.0179375,0.01909369087977247,0.02721578932823503,True
46049,203685,1,203610,3872.0,40784.0,44944.0,-0.000122,0.000915,-0.000915,0.43750000000000006,-1.7325000000000002,-3.8500000000000005,0.819625,-0.14240625,-0.203625,1.0539375,0.75703125,-0.6108125,-0.88165625,1.017125,0.01903253905168714,0.02725024585129859,True
46050,203686,1,203611,3873.0,40784.0,44944.0,-0.001037,0.000183,-0.002074,0.5425000000000001,-1.7325000000000002,-3.7275000000000005,0.81171875,-0.14384375,-0.20884375,1.04553125,0.7605937500000001,-0.61128125,-0.881,1.02171875,0.018992814524843155,0.02701484064145332,True
46051,203687,1,203612,3873.0,40784.0,44946.0,0.000122,0.00061,-0.001281,0.5775,-1.54,-3.7100000000000004,0.80425,-0.1455,-0.20596875,1.0436875,0.76309375,-0.6084375,-0.8763125,1.01734375,0.018812145224579982,0.02694707063195158,True
46052,203688,1,203613,3874.0,40786.0,44945.0,-0.000244,-0.00122,-0.000305,0.5075000000000001,-1.54,-3.6400000000000006,0.79415625,-0.15028125,-0.20346875,1.035375,0.76409375,-0.60628125,-0.88128125,1.02496875,0.018531853528253074,0.027241864805495095,True
46053,203689,1,203614,3873.0,40787.0,44948.0,-0.000366,0.000915,0.0035989999999999998,0.36750000000000005,-1.6450000000000002,-3.5700000000000003,0.804125,-0.13884375000000002,-0.2071875,1.0482500000000001,0.7527812500000001,-0.6076875,-0.87721875,1.015625,0.019052735044688778,0.026933527285882795,True
46054,203690,1,203615,3874.0,40787.0,44950.0,0.0034159999999999998,-0.000732,0.004941,0.56,-1.5750000000000002,-3.1675000000000004,0.80434375,-0.147625,-0.20440625,1.035375,0.76128125,-0.603875,-0.88171875,1.022,0.018543826937829917,0.02722129073177471,True
46055,203691,1,203616,3874.0,40788.0,44950.0,0.003355,0.002013,0.001403,0.31500000000000006,-1.4000000000000001,-3.6400000000000006,0.82621875,-0.147,-0.19946875,1.0536875,0.75571875,-0.6089687500000001,-0.8824062500000001,1.0184375,0.01877237338521144,0.027446601953940854,True
46056,203692,1,203617,3874.0,40785.0,44948.0,0.001098,-6.1e-05,0.0032329999999999998,0.385,-1.05,-3.6925000000000003,0.818875,-0.1433125,-0.20525000000000002,1.05003125,0.74921875,-0.61003125,-0.88028125,1.018,0.01896457364311555,0.027131174411462892,True
46057,203693,1,203618,3874.0,40786.0,44947.0,-0.0025009999999999998,-0.0026839999999999998,-0.00122,0.385,-0.9100000000000001,-3.6400000000000006,0.80459375,-0.14378125,-0.202625,1.03603125,0.76209375,-0.6083125,-0.8805937500000001,1.0246250000000001,0.018877005483411348,0.027248897546908422,True
46058,203694,1,203619,3874.0,40787.0,44951.0,-0.003721,-0.002989,-0.0015249999999999999,0.24500000000000002,-0.9975,-3.5700000000000003,0.8094687500000001,-0.14646875,-0.2000625,1.04640625,0.7555937500000001,-0.6084375,-0.88246875,1.017625,0.018772778645535698,0.027425182639885762,True
46059,203695,1,203620,3876.0,40790.0,44952.0,-0.002074,-0.000366,0.00244,0.45500000000000007,-1.2075,-3.7275000000000005,0.81565625,-0.14346875,-0.20121875,1.046,0.7606875,-0.611125,-0.8809375,1.01753125,0.019001823362402165,0.0273188560519474,True
46060,203696,1,203621,3876.0,40791.0,44954.0,-6.1e-05,0.002623,0.00061,0.47250000000000003,-1.7500000000000002,-3.7275000000000005,0.81140625,-0.1449375,-0.202625,1.04134375,0.7634062500000001,-0.60765625,-0.88196875,1.0235,0.01880385296750884,0.027302652648818232,True
46061,203697,1,203622,3877.0,40791.0,44958.0,0.0023179999999999997,6.1e-05,0.000244,0.35000000000000003,-2.3975000000000004,-3.5175000000000005,0.813625,-0.14603125,-0.20121875,1.0481562500000001,0.756,-0.61084375,-0.87909375,1.0185625,0.018886491853819517,0.027246772202062224,True
46062,203698,1,203623,3877.0,40791.0,44958.0,0.0034159999999999998,-0.000976,0.001464,0.5425000000000001,-2.31,-3.6750000000000003,0.8160937500000001,-0.14503125,-0.20246875,1.04659375,0.76309375,-0.6105,-0.88084375,1.015375,0.01891342110074968,0.027264951575446474,True
46063,203699,1,203624,3879.0,40790.0,44956.0,-0.001403,0.002196,-0.000305,0.7875000000000001,-2.2750000000000004,-3.99,0.8186875,-0.14421875,-0.2019375,1.0413125,0.76390625,-0.6095625,-0.8804375,1.0133125,0.018909062280160406,0.027270420787415817,True
46064,203700,1,203625,3878.0,40795.0,44961.0,-0.000305,0.0006709999999999999,-0.003172,0.6125,-2.3800000000000003,-3.5875000000000004,0.8184375,-0.13996875,-0.200875,1.040875,0.75615625,-0.612375,-0.8824062500000001,1.0178125,0.019193850654396417,0.027390086117575548,True
46065,203701,1,203626,3880.0,40793.0,44962.0,0.001586,-0.000488,-0.0015249999999999999,0.5425000000000001,-2.2925000000000004,-3.3950000000000005,0.8170000000000001,-0.14721875,-0.20265625,1.04203125,0.75590625,-0.6084375,-0.88221875,1.02403125,0.018742301294017546,0.02731116974847752,True
46066,203702,1,203627,3880.0,40792.0,44962.0,0.000793,0.0017079999999999999,-0.002074,0.45500000000000007,-2.1875,-3.6050000000000004,0.80996875,-0.1458125,-0.202,1.040875,0.7561875,-0.6075625,-0.87971875,1.0255625,0.018764556627662736,0.0272398075239496,True
46067,203703,1,203628,3881.0,40795.0,44966.0,0.001281,0.001647,-0.0017079999999999999,0.47250000000000003,-2.0300000000000002,-3.7100000000000004,0.8116875,-0.14871875,-0.20465625,1.03390625,0.75553125,-0.60825,-0.882125,1.02540625,0.018673869535623215,0.02722712589861196,True
46068,203704,1,203629,3881.0,40794.0,44965.0,0.00122,-0.001281,0.000915,0.3325,-1.6625,-3.4475000000000002,0.8104687500000001,-0.14653125,-0.20421875,1.04240625,0.7574375,-0.60703125,-0.8835625,1.0249062500000001,0.018714163253643206,0.027300903960194606,True
46069,203705,1,203630,3881.0,40794.0,44964.0,-0.000122,-0.000549,0.000122,0.31500000000000006,-1.3475000000000001,-3.5175000000000005,0.81140625,-0.1479375,-0.20525000000000002,1.0408125,0.7556875000000001,-0.6085625,-0.882375,1.0239375,0.01871807831115694,0.027213037340687935,True
46070,203706,1,203631,3883.0,40796.0,44965.0,-0.001952,6.1e-05,6.1e-05,0.4025,-1.0850000000000002,-3.6575,0.8114687500000001,-0.1479375,-0.19890625,1.03534375,0.75603125,-0.6081875,-0.88275,1.0229062500000001,0.01870312472220882,0.02748264359847686,True
46071,203707,1,203632,3882.0,40795.0,44967.0,-0.002013,-0.000183,-0.001769,0.45500000000000007,-1.0850000000000002,-3.7975000000000003,0.81,-0.146875,-0.20240625,1.0400625000000001,0.7555625,-0.6084375,-0.8823125,1.02303125,0.018756270080130037,0.02732488188145696,True
46072,203708,1,203633,3881.0,40795.0,44966.0,-0.001403,-0.0013419999999999999,0.000549,0.4025,-0.8925000000000001,-3.6925000000000003,0.8104687500000001,-0.14715625000000002,-0.20234375000000002,1.0465,0.75571875,-0.6081875,-0.88184375,1.023625,0.018734872285900782,0.027309069489675576,True
46073,203709,1,203634,3883.0,40798.0,44966.0,-0.001403,-0.002013,0.0006709999999999999,0.5950000000000001,-0.9275000000000001,-3.9025000000000003,0.8101875000000001,-0.14375000000000002,-0.202125,1.04453125,0.762375,-0.60840625,-0.875625,1.0179375,0.0188820131332154,0.027074696615662922,True
46074,203710,1,203635,3883.0,40798.0,44969.0,0.000122,-0.0006709999999999999,0.0018909999999999999,0.5775,-0.9625000000000001,-3.8850000000000002,0.81675,-0.13740625,-0.199125,1.0366250000000001,0.76146875,-0.60978125,-0.880875,1.01875,0.01919460377162028,0.027400563685963615,True
46075,203711,1,203636,3883.0,40798.0,44969.0,-0.00061,0.002928,0.0021349999999999997,0.525,-1.12,-3.7625,0.81153125,-0.146125,-0.20378125,1.042125,0.7608125,-0.60759375,-0.88365625,1.02265625,0.01875310339923017,0.027322150457692485,True
46076,203712,1,203637,3884.0,40802.0,44972.0,-0.0026839999999999998,-0.0015249999999999999,0.000183,0.525,-1.54,-3.2375000000000003,0.8159375,-0.14384375,-0.2023125,1.045125,0.7565625,-0.61125,-0.88109375,1.0175,0.018991568896338056,0.02728100528136951,True
46077,203713,1,203638,3887.0,40798.0,44973.0,0.001098,0.000793,0.000305,0.805,-1.6975000000000002,-3.5700000000000003,0.8109375,-0.1446875,-0.19884375,1.04378125,0.7604062500000001,-0.6073125,-0.8815625,1.0235625,0.018800305803407018,0.02743874103565642,True
46078,203714,1,203639,3887.0,40801.0,44975.0,0.002196,6.1e-05,0.000244,0.6300000000000001,-1.7675,-3.5175000000000005,0.8108125,-0.1456875,-0.20090625,1.041375,0.74965625,-0.60871875,-0.8827812500000001,1.011125,0.018815739848300716,0.027403488104851624,True
46079,203715,1,203640,3887.0,40802.0,44973.0,-0.000122,-0.001464,-6.1e-05,0.5775,-1.8550000000000002,-3.4125000000000005,0.8062812500000001,-0.14475,-0.2009375,1.0451875,0.756125,-0.6110625000000001,-0.88015625,1.01825,0.018947272187050033,0.027299617541589997,True
46080,203716,1,203641,3889.0,40801.0,44976.0,0.001647,0.002989,-0.001098,0.7525000000000001,-1.8550000000000002,-3.6925000000000003,0.81275,-0.14428125,-0.20190625,1.03590625,0.75803125,-0.60803125,-0.8796875000000001,1.0314375,0.018845473467122648,0.02724235382779627,True
46081,203717,1,203642,3887.0,40801.0,44978.0,0.000122,0.002379,-0.000488,0.47250000000000003,-1.7850000000000001,-3.5875000000000004,0.810875,-0.142375,-0.20103125,1.04175,0.7545937500000001,-0.60990625,-0.8825000000000001,1.01259375,0.01899768512933689,0.027387471114236915,True
46082,203718,1,203643,3889.0,40800.0,44978.0,0.0008539999999999999,-0.0018909999999999999,-0.000305,0.665,-1.715,-3.3075,0.8162812500000001,-0.14390625,-0.2011875,1.046875,0.753125,-0.60759375,-0.8777812500000001,1.0158125,0.018843268655636028,0.027196707905774355,True
46083,203719,1,203644,3890.0,40800.0,44977.0,-0.000549,-0.001586,-0.000488,0.5075000000000001,-1.7325000000000002,-3.7800000000000002,0.8195625,-0.1440625,-0.19918750000000002,1.0529375,0.76696875,-0.6094375,-0.8788750000000001,1.0289375,0.018910428163991966,0.027319864744688012,True
46084,203720,1,203645,3888.0,40802.0,44980.0,0.0013419999999999999,-0.0030499999999999998,0.0008539999999999999,0.5425000000000001,-1.54,-3.3600000000000003,0.81125,-0.13959375000000002,-0.21146875,1.0379375,0.7643125000000001,-0.6068125,-0.88021875,1.02309375,0.018987373923379958,0.026878782968899742,True
46085,203721,1,203646,3891.0,40803.0,44981.0,0.000366,0.0015249999999999999,-0.001281,0.8575,-1.4525000000000001,-3.4825000000000004,0.80875,-0.15340625,-0.19834375,1.0329375,0.75121875,-0.6071875,-0.8826875000000001,1.0188125000000001,0.018441004279745505,0.027502806921479044,True
46086,203722,1,203647,3891.0,40804.0,44981.0,-0.00122,0.005795,0.0006709999999999999,0.6825000000000001,-1.4525000000000001,-3.8675,0.833375,-0.14484375,-0.19740625,1.0421875,0.75140625,-0.61440625,-0.8816875000000001,1.01425,0.019076734788189335,0.027501400377285504,True
46087,203723,1,203648,3892.0,40803.0,44982.0,-0.0011589999999999999,0.000122,0.002074,0.525,-1.4700000000000002,-3.7275000000000005,0.83009375,-0.1400625,-0.19968750000000002,1.054125,0.753125,-0.61234375,-0.8813125,1.013875,0.019188796272195732,0.027395058038035575,True
46088,203724,1,203649,3891.0,40806.0,44985.0,-0.000122,-0.004392,-0.0023179999999999997,0.24500000000000002,-1.5750000000000002,-3.7975000000000003,0.8160625,-0.14140625,-0.20703125,1.0351875,0.7565000000000001,-0.613,-0.87921875,1.03009375,0.019160352252874498,0.02701803086160011,True
46089,203725,1,203650,3893.0,40806.0,44986.0,0.002379,-0.00244,-0.002379,0.43750000000000006,-1.4700000000000002,-3.9375000000000004,0.8038125,-0.15065625,-0.19628125,1.034125,0.75571875,-0.607125,-0.88421875,1.01478125,0.018550267453024277,0.027645533376449687,True
46090,203726,1,203651,3894.0,40804.0,44988.0,0.001281,0.0021349999999999997,0.0,0.6475000000000001,-1.4525000000000001,-3.8150000000000004,0.8219062500000001,-0.14578125,-0.19753125,1.0419375,0.75071875,-0.61575,-0.88203125,1.0149062500000001,0.01909219706894976,0.027509811925021197,True
46091,203727,1,203652,3895.0,40807.0,44990.0,0.000366,0.002928,0.00122,0.6825000000000001,-1.54,-3.4475000000000002,0.81953125,-0.14065625,-0.195,1.06128125,0.7488750000000001,-0.61259375,-0.8785000000000001,1.01396875,0.01917463493663686,0.02747352131358402,True
46092,203728,1,203653,3897.0,40807.0,44990.0,0.000732,0.003111,0.004941,0.7875000000000001,-1.33,-3.4475000000000002,0.81478125,-0.1426875,-0.20253125,1.0535,0.76228125,-0.60953125,-0.879,1.0129375,0.018970038285471204,0.027190351300293417,True
46093,203729,1,203654,3895.0,40810.0,44994.0,-0.000305,0.000244,-0.000244,0.5425000000000001,-1.2775,-3.5875000000000004,0.79740625,-0.1425625,-0.21231250000000002,1.04528125,0.763125,-0.60928125,-0.87921875,1.02475,0.018965151613275985,0.026805755305318823,True
46094,203730,1,203655,3898.0,40808.0,44993.0,-0.0032329999999999998,0.001037,-0.003843,0.5425000000000001,-1.1725,-3.7975000000000003,0.7983125,-0.14721875,-0.2071875,1.0466875,0.75796875,-0.60659375,-0.880625,1.0251875,0.01866877653474488,0.027066743701173103,True
46095,203731,1,203656,3898.0,40808.0,44993.0,-0.005063,0.00042699999999999997,-0.0048189999999999995,0.49000000000000005,-1.2600000000000002,-3.7800000000000002,0.7978125,-0.1428125,-0.20646875,1.0463437500000001,0.76225,-0.60090625,-0.8804375,1.02115625,0.018621011167017473,0.027088299793763676,True
46096,203732,1,203657,3897.0,40809.0,44995.0,-0.005795,-0.001037,-0.00183,0.385,-1.4000000000000001,-3.5525,0.8075625000000001,-0.1440625,-0.2001875,1.03828125,0.7633125000000001,-0.607875,-0.8806875000000001,1.02540625,0.01884813296556489,0.027350530406364378,True
46097,203733,1,203658,3899.0,40812.0,44994.0,0.0015249999999999999,-0.0015249999999999999,0.000305,0.35000000000000003,-1.4875,-3.4475000000000002,0.8090937500000001,-0.14640625000000002,-0.20109375000000002,1.03940625,0.7558125,-0.61140625,-0.87965625,1.017375,0.01889367861700304,0.027273789202774856,True
46098,203734,1,203659,3899.0,40809.0,44994.0,0.008113,0.000305,0.0060999999999999995,0.17500000000000002,-1.6275000000000002,-3.3950000000000005,0.816375,-0.14046875,-0.20509375,1.04125,0.763625,-0.608375,-0.88071875,1.01896875,0.01901410597002037,0.027154561200126104,True
46099,203735,1,203660,3899.0,40809.0,44992.0,0.002989,-0.0006709999999999999,-0.000976,0.035,-1.9425000000000001,-3.2725000000000004,0.8160000000000001,-0.14721875,-0.2004375,1.0466875,0.7568125,-0.60921875,-0.8806875000000001,1.0060625,0.018773452529857335,0.027340482452504578,True
46100,203736,1,203661,3900.0,40808.0,44989.0,0.0018909999999999999,-0.00061,6.1e-05,0.14,-1.3125000000000002,-3.2550000000000003,0.81090625,-0.14475,-0.195875,1.0320625,0.75515625,-0.60740625,-0.8829375,1.02171875,0.01880150412032963,0.027611792217056366,True
46101,203737,1,203662,3901.0,40808.0,44989.0,-0.003172,-0.000549,-0.0008539999999999999,0.17500000000000002,-0.9975,-3.4125000000000005,0.8149375,-0.14725,-0.19818750000000002,1.0423437500000001,0.7555625,-0.61171875,-0.8805937500000001,1.0187187500000001,0.01887185347427229,0.0274272493999465,True
46102,203738,1,203663,3899.0,40812.0,44990.0,-0.0062829999999999995,-0.0015249999999999999,-0.000366,0.2625,-0.9625000000000001,-3.4475000000000002,0.811125,-0.1441875,-0.20234375000000002,1.02940625,0.761875,-0.6072500000000001,-0.881,1.02575,0.01881813286734601,0.027276084160604477,True
46103,203739,1,203664,3898.0,40811.0,44986.0,-0.0018909999999999999,0.000793,-0.000122,0.1925,-1.61,-3.6575,0.8116875,-0.14784375,-0.201,1.0330625,0.75484375,-0.60771875,-0.88221875,1.02171875,0.018688241875326212,0.027377733346227413,True
46104,203740,1,203665,3898.0,40811.0,44983.0,0.002745,-0.000976,0.0018909999999999999,-0.052500000000000005,-1.54,-3.7100000000000004,0.8114375,-0.14578125,-0.20209375000000002,1.041125,0.748,-0.6093125,-0.881,1.0176875,0.018835603392008616,0.02728613198826414,True
46105,203741,1,203666,3897.0,40811.0,44983.0,0.001281,-0.002257,0.001952,-0.0175,-1.5050000000000001,-3.535,0.8182812500000001,-0.1391875,-0.20384375000000002,1.04603125,0.7639375,-0.60925,-0.8800625,1.02440625,0.019101049402155693,0.027179141933425608,True
46106,203742,1,203667,3896.0,40809.0,44981.0,0.000549,0.000305,0.0013419999999999999,0.08750000000000001,-1.61,-3.5700000000000003,0.81075,-0.1469375,-0.2011875,1.04296875,0.74825,-0.61259375,-0.87284375,1.02475,0.018919430220555283,0.027003597045472536,True
46107,203743,1,203668,3895.0,40807.0,44978.0,0.000549,0.00183,0.002623,0.15750000000000003,-1.8200000000000003,-3.5875000000000004,0.81053125,-0.147875,-0.2021875,1.04128125,0.75875,-0.60821875,-0.88425,1.0188125000000001,0.018706910673898333,0.027409405547685783,True
46108,203744,1,203669,3892.0,40810.0,44977.0,0.001403,0.001769,0.0006709999999999999,-0.15750000000000003,-2.3625000000000003,-3.535,0.81771875,-0.14453125,-0.20221875,1.0465,0.75590625,-0.60875,-0.88,1.01409375,0.018863971148473612,0.027242011655948556,True
46109,203745,1,203670,3891.0,40806.0,44976.0,-0.000549,0.0013419999999999999,-0.002013,-0.29750000000000004,-2.6425,-3.6750000000000003,0.8125,-0.14446875,-0.20450000000000002,1.04575,0.7616875,-0.60853125,-0.88065625,1.02334375,0.018857789409922623,0.027175981340926247,True
46110,203746,1,203671,3890.0,40810.0,44974.0,0.000305,-0.00042699999999999997,-0.006893,-0.22750000000000004,-2.8000000000000003,-3.535,0.81021875,-0.1450625,-0.20253125,1.04503125,0.75515625,-0.6085,-0.88171875,1.02246875,0.018832415628746168,0.027296647262360044,True
46111,203747,1,203672,3889.0,40808.0,44972.0,0.002379,-0.0026839999999999998,-0.005978,-0.12250000000000001,-2.45,-3.5000000000000004,0.81075,-0.14521875,-0.20559375,1.04103125,0.7558125,-0.60840625,-0.8836875000000001,1.02278125,0.018822328244032464,0.02725053310527228,True
46112,203748,1,203673,3889.0,40804.0,44971.0,0.00183,0.000366,-0.0015249999999999999,0.035,-1.9425000000000001,-3.9200000000000004,0.81096875,-0.14465625000000001,-0.20184375000000002,1.04290625,0.75675,-0.610375,-0.8828125,1.01675,0.018923675482393095,0.027367032967032967,True
46113,203749,1,203674,3889.0,40805.0,44970.0,-0.0026839999999999998,-0.00183,-6.1e-05,0.17500000000000002,-1.4525000000000001,-3.5525,0.81671875,-0.14375000000000002,-0.20503125,1.0404375000000001,0.75925,-0.6075625,-0.8815937500000001,1.023625,0.018848372324564856,0.027191284722265834,True
46114,203750,1,203675,3885.0,40803.0,44967.0,-0.000244,-0.000366,-0.000122,0.21000000000000002,-1.4875,-3.5875000000000004,0.8113750000000001,-0.14659375,-0.20446875,1.04071875,0.75590625,-0.607,-0.88225,1.0183125,0.018710377128459382,0.02723954827236283,True
46115,203751,1,203676,3884.0,40806.0,44965.0,0.001647,0.000915,0.000244,0.21000000000000002,-1.61,-3.7100000000000004,0.8190000000000001,-0.1475,-0.202,1.03971875,0.75565625,-0.60971875,-0.8801875,1.01675,0.018781959871036723,0.02725813461011899,True
46116,203752,1,203677,3883.0,40802.0,44962.0,0.0011589999999999999,-0.000183,0.0006709999999999999,0.15750000000000003,-1.5225000000000002,-3.535,0.8104375,-0.1459375,-0.20125,1.043,0.759625,-0.60778125,-0.88325,1.01821875,0.018768199591338616,0.02740799533822953,True
46117,203753,1,203678,3881.0,40800.0,44963.0,-0.002196,-0.0015249999999999999,-0.000122,0.15750000000000003,-1.3650000000000002,-3.4650000000000003,0.812875,-0.14446875,-0.2034375,1.04103125,0.7643125000000001,-0.607875,-0.88246875,1.0186875,0.01883162402279758,0.02728954497330575,True
46118,203754,1,203679,3878.0,40801.0,44960.0,-0.0008539999999999999,0.000244,0.001037,0.28,-1.3125000000000002,-3.8500000000000005,0.8059375,-0.14478125,-0.20140625,1.04346875,0.7564375,-0.60653125,-0.88134375,1.018125,0.018765343042815106,0.027327201731216787,True
46119,203755,1,203680,3878.0,40800.0,44959.0,0.000305,0.002379,0.002379,0.24500000000000002,-1.6800000000000002,-3.9375000000000004,0.81584375,-0.14246875,-0.19971875,1.0415625,0.77228125,-0.607375,-0.8829375,1.01396875,0.018892963999613935,0.027457318895729253,True
46120,203756,1,203681,3877.0,40799.0,44958.0,0.00366,0.003172,0.0026839999999999998,0.28,-1.9600000000000002,-3.6050000000000004,0.8108125,-0.1473125,-0.20121875,1.03209375,0.7516875000000001,-0.6128125,-0.88184375,1.012875,0.018912913751729914,0.027354283180883652,True
46121,203757,1,203682,3876.0,40798.0,44954.0,0.003965,0.003111,0.002074,0.07,-1.8550000000000002,-3.6575,0.8123125,-0.14371875,-0.201625,1.0485625,0.7725625,-0.6049375,-0.87875,1.02815625,0.018744967346492957,0.02721700246194041,True
46122,203758,1,203683,3875.0,40799.0,44955.0,0.0015249999999999999,0.000183,0.00122,0.035,-1.5225000000000002,-3.7625,0.8113750000000001,-0.14453125,-0.19975,1.0414375,0.7651875,-0.6069375,-0.88671875,1.01528125,0.01879170254323603,0.027603829854026055,True
46123,203759,1,203684,3873.0,40798.0,44953.0,-0.006039,-0.002379,-0.002562,0.31500000000000006,-1.12,-3.6925000000000003,0.8108125,-0.1475625,-0.2006875,1.0404375000000001,0.7508125,-0.60840625,-0.8835000000000001,1.00559375,0.018727086399591603,0.027440372134145116,True
46124,203760,1,203685,3872.0,40797.0,44954.0,-0.004026,0.0,-0.002989,0.385,-1.3125000000000002,-3.6925000000000003,0.81896875,-0.14340625,-0.20240625,1.04653125,0.7655000000000001,-0.61190625,-0.878125,1.03209375,0.01903550238007265,0.02716116065820877,True
46125,203761,1,203686,3872.0,40797.0,44953.0,0.0021349999999999997,-0.0008539999999999999,-0.0025009999999999998,0.36750000000000005,-1.6975000000000002,-3.4825000000000004,0.8129375,-0.14440625,-0.2026875,1.032,0.76375,-0.6069375,-0.887375,1.02084375,0.018796782411464246,0.02751143903284296,True
46126,203762,1,203687,3871.0,40799.0,44953.0,0.0053679999999999995,-0.0018909999999999999,0.00042699999999999997,0.2625,-1.715,-3.43,0.805875,-0.14659375,-0.20153125,1.04721875,0.7530625,-0.6147812500000001,-0.8775625,1.031875,0.019020583414691126,0.027174336312088456,True
46127,203763,1,203688,3869.0,40798.0,44953.0,0.000793,0.002074,0.003355,0.385,-1.4875,-3.6050000000000004,0.81175,-0.14678125,-0.20540625,1.041375,0.75028125,-0.60965625,-0.88209375,1.01303125,0.018808673932615375,0.027195762012591888,True
46128,203764,1,203689,3869.0,40798.0,44952.0,-0.0011589999999999999,0.003355,0.0021349999999999997,0.385,-1.12,-3.5875000000000004,0.8130000000000001,-0.14709375,-0.20109375000000002,1.04175,0.75684375,-0.6165,-0.88146875,1.01221875,0.019068764852842607,0.02734464781143597,True
46129,203765,1,203690,3869.0,40798.0,44952.0,-0.002928,0.001281,0.000183,0.22750000000000004,-1.3125000000000002,-3.5175000000000005,0.81803125,-0.14371875,-0.201625,1.04875,0.7679375,-0.60975,-0.87746875,1.028375,0.018936854295553595,0.027166901777336175,True
46130,203766,1,203691,3868.0,40798.0,44952.0,-0.0032329999999999998,-0.0015249999999999999,-0.0028669999999999998,0.0175,-1.5225000000000002,-3.4825000000000004,0.8055625000000001,-0.14371875,-0.203875,1.04125,0.75871875,-0.6065,-0.88084375,1.021125,0.018807276532623495,0.02720843218992523,True
46131,203767,1,203692,3867.0,40799.0,44950.0,-0.002928,-0.003294,-0.004148,-0.0175,-1.7325000000000002,-3.5700000000000003,0.811625,-0.1440625,-0.20159375000000002,1.0468125,0.7540625,-0.60953125,-0.88053125,1.01771875,0.018914165624345242,0.02728790206197868,True
46132,203768,1,203693,3867.0,40798.0,44953.0,0.002257,-6.1e-05,0.001647,0.10500000000000001,-1.3825,-4.025,0.81603125,-0.1430625,-0.2021875,1.046625,0.76353125,-0.60784375,-0.88046875,1.024375,0.018887524430091524,0.0272615944986969,True
46133,203769,1,203694,3869.0,40799.0,44952.0,-0.000305,-0.000183,-0.000244,0.17500000000000002,-1.5925000000000002,-3.8675,0.81075,-0.1363125,-0.2010625,1.04653125,0.760375,-0.60846875,-0.8805625,1.0175,0.019186738305283623,0.027310475798125546,True
46134,203770,1,203695,3867.0,40798.0,44951.0,0.0,-0.00042699999999999997,-0.000244,0.31500000000000006,-1.4875,-3.6225000000000005,0.81821875,-0.14309375,-0.20228125,1.04534375,0.76396875,-0.610125,-0.87725,1.0186875,0.018977199425033398,0.027131967962696842,True
46135,203771,1,203696,3867.0,40799.0,44951.0,0.0017079999999999999,0.00061,0.000549,0.29750000000000004,-1.5225000000000002,-3.7800000000000002,0.81059375,-0.14609375,-0.20103125,1.04090625,0.762,-0.60828125,-0.88284375,1.00975,0.018781787127046916,0.027400907502784927,True
46136,203772,1,203697,3867.0,40799.0,44948.0,0.001647,0.002074,0.001037,0.5075000000000001,-1.3825,-3.7450000000000006,0.81153125,-0.142625,-0.202875,1.04196875,0.7629375,-0.6075,-0.88165625,1.0170625,0.018891598090013208,0.027280388539247667,True
46137,203773,1,203698,3867.0,40798.0,44949.0,-0.0008539999999999999,0.002074,0.001647,0.77,-1.2600000000000002,-3.7275000000000005,0.8169375,-0.14315625,-0.20246875,1.04078125,0.7626875,-0.607,-0.8811875,1.019875,0.018850073149916692,0.027278390551094076,True
46138,203774,1,203699,3867.0,40797.0,44950.0,-0.000976,0.0013419999999999999,0.0006709999999999999,0.7350000000000001,-1.3475000000000001,-3.5700000000000003,0.81190625,-0.1433125,-0.2019375,1.047375,0.75325,-0.60990625,-0.8803125,1.02425,0.01895959071359729,0.027265533742793627,True
46139,203775,1,203700,3864.0,40798.0,44950.0,0.000976,-0.000793,0.000244,0.6825000000000001,-1.4000000000000001,-3.6050000000000004,0.8114687500000001,-0.1476875,-0.20171875,1.042,0.75603125,-0.60434375,-0.8835625,1.018125,0.018559984962004932,0.027401371889575702,True
46140,203776,1,203701,3867.0,40800.0,44950.0,0.001098,-0.001403,-0.002928,0.5425000000000001,-1.4000000000000001,-3.5875000000000004,0.81996875,-0.145,-0.20728125,1.0355625,0.76346875,-0.6080625000000001,-0.8804375,1.02384375,0.01881751153712325,0.027055643615591568,True
46141,203777,1,203702,3867.0,40798.0,44950.0,-0.000488,-0.001769,-0.001586,0.35000000000000003,-1.4700000000000002,-3.6575,0.82315625,-0.1426875,-0.2026875,1.0525,0.7558125,-0.6105625,-0.88025,1.01759375,0.01901114612882172,0.027232945810431966,True
46142,203778,1,203703,3867.0,40799.0,44949.0,-0.001952,-0.000976,-0.0006709999999999999,0.31500000000000006,-1.1900000000000002,-3.5875000000000004,0.817375,-0.14203125,-0.2071875,1.03740625,0.764,-0.6079375,-0.87971875,1.02675,0.018933169429579382,0.02703130436311705,True
46143,203779,1,203704,3866.0,40802.0,44951.0,0.001098,-0.000244,0.00042699999999999997,0.29750000000000004,-1.2775,-3.6400000000000006,0.82353125,-0.14250000000000002,-0.20284375000000002,1.04984375,0.75609375,-0.61109375,-0.8803125,1.022875,0.019039940067677813,0.02722910936106611,True
46144,203780,1,203705,3867.0,40801.0,44952.0,0.0030499999999999998,0.0,0.0013419999999999999,0.47250000000000003,-1.2600000000000002,-3.7800000000000002,0.8065,-0.14525,-0.20590625,1.038,0.7609375,-0.60775,-0.88128125,1.0236875,0.01879489185317634,0.027143899593193178,True
46145,203781,1,203706,3867.0,40800.0,44954.0,0.002928,-0.0006709999999999999,0.0013419999999999999,0.6300000000000001,-1.2950000000000002,-3.7975000000000003,0.806625,-0.14503125,-0.20421875,1.04378125,0.7561875,-0.6079687500000001,-0.88134375,1.0251875,0.018812503571632666,0.027214165231731105,True
46146,203782,1,203707,3866.0,40802.0,44954.0,0.0,0.0017079999999999999,0.000549,0.7175,-1.2425000000000002,-3.7450000000000006,0.80721875,-0.14690625000000002,-0.20046875,1.03790625,0.7565625,-0.6073125,-0.88196875,1.01821875,0.018710139516454713,0.02738931178828042,True
46147,203783,1,203708,3869.0,40802.0,44956.0,-0.0015249999999999999,0.001952,0.00183,0.7000000000000001,-1.5225000000000002,-3.6925000000000003,0.81665625,-0.142625,-0.20325000000000001,1.04771875,0.7508125,-0.61025,-0.8805625,1.02334375,0.019001229162645645,0.02722255576014409,True
46148,203784,1,203709,3868.0,40803.0,44956.0,-0.000915,0.000183,-0.000122,0.47250000000000003,-1.8025000000000002,-3.6050000000000004,0.806625,-0.150625,-0.2003125,1.029875,0.75821875,-0.6079375,-0.8779375,1.0186875,0.018583942681096293,0.02723798948365394,True
46149,203785,1,203710,3869.0,40804.0,44956.0,0.000549,-0.0011589999999999999,-0.001098,0.35000000000000003,-1.7500000000000002,-3.5875000000000004,0.81634375,-0.14846875,-0.20025,1.0440625000000001,0.755625,-0.6100625000000001,-0.88165625,1.01796875,0.018756301411262163,0.02738588794706944,True
46150,203786,1,203711,3868.0,40802.0,44956.0,0.000244,-0.001464,-0.001403,0.3325,-1.5925000000000002,-3.5525,0.81390625,-0.14275000000000002,-0.20296875,1.049,0.756375,-0.6099687500000001,-0.8806875000000001,1.02159375,0.018984938776080325,0.027238746919674147,True
46151,203787,1,203712,3867.0,40804.0,44959.0,-0.00122,-0.000549,-0.002989,0.36750000000000005,-1.61,-3.4475000000000002,0.8072812500000001,-0.15006250000000002,-0.19971875,1.03846875,0.7579375,-0.608375,-0.8805000000000001,1.01828125,0.018624248858366308,0.027362040553847392,True
46152,203788,1,203713,3869.0,40805.0,44961.0,0.0018909999999999999,-0.001281,-0.000915,0.31500000000000006,-1.4700000000000002,-3.5525,0.81515625,-0.14296875,-0.20246875,1.03871875,0.7560625,-0.60740625,-0.88090625,1.0143125,0.018873890863650048,0.02726739505318461,True
46153,203789,1,203714,3868.0,40805.0,44963.0,0.001403,-0.000549,0.001647,0.28,-1.4000000000000001,-3.6575,0.81521875,-0.14365625,-0.20400000000000001,1.04090625,0.75453125,-0.608875,-0.8806875000000001,1.0211875,0.018904511075780586,0.02719729911000249,True
46154,203790,1,203715,3869.0,40804.0,44962.0,-0.00061,0.000488,0.001952,0.385,-1.2600000000000002,-3.6575,0.8024375,-0.1459375,-0.201125,1.0416875,0.75653125,-0.60921875,-0.8814375,1.0176875,0.018825516352484778,0.02734217024237446,True
46155,203791,1,203716,3871.0,40807.0,44962.0,-0.000976,0.00061,0.001037,0.43750000000000006,-1.225,-3.5700000000000003,0.81975,-0.1435625,-0.20403125,1.04115625,0.762375,-0.6079375,-0.8835000000000001,1.0171875,0.01887094357257694,0.02730599594108546,True
46156,203792,1,203717,3871.0,40807.0,44963.0,0.00122,0.000976,-0.000488,0.5075000000000001,-1.3650000000000002,-3.6400000000000006,0.81671875,-0.14375000000000002,-0.2010625,1.048,0.75696875,-0.6078125,-0.8804062500000001,1.02715625,0.018858340212076954,0.027304367266913095,True
46157,203793,1,203718,3871.0,40808.0,44965.0,-0.00122,-0.000244,-0.000122,0.4025,-1.5925000000000002,-3.6750000000000003,0.81153125,-0.14521875,-0.2014375,1.04721875,0.75125,-0.609625,-0.8783125,1.0175,0.018870919406533012,0.027207432176117256,True
46158,203794,1,203719,3871.0,40809.0,44966.0,-0.002379,0.0,-0.000244,0.4025,-1.6800000000000002,-3.6225000000000005,0.81375,-0.14365625,-0.2045625,1.02925,0.768375,-0.60353125,-0.885125,1.009625,0.01869142259812806,0.027348164817335662,True
46159,203795,1,203720,3872.0,40809.0,44966.0,-0.000976,-0.001403,-0.000305,0.43750000000000006,-1.6975000000000002,-3.5875000000000004,0.81659375,-0.1445625,-0.20146875,1.04696875,0.7770312500000001,-0.6061875,-0.87734375,1.01784375,0.018760525172784284,0.02716829444461891,True
46160,203796,1,203721,3871.0,40809.0,44966.0,-0.000488,-0.00061,-0.000976,0.42000000000000004,-1.6975000000000002,-3.6400000000000006,0.8110937500000001,-0.1436875,-0.20475000000000002,1.04128125,0.7638125,-0.6055625,-0.88428125,1.00775,0.01877116200859054,0.027307650286262537,True
46161,203797,1,203722,3873.0,40812.0,44968.0,0.0008539999999999999,-0.000488,-0.000488,0.47250000000000003,-1.6975000000000002,-3.4825000000000004,0.81253125,-0.14421875,-0.203875,1.04128125,0.77696875,-0.60265625,-0.88521875,1.0121875,0.018633658713172487,0.027379455927024954,True
46162,203798,1,203723,3873.0,40811.0,44968.0,0.001098,-0.000244,-0.000366,0.43750000000000006,-1.6975000000000002,-3.6750000000000003,0.8163125,-0.14278125,-0.20175,1.0484375,0.75434375,-0.61275,-0.87540625,1.038,0.019094524179541095,0.02708121601029129,True
46163,203799,1,203724,3872.0,40812.0,44969.0,0.000122,0.000122,0.001281,0.385,-1.6450000000000002,-3.6750000000000003,0.80753125,-0.14615625000000002,-0.2005625,1.0416875,0.74346875,-0.61265625,-0.882125,1.00715625,0.018953663321080998,0.02739165163747068,True
46164,203800,1,203725,3875.0,40811.0,44971.0,-0.000488,0.000488,-0.000244,0.3325,-1.7325000000000002,-3.6925000000000003,0.816875,-0.14396875,-0.2016875,1.04853125,0.77765625,-0.61128125,-0.87534375,1.04203125,0.018987735553182547,0.02708128405260731,True
46165,203801,1,203726,3874.0,40813.0,44967.0,0.001403,0.0,0.0013419999999999999,0.22750000000000004,-1.715,-3.7800000000000002,0.81121875,-0.14453125,-0.2010625,1.03328125,0.74359375,-0.61234375,-0.87809375,1.0026875,0.019007230873735865,0.02721395203360386,True
46166,203802,1,203727,3877.0,40811.0,44971.0,0.000915,0.000305,0.0,0.24500000000000002,-1.5050000000000001,-3.6750000000000003,0.8175,-0.14375000000000002,-0.2031875,1.04165625,0.77434375,-0.6029375,-0.8834062500000001,1.0256875,0.018663929866098307,0.027336239386438504,True
46167,203803,1,203728,3877.0,40815.0,44972.0,0.000244,0.000305,-6.1e-05,0.31500000000000006,-1.3825,-3.5700000000000003,0.81503125,-0.14646875,-0.20215625,1.04721875,0.7466875000000001,-0.6125625,-0.8744375,1.02465625,0.018937229717547695,0.027026993072707672,True
46168,203804,1,203729,3879.0,40812.0,44973.0,0.001098,-0.0018909999999999999,0.000793,0.22750000000000004,-1.3650000000000002,-3.535,0.81065625,-0.1461875,-0.2014375,1.0435,0.75121875,-0.61028125,-0.87684375,1.0264375000000001,0.01885771825545472,0.02714999767605165,True
46169,203805,1,203730,3877.0,40814.0,44972.0,-0.002013,-0.0006709999999999999,0.00061,0.28,-1.33,-3.535,0.8140625,-0.1435625,-0.20175,1.0404375000000001,0.7503125,-0.6069687500000001,-0.8779375,1.0249062500000001,0.01883231757263885,0.02718020736244715,True
46170,203806,1,203731,3879.0,40817.0,44974.0,-0.002196,-0.000305,-0.001098,0.29750000000000004,-1.3125000000000002,-3.5525,0.81159375,-0.14515625000000001,-0.2014375,1.04003125,0.75596875,-0.6075,-0.8833125000000001,1.0169375,0.018788733109824242,0.02740290304998581,True
46171,203807,1,203732,3882.0,40816.0,44975.0,-0.001586,-0.0008539999999999999,0.000915,0.31500000000000006,-1.3825,-3.5525,0.81084375,-0.146625,-0.20115625,1.039875,0.7642187500000001,-0.6079687500000001,-0.8824062500000001,1.01653125,0.01874773796597901,0.027378782950302487,True
46172,203808,1,203733,3881.0,40816.0,44974.0,6.1e-05,0.000915,-0.00042699999999999997,0.1925,-1.7325000000000002,-3.6575,0.816375,-0.14375000000000002,-0.20165625,1.0453125,0.7546875000000001,-0.60975,-0.88065625,1.0190000000000001,0.01893558447363342,0.027290276959636064,True
46173,203809,1,203734,3882.0,40816.0,44977.0,0.0017079999999999999,6.1e-05,0.000488,0.14,-1.8550000000000002,-3.6575,0.8140625,-0.14334375,-0.20371875,1.046875,0.76465625,-0.60921875,-0.8807812500000001,1.0241875,0.018930913847072045,0.027212268505435303,True
46174,203810,1,203735,3883.0,40817.0,44976.0,0.0018909999999999999,-0.001464,-0.000244,0.10500000000000001,-1.8725000000000003,-3.6050000000000004,0.8096875,-0.14334375,-0.20415625,1.04525,0.753125,-0.608375,-0.880375,1.0239375,0.018897275825811334,0.027178800560682864,True
46175,203811,1,203736,3882.0,40818.0,44980.0,-0.001464,-0.000488,-0.001098,0.15750000000000003,-1.8900000000000001,-3.7625,0.81078125,-0.1443125,-0.20315625,1.0421875,0.757,-0.60753125,-0.8777812500000001,1.02584375,0.01882426746892783,0.02711757102535018,True
46176,203812,1,203737,3883.0,40821.0,44981.0,-0.00122,0.000244,-0.000244,0.21000000000000002,-1.9250000000000003,-3.8150000000000004,0.81115625,-0.140875,-0.2046875,1.03778125,0.75690625,-0.60775,-0.88153125,1.024875,0.018972681370706384,0.0272026565889107,True
46177,203813,1,203738,3882.0,40821.0,44982.0,0.002013,0.0,-0.000122,0.15750000000000003,-2.0650000000000004,-3.6575,0.8114687500000001,-0.14471875,-0.20490625,1.042125,0.756875,-0.60790625,-0.88134375,1.0236875,0.018822710688764916,0.02718653408741238,True
46178,203814,1,203739,3886.0,40819.0,44985.0,0.0015249999999999999,-0.000183,-0.000305,0.1925,-2.0475000000000003,-3.7450000000000006,0.8119375,-0.14475,-0.20753125,1.041875,0.76225,-0.6089687500000001,-0.882,1.02390625,0.018863803465961983,0.027106693593762554,True
46179,203815,1,203740,3885.0,40824.0,44985.0,0.002562,-0.00061,-0.001098,0.2625,-1.995,-3.6925000000000003,0.8115,-0.14640625000000002,-0.200625,1.0383437500000001,0.756,-0.60884375,-0.88484375,1.01921875,0.018791516769250893,0.02749540068942567,True
46180,203816,1,203741,3886.0,40820.0,44983.0,0.001403,6.1e-05,-0.001403,0.31500000000000006,-1.7850000000000001,-3.6575,0.8278125000000001,-0.14184375,-0.2030625,1.053375,0.74675,-0.6125625,-0.8805625,1.0186875,0.019125141886384242,0.02723009176339964,True
46181,203817,1,203742,3887.0,40822.0,44983.0,0.00042699999999999997,6.1e-05,0.000244,0.4025,-1.4875,-3.7100000000000004,0.8051875000000001,-0.1440625,-0.20640625,1.0358125,0.76478125,-0.6073125,-0.881,1.02365625,0.01882570475747809,0.027112806961135,True
46182,203818,1,203743,3887.0,40824.0,44987.0,-0.003965,0.000244,0.000183,0.5075000000000001,-1.2425000000000002,-3.5875000000000004,0.8003125,-0.14959375,-0.198125,1.03959375,0.7557812500000001,-0.60884375,-0.8845000000000001,1.02075,0.018661990163597184,0.02758243083043662,True
46183,203819,1,203744,3888.0,40822.0,44986.0,-0.003111,0.000366,-0.00042699999999999997,0.47250000000000003,-1.3650000000000002,-3.6925000000000003,0.81603125,-0.14421875,-0.19893750000000002,1.0570625,0.75646875,-0.61140625,-0.8835625,1.013125,0.018982560169636793,0.027513142461012167,True
46184,203820,1,203745,3887.0,40823.0,44987.0,0.000183,0.000488,-6.1e-05,0.31500000000000006,-1.6275000000000002,-3.7625,0.805,-0.1440625,-0.2041875,1.0363437500000001,0.7626875,-0.60878125,-0.88096875,1.0246250000000001,0.01888426514417491,0.02720075961672513,True
46185,203821,1,203746,3890.0,40824.0,44988.0,0.003172,-0.000915,-0.00042699999999999997,0.3325,-1.61,-3.8500000000000005,0.80084375,-0.14825,-0.2,1.0559375,0.7553125,-0.60921875,-0.8821875,1.01771875,0.018731547501888903,0.027416701204425853,True
46186,203822,1,203747,3890.0,40824.0,44990.0,0.002013,-6.1e-05,0.0006709999999999999,0.31500000000000006,-1.5575,-3.7625,0.805,-0.14515625000000001,-0.2025,1.0287187500000001,0.7618125,-0.60828125,-0.88115625,1.02603125,0.0188198840583391,0.027275912870809608,True
46187,203823,1,203748,3891.0,40825.0,44989.0,-0.000549,0.00042699999999999997,0.002379,0.525,-1.4525000000000001,-3.7100000000000004,0.81825,-0.13740625,-0.20228125,1.0563125,0.7560625,-0.61165625,-0.8801875,1.01675,0.019269324875281404,0.02724683043485906,True
46188,203824,1,203749,3892.0,40823.0,44990.0,0.000488,0.000488,0.0,0.42000000000000004,-1.5050000000000001,-3.6225000000000005,0.80590625,-0.1465625,-0.20246875,1.03540625,0.76284375,-0.60865625,-0.8816875000000001,1.0215625,0.018777691284951815,0.027297937489167486,True
46189,203825,1,203750,3891.0,40827.0,44991.0,0.00061,-0.000488,-0.000976,0.45500000000000007,-1.4525000000000001,-3.6925000000000003,0.8241875,-0.13796875,-0.197125,1.04421875,0.74771875,-0.61028125,-0.880875,1.021125,0.019191674211362378,0.027480946711078286,True
46190,203826,1,203751,3893.0,40827.0,44992.0,0.002196,0.000122,0.000732,0.525,-1.4875,-3.6750000000000003,0.81234375,-0.141375,-0.2005625,1.04575,0.7568125,-0.6120625000000001,-0.88021875,1.01921875,0.01912426071565518,0.027317133214514042,True
46191,203827,1,203752,3893.0,40825.0,44993.0,-0.0017079999999999999,6.1e-05,0.000366,0.56,-1.3650000000000002,-3.5175000000000005,0.8091875000000001,-0.14403125,-0.200625,1.0471875,0.76228125,-0.60559375,-0.8838125,1.017875,0.018758437804411852,0.027455097565937697,True
46192,203828,1,203753,3895.0,40826.0,44995.0,-0.003538,-0.000976,0.0026839999999999998,0.2625,-1.3125000000000002,-3.5175000000000005,0.8160000000000001,-0.1440625,-0.204875,1.0438125,0.762125,-0.60859375,-0.88165625,1.0264375000000001,0.018876789739356806,0.02720000803805012,True
46193,203829,1,203754,3896.0,40826.0,44995.0,-0.001037,-0.002806,0.001281,0.0175,-1.61,-3.5525,0.81053125,-0.14725,-0.20078125,1.04146875,0.75465625,-0.6046875,-0.88428125,1.01878125,0.018591477741792088,0.027467138517412473,True
46194,203830,1,203755,3896.0,40828.0,44998.0,0.0037819999999999998,-0.00488,-0.0050019999999999995,0.035,-1.8200000000000003,-3.5000000000000004,0.81103125,-0.1429375,-0.201625,1.04571875,0.7558125,-0.6095625,-0.8806875000000001,1.01084375,0.018961125375552695,0.02729275467167055,True
46195,203831,1,203756,3897.0,40830.0,44998.0,0.0062829999999999995,-0.003294,-0.002562,0.22750000000000004,-1.5750000000000002,-3.7100000000000004,0.81421875,-0.14340625,-0.2018125,1.0475,0.7625625,-0.60878125,-0.8811875,1.0246250000000001,0.018910932454243343,0.027304765899939465,True
46196,203832,1,203757,3899.0,40825.0,45000.0,-0.001769,0.005124,0.006161,0.8575,-0.9450000000000001,-3.99,0.8113750000000001,-0.14396875,-0.20071875,1.04159375,0.7603125000000001,-0.6069687500000001,-0.881375,1.01778125,0.01881580802186373,0.027356054478500483,True
46197,203833,1,203758,3899.0,40828.0,45000.0,-0.002928,0.004392,0.0060999999999999995,0.8750000000000001,-0.9625000000000001,-3.7450000000000006,0.81178125,-0.14303125,-0.20453125,1.04171875,0.7569375,-0.6106875,-0.88109375,1.02675,0.019002161154579693,0.027191831146892404,True
46198,203834,1,203759,3900.0,40831.0,45005.0,-0.0021349999999999997,0.0006709999999999999,-0.000183,0.6300000000000001,-1.2950000000000002,-3.6750000000000003,0.811625,-0.14746875,-0.20040625,1.04140625,0.75590625,-0.6084375,-0.882625,1.0178125,0.018732142176844827,0.02741747504533786,True
46199,203835,1,203760,3901.0,40831.0,45005.0,-0.00366,-0.001037,-0.0070149999999999995,0.35000000000000003,-1.6800000000000002,-3.6400000000000006,0.81925,-0.1443125,-0.203625,1.0481562500000001,0.7458750000000001,-0.611,-0.88153125,1.02484375,0.018962557393035633,0.02724535894469919,True
46200,203836,1,203761,3902.0,40832.0,45006.0,-0.002989,-0.001647,-0.009394,0.36750000000000005,-1.7675,-3.4650000000000003,0.80953125,-0.1441875,-0.20075,1.04275,0.76246875,-0.60809375,-0.8840625,1.0189375,0.018851775140039037,0.027459845031332808,True
46201,203837,1,203762,3903.0,40830.0,45005.0,-0.00042699999999999997,-0.000366,0.0011589999999999999,0.43750000000000006,-1.8375000000000001,-3.5700000000000003,0.8066875,-0.14446875,-0.20103125,1.042875,0.7610625,-0.60853125,-0.88309375,1.01878125,0.018857789409922623,0.027410679188555484,True
46202,203838,1,203763,3903.0,40833.0,45005.0,0.003843,0.001464,0.0055509999999999995,0.4025,-1.8375000000000001,-3.5000000000000004,0.8168125,-0.144375,-0.20334375000000002,1.04228125,0.75825,-0.60678125,-0.8824375,1.018875,0.0187918218682096,0.027292091058201188,True
46203,203839,1,203764,3905.0,40833.0,45007.0,0.006039,-0.00122,0.004026,0.14,-1.7325000000000002,-3.5700000000000003,0.814125,-0.139375,-0.201375,1.04171875,0.762375,-0.608125,-0.8846875000000001,1.01771875,0.01904858659487466,0.027459155354070657,True
46204,203840,1,203765,3904.0,40834.0,45006.0,0.0059169999999999995,6.1e-05,0.0030499999999999998,0.17500000000000002,-1.8025000000000002,-3.6225000000000005,0.81821875,-0.143875,-0.20221875,1.04159375,0.7589375,-0.6069687500000001,-0.88121875,1.022125,0.01881961791819645,0.02728965999706104,True
46205,203841,1,203766,3905.0,40832.0,45003.0,0.0030499999999999998,-0.000244,-0.000122,0.10500000000000001,-1.54,-3.6225000000000005,0.81221875,-0.14378125,-0.20384375000000002,1.04165625,0.75603125,-0.60384375,-0.88065625,1.0246250000000001,0.018698805953846136,0.027202357252936203,True
46206,203842,1,203767,3905.0,40830.0,44999.0,-0.0021349999999999997,-0.001403,-0.00122,0.21000000000000002,-1.0150000000000001,-3.43,0.81975,-0.1433125,-0.202625,1.041625,0.75015625,-0.6096875,-0.88128125,1.02378125,0.01895087046513695,0.02727577584052268,True
46207,203843,1,203768,3905.0,40831.0,44995.0,-0.0050019999999999995,-0.0021349999999999997,0.000732,0.24500000000000002,-0.8750000000000001,-3.5175000000000005,0.8162812500000001,-0.14303125,-0.204125,1.04140625,0.75690625,-0.60928125,-0.88153125,1.02396875,0.018946103921665736,0.027225263718445785,True
46208,203844,1,203769,3903.0,40831.0,44993.0,-0.0057339999999999995,-0.00061,-0.000244,0.31500000000000006,-1.0150000000000001,-3.43,0.8175,-0.14325000000000002,-0.2035625,1.04021875,0.75621875,-0.6103125,-0.8775000000000001,1.02259375,0.018978324635251995,0.027090242186714904,True
46209,203845,1,203770,3902.0,40831.0,44994.0,-0.0026839999999999998,-0.000244,-0.000305,0.24500000000000002,-1.3475000000000001,-3.4650000000000003,0.81059375,-0.14359375,-0.2018125,1.03334375,0.7563125,-0.6083125,-0.8825625,1.01946875,0.018884624859993957,0.027358516631878247,True
46210,203846,1,203771,3900.0,40831.0,44991.0,0.0028669999999999998,0.000122,0.0008539999999999999,0.3325,-1.6275000000000002,-3.5700000000000003,0.8114375,-0.1431875,-0.19803125,1.0410625,0.76228125,-0.6075,-0.8844375,1.01809375,0.018868739205526768,0.02758375591170184,True
46211,203847,1,203772,3899.0,40828.0,44987.0,0.002379,0.0013419999999999999,0.00488,0.43750000000000006,-1.9600000000000002,-3.9025000000000003,0.814125,-0.14375000000000002,-0.20109375000000002,1.04315625,0.756125,-0.60871875,-0.87640625,1.01609375,0.018894472106557758,0.027146706530409712,True
46212,203848,1,203773,3899.0,40829.0,44988.0,0.0015249999999999999,0.002196,0.001647,0.36750000000000005,-2.0125,-3.8500000000000005,0.8115,-0.13965625,-0.2013125,1.04178125,0.75628125,-0.61075,-0.88084375,1.02896875,0.01914178763345286,0.027311423070208382,True
46213,203849,1,203774,3897.0,40828.0,44985.0,-0.0011589999999999999,0.001952,-0.000549,0.22750000000000004,-2.1,-3.7275000000000005,0.8153750000000001,-0.14284375,-0.2019375,1.042,0.7416875,-0.60559375,-0.883125,1.0190937500000001,0.018806699188065722,0.02737548037073318,True
46214,203850,1,203775,3896.0,40827.0,44979.0,-0.001403,0.000366,-0.00244,0.22750000000000004,-2.2750000000000004,-3.6050000000000004,0.81640625,-0.143625,-0.2001875,1.04378125,0.7575000000000001,-0.6069687500000001,-0.886625,1.0150937500000001,0.01882977764175037,0.027582587032190988,True
46215,203851,1,203776,3896.0,40828.0,44978.0,-0.002562,-0.000122,-0.0044529999999999995,0.17500000000000002,-2.4850000000000003,-3.5700000000000003,0.81178125,-0.14409375,-0.2044375,1.04209375,0.76728125,-0.60671875,-0.8843125000000001,1.0144375,0.018800759447051427,0.027321429916940643,True
46216,203852,1,203777,3895.0,40825.0,44979.0,0.001952,-0.001403,-0.0040869999999999995,-0.052500000000000005,-2.5375,-3.6225000000000005,0.82553125,-0.1433125,-0.209,1.03821875,0.7558125,-0.611375,-0.8814375,1.02396875,0.019018136938712283,0.027025669236353408,True
46217,203853,1,203778,3893.0,40824.0,44975.0,0.002806,-0.000976,-0.001464,0.15750000000000003,-2.2225,-3.5700000000000003,0.8360625,-0.141125,-0.209875,1.04090625,0.7458750000000001,-0.61315625,-0.87915625,1.02228125,0.01917800566516129,0.02690128408193103,True
46218,203854,1,203779,3893.0,40823.0,44972.0,0.0030499999999999998,-6.1e-05,-0.000915,0.35000000000000003,-1.8375000000000001,-3.8150000000000004,0.80975,-0.1509375,-0.19721875,1.0617812500000001,0.7598125,-0.6032500000000001,-0.88603125,1.0150625,0.018384258177273332,0.027678680183285558,True
46219,203855,1,203780,3890.0,40822.0,44971.0,0.001586,0.0006709999999999999,-6.1e-05,0.35000000000000003,-1.4875,-3.8500000000000005,0.7997500000000001,-0.1374375,-0.20290625,1.0307187500000001,0.77046875,-0.6063125,-0.87628125,1.0288125000000001,0.019055069710262357,0.027068957503445176,True
46220,203856,1,203781,3889.0,40821.0,44970.0,-0.001281,-0.00042699999999999997,-0.002074,0.21000000000000002,-1.5575,-3.6400000000000006,0.83384375,-0.1395625,-0.20546875,1.0333125,0.7520625,-0.61515625,-0.87871875,1.01775,0.019321175342935308,0.02706128103964357,True
46221,203857,1,203782,3888.0,40822.0,44969.0,-0.0018909999999999999,0.00122,0.000732,0.31500000000000006,-1.3475000000000001,-3.7625,0.81903125,-0.14434375,-0.19975,1.0604375,0.75246875,-0.6119375,-0.88390625,1.0045625,0.01899865664781572,0.027493924913818548,True
46222,203858,1,203783,3886.0,40824.0,44965.0,-0.000305,0.0017079999999999999,0.0034159999999999998,0.45500000000000007,-1.3825,-3.7100000000000004,0.79321875,-0.15081250000000002,-0.19634375,1.053,0.76665625,-0.60665625,-0.8844375,1.0136875,0.0185252211990404,0.027651569379456536,True
46223,203859,1,203784,3886.0,40820.0,44965.0,0.000549,0.002074,0.001586,0.49000000000000005,-1.5050000000000001,-3.5525,0.80340625,-0.147125,-0.2033125,1.03178125,0.77015625,-0.60571875,-0.88303125,1.0233125,0.01863768966309915,0.027316557342667008,True
46224,203860,1,203785,3884.0,40819.0,44965.0,0.001281,-0.0008539999999999999,0.0015249999999999999,0.4025,-1.6275000000000002,-3.5875000000000004,0.836125,-0.144125,-0.19768750000000002,1.06103125,0.752375,-0.6088125,-0.88309375,1.01725,0.018882971293312102,0.02754505757548737,True
46225,203861,1,203786,3883.0,40819.0,44963.0,0.0,-0.001403,0.001403,0.21000000000000002,-1.4700000000000002,-3.5875000000000004,0.79940625,-0.14334375,-0.2078125,1.03178125,0.7624375,-0.606625,-0.8804375,1.0249375,0.018827500723890413,0.02703429149909442,True
46226,203862,1,203787,3882.0,40819.0,44964.0,0.002562,0.0006709999999999999,0.002196,0.08750000000000001,-1.3825,-3.5875000000000004,0.8309375,-0.13953125,-0.20075,1.0538125,0.7551875,-0.61084375,-0.88084375,1.0188125000000001,0.019150603075118056,0.027334030824416877,True
46227,203863,1,203788,3883.0,40817.0,44961.0,-0.000183,0.0,-0.0013419999999999999,0.052500000000000005,-1.5225000000000002,-3.6575,0.79859375,-0.153125,-0.20065625,1.04071875,0.76353125,-0.60765625,-0.8844062500000001,1.01821875,0.01847113131710786,0.027477046996047978,True
46228,203864,1,203789,3881.0,40816.0,44959.0,-0.004209,-0.001464,-0.0025009999999999998,0.10500000000000001,-1.4875,-3.5000000000000004,0.8082812500000001,-0.14178125,-0.19790625,1.032875,0.75603125,-0.6079375,-0.8780625,1.0251875,0.018943328753171618,0.027339598893603552,True
46229,203865,1,203790,3880.0,40819.0,44959.0,-0.0035989999999999998,-0.003111,-0.001952,0.21000000000000002,-1.435,-3.6400000000000006,0.8140937500000001,-0.1431875,-0.20190625,1.04465625,0.7564375,-0.60940625,-0.8816875000000001,1.02546875,0.01894473784795194,0.027320544476736153,True
46230,203866,1,203791,3880.0,40819.0,44960.0,-0.003172,0.001586,0.002196,0.36750000000000005,-1.3125000000000002,-4.0425,0.8114687500000001,-0.1469375,-0.20303125,1.0418125,0.7557812500000001,-0.60865625,-0.884,1.0206250000000001,0.01876245274465159,0.02736572697315544,True
46231,203867,1,203792,3879.0,40819.0,44961.0,0.005124,-0.002013,-0.000915,0.56,-2.1700000000000004,-3.4475000000000002,0.81184375,-0.14640625000000002,-0.2005625,1.0415,0.74971875,-0.61,-0.883125,1.0190937500000001,0.018837616822429907,0.027430738703438578,True
46232,203868,1,203793,3879.0,40819.0,44959.0,0.004697,0.000488,0.000244,0.5425000000000001,-2.1350000000000002,-3.7275000000000005,0.81940625,-0.14275000000000002,-0.20346875,1.0425312500000001,0.75775,-0.60665625,-0.88171875,1.0241875,0.018852876444762783,0.027258968997067375,True
46233,203869,1,203794,3879.0,40818.0,44957.0,0.000976,0.00122,0.0034159999999999998,0.6125,-1.8900000000000001,-3.8675,0.81921875,-0.14271875,-0.204875,1.0451875,0.75671875,-0.60503125,-0.88103125,1.0259375,0.018789348215113525,0.02717557175207519,True
46234,203870,1,203795,3879.0,40818.0,44956.0,-0.000976,0.000976,0.0008539999999999999,0.5425000000000001,-1.8200000000000003,-3.6575,0.8113125,-0.14353125,-0.20271875,1.04509375,0.75575,-0.61059375,-0.8815937500000001,1.02565625,0.018978107750854244,0.027284224910231088,True
46235,203871,1,203796,3879.0,40820.0,44958.0,-0.0028669999999999998,0.0008539999999999999,-0.0021349999999999997,0.47250000000000003,-1.6625,-3.7450000000000006,0.811,-0.1454375,-0.19928125,1.04765625,0.7565000000000001,-0.60959375,-0.88053125,1.0116875,0.018860784729532565,0.027380846218868417,True
46236,203872,1,203797,3879.0,40820.0,44956.0,-0.000122,-0.0008539999999999999,-0.0026839999999999998,0.36750000000000005,-1.2950000000000002,-3.8150000000000004,0.8114375,-0.14425,-0.20309375000000002,1.04409375,0.7645625,-0.6078125,-0.88375,1.0190000000000001,0.018838021461680104,0.027353443512332345,True
46237,203873,1,203798,3877.0,40819.0,44955.0,-0.002196,0.00042699999999999997,-0.000915,0.47250000000000003,-1.3125000000000002,-3.9550000000000005,0.8146875,-0.14325000000000002,-0.20190625,1.04665625,0.76234375,-0.6075,-0.88128125,1.0241875,0.018866199329472724,0.027304663018509145,True
46238,203874,1,203799,3879.0,40818.0,44957.0,-0.0011589999999999999,0.001281,0.0021349999999999997,0.5775,-1.3825,-3.9725000000000006,0.8118125,-0.14553125,-0.20059375000000002,1.04871875,0.7565000000000001,-0.60925,-0.88034375,1.019625,0.018843270315023822,0.027320764006727196,True
46239,203875,1,203800,3877.0,40820.0,44953.0,6.1e-05,0.0015249999999999999,0.002074,0.5425000000000001,-1.3475000000000001,-3.9200000000000004,0.8082812500000001,-0.14503125,-0.20400000000000001,1.0428125,0.76409375,-0.60784375,-0.88384375,1.01965625,0.018807519452004,0.02732068875010518,True
46240,203876,1,203801,3877.0,40817.0,44953.0,0.0008539999999999999,0.000549,0.001403,0.56,-1.3825,-3.9375000000000004,0.81778125,-0.1401875,-0.20371875,1.0401875,0.7628125,-0.6065,-0.8806875000000001,1.01959375,0.01895078536159145,0.027208603058094763,True
46241,203877,1,203802,3877.0,40818.0,44956.0,-0.001098,-0.000488,-0.0013419999999999999,0.5775,-1.5225000000000002,-3.8850000000000002,0.81425,-0.143125,-0.2018125,1.0435,0.75634375,-0.6095,-0.8810625,1.0231875,0.018951014851988055,0.027299879175175897,True
46242,203878,1,203803,3876.0,40820.0,44954.0,-6.1e-05,0.001769,-0.00061,0.56,-1.4000000000000001,-3.7800000000000002,0.81140625,-0.14100000000000001,-0.20178125,1.0442500000000001,0.75603125,-0.61053125,-0.880625,1.0254375,0.019078468694169286,0.027284031249215003,True
46243,203879,1,203804,3878.0,40822.0,44956.0,0.0013419999999999999,0.001037,-6.1e-05,0.5075000000000001,-1.4000000000000001,-3.6925000000000003,0.8113750000000001,-0.14184375,-0.2043125,1.04171875,0.75715625,-0.6061875,-0.8808125,1.02425,0.01887101567441116,0.027189626544551145,True
46244,203880,1,203805,3879.0,40821.0,44958.0,0.0006709999999999999,-0.00042699999999999997,-0.000366,0.42000000000000004,-1.4175000000000002,-3.5875000000000004,0.8160625,-0.14350000000000002,-0.20496875,1.04153125,0.75725,-0.604125,-0.8805937500000001,1.021625,0.01872145422769556,0.02715469762452916,True
46245,203881,1,203806,3879.0,40823.0,44957.0,0.000549,-0.001647,-0.0006709999999999999,0.28,-1.3650000000000002,-3.6925000000000003,0.8164375,-0.1466875,-0.201625,1.04928125,0.7614062500000001,-0.6070625000000001,-0.88253125,1.0198125,0.018709059644969817,0.027364830497299188,True
46246,203882,1,203807,3879.0,40819.0,44956.0,-0.000244,-0.0008539999999999999,0.0021349999999999997,0.2625,-1.0850000000000002,-3.7100000000000004,0.81165625,-0.144625,-0.20490625,1.0415625,0.75715625,-0.60859375,-0.88065625,1.0226875,0.018853931870853043,0.027159653395396274,True
46247,203883,1,203808,3877.0,40820.0,44957.0,-0.0013419999999999999,0.000122,6.1e-05,0.28,-0.9275000000000001,-3.6750000000000003,0.81940625,-0.1430625,-0.2030625,1.04178125,0.75678125,-0.60928125,-0.8805937500000001,1.018375,0.018944834075558383,0.027231313561397626,True
46248,203884,1,203809,3878.0,40821.0,44957.0,0.0006709999999999999,-0.001647,0.00042699999999999997,0.4025,-0.9975,-3.6575,0.81671875,-0.13684375000000001,-0.201125,1.04184375,0.7585000000000001,-0.60640625,-0.88053125,1.01859375,0.019082936989224097,0.027306742093780652,True
46249,203885,1,203810,3878.0,40821.0,44958.0,0.000488,-0.001952,-0.000183,0.5075000000000001,-0.9975,-3.8150000000000004,0.81921875,-0.14400000000000002,-0.20334375000000002,1.04265625,0.759625,-0.601375,-0.87715625,1.01940625,0.018591440519076675,0.027085591826839128,True
46250,203886,1,203811,3880.0,40824.0,44957.0,-0.000305,-0.00061,0.002196,0.6125,-0.9800000000000001,-3.9025000000000003,0.81740625,-0.13859375000000002,-0.2006875,1.0426875,0.7668125,-0.607875,-0.88146875,1.0151875000000001,0.019070368733586304,0.027360975223779747,True
46251,203887,1,203812,3880.0,40824.0,44960.0,-0.003538,0.00183,0.0008539999999999999,0.665,-1.715,-3.6225000000000005,0.81584375,-0.14515625000000001,-0.20109375000000002,1.0448125,0.7762187500000001,-0.6068125,-0.88209375,1.01584375,0.01876131863889319,0.027369079420818437,True
46252,203888,1,203813,3879.0,40823.0,44961.0,0.000122,0.003721,-0.000244,0.7875000000000001,-1.7850000000000001,-3.5525,0.8080625,-0.1454375,-0.20071875,1.04503125,0.7606875,-0.60925,-0.87846875,1.0326250000000001,0.018847079858183406,0.02724243227389146,True
46253,203889,1,203814,3880.0,40823.0,44961.0,6.1e-05,0.001647,-0.0008539999999999999,0.7350000000000001,-2.0125,-3.5700000000000003,0.81721875,-0.13959375000000002,-0.203375,1.04146875,0.75184375,-0.6062500000000001,-0.88534375,1.0129375,0.01896494792989586,0.02740443358352243,True
46254,203890,1,203815,3880.0,40823.0,44962.0,0.0015249999999999999,0.00183,0.0015249999999999999,0.7875000000000001,-1.8725000000000003,-3.9200000000000004,0.8173125,-0.1433125,-0.2034375,1.03509375,0.7714062500000001,-0.60546875,-0.8865625,1.01334375,0.018782663914907127,0.02744955234375981,True
46255,203891,1,203816,3882.0,40824.0,44959.0,0.003172,-0.00366,-0.002196,0.525,-2.3275,-3.7275000000000005,0.8172812500000001,-0.14328125,-0.20225,1.036875,0.7672187500000001,-0.6031875,-0.883375,1.0052812500000001,0.018692953910951576,0.02737269361571732,True
46256,203892,1,203817,3882.0,40823.0,44961.0,0.001464,-0.001586,-0.002013,0.47250000000000003,-2.415,-3.535,0.81159375,-0.147125,-0.1973125,1.04875,0.76696875,-0.608875,-0.8731875,1.026375,0.018763555830975616,0.027172834201487042,True
46257,203893,1,203818,3882.0,40822.0,44961.0,-0.001647,0.000122,-0.002928,0.45500000000000007,-2.3275,-3.7450000000000006,0.8113750000000001,-0.14265625,-0.20359375000000002,1.0425625,0.7498125,-0.61259375,-0.8828125,1.0044375,0.01909337572355616,0.027296703296703296,True
46258,203894,1,203819,3883.0,40826.0,44962.0,-6.1e-05,-0.000488,-0.003538,0.4025,-2.205,-3.5525,0.81725,-0.1446875,-0.200625,1.04809375,0.773,-0.60203125,-0.8845000000000001,1.023875,0.018589674379021044,0.027481966686089737,True
46259,203895,1,203820,3884.0,40826.0,44964.0,0.000732,0.0,-0.000549,0.385,-1.9775000000000003,-3.4650000000000003,0.81140625,-0.1401875,-0.20009375000000001,1.0429375,0.7500625,-0.6165625,-0.8788750000000001,1.03415625,0.019351808360732737,0.027283438258361766,True
46260,203896,1,203821,3885.0,40824.0,44965.0,0.001098,0.0028669999999999998,0.001403,0.5950000000000001,-1.4525000000000001,-3.7100000000000004,0.810625,-0.1461875,-0.20096875,1.04734375,0.7416875,-0.61625,-0.87734375,1.0159375,0.0190956177321891,0.02718839305341833,True
46261,203897,1,203822,3886.0,40828.0,44964.0,-0.000305,0.00122,0.000183,0.5775,-1.3125000000000002,-3.7275000000000005,0.81471875,-0.14609375,-0.20078125,1.04865625,0.7691250000000001,-0.605375,-0.8797812500000001,1.02615625,0.01866589109086937,0.02729123673464774,True
46262,203898,1,203823,3886.0,40827.0,44966.0,0.000732,-0.0021349999999999997,0.0008539999999999999,0.3325,-1.1900000000000002,-3.6225000000000005,0.80503125,-0.1398125,-0.20071875,1.03690625,0.74928125,-0.61175,-0.8785625,1.0225312500000001,0.019175292289252084,0.027246097920649557,True
46263,203899,1,203824,3886.0,40827.0,44967.0,-0.002196,-0.0034159999999999998,0.000549,0.43750000000000006,-1.1025,-3.5525,0.81215625,-0.1445,-0.2010625,1.04778125,0.7545937500000001,-0.6099375,-0.88034375,1.02521875,0.018912583585391066,0.02730192383294543,True
46264,203900,1,203825,3887.0,40827.0,44967.0,0.0,-0.001037,0.000976,0.49000000000000005,-0.9625000000000001,-3.4650000000000003,0.8120937500000001,-0.14690625000000002,-0.20075,1.04121875,0.7508750000000001,-0.60640625,-0.8749687500000001,1.0186250000000001,0.01867399876810536,0.027104305407418858,True
46265,203901,1,203826,3887.0,40829.0,44968.0,6.1e-05,0.0,0.0023179999999999997,0.42000000000000004,-0.805,-3.5700000000000003,0.81225,-0.1453125,-0.19328125000000002,1.04725,0.765125,-0.607625,-0.881125,1.0186250000000001,0.01878736773662635,0.027645202939979605,True
46266,203902,1,203827,3887.0,40828.0,44970.0,-0.0018909999999999999,-0.00061,0.00061,0.29750000000000004,-0.9100000000000001,-3.535,0.80865625,-0.14409375,-0.2015,1.04715625,0.7515000000000001,-0.60821875,-0.87640625,1.0186250000000001,0.018860568687036724,0.027130375795338207,True
46267,203903,1,203828,3890.0,40830.0,44970.0,-0.0025009999999999998,-0.0018909999999999999,-0.000488,0.17500000000000002,-0.9975,-3.6400000000000006,0.811125,-0.14571875,-0.2009375,1.0454375,0.761375,-0.60271875,-0.88015625,1.02478125,0.018575182874860117,0.027299617541589997,True
46268,203904,1,203829,3890.0,40830.0,44971.0,-0.00061,0.0,-0.000122,0.15750000000000003,-1.1725,-3.6750000000000003,0.80415625,-0.14575,-0.2003125,1.04803125,0.75253125,-0.61075,-0.8805000000000001,1.02525,0.01889418242028382,0.02733817648359157,True
46269,203905,1,203830,3890.0,40833.0,44973.0,-0.00122,0.0,-0.000244,0.1925,-1.3475000000000001,-3.6925000000000003,0.80415625,-0.14228125,-0.20009375000000001,1.04540625,0.7574062500000001,-0.6079687500000001,-0.8796875000000001,1.02403125,0.018924255989231132,0.027315204421277398,True
46270,203906,1,203831,3893.0,40831.0,44974.0,0.0011589999999999999,6.1e-05,-0.0028669999999999998,0.3325,-1.7850000000000001,-3.9725000000000006,0.81115625,-0.1455,-0.20084375000000002,1.0466875,0.7551875,-0.6090625000000001,-0.880375,1.024375,0.018837064597645687,0.02731193762151897,True
46271,203907,1,203832,3894.0,40833.0,44975.0,0.0018909999999999999,-0.000305,0.000183,0.385,-1.7325000000000002,-3.9200000000000004,0.8115625,-0.1430625,-0.20146875,1.04334375,0.7574062500000001,-0.6100625000000001,-0.8810625,1.02396875,0.018975977813953136,0.027313694903503417,True
46272,203908,1,203833,3895.0,40834.0,44976.0,0.0015249999999999999,0.000976,0.0013419999999999999,0.6300000000000001,-1.6275000000000002,-3.9025000000000003,0.81203125,-0.14659375,-0.20053125,1.05703125,0.75609375,-0.609,-0.8804062500000001,1.0206875,0.018790127595595108,0.027325719410228683,True
46273,203909,1,203834,3894.0,40834.0,44975.0,0.00042699999999999997,0.0021349999999999997,0.002013,0.7525000000000001,-1.5225000000000002,-3.9375000000000004,0.8113750000000001,-0.14753125,-0.19915625,1.0538125,0.75909375,-0.60778125,-0.8823125,1.0110625,0.018703433492200768,0.02745549675095512,True
46274,203910,1,203835,3897.0,40835.0,44978.0,-0.000793,0.001281,0.0034159999999999998,0.7175,-1.5925000000000002,-3.8850000000000002,0.80925,-0.14871875,-0.1998125,1.04275,0.76203125,-0.60728125,-0.8814375,1.02171875,0.018635236267720554,0.027394920410044633,True
46275,203911,1,203836,3897.0,40836.0,44978.0,0.002196,-0.0021349999999999997,-0.00244,0.6125,-2.0300000000000002,-2.8350000000000004,0.8099375,-0.14678125,-0.200375,1.053625,0.75853125,-0.6075625,-0.88046875,1.01878125,0.01872518864881477,0.027334442804659784,True
46276,203912,1,203837,3898.0,40836.0,44978.0,0.002074,0.0034159999999999998,-0.000244,0.6825000000000001,-1.8025000000000002,-3.5700000000000003,0.7945,-0.1464375,-0.20015625,1.05278125,0.7588125,-0.6088125,-0.8800625,1.0193125,0.018789000891448946,0.027327352975901886,True
46277,203913,1,203838,3898.0,40834.0,44979.0,-0.001403,0.0015249999999999999,-0.000549,0.56,-1.6800000000000002,-3.8675,0.80771875,-0.14471875,-0.19859375,1.05159375,0.76175,-0.6076875,-0.88084375,1.02121875,0.018813988514768,0.027420693882216112,True
46278,203914,1,203839,3898.0,40834.0,44980.0,-0.002928,-0.003477,-0.00061,0.5425000000000001,-1.7500000000000002,-3.43,0.8074375,-0.14690625000000002,-0.19875,1.05359375,0.7543125,-0.6076875,-0.883,1.01853125,0.018725093530223027,0.027498693887393,True
46279,203915,1,203840,3901.0,40836.0,44982.0,-0.002257,-0.003111,-0.000183,0.5075000000000001,-1.8025000000000002,-3.6050000000000004,0.807125,-0.1386875,-0.2026875,1.03309375,0.76265625,-0.60684375,-0.8827812500000001,1.0238125,0.01902544896681437,0.0273319024576483,True
46280,203916,1,203841,3901.0,40838.0,44981.0,0.0044529999999999995,-0.0018909999999999999,-0.0015249999999999999,0.4025,-1.7850000000000001,-3.6750000000000003,0.8260625,-0.14190625,-0.19990625,1.0546875,0.75625,-0.60884375,-0.8806875000000001,1.019125,0.018974377859585542,0.02736183435445665,True
46281,203917,1,203842,3902.0,40839.0,44981.0,0.0018909999999999999,-0.000122,0.001403,0.36750000000000005,-1.5050000000000001,-3.8850000000000002,0.80796875,-0.15040625,-0.195,1.04134375,0.76115625,-0.6074375,-0.88121875,1.01915625,0.018572890818070755,0.02757978846996794,True
46282,203918,1,203843,3903.0,40839.0,44983.0,-0.001281,0.002623,0.0030499999999999998,0.525,-1.12,-4.112500000000001,0.81915625,-0.14296875,-0.201875,1.0380625,0.75153125,-0.6074375,-0.8761875,1.02025,0.018875136836169957,0.02710674616035918,True
46283,203919,1,203844,3903.0,40841.0,44986.0,-0.0048189999999999995,0.003111,0.003111,0.5075000000000001,-1.1375000000000002,-4.0075,0.8215625,-0.13853125,-0.2035625,1.03846875,0.75625,-0.60825,-0.88115625,1.02246875,0.019087856714719655,0.027233209871426294,True
46284,203920,1,203845,3903.0,40840.0,44984.0,-0.001647,-0.000122,-0.000976,0.035,-1.4875,-3.6400000000000006,0.8214375,-0.14146875,-0.20253125,1.04009375,0.75675,-0.60878125,-0.88134375,1.02209375,0.01898966451254062,0.027281987131422516,True
46285,203921,1,203846,3902.0,40840.0,44986.0,0.00183,0.002745,-0.002379,0.052500000000000005,-1.435,-4.0425,0.8159375,-0.1428125,-0.19921875,1.04821875,0.75734375,-0.60734375,-0.883625,1.01875,0.01887774863957025,0.027504282434733688,True
46286,203922,1,203847,3904.0,40839.0,44984.0,-0.000976,0.00122,-0.0017079999999999999,0.2625,-1.3650000000000002,-3.7975000000000003,0.81225,-0.1453125,-0.20028125,1.0471875,0.76015625,-0.60371875,-0.88015625,1.01878125,0.018631583894202983,0.027325993983659168,True
46287,203923,1,203848,3906.0,40840.0,44987.0,-0.0011589999999999999,-0.000244,-0.00061,0.49000000000000005,-1.2425000000000002,-3.5000000000000004,0.8111875000000001,-0.1440625,-0.19768750000000002,1.04940625,0.7574375,-0.6080625000000001,-0.8814062500000001,1.02159375,0.01885560880707289,0.027479103999598093,True
46288,203924,1,203849,3906.0,40840.0,44988.0,-0.00061,0.000122,6.1e-05,0.525,-1.2950000000000002,-3.6925000000000003,0.811625,-0.14675,-0.20003125,1.0347187500000001,0.7520625,-0.60690625,-0.88584375,1.01925,0.01870028866387866,0.02755833826208927,True
46289,203925,1,203850,3906.0,40841.0,44989.0,0.000122,0.000305,0.000915,0.5950000000000001,-1.2425000000000002,-3.8500000000000005,0.8165,-0.14309375,-0.202875,1.0415625,0.78378125,-0.6055625,-0.8888125,1.01178125,0.018795292731064367,0.027560073426564646,True
46290,203926,1,203851,3907.0,40842.0,44990.0,0.0,-0.001098,0.0015249999999999999,0.665,-1.2950000000000002,-3.6575,0.81796875,-0.14271875,-0.200625,1.046875,0.770625,-0.6039375,-0.881875,1.03390625,0.018745729215090063,0.027379367511491795,True
46291,203927,1,203852,3907.0,40843.0,44992.0,-0.000732,-0.000732,0.001586,0.665,-1.5050000000000001,-3.7275000000000005,0.7983125,-0.14434375,-0.20034375000000001,1.0479687500000001,0.74584375,-0.61734375,-0.87609375,1.0373125,0.01921409575312121,0.027164634720835138,True
46292,203928,1,203853,3908.0,40842.0,44990.0,0.000793,-0.000732,-0.0011589999999999999,0.525,-1.5575,-3.7800000000000002,0.81125,-0.14321875,-0.2035625,1.04259375,0.75103125,-0.60459375,-0.89078125,1.0085625,0.018751579671987068,0.027609368428321228,True
46293,203929,1,203854,3910.0,40842.0,44992.0,6.1e-05,-6.1e-05,-0.001586,0.3325,-1.8025000000000002,-3.7275000000000005,0.81190625,-0.145625,-0.2010625,1.04446875,0.75865625,-0.61625,-0.877125,1.02925,0.0191184684913421,0.02717607038594693,True
46294,203930,1,203855,3910.0,40840.0,44992.0,6.1e-05,-0.001037,-0.001952,0.42000000000000004,-1.8550000000000002,-3.535,0.8140937500000001,-0.14034375,-0.20346875,1.0423437500000001,0.76553125,-0.60246875,-0.8882187500000001,1.0224375,0.018783684056097014,0.027513017579853926,True
46295,203931,1,203856,3910.0,40842.0,44993.0,0.0,-0.001464,-0.00042699999999999997,0.4025,-1.6625,-3.6050000000000004,0.81084375,-0.14528125,-0.20084375000000002,1.04196875,0.7418750000000001,-0.61621875,-0.8747812500000001,1.01225,0.01913118764432494,0.02709320308093162,True
46296,203932,1,203857,3912.0,40841.0,44993.0,0.0015249999999999999,0.000488,0.0013419999999999999,0.6825000000000001,-1.4525000000000001,-3.8500000000000005,0.81759375,-0.142375,-0.19434375,1.04740625,0.781625,-0.6100625000000001,-0.87503125,1.03953125,0.01900391354146297,0.027364287230794936,True
46297,203933,1,203858,3914.0,40845.0,44994.0,0.000366,0.0013419999999999999,0.001098,0.43750000000000006,-1.5925000000000002,-3.9025000000000003,0.8114687500000001,-0.14575,-0.2005,1.04578125,0.74325,-0.61465625,-0.87815625,1.00553125,0.0190498800892253,0.02723900610600916,True
46298,203934,1,203859,3913.0,40844.0,44993.0,0.00061,-0.003965,-0.000549,0.45500000000000007,-1.6975000000000002,-3.2900000000000005,0.8183125,-0.14215625,-0.2028125,1.0418125,0.7773125,-0.60396875,-0.89090625,1.0150937500000001,0.01876983769132775,0.02764438317708902,True
46299,203935,1,203860,3913.0,40843.0,44993.0,-0.000305,0.0021349999999999997,-0.000488,0.7875000000000001,-1.6275000000000002,-3.535,0.815625,-0.14425,-0.201375,1.0482500000000001,0.7513125,-0.6119687500000001,-0.8758750000000001,1.01865625,0.01900371135486673,0.0271146241086997,True
46300,203936,1,203861,3915.0,40842.0,44994.0,-0.000976,0.003721,0.00061,0.6825000000000001,-1.5925000000000002,-3.6400000000000006,0.816625,-0.14265625,-0.2035625,1.04359375,0.76471875,-0.6055625,-0.881,1.0225,0.018813073263413502,0.027227101000763636,True
46301,203937,1,203862,3914.0,40841.0,44997.0,-0.0013419999999999999,-0.000915,0.00183,0.45500000000000007,-1.7850000000000001,-3.5525,0.811,-0.1464375,-0.202,1.04190625,0.7549375,-0.60621875,-0.8825000000000001,1.0113125,0.018685571101817504,0.02734853812920728,True
46302,203938,1,203863,3916.0,40843.0,44996.0,-0.000549,-0.005978,-0.002013,0.12250000000000001,-1.9425000000000001,-3.7450000000000006,0.8190625,-0.1425625,-0.20096875,1.04746875,0.756375,-0.6098125,-0.8814062500000001,1.0190937500000001,0.018986329131926542,0.027347228414792674,True
46303,203939,1,203864,3918.0,40843.0,44994.0,0.0023179999999999997,-0.007442,-0.003355,0.28,-1.8725000000000003,-3.7100000000000004,0.8114375,-0.14290625,-0.2026875,1.04753125,0.7645625,-0.60746875,-0.8811875,1.02440625,0.018878922684804792,0.027269598768145612,True
46304,203940,1,203865,3919.0,40842.0,44995.0,0.003843,-0.001037,-0.00042699999999999997,0.5425000000000001,-1.6800000000000002,-4.077500000000001,0.81184375,-0.1429375,-0.19943750000000002,1.0389375,0.764125,-0.607125,-0.88115625,1.0185,0.018863946925941167,0.027398997986679174,True
46305,203941,1,203866,3918.0,40840.0,44995.0,-0.001586,0.002257,0.003294,0.43750000000000006,-1.3825,-3.3600000000000003,0.81721875,-0.14125000000000001,-0.20265625,1.0425312500000001,0.75828125,-0.610625,-0.88428125,1.01659375,0.019072047134113822,0.027391789746790456,True
46306,203942,1,203867,3920.0,40843.0,44997.0,-0.001403,0.00183,0.003721,0.5425000000000001,-1.2775,-3.5175000000000005,0.811625,-0.14325000000000002,-0.203125,1.0468125,0.748375,-0.60434375,-0.881625,1.0168125000000001,0.018740339294763753,0.027269119279789804,True
46307,203943,1,203868,3919.0,40843.0,44999.0,-0.002562,0.004026,-0.000976,0.22750000000000004,-1.4175000000000002,-4.0425,0.8140937500000001,-0.1433125,-0.20109375000000002,1.04046875,0.7645625,-0.60703125,-0.87471875,1.0194375,0.018844969362161477,0.027080708198962047,True
46308,203944,1,203869,3919.0,40844.0,45000.0,-0.003294,0.000915,-0.008296,0.052500000000000005,-1.6975000000000002,-3.7975000000000003,0.8162812500000001,-0.1433125,-0.2005,1.0470625,0.7591875,-0.609,-0.88090625,1.01925,0.01892346296070543,0.027346521994149633,True
46309,203945,1,203870,3922.0,40846.0,45000.0,-0.0023179999999999997,-0.002562,-0.009333,0.15750000000000003,-1.9600000000000002,-3.325,0.8182812500000001,-0.14009375,-0.1960625,1.04321875,0.76278125,-0.6091562500000001,-0.8807812500000001,1.0181875,0.019060486886867567,0.027519985932917605,True
46310,203946,1,203871,3923.0,40847.0,45001.0,0.0011589999999999999,-0.001464,0.001769,0.35000000000000003,-1.5925000000000002,-3.4475000000000002,0.82146875,-0.14740625000000002,-0.19843750000000002,1.0428125,0.75025,-0.60928125,-0.8819375,1.0249375,0.018768325466636697,0.027469725779996033,True
46311,203947,1,203872,3923.0,40846.0,45000.0,0.001037,-0.00183,0.0062829999999999995,0.385,-1.2950000000000002,-3.1850000000000005,0.81315625,-0.14340625,-0.20003125,1.0383437500000001,0.75603125,-0.60671875,-0.88428125,1.0238125,0.01882869897068255,0.02749727802566128,True
46312,203948,1,203873,3924.0,40845.0,44998.0,0.0032329999999999998,-0.0013419999999999999,0.0064659999999999995,0.45500000000000007,-1.225,-3.3075,0.82603125,-0.14359375,-0.19678125,1.0481875,0.757375,-0.6069687500000001,-0.88434375,1.01921875,0.01883104760719461,0.027630324790060015,True
46313,203949,1,203874,3924.0,40844.0,44995.0,0.005612,0.000122,0.0030499999999999998,0.43750000000000006,-1.05,-3.3775000000000004,0.82278125,-0.144875,-0.1985,1.03690625,0.75703125,-0.6110625000000001,-0.8827812500000001,1.01934375,0.01894219317024611,0.027500191523003484,True
46314,203950,1,203875,3923.0,40843.0,44994.0,0.0017079999999999999,0.000183,0.0,0.31500000000000006,-0.9450000000000001,-3.5525,0.81096875,-0.1438125,-0.203,1.0510625,0.7569375,-0.60678125,-0.88221875,1.02678125,0.018814681420390975,0.02729735466215206,True
46315,203951,1,203876,3923.0,40843.0,44991.0,-0.004331,-0.001586,0.0008539999999999999,0.3325,-0.6125,-3.4650000000000003,0.8069375,-0.14121875,-0.20140625,1.0555,0.7604375,-0.6095,-0.8806875000000001,1.0195625,0.01902847477600114,0.02730154663129787,True
46316,203952,1,203877,3924.0,40841.0,44990.0,-0.004514,-0.000976,0.0018909999999999999,0.31500000000000006,-0.7525000000000001,-3.5875000000000004,0.8199062500000001,-0.141125,-0.20378125,1.0478125,0.759375,-0.6099375,-0.8805625,1.0190000000000001,0.019049723307911694,0.02720120375092002,True
46317,203953,1,203878,3922.0,40843.0,44988.0,-0.0028669999999999998,0.000122,0.001586,0.31500000000000006,-0.8925000000000001,-3.6050000000000004,0.80453125,-0.136,-0.20521875,1.057625,0.76365625,-0.60921875,-0.875,1.01834375,0.019229328440180573,0.026925879396984924,True
46318,203954,1,203879,3923.0,40844.0,44986.0,-0.001037,0.000732,0.001464,0.31500000000000006,-1.3475000000000001,-3.6575,0.80553125,-0.14528125,-0.204375,1.03075,0.76503125,-0.605625,-0.8815000000000001,1.01940625,0.01870888262338388,0.027213994333139084,True
46319,203955,1,203880,3922.0,40843.0,44985.0,0.002257,0.0,0.001037,0.385,-1.6450000000000002,-3.6575,0.81040625,-0.15121875,-0.19796875,1.03728125,0.75665625,-0.608,-0.8834062500000001,1.0240625,0.018562306973342,0.027545967505955903,True
46320,203956,1,203881,3920.0,40842.0,44980.0,0.002013,0.001281,0.000366,0.31500000000000006,-2.205,-3.7800000000000002,0.82446875,-0.14325000000000002,-0.19868750000000002,1.03796875,0.7498750000000001,-0.607875,-0.88128125,1.02228125,0.0188811508510995,0.02743402733731809,True
46321,203957,1,203882,3921.0,40841.0,44980.0,0.001403,0.0008539999999999999,-0.000488,0.29750000000000004,-2.5375,-3.7100000000000004,0.81403125,-0.14559375,-0.20225,1.03678125,0.748,-0.6081875,-0.8849375,1.02684375,0.018798367413284705,0.02743376389834212,True
46322,203958,1,203883,3919.0,40842.0,44978.0,0.0021349999999999997,0.001952,-0.000732,0.22750000000000004,-2.7125000000000004,-3.5875000000000004,0.80434375,-0.1426875,-0.2004375,1.0465,0.757125,-0.6086875,-0.88190625,1.01246875,0.0189364020328187,0.02738812465383355,True
46323,203959,1,203884,3919.0,40838.0,44976.0,0.001098,0.000488,-0.0013419999999999999,0.15750000000000003,-2.8000000000000003,-3.6925000000000003,0.8091875000000001,-0.14353125,-0.20021875,1.0425,0.7639375,-0.61084375,-0.88165625,1.0184375,0.018988073092780496,0.027387143892400653,True
46324,203960,1,203885,3918.0,40837.0,44976.0,-0.001647,-0.0008539999999999999,-0.0050019999999999995,0.14,-2.765,-3.43,0.80990625,-0.14228125,-0.20025,1.0386250000000001,0.75734375,-0.60865625,-0.87440625,1.01571875,0.018951664620046046,0.027102405710689077,True
46325,203961,1,203886,3916.0,40837.0,44973.0,0.00244,-0.003843,-0.003172,-0.10500000000000001,-2.205,-3.3775000000000004,0.817875,-0.1421875,-0.1975625,1.04221875,0.7603125000000001,-0.60834375,-0.88128125,1.01859375,0.018943016024798497,0.027479242050688208,True
46326,203962,1,203887,3915.0,40836.0,44972.0,0.000976,-0.001403,-0.000366,-0.0175,-1.5750000000000002,-3.5000000000000004,0.81503125,-0.14659375,-0.20225,1.04315625,0.7566875000000001,-0.60765625,-0.8861875,1.02725,0.018736546679450627,0.027482614602980068,True
46327,203963,1,203888,3914.0,40835.0,44972.0,0.0006709999999999999,0.002074,-0.0015249999999999999,0.22750000000000004,-1.6275000000000002,-3.5175000000000005,0.81159375,-0.14609375,-0.20284375000000002,1.0423125,0.75628125,-0.60809375,-0.88496875,1.022125,0.01877431078951412,0.027411125440935102,True
46328,203964,1,203889,3913.0,40836.0,44968.0,0.000183,0.000366,-0.000122,0.28,-1.435,-3.535,0.81765625,-0.142625,-0.20275,1.04696875,0.757,-0.606,-0.88253125,1.0243125,0.01883178899455417,0.027319618055337516,True
46329,203965,1,203890,3912.0,40834.0,44969.0,-0.002745,-0.000244,0.0021349999999999997,0.08750000000000001,-1.3825,-3.6050000000000004,0.81234375,-0.14571875,-0.204625,1.042875,0.76325,-0.60771875,-0.88571875,1.01928125,0.018774596893505212,0.027368859900821635,True
46330,203966,1,203891,3910.0,40831.0,44968.0,-0.002806,-0.0008539999999999999,0.001769,0.12250000000000001,-1.3650000000000002,-3.5875000000000004,0.8181875000000001,-0.13540625,-0.20175,1.05040625,0.75575,-0.6095625,-0.88234375,1.02025,0.01926715478993176,0.027352477597694148,True
46331,203967,1,203892,3910.0,40832.0,44969.0,0.00122,0.000976,0.001769,0.1925,-1.435,-3.5700000000000003,0.8123750000000001,-0.14309375,-0.2043125,1.041,0.76509375,-0.60784375,-0.88409375,1.02315625,0.01888625450980442,0.027317902626050022,True
46332,203968,1,203893,3908.0,40833.0,44966.0,0.002623,0.000549,0.000488,0.15750000000000003,-1.7850000000000001,-3.5525,0.81696875,-0.14278125,-0.20478125,1.04578125,0.75665625,-0.6091875,-0.88246875,1.02428125,0.018952525352574114,0.027235541087537785,True
46333,203969,1,203894,3907.0,40835.0,44963.0,0.00183,-0.000976,0.002257,0.10500000000000001,-1.7850000000000001,-3.5000000000000004,0.81234375,-0.14421875,-0.20140625,1.04278125,0.7569375,-0.60790625,-0.879,1.019375,0.018843029361752382,0.027235570159572328,True
46334,203970,1,203895,3907.0,40833.0,44963.0,0.0011589999999999999,0.0,0.004941,0.17500000000000002,-1.2775,-3.7100000000000004,0.814875,-0.1384375,-0.20253125,1.0406875,0.7588125,-0.6099375,-0.87934375,1.01803125,0.01915892716102997,0.027203792302600425,True
46335,203971,1,203896,3905.0,40832.0,44962.0,6.1e-05,0.001281,-0.000732,0.14,-1.4000000000000001,-3.6225000000000005,0.80196875,-0.1435625,-0.1985,1.05071875,0.7579375,-0.608,-0.88434375,1.0186250000000001,0.01887343546814044,0.027561255257133314,True
46336,203972,1,203897,3904.0,40831.0,44963.0,-0.002257,-0.00122,-0.0046359999999999995,0.17500000000000002,-1.4525000000000001,-3.5700000000000003,0.8122812500000001,-0.14490625000000001,-0.20090625,1.03809375,0.75215625,-0.608375,-0.8849375,1.0186875,0.01883378118221947,0.027487762426568283,True
46337,203973,1,203898,3904.0,40833.0,44958.0,-0.002196,-0.001281,-0.003172,0.22750000000000004,-1.4525000000000001,-3.7100000000000004,0.80953125,-0.14253125,-0.20228125,1.03515625,0.76028125,-0.6081562500000001,-0.882125,1.02521875,0.018921571988961994,0.02732257594558343,True
46338,203974,1,203899,3904.0,40830.0,44958.0,-0.0034159999999999998,-0.000793,-0.0028669999999999998,0.15750000000000003,-1.5575,-3.7975000000000003,0.81165625,-0.1433125,-0.201,1.04678125,0.756875,-0.60921875,-0.88190625,1.01896875,0.018932183696404422,0.027365517865014864,True
46339,203975,1,203900,3902.0,40829.0,44958.0,0.0018909999999999999,0.00122,0.001281,0.36750000000000005,-1.8375000000000001,-3.7100000000000004,0.81171875,-0.14121875,-0.20084375000000002,1.0422500000000001,0.7635625,-0.6072500000000001,-0.88290625,1.01940625,0.018938778205610136,0.0274108857360663,True
46340,203976,1,203901,3902.0,40832.0,44958.0,0.003355,0.000305,0.0008539999999999999,0.28,-2.1175,-3.7275000000000005,0.8156875,-0.14296875,-0.2029375,1.04309375,0.76296875,-0.6072500000000001,-0.8825625,1.023875,0.018867660953580757,0.02731330424669887,True
46341,203977,1,203902,3901.0,40831.0,44957.0,0.002013,0.000915,0.0008539999999999999,0.22750000000000004,-1.995,-3.6925000000000003,0.8162812500000001,-0.14315625,-0.201125,1.04403125,0.75728125,-0.6093125,-0.88271875,1.02340625,0.01894227032957544,0.027392253911160735,True
46342,203978,1,203903,3902.0,40830.0,44956.0,0.001769,0.000793,-0.00042699999999999997,0.24500000000000002,-1.6800000000000002,-3.7800000000000002,0.81234375,-0.1426875,-0.20084375000000002,1.04565625,0.7574375,-0.61034375,-0.88328125,1.02528125,0.019002426571144503,0.027425543003899457,True
46343,203979,1,203904,3901.0,40830.0,44959.0,0.000305,0.000183,0.001098,0.29750000000000004,-1.4875,-3.7100000000000004,0.81221875,-0.13890625,-0.201125,1.0464375000000001,0.75746875,-0.60765625,-0.88434375,1.0191875,0.019048949450437808,0.027455767243208896,True
46344,203980,1,203905,3900.0,40832.0,44958.0,-0.0021349999999999997,-0.001647,-0.002745,0.17500000000000002,-1.5575,-3.6400000000000006,0.8119375,-0.14428125,-0.2004375,1.039875,0.76875,-0.6080625000000001,-0.88571875,1.0173125,0.01884671944408464,0.0275371291014048,True
46345,203981,1,203906,3902.0,40828.0,44956.0,-0.0021349999999999997,-0.000793,-0.0037819999999999998,0.10500000000000001,-1.61,-3.7275000000000005,0.81115625,-0.145375,-0.2013125,1.0423125,0.7596875000000001,-0.60346875,-0.88775,1.0115,0.01861907175182361,0.02758134021757692,True
46346,203982,1,203907,3901.0,40831.0,44958.0,-0.000488,0.0008539999999999999,-0.000732,0.3325,-1.4525000000000001,-3.7625,0.8180000000000001,-0.13809375000000002,-0.20396875,1.04315625,0.7635937500000001,-0.60709375,-0.8827812500000001,1.02225,0.01905954456730592,0.027280411027203803,True
46347,203983,1,203908,3900.0,40830.0,44956.0,0.0011589999999999999,-0.000183,-0.000366,0.45500000000000007,-1.435,-3.7100000000000004,0.82221875,-0.14290625,-0.20425000000000001,1.0388125,0.754,-0.6138125,-0.88071875,1.026,0.01913178829976055,0.027188473001809883,True
46348,203984,1,203909,3901.0,40831.0,44958.0,0.000976,-0.000305,0.00122,0.56,-1.2950000000000002,-3.6400000000000006,0.81253125,-0.1343125,-0.20209375000000002,1.04665625,0.75265625,-0.610625,-0.8768125,1.0249375,0.019353937577773827,0.027122395604340387,True
46349,203985,1,203910,3901.0,40831.0,44956.0,0.000244,0.0008539999999999999,0.003538,0.43750000000000006,-0.8750000000000001,-3.7450000000000006,0.80509375,-0.1404375,-0.20840625000000002,1.04521875,0.7546875000000001,-0.6086875,-0.88015625,1.0244375000000001,0.019027833158513637,0.026999428510421836,True
46350,203986,1,203911,3901.0,40831.0,44955.0,-0.0025009999999999998,0.002074,0.0013419999999999999,0.56,-0.8400000000000001,-3.8675,0.80034375,-0.1526875,-0.194625,1.03140625,0.7640625,-0.60684375,-0.8871875,1.01715625,0.018456501557620533,0.027828074184758723,True
46351,203987,1,203912,3899.0,40830.0,44957.0,-0.003111,0.002013,0.002379,0.7000000000000001,-0.8925000000000001,-3.8325000000000005,0.8180000000000001,-0.14100000000000001,-0.2085625,1.03078125,0.75653125,-0.612375,-0.8780625,1.0303437500000001,0.019151951000259015,0.026911259669035723,True
46352,203988,1,203913,3902.0,40831.0,44959.0,-0.002257,0.001098,0.001037,0.5075000000000001,-1.12,-3.7100000000000004,0.8189375,-0.14615625000000002,-0.19621875,1.05265625,0.7530625,-0.60884375,-0.88709375,1.01371875,0.01880167571871393,0.027760372783583863,True
46353,203989,1,203914,3899.0,40831.0,44958.0,0.000305,-0.000793,0.000183,0.35000000000000003,-1.2950000000000002,-3.6925000000000003,0.820625,-0.1410625,-0.20459375,1.03765625,0.7601875,-0.609,-0.8808125,1.03159375,0.019014892925352512,0.027178322653249366,True
46354,203990,1,203915,3900.0,40832.0,44957.0,0.003172,-0.000915,-0.001037,0.28,-1.61,-3.6225000000000005,0.7920625,-0.15384375,-0.19584375,1.03534375,0.757625,-0.6074375,-0.88384375,1.01615625,0.01843319728029381,0.02764846166501106,True
46355,203991,1,203916,3903.0,40831.0,44959.0,0.002379,-0.0013419999999999999,-0.0018909999999999999,0.3325,-1.5750000000000002,-3.5700000000000003,0.83153125,-0.139125,-0.19603125,1.0601875,0.7535625,-0.609375,-0.88271875,1.016125,0.01910857142857143,0.027596964258578056,True
46356,203992,1,203917,3901.0,40834.0,44958.0,0.00183,-0.001464,-0.002074,0.1925,-1.4525000000000001,-3.6050000000000004,0.82425,-0.14096875,-0.207375,1.059625,0.76175,-0.6071875,-0.8809375,1.01971875,0.0189464460332982,0.027071427674298848,True
46357,203993,1,203918,3901.0,40831.0,44959.0,-0.001403,-0.001586,-0.000305,0.22750000000000004,-1.2775,-3.6050000000000004,0.8039375,-0.14378125,-0.21,1.05140625,0.7625000000000001,-0.60359375,-0.8825000000000001,1.0243125,0.018688834837390374,0.027027027027027032,True
46358,203994,1,203919,3904.0,40834.0,44962.0,-0.0021349999999999997,0.000366,0.000244,0.3325,-1.1375000000000002,-3.8150000000000004,0.800125,-0.15365625,-0.20215625,1.0324375000000001,0.7625625,-0.607,-0.8856875000000001,1.02115625,0.018423365302556182,0.02746684213566533,True
46359,203995,1,203920,3901.0,40835.0,44963.0,-0.0006709999999999999,0.0006709999999999999,0.000244,0.4025,-1.2075,-3.8500000000000005,0.8190937500000001,-0.14034375,-0.19696875,1.04265625,0.7574375,-0.61021875,-0.8835000000000001,1.0200625,0.019092678727205544,0.0275898185544638,True
46360,203996,1,203921,3903.0,40836.0,44966.0,0.002257,-0.000122,0.000549,0.5075000000000001,-1.3125000000000002,-3.7450000000000006,0.81196875,-0.1414375,-0.19975,1.04809375,0.75665625,-0.60946875,-0.88228125,1.02578125,0.01901834024759271,0.02743041295701133,True
46361,203997,1,203922,3904.0,40836.0,44965.0,0.001037,0.000122,0.0025009999999999998,0.6125,-1.3475000000000001,-3.7100000000000004,0.812125,-0.14421875,-0.20171875,1.04290625,0.75784375,-0.607375,-0.886125,1.0204375,0.0188218471088444,0.02750151942096249,True
46362,203998,1,203923,3905.0,40837.0,44965.0,-0.003477,0.0021349999999999997,-0.000183,0.5425000000000001,-1.6975000000000002,-3.7800000000000002,0.8178125,-0.14315625,-0.20015625,1.048,0.7571875,-0.6085,-0.88234375,1.02465625,0.018909878700449034,0.027416529039793525,True
46363,203999,1,203924,3904.0,40839.0,44967.0,-0.002013,0.00122,0.002562,0.6125,-1.7850000000000001,-3.7625,0.81159375,-0.14375000000000002,-0.200875,1.046125,0.7436875000000001,-0.6075,-0.87921875,1.01959375,0.018845880321040332,0.027265476332531544,True
46364,204000,1,203925,3905.0,40835.0,44968.0,0.0011589999999999999,6.1e-05,-0.000915,0.42000000000000004,-2.1350000000000002,-3.6575,0.8133125,-0.14225000000000002,-0.20415625,1.042375,0.76303125,-0.60653125,-0.88375,1.0260625,0.018868212072760154,0.027310744964082985,True
46365,204001,1,203926,3905.0,40836.0,44967.0,0.002074,-0.000549,-0.00061,0.1925,-2.1175,-3.6750000000000003,0.818625,-0.14259375,-0.2013125,1.0426875,0.7565000000000001,-0.60903125,-0.88121875,1.02575,0.018953915546756846,0.0273260830521013,True
46366,204002,1,203927,3906.0,40837.0,44966.0,0.00122,-0.001586,-0.0032329999999999998,-0.0175,-2.0125,-3.7100000000000004,0.81884375,-0.14234375,-0.2019375,1.03565625,0.75721875,-0.6098750000000001,-0.88234375,1.0230000000000001,0.018997709252891373,0.02734494213391775,True
46367,204003,1,203928,3906.0,40838.0,44968.0,-0.00042699999999999997,-0.000183,-0.002013,0.14,-1.9250000000000003,-3.7625,0.818125,-0.142625,-0.20384375000000002,1.04290625,0.75775,-0.6036875,-0.88534375,1.02009375,0.01873956901785556,0.027385597195136193,True
46368,204004,1,203929,3906.0,40841.0,44969.0,-0.00122,-0.000549,-0.000915,0.14,-1.8375000000000001,-3.6750000000000003,0.81784375,-0.1429375,-0.20234375000000002,1.04246875,0.76190625,-0.60671875,-0.88284375,1.0255625,0.01884774864588559,0.027348160316282177,True
46369,204005,1,203930,3909.0,40841.0,44971.0,-0.001037,-0.00042699999999999997,-0.00042699999999999997,0.035,-2.1,-3.6750000000000003,0.81634375,-0.1426875,-0.20153125,1.03846875,0.757,-0.61021875,-0.8819375,1.02128125,0.018997443897161622,0.02734538859765242,True
46370,204006,1,203931,3909.0,40841.0,44969.0,0.001647,-0.000305,0.001098,0.0,-2.1175,-3.6400000000000006,0.81203125,-0.1456875,-0.196125,1.04296875,0.7529375,-0.60721875,-0.8837812500000001,1.019625,0.018755929090929872,0.027634716890143057,True
46371,204007,1,203932,3909.0,40842.0,44973.0,0.004209,-0.000183,0.000244,-0.052500000000000005,-2.1700000000000004,-3.6225000000000005,0.8150000000000001,-0.14275000000000002,-0.202625,1.042875,0.7652187500000001,-0.6065625,-0.886,1.01928125,0.018849138314220037,0.02746021859680142,True
46372,204008,1,203933,3910.0,40842.0,44974.0,0.003965,0.00042699999999999997,-0.000549,0.0175,-2.0475000000000003,-3.6400000000000006,0.8189062500000001,-0.1424375,-0.200875,1.04940625,0.757,-0.6068125,-0.88203125,1.02440625,0.01887180633411987,0.027375427799930924,True
46373,204009,1,203934,3911.0,40844.0,44971.0,0.001769,-0.000183,0.000915,0.22750000000000004,-1.5750000000000002,-3.43,0.8123125,-0.14153125,-0.20084375000000002,1.0488125,0.7563125,-0.6085625,-0.8746875000000001,1.01946875,0.018978404366366382,0.027089536300707297,True
46374,204010,1,203935,3911.0,40846.0,44973.0,-0.003721,-0.001647,-0.002074,0.22750000000000004,-1.5050000000000001,-3.4650000000000003,0.812625,-0.14671875,-0.20053125,1.0451875,0.76296875,-0.60296875,-0.8834375,1.0181875,0.018544509999428426,0.027444208622703355,True
46375,204011,1,203936,3911.0,40843.0,44975.0,-0.001647,-0.00061,-6.1e-05,0.3325,-1.4700000000000002,-3.4825000000000004,0.81171875,-0.14315625,-0.20015625,1.0394375,0.76228125,-0.606875,-0.88275,1.01978125,0.01884508902491682,0.027432407993489463,True
46376,204012,1,203937,3913.0,40843.0,44975.0,-0.000183,-6.1e-05,0.000122,0.3325,-1.4700000000000002,-3.6925000000000003,0.8199375,-0.14265625,-0.202375,1.04603125,0.7585625,-0.6066875,-0.8824062500000001,1.02378125,0.018857932421826384,0.027329802558785893,True
46377,204013,1,203938,3913.0,40844.0,44976.0,0.0011589999999999999,0.000366,0.0006709999999999999,0.35000000000000003,-1.4525000000000001,-3.7275000000000005,0.81165625,-0.1434375,-0.2015625,1.0484375,0.75725,-0.60940625,-0.88121875,1.01928125,0.018934579130693168,0.02731603531277985,True
46378,204014,1,203939,3912.0,40847.0,44977.0,0.0013419999999999999,0.00042699999999999997,0.0017079999999999999,0.28,-1.4000000000000001,-3.7100000000000004,0.8185,-0.14296875,-0.2033125,1.0436875,0.761875,-0.59946875,-0.88221875,1.02415625,0.018557311324050443,0.02728479549276529,True
46379,204015,1,203940,3914.0,40843.0,44980.0,-0.001403,0.000244,-0.000488,0.31500000000000006,-1.33,-3.9025000000000003,0.81375,-0.1424375,-0.2010625,1.0505,0.7574375,-0.6098125,-0.87721875,1.0256875,0.01899140840670769,0.027179736480791285,True
46380,204016,1,203941,3914.0,40846.0,44980.0,-0.000488,0.000305,0.002013,0.385,-1.4700000000000002,-3.8500000000000005,0.81121875,-0.14459375,-0.20009375000000001,1.0425,0.7565625,-0.60646875,-0.8827812500000001,1.01990625,0.018770470671457075,0.02743614120708472,True
46381,204017,1,203942,3915.0,40846.0,44981.0,-0.000915,0.0,0.000732,0.35000000000000003,-1.5925000000000002,-3.7100000000000004,0.813875,-0.14228125,-0.20184375000000002,1.04309375,0.76725,-0.60678125,-0.88390625,1.01928125,0.018876910201329155,0.027409784185310537,True
46382,204018,1,203943,3917.0,40847.0,44982.0,-0.00183,-0.00061,0.0008539999999999999,0.36750000000000005,-1.7500000000000002,-3.7800000000000002,0.81953125,-0.14250000000000002,-0.20290625,1.03578125,0.77425,-0.6061562500000001,-0.88509375,1.01225,0.01884309947840797,0.02741349929613988,True
46383,204019,1,203944,3916.0,40847.0,44982.0,0.002928,6.1e-05,-0.001586,0.3325,-1.8025000000000002,-3.8850000000000002,0.80603125,-0.14475,-0.2009375,1.0425312500000001,0.75021875,-0.61428125,-0.87934375,1.01421875,0.01907556207841738,0.027267851468148148,True
46384,204020,1,203945,3917.0,40846.0,44982.0,0.001952,0.0008539999999999999,-0.00122,0.35000000000000003,-1.9775000000000003,-3.9200000000000004,0.81684375,-0.13568750000000002,-0.2005625,1.04240625,0.7631875,-0.60875,-0.8803125,1.01921875,0.019223345354802662,0.02732079832196642,True
46385,204021,1,203946,3916.0,40847.0,44982.0,-0.001403,-0.000122,-0.000122,0.36750000000000005,-1.8900000000000001,-4.0075,0.8186875,-0.1429375,-0.2044375,1.0421875,0.7745625,-0.6050625000000001,-0.8806875000000001,1.01296875,0.018781703968441456,0.027179715190747845,True
46386,204022,1,203947,3920.0,40848.0,44984.0,-0.0028669999999999998,0.0013419999999999999,-0.0013419999999999999,0.385,-2.0125,-3.9200000000000004,0.81896875,-0.14175000000000001,-0.20146875,1.0424375000000001,0.7644375,-0.6012500000000001,-0.886,1.01475,0.018677912707687618,0.027506680462910875,True
46387,204023,1,203948,3920.0,40848.0,44983.0,0.000732,0.000183,-0.0013419999999999999,0.3325,-2.1700000000000004,-3.8500000000000005,0.80721875,-0.13871875,-0.20465625,1.04278125,0.7721250000000001,-0.60509375,-0.88171875,1.0305625,0.01895440857647616,0.02721124319436333,True
46388,204024,1,203949,3921.0,40848.0,44986.0,0.000915,0.0011589999999999999,-0.0015249999999999999,0.3325,-1.9775000000000003,-3.7800000000000002,0.81234375,-0.14603125,-0.19675,1.04840625,0.74059375,-0.6138750000000001,-0.87884375,1.0305625,0.019007318026925873,0.027416617783935397,True
46389,204025,1,203950,3920.0,40847.0,44987.0,0.000305,-6.1e-05,0.000366,0.29750000000000004,-1.5575,-3.8150000000000004,0.81225,-0.14478125,-0.2006875,1.04428125,0.75375,-0.60959375,-0.88453125,1.01321875,0.018887451159164303,0.027480676374002425,True
46390,204026,1,203951,3922.0,40849.0,44987.0,-0.002196,-0.000488,0.001769,0.43750000000000006,-1.3650000000000002,-3.7275000000000005,0.818125,-0.14165625,-0.20350000000000001,1.0345312500000001,0.7740312500000001,-0.6052500000000001,-0.8886875,1.01396875,0.018841253391044595,0.027530077670829368,True
46391,204027,1,203952,3921.0,40848.0,44986.0,-0.0026839999999999998,0.0008539999999999999,0.000183,0.29750000000000004,-1.5225000000000002,-3.7975000000000003,0.8140937500000001,-0.14259375,-0.2015625,1.04325,0.7660625,-0.60478125,-0.88415625,1.025125,0.018784458813264196,0.027430857737039006,True
46392,204028,1,203953,3923.0,40850.0,44987.0,-0.000183,0.000183,-0.00061,0.35000000000000003,-1.61,-3.6575,0.81459375,-0.14415625,-0.2008125,1.0476875,0.75053125,-0.6115,-0.8803125,1.02909375,0.01898883651951324,0.027310750216662273,True
46393,204029,1,203954,3923.0,40849.0,44989.0,0.0015249999999999999,-0.000549,0.0,0.1925,-1.4525000000000001,-3.6925000000000003,0.8113125,-0.14484375,-0.2010625,1.0489375,0.7500625,-0.60959375,-0.8795000000000001,1.0246875,0.018884911499199377,0.027268936272835068,True
46394,204030,1,203955,3924.0,40851.0,44993.0,0.001037,-0.001098,0.002074,0.21000000000000002,-1.3125000000000002,-3.6750000000000003,0.81178125,-0.14646875,-0.20078125,1.04278125,0.7579375,-0.607875,-0.885375,1.0195625,0.018750349227635462,0.027509882812696212,True
46395,204031,1,203956,3924.0,40853.0,44992.0,-0.000793,-0.000305,0.000793,0.36750000000000005,-1.1375000000000002,-3.5525,0.816625,-0.142875,-0.202625,1.042625,0.762625,-0.60703125,-0.8805000000000001,1.0205,0.018862748833222216,0.027245232209963624,True
46396,204032,1,203957,3923.0,40852.0,44994.0,-0.001769,0.000366,-6.1e-05,0.28,-1.1900000000000002,-3.4825000000000004,0.81803125,-0.1390625,-0.202875,1.04265625,0.76471875,-0.607,-0.8824375,1.02640625,0.019016438411834032,0.027310929646663432,True
46397,204033,1,203958,3927.0,40852.0,44995.0,-0.002013,-0.000732,-0.000549,0.17500000000000002,-1.1025,-3.5175000000000005,0.81665625,-0.13596875,-0.1965625,1.04921875,0.7575937500000001,-0.606875,-0.88184375,1.02640625,0.01913718218993676,0.027541417625050395,True
46398,204034,1,203959,3927.0,40853.0,44995.0,-0.002806,-0.001769,-0.00122,0.2625,-1.155,-3.7450000000000006,0.8125625,-0.13775,-0.195375,1.04721875,0.7599375,-0.6071562500000001,-0.88425,1.01946875,0.019076005582725555,0.027683173091413243,True
46399,204035,1,203960,3928.0,40855.0,44996.0,0.001037,-6.1e-05,0.0015249999999999999,0.49000000000000005,-1.2950000000000002,-3.7800000000000002,0.81159375,-0.13815625,-0.20240625,1.042625,0.76334375,-0.6069375,-0.886125,1.01859375,0.019050775822875156,0.02747389358528096,True
46400,204036,1,203961,3930.0,40854.0,44997.0,0.00183,0.000732,0.001586,0.6300000000000001,-1.3650000000000002,-3.8500000000000005,0.8180625,-0.14259375,-0.20290625,1.0421875,0.7574375,-0.60965625,-0.87621875,1.02509375,0.018978830718125127,0.027066513072851957,True
46401,204037,1,203962,3931.0,40855.0,44998.0,0.004392,0.0011589999999999999,0.001647,0.7525000000000001,-1.2950000000000002,-3.7450000000000006,0.814625,-0.139875,-0.20046875,1.04875,0.7575625,-0.60784375,-0.8817812500000001,1.0159375,0.01901705629937609,0.02738198254998324,True
46402,204038,1,203963,3930.0,40853.0,45002.0,0.001769,0.002196,0.002013,0.7175,-1.2950000000000002,-3.7800000000000002,0.8132812500000001,-0.1425625,-0.20496875,1.0433125,0.7645000000000001,-0.60709375,-0.88390625,1.01646875,0.01887794043130347,0.02728420100843291,True
46403,204039,1,203964,3932.0,40858.0,45002.0,-0.0028669999999999998,0.001281,-0.000244,0.7525000000000001,-1.435,-3.7100000000000004,0.8166875,-0.14609375,-0.20146875,1.05340625,0.757,-0.60909375,-0.88196875,1.019375,0.01881418327320566,0.027349122042442886,True
46404,204040,1,203965,3933.0,40854.0,45000.0,-0.000732,0.000183,0.0008539999999999999,0.6825000000000001,-1.61,-3.6750000000000003,0.8192812500000001,-0.14100000000000001,-0.2065625,1.03796875,0.763625,-0.6071562500000001,-0.879625,1.0267187500000001,0.018943930182911732,0.027052759034752332,True
46405,204041,1,203966,3933.0,40859.0,45003.0,0.002745,0.000244,-0.0008539999999999999,0.5950000000000001,-1.7850000000000001,-3.6050000000000004,0.80315625,-0.14696875,-0.19965625,1.0391875,0.7461875,-0.60728125,-0.88434375,1.01996875,0.018706353429434632,0.027514790298618988,True
46406,204042,1,203967,3935.0,40858.0,45004.0,0.001464,-0.000244,-0.002074,0.5425000000000001,-1.7325000000000002,-3.6400000000000006,0.82534375,-0.14159375,-0.20003125,1.0475625,0.7518125,-0.6089687500000001,-0.8815937500000001,1.0200625,0.018992059551459266,0.027392236480028538,True
46407,204043,1,203968,3938.0,40857.0,45004.0,0.00122,0.000244,-0.001098,0.49000000000000005,-1.5225000000000002,-3.5700000000000003,0.80803125,-0.1425625,-0.20353125,1.0442500000000001,0.7652187500000001,-0.6065625,-0.88203125,1.02584375,0.01885675823268691,0.02726867405570034,True
46408,204044,1,203969,3939.0,40857.0,45007.0,-0.0021349999999999997,0.000549,0.000244,0.45500000000000007,-1.3125000000000002,-3.4475000000000002,0.8082812500000001,-0.14834375,-0.20196875,1.0295625,0.75721875,-0.60675,-0.8854062500000001,1.02378125,0.018629288711430807,0.027463385292333737,True
46409,204045,1,203970,3937.0,40858.0,45006.0,-0.003172,-0.0021349999999999997,0.003355,0.12250000000000001,-1.3650000000000002,-3.4475000000000002,0.8096875,-0.147625,-0.2029375,1.0393125,0.75728125,-0.6068125,-0.8824375,1.0230625,0.018660990731733336,0.027308417834868468,True
46410,204046,1,203971,3938.0,40859.0,45009.0,0.000366,-0.003721,-0.0028669999999999998,0.0175,-1.5750000000000002,-3.4125000000000005,0.81859375,-0.14659375,-0.198375,1.05203125,0.75771875,-0.6014375,-0.8837812500000001,1.01978125,0.018488502958414525,0.02754429654858022,True
46411,204047,1,203972,3939.0,40862.0,45010.0,0.005612,-0.0060999999999999995,-0.0015249999999999999,0.08750000000000001,-1.715,-3.43,0.81896875,-0.14153125,-0.2063125,1.04003125,0.7625000000000001,-0.60603125,-0.88203125,1.0243125,0.01887748557581792,0.027156896605858898,True
46412,204048,1,203973,3940.0,40860.0,45013.0,0.003111,0.00183,-0.0018909999999999999,0.24500000000000002,-1.995,-3.8850000000000002,0.8260625,-0.140125,-0.20021875,1.0495,0.75675,-0.6084375,-0.881,1.0195625,0.01903056624379341,0.027361490695711588,True
46413,204049,1,203974,3940.0,40861.0,45013.0,-0.0008539999999999999,0.0021349999999999997,0.0051849999999999995,0.5950000000000001,-1.33,-3.8150000000000004,0.80871875,-0.1451875,-0.19865625,1.0445625,0.7594062500000001,-0.6073125,-0.88428125,1.015375,0.01877998664015016,0.02755253379078409,True
46414,204050,1,203975,3941.0,40862.0,45014.0,-0.00042699999999999997,0.0015249999999999999,0.005856,0.6825000000000001,-1.0850000000000002,-3.6225000000000005,0.817125,-0.14096875,-0.20446875,1.04065625,0.759125,-0.60678125,-0.8819375,1.02321875,0.018930249156419027,0.02722733107098272,True
46415,204051,1,203976,3943.0,40860.0,45016.0,-0.002562,0.0025009999999999998,-0.000305,0.47250000000000003,-1.0675000000000001,-3.6050000000000004,0.8130625,-0.14453125,-0.2000625,1.049375,0.7557812500000001,-0.608125,-0.8827812500000001,1.0193125,0.018839052142331038,0.027437397095632147,True
46416,204052,1,203977,3944.0,40864.0,45018.0,-0.004331,-0.00061,-0.0059169999999999995,0.4025,-1.3650000000000002,-3.5175000000000005,0.81203125,-0.14228125,-0.20375000000000001,1.04221875,0.76078125,-0.60759375,-0.88284375,1.0264375000000001,0.018909305181454405,0.027291645473600665,True
46417,204053,1,203978,3945.0,40865.0,45018.0,-0.005612,-0.002379,-0.007137,0.24500000000000002,-1.4875,-3.3950000000000005,0.811875,-0.14546875,-0.19718750000000002,1.04725,0.75809375,-0.60859375,-0.883,1.011625,0.0188196450680974,0.027561487762729573,True
46418,204054,1,203979,3944.0,40866.0,45020.0,6.1e-05,0.0,0.002257,0.31500000000000006,-1.7325000000000002,-3.4475000000000002,0.81771875,-0.14353125,-0.20465625,1.043,0.76759375,-0.6065625,-0.88475,1.01996875,0.018817388653941405,0.027329740101869622,True
46419,204055,1,203980,3945.0,40865.0,45022.0,0.0053679999999999995,-0.001098,0.00488,0.31500000000000006,-1.9425000000000001,-3.3425000000000002,0.8160625,-0.1398125,-0.19653125,1.045,0.7521875,-0.61521875,-0.87775,1.04571875,0.01931350904610588,0.027382651164192903,True
46420,204056,1,203981,3948.0,40863.0,45020.0,0.00549,-0.000305,0.003355,0.15750000000000003,-1.9600000000000002,-3.43,0.8116875,-0.14546875,-0.201,1.0482500000000001,0.74690625,-0.6179375,-0.87903125,1.03828125,0.019192052542988218,0.02725312103942954,True
46421,204057,1,203982,3947.0,40863.0,45017.0,0.005856,-0.00042699999999999997,0.000366,0.14,-1.9075000000000002,-3.4650000000000003,0.8121875000000001,-0.1376875,-0.2015,1.04653125,0.74390625,-0.61525,-0.877625,1.03771875,0.019401082662170808,0.027178036488611754,True
46422,204058,1,203983,3947.0,40864.0,45014.0,0.0044529999999999995,-0.000488,-0.000366,0.1925,-1.6800000000000002,-3.5000000000000004,0.81215625,-0.14240625,-0.20175,1.0425625,0.7459375,-0.60803125,-0.88103125,1.026125,0.018921668103782176,0.02730116944007295,True
46423,204059,1,203984,3948.0,40862.0,45011.0,-0.002806,6.1e-05,0.0037819999999999998,0.385,-1.4175000000000002,-3.4825000000000004,0.8180000000000001,-0.13715625,-0.20271875,1.0433125,0.7557812500000001,-0.6075625,-0.8826875000000001,1.0311875,0.019116328567691337,0.027326981862389264,True
46424,204060,1,203985,3947.0,40864.0,45012.0,-0.005978,0.001769,-0.002257,0.49000000000000005,-1.6800000000000002,-3.7975000000000003,0.81184375,-0.14240625,-0.20125,1.0476875,0.7369375,-0.60925,-0.878,1.0425312500000001,0.018970255087009964,0.027202749417155718,True
46425,204061,1,203986,3946.0,40864.0,45010.0,-0.0025009999999999998,-0.0006709999999999999,0.001769,0.07,-1.5575,-3.8150000000000004,0.812,-0.14321875,-0.201125,1.04303125,0.7445625,-0.6195625,-0.87346875,1.03578125,0.01934818094350783,0.0270305584137717,True
46426,204062,1,203987,3945.0,40862.0,45006.0,-0.0008539999999999999,-0.00244,-0.002989,0.07,-1.6800000000000002,-3.4475000000000002,0.8174375,-0.142125,-0.20528125,1.04278125,0.75115625,-0.61053125,-0.87746875,1.0245,0.019032756556199897,0.027019931438965233,True
46427,204063,1,203988,3947.0,40862.0,45004.0,0.00061,-0.000732,-0.0017079999999999999,0.24500000000000002,-1.8900000000000001,-3.5175000000000005,0.82059375,-0.143125,-0.2021875,1.04203125,0.75828125,-0.602375,-0.891375,1.0081875,0.01866689699673304,0.027687803506234593,True
46428,204064,1,203989,3944.0,40858.0,45001.0,0.001098,0.000793,0.0026839999999999998,0.24500000000000002,-1.9425000000000001,-3.7800000000000002,0.8195,-0.13896875,-0.200875,1.04571875,0.78190625,-0.6035,-0.88703125,1.0086875,0.018880697868189487,0.027570835713882105,True
