frame_seq,absolute_seq_u64,segment_id,sample_seq,PPG_G,PPG_R,PPG_IR,ACC_X,ACC_Y,ACC_Z,GYRO_X,GYRO_Y,GYRO_Z,Uh1,Uh2,Uh3,Uh4,Uc1,Uc2,Uc3,Uc4,UD1,UD2,parser_valid
40166,39739,0,39740,4537.0,41859.0,30862.0,0.000976,-6.1e-05,0.0011589999999999999,0.35000000000000003,-1.8725000000000003,-4.112500000000001,0.944375,0.11465625,0.06375,1.16978125,0.9208125,-0.36421875,-0.4448125,1.1445,0.019654847336321835,0.02080451629563532,True
40167,39740,0,39741,4536.0,41859.0,30860.0,0.002379,-0.000366,-0.000183,0.3325,-2.0650000000000004,-4.130000000000001,0.94665625,0.116125,0.07025,1.16959375,0.91221875,-0.3680625,-0.44471875,1.14434375,0.019869757802861838,0.02106666700757193,True
40168,39741,0,39742,4535.0,41860.0,30864.0,0.00366,-0.001769,-0.0011589999999999999,0.22750000000000004,-2.1875,-3.9550000000000005,0.94475,0.1139375,0.0643125,1.16296875,0.9186562500000001,-0.36446875,-0.4468125,1.1395,0.019635406579509355,0.020907633663897904,True
40169,39742,0,39743,4536.0,41860.0,30865.0,0.0051849999999999995,0.000244,-0.001647,0.49000000000000005,-2.4325,-3.8500000000000005,0.9458125000000001,0.1163125,0.063875,1.16828125,0.9127500000000001,-0.36709375,-0.44365625000000003,1.1459375,0.01983848607304677,0.020763311544278486,True
40170,39743,0,39744,4535.0,41860.0,30865.0,0.0050019999999999995,0.0006709999999999999,0.000549,0.6825000000000001,-2.4675000000000002,-3.7975000000000003,0.9513125,0.12040625,0.06353125,1.1764375,0.912125,-0.36775,-0.44515625000000003,1.14096875,0.020032881575032573,0.020809337228106288,True
40171,39744,0,39745,4535.0,41858.0,30865.0,0.001403,0.0013419999999999999,-0.000488,0.56,-1.8200000000000003,-3.9550000000000005,0.94425,0.1164375,0.06065625,1.1689687500000001,0.9201875,-0.36471875,-0.44446875,1.14840625,0.019748073225758042,0.020664183998680686,True
40172,39745,0,39746,4535.0,41859.0,30865.0,-0.001464,0.0008539999999999999,-0.00122,0.5075000000000001,-1.5225000000000002,-3.7625,0.94596875,0.11246875,0.06428125,1.17271875,0.91146875,-0.36375,-0.44709375,1.139,0.01954620081063055,0.020917619297794857,True
40173,39746,0,39747,4535.0,41858.0,30865.0,-0.002928,0.000122,-0.001037,0.47250000000000003,-1.3125000000000002,-3.7800000000000002,0.9414375,0.11615625,0.06525,1.1770625000000001,0.91259375,-0.366875,-0.44471875,1.14146875,0.01982327442480827,0.02086212384832613,True
40174,39747,0,39748,4533.0,41858.0,30864.0,-0.0030499999999999998,-0.000793,0.0006709999999999999,0.5075000000000001,-0.9275000000000001,-3.6575,0.9431875000000001,0.11465625,0.06346875,1.1692500000000001,0.9200625,-0.3639375,-0.44028125,1.1354375,0.019643530525392295,0.020611464935576387,True
40175,39748,0,39749,4536.0,41859.0,30864.0,-0.0021349999999999997,-0.001098,0.0013419999999999999,0.47250000000000003,-0.7350000000000001,-3.4650000000000003,0.94440625,0.1139375,0.064125,1.17053125,0.9120312500000001,-0.35928125,-0.44728125,1.1433125,0.019426630250020206,0.020918737129512102,True
40176,39749,0,39750,4536.0,41859.0,30866.0,-0.002196,-0.00042699999999999997,0.0006709999999999999,0.56,-0.8575,-3.5700000000000003,0.95025,0.116375,0.0635,1.17240625,0.912375,-0.36721875,-0.44415625000000003,1.14375,0.019846079068830947,0.020768000531824454,True
40177,39750,0,39751,4534.0,41858.0,30867.0,-0.002379,-0.000244,0.0011589999999999999,0.45500000000000007,-1.1025,-3.535,0.94371875,0.11534375000000001,0.06253125,1.17184375,0.92109375,-0.36462500000000003,-0.444375,1.14175,0.019699410518323187,0.020737132775945386,True
40178,39751,0,39752,4534.0,41859.0,30866.0,-0.001281,6.1e-05,-0.001037,0.42000000000000004,-1.2425000000000002,-3.535,0.943625,0.1164375,0.06153125,1.1752500000000001,0.91940625,-0.36521875,-0.44378125,1.1399375,0.01976818902970038,0.020672435857279653,True
40179,39752,0,39753,4533.0,41858.0,30865.0,6.1e-05,0.000549,-0.002257,0.42000000000000004,-1.2950000000000002,-3.5175000000000005,0.9443125,0.11328125,0.07103125,1.1692500000000001,0.91934375,-0.363875,-0.4443125,1.14775,0.019584579628651025,0.021082358115001188,True
40180,39753,0,39754,4533.0,41858.0,30864.0,0.000976,-0.000122,0.0008539999999999999,0.49000000000000005,-1.5225000000000002,-3.6575,0.95125,0.12,0.06565625,1.17275,0.91209375,-0.36734375,-0.44484375,1.14040625,0.019999871754589584,0.020883749768292135,True
40181,39754,0,39755,4533.0,41856.0,30864.0,0.002562,0.00183,0.000793,0.5075000000000001,-2.5200000000000005,-3.9550000000000005,0.942875,0.11553125,0.062875,1.16784375,0.91771875,-0.36446875,-0.444,1.1443125,0.019700819456611382,0.020736172475863197,True
40182,39755,0,39756,4531.0,41857.0,30862.0,0.005673,0.0018909999999999999,0.000915,0.525,-2.765,-4.2175,0.94434375,0.11475,0.06540625,1.1645625,0.91709375,-0.36378125,-0.44471875,1.14728125,0.019641091220189807,0.020868515822052562,True
40183,39756,0,39757,4529.0,41857.0,30861.0,0.006405,0.000305,-0.000549,0.43750000000000006,-2.9050000000000002,-4.1475,0.94646875,0.11640625,0.06359375,1.1718125,0.91215625,-0.3675,-0.444625,1.1405625,0.01985867446393762,0.02079061347842317,True
40184,39757,0,39758,4531.0,41854.0,30863.0,0.007991,-0.0008539999999999999,-0.002928,0.24500000000000002,-2.5025000000000004,-4.0600000000000005,0.9444375,0.1150625,0.0643125,1.1693437500000001,0.91721875,-0.36440625,-0.444375,1.1469375,0.019679065645197082,0.0208100023011429,True
40185,39758,0,39759,4532.0,41854.0,30862.0,0.000366,-0.002074,-0.001037,0.0,-0.9800000000000001,-3.6750000000000003,0.94475,0.1164375,0.06440625,1.17390625,0.92234375,-0.3599375,-0.44475000000000003,1.14109375,0.019555674147357725,0.02082885895744485,True
40186,39759,0,39760,4529.0,41856.0,30861.0,-0.004148,-0.002989,0.000915,0.035,-0.15750000000000003,-3.4825000000000004,0.9440625,0.116625,0.0646875,1.16884375,0.9234687500000001,-0.36575,-0.444625,1.13934375,0.019797256394734414,0.020835357466109625,True
40187,39760,0,39761,4529.0,41854.0,30861.0,-0.008235,-0.001769,0.002074,0.22750000000000004,0.49000000000000005,-3.43,0.9441875000000001,0.1160625,0.06484375,1.176125,0.91334375,-0.37003125000000003,-0.44553125,1.1384375,0.019946373683866328,0.020878049029922394,True
40188,39761,0,39762,4530.0,41854.0,30862.0,-0.010065,-0.000183,0.003172,0.525,0.6475000000000001,-3.325,0.93984375,0.11725000000000001,0.06428125,1.18559375,0.91253125,-0.3698125,-0.442625,1.13846875,0.01998630477768346,0.020738617476641727,True
40189,39762,0,39763,4529.0,41856.0,30862.0,-0.010187,0.001586,0.003538,0.8400000000000001,0.31500000000000006,-3.3950000000000005,0.945125,0.116125,0.06753125,1.19865625,0.9176562500000001,-0.36925,-0.443625,1.1380937500000001,0.019917519004483106,0.02091163851515477,True
40190,39763,0,39764,4530.0,41857.0,30863.0,-0.0013419999999999999,0.005856,0.000488,0.8575,-0.9625000000000001,-3.5875000000000004,0.9410625,0.11959375,0.06334375,1.1805,0.922625,-0.36421875,-0.443,1.15128125,0.01985750107419307,0.020715286585116392,True
40191,39764,0,39765,4530.0,41856.0,30861.0,0.004514,0.0040869999999999995,-0.0008539999999999999,0.6825000000000001,-1.5225000000000002,-3.6225000000000005,0.93278125,0.11006250000000001,0.06440625,1.1584375,0.9233750000000001,-0.36440625,-0.4478125,1.145,0.019473848249431484,0.02095151662341978,True
40192,39765,0,39766,4530.0,41858.0,30864.0,0.0064659999999999995,0.000915,-0.000305,0.07,-1.9775000000000003,-3.6225000000000005,0.9504375,0.106,0.0698125,1.17759375,0.9064375,-0.36340625,-0.44996875000000003,1.1362812500000001,0.019266856415038433,0.02125897400175614,True
40193,39766,0,39767,4531.0,41858.0,30867.0,0.007503,-0.0025009999999999998,-0.002379,-0.36750000000000005,-2.1,-3.7275000000000005,0.96603125,0.11950000000000001,0.06115625,1.1651875,0.915875,-0.36940625,-0.44340625,1.1499375,0.02006229634749513,0.020642069883365786,True
40194,39767,0,39768,4530.0,41860.0,30865.0,0.007869,-0.0060999999999999995,-0.003172,-0.6825000000000001,-1.8725000000000003,-3.7100000000000004,0.9323125,0.11790625,0.05759375,1.1589375,0.9135625,-0.3628125,-0.443,1.15175,0.019731660702145944,0.02048004541177433,True
40195,39768,0,39769,4529.0,41859.0,30866.0,0.000183,-0.0066489999999999995,-0.001281,-0.45500000000000007,-0.9100000000000001,-3.7975000000000003,0.9444375,0.113125,0.06996875,1.19203125,0.90921875,-0.36878125,-0.44553125,1.13709375,0.01977555812316219,0.021087698799755066,True
40196,39769,0,39770,4529.0,41859.0,30866.0,-0.00366,-0.0028669999999999998,-0.000366,0.052500000000000005,-0.4025,-3.6925000000000003,0.93590625,0.1185625,0.05403125,1.15909375,0.9190625,-0.36046875,-0.44571875,1.149875,0.019664287042916614,0.020443252461128804,True
40197,39770,0,39771,4530.0,41859.0,30867.0,-0.006222,0.001098,0.002379,0.6825000000000001,0.10500000000000001,-3.6225000000000005,0.9510000000000001,0.10221875,0.0676875,1.17484375,0.9093125,-0.36515625,-0.443375,1.13959375,0.019182105593925754,0.020908016998470957,True
40198,39771,0,39772,4529.0,41859.0,30868.0,-0.0057339999999999995,0.005124,0.002074,1.05,0.385,-3.5000000000000004,0.937875,0.11915625,0.05775,1.16009375,0.91821875,-0.3649375,-0.44346875,1.1421875000000001,0.019868458517490556,0.02050522187036159,True
40199,39772,0,39773,4529.0,41862.0,30870.0,-0.0050019999999999995,0.0073809999999999995,0.00183,1.1900000000000002,0.2625,-3.4825000000000004,0.9675312500000001,0.1185625,0.05896875,1.1595,0.91221875,-0.3659375,-0.44475000000000003,1.1475312500000001,0.019884315963627504,0.020606418556131684,True
40200,39773,0,39774,4530.0,41861.0,30872.0,-0.000244,0.005429,0.0,0.7525000000000001,-0.525,-3.7450000000000006,0.95809375,0.1189375,0.063125,1.159375,0.9123125,-0.36690625,-0.44340625,1.14878125,0.019938671943632566,0.020722613076890623,True
40201,39774,0,39775,4532.0,41866.0,30871.0,0.003172,0.002562,0.0006709999999999999,0.24500000000000002,-0.8750000000000001,-3.8325000000000005,0.94734375,0.11784375,0.066125,1.16690625,0.9041250000000001,-0.36612500000000003,-0.444875,1.14621875,0.019862360141384813,0.020904177255968787,True
40202,39775,0,39776,4531.0,41865.0,30870.0,0.004575,-0.0026839999999999998,-0.000793,-0.29750000000000004,-1.0675000000000001,-3.8850000000000002,0.94759375,0.11678125,0.0609375,1.1701875,0.9119375000000001,-0.36646875,-0.4444375,1.14775,0.01983258242949135,0.020674437691601617,True
40203,39776,0,39777,4531.0,41865.0,30872.0,0.00549,-0.004575,-0.002623,-0.7350000000000001,-0.9625000000000001,-3.9550000000000005,0.9392812500000001,0.11987500000000001,0.06290625,1.1691562500000001,0.89896875,-0.3669375,-0.4448125,1.1405625,0.019978403112824502,0.020769999769889826,True
40204,39777,0,39778,4531.0,41868.0,30875.0,0.0042699999999999995,-0.008113,-0.002379,-0.9975,-0.6125,-3.9025000000000003,0.94746875,0.11578125,0.06209375,1.17028125,0.9183125,-0.36396875,-0.44628125,1.14028125,0.019690962704916454,0.020795596467254096,True
40205,39778,0,39779,4530.0,41870.0,30876.0,-0.002013,-0.0051849999999999995,0.000305,-0.6825000000000001,0.4025,-3.5000000000000004,0.95065625,0.11540625,0.06246875,1.1696875,0.91453125,-0.36396875,-0.444125,1.14746875,0.01967557112385477,0.02072456060505336,True
40206,39779,0,39780,4533.0,41871.0,30876.0,-0.005246,-0.00183,0.00183,-0.17500000000000002,0.665,-3.325,0.9465625,0.1160625,0.06421875,1.1713437500000001,0.91178125,-0.3658125,-0.44415625000000003,1.146875,0.019776685058214248,0.02079740428757896,True
40207,39780,0,39781,4532.0,41871.0,30875.0,-0.005795,0.001464,0.0042699999999999995,0.43750000000000006,0.525,-3.2725000000000004,0.94159375,0.11625,0.06834375,1.1721875,0.9126875,-0.36653125000000003,-0.44409375,1.14896875,0.019813294106029146,0.02096365302968125,True
40208,39781,0,39782,4530.0,41872.0,30876.0,-0.0068319999999999995,0.0051849999999999995,0.0028669999999999998,0.9975,-0.12250000000000001,-3.43,0.94459375,0.11653125,0.06103125,1.1701875,0.90846875,-0.36653125000000003,-0.44296875,1.14446875,0.01982483657783666,0.020619426598906896,True
40209,39782,0,39783,4533.0,41874.0,30876.0,-0.0034159999999999998,0.006344,0.00122,1.155,-0.9275000000000001,-3.5700000000000003,0.9498125000000001,0.11625,0.06159375,1.1695312500000001,0.912375,-0.3645625,-0.43840625,1.14865625,0.019734091264721046,0.02045959932432173,True
40210,39783,0,39784,4532.0,41871.0,30876.0,0.0021349999999999997,0.004148,-0.0015249999999999999,0.8400000000000001,-2.2575000000000003,-3.6575,0.9509375,0.1156875,0.06453125,1.17084375,0.9116875,-0.36421875,-0.447875,1.14096875,0.01969717374992785,0.02095913243993599,True
40211,39784,0,39785,4533.0,41872.0,30877.0,0.005856,0.001769,-0.002257,0.47250000000000003,-2.4325,-3.6575,0.9441875000000001,0.1154375,0.065375,1.176625,0.92134375,-0.3645625,-0.44671875,1.13425,0.019700743651768833,0.020947340836896568,True
40212,39785,0,39786,4534.0,41871.0,30875.0,0.0064659999999999995,-0.001647,-0.0040869999999999995,0.035,-2.31,-3.6925000000000003,0.94396875,0.11384375000000001,0.065,1.17434375,0.91890625,-0.3654375,-0.444875,1.14028125,0.019670537415960622,0.02085815533930937,True
40213,39786,0,39787,4532.0,41869.0,30874.0,0.004758,-0.0046359999999999995,-0.00244,-0.15750000000000003,-1.7675,-3.6575,0.944375,0.1145,0.064,1.1695,0.91215625,-0.3669375,-0.4445625,1.14809375,0.01975781732932175,0.020804729068069842,True
40214,39787,0,39788,4533.0,41866.0,30872.0,0.001769,-0.006405,-0.001586,-0.22750000000000004,-1.3125000000000002,-3.6225000000000005,0.94978125,0.11525,0.063625,1.1695312500000001,0.91228125,-0.36725,-0.44515625000000003,1.1440000000000001,0.01980116755070843,0.020813172343703064,True
40215,39788,0,39789,4533.0,41868.0,30872.0,-0.003111,-0.0032329999999999998,0.00061,-0.1925,-0.8400000000000001,-3.6925000000000003,0.94396875,0.11521875000000001,0.0648125,1.17753125,0.91353125,-0.36403125000000003,-0.446,1.13984375,0.01967039013710016,0.020895545283481958,True
40216,39789,0,39790,4532.0,41863.0,30869.0,-0.005429,-0.00183,0.003111,0.1925,-0.9275000000000001,-3.4650000000000003,0.945125,0.11384375000000001,0.0644375,1.17475,0.9175625000000001,-0.365,-0.4463125,1.1405625,0.01965293453724605,0.0208927215505406,True
40217,39790,0,39791,4531.0,41864.0,30867.0,-0.003172,0.001403,0.0015249999999999999,0.665,-1.155,-3.4475000000000002,0.94878125,0.11940625,0.0651875,1.175625,0.911875,-0.3645625,-0.44509375,1.140125,0.01986363391503541,0.02087458756422237,True
40218,39791,0,39792,4531.0,41860.0,30866.0,-0.001586,0.005124,0.000976,0.77,-1.225,-3.535,0.9333125,0.1158125,0.06221875,1.170125,0.9174375,-0.36446875,-0.44403125,1.1454375,0.01971236290551174,0.020710577352088765,True
40219,39792,0,39793,4528.0,41861.0,30863.0,0.000732,0.00671,0.001037,0.77,-1.2600000000000002,-3.5525,0.9500000000000001,0.11334375000000001,0.0648125,1.175625,0.91246875,-0.3644375,-0.4451875,1.1406875,0.019609779622451782,0.020863002175786134,True
40220,39793,0,39794,4527.0,41859.0,30860.0,0.002989,0.002074,0.001647,0.15750000000000003,-1.1025,-3.5525,0.951375,0.11621875,0.06459375,1.17540625,0.91190625,-0.365375,-0.44653125,1.13946875,0.019765497145026498,0.020907874199944013,True
40221,39794,0,39795,4525.0,41861.0,30861.0,0.00244,-0.000183,-0.0008539999999999999,-0.24500000000000002,-1.05,-3.6750000000000003,0.94484375,0.1158125,0.06146875,1.1695,0.9129375000000001,-0.3660625,-0.44440625,1.141375,0.01977648214601764,0.02069491869944683,True
40222,39795,0,39796,4525.0,41858.0,30858.0,0.0017079999999999999,-0.004209,-0.001586,-0.6300000000000001,-0.9800000000000001,-3.7800000000000002,0.9440625,0.11615625,0.06740625,1.16978125,0.92228125,-0.3643125,-0.44359375,1.1515312500000001,0.019720185004194146,0.020905272981801212,True
40223,39796,0,39797,4521.0,41856.0,30854.0,0.000732,-0.00488,-0.000549,-0.6475000000000001,-0.7000000000000001,-3.8500000000000005,0.9520937500000001,0.116,0.06478125,1.1736875,0.9125,-0.35915625,-0.44959375,1.1468125,0.01950626881832165,0.021038181871631305,True
40224,39797,0,39798,4519.0,41856.0,30856.0,-0.0023179999999999997,-0.003477,0.000793,-0.4025,-0.6825000000000001,-3.7450000000000006,0.9513125,0.11559375000000001,0.0651875,1.17559375,0.91040625,-0.36128125,-0.45121875,1.1335625,0.019575119843091175,0.021119857266828468,True
40225,39798,0,39799,4518.0,41858.0,30855.0,-0.0015249999999999999,0.000549,0.00183,0.14,-0.56,-3.6925000000000003,0.9444375,0.11290625,0.064375,1.1689687500000001,0.9156875,-0.3664375,-0.43778125,1.15475,0.01967229513957467,0.020548356860343037,True
40226,39799,0,39800,4516.0,41859.0,30855.0,-0.000549,0.000366,-0.0011589999999999999,0.21000000000000002,-0.36750000000000005,-3.6575,0.94575,0.116,0.0624375,1.16853125,0.9061250000000001,-0.36628125,-0.4453125,1.1354375,0.019792977231599507,0.02077085330776606,True
40227,39800,0,39801,4517.0,41856.0,30854.0,-6.1e-05,0.0011589999999999999,-0.000305,0.21000000000000002,-0.21000000000000002,-3.7275000000000005,0.9411875000000001,0.1155625,0.06453125,1.1695,0.9295625000000001,-0.36284375,-0.45134375,1.13096875,0.01963671625977571,0.021098022475758618,True
40228,39801,0,39802,4513.0,41858.0,30856.0,-0.002928,0.0013419999999999999,0.000366,0.17500000000000002,-0.15750000000000003,-3.8850000000000002,0.95059375,0.11596875000000001,0.0676875,1.1612500000000001,0.90759375,-0.3643125,-0.4450625,1.1358125000000001,0.01971248932224129,0.02097560601450702,True
40229,39802,0,39803,4513.0,41859.0,30857.0,-0.0037819999999999998,-0.000122,0.000305,0.08750000000000001,-0.45500000000000007,-3.8675,0.946125,0.1165,0.07190625,1.17434375,0.931,-0.3629375,-0.4466875,1.1371875,0.019678969336107355,0.02121325230667754,True
40230,39803,0,39804,4511.0,41859.0,30857.0,0.0008539999999999999,-0.001403,-0.000793,0.22750000000000004,-0.8575,-3.6750000000000003,0.94403125,0.11603125,0.06281250000000001,1.1701875,0.9059375000000001,-0.37084375,-0.44346875,1.1455,0.019977765439491608,0.020712332409858973,True
40231,39804,0,39805,4510.0,41859.0,30858.0,0.002745,-0.00061,-0.0013419999999999999,0.24500000000000002,-1.1725,-3.7625,0.9530000000000001,0.1154375,0.06459375,1.1754375000000001,0.9226562500000001,-0.36212500000000003,-0.44725000000000004,1.1465625,0.019602661918859707,0.02093665954248433,True
40232,39805,0,39806,4510.0,41859.0,30856.0,0.003111,0.0008539999999999999,0.0,0.3325,-1.3825,-3.9200000000000004,0.94303125,0.11684375,0.06356250000000001,1.17015625,0.90471875,-0.3700625,-0.439875,1.14415625,0.0199796881932494,0.020599021067006274,True
40233,39806,0,39807,4508.0,41860.0,30858.0,0.002379,0.000488,-0.000183,0.17500000000000002,-1.6975000000000002,-3.9025000000000003,0.9476875,0.11253125,0.065,1.17184375,0.928125,-0.3619375,-0.4448125,1.1353125,0.01947582165827328,0.020855651889332347,True
40234,39807,0,39808,4509.0,41861.0,30855.0,0.000122,0.000915,0.000183,0.24500000000000002,-1.5575,-3.8500000000000005,0.9444375,0.11396875000000001,0.06459375,1.17365625,0.92203125,-0.36234375,-0.44415625000000003,1.13640625,0.019551177213809737,0.020812745377537835,True
40235,39808,0,39809,4508.0,41858.0,30855.0,-0.003477,-0.0021349999999999997,0.0023179999999999997,0.5075000000000001,-1.9775000000000003,-3.6400000000000006,0.9309375,0.11209375,0.06453125,1.17240625,0.91334375,-0.36415625,-0.4441875,1.14359375,0.019547157517510995,0.02081144034752638,True
40236,39809,0,39810,4507.0,41855.0,30856.0,-0.003538,-0.000305,0.00183,0.8575,-2.6075000000000004,-3.8150000000000004,0.9460937500000001,0.11665625,0.06371875,1.170125,0.9116562500000001,-0.3666875,-0.44403125,1.1497187500000001,0.01983625184998987,0.020771942025724584,True
40237,39810,0,39811,4507.0,41854.0,30856.0,-0.003721,0.0013419999999999999,-0.0018909999999999999,0.9450000000000001,-3.3775000000000004,-4.077500000000001,0.9420625,0.11646875,0.064375,1.17578125,0.9130312500000001,-0.36612500000000003,-0.4413125,1.14021875,0.019805929338374488,0.020689866798274437,True
40238,39811,0,39812,4505.0,41853.0,30853.0,0.0015249999999999999,0.0035989999999999998,-0.001098,0.9275000000000001,-3.7975000000000003,-4.112500000000001,0.9340937500000001,0.11328125,0.0648125,1.17509375,0.91921875,-0.36378125,-0.44553125,1.13084375,0.019580807063763965,0.020876770677667314,True
40239,39812,0,39813,4508.0,41852.0,30855.0,0.0073809999999999995,-0.001037,-0.0037819999999999998,0.6475000000000001,-3.5175000000000005,-3.8500000000000005,0.94553125,0.11421875000000001,0.0646875,1.17471875,0.914625,-0.364,-0.44371875,1.13496875,0.019628088573304878,0.020799054971944477,True
40240,39813,0,39814,4505.0,41851.0,30853.0,0.006405,-0.0015249999999999999,-0.003172,0.29750000000000004,-2.9050000000000002,-3.6925000000000003,0.9443125,0.1159375,0.0623125,1.1695312500000001,0.91259375,-0.36715625,-0.44425000000000003,1.1457187500000001,0.01982561054903565,0.020723176207083468,True
40241,39814,0,39815,4506.0,41854.0,30852.0,0.003477,-0.0008539999999999999,-0.0018909999999999999,0.17500000000000002,-2.4325,-3.8675,0.9488125000000001,0.11575,0.06321875,1.16146875,0.912,-0.36346875,-0.44440625,1.1409375,0.019669561625948687,0.020766509720398712,True
40242,39815,0,39816,4504.0,41851.0,30853.0,0.000244,-6.1e-05,-6.1e-05,0.1925,-1.8025000000000002,-3.5875000000000004,0.94515625,0.11375,0.065125,1.1715,0.9203125,-0.36415625,-0.4463125,1.14246875,0.019615136477381605,0.020920844401379552,True
40243,39816,0,39817,4505.0,41852.0,30853.0,6.1e-05,0.000122,6.1e-05,0.1925,-1.3125000000000002,-3.3600000000000003,0.9499375,0.11665625,0.063,1.1703125,0.9125,-0.3653125,-0.44503125,1.133875,0.019780938578152853,0.020782597690481575,True
40244,39817,0,39818,4505.0,41851.0,30853.0,-0.001647,0.002806,0.001281,0.4025,-0.7350000000000001,-3.535,0.94440625,0.11734375,0.06959375,1.17159375,0.9183125,-0.36403125000000003,-0.44575000000000004,1.1388125,0.019757608872710667,0.021081118394813005,True
40245,39818,0,39819,4504.0,41853.0,30853.0,-0.002257,0.002379,0.0013419999999999999,0.17500000000000002,-0.4025,-3.5525,0.94665625,0.11515625,0.06753125,1.167125,0.91334375,-0.36528125,-0.44446875,1.14065625,0.019718118377968653,0.020945433719028975,True
40246,39819,0,39820,4505.0,41853.0,30854.0,-0.003904,0.000183,0.002013,-0.07,-0.15750000000000003,-3.5000000000000004,0.94359375,0.1179375,0.06459375,1.17790625,0.92134375,-0.36403125000000003,-0.444125,1.14015625,0.01978197881354302,0.020811493559290833,True
40247,39820,0,39821,4506.0,41856.0,30853.0,-0.005795,-0.001403,0.00122,-0.052500000000000005,-0.12250000000000001,-3.3425000000000002,0.9418125,0.1170625,0.06178125,1.16796875,0.9164375,-0.3648125,-0.444,1.1463125,0.0197774967486411,0.02069142734413353,True
40248,39821,0,39822,4505.0,41858.0,30855.0,-0.0044529999999999995,-0.00183,0.002989,-0.22750000000000004,-0.17500000000000002,-3.3075,0.95378125,0.1211875,0.069375,1.1700625,0.91171875,-0.36196875,-0.44478125,1.141375,0.01983239757665316,0.021033374966282426,True
40249,39822,0,39823,4504.0,41856.0,30855.0,0.000366,-0.003294,-0.000732,-0.42000000000000004,-0.4025,-3.43,0.94184375,0.11143750000000001,0.06525,1.17584375,0.920375,-0.3638125,-0.445875,1.14059375,0.019506388829744932,0.020908435472242252,True
40250,39823,0,39824,4504.0,41857.0,30855.0,0.0011589999999999999,-0.00183,-0.0008539999999999999,-0.3325,-0.8225000000000001,-3.4825000000000004,0.95028125,0.11634375,0.06165625,1.17853125,0.91215625,-0.3623125,-0.44396875,1.140875,0.0196474062140037,0.0206850616269095,True
40251,39824,0,39825,4503.0,41856.0,30855.0,-0.000122,-0.000732,-0.000366,0.0,-1.2950000000000002,-3.4475000000000002,0.94165625,0.1135,0.06440625,1.1680625,0.90853125,-0.36446875,-0.44384375000000004,1.14546875,0.019617450103442128,0.02079255640799128,True
40252,39825,0,39826,4503.0,41860.0,30857.0,0.000488,0.00244,-0.000183,0.3325,-1.7500000000000002,-3.3775000000000004,0.9564375,0.11515625,0.06525,1.18171875,0.91196875,-0.365375,-0.4468125,1.1398125000000001,0.019721890182277105,0.020945982221608643,True
40253,39826,0,39827,4503.0,41860.0,30858.0,0.0042699999999999995,0.002257,0.0006709999999999999,0.29750000000000004,-1.4000000000000001,-3.1850000000000005,0.94140625,0.11278125,0.06175,1.168,0.9171875,-0.36384375,-0.44365625000000003,1.1460625,0.019562799896875878,0.02067637692294908,True
40254,39827,0,39828,4501.0,41862.0,30857.0,0.002013,0.00183,-0.000732,0.035,-1.225,-3.5175000000000005,0.9458125000000001,0.11106250000000001,0.065875,1.17675,0.90615625,-0.3640625,-0.44471875,1.1413125,0.019501058167126276,0.020887691743231858,True
40255,39828,0,39829,4502.0,41861.0,30858.0,-0.0044529999999999995,0.000183,-0.0015249999999999999,0.17500000000000002,-1.3125000000000002,-3.535,0.94234375,0.11728125,0.06075,1.16728125,0.915,-0.36453125000000003,-0.444375,1.1441875,0.019775159844292102,0.020664263250747873,True
40256,39829,0,39830,4500.0,41862.0,30859.0,-0.0025009999999999998,-0.000488,0.001769,0.12250000000000001,-1.2600000000000002,-3.3425000000000002,0.95025,0.11596875000000001,0.0655625,1.17065625,0.9128125,-0.3614375,-0.44453125,1.1408125,0.019596801297131993,0.020867397487935056,True
40257,39830,0,39831,4500.0,41862.0,30855.0,-0.00122,-0.002806,0.00183,0.14,-0.9975,-3.2375000000000003,0.9420937500000001,0.11750000000000001,0.0654375,1.17628125,0.91628125,-0.3640625,-0.44621875,1.137625,0.019765279291989995,0.02092987284587724,True
40258,39831,0,39832,4500.0,41858.0,30855.0,-0.005246,-0.002989,0.001281,0.08750000000000001,-1.4875,-3.5175000000000005,0.9440937500000001,0.1120625,0.06440625,1.17240625,0.917625,-0.3644375,-0.4443125,1.14228125,0.019557192732235253,0.0208113339248138,True
40259,39832,0,39833,4499.0,41859.0,30856.0,0.0,0.000793,0.004209,0.5425000000000001,-1.7850000000000001,-3.6050000000000004,0.9460625,0.12209375,0.06475,1.1689375,0.91225,-0.36021875000000003,-0.4441875,1.14384375,0.01979918591658788,0.020820389305228493,True
40260,39833,0,39834,4500.0,41855.0,30854.0,0.004026,-0.0023179999999999997,-0.00549,0.6300000000000001,-2.2575000000000003,-3.1850000000000005,0.9435,0.11603125,0.06625,1.1595625,0.913,-0.36696875,-0.44415625000000003,1.1624375,0.019821915682474864,0.020880501858189526,True
40261,39834,0,39835,4499.0,41853.0,30852.0,0.014152,-0.0011589999999999999,-0.008539999999999999,0.9450000000000001,-2.345,-3.3075,0.951375,0.11640625,0.0614375,1.16996875,0.9048125,-0.37259375,-0.44465625000000003,1.15303125,0.02006351909098719,0.020703655834800293,True
40262,39835,0,39836,4498.0,41854.0,30855.0,0.014395999999999999,0.0042699999999999995,0.004575,0.8400000000000001,-1.225,-3.5875000000000004,0.95225,0.11659375,0.0670625,1.17490625,0.915,-0.36159375,-0.45409375,1.13290625,0.019628744527438808,0.021311615769854485,True
40263,39836,0,39837,4498.0,41854.0,30855.0,0.004697,0.0055509999999999995,0.004575,0.7350000000000001,-1.1725,-3.8150000000000004,0.94453125,0.11853125,0.0649375,1.17,0.913875,-0.36865625,-0.43743750000000003,1.15034375,0.019992382632916,0.020557597334008526,True
40264,39837,0,39838,4500.0,41856.0,30856.0,-0.008173999999999999,-0.0008539999999999999,-0.004575,0.15750000000000003,-1.33,-3.3775000000000004,0.9504375,0.1139375,0.06459375,1.170375,0.93284375,-0.36053125,-0.43828125,1.16084375,0.019476945930725544,0.020577347271506664,True
40265,39838,0,39839,4499.0,41855.0,30855.0,0.00042699999999999997,-0.00366,0.002806,-0.22750000000000004,0.12250000000000001,-3.2550000000000003,0.9483125,0.11575,0.06281250000000001,1.1710625000000001,0.90296875,-0.361375,-0.4388125,1.13059375,0.01958530665859378,0.020525751813841198,True
40266,39839,0,39840,4499.0,41852.0,30854.0,-0.00366,-0.0050019999999999995,0.0025009999999999998,-0.31500000000000006,0.3325,-3.5525,0.94921875,0.11659375,0.06515625,1.1763125,0.9360937500000001,-0.3534375,-0.45203125,1.13334375,0.019300406770091493,0.021151105800259435,True
40267,39840,0,39841,4499.0,41856.0,30857.0,-0.008418,0.000793,-0.00183,-0.07,-0.47250000000000003,-3.8150000000000004,0.94503125,0.113,0.0649375,1.1691562500000001,0.9225,-0.36784375,-0.438625,1.164375,0.019732716400071303,0.020605189530916737,True
40268,39841,0,39842,4500.0,41855.0,30858.0,-0.004026,0.0018909999999999999,-0.000488,0.08750000000000001,-0.17500000000000002,-3.6050000000000004,0.94484375,0.11596875000000001,0.06334375,1.16940625,0.8932187500000001,-0.36353125000000003,-0.4414375,1.1423125,0.019681055060522066,0.02065268256009901,True
40269,39842,0,39843,4499.0,41857.0,30859.0,0.002013,-0.000244,0.00061,0.1925,-0.49000000000000005,-3.0975,0.9449062500000001,0.11396875000000001,0.06503125,1.17590625,0.93759375,-0.3603125,-0.444375,1.1555,0.019469423883622182,0.02083940579376646,True
40270,39843,0,39844,4499.0,41857.0,30859.0,0.005856,0.001769,0.000305,-0.12250000000000001,-0.36750000000000005,-3.2900000000000005,0.94815625,0.116125,0.0683125,1.17446875,0.90053125,-0.368875,-0.448625,1.13053125,0.019902437022636457,0.02114382710684139,True
40271,39844,0,39845,4499.0,41857.0,30859.0,0.002562,0.002379,-0.010126,-0.15750000000000003,-0.5425000000000001,-3.6050000000000004,0.94384375,0.11390625,0.06540625,1.1695312500000001,0.93234375,-0.3635625,-0.4385,1.15509375,0.01959765736230077,0.02061936084456902,True
40272,39845,0,39846,4500.0,41857.0,30860.0,0.006588,0.001037,0.000183,-0.45500000000000007,0.42000000000000004,-3.4125000000000005,0.9508125000000001,0.11571875000000001,0.065875,1.17628125,0.9019375000000001,-0.36303125,-0.44709375,1.1335625,0.019650674626130526,0.02098281109589969,True
40273,39846,0,39847,4500.0,41860.0,30860.0,0.0048189999999999995,-0.002257,0.004758,-0.805,1.33,-3.08,0.94325,0.11634375,0.06384375,1.1708125,0.91390625,-0.36496875,-0.43984375000000003,1.14909375,0.019754283493591596,0.020609276603906275,True
40274,39847,0,39848,4500.0,41860.0,30862.0,-0.008357,-0.004148,-0.000305,-1.1375000000000002,0.4025,-3.2025,0.95228125,0.1163125,0.06390625,1.1700625,0.9125,-0.3659375,-0.44378125,1.14946875,0.019791973939028613,0.020769597584252644,True
40275,39848,0,39849,4501.0,41860.0,30861.0,-0.002989,-0.0040869999999999995,0.002745,-1.0850000000000002,0.8400000000000001,-3.2725000000000004,0.9515625,0.1160625,0.06331250000000001,1.17165625,0.9051875,-0.36596875,-0.444375,1.14546875,0.019782970869976185,0.020769093094014472,True
40276,39849,0,39850,4503.0,41861.0,30862.0,-0.0028669999999999998,-0.002928,0.000122,-1.0325000000000002,1.2075,-3.1500000000000004,0.94471875,0.11428125,0.0645625,1.17078125,0.9127500000000001,-0.3635625,-0.44396875,1.1474375,0.019613049200009235,0.020803955986075297,True
40277,39850,0,39851,4501.0,41862.0,30861.0,-0.003294,-0.000305,0.0060999999999999995,-0.6300000000000001,1.05,-3.115,0.9495625,0.115625,0.06525,1.1733125,0.9127500000000001,-0.36653125000000003,-0.44756250000000003,1.14165625,0.01978764416867912,0.020976017547761662,True
40278,39851,0,39852,4503.0,41859.0,30861.0,-0.008052,0.005612,0.0026839999999999998,-0.17500000000000002,0.525,-3.0975,0.94896875,0.1159375,0.06503125,1.17221875,0.91153125,-0.3654375,-0.446,1.1411875,0.01975646856330817,0.02090449357768142,True
40279,39852,0,39853,4503.0,41861.0,30862.0,-0.0042699999999999995,0.0075639999999999995,0.005856,0.8925000000000001,-0.035,-2.5725000000000002,0.9490625,0.11578125,0.064875,1.1735,0.91196875,-0.36728125,-0.4449375,1.1406875,0.01982422638963877,0.020855545243263558,True
40280,39853,0,39854,4502.0,41860.0,30865.0,-0.0030499999999999998,0.005978,6.1e-05,0.7175,-1.0675000000000001,-2.555,0.9416875,0.1158125,0.06525,1.1746875,0.9117500000000001,-0.36284375,-0.44065625,1.141375,0.019646977787640248,0.020699372587427968,True
40281,39854,0,39855,4503.0,41860.0,30861.0,0.00122,0.004148,-0.003538,0.24500000000000002,-2.4850000000000003,-2.7300000000000004,0.945375,0.11578125,0.06553125,1.17025,0.91815625,-0.3595625,-0.44465625000000003,1.1456250000000001,0.019513640690385962,0.020871125974618685,True
40282,39855,0,39856,4503.0,41856.0,30860.0,0.00549,0.0011589999999999999,-0.008235,-0.6125,-3.3950000000000005,-2.975,0.94475,0.1160625,0.06578125,1.168875,0.912,-0.366875,-0.44421875,1.14896875,0.01981942698848334,0.02086382899842115,True
40283,39856,0,39857,4504.0,41855.0,30857.0,0.008905999999999999,-0.005429,-0.008601,-1.4875,-3.5700000000000003,-2.8525000000000005,0.9453125,0.11809375,0.0655,1.183125,0.9124375,-0.36640625,-0.44425000000000003,1.14103125,0.019883933438071114,0.020853574971619094,True
40284,39857,0,39858,4504.0,41854.0,30853.0,0.014945,-0.013786,-0.000732,-2.7125000000000004,-2.24,-2.7125000000000004,0.93215625,0.10946875,0.066,1.170875,0.9167500000000001,-0.35962500000000003,-0.4455,1.14078125,0.019257018529636644,0.020924096459471072,True
40285,39858,0,39859,4503.0,41850.0,30852.0,0.007869,-0.011956,-0.0025009999999999998,-2.5900000000000003,-2.0650000000000004,-2.9575000000000005,0.94978125,0.11928125,0.061375,1.16453125,0.9178437500000001,-0.3643125,-0.44371875,1.1466875,0.019848446370075084,0.020663539585195075,True
40286,39859,0,39860,4500.0,41847.0,30847.0,0.0032329999999999998,-0.0062829999999999995,-0.003172,-1.8900000000000001,-1.4175000000000002,-2.7300000000000004,0.9590625,0.11684375,0.06815625,1.17765625,0.90334375,-0.3649375,-0.44365625000000003,1.1458125000000001,0.01977354754142095,0.020938459237250975,True
40287,39860,0,39861,4501.0,41847.0,30844.0,-0.000366,0.001098,-0.001037,-0.8750000000000001,-0.6125,-2.2225,0.93765625,0.11340625,0.06259375,1.1651875,0.9030625,-0.36434375,-0.44434375,1.141,0.019608572465654856,0.020738437700950758,True
40288,39861,0,39862,4497.0,41849.0,30845.0,-0.0015249999999999999,0.007869,-0.00244,0.24500000000000002,0.3325,-1.995,0.96175,0.11750000000000001,0.06784375000000001,1.1845625,0.90653125,-0.36434375,-0.44478125,1.14078125,0.01977659463945135,0.020970733783923716,True
40289,39862,0,39863,4497.0,41850.0,30844.0,0.000244,0.016226,0.013176,1.0675000000000001,4.4975000000000005,-2.7300000000000004,0.93996875,0.1206875,0.0645,1.16984375,0.9216875,-0.36421875,-0.44365625000000003,1.14871875,0.019902392724987335,0.020788880550551846,True
40290,39863,0,39864,4494.0,41852.0,30843.0,-0.00488,0.015493999999999999,0.008235,-0.0175,5.897500000000001,-2.6075000000000004,0.9389375,0.11109375,0.06540625,1.168,0.90809375,-0.36328125,-0.44509375,1.141375,0.019470899470899472,0.020883536190160853,True
40291,39864,0,39865,4492.0,41853.0,30841.0,-0.0183,0.0059169999999999995,-0.002379,-1.3475000000000001,5.477500000000001,-2.0650000000000004,0.94125,0.11790625,0.059562500000000004,1.16496875,0.9210625,-0.36190625,-0.44346875,1.14825,0.019695195239494034,0.020579372557342133,True
40292,39865,0,39866,4490.0,41855.0,30840.0,-0.017019,-0.0070149999999999995,0.0006709999999999999,-2.1875,5.95,-1.1900000000000002,0.94253125,0.10675,0.067,1.177125,0.9130312500000001,-0.36340625,-0.44721875,1.1413125,0.019297640287880516,0.02103383437021849,True
40293,39866,0,39867,4489.0,41856.0,30841.0,-0.010614,-0.014395999999999999,-0.005612,-2.975,6.755000000000001,-0.9100000000000001,0.9588125000000001,0.11725000000000001,0.0679375,1.17615625,0.91453125,-0.3683125,-0.4446875,1.1328125,0.01992597969186418,0.020970814210654155,True
40294,39867,0,39868,4488.0,41859.0,30840.0,0.001037,-0.01098,0.0051849999999999995,-2.66,6.8950000000000005,-2.1700000000000004,0.9430625,0.115875,0.06478125,1.17390625,0.91528125,-0.364875,-0.44396875,1.14165625,0.019731272990319054,0.02081290502386197,True
40295,39868,0,39869,4485.0,41863.0,30840.0,-0.0077469999999999995,-0.00549,-0.00122,-2.3275,4.4975000000000005,-2.5200000000000005,0.94225,0.122,0.06159375,1.169625,0.91546875,-0.36434375,-0.4434375,1.1415,0.019961290769426123,0.020661220419591148,True
40296,39869,0,39870,4483.0,41860.0,30841.0,-0.008845,-0.005063,0.004026,-1.4875,2.9050000000000002,-1.995,0.94934375,0.11496875000000001,0.0648125,1.17015625,0.9128437500000001,-0.36403125000000003,-0.444125,1.13796875,0.019660129109381273,0.020820442539874102,True
40297,39870,0,39871,4483.0,41863.0,30844.0,-0.006222,-0.0030499999999999998,-0.003843,-0.805,1.9075000000000002,-1.61,0.950875,0.1153125,0.06521875,1.172125,0.91246875,-0.3636875,-0.4463125,1.14078125,0.019660406496348305,0.020924679335584864,True
40298,39871,0,39872,4482.0,41860.0,30843.0,0.004209,0.0028669999999999998,0.002562,-0.28,1.2425000000000002,-2.1525000000000003,0.9501875000000001,0.116125,0.06584375,1.1785,0.91290625,-0.36715625,-0.44384375000000004,1.13715625,0.019833305332869935,0.02085136467131934,True
40299,39872,0,39873,4481.0,41860.0,30843.0,0.001281,0.008418,0.001464,0.24500000000000002,-1.3825,-3.5700000000000003,0.93596875,0.116125,0.06221875,1.1700625,0.920125,-0.36603125000000003,-0.44371875,1.146625,0.019788050218477828,0.02069805765540483,True
40300,39873,0,39874,4480.0,41857.0,30841.0,-0.001098,0.004148,-0.0034159999999999998,0.07,-2.0300000000000002,-2.975,0.944375,0.1138125,0.06959375,1.16815625,0.91415625,-0.36421875,-0.4456875,1.1481875,0.019620216634280548,0.02107861560449057,True
40301,39874,0,39875,4479.0,41852.0,30840.0,-0.000976,-0.002806,0.000122,-0.10500000000000001,-2.0475000000000003,-2.5375,0.9503125,0.11546875000000001,0.065,1.1768125,0.9030625,-0.3651875,-0.4479375,1.1416250000000001,0.019727172220611888,0.02098080870830106,True
40302,39875,0,39876,4477.0,41846.0,30836.0,-0.002196,-0.0048189999999999995,-0.000915,-0.15750000000000003,-2.6250000000000004,-2.6950000000000003,0.94284375,0.11646875,0.063,1.1761875,0.9136875,-0.3659375,-0.44403125,1.1415,0.019798386579625758,0.020742538119607423,True
40303,39876,0,39877,4476.0,41838.0,30834.0,-0.004697,0.000366,-0.0015249999999999999,-0.0175,-3.5525,-3.3950000000000005,0.9431875000000001,0.116125,0.0640625,1.1753437500000001,0.9198125,-0.36475,-0.4434375,1.1410625,0.019736504581413725,0.020762218898221656,True
40304,39877,0,39878,4475.0,41835.0,30832.0,-0.002074,-0.000183,0.000305,0.7525000000000001,-5.407500000000001,-3.0975,0.94453125,0.1163125,0.06584375,1.17834375,0.91696875,-0.3670625,-0.44459375,1.141125,0.01983722904638177,0.02088140654822705,True
40305,39878,0,39879,4474.0,41832.0,30829.0,0.00042699999999999997,-0.000122,-0.001098,1.05,-6.825000000000001,-2.765,0.948375,0.116125,0.065,1.17490625,0.9055,-0.36609375,-0.44196875,1.14125,0.019790564501131824,0.020741731371373265,True
40306,39879,0,39880,4474.0,41829.0,30826.0,0.004209,0.0025009999999999998,-0.005612,0.9100000000000001,-7.700000000000001,-3.1325000000000003,0.9529062500000001,0.113875,0.068,1.171,0.91215625,-0.3653125,-0.44721875,1.1456250000000001,0.019666790647565057,0.021074738818705096,True
40307,39880,0,39881,4473.0,41827.0,30825.0,0.010492,0.003843,-0.001037,0.5950000000000001,-7.7875000000000005,-3.4475000000000002,0.950875,0.1123125,0.06528125,1.178375,0.9129375000000001,-0.36346875,-0.44446875,1.14084375,0.019528469237369988,0.0208533883560059,True
40308,39881,0,39882,4474.0,41825.0,30825.0,0.018483,-0.003843,-0.0059169999999999995,-1.0325000000000002,-6.947500000000001,-3.325,0.94953125,0.1163125,0.06278125,1.17015625,0.91240625,-0.3663125,-0.44390625,1.13653125,0.019807059439133433,0.020728581382118496,True
40309,39882,0,39883,4474.0,41823.0,30823.0,0.015738,-0.0055509999999999995,-0.0035989999999999998,-1.3650000000000002,-6.2475000000000005,-3.1325000000000003,0.9446875,0.11375,0.06343750000000001,1.16959375,0.9198437500000001,-0.363875,-0.443125,1.147,0.01960381917900991,0.020724129995653175,True
40310,39883,0,39884,4472.0,41822.0,30821.0,0.009516,-0.006161,-0.0026839999999999998,-1.2600000000000002,-5.1625000000000005,-2.6075000000000004,0.94465625,0.1140625,0.06234375,1.17053125,0.9128125,-0.3603125,-0.44071875,1.14596875,0.019473272356419893,0.020582966693645212,True
40311,39884,0,39885,4474.0,41821.0,30823.0,0.00366,-0.002928,-0.001464,-0.7350000000000001,-3.7800000000000002,-2.415,0.946875,0.1135,0.06256250000000001,1.1709687500000001,0.91240625,-0.363375,-0.43809375,1.1463125,0.01957343758818308,0.020486714517166462,True
40312,39885,0,39886,4474.0,41820.0,30821.0,-0.0006709999999999999,0.001281,0.006222,0.1925,-2.2925000000000004,-2.5375,0.9443125,0.1140625,0.06371875,1.167125,0.91615625,-0.36234375,-0.4440625,1.1460625,0.019555025365734773,0.020773193899336496,True
40313,39886,0,39887,4471.0,41822.0,30821.0,-0.012199999999999999,0.010003999999999999,0.000488,1.12,-1.4000000000000001,-2.66,0.93821875,0.11509375000000001,0.06509375,1.16965625,0.917625,-0.36271875000000003,-0.4441875,1.14040625,0.019612445757926752,0.020834451953046097,True
40314,39887,0,39888,4473.0,41821.0,30820.0,-0.008601,0.009699,0.004941,1.155,-1.1375000000000002,-2.4850000000000003,0.9454375,0.1150625,0.06546875,1.1736875,0.9120312500000001,-0.36340625,-0.44665625000000003,1.14090625,0.019638828211880264,0.02094867268401993,True
40315,39888,0,39889,4472.0,41820.0,30821.0,-0.005124,0.004392,0.0040869999999999995,0.7000000000000001,-0.8925000000000001,-2.2925000000000004,0.94659375,0.1160625,0.064125,1.16396875,0.91246875,-0.3663125,-0.44021875,1.141875,0.019796799372083895,0.020635811616866152,True
40316,39889,0,39890,4471.0,41824.0,30820.0,-0.0032329999999999998,0.001037,0.000366,-0.10500000000000001,-0.49000000000000005,-2.66,0.93196875,0.11640625,0.064875,1.1708125,0.9211875,-0.3644375,-0.442875,1.1480000000000001,0.019735475116140072,0.020772924625274237,True
40317,39890,0,39891,4471.0,41825.0,30820.0,-0.002013,-0.004148,-0.00042699999999999997,-0.665,-0.21000000000000002,-2.9575000000000005,0.9453125,0.1145,0.06509375,1.171125,0.9225625000000001,-0.360875,-0.44609375,1.15034375,0.019513872141292132,0.020910805023808765,True
40318,39891,0,39892,4474.0,41825.0,30822.0,-0.0070149999999999995,-0.00976,-0.000915,-1.0150000000000001,-0.47250000000000003,-2.8175000000000003,0.94953125,0.116125,0.06496875,1.17646875,0.9110312500000001,-0.36296875,-0.44834375,1.1385625,0.019664834565779263,0.020995798539522742,True
40319,39892,0,39893,4473.0,41827.0,30822.0,-0.0077469999999999995,-0.00915,0.0,-0.56,-1.0150000000000001,-2.765,0.9451875000000001,0.11625,0.06565625,1.16978125,0.90940625,-0.36909375,-0.44434375,1.13796875,0.019916364349823225,0.020863722307947006,True
40320,39893,0,39894,4472.0,41828.0,30822.0,-0.00488,-0.006039,-0.0015249999999999999,-0.08750000000000001,-2.0650000000000004,-2.9225000000000003,0.956125,0.1164375,0.0641875,1.1929687500000001,0.90125,-0.364375,-0.4451875,1.1401875000000001,0.019734243131621476,0.020837434771158948,True
40321,39894,0,39895,4473.0,41826.0,30824.0,6.1e-05,-0.000183,-0.003172,0.35000000000000003,-3.2025,-3.2900000000000005,0.95115625,0.11475,0.0680625,1.167875,0.9215,-0.36584375,-0.4440625,1.139,0.019724075838744557,0.02095089553956099,True
40322,39895,0,39896,4471.0,41827.0,30822.0,0.006588,0.0044529999999999995,-0.0037819999999999998,0.7525000000000001,-4.025,-3.5875000000000004,0.967,0.1150625,0.07053125,1.19359375,0.909875,-0.36890625,-0.44384375000000004,1.13784375,0.019860093228435315,0.021043130747389106,True
40323,39896,0,39897,4473.0,41828.0,30824.0,0.012322,0.009028,-0.002806,1.1900000000000002,-4.0425,-3.7975000000000003,0.932625,0.11984375,0.06028125,1.162875,0.9154375,-0.36009375,-0.437875,1.15165625,0.01970179199330873,0.020384597678808,True
40324,39897,0,39898,4471.0,41828.0,30824.0,0.010858,0.0068319999999999995,-0.002928,0.9275000000000001,-3.0100000000000002,-3.8850000000000002,0.94071875,0.1034375,0.06540625,1.16003125,0.90978125,-0.3629375,-0.44765625000000003,1.143125,0.01914280656837871,0.02098616303965743,True
40325,39898,0,39899,4472.0,41828.0,30824.0,0.0050019999999999995,0.0048189999999999995,-0.000366,0.5425000000000001,-1.7325000000000002,-3.7800000000000002,0.95165625,0.107875,0.06503125,1.16096875,0.90909375,-0.36153125,-0.4449375,1.142625,0.019268339300305682,0.02086193715979024,True
40326,39899,0,39900,4471.0,41829.0,30825.0,0.000976,0.00122,0.0015249999999999999,0.15750000000000003,-0.385,-3.6225000000000005,0.95703125,0.11053125,0.06965625,1.17590625,0.90690625,-0.3671875,-0.44846875,1.1380625,0.019605001603077907,0.021192533785986088,True
40327,39900,0,39901,4473.0,41829.0,30823.0,-0.0034159999999999998,-0.002989,0.00488,-0.17500000000000002,0.5950000000000001,-3.5700000000000003,0.949375,0.12040625,0.06268750000000001,1.18853125,0.91878125,-0.3648125,-0.44240625,1.1450625,0.019914733593784067,0.020664649168900873,True
40328,39901,0,39902,4474.0,41832.0,30824.0,-0.0053679999999999995,-0.005429,0.008296,-0.35000000000000003,1.2075,-3.535,0.93175,0.11093750000000001,0.0573125,1.1505625,0.9200625,-0.3634375,-0.43821875,1.1474375,0.019470774598206845,0.020276897226807904,True
40329,39902,0,39903,4473.0,41835.0,30829.0,-0.0035989999999999998,-0.003965,0.0032329999999999998,-0.07,0.9800000000000001,-3.4650000000000003,0.9568125000000001,0.11371875000000001,0.0703125,1.18625,0.9116562500000001,-0.35725,-0.44425000000000003,1.14159375,0.019335875355387,0.021050451537682688,True
40330,39903,0,39904,4475.0,41837.0,30830.0,-0.0018909999999999999,-0.0025009999999999998,-0.000488,0.5425000000000001,0.6125,-3.4825000000000004,0.93275,0.11325,0.06690625,1.17746875,0.91815625,-0.36371875000000004,-0.44575000000000004,1.14103125,0.019577009359459958,0.020971181084646618,True
40331,39904,0,39905,4474.0,41841.0,30832.0,0.000183,0.000915,-0.004697,1.0150000000000001,0.29750000000000004,-3.5525,0.9450000000000001,0.11900000000000001,0.06359375,1.1695625,0.91825,-0.36640625,-0.44359375,1.1453125,0.019921126038026225,0.020749301644730534,True
40332,39905,0,39906,4476.0,41841.0,30832.0,0.000366,0.0034159999999999998,-0.006893,1.4000000000000001,0.035,-3.5525,0.9425625,0.11590625,0.0686875,1.17175,0.91390625,-0.36396875,-0.4464375,1.1413125,0.019696093231937016,0.02107157740263791,True
40333,39906,0,39907,4474.0,41842.0,30833.0,-0.0011589999999999999,0.001952,-0.004026,1.4525000000000001,-0.9450000000000001,-3.6225000000000005,0.9406875,0.11203125,0.06534375,1.17403125,0.916625,-0.3639375,-0.4435625,1.1436875,0.019535789319768206,0.02081964320871804,True
40334,39907,0,39908,4475.0,41842.0,30833.0,-0.0023179999999999997,-0.000305,-0.003294,1.05,-1.3825,-3.6750000000000003,0.94253125,0.11728125,0.06159375,1.1670625000000001,0.91228125,-0.36625,-0.44421875,1.14521875,0.019844303083158057,0.02069252059855666,True
40335,39908,0,39909,4475.0,41841.0,30832.0,-0.002379,-0.002257,-0.0030499999999999998,0.7350000000000001,-1.6275000000000002,-3.9200000000000004,0.9510000000000001,0.1156875,0.0625,1.170125,0.91196875,-0.36725,-0.44396875,1.144375,0.019819121977244048,0.020719579344086667,True
40336,39909,0,39910,4475.0,41840.0,30833.0,-0.0018909999999999999,-0.003111,-0.003172,0.525,-1.8025000000000002,-4.0075,0.95084375,0.11653125,0.06475,1.17784375,0.91534375,-0.3633125,-0.4445625,1.140875,0.019695341099450252,0.020835410738073143,True
40337,39910,0,39911,4476.0,41839.0,30830.0,0.001037,-0.001952,-0.0013419999999999999,0.4025,-1.61,-4.025,0.94459375,0.11678125,0.06528125,1.17159375,0.92128125,-0.3640625,-0.4468125,1.1415,0.019735778875136282,0.02094726050686567,True
40338,39911,0,39912,4474.0,41840.0,30831.0,-0.001403,0.000366,0.0006709999999999999,0.5950000000000001,-1.1725,-4.112500000000001,0.9449375,0.1148125,0.06459375,1.17640625,0.91809375,-0.36490625,-0.446375,1.1413125,0.019688922464046008,0.020901616292804147,True
40339,39912,0,39913,4475.0,41841.0,30834.0,-0.002806,0.001098,0.000915,0.5075000000000001,-0.9975,-4.2525,0.9451875000000001,0.11334375000000001,0.06546875,1.1728125,0.91934375,-0.36353125000000003,-0.44553125,1.14203125,0.019573312058365926,0.02090361607502394,True
40340,39913,0,39914,4476.0,41841.0,30833.0,-0.00732,0.0017079999999999999,0.0025009999999999998,0.31500000000000006,-0.7875000000000001,-4.340000000000001,0.9452812500000001,0.11553125,0.063,1.1704375,0.9196875,-0.3634375,-0.44525000000000003,1.1320625,0.019659325577517543,0.020791360284717893,True
40341,39914,0,39915,4477.0,41841.0,30834.0,-0.005978,0.0015249999999999999,0.0062829999999999995,0.12250000000000001,-0.5425000000000001,-4.077500000000001,0.94278125,0.11653125,0.0635,1.17084375,0.91890625,-0.363375,-0.4451875,1.14153125,0.019697855900506392,0.020809310626069034,True
40342,39915,0,39916,4478.0,41841.0,30835.0,-0.0050019999999999995,-0.00183,0.009516,-0.052500000000000005,-0.7525000000000001,-3.7975000000000003,0.9449375,0.11671875,0.065625,1.16628125,0.92209375,-0.36346875,-0.445875,1.1416875,0.01970932402636632,0.02092377548359386,True
40343,39916,0,39917,4479.0,41842.0,30837.0,-0.001098,-0.001464,0.0034159999999999998,-0.31500000000000006,-2.5025000000000004,-3.6225000000000005,0.9450937500000001,0.11534375000000001,0.0689375,1.169875,0.92025,-0.364,-0.44721875,1.1344375,0.019674263257264818,0.021113086739161277,True
40344,39917,0,39918,4479.0,41842.0,30839.0,0.004941,-0.000915,0.000305,-0.08750000000000001,-3.5175000000000005,-3.5700000000000003,0.95103125,0.11575,0.06240625,1.170125,0.91903125,-0.36425,-0.44546875,1.14203125,0.019700996336845997,0.020775833967184618,True
40345,39918,0,39919,4480.0,41842.0,30839.0,0.008539999999999999,0.000122,-0.002013,0.2625,-4.130000000000001,-3.535,0.95084375,0.116125,0.06343750000000001,1.17059375,0.914625,-0.3636875,-0.44428125,1.141,0.019693755306950146,0.02077045116636432,True
40346,39919,0,39920,4480.0,41842.0,30840.0,0.011224,0.002379,-0.004331,0.5075000000000001,-4.742500000000001,-3.5525,0.9494375,0.11675,0.065375,1.1738125,0.9144375,-0.36434375,-0.4455,1.1423125,0.019745811951122225,0.02089852938168579,True
40347,39920,0,39921,4481.0,41845.0,30841.0,0.010614,0.004331,-0.0064659999999999995,0.5775,-5.075,-3.5700000000000003,0.9448125,0.11359375000000001,0.0648125,1.16540625,0.9178437500000001,-0.364,-0.44346875,1.14734375,0.019602435971104906,0.020794153857561642,True
40348,39921,0,39922,4482.0,41844.0,30841.0,0.00915,0.00122,-0.0037819999999999998,0.5075000000000001,-4.2525,-3.2725000000000004,0.94978125,0.115875,0.0651875,1.17003125,0.91309375,-0.36603125000000003,-0.444,1.1416250000000001,0.019777790032999325,0.02083077646866307,True
40349,39922,0,39923,4482.0,41843.0,30840.0,0.005307,0.0,-0.0018909999999999999,0.4025,-3.6750000000000003,-3.1500000000000004,0.9450625,0.112625,0.0721875,1.17746875,0.9171875,-0.36328125,-0.44465625000000003,1.14175,0.019533750200416866,0.021143424751575306,True
40350,39923,0,39924,4481.0,41844.0,30840.0,0.001281,-0.001098,-0.0017079999999999999,0.22750000000000004,-2.9400000000000004,-3.22,0.94475,0.11353125,0.06334375,1.1705,0.9178125,-0.3648125,-0.4435,1.1456875,0.019632564379471418,0.020735318182747972,True
40351,39924,0,39925,4482.0,41843.0,30838.0,-0.002196,-0.000305,-0.001952,0.08750000000000001,-1.9075000000000002,-3.3600000000000003,0.952625,0.1158125,0.06609375,1.17828125,0.91390625,-0.36353125000000003,-0.44103125,1.14203125,0.0196746417865842,0.020748919913107185,True
40352,39925,0,39926,4484.0,41842.0,30836.0,-0.00366,-0.0018909999999999999,0.001037,-0.052500000000000005,-0.8750000000000001,-3.3075,0.9449375,0.1166875,0.0623125,1.1713437500000001,0.9204687500000001,-0.36446875,-0.443875,1.14746875,0.01974827585764619,0.020708152860379136,True
40353,39926,0,39927,4481.0,41839.0,30834.0,-0.005246,-0.0018909999999999999,0.001037,0.0175,0.42000000000000004,-3.2375000000000003,0.95275,0.11796875,0.06596875,1.1739375,0.9139375000000001,-0.3635625,-0.44721875,1.13615625,0.019764402270809125,0.020991651657716687,True
40354,39927,0,39928,4481.0,41839.0,30831.0,-0.005795,-0.0023179999999999997,0.000976,-0.2625,0.525,-3.43,0.9382812500000001,0.11675,0.062375,1.16928125,0.91296875,-0.3614375,-0.44359375,1.1471875,0.019628870422773698,0.020699441955011215,True
40355,39928,0,39929,4481.0,41839.0,30830.0,-0.004758,-0.000244,0.000549,-0.385,0.5950000000000001,-3.5525,0.950625,0.115625,0.072875,1.17634375,0.9124375,-0.363,-0.44978125,1.14740625,0.019645569100685465,0.021376724996261472,True
40356,39929,0,39930,4478.0,41839.0,30829.0,-0.004026,0.000122,0.001403,-0.1925,0.6825000000000001,-3.6050000000000004,0.94825,0.1163125,0.06346875,1.16996875,0.9091250000000001,-0.36778125,-0.4479375,1.1359375,0.019866139843979433,0.020918175612973485,True
40357,39930,0,39931,4477.0,41840.0,30829.0,-0.004392,0.0,0.003111,0.0,0.6125,-3.535,0.94525,0.11540625,0.06590625,1.1785625,0.92034375,-0.36165625,-0.444125,1.14103125,0.019582515043491757,0.020865187442790444,True
40358,39931,0,39932,4475.0,41837.0,30826.0,-0.001769,0.002623,-0.00042699999999999997,0.07,-0.0175,-3.8325000000000005,0.94484375,0.1146875,0.06278125,1.1708125,0.9072187500000001,-0.37184375000000003,-0.44146875,1.14328125,0.019962841342276372,0.0206309205538231,True
40359,39932,0,39933,4472.0,41837.0,30824.0,6.1e-05,0.0025009999999999998,0.000366,-0.12250000000000001,-0.22750000000000004,-3.99,0.95034375,0.115125,0.06575,1.1655312500000001,0.929625,-0.36128125,-0.44078125,1.15946875,0.019555878244293903,0.020724838736486787,True
40360,39933,0,39934,4470.0,41835.0,30823.0,0.001037,-0.001098,0.0011589999999999999,-0.15750000000000003,-0.665,-4.025,0.949875,0.11584375000000001,0.06875,1.17084375,0.90725,-0.3615625,-0.4461875,1.151,0.019596700745282657,0.021064122984412192,True
40361,39934,0,39935,4469.0,41833.0,30821.0,0.00042699999999999997,-0.00061,0.00061,-0.14,-1.155,-4.0425,0.944625,0.11671875,0.06318750000000001,1.16675,0.90609375,-0.3669375,-0.44284375000000004,1.1358125000000001,0.019848873088790908,0.020702634078737257,True
40362,39935,0,39936,4466.0,41833.0,30822.0,0.002013,-0.00061,-0.001647,-0.21000000000000002,-1.4525000000000001,-4.4975000000000005,0.951125,0.1165625,0.06390625,1.17109375,0.911875,-0.36475,-0.44371875,1.15096875,0.019754460850203676,0.020767093795824337,True
40363,39936,0,39937,4466.0,41834.0,30820.0,0.005307,-0.000183,0.000305,-0.385,-0.7175,-4.6725,0.9499375,0.1165625,0.06484375,1.1692500000000001,0.906625,-0.36815625,-0.431375,1.15525,0.019891482352096295,0.020310717264173633,True
40364,39937,0,39938,4464.0,41832.0,30818.0,0.002806,-0.001586,0.0,-0.2625,-0.525,-4.4975000000000005,0.9500000000000001,0.11615625,0.06428125,1.17046875,0.90696875,-0.36634375,-0.44540625,1.1328125,0.019801904009500812,0.020850031895051854,True
40365,39938,0,39939,4462.0,41828.0,30818.0,-0.001098,-0.001098,-0.0018909999999999999,-0.3325,-0.47250000000000003,-4.4975000000000005,0.94540625,0.11971875,0.0655,1.17540625,0.92621875,-0.36309375,-0.44040625,1.15175,0.019817372331869795,0.020699584320534772,True
40366,39939,0,39940,4461.0,41830.0,30819.0,-0.002623,-0.001281,0.000244,-0.385,-0.28,-4.4275,0.9469062500000001,0.11684375,0.06378125,1.175375,0.90634375,-0.36462500000000003,-0.4444375,1.1300937500000001,0.019760975184309217,0.020790772951924132,True
40367,39940,0,39941,4463.0,41827.0,30818.0,-0.001098,-0.00042699999999999997,0.0034159999999999998,-0.49000000000000005,-0.22750000000000004,-4.6375,0.9448125,0.117125,0.06256250000000001,1.17003125,0.9151875,-0.36628125,-0.4424375,1.14959375,0.019839147592536306,0.02066078720667691,True
40368,39941,0,39942,4460.0,41828.0,30819.0,0.002806,-0.0006709999999999999,0.0023179999999999997,-0.36750000000000005,-0.12250000000000001,-4.6025,0.95165625,0.11575,0.065,1.1715312500000001,0.9129375000000001,-0.3630625,-0.445,1.14490625,0.01965321477954588,0.02086316220085907,True
40369,39942,0,39943,4459.0,41827.0,30818.0,0.002196,-0.00122,0.004697,-0.28,0.08750000000000001,-4.6725,0.94903125,0.1165625,0.06256250000000001,1.16609375,0.9068125,-0.3649375,-0.44365625000000003,1.13821875,0.01976200431460167,0.020709616631104443,True
40370,39943,0,39944,4460.0,41827.0,30820.0,-0.002196,0.000915,0.0023179999999999997,-0.0175,0.052500000000000005,-4.567500000000001,0.95175,0.12115625000000001,0.0654375,1.17596875,0.9136875,-0.36328125,-0.44656250000000003,1.1416250000000001,0.019883918550585217,0.02094363982666275,True
40371,39944,0,39945,4459.0,41831.0,30822.0,-0.0013419999999999999,0.001281,0.003965,0.1925,0.6825000000000001,-4.4975000000000005,0.9450937500000001,0.1133125,0.0651875,1.173,0.92228125,-0.36378125,-0.4393125,1.13509375,0.019582089705390045,0.020642970214485367,True
40372,39945,0,39946,4459.0,41828.0,30820.0,-0.0053679999999999995,0.00122,0.001281,0.7525000000000001,0.7000000000000001,-4.0600000000000005,0.944875,0.11640625,0.06459375,1.1711562500000001,0.91315625,-0.36578125,-0.4431875,1.1488125,0.019789535785970334,0.020773937523491978,True
40373,39946,0,39947,4459.0,41829.0,30821.0,-0.0034159999999999998,0.00122,0.000305,0.8750000000000001,0.665,-3.8500000000000005,0.94903125,0.114625,0.06559375,1.17440625,0.9138437500000001,-0.36309375,-0.445625,1.14215625,0.019608295847074016,0.020912484340244935,True
40374,39947,0,39948,4459.0,41829.0,30821.0,-0.003477,0.001281,-0.0026839999999999998,0.9450000000000001,0.21000000000000002,-3.7800000000000002,0.94959375,0.1163125,0.06478125,1.17059375,0.9130312500000001,-0.36646875,-0.44353125,1.1443125,0.019813344927134754,0.020795379145556146,True
40375,39948,0,39949,4459.0,41829.0,30820.0,0.00183,0.000305,-0.0013419999999999999,0.7350000000000001,-0.385,-3.9025000000000003,0.942875,0.11534375000000001,0.0651875,1.1713125,0.9216562500000001,-0.36362500000000003,-0.44271875,1.14740625,0.01965917428133129,0.020779449912870267,True
40376,39949,0,39950,4460.0,41831.0,30821.0,0.005978,-0.001281,0.000305,0.5775,-0.77,-3.7800000000000002,0.953875,0.11675,0.06534375,1.17646875,0.9136875,-0.36259375,-0.44615625000000003,1.1425,0.019675398888921673,0.02092353475814833,True
40377,39950,0,39951,4458.0,41829.0,30823.0,0.0011589999999999999,-0.002623,-0.0015249999999999999,0.5950000000000001,-1.4000000000000001,-3.7800000000000002,0.94453125,0.11715625,0.060875,1.1700625,0.91840625,-0.35962500000000003,-0.43959375,1.14896875,0.019572602205493724,0.02047778515140007,True
40378,39951,0,39952,4459.0,41832.0,30823.0,0.0023179999999999997,0.0,-0.00244,1.0850000000000002,-0.9975,-4.0075,0.9575625,0.11578125,0.0666875,1.18109375,0.9126875,-0.3625625,-0.442125,1.1416250000000001,0.01963437754136085,0.020817032070656705,True
40379,39952,0,39953,4459.0,41831.0,30820.0,0.0025009999999999998,0.0011589999999999999,-0.005307,1.5575,-0.31500000000000006,-3.9725000000000006,0.94265625,0.1170625,0.068625,1.16803125,0.91925,-0.36509375,-0.44365625000000003,1.14746875,0.019788811606768392,0.020957635991955992,True
40380,39953,0,39954,4459.0,41834.0,30824.0,0.000793,0.003355,-0.0053679999999999995,1.8900000000000001,0.4025,-3.9025000000000003,0.9480937500000001,0.1161875,0.06684375000000001,1.183375,0.91209375,-0.36271875000000003,-0.44784375,1.1429375,0.019657340172676747,0.02105247011814692,True
40381,39954,0,39955,4459.0,41832.0,30821.0,-0.0037819999999999998,0.00366,-0.0028669999999999998,1.9775000000000003,0.8225000000000001,-4.077500000000001,0.9425,0.11259375,0.064875,1.16859375,0.9188125,-0.36478125,-0.443,1.1465,0.019592829301514864,0.020777932332365093,True
40382,39955,0,39956,4459.0,41831.0,30821.0,-0.0073809999999999995,-0.000366,0.0030499999999999998,1.1900000000000002,0.5950000000000001,-4.0425,0.9550000000000001,0.121875,0.064875,1.180125,0.91228125,-0.36475,-0.44403125,1.1418125000000001,0.019972501256938818,0.020819243961652193,True
40383,39956,0,39957,4459.0,41830.0,30820.0,-0.0044529999999999995,-0.0035989999999999998,0.00061,0.8400000000000001,-0.12250000000000001,-4.2525,0.9386875,0.1173125,0.06196875,1.16865625,0.9158437500000001,-0.3619375,-0.44315625000000003,1.14578125,0.01967208067913318,0.02066529358294308,True
40384,39957,0,39958,4460.0,41833.0,30823.0,-0.001647,-0.004392,0.002074,0.5775,-0.8225000000000001,-4.48,0.9420000000000001,0.1136875,0.065375,1.1573125,0.91815625,-0.36362500000000003,-0.44409375,1.13434375,0.019591193839176232,0.020842202423642726,True
40385,39958,0,39959,4457.0,41833.0,30822.0,0.001647,-0.002623,-0.001769,0.45500000000000007,-1.435,-4.9,0.94378125,0.1148125,0.0666875,1.1806875000000001,0.912875,-0.363875,-0.445,1.141875,0.019647428826490038,0.020932194722847207,True
40386,39959,0,39960,4456.0,41831.0,30822.0,0.005795,-0.000488,-0.001769,0.56,-1.6450000000000002,-4.865,0.94371875,0.11734375,0.06434375,1.16834375,0.916625,-0.36590625,-0.4433125,1.1449375,0.01983304027528219,0.02076871741503939,True
40387,39960,0,39961,4459.0,41830.0,30820.0,0.001281,0.0008539999999999999,-0.000183,0.9450000000000001,-1.4000000000000001,-4.445,0.95159375,0.115125,0.066375,1.17959375,0.91315625,-0.36278125,-0.444875,1.1414375,0.01961624352720402,0.02091440434855977,True
40388,39961,0,39962,4455.0,41832.0,30821.0,-0.0015249999999999999,0.0021349999999999997,-0.000305,1.12,-1.435,-4.4975000000000005,0.9420625,0.11803125,0.06253125,1.1691562500000001,0.91721875,-0.36440625,-0.443125,1.14603125,0.019800913473932903,0.020687054130762744,True
40389,39962,0,39963,4455.0,41830.0,30822.0,-0.0015249999999999999,0.003904,0.0044529999999999995,1.0325000000000002,-1.12,-4.445,0.9490000000000001,0.11653125,0.0659375,1.17890625,0.912375,-0.3635625,-0.44325000000000003,1.1424375,0.019705400226260012,0.020831415625990817,True
40390,39963,0,39964,4457.0,41834.0,30825.0,0.000305,0.002257,0.003111,0.8925000000000001,-0.7350000000000001,-4.1475,0.94671875,0.11628125,0.066125,1.1771562500000001,0.91346875,-0.36540625,-0.4444375,1.13759375,0.019769319462916813,0.020886653660981157,True
40391,39964,0,39965,4457.0,41833.0,30823.0,0.0,0.0008539999999999999,0.000793,0.7350000000000001,-0.8400000000000001,-3.8850000000000002,0.9450625,0.11671875,0.06281250000000001,1.17753125,0.91215625,-0.36653125000000003,-0.43778125,1.1429375,0.019832531559041668,0.0204844189772752,True
40392,39965,0,39966,4454.0,41833.0,30824.0,-0.000244,0.000122,-0.000976,0.6475000000000001,-1.6800000000000002,-3.7975000000000003,0.941875,0.115875,0.06318750000000001,1.1705,0.9130625,-0.37040625,-0.44378125,1.13634375,0.019953760516405017,0.02074019337740555,True
40393,39966,0,39967,4456.0,41835.0,30825.0,0.00244,0.001281,0.001952,0.6825000000000001,-1.6975000000000002,-3.7100000000000004,0.9440000000000001,0.11346875000000001,0.064125,1.17034375,0.9425,-0.363375,-0.4424375,1.1524375,0.01957215492516944,0.020724712909667868,True
40394,39967,0,39968,4458.0,41835.0,30825.0,0.002806,-0.000244,-0.00042699999999999997,0.7000000000000001,-1.6800000000000002,-3.5525,0.93965625,0.1129375,0.0661875,1.17290625,0.94078125,-0.36359375,-0.437,1.15665625,0.019559152680420966,0.020591214142488847,True
40395,39968,0,39969,4456.0,41837.0,30826.0,0.002562,-0.00122,-0.000244,0.6300000000000001,-1.4175000000000002,-3.5525,0.9445625,0.121625,0.06825,1.17009375,0.899875,-0.3658125,-0.44546875,1.1305625,0.020004976234632026,0.02101488645007063,True
40396,39969,0,39970,4458.0,41838.0,30828.0,-0.000488,-0.0013419999999999999,0.000915,0.6125,-1.12,-3.6225000000000005,0.94440625,0.1145,0.06453125,1.1711562500000001,0.92615625,-0.35946875,-0.43903125,1.15621875,0.01945726956791699,0.02060484701086505,True
40397,39970,0,39971,4458.0,41840.0,30830.0,-0.0042699999999999995,-0.0011589999999999999,-0.0008539999999999999,0.8225000000000001,-0.9450000000000001,-3.6225000000000005,0.951375,0.116875,0.0646875,1.165875,0.9136562500000001,-0.3596875,-0.4493125,1.1306875,0.01956357198753063,0.021023086027470095,True
40398,39971,0,39972,4459.0,41839.0,30830.0,-0.0034159999999999998,-0.000244,-0.0018909999999999999,0.9450000000000001,-0.8925000000000001,-3.6050000000000004,0.9440625,0.12021875,0.07096875,1.17784375,0.9295,-0.3635625,-0.44609375,1.14725,0.019856753297059902,0.021151129717810233,True
40399,39972,0,39973,4459.0,41841.0,30831.0,-0.001647,0.000732,-0.003111,1.12,-0.9450000000000001,-3.5875000000000004,0.9444375,0.11609375,0.06259375,1.17015625,0.9013125000000001,-0.37121875,-0.44221875,1.1325625,0.019995409544301103,0.02065330096106762,True
40400,39973,0,39974,4458.0,41841.0,30831.0,0.0018909999999999999,0.0015249999999999999,-0.002989,1.05,-1.2075,-3.6225000000000005,0.9539375,0.11659375,0.06715625,1.17746875,0.92471875,-0.354,-0.45040625,1.13259375,0.01932305781391147,0.02116784869372058,True
40401,39974,0,39975,4459.0,41841.0,30830.0,0.0028669999999999998,0.002989,-0.0008539999999999999,0.9275000000000001,-1.5050000000000001,-3.7975000000000003,0.9450625,0.11359375000000001,0.0655625,1.1636250000000001,0.9266562500000001,-0.36421875,-0.44609375,1.14528125,0.019611238304121696,0.020929979866415264,True
40402,39975,0,39976,4459.0,41840.0,30831.0,0.0018909999999999999,0.0,-0.000915,0.5425000000000001,-1.5575,-3.9375000000000004,0.9443125,0.11734375,0.06465625,1.17071875,0.89975,-0.363375,-0.43925000000000003,1.15978125,0.019731205138861094,0.020618728070624096,True
40403,39976,0,39977,4460.0,41842.0,30833.0,0.0026839999999999998,-0.000915,-6.1e-05,0.4025,-1.2600000000000002,-4.0425,0.944625,0.11659375,0.0660625,1.17409375,0.90559375,-0.3680625,-0.44606250000000003,1.1310625,0.01988899404702364,0.020949181488838953,True
40404,39977,0,39978,4459.0,41841.0,30834.0,-0.0006709999999999999,-0.0011589999999999999,-0.000793,0.42000000000000004,-0.9800000000000001,-4.0075,0.945125,0.114625,0.068875,1.1609375,0.92271875,-0.36228125,-0.43840625,1.1496250000000001,0.019575599062587785,0.020757542239482167,True
40405,39978,0,39979,4461.0,41842.0,30833.0,-0.0025009999999999998,-0.000122,0.002745,0.43750000000000006,-0.7175,-4.095000000000001,0.95078125,0.11403125,0.065125,1.1671562500000001,0.90740625,-0.36325,-0.4435,1.14159375,0.019590212717925562,0.020808190316444045,True
40406,39979,0,39980,4461.0,41840.0,30832.0,-0.003172,0.000183,0.0015249999999999999,0.3325,-0.49000000000000005,-4.112500000000001,0.94928125,0.11478125,0.0658125,1.1756875,0.913125,-0.361375,-0.44603125,1.14165625,0.019545540840777666,0.020937703333746654,True
40407,39980,0,39981,4462.0,41842.0,30833.0,-0.0040869999999999995,0.000732,0.002928,0.4025,-0.8225000000000001,-3.9375000000000004,0.9389375,0.11634375,0.063375,1.1708125,0.91371875,-0.36415625,-0.4398125,1.1484375,0.019721594093782747,0.020588844533893213,True
40408,39981,0,39982,4462.0,41842.0,30836.0,-0.0018909999999999999,0.00042699999999999997,0.00042699999999999997,0.47250000000000003,-1.1375000000000002,-3.9550000000000005,0.9507187500000001,0.1168125,0.0655,1.17128125,0.91309375,-0.365,-0.4429375,1.14621875,0.01977477939667556,0.020800998243357616,True
40409,39982,0,39983,4464.0,41844.0,30836.0,0.00061,0.001769,0.003172,0.5075000000000001,-1.5925000000000002,-3.9375000000000004,0.9465,0.1145625,0.0651875,1.167375,0.913,-0.36309375,-0.445875,1.1415625,0.01960573049143235,0.020905878803683647,True
40410,39983,0,39984,4465.0,41844.0,30837.0,0.002196,0.000732,-0.001098,0.43750000000000006,-1.9075000000000002,-3.7975000000000003,0.9445625,0.11709375,0.06325,1.170875,0.915875,-0.3639375,-0.4430625,1.1499062500000001,0.019743575930614665,0.02071395513553181,True
40411,39984,0,39985,4464.0,41843.0,30837.0,0.0046359999999999995,0.0008539999999999999,-0.001952,0.17500000000000002,-2.2750000000000004,-3.7975000000000003,0.9511875000000001,0.11625,0.06471875,1.1714375000000001,0.90625,-0.3655625,-0.44325000000000003,1.14734375,0.019774322878858226,0.020781555235085354,True
40412,39985,0,39986,4465.0,41845.0,30839.0,0.006405,-0.001464,-0.0025009999999999998,-0.10500000000000001,-2.3275,-3.6925000000000003,0.9500000000000001,0.12165625000000001,0.0689375,1.1713437500000001,0.9124375,-0.36459375,-0.44328125,1.14890625,0.019957238154237642,0.02095540057658994,True
40413,39986,0,39987,4467.0,41845.0,30837.0,0.006222,-0.00122,-0.002196,-0.17500000000000002,-1.9600000000000002,-3.535,0.9516875,0.11590625,0.062625,1.1711875,0.91296875,-0.36634375,-0.443875,1.14909375,0.019791643955609877,0.020720937249106376,True
40414,39987,0,39988,4467.0,41846.0,30840.0,0.002745,-0.001037,0.001403,0.1925,-1.3475000000000001,-3.4650000000000003,0.94659375,0.11690625,0.063875,1.1713437500000001,0.91334375,-0.3645625,-0.4425625,1.1480625,0.01976102587518245,0.020719492892776685,True
40415,39988,0,39989,4466.0,41847.0,30841.0,-0.0015249999999999999,0.00061,0.0008539999999999999,0.4025,-0.7000000000000001,-3.4825000000000004,0.96065625,0.11675,0.0641875,1.1845625,0.91328125,-0.36584375,-0.4431875,1.1417187500000001,0.019806157954205875,0.02075731735069332,True
40416,39989,0,39990,4465.0,41847.0,30840.0,-0.004697,0.0015249999999999999,0.000366,0.5425000000000001,-0.29750000000000004,-3.5000000000000004,0.9305625000000001,0.11696875,0.05846875,1.16759375,0.9214375,-0.36278125,-0.44190625,1.14859375,0.01969192248935043,0.020472012079663388,True
40417,39990,0,39991,4467.0,41847.0,30842.0,-0.006588,0.001586,-0.000366,0.8575,-0.35000000000000003,-3.4125000000000005,0.95653125,0.12503125,0.0711875,1.183625,0.9136562500000001,-0.3660625,-0.44396875,1.1455,0.020154826000302672,0.02107498398761453,True
40418,39991,0,39992,4469.0,41847.0,30840.0,-0.004392,0.000976,0.000244,0.6825000000000001,-0.5425000000000001,-3.4475000000000002,0.938625,0.116375,0.06378125,1.16496875,0.916875,-0.36275,-0.4451875,1.1425625,0.019666293829719555,0.020820815958151273,True
40419,39992,0,39993,4470.0,41845.0,30839.0,-0.001647,-0.0008539999999999999,0.001037,0.28,-0.9450000000000001,-3.5000000000000004,0.9589062500000001,0.1178125,0.06071875,1.1654375000000001,0.9131875,-0.36512500000000003,-0.44303125,1.14784375,0.01982085049840705,0.020609146011708348,True
40420,39993,0,39994,4469.0,41845.0,30839.0,0.000549,-0.002379,0.00042699999999999997,0.052500000000000005,-1.3650000000000002,-3.5175000000000005,0.94140625,0.11209375,0.06721875000000001,1.18765625,0.91321875,-0.36684375,-0.44390625,1.14246875,0.019655294912784917,0.020910119469959923,True
40421,39994,0,39995,4468.0,41844.0,30839.0,0.00061,-0.002928,-0.0018909999999999999,-0.17500000000000002,-1.6625,-3.6225000000000005,0.93875,0.11103125,0.06584375,1.164875,0.91590625,-0.36375,-0.4413125,1.1416875,0.019487199220152893,0.020749959724953398,True
40422,39995,0,39996,4469.0,41840.0,30834.0,0.0017079999999999999,-0.001769,-0.000915,0.12250000000000001,-1.4000000000000001,-3.4825000000000004,0.9554375,0.11825000000000001,0.06165625,1.16571875,0.91871875,-0.3636875,-0.442875,1.1496250000000001,0.019780975273139587,0.020641240034161283,True
40423,39996,0,39997,4469.0,41840.0,30832.0,0.002989,0.000915,-0.002379,0.4025,-1.225,-3.5175000000000005,0.96325,0.1174375,0.05715625,1.1653437500000001,0.91371875,-0.36415625,-0.4431875,1.1423125,0.019766485859735037,0.020469660513793463,True
40424,39997,0,39998,4468.0,41841.0,30832.0,0.001037,0.003355,0.000305,0.5775,-1.0675000000000001,-3.6050000000000004,0.959375,0.11884375,0.0573125,1.1673437500000001,0.9147500000000001,-0.36303125,-0.44228125,1.141125,0.019778942737267147,0.020439734936770683,True
40425,39998,0,39999,4465.0,41840.0,30829.0,-0.00061,0.002928,0.000549,0.6125,-0.9975,-3.6575,0.94596875,0.11853125,0.06356250000000001,1.1585625,0.921,-0.3638125,-0.440625,1.1416875,0.019797548105412482,0.020629075565784426,True
40426,39999,0,40000,4465.0,41839.0,30826.0,0.00061,0.00122,0.002989,0.36750000000000005,-0.7175,-3.7800000000000002,0.9580000000000001,0.1213125,0.06393750000000001,1.165375,0.912625,-0.36721875,-0.4430625,1.148125,0.02004870785673888,0.020742081725643013,True
40427,40000,0,40001,4463.0,41838.0,30824.0,-0.0011589999999999999,-0.002257,0.001769,-0.14,-0.5075000000000001,-3.8150000000000004,0.948125,0.11303125,0.06853125,1.17509375,0.9128437500000001,-0.36446875,-0.44590625,1.1418125000000001,0.019598211021941533,0.021043912004694038,True
40428,40001,0,40002,4462.0,41838.0,30824.0,-0.001769,-0.0011589999999999999,0.0015249999999999999,-0.29750000000000004,-0.43750000000000006,-3.8675,0.9402812500000001,0.11378125,0.0648125,1.16890625,0.92153125,-0.3640625,-0.442875,1.14521875,0.019612646700442507,0.02077036764292253,True
40429,40002,0,40003,4459.0,41836.0,30824.0,-0.0032329999999999998,-0.002013,0.0011589999999999999,-0.21000000000000002,-0.45500000000000007,-3.8675,0.95325,0.11659375,0.06575,1.17821875,0.9135,-0.36403125000000003,-0.4416875,1.1414375,0.01972682578955402,0.020761148345424186,True
40430,40003,0,40004,4457.0,41833.0,30823.0,-0.003721,-0.001586,0.0013419999999999999,-0.14,-0.36750000000000005,-3.7450000000000006,0.9509375,0.11671875,0.06371875,1.1735625,0.91509375,-0.36712500000000003,-0.44296875,1.13728125,0.01985641514950984,0.020729376418320712,True
40431,40004,0,40005,4457.0,41832.0,30822.0,-0.00183,-0.001464,-0.000183,0.0175,-0.9275000000000001,-3.6400000000000006,0.9455625,0.11371875000000001,0.065,1.1705,0.9206562500000001,-0.3639375,-0.4426875,1.1499375,0.019605051523383692,0.020770526972535244,True
40432,40005,0,40006,4456.0,41833.0,30823.0,0.0011589999999999999,0.0,-0.0008539999999999999,0.385,-1.4000000000000001,-3.7275000000000005,0.95228125,0.1185625,0.06671875000000001,1.1740625,0.9128437500000001,-0.35946875,-0.44490625,1.14015625,0.019624042498874283,0.020929718231175464,True
40433,40006,0,40007,4454.0,41834.0,30822.0,0.003111,0.0013419999999999999,0.00061,0.6125,-1.7850000000000001,-3.7275000000000005,0.94865625,0.1160625,0.068625,1.17775,0.9128125,-0.359125,-0.44371875,1.14146875,0.019507576729459703,0.02096013929959,True
40434,40007,0,40008,4453.0,41834.0,30823.0,0.004209,0.0026839999999999998,-0.002013,0.7000000000000001,-2.205,-3.8325000000000005,0.9520937500000001,0.11540625,0.06621875,1.177125,0.9155,-0.36515625,-0.44628125,1.1416250000000001,0.019723349814348104,0.020964333787986674,True
40435,40008,0,40009,4451.0,41836.0,30826.0,0.004758,0.00244,-0.001464,0.7875000000000001,-2.3800000000000003,-4.0075,0.9523125,0.11565625,0.0654375,1.1710625000000001,0.913125,-0.36734375,-0.44671875,1.1415625,0.019821610634109435,0.020949897417214734,True
40436,40009,0,40010,4450.0,41835.0,30824.0,0.003721,0.00183,-0.0026839999999999998,0.5950000000000001,-1.3125000000000002,-3.9725000000000006,0.9464375,0.11321875,0.065,1.16996875,0.91334375,-0.36303125,-0.44496875,1.14896875,0.01954806013722123,0.020861910490272157,True
40437,40010,0,40011,4450.0,41836.0,30826.0,0.001647,0.000366,-0.0028669999999999998,0.5425000000000001,-0.5950000000000001,-3.8850000000000002,0.94465625,0.11459375000000001,0.06328125,1.16771875,0.91240625,-0.3636875,-0.44196875,1.14778125,0.019630905625431287,0.020671411749513834,True
40438,40011,0,40012,4449.0,41836.0,30826.0,-0.002257,-0.0006709999999999999,-0.000122,0.385,0.0175,-3.8150000000000004,0.94521875,0.11871875,0.06306250000000001,1.17065625,0.9103125,-0.36428125,-0.442625,1.14240625,0.01982410213722188,0.020688755810801825,True
40439,40012,0,40013,4450.0,41838.0,30827.0,-0.006039,-0.002745,0.00061,0.08750000000000001,0.24500000000000002,-3.7625,0.94421875,0.115625,0.06340625,1.17828125,0.91746875,-0.36046875,-0.44275000000000003,1.1429375,0.019543702335366595,0.02070782747440448,True
40440,40013,0,40014,4449.0,41836.0,30828.0,-0.004758,-0.0035989999999999998,0.001098,-0.08750000000000001,0.35000000000000003,-3.7450000000000006,0.945875,0.11965625,0.06375,1.174,0.91853125,-0.36609375,-0.44371875,1.14225,0.019935489249276978,0.02076070156060031,True
40441,40014,0,40015,4450.0,41838.0,30827.0,0.0006709999999999999,-0.0026839999999999998,-0.000122,-0.08750000000000001,0.12250000000000001,-3.6050000000000004,0.94121875,0.1131875,0.06390625,1.1706875,0.921,-0.3639375,-0.44606250000000003,1.1490625,0.019583246755578817,0.020860977100095365,True
40442,40015,0,40016,4447.0,41839.0,30826.0,-0.0008539999999999999,-0.000915,0.0035989999999999998,-0.07,-0.22750000000000004,-3.8325000000000005,0.9504375,0.11640625,0.07128125,1.1712500000000001,0.913,-0.36321875000000003,-0.446,1.1416875,0.019686438188714288,0.02116015912623742,True
40443,40016,0,40017,4448.0,41839.0,30829.0,-0.002379,0.001403,0.00183,0.22750000000000004,-0.6300000000000001,-4.0425,0.9519375,0.11584375000000001,0.0660625,1.1771875,0.9108125,-0.36615625,-0.44190625,1.14225,0.019781536121438934,0.020782697748871367,True
40444,40017,0,40018,4446.0,41837.0,30828.0,-0.004758,0.002562,0.00122,0.42000000000000004,-0.8575,-3.99,0.94346875,0.11665625,0.06753125,1.17046875,0.91934375,-0.36440625,-0.44325000000000003,1.1499375,0.019744478690097364,0.020896617675636428,True
40445,40018,0,40019,4448.0,41839.0,30830.0,-0.00366,0.001647,0.001952,0.47250000000000003,-1.0850000000000002,-3.8675,0.9434375,0.11503125,0.06565625,1.17203125,0.9164375,-0.36334375,-0.4445,1.1429375,0.01963503059796544,0.020869980977315957,True
40446,40019,0,40020,4448.0,41839.0,30830.0,0.0023179999999999997,-0.000976,0.000122,0.17500000000000002,-1.3475000000000001,-3.6400000000000006,0.9445,0.11890625,0.06471875,1.1715,0.90259375,-0.3660625,-0.4429375,1.1496875,0.01990345177847262,0.020769036045688045,True
40447,40020,0,40021,4446.0,41837.0,30827.0,0.0032329999999999998,-0.000915,-0.00061,0.08750000000000001,-1.6275000000000002,-3.7800000000000002,0.94484375,0.11425,0.0651875,1.17090625,0.9131875,-0.36353125000000003,-0.445375,1.1440937500000001,0.019610509047205547,0.02088585264083697,True
40448,40021,0,40022,4449.0,41838.0,30828.0,0.004941,-0.000549,-0.001769,-0.0175,-1.8025000000000002,-3.7800000000000002,0.9485625,0.11653125,0.0661875,1.174125,0.9136875,-0.36671875,-0.4438125,1.14215625,0.0198323789492584,0.020864175749998083,True
40449,40022,0,40023,4447.0,41836.0,30826.0,0.0044529999999999995,-6.1e-05,-0.002074,0.10500000000000001,-1.8025000000000002,-3.7975000000000003,0.94534375,0.11765625,0.06446875,1.174,0.9216562500000001,-0.36740625,-0.44325000000000003,1.14246875,0.019906201547405154,0.020771327462591922,True
40450,40023,0,40024,4448.0,41836.0,30826.0,0.004148,-0.000366,-0.002806,0.24500000000000002,-1.61,-3.6925000000000003,0.94453125,0.1168125,0.0655625,1.1738125,0.92434375,-0.36471875,-0.44384375000000004,1.13515625,0.019763464333032776,0.020839858706755154,True
40451,40024,0,40025,4448.0,41835.0,30827.0,0.001037,0.002806,-0.001037,0.5950000000000001,-0.9275000000000001,-3.7450000000000006,0.94515625,0.1163125,0.0664375,1.1752500000000001,0.9256562500000001,-0.36453125000000003,-0.44371875,1.14059375,0.01973539917785203,0.0208706480064536,True
40452,40025,0,40026,4446.0,41837.0,30825.0,-0.0013419999999999999,0.0021349999999999997,0.0018909999999999999,0.5950000000000001,-0.5775,-3.7625,0.94384375,0.117125,0.06390625,1.17109375,0.91771875,-0.36553125000000003,-0.441625,1.1420000000000001,0.01980897707699273,0.020683209483821147,True
40453,40026,0,40027,4447.0,41837.0,30827.0,-0.004331,0.001037,-0.000549,0.5425000000000001,-0.6475000000000001,-3.7450000000000006,0.9449062500000001,0.11246875,0.0689375,1.17109375,0.919125,-0.3604375,-0.44109375,1.15178125,0.019412880002668262,0.02086777519929934,True
40454,40027,0,40028,4445.0,41835.0,30826.0,-0.0046359999999999995,0.000976,-0.000244,0.4025,-0.43750000000000006,-3.7800000000000002,0.94471875,0.10765625000000001,0.0646875,1.1764375,0.90934375,-0.363,-0.446375,1.13825,0.01931848499774248,0.020905451217205002,True
40455,40028,0,40029,4445.0,41837.0,30826.0,-0.002989,-0.0006709999999999999,-0.000366,0.10500000000000001,-0.2625,-3.8500000000000005,0.9305625000000001,0.11896875,0.05453125,1.16228125,0.9216875,-0.36459375,-0.44175000000000003,1.1468125,0.01984693465287103,0.020304652899240033,True
40456,40029,0,40030,4445.0,41834.0,30827.0,-0.000244,-0.0023179999999999997,0.0013419999999999999,-0.2625,0.0,-3.8500000000000005,0.95240625,0.1231875,0.06334375,1.16084375,0.9101250000000001,-0.3630625,-0.44215625000000003,1.1549375,0.019958492492477085,0.020681481405716816,True
40457,40030,0,40031,4444.0,41837.0,30825.0,-0.000793,-0.0026839999999999998,0.00122,-0.3325,-0.10500000000000001,-3.9025000000000003,0.9639062500000001,0.11912500000000001,0.06075,1.16015625,0.90965625,-0.367875,-0.44140625,1.151875,0.019985329044900302,0.020545309253635926,True
40458,40031,0,40032,4446.0,41837.0,30824.0,-0.000793,-0.002074,0.001098,-0.22750000000000004,-0.08750000000000001,-3.9200000000000004,0.9516875,0.12015625,0.054718750000000003,1.16103125,0.911375,-0.36634375,-0.44196875,1.1450625,0.019966064871755743,0.02032109217879595,True
40459,40032,0,40033,4445.0,41834.0,30825.0,-6.1e-05,-0.002257,0.001403,-0.1925,-0.0175,-3.8500000000000005,0.9509062500000001,0.1205,0.054968750000000004,1.1574375000000001,0.9198437500000001,-0.361875,-0.441625,1.149375,0.01980040534646861,0.020317542307436598,True
40460,40033,0,40034,4445.0,41836.0,30826.0,-0.000366,-0.000793,0.000488,-0.08750000000000001,-0.052500000000000005,-3.8325000000000005,0.9661875,0.11850000000000001,0.06646875000000001,1.1809375,0.9100312500000001,-0.3691875,-0.44334375000000004,1.1457187500000001,0.020012464510767953,0.020856905062344427,True
40461,40034,0,40035,4445.0,41838.0,30826.0,0.00122,0.0018909999999999999,0.001586,0.12250000000000001,-0.43750000000000006,-3.6400000000000006,0.9335625000000001,0.10721875,0.06725,1.1715312500000001,0.91740625,-0.362375,-0.44678125,1.13959375,0.019275368267666845,0.021026541070718666,True
40462,40035,0,40036,4444.0,41837.0,30828.0,0.001098,0.001281,-0.0008539999999999999,0.14,-0.525,-3.6400000000000006,0.9560625,0.11878125,0.060375,1.1601875,0.91615625,-0.364875,-0.4431875,1.147375,0.01985055330675819,0.020601343421352065,True
40463,40036,0,40037,4445.0,41836.0,30828.0,-0.000549,0.000183,0.001098,0.22750000000000004,-0.77,-3.6400000000000006,0.96009375,0.1176875,0.0679375,1.1684375,0.901,-0.36425,-0.442875,1.1464375,0.01978051858768483,0.020898216760507918,True
40464,40037,0,40038,4445.0,41834.0,30829.0,-0.0025009999999999998,0.000488,-0.000549,0.29750000000000004,-1.3825,-3.8500000000000005,0.9334687500000001,0.109125,0.07125000000000001,1.1788125,0.9126875,-0.36371875000000004,-0.44478125,1.14328125,0.019407700230491293,0.02111007845488493,True
40465,40038,0,40039,4446.0,41835.0,30829.0,-0.00122,0.000915,-0.0006709999999999999,0.14,-1.8375000000000001,-4.0425,0.93934375,0.11346875000000001,0.06546875,1.1740625,0.915375,-0.363875,-0.44346875,1.13821875,0.019592275448794577,0.020821001520089085,True
40466,40039,0,40040,4445.0,41834.0,30826.0,0.003111,0.000732,-0.002257,0.15750000000000003,-1.5925000000000002,-4.0425,0.9328125,0.109125,0.0679375,1.1696875,0.92028125,-0.36371875000000004,-0.44203125,1.1340000000000001,0.019407700230491293,0.020864417723056465,True
40467,40040,0,40041,4445.0,41837.0,30829.0,0.0025009999999999998,0.000793,-0.001098,0.17500000000000002,-1.2950000000000002,-3.9550000000000005,0.94078125,0.11575,0.06803125,1.1767812500000001,0.91840625,-0.36415625,-0.44534375,1.14225,0.019697224277980076,0.02100093192594193,True
40468,40041,0,40042,4445.0,41837.0,30830.0,-0.001647,0.00061,0.000244,0.24500000000000002,-0.9275000000000001,-3.8675,0.9451875000000001,0.1161875,0.06353125,1.17059375,0.9135625,-0.367,-0.44315625000000003,1.13696875,0.019829585094595148,0.02072921740620138,True
40469,40042,0,40043,4446.0,41837.0,30834.0,-0.001464,-0.000915,0.001037,0.1925,-0.31500000000000006,-3.7975000000000003,0.9454375,0.11375,0.06828125,1.1769687500000001,0.91890625,-0.3641875,-0.4429375,1.13459375,0.0196163939388498,0.02091478366706129,True
40470,40043,0,40044,4446.0,41837.0,30829.0,-0.00244,-0.00122,0.0006709999999999999,0.035,0.052500000000000005,-3.7975000000000003,0.9455625,0.121375,0.063625,1.1710625000000001,0.91309375,-0.36634375,-0.4435625,1.14375,0.02001608263447404,0.020749328171783474,True
40471,40044,0,40045,4448.0,41839.0,30828.0,-0.00244,-0.0023179999999999997,-6.1e-05,-0.0175,-0.22750000000000004,-3.9725000000000006,0.94496875,0.1135625,0.0655,1.17690625,0.9158125,-0.36378125,-0.44309375,1.13546875,0.0195923508383987,0.020807257673754985,True
40472,40045,0,40046,4447.0,41840.0,30830.0,-6.1e-05,-0.000915,-6.1e-05,-0.10500000000000001,-0.4025,-3.9200000000000004,0.9455625,0.1144375,0.065625,1.17728125,0.919625,-0.36403125000000003,-0.4434375,1.13975,0.019638324425478644,0.020826141985962488,True
40473,40046,0,40047,4449.0,41840.0,30832.0,0.00244,-0.001037,0.0015249999999999999,0.035,-0.47250000000000003,-4.025,0.94471875,0.11703125,0.062875,1.16090625,0.912875,-0.36562500000000003,-0.44328125,1.142375,0.01980890085930486,0.020707377410714857,True
40474,40047,0,40048,4448.0,41840.0,30831.0,0.0008539999999999999,-0.00042699999999999997,0.003294,0.10500000000000001,-0.7350000000000001,-4.1825,0.944625,0.11659375,0.0696875,1.15909375,0.92196875,-0.3585,-0.4428125,1.14165625,0.01950422850339717,0.020967308897042843,True
40475,40048,0,40049,4449.0,41841.0,30835.0,-0.004575,-0.0011589999999999999,0.003965,0.12250000000000001,-0.8400000000000001,-4.2875000000000005,0.9450625,0.11353125,0.06559375,1.17065625,0.9191875,-0.36309375,-0.44353125,1.1424375,0.019563402123344863,0.020828619023693644,True
40476,40049,0,40050,4449.0,41845.0,30834.0,-0.003355,0.00042699999999999997,0.001037,0.42000000000000004,-0.77,-3.8675,0.9505625,0.11671875,0.06653125,1.17628125,0.903375,-0.36540625,-0.44734375,1.1420000000000001,0.01978727524807841,0.02101966599132063,True
40477,40050,0,40051,4450.0,41845.0,30833.0,-0.000305,0.000549,-0.0013419999999999999,0.9800000000000001,-1.61,-3.7100000000000004,0.9510937500000001,0.1163125,0.06328125,1.1712500000000001,0.91359375,-0.36584375,-0.44328125,1.1343125,0.019788202491448713,0.020723997519768344,True
40478,40051,0,40052,4450.0,41845.0,30836.0,0.0037819999999999998,0.003538,0.000122,1.1375000000000002,-2.45,-3.9375000000000004,0.9375,0.11378125,0.06221875,1.17065625,0.9205625000000001,-0.3634375,-0.44309375,1.149375,0.019587496633018227,0.020673017301666246,True
40479,40052,0,40053,4451.0,41846.0,30835.0,0.004941,0.003538,-0.0034159999999999998,0.8400000000000001,-2.9225000000000003,-4.2875000000000005,0.9445625,0.11425,0.0645,1.171375,0.920625,-0.36384375,-0.443,1.14946875,0.01962308389865618,0.02076259051671235,True
40480,40053,0,40054,4451.0,41846.0,30836.0,0.005856,0.002257,-0.002257,0.49000000000000005,-3.3775000000000004,-4.2875000000000005,0.94775,0.11375,0.07015625,1.1711875,0.9156562500000001,-0.36403125000000003,-0.4448125,1.147,0.019610106599251716,0.021066586213332582,True
40481,40054,0,40055,4453.0,41843.0,30835.0,0.008357,-0.002806,-0.0035989999999999998,0.49000000000000005,-3.6925000000000003,-3.7100000000000004,0.951125,0.116125,0.06825,1.171125,0.91028125,-0.3633125,-0.44596875,1.14315625,0.019678666437496953,0.021034909896953873,True
40482,40055,0,40056,4451.0,41844.0,30836.0,0.009394,-0.000305,-0.004392,0.35000000000000003,-2.9225000000000003,-4.0600000000000005,0.93803125,0.1155,0.062875,1.170625,0.913125,-0.36346875,-0.4424375,1.146625,0.01965930036132478,0.0206735723472751,True
40483,40056,0,40057,4449.0,41844.0,30834.0,0.004514,0.001647,-0.000732,0.3325,-2.1175,-4.445,0.9452812500000001,0.1169375,0.0665625,1.17746875,0.9169375000000001,-0.3660625,-0.4438125,1.14240625,0.019822652921455814,0.02087951705569661,True
40484,40057,0,40058,4452.0,41845.0,30838.0,0.000366,0.0015249999999999999,-0.0008539999999999999,0.42000000000000004,-1.2775,-4.235,0.94271875,0.11659375,0.0649375,1.17625,0.91628125,-0.36512500000000003,-0.44340625,1.135375,0.019770830233787024,0.020796763953469046,True
40485,40058,0,40059,4453.0,41845.0,30836.0,-0.0032329999999999998,-0.0025009999999999998,0.001098,0.35000000000000003,-0.525,-3.7975000000000003,0.94875,0.11665625,0.065875,1.17609375,0.9138125,-0.36559375,-0.4438125,1.143,0.019792253164362148,0.02085139132858264,True
40486,40059,0,40060,4454.0,41844.0,30836.0,-0.00976,-0.001769,0.003477,0.5425000000000001,-0.21000000000000002,-3.7100000000000004,0.95259375,0.116625,0.06675,1.16559375,0.913625,-0.3639375,-0.4435625,1.14959375,0.019724336429610363,0.020877173693482694,True
40487,40060,0,40061,4455.0,41841.0,30834.0,-0.010431,0.000976,0.001647,0.5075000000000001,-0.45500000000000007,-4.0600000000000005,0.94446875,0.11453125,0.06378125,1.1751875,0.9139375000000001,-0.3641875,-0.44325000000000003,1.1425,0.019648459444830655,0.020743201088234995,True
40488,40061,0,40062,4453.0,41843.0,30833.0,-0.0070149999999999995,0.000976,0.001281,0.35000000000000003,-0.805,-4.077500000000001,0.94515625,0.1178125,0.06678125,1.1771562500000001,0.91690625,-0.36721875,-0.4450625,1.1409375,0.01990507226024718,0.020938533088225898,True
40489,40062,0,40063,4455.0,41841.0,30832.0,-0.0017079999999999999,-0.000244,0.002623,0.4025,-1.0150000000000001,-3.8500000000000005,0.9465,0.11862500000000001,0.0661875,1.17284375,0.91090625,-0.36859375,-0.45153125,1.1388125,0.019993716297231966,0.02117326496679017,True
40490,40063,0,40064,4453.0,41840.0,30830.0,0.0025009999999999998,0.0006709999999999999,-0.0008539999999999999,0.43750000000000006,-1.4175000000000002,-3.535,0.9498125000000001,0.11921875,0.06409375,1.1746875,0.90125,-0.36825,-0.44625000000000004,1.1365625,0.020004257589281135,0.0208761568747763,True
40491,40064,0,40065,4451.0,41838.0,30827.0,0.004575,0.00122,-0.001647,0.4025,-1.8725000000000003,-3.7625,0.94475,0.11475,0.0646875,1.1718125,0.92215625,-0.36925,-0.4405,1.146625,0.01986109543789817,0.020670096765614453,True
40492,40065,0,40066,4450.0,41835.0,30825.0,0.005429,0.0013419999999999999,-0.000244,0.43750000000000006,-1.7675,-3.8325000000000005,0.94275,0.1144375,0.06590625,1.1705625,0.9246875,-0.36221875000000003,-0.44065625,1.15865625,0.019565387491646262,0.020726223339440814,True
40493,40066,0,40067,4448.0,41837.0,30822.0,0.005429,0.0013419999999999999,-0.000305,0.42000000000000004,-1.6800000000000002,-3.7450000000000006,0.95234375,0.11659375,0.06590625,1.1705625,0.90825,-0.36096875,-0.4409375,1.1569375,0.0196035923242995,0.020737492168620784,True
40494,40067,0,40068,4447.0,41835.0,30821.0,0.005124,0.000305,-0.004331,0.36750000000000005,-1.3825,-4.0425,0.9519375,0.11415625,0.06603125,1.1751562500000001,0.90390625,-0.36153125,-0.44115625,1.15278125,0.01952617407824067,0.020751370958565024,True
40495,40068,0,40069,4445.0,41835.0,30819.0,-0.000183,-0.000122,0.0,0.36750000000000005,-0.49000000000000005,-4.077500000000001,0.9503125,0.1161875,0.0654375,1.174375,0.90709375,-0.3609375,-0.44965625000000004,1.15928125,0.019585658392662436,0.021067525233611415,True
40496,40069,0,40070,4442.0,41830.0,30816.0,-0.0048189999999999995,6.1e-05,0.00244,0.3325,-0.5075000000000001,-4.2,0.9509062500000001,0.11596875000000001,0.066125,1.17809375,0.90634375,-0.3641875,-0.44856250000000003,1.13884375,0.019707459975835433,0.021051851208020923,True
40497,40070,0,40071,4441.0,41831.0,30817.0,-0.007503,0.000305,-0.000122,0.42000000000000004,-0.6125,-4.112500000000001,0.9442812500000001,0.11615625,0.06475,1.17171875,0.90640625,-0.37075,-0.441125,1.1369375,0.019979124565308825,0.020697697016810804,True
40498,40071,0,40072,4439.0,41833.0,30817.0,-0.0048189999999999995,-0.0013419999999999999,0.0,0.4025,-0.36750000000000005,-4.0425,0.945625,0.1171875,0.06575,1.177125,0.92178125,-0.37190625,-0.4435,1.12775,0.02006793169902334,0.020833759486161965,True
40499,40072,0,40073,4438.0,41832.0,30816.0,-0.001769,-0.0008539999999999999,0.0011589999999999999,0.3325,-0.36750000000000005,-4.0600000000000005,0.945125,0.11665625,0.06409375,1.1706875,0.9087500000000001,-0.36928125,-0.44109375,1.1439062500000001,0.01994057580175862,0.020669594624831387,True
40500,40073,0,40074,4435.0,41831.0,30815.0,-0.0037819999999999998,-0.0008539999999999999,0.0013419999999999999,0.2625,-1.05,-4.2875000000000005,0.94515625,0.11265625,0.066125,1.164875,0.922625,-0.36159375,-0.44165625000000003,1.134625,0.019467117170854226,0.02077523899387956,True
40501,40074,0,40075,4435.0,41831.0,30816.0,-0.002562,-0.00042699999999999997,-0.000488,0.2625,-1.2950000000000002,-4.077500000000001,0.9526875,0.116625,0.0653125,1.1711875,0.91209375,-0.36262500000000003,-0.44246875,1.1456875,0.019671525543737592,0.020774548397448602,True
40502,40075,0,40076,4433.0,41829.0,30816.0,0.001281,-0.000488,-0.000244,0.29750000000000004,-1.4875,-3.9550000000000005,0.94996875,0.11553125,0.065875,1.17490625,0.9176562500000001,-0.3635625,-0.44525000000000003,1.14228125,0.01966435532570411,0.020908970045305324,True
40503,40076,0,40077,4435.0,41830.0,30815.0,0.0015249999999999999,-0.000183,0.000244,0.43750000000000006,-1.6450000000000002,-3.8850000000000002,0.94534375,0.116,0.06559375,1.167375,0.92021875,-0.36303125,-0.43996875,1.14975,0.01966221875613282,0.020685889788627496,True
40504,40077,0,40078,4433.0,41829.0,30812.0,0.0026839999999999998,0.000549,-0.000976,0.5075000000000001,-1.9250000000000003,-4.025,0.95053125,0.1208125,0.06640625,1.17621875,0.91353125,-0.364375,-0.4451875,1.14203125,0.01991380858322859,0.02092819905758547,True
40505,40078,0,40079,4430.0,41831.0,30816.0,0.00488,0.0011589999999999999,-0.001769,0.5775,-1.8550000000000002,-4.0600000000000005,0.9452812500000001,0.11737500000000001,0.06318750000000001,1.17471875,0.9136875,-0.3665625,-0.44240625,1.14021875,0.019860721018814205,0.020685105420011583,True
40506,40079,0,40080,4430.0,41830.0,30815.0,0.0026839999999999998,-0.000305,0.000488,0.5425000000000001,-1.6800000000000002,-4.0600000000000005,0.94521875,0.116875,0.063125,1.17140625,0.90871875,-0.3645,-0.442625,1.14634375,0.01975722875495085,0.02069131281930644,True
40507,40080,0,40081,4431.0,41830.0,30816.0,-0.000793,0.000122,0.000488,0.47250000000000003,-1.6800000000000002,-4.130000000000001,0.95125,0.11653125,0.0656875,1.17421875,0.90446875,-0.36353125000000003,-0.43903125,1.136625,0.019704142846698382,0.020652158624331722,True
40508,40081,0,40082,4430.0,41830.0,30815.0,-0.0011589999999999999,-6.1e-05,-0.000244,0.36750000000000005,-1.6800000000000002,-4.1475,0.9456875,0.11359375000000001,0.06596875,1.1712500000000001,0.9215625000000001,-0.36396875,-0.44328125,1.14878125,0.01960117848205662,0.02083394593350678,True
40509,40082,0,40083,4429.0,41830.0,30816.0,-0.0021349999999999997,0.000366,-0.000122,0.5075000000000001,-1.6275000000000002,-4.095000000000001,0.951625,0.11940625,0.067375,1.1789687500000001,0.9126875,-0.36303125,-0.44584375,1.14121875,0.01980203099727174,0.020994110706446772,True
40510,40083,0,40084,4428.0,41829.0,30817.0,0.003538,0.000305,-0.001769,0.5075000000000001,-1.6275000000000002,-4.2,0.94565625,0.11603125,0.065375,1.1714375000000001,0.9191875,-0.3645,-0.4428125,1.148875,0.01972259845266679,0.0207908766636409,True
40511,40084,0,40085,4428.0,41829.0,30816.0,0.0021349999999999997,0.000244,-0.002074,0.385,-1.3825,-4.2875000000000005,0.94959375,0.11665625,0.06368750000000001,1.1693437500000001,0.913125,-0.36212500000000003,-0.44290625,1.1477187500000001,0.019652688343073522,0.020725593954278657,True
40512,40085,0,40086,4429.0,41828.0,30815.0,0.001403,0.000183,-0.0006709999999999999,0.3325,-0.9800000000000001,-4.2525,0.9549375,0.11578125,0.06703125,1.18103125,0.91309375,-0.36312500000000003,-0.44203125,1.1418125000000001,0.019657012390651856,0.020827340199067946,True
40513,40086,0,40087,4431.0,41829.0,30817.0,-0.001769,-0.0013419999999999999,0.00122,0.29750000000000004,-0.6475000000000001,-4.130000000000001,0.94275,0.111625,0.06634375,1.17753125,0.9204375,-0.36371875000000004,-0.44615625000000003,1.142375,0.019510311823805637,0.02096444098445947,True
40514,40087,0,40088,4430.0,41830.0,30816.0,-0.003172,-0.001586,0.0017079999999999999,0.43750000000000006,-0.56,-4.0075,0.94334375,0.11790625,0.06571875,1.17084375,0.9150625,-0.3638125,-0.44303125,1.14615625,0.019771895305794197,0.020813703292221583,True
40515,40088,0,40089,4430.0,41827.0,30816.0,-0.003721,-0.0011589999999999999,0.001403,0.43750000000000006,-0.665,-4.095000000000001,0.95296875,0.1179375,0.0605,1.17009375,0.9133125,-0.36346875,-0.43928125,1.14184375,0.01975934769140786,0.020449916054712126,True
40516,40089,0,40090,4428.0,41830.0,30818.0,-0.002623,0.00042699999999999997,0.0,0.5950000000000001,-1.0850000000000002,-4.1825,0.9569375,0.116875,0.06234375,1.17234375,0.91390625,-0.365375,-0.44334375000000004,1.14225,0.019792430857312887,0.02068814746345823,True
40517,40090,0,40091,4429.0,41829.0,30816.0,0.00042699999999999997,0.0018909999999999999,-0.000488,0.7000000000000001,-1.54,-4.1825,0.94234375,0.115375,0.0673125,1.1808750000000001,0.9186562500000001,-0.3631875,-0.44584375,1.14240625,0.019642852561882553,0.02099155403461989,True
40518,40091,0,40092,4430.0,41828.0,30817.0,0.001769,0.001464,-0.00061,0.7350000000000001,-1.7500000000000002,-4.1475,0.94196875,0.11750000000000001,0.0609375,1.16878125,0.9150312500000001,-0.36362500000000003,-0.44328125,1.14715625,0.01974767712111806,0.02062811227522901,True
40519,40092,0,40093,4428.0,41829.0,30817.0,0.0034159999999999998,0.001464,-0.000244,0.56,-1.8725000000000003,-4.165,0.9412812500000001,0.11084375,0.0651875,1.168375,0.91515625,-0.3636875,-0.44409375,1.1463125,0.019476988038038167,0.02083453185905082,True
40520,40093,0,40094,4428.0,41829.0,30815.0,0.002013,6.1e-05,-0.000305,0.24500000000000002,-1.4175000000000002,-4.235,0.95534375,0.11028125,0.065375,1.16865625,0.91325,-0.36315625,-0.44315625000000003,1.1400937500000001,0.019432519134297308,0.02080464751764617,True
40521,40094,0,40095,4426.0,41829.0,30818.0,0.001769,-0.000549,-0.000366,0.14,-0.9975,-4.1475,0.94434375,0.115625,0.06509375,1.1693125,0.9113125,-0.36271875000000003,-0.4421875,1.14546875,0.019634251616519608,0.020754331010675704,True
40522,40095,0,40096,4428.0,41830.0,30818.0,-0.000366,-0.00244,0.00061,0.12250000000000001,-0.5950000000000001,-4.130000000000001,0.9497187500000001,0.11275,0.06790625,1.17553125,0.914,-0.3635,-0.44215625000000003,1.14225,0.019547684035544976,0.020868146606337158,True
40523,40096,0,40097,4426.0,41828.0,30815.0,-0.0008539999999999999,-0.0011589999999999999,0.0013419999999999999,0.1925,-0.2625,-3.99,0.944625,0.1175625,0.06759375000000001,1.17175,0.91359375,-0.3638125,-0.44309375,1.143,0.019757786266004138,0.02089291581594494,True
40524,40097,0,40098,4425.0,41833.0,30816.0,-0.001952,-0.000976,0.000244,0.22750000000000004,-0.1925,-3.8675,0.94271875,0.11665625,0.0699375,1.159875,0.90871875,-0.36409375,-0.44278125,1.14934375,0.019731905686005663,0.020976285176221507,True
40525,40098,0,40099,4426.0,41829.0,30817.0,-0.000732,0.0011589999999999999,-0.00061,0.56,-0.36750000000000005,-3.9200000000000004,0.94321875,0.1136875,0.0653125,1.1714375000000001,0.914125,-0.36415625,-0.44353125,1.14046875,0.019612571233612902,0.020817112912030665,True
40526,40099,0,40100,4425.0,41830.0,30816.0,-0.001952,0.000915,0.000183,0.5950000000000001,-0.7175,-4.0075,0.9527187500000001,0.11678125,0.06709375000000001,1.17615625,0.9143125,-0.36315625,-0.4496875,1.14184375,0.019699315436603172,0.021136517593527523,True
40527,40100,0,40101,4425.0,41829.0,30816.0,-0.002806,0.0015249999999999999,-0.000305,0.665,-0.9275000000000001,-3.99,0.94515625,0.11359375000000001,0.06509375,1.1710625000000001,0.9056875,-0.37575000000000003,-0.439125,1.152375,0.02007502333261541,0.020631620403758315,True
40528,40101,0,40102,4426.0,41833.0,30817.0,-0.00042699999999999997,0.001647,0.00042699999999999997,0.6125,-1.0675000000000001,-3.99,0.94921875,0.11228125,0.07037500000000001,1.1713125,0.944625,-0.36312500000000003,-0.43996875,1.15653125,0.019513352658987713,0.020881522199164025,True
40529,40102,0,40103,4425.0,41830.0,30817.0,0.00042699999999999997,-6.1e-05,-0.000732,0.5775,-1.155,-3.8675,0.9524375,0.116375,0.0669375,1.18025,0.90571875,-0.3605625,-0.4435625,1.14928125,0.019578263022456893,0.020884844424784648,True
40530,40103,0,40104,4425.0,41828.0,30818.0,-0.000915,-0.000793,-0.0018909999999999999,0.22750000000000004,-1.5750000000000002,-4.025,0.945875,0.116625,0.06396875,1.1625625,0.900375,-0.36753125000000003,-0.44609375,1.1321875000000001,0.01986890855018397,0.020864785401553163,True
40531,40104,0,40105,4424.0,41826.0,30816.0,0.0008539999999999999,-0.0013419999999999999,-0.000915,0.22750000000000004,-1.5925000000000002,-4.077500000000001,0.94421875,0.11371875000000001,0.06596875,1.1720625,0.92309375,-0.367375,-0.438,1.16225,0.019743355613807398,0.020622340207872986,True
40532,40105,0,40106,4426.0,41828.0,30817.0,0.00061,-0.0021349999999999997,0.000244,0.3325,-1.54,-3.9725000000000006,0.9520625,0.11665625,0.0668125,1.1710625000000001,0.909625,-0.36053125,-0.4464375,1.1636250000000001,0.019588550639674577,0.020994879110708874,True
40533,40106,0,40107,4426.0,41828.0,30818.0,-0.000122,-0.001403,0.000122,0.21000000000000002,-1.5225000000000002,-3.9550000000000005,0.95234375,0.11315625,0.0659375,1.1653437500000001,0.9137500000000001,-0.3591875,-0.43793750000000004,1.16503125,0.019390784278005987,0.02061855670103093,True
40534,40107,0,40108,4426.0,41829.0,30818.0,-0.00122,0.00061,6.1e-05,0.24500000000000002,-1.715,-4.2175,0.95246875,0.1171875,0.065625,1.1733125,0.90590625,-0.3589375,-0.45487500000000003,1.13109375,0.01954621378703402,0.021284099796052936,True
40535,40108,0,40109,4425.0,41830.0,30819.0,-0.001281,-0.000732,0.00244,0.49000000000000005,-1.3125000000000002,-3.9375000000000004,0.945375,0.1145,0.06596875,1.1696875,0.932125,-0.36271875000000003,-0.43675,1.16215625,0.019588074504205327,0.020572242626372163,True
40536,40109,0,40110,4426.0,41831.0,30819.0,-0.0015249999999999999,0.000305,0.0006709999999999999,0.5775,-1.4700000000000002,-3.8150000000000004,0.95253125,0.116125,0.06415625,1.1767812500000001,0.901625,-0.366,-0.44446875,1.13071875,0.01978679307231388,0.020807365674494357,True
40537,40110,0,40111,4428.0,41830.0,30820.0,0.000244,0.000366,0.000122,0.45500000000000007,-1.5575,-3.9375000000000004,0.94521875,0.11340625,0.0664375,1.17140625,0.92759375,-0.36553125000000003,-0.4378125,1.15478125,0.019656353686111402,0.020634007237759107,True
40538,40111,0,40112,4426.0,41830.0,30820.0,0.002745,0.001464,-0.001037,0.4025,-1.3825,-4.095000000000001,0.9523125,0.115625,0.06753125,1.176625,0.90346875,-0.36125,-0.4429375,1.14440625,0.019575144953563554,0.020884099957298504,True
40539,40112,0,40113,4429.0,41829.0,30821.0,0.00366,0.0017079999999999999,-0.000244,0.36750000000000005,-1.4000000000000001,-4.077500000000001,0.95075,0.11659375,0.06609375,1.1673125,0.9098437500000001,-0.364875,-0.44271875,1.139375,0.019760772423416905,0.020816526393979802,True
40540,40113,0,40114,4428.0,41830.0,30822.0,0.004209,-0.000793,0.0,0.31500000000000006,-1.3475000000000001,-3.9550000000000005,0.94515625,0.11684375,0.06396875,1.17215625,0.91915625,-0.36390625,-0.44253125,1.1498125000000001,0.019732057539008137,0.020722076401150147,True
40541,40114,0,40115,4428.0,41834.0,30825.0,0.0015249999999999999,-0.000915,-0.0013419999999999999,0.385,-1.1900000000000002,-3.8850000000000002,0.94915625,0.1143125,0.066125,1.17196875,0.91409375,-0.36365625,-0.4433125,1.1488125,0.019618104322909252,0.020841590107723736,True
40542,40115,0,40116,4428.0,41833.0,30821.0,-0.000976,-0.000244,0.000122,0.36750000000000005,-0.9100000000000001,-3.9725000000000006,0.95096875,0.11609375,0.06634375,1.17471875,0.91346875,-0.3664375,-0.4436875,1.14253125,0.019803110323370007,0.020865560893789045,True
40543,40116,0,40117,4430.0,41831.0,30822.0,-0.002257,0.000915,-0.000122,0.43750000000000006,-0.5950000000000001,-3.9375000000000004,0.9450000000000001,0.117,0.0641875,1.17240625,0.90909375,-0.36359375,-0.4435625,1.1516875,0.01972589737505371,0.020772340365689333,True
40544,40117,0,40118,4432.0,41834.0,30826.0,-0.003843,0.0008539999999999999,0.000793,0.7350000000000001,-0.45500000000000007,-3.8500000000000005,0.95034375,0.11746875,0.06659375000000001,1.1749375,0.9138125,-0.3650625,-0.4464375,1.1353125,0.019804227877519297,0.020985930976650486,True
40545,40118,0,40119,4431.0,41835.0,30825.0,-0.003904,0.000183,0.000488,0.6125,-0.49000000000000005,-3.9550000000000005,0.9451875000000001,0.1169375,0.06584375,1.172375,0.91940625,-0.36446875,-0.44121875,1.1478125000000001,0.019758536701113175,0.020746203582830743,True
40546,40119,0,40120,4433.0,41835.0,30823.0,-0.002562,-0.000488,0.000305,0.5425000000000001,-0.7350000000000001,-4.0425,0.947125,0.1146875,0.06653125,1.1745,0.90334375,-0.3561875,-0.4453125,1.14225,0.019332869727661604,0.020938318951741773,True
40547,40120,0,40121,4432.0,41835.0,30824.0,-0.0032329999999999998,-0.000793,0.000305,0.35000000000000003,-1.0675000000000001,-4.1825,0.93471875,0.11640625,0.0660625,1.1715625,0.9125625,-0.36409375,-0.43943750000000004,1.1515,0.019721644684608883,0.02068378210423215,True
40548,40121,0,40122,4433.0,41836.0,30824.0,-0.001098,-0.002074,0.000122,0.22750000000000004,-1.3475000000000001,-4.2,0.94640625,0.11575,0.066375,1.1870625000000001,0.9101875,-0.3628125,-0.44084375000000003,1.1425625,0.01964315491078873,0.020752914882490505,True
40549,40122,0,40123,4434.0,41835.0,30825.0,-0.00042699999999999997,-0.0023179999999999997,0.002379,0.10500000000000001,-1.6450000000000002,-4.130000000000001,0.94440625,0.117,0.061875,1.1661875,0.9206875,-0.36409375,-0.44296875,1.1478125000000001,0.019746014562926233,0.020653945728257746,True
40550,40123,0,40124,4434.0,41836.0,30827.0,0.000488,-0.000366,-0.000732,0.385,-2.24,-4.077500000000001,0.94346875,0.1146875,0.07090625,1.16575,0.91425,-0.363,-0.4453125,1.142625,0.01960708861798629,0.021117289868967718,True
40551,40124,0,40125,4435.0,41834.0,30826.0,0.0037819999999999998,0.001037,-0.000732,0.7000000000000001,-2.2925000000000004,-3.9725000000000006,0.95396875,0.11,0.067375,1.1654375000000001,0.9130625,-0.36521875,-0.4456875,1.1418125000000001,0.019503980443434352,0.020987853174511864,True
40552,40125,0,40126,4437.0,41839.0,30827.0,0.005795,0.003355,-6.1e-05,0.9800000000000001,-2.1700000000000004,-3.9550000000000005,0.95434375,0.11128125,0.068625,1.18090625,0.91309375,-0.36603125000000003,-0.44384375000000004,1.14290625,0.01958925912483183,0.020965145876454067,True
40553,40126,0,40127,4436.0,41839.0,30826.0,0.0046359999999999995,0.003294,-0.001037,1.05,-1.995,-4.095000000000001,0.9524375,0.1200625,0.062125,1.17578125,0.92196875,-0.3643125,-0.44209375,1.15034375,0.01988051171154532,0.020629114475923326,True
40554,40127,0,40128,4435.0,41838.0,30829.0,0.001647,0.0032329999999999998,-0.001647,0.9275000000000001,-2.0300000000000002,-3.9200000000000004,0.93465625,0.11081250000000001,0.06934375,1.18240625,0.9117500000000001,-0.36325,-0.44415625000000003,1.14246875,0.019458097749684464,0.02100706585035023,True
40555,40128,0,40129,4436.0,41837.0,30829.0,0.0026839999999999998,0.0006709999999999999,-0.002196,0.7875000000000001,-2.1525000000000003,-3.9200000000000004,0.9261875,0.1090625,0.06871875,1.1875,0.91690625,-0.3635,-0.44615625000000003,1.1431875,0.01939633057647711,0.021061593271948426,True
40556,40129,0,40130,4439.0,41839.0,30828.0,0.004697,-0.000305,-0.001952,0.5950000000000001,-1.9775000000000003,-3.8325000000000005,0.9375625,0.10896875,0.06971875,1.18059375,0.91721875,-0.36328125,-0.44384375000000004,1.14659375,0.019383678050344716,0.02100989129420368,True
40557,40130,0,40131,4438.0,41836.0,30826.0,0.0030499999999999998,-0.000366,-0.001098,0.28,-1.61,-3.9550000000000005,0.93903125,0.11025,0.06796875000000001,1.17578125,0.914375,-0.36362500000000003,-0.44315625000000003,1.14246875,0.01945010235545819,0.02091076106425495,True
40558,40131,0,40132,4438.0,41838.0,30824.0,0.0008539999999999999,-0.001952,0.00042699999999999997,0.0175,-1.1900000000000002,-3.9200000000000004,0.96321875,0.11625,0.0703125,1.18690625,0.9134375,-0.3643125,-0.44384375000000004,1.14309375,0.019724032845170575,0.021034181663839187,True
40559,40132,0,40133,4437.0,41836.0,30824.0,-0.007808,-0.0046359999999999995,0.0028669999999999998,0.10500000000000001,-0.1925,-3.5700000000000003,0.9393750000000001,0.11234375,0.06603125,1.1728750000000001,0.919375,-0.3625,-0.44578125,1.14225,0.019490764494612622,0.0209366391184573,True
40560,40133,0,40134,4437.0,41835.0,30820.0,-0.008967,-0.002623,0.00122,0.45500000000000007,-0.17500000000000002,-3.5175000000000005,0.9573125,0.11771875,0.06990625,1.18028125,0.91309375,-0.36746875,-0.4426875,1.14275,0.019911280280189136,0.0209712516268925,True
40561,40134,0,40135,4436.0,41832.0,30819.0,-0.0071979999999999995,-0.000183,0.00042699999999999997,0.6125,-0.31500000000000006,-3.5700000000000003,0.94096875,0.11515625,0.0673125,1.1700625,0.9198125,-0.36115625,-0.44275000000000003,1.1496875,0.019552130248333348,0.02086763968866024,True
40562,40135,0,40136,4436.0,41834.0,30817.0,-0.004148,0.002196,0.00042699999999999997,0.9275000000000001,-0.8750000000000001,-3.7275000000000005,0.9431875000000001,0.11503125,0.065875,1.16509375,0.91425,-0.36315625,-0.44590625,1.14934375,0.01962748566290544,0.020935253729855073,True
40563,40136,0,40137,4433.0,41831.0,30815.0,-0.000976,0.003904,0.0,0.8750000000000001,-1.2075,-3.8500000000000005,0.95225,0.1205625,0.0659375,1.171625,0.91290625,-0.36615625,-0.44265625000000003,1.13446875,0.01997519612885188,0.020807630103622642,True
40564,40137,0,40138,4432.0,41832.0,30813.0,0.0037819999999999998,0.001769,-6.1e-05,0.5950000000000001,-1.5750000000000002,-3.8500000000000005,0.9449062500000001,0.11428125,0.06678125,1.17890625,0.91771875,-0.36284375,-0.44528125,1.1435625,0.019584125929469953,0.020947294275863566,True
40565,40138,0,40139,4431.0,41831.0,30810.0,0.003843,-6.1e-05,-0.000122,0.29750000000000004,-1.6975000000000002,-3.9200000000000004,0.94553125,0.1140625,0.0659375,1.171875,0.9206562500000001,-0.3631875,-0.44365625000000003,1.13884375,0.01958898030070983,0.020847689264980564,True
40566,40139,0,40140,4428.0,41831.0,30811.0,0.002013,-0.0021349999999999997,-6.1e-05,0.035,-1.7850000000000001,-4.0425,0.9501875000000001,0.11565625,0.06665625,1.180375,0.91371875,-0.35765625,-0.44153125,1.14259375,0.019431775173360533,0.020791966542603586,True
40567,40140,0,40141,4428.0,41832.0,30812.0,0.0013419999999999999,-0.0015249999999999999,-0.000732,0.07,-1.8375000000000001,-4.2175,0.94521875,0.11303125,0.0663125,1.17859375,0.91915625,-0.3641875,-0.4388125,1.14240625,0.01958689367334741,0.020668966628390805,True
40568,40141,0,40142,4425.0,41828.0,30810.0,0.0011589999999999999,-0.001952,-0.0008539999999999999,0.052500000000000005,-1.6625,-4.165,0.9458125000000001,0.1174375,0.062625,1.17184375,0.91634375,-0.36121875000000003,-0.442375,1.14584375,0.01964828832711828,0.020660840037025865,True
40569,40142,0,40143,4423.0,41828.0,30809.0,0.0021349999999999997,-0.000549,0.000793,0.4025,-1.435,-4.165,0.9429062500000001,0.11696875,0.0640625,1.17221875,0.91378125,-0.365375,-0.443,1.1486875,0.019796278530496658,0.02074469173178415,True
40570,40143,0,40144,4421.0,41830.0,30810.0,0.001098,0.001586,0.000305,0.43750000000000006,-1.225,-4.2175,0.95221875,0.11721875,0.06825,1.17340625,0.9135,-0.36565625,-0.44375000000000003,1.140875,0.019817853254003776,0.02094604960368192,True
40571,40144,0,40145,4421.0,41828.0,30809.0,0.001586,0.000793,-0.000366,0.43750000000000006,-1.0675000000000001,-4.077500000000001,0.941625,0.11403125,0.066625,1.1714375000000001,0.91725,-0.363375,-0.44559375,1.14471875,0.019595242859415003,0.020953418241273034,True
40572,40145,0,40146,4419.0,41829.0,30811.0,0.0011589999999999999,0.0006709999999999999,0.000488,0.42000000000000004,-1.0150000000000001,-4.0425,0.9536250000000001,0.115625,0.0664375,1.17225,0.91390625,-0.36290625,-0.44478125,1.14234375,0.019641796634997103,0.020913206167471846,True
40573,40146,0,40147,4420.0,41832.0,30810.0,-0.000183,0.000549,0.0008539999999999999,0.49000000000000005,-0.9100000000000001,-4.0600000000000005,0.95228125,0.11975000000000001,0.06615625,1.1789375,0.91371875,-0.36478125,-0.44575000000000004,1.1428125,0.019886542178579995,0.020940500905065298,True
40574,40147,0,40148,4418.0,41833.0,30812.0,-0.0034159999999999998,0.00122,0.000244,0.6300000000000001,-1.1025,-3.9725000000000006,0.94703125,0.11728125,0.0659375,1.17584375,0.91678125,-0.36562500000000003,-0.44315625000000003,1.14309375,0.01981916121585225,0.02082766009401916,True
40575,40148,0,40149,4417.0,41830.0,30808.0,-0.001281,0.0008539999999999999,-0.001281,0.77,-1.2950000000000002,-4.0600000000000005,0.94496875,0.11540625,0.06609375,1.1705625,0.9169375000000001,-0.36062500000000003,-0.44428125,1.1419375,0.019541011365677197,0.02087911666455728,True
40576,40149,0,40150,4417.0,41829.0,30809.0,-0.000183,0.001403,-0.000976,0.8225000000000001,-1.225,-4.2,0.95196875,0.11653125,0.06678125,1.17765625,0.914125,-0.36565625,-0.43893750000000004,1.1425,0.01978963730968666,0.0206931561570547,True
40577,40150,0,40151,4416.0,41829.0,30809.0,-0.000244,0.000366,0.000183,0.7175,-1.12,-4.095000000000001,0.9455625,0.11721875,0.06471875,1.1715312500000001,0.9158125,-0.3668125,-0.44240625,1.14759375,0.01986436469685971,0.020747752689038137,True
40578,40151,0,40152,4414.0,41831.0,30809.0,-0.001098,0.000305,0.000366,0.5075000000000001,-1.2950000000000002,-3.99,0.95025,0.11628125,0.06753125,1.17184375,0.91325,-0.36312500000000003,-0.4435,1.1425625,0.01967753520946102,0.020906631619858042,True
40579,40152,0,40153,4414.0,41830.0,30809.0,-0.000183,-0.002623,-0.000549,0.2625,-1.54,-3.9550000000000005,0.94584375,0.11684375,0.06659375000000001,1.1734375000000001,0.9178437500000001,-0.3639375,-0.4446875,1.14203125,0.01973331486341237,0.020915843166332153,True
40580,40153,0,40154,4414.0,41831.0,30810.0,0.002074,-0.00244,-0.002562,0.10500000000000001,-1.7675,-3.9375000000000004,0.94546875,0.11503125,0.06615625,1.174625,0.92021875,-0.36296875,-0.44303125,1.14196875,0.01961994061171219,0.02083160205426649,True
40581,40154,0,40155,4414.0,41829.0,30810.0,0.006222,-0.0025009999999999998,-0.003904,0.28,-1.7500000000000002,-3.9725000000000006,0.945375,0.1166875,0.067625,1.17246875,0.9131875,-0.3660625,-0.44284375000000004,1.15003125,0.01981239274913622,0.020884180057813444,True
40582,40155,0,40156,4413.0,41828.0,30808.0,0.005063,-0.0017079999999999999,-0.0032329999999999998,0.1925,-1.5750000000000002,-4.2175,0.94846875,0.11675,0.06621875,1.17190625,0.913,-0.36562500000000003,-0.44253125,1.144875,0.019797357958189047,0.02081412906038527,True
40583,40156,0,40157,4413.0,41827.0,30808.0,0.0023179999999999997,-0.000183,-0.003111,0.22750000000000004,-1.3825,-4.3925,0.9452812500000001,0.11740625,0.06628125,1.17215625,0.90546875,-0.36603125000000003,-0.43796875,1.1536875,0.019840633669055155,0.020633875309297136,True
40584,40157,0,40158,4412.0,41827.0,30807.0,-0.0028669999999999998,0.001586,0.002989,0.31500000000000006,-0.15750000000000003,-4.532500000000001,0.94865625,0.11753125,0.06475,1.17196875,0.9127500000000001,-0.36621875,-0.4426875,1.15046875,0.01985330612695086,0.020760298964669903,True
40585,40158,0,40159,4413.0,41829.0,30809.0,-0.0050019999999999995,0.002806,0.005673,0.4025,0.36750000000000005,-4.655,0.94346875,0.114125,0.0666875,1.1723125,0.9139375000000001,-0.36003125,-0.443875,1.14490625,0.019464517312554764,0.02088713430256046,True
40586,40159,0,40160,4411.0,41830.0,30809.0,-0.008418,0.001586,0.006039,0.4025,0.7525000000000001,-4.532500000000001,0.9528125000000001,0.11771875,0.066125,1.18371875,0.910625,-0.36562500000000003,-0.44221875,1.1401875000000001,0.01983711683981018,0.02079777434280593,True
40587,40160,0,40161,4413.0,41830.0,30809.0,-0.008601,6.1e-05,0.0035989999999999998,0.4025,0.77,-4.357500000000001,0.94053125,0.11746875,0.054718750000000003,1.1631875,0.92590625,-0.3625,-0.4419375,1.14940625,0.01970112878399179,0.020319839619915563,True
40588,40161,0,40162,4411.0,41830.0,30809.0,-0.007442,0.000183,0.002379,0.29750000000000004,0.15750000000000003,-4.2525,0.9772500000000001,0.11825000000000001,0.0616875,1.17078125,0.91096875,-0.3695625,-0.4408125,1.15228125,0.020017285907369082,0.02055987295839694,True
40589,40162,0,40163,4411.0,41827.0,30808.0,0.003294,0.00122,-0.0026839999999999998,0.2625,-1.4875,-4.305000000000001,0.93290625,0.1136875,0.06940625,1.17075,0.91196875,-0.3624375,-0.44540625,1.12890625,0.01954340570396538,0.02105968273691504,True
40590,40163,0,40164,4411.0,41829.0,30807.0,0.007259,0.0008539999999999999,-0.0008539999999999999,0.12250000000000001,-2.1350000000000002,-4.340000000000001,0.95515625,0.1199375,0.0640625,1.16378125,0.916375,-0.36790625,-0.43793750000000004,1.15559375,0.020019928876737203,0.02054183173191273,True
40591,40164,0,40165,4410.0,41829.0,30809.0,0.008784,0.000305,-0.001098,0.0175,-2.415,-4.322500000000001,0.95934375,0.11984375,0.07178125,1.190625,0.911375,-0.36671875,-0.443375,1.14028125,0.019968322571129935,0.021075495916582712,True
40592,40165,0,40166,4409.0,41829.0,30808.0,0.00793,0.00042699999999999997,-0.003904,0.15750000000000003,-2.4675000000000002,-4.1825,0.93884375,0.12125,0.0559375,1.1604375,0.92334375,-0.3629375,-0.440625,1.15546875,0.019873937615281407,0.020317095000639305,True
40593,40166,0,40167,4410.0,41828.0,30806.0,0.005795,-0.001281,-0.0026839999999999998,0.15750000000000003,-1.9425000000000001,-3.9200000000000004,0.9596250000000001,0.11678125,0.06515625,1.1943125,0.91090625,-0.36546875,-0.44190625,1.143,0.019792354702800455,0.020745620035262185,True
40594,40167,0,40168,4409.0,41830.0,30807.0,-0.0008539999999999999,-0.0013419999999999999,-0.000549,0.22750000000000004,-0.665,-3.9025000000000003,0.93215625,0.11140625,0.0610625,1.16046875,0.92328125,-0.36278125,-0.4443125,1.14921875,0.019463602908637533,0.020674543413728656,True
40595,40168,0,40169,4408.0,41827.0,30808.0,-0.004514,-0.00042699999999999997,0.000732,0.29750000000000004,-0.525,-3.9025000000000003,0.9703125,0.12271875,0.06728125,1.17596875,0.9115625,-0.36703125000000003,-0.4423125,1.1497187500000001,0.020098878479502914,0.020848835395587056,True
40596,40169,0,40170,4410.0,41827.0,30808.0,-0.0066489999999999995,-0.000488,0.00183,0.385,-0.47250000000000003,-3.9550000000000005,0.933,0.1084375,0.06915625,1.1620625,0.9140312500000001,-0.36259375,-0.44421875,1.14228125,0.019334199586199644,0.02100189845502835,True
40597,40170,0,40171,4411.0,41826.0,30810.0,-0.0060999999999999995,-0.0006709999999999999,0.001464,0.45500000000000007,-0.56,-3.8675,0.96234375,0.11340625,0.07003125,1.17390625,0.90753125,-0.36484375,-0.44575000000000004,1.14215625,0.019628691441946965,0.021099015166235444,True
40598,40171,0,40172,4411.0,41829.0,30810.0,-0.004758,0.000244,0.0028669999999999998,0.3325,-0.6300000000000001,-3.9025000000000003,0.958125,0.12209375,0.06425,1.16590625,0.913625,-0.36609375,-0.44178125,1.15078125,0.020035525801093988,0.020703534035597347,True
40599,40172,0,40173,4410.0,41831.0,30810.0,-0.0025009999999999998,0.001647,0.001952,0.5425000000000001,-1.2075,-3.7275000000000005,0.945125,0.11787500000000001,0.06775,1.17671875,0.90178125,-0.36475,-0.44515625000000003,1.14265625,0.019808329656573535,0.0209819174299612,True
40600,40173,0,40174,4410.0,41830.0,30811.0,0.000122,0.001098,-0.00042699999999999997,0.49000000000000005,-1.5750000000000002,-3.6400000000000006,0.94553125,0.1136875,0.06721875000000001,1.16828125,0.92215625,-0.36,-0.4419375,1.14359375,0.019445299671592774,0.0208312557054857,True
40601,40174,0,40175,4410.0,41831.0,30810.0,0.00183,0.000488,-0.0026839999999999998,0.6300000000000001,-1.8725000000000003,-3.5875000000000004,0.9458125000000001,0.1143125,0.0656875,1.1748750000000001,0.9136562500000001,-0.3640625,-0.4426875,1.1481875,0.019634451356377862,0.02079865399416492,True
40602,40175,0,40176,4410.0,41832.0,30812.0,0.004209,0.000305,-0.0028669999999999998,0.6125,-2.1525000000000003,-3.6925000000000003,0.94496875,0.11453125,0.06665625,1.1783125,0.914125,-0.363875,-0.4429375,1.14834375,0.019635885096274713,0.02084830229590858,True
40603,40176,0,40177,4410.0,41834.0,30813.0,0.005429,-0.00061,-0.00366,0.42000000000000004,-2.345,-3.7800000000000002,0.94575,0.11800000000000001,0.06565625,1.17234375,0.9136875,-0.3649375,-0.443125,1.15103125,0.01982100302945575,0.020814901940729755,True
40604,40177,0,40178,4411.0,41833.0,30813.0,0.00549,-0.001098,-0.002623,0.2625,-2.0650000000000004,-3.7100000000000004,0.9456875,0.11778125,0.065875,1.17409375,0.913625,-0.36696875,-0.442375,1.14765625,0.019893734217556296,0.020793805839244346,True
40605,40178,0,40179,4411.0,41834.0,30815.0,0.0032329999999999998,-0.001647,-0.00061,0.12250000000000001,-1.4525000000000001,-3.7800000000000002,0.9475625,0.11740625,0.063625,1.172,0.91440625,-0.36571875,-0.44321875,1.15040625,0.019828062736708722,0.02073555676868457,True
40606,40179,0,40180,4411.0,41835.0,30812.0,-0.000549,-0.000793,0.000732,0.22750000000000004,-0.9625000000000001,-3.7975000000000003,0.9507187500000001,0.1144375,0.0668125,1.1799375,0.91496875,-0.36321875000000003,-0.4445,1.14203125,0.019605629900605805,0.02091728200617726,True
40607,40180,0,40181,4410.0,41834.0,30813.0,-0.002745,-0.0018909999999999999,0.000122,0.21000000000000002,-0.43750000000000006,-3.7625,0.9446875,0.1170625,0.06953125,1.172375,0.9121875,-0.36565625,-0.443125,1.14328125,0.019811440539386254,0.020973433225088857,True
40608,40181,0,40182,4412.0,41836.0,30812.0,-0.005124,0.00042699999999999997,0.001098,0.31500000000000006,0.0,-3.7975000000000003,0.94703125,0.115625,0.0669375,1.17446875,0.9117500000000001,-0.3636875,-0.445625,1.14284375,0.0196732329619644,0.020967453276404265,True
40609,40182,0,40183,4414.0,41833.0,30813.0,-0.0062829999999999995,0.000549,0.004697,0.5425000000000001,0.17500000000000002,-3.6575,0.9462812500000001,0.11621875,0.066875,1.1804375,0.9210625,-0.363375,-0.44496875,1.14321875,0.01968502927036997,0.020938613390536653,True
40610,40183,0,40184,4413.0,41836.0,30812.0,-0.0066489999999999995,0.0006709999999999999,0.0035989999999999998,0.5075000000000001,-0.35000000000000003,-3.7800000000000002,0.9372812500000001,0.11740625,0.06346875,1.1723125,0.9137500000000001,-0.3646875,-0.442625,1.1490625,0.019786576372054845,0.020705376366081794,True
40611,40184,0,40185,4414.0,41834.0,30815.0,-0.0044529999999999995,0.000183,0.000915,0.35000000000000003,-0.9625000000000001,-4.0075,0.95428125,0.11734375,0.06525,1.17215625,0.913625,-0.36409375,-0.44325000000000003,1.1425625,0.019760123439846802,0.02080328925163389,True
