frame_seq,absolute_seq_u64,segment_id,sample_seq,PPG_G,PPG_R,PPG_IR,ACC_X,ACC_Y,ACC_Z,GYRO_X,GYRO_Y,GYRO_Z,Uh1,Uh2,Uh3,Uh4,Uc1,Uc2,Uc3,Uc4,UD1,UD2,parser_valid
63665,128774,0,128775,3843.0,42292.0,30552.0,-0.000732,0.000915,-0.000366,0.45500000000000007,-1.3475000000000001,-3.5875000000000004,1.102,0.21481250000000002,0.16759375,1.35971875,1.0656875000000001,-0.272625,-0.49893750000000003,1.3119687500000001,0.02008177937079323,0.027206537018187014,True
63666,128775,0,128776,3843.0,42293.0,30555.0,-0.000488,6.1e-05,-0.0011589999999999999,0.47250000000000003,-1.4000000000000001,-3.7100000000000004,1.1028125,0.2171875,0.16884375000000001,1.36621875,1.06484375,-0.2750625,-0.498,1.30453125,0.02027801164260648,0.02722033431300514,True
63667,128776,0,128777,3845.0,42292.0,30555.0,-0.000732,-0.0011589999999999999,-0.000915,0.45500000000000007,-1.5225000000000002,-3.7275000000000005,1.10596875,0.2161875,0.16465625,1.362125,1.0735937500000001,-0.27846875,-0.49603125000000003,1.3110625,0.020374277105099557,0.026971205794816256,True
63668,128777,0,128778,3844.0,42295.0,30555.0,6.1e-05,-0.003355,-0.001037,0.385,-1.61,-3.7975000000000003,1.1019375,0.21365625,0.17046875,1.35853125,1.07134375,-0.27368750000000003,-0.496375,1.3110625,0.020077038150878395,0.027222140010511757,True
63669,128778,0,128779,3845.0,42295.0,30557.0,0.000915,-0.0026839999999999998,-6.1e-05,0.35000000000000003,-1.5575,-3.7800000000000002,1.122125,0.21965625,0.16925,1.37434375,1.06603125,-0.275375,-0.498875,1.30509375,0.020392321436847008,0.02727166043338725,True
63670,128779,0,128780,3844.0,42295.0,30556.0,-0.000244,0.001403,0.001952,0.56,-1.7325000000000002,-3.7275000000000005,1.09578125,0.2155,0.166875,1.3544375,1.0737812500000001,-0.27468750000000003,-0.496375,1.31134375,0.02019335985272725,0.027075434630634124,True
63671,128780,0,128781,3847.0,42297.0,30557.0,-0.0021349999999999997,0.0021349999999999997,0.00061,0.49000000000000005,-1.715,-3.7275000000000005,1.1166875,0.21459375,0.1718125,1.37553125,1.06571875,-0.274625,-0.49846875,1.3059375,0.02015350391612641,0.027360128375370402,True
63672,128781,0,128782,3846.0,42295.0,30559.0,-0.0030499999999999998,0.001586,0.000366,0.29750000000000004,-1.6275000000000002,-3.6750000000000003,1.10859375,0.2195,0.17040625,1.3733125,1.066375,-0.2754375,-0.49646875,1.3043125,0.02038840700605293,0.027223311523216998,True
63673,128782,0,128783,3845.0,42293.0,30557.0,-0.0032329999999999998,0.00042699999999999997,0.001281,0.29750000000000004,-1.5575,-3.6750000000000003,1.088625,0.20865625000000002,0.17521875,1.35346875,1.0741875,-0.27468750000000003,-0.4935,1.30078125,0.01991143037371748,0.027301886214710025,True
63674,128783,0,128784,3845.0,42293.0,30558.0,-0.004148,-6.1e-05,-0.000183,0.35000000000000003,-1.4700000000000002,-3.5700000000000003,1.11821875,0.2193125,0.1624375,1.355,1.06546875,-0.27790625,-0.4965,1.310375,0.020480297801627766,0.02689925091339579,True
63675,128784,0,128785,3846.0,42295.0,30556.0,-0.0030499999999999998,-0.0006709999999999999,-0.0028669999999999998,0.2625,-1.155,-3.535,1.0958125,0.21028125,0.16928125,1.34696875,1.072375,-0.274625,-0.49765625,1.31253125,0.019975849266466526,0.02722454316420576,True
63676,128785,0,128786,3844.0,42295.0,30554.0,-0.000366,0.0,-0.003538,0.4025,-1.2775,-3.5875000000000004,1.0969375000000001,0.21431250000000002,0.17425000000000002,1.37571875,1.06528125,-0.275,-0.497,1.30540625,0.020157054582904226,0.02740131444666694,True
63677,128786,0,128787,3844.0,42293.0,30554.0,0.0028669999999999998,0.0,6.1e-05,0.36750000000000005,-1.7850000000000001,-3.8850000000000002,1.1088437500000001,0.21878125,0.165,1.3673125,1.06875,-0.276625,-0.49609375,1.3094375,0.02040671839681175,0.0269877212565779,True
63678,128787,0,128788,3844.0,42295.0,30553.0,0.0070149999999999995,-0.0011589999999999999,0.00042699999999999997,0.36750000000000005,-2.3800000000000003,-4.0600000000000005,1.09534375,0.21421875,0.17190625,1.365625,1.0745,-0.274625,-0.4948125,1.292875,0.0201380556857212,0.027218773362727315,True
63679,128788,0,128789,3843.0,42294.0,30551.0,0.012078,-0.001952,0.0017079999999999999,0.1925,-2.9225000000000003,-4.357500000000001,1.1034375,0.21690625,0.167875,1.36184375,1.062,-0.27659375,-0.49740625,1.31153125,0.02032822252915939,0.027157211796657046,True
63680,128789,0,128790,3841.0,42294.0,30550.0,0.010003999999999999,-0.0017079999999999999,0.000305,0.36750000000000005,-2.87,-4.532500000000001,1.09990625,0.21490625,0.1670625,1.35815625,1.07146875,-0.27490625,-0.493,1.30765625,0.020177729831603364,0.026949026252398645,True
63681,128790,0,128791,3839.0,42293.0,30548.0,0.0053679999999999995,-0.0015249999999999999,-0.001464,0.2625,-2.2225,-4.322500000000001,1.10571875,0.21431250000000002,0.16878125,1.366625,1.066375,-0.2765,-0.49871875,1.3050625,0.020217597264844605,0.027246322830658237,True
63682,128791,0,128792,3839.0,42290.0,30548.0,-0.00122,0.00042699999999999997,-0.001281,0.385,-1.2600000000000002,-4.0075,1.1038125,0.217,0.16540625,1.3530625,1.07246875,-0.27396875,-0.49734375000000003,1.3066875,0.020226142459707993,0.027053953553637836,True
63683,128792,0,128793,3839.0,42291.0,30546.0,-0.009089,0.002379,0.002074,0.5075000000000001,-0.35000000000000003,-3.7975000000000003,1.1095,0.21759375,0.165625,1.36025,1.06659375,-0.27171875,-0.49584375,1.3099375,0.020159779578856566,0.02700330540767758,True
63684,128793,0,128794,3836.0,42290.0,30545.0,-0.014579,0.0046359999999999995,0.004026,0.5950000000000001,0.14,-3.4825000000000004,1.10240625,0.21431250000000002,0.16840625,1.36575,1.0658750000000001,-0.27446875,-0.49571875,1.30496875,0.02013561058880022,0.027111880519937792,True
63685,128794,0,128795,3837.0,42291.0,30548.0,-0.011101999999999999,0.003538,0.001647,0.6300000000000001,-0.36750000000000005,-3.5525,1.1031250000000001,0.2174375,0.16578125,1.36625,1.07134375,-0.27409375,-0.49584375,1.31265625,0.020249211157471123,0.027009684040787532,True
63686,128795,0,128796,3836.0,42286.0,30550.0,-0.004331,0.0030499999999999998,-0.000183,0.29750000000000004,-1.33,-3.7800000000000002,1.10225,0.21578125,0.16625,1.35928125,1.0705,-0.274125,-0.4975,1.30875,0.020182241378422495,0.027094601489947957,True
63687,128796,0,128797,3834.0,42288.0,30548.0,0.0034159999999999998,6.1e-05,-0.000549,0.28,-2.2575000000000003,-3.9550000000000005,1.10696875,0.2159375,0.168875,1.35440625,1.06590625,-0.27684375,-0.49793750000000003,1.30575,0.02029840678939164,0.027219128140889413,True
63688,128797,0,128798,3834.0,42288.0,30547.0,0.00976,-0.002928,-0.001769,0.31500000000000006,-3.0625000000000004,-4.2175,1.093375,0.21790625,0.167875,1.35696875,1.06690625,-0.27778125,-0.49625,1.30515625,0.020417331176010984,0.027111292544777264,True
63689,128798,0,128799,3835.0,42286.0,30544.0,0.010492,-0.006222,-0.003111,0.21000000000000002,-3.08,-4.235,1.1020625,0.224,0.17125,1.35796875,1.0737812500000001,-0.27453125,-0.49696875,1.312625,0.020537214287093597,0.02727760960220844,True
63690,128799,0,128800,3834.0,42287.0,30545.0,0.0057339999999999995,-0.0048189999999999995,-0.0017079999999999999,0.2625,-2.6425,-4.1475,1.10159375,0.21378125,0.16875,1.36565625,1.06609375,-0.27571875,-0.4945,1.30490625,0.02016418154457322,0.02707750719549287,True
63691,128800,0,128801,3834.0,42285.0,30543.0,0.0035989999999999998,-0.0028669999999999998,-0.00042699999999999997,0.3325,-1.8725000000000003,-3.9725000000000006,1.10659375,0.216375,0.16465625,1.36315625,1.0717812500000001,-0.27684375,-0.49715625,1.30975,0.020316428077682053,0.027015890875088818,True
63692,128801,0,128802,3833.0,42285.0,30543.0,-0.0006709999999999999,0.000793,-0.000915,0.385,-1.435,-3.8500000000000005,1.10215625,0.2163125,0.16821875,1.3689375,1.06528125,-0.27568750000000003,-0.499125,1.3037812500000001,0.020267191196953742,0.02723949324720781,True
63693,128802,0,128803,3834.0,42285.0,30542.0,-0.004514,0.004941,0.001403,0.42000000000000004,-1.0150000000000001,-3.7450000000000006,1.10171875,0.21646875000000002,0.16668750000000002,1.36021875,1.0723125,-0.2749375,-0.49896875,1.30478125,0.020243357990108114,0.027170786525453242,True
63694,128803,0,128804,3833.0,42286.0,30547.0,-0.005246,0.0042699999999999995,0.0021349999999999997,0.5425000000000001,-0.9800000000000001,-3.5875000000000004,1.108,0.21709375,0.167875,1.36696875,1.0577812500000001,-0.277375,-0.49653125000000004,1.3044375,0.02036747177155685,0.02712246249150071,True
63695,128804,0,128805,3832.0,42286.0,30543.0,-0.003294,0.00366,0.000732,0.43750000000000006,-1.0675000000000001,-3.7450000000000006,1.10165625,0.2165625,0.16603125,1.3648125,1.07296875,-0.273625,-0.4931875,1.3115625,0.020194243752220776,0.026914371598225014,True
63696,128805,0,128806,3834.0,42285.0,30541.0,-0.000915,0.0015249999999999999,0.001586,0.3325,-1.435,-3.7975000000000003,1.102125,0.21425,0.17259375,1.36,1.0664375,-0.27465625,-0.49975,1.30471875,0.020140604462730548,0.02744288207022521,True
63697,128806,0,128807,3834.0,42284.0,30543.0,-0.00042699999999999997,-0.001647,0.000305,0.3325,-1.7325000000000002,-3.7625,1.10653125,0.21625,0.16840625,1.36396875,1.06678125,-0.27571875,-0.49575,1.305125,0.020265877812577642,0.027113121663962115,True
63698,128807,0,128808,3834.0,42283.0,30542.0,0.0017079999999999999,-0.002989,-0.001098,0.2625,-1.7500000000000002,-3.9025000000000003,1.092,0.21553125,0.1684375,1.3625,1.06659375,-0.2765,-0.49584375,1.30478125,0.02026780013593393,0.027118120803656744,True
63699,128808,0,128809,3834.0,42282.0,30542.0,0.000915,-0.003965,-0.001769,0.24500000000000002,-1.6625,-3.9550000000000005,1.1025,0.21596875000000001,0.1690625,1.3606562500000001,1.07234375,-0.27521875,-0.49884375000000003,1.3055,0.020234112205477037,0.02726276622748778,True
63700,128809,0,128810,3833.0,42283.0,30539.0,0.00122,-0.002074,-0.000122,0.2625,-1.6450000000000002,-3.8500000000000005,1.10634375,0.21678125,0.16815625,1.36015625,1.066375,-0.27859375000000003,-0.496375,1.30509375,0.020403776474903948,0.02712773828780789,True
63701,128810,0,128811,3834.0,42282.0,30539.0,0.000915,-0.001647,-0.000488,0.17500000000000002,-1.5225000000000002,-3.8850000000000002,1.1055,0.21646875000000002,0.1681875,1.36459375,1.0657812500000001,-0.27934375,-0.4965,1.30965625,0.020421165625615398,0.02713397832343396,True
63702,128811,0,128812,3834.0,42279.0,30539.0,0.00042699999999999997,-0.000122,0.000305,0.15750000000000003,-1.435,-3.8500000000000005,1.1031250000000001,0.21784375,0.1663125,1.36009375,1.0665625,-0.273875,-0.496875,1.316125,0.02025711799207996,0.027072330654420208,True
63703,128812,0,128813,3834.0,42279.0,30540.0,0.000732,0.0015249999999999999,0.0011589999999999999,0.35000000000000003,-1.3650000000000002,-3.9200000000000004,1.1031250000000001,0.21209375,0.17928125,1.37053125,1.0629375,-0.277,-0.50025,1.30296875,0.020146383408164104,0.027735686370547234,True
63704,128813,0,128814,3834.0,42282.0,30540.0,-0.000976,0.0035989999999999998,0.0013419999999999999,0.42000000000000004,-1.4175000000000002,-3.8675,1.1031250000000001,0.21975,0.15653125,1.3550625,1.076875,-0.2730625,-0.49562500000000004,1.3093125,0.020302856304184935,0.026623376623376622,True
63705,128814,0,128815,3834.0,42279.0,30540.0,-0.000732,0.002196,0.001586,0.3325,-1.3650000000000002,-3.8150000000000004,1.098625,0.20359375000000002,0.1726875,1.3506562500000001,1.06921875,-0.27490625,-0.5016875000000001,1.310125,0.01971171361372405,0.02752361444492344,True
63706,128815,0,128816,3834.0,42279.0,30541.0,0.000183,0.0011589999999999999,0.000732,0.29750000000000004,-1.5750000000000002,-3.8500000000000005,1.1245625000000001,0.22209375,0.17284375,1.3575,1.0639687500000001,-0.28153125,-0.50028125,1.3022500000000001,0.02074107249722976,0.02747417440361016,True
63707,128816,0,128817,3835.0,42279.0,30541.0,0.00122,-6.1e-05,0.0,0.29750000000000004,-1.6625,-3.9375000000000004,1.12296875,0.21284375,0.1734375,1.35396875,1.0605,-0.277625,-0.499375,1.3017812500000001,0.02020250127432152,0.027462435266205773,True
63708,128817,0,128818,3835.0,42279.0,30540.0,0.00061,-0.002257,-0.0011589999999999999,0.24500000000000002,-1.8725000000000003,-3.8850000000000002,1.1216875,0.21859375,0.17215625,1.37853125,1.06265625,-0.27775,-0.4995625,1.3028125,0.020444388380307068,0.0274175814364032,True
63709,128818,0,128819,3835.0,42280.0,30540.0,0.000549,-0.0015249999999999999,-0.002562,0.15750000000000003,-1.8025000000000002,-3.7275000000000005,1.11775,0.22337500000000002,0.1698125,1.37903125,1.0700625,-0.2788125,-0.4971875,1.302625,0.020684187086992,0.027227615415034892,True
63710,128819,0,128820,3835.0,42281.0,30538.0,-6.1e-05,-0.001586,-0.0013419999999999999,0.31500000000000006,-1.6275000000000002,-3.7100000000000004,1.07790625,0.213125,0.16590625,1.34996875,1.0752187500000001,-0.27346875,-0.4975625,1.31509375,0.020046321150536017,0.027083051630136672,True
63711,128820,0,128821,3835.0,42281.0,30539.0,-0.000549,-0.000305,-0.00122,0.36750000000000005,-1.54,-3.6925000000000003,1.11671875,0.21159375,0.17159375000000002,1.37825,1.05584375,-0.27615625,-0.4990625,1.3025,0.020091730955142457,0.027374771993826295,True
63712,128821,0,128822,3835.0,42282.0,30540.0,-0.00122,-6.1e-05,-0.001769,0.43750000000000006,-1.33,-3.6050000000000004,1.08753125,0.210625,0.17421875,1.3511250000000001,1.0703125,-0.2749375,-0.4976875,1.30759375,0.02000262616536088,0.02742733370241579,True
63713,128822,0,128823,3835.0,42281.0,30542.0,-0.001037,0.000793,-0.001281,0.35000000000000003,-1.3125000000000002,-3.6575,1.121625,0.212125,0.17115625,1.37928125,1.06521875,-0.2778125,-0.49996875,1.305,0.02018046312862825,0.02739289208277051,True
63714,128823,0,128824,3836.0,42281.0,30541.0,0.001098,0.001464,0.0015249999999999999,0.31500000000000006,-1.4700000000000002,-3.6225000000000005,1.09115625,0.21378125,0.16665625,1.34915625,1.06121875,-0.27540625,-0.496625,1.31046875,0.020151568009289238,0.027076433998561026,True
63715,128824,0,128825,3834.0,42279.0,30541.0,0.0011589999999999999,0.001769,0.001586,0.35000000000000003,-1.435,-3.6925000000000003,1.11571875,0.21646875000000002,0.16946875,1.3650625,1.06646875,-0.27878125,-0.49553125000000003,1.3045625,0.020398470372148515,0.02714780884778729,True
63716,128825,0,128826,3836.0,42282.0,30540.0,0.00183,-6.1e-05,0.000793,0.12250000000000001,-1.4000000000000001,-3.7450000000000006,1.1009375000000001,0.2174375,0.16796875,1.35403125,1.07434375,-0.27471875,-0.50084375,1.30990625,0.020274436753257956,0.027297529294271754,True
63717,128826,0,128827,3836.0,42281.0,30541.0,0.001647,-0.001098,-0.000305,0.14,-1.3475000000000001,-3.6750000000000003,1.10240625,0.21478125,0.17209375,1.367125,1.06628125,-0.275875,-0.497375,1.30540625,0.020211681350311782,0.027328183121660996,True
63718,128827,0,128828,3836.0,42283.0,30540.0,-0.000244,-0.0008539999999999999,0.0006709999999999999,0.17500000000000002,-1.1025,-3.6225000000000005,1.1019375,0.21628125,0.168375,1.3606562500000001,1.07325,-0.274625,-0.50065625,1.30475,0.02022302095294984,0.02730666653061589,True
63719,128828,0,128829,3839.0,42285.0,30542.0,-0.002196,-0.000732,0.000732,0.15750000000000003,-0.805,-3.535,1.1074375,0.21671875000000002,0.16834375000000001,1.365125,1.0668125,-0.27784375,-0.49446875,1.29759375,0.020370940067525562,0.027059680565637907,True
63720,128829,0,128830,3839.0,42284.0,30544.0,-0.0037819999999999998,0.0,0.000244,0.17500000000000002,-0.8575,-3.4825000000000004,1.10328125,0.2169375,0.1655,1.35415625,1.0726875,-0.27475,-0.499125,1.3118750000000001,0.0202551004644744,0.027128519896118742,True
63721,128830,0,128831,3839.0,42284.0,30544.0,-0.003355,0.001647,0.000244,0.21000000000000002,-1.0675000000000001,-3.5700000000000003,1.102125,0.214875,0.169125,1.3607500000000001,1.0671875,-0.276125,-0.498625,1.3050625,0.02022563320958349,0.027256631749741054,True
63722,128831,0,128832,3839.0,42286.0,30544.0,-0.0021349999999999997,0.0013419999999999999,0.000122,0.24500000000000002,-1.2775,-3.6050000000000004,1.10759375,0.21840625,0.167,1.3662812500000001,1.07296875,-0.275125,-0.49646875,1.31234375,0.02033073980051596,0.02708426086923243,True
63723,128832,0,128833,3840.0,42285.0,30546.0,-0.001769,0.001464,-6.1e-05,0.385,-1.54,-3.6225000000000005,1.1023125,0.21725,0.17046875,1.36059375,1.066375,-0.27553125,-0.49990625,1.3068125,0.020299504259046853,0.027362349600827552,True
63724,128833,0,128834,3840.0,42288.0,30544.0,-0.00061,-0.000305,-0.000732,0.42000000000000004,-2.0475000000000003,-3.6925000000000003,1.1027500000000001,0.21525,0.167875,1.35978125,1.0664375,-0.2728125,-0.49925,1.30565625,0.020107373218492913,0.027230425421186363,True
63725,128834,0,128835,3841.0,42287.0,30542.0,0.001403,-0.001403,-0.0017079999999999999,0.42000000000000004,-2.1875,-3.7450000000000006,1.1100625,0.21678125,0.16453125,1.36034375,1.0683125,-0.27653125,-0.4976875,1.31,0.020320551355540138,0.02703188821393856,True
63726,128835,0,128836,3842.0,42290.0,30546.0,0.002562,-0.00042699999999999997,-0.001647,0.45500000000000007,-2.2575000000000003,-3.8500000000000005,1.1025,0.2156875,0.16728125,1.364625,1.0665625,-0.27775,-0.49621875,1.30525,0.020324680005354694,0.027085812988994474,True
63727,128836,0,128837,3840.0,42288.0,30546.0,0.0028669999999999998,-0.000976,-0.000915,0.385,-2.205,-3.8850000000000002,1.10878125,0.21715625,0.16640625,1.36040625,1.07425,-0.27446875,-0.49759375,1.31053125,0.02025276042343872,0.027104702885359915,True
63728,128837,0,128838,3843.0,42292.0,30549.0,0.00366,-0.0006709999999999999,-0.000366,0.43750000000000006,-2.1525000000000003,-3.9725000000000006,1.10615625,0.217875,0.16759375,1.36034375,1.06715625,-0.27768750000000003,-0.4965625,1.3113125,0.02041226125840857,0.027112222378139792,True
63729,128838,0,128839,3844.0,42290.0,30550.0,0.000488,0.000122,0.0008539999999999999,0.49000000000000005,-1.7675,-3.9025000000000003,1.10234375,0.21553125,0.1750625,1.3604375,1.066625,-0.27515625,-0.4990625,1.3053125,0.020213567111437236,0.02751635904435119,True
63730,128839,0,128840,3844.0,42288.0,30551.0,-0.000305,-0.000732,0.001403,0.5075000000000001,-1.5575,-3.8675,1.111125,0.21696875000000002,0.1675,1.357375,1.06934375,-0.27059375,-0.497125,1.309,0.0200886103167542,0.027130734729075352,True
63731,128840,0,128841,3844.0,42288.0,30549.0,-0.00183,-0.000488,0.000122,0.385,-1.4700000000000002,-3.8675,1.10221875,0.21453125,0.16825,1.36090625,1.06709375,-0.27884375,-0.49903125000000004,1.30484375,0.020321190130810903,0.027237046362802612,True
63732,128841,0,128842,3844.0,42287.0,30550.0,-6.1e-05,-0.000549,0.000732,0.36750000000000005,-1.5575,-3.8325000000000005,1.1096875,0.21484375,0.16878125,1.3609375000000001,1.06446875,-0.27828125,-0.49609375,1.30471875,0.020311363680244044,0.02714208260245575,True
63733,128842,0,128843,3847.0,42289.0,30551.0,0.000183,-0.000549,0.001037,0.36750000000000005,-1.7675,-3.8150000000000004,1.108875,0.21775,0.16815625,1.36721875,1.06290625,-0.27203125,-0.497,1.30575,0.020178832375226115,0.027152559497081275,True
63734,128843,0,128844,3845.0,42292.0,30550.0,0.002257,0.0013419999999999999,-0.0011589999999999999,0.24500000000000002,-1.9425000000000001,-3.8850000000000002,1.102625,0.2171875,0.1675,1.3614375,1.0728125,-0.27478125000000003,-0.4996875,1.306,0.02026666048741428,0.027232490210334317,True
63735,128844,0,128845,3845.0,42290.0,30551.0,0.0028669999999999998,-0.000183,-0.000732,0.31500000000000006,-1.995,-3.7800000000000002,1.1008125,0.2185625,0.1684375,1.361,1.06090625,-0.27746875,-0.4965,1.30534375,0.020431753207384933,0.027144183863000833,True
63736,128845,0,128846,3847.0,42290.0,30551.0,0.002989,-0.000732,-0.002196,0.22750000000000004,-1.7325000000000002,-3.7450000000000006,1.111,0.21746875000000002,0.1670625,1.36509375,1.07634375,-0.2755,-0.497125,1.31803125,0.02030725422751334,0.02711287549049123,True
63737,128846,0,128847,3847.0,42290.0,30552.0,0.001952,0.0,-0.00061,0.22750000000000004,-1.3825,-3.7625,1.102125,0.22075,0.16840625,1.36565625,1.06090625,-0.27796875,-0.497125,1.30021875,0.02054202948918451,0.027167728866142455,True
63738,128847,0,128848,3849.0,42292.0,30552.0,-0.000549,0.000976,0.000183,0.24500000000000002,-1.2775,-3.5875000000000004,1.10978125,0.22053125,0.16796875,1.3655,1.081625,-0.27328125000000003,-0.4948125,1.32015625,0.020343870897141278,0.02705802504101634,True
63739,128848,0,128849,3849.0,42290.0,30554.0,-0.0030499999999999998,0.0017079999999999999,0.0025009999999999998,0.21000000000000002,-0.8225000000000001,-3.6050000000000004,1.10834375,0.218375,0.16496875,1.36440625,1.07553125,-0.27290625,-0.50090625,1.30821875,0.020239902257275025,0.0271775661359465,True
63740,128849,0,128850,3849.0,42292.0,30555.0,-0.0035989999999999998,0.001098,0.002623,0.1925,-0.7350000000000001,-3.535,1.101875,0.21540625,0.1685,1.35975,1.05875,-0.278,-0.49703125000000004,1.299125,0.020323183540654093,0.027167832836887125,True
63741,128850,0,128851,3850.0,42293.0,30556.0,-0.0034159999999999998,-0.000244,0.0006709999999999999,0.22750000000000004,-0.8575,-3.6050000000000004,1.1080625,0.21740625,0.17009375000000002,1.35965625,1.0805,-0.27403125,-0.49184375,1.2901562500000001,0.020245401142424582,0.027026854603381993,True
63742,128851,0,128852,3850.0,42294.0,30557.0,-0.002623,0.000244,0.000549,0.1925,-0.8925000000000001,-3.6225000000000005,1.1111875,0.21796875000000002,0.1681875,1.3648125,1.084375,-0.27918750000000003,-0.4945625,1.30603125,0.020476642803635835,0.027057025411251986,True
63743,128852,0,128853,3852.0,42294.0,30556.0,0.000122,-0.0006709999999999999,0.00122,0.035,-0.8750000000000001,-3.6225000000000005,1.111125,0.22062500000000002,0.16784375,1.35921875,1.08365625,-0.27315625,-0.49559375,1.32115625,0.020342688231984665,0.02708395259861786,True
63744,128853,0,128854,3853.0,42292.0,30558.0,0.0006709999999999999,0.000122,0.001586,0.1925,-1.2775,-3.6225000000000005,1.10240625,0.21434375,0.168125,1.36109375,1.059625,-0.2840625,-0.494,1.3035625,0.020524006228364797,0.027032130317628807,True
63745,128854,0,128855,3853.0,42294.0,30559.0,-0.00042699999999999997,0.001098,0.000915,0.21000000000000002,-1.3475000000000001,-3.7100000000000004,1.10809375,0.22265625,0.16668750000000002,1.3633125,1.07890625,-0.2729375,-0.50534375,1.31465625,0.020417543200117412,0.0274238654579167,True
63746,128855,0,128856,3853.0,42298.0,30563.0,0.000732,6.1e-05,6.1e-05,0.22750000000000004,-1.4700000000000002,-3.6575,1.1021875,0.21503125,0.16775,1.359,1.06028125,-0.282375,-0.49978125,1.296,0.020484250407960508,0.027246416740965798,True
63747,128856,0,128857,3855.0,42298.0,30563.0,-0.000366,-6.1e-05,-0.001769,0.35000000000000003,-1.4525000000000001,-3.6225000000000005,1.10715625,0.2181875,0.16890625,1.366625,1.0811250000000001,-0.27890625,-0.49459375,1.3115,0.02047430575666892,0.027087609893509664,True
63748,128857,0,128858,3854.0,42298.0,30563.0,-0.0013419999999999999,0.000305,-0.000793,0.21000000000000002,-1.8900000000000001,-3.5000000000000004,1.10253125,0.21703125,0.16671875,1.35590625,1.0634375,-0.27415625,-0.496625,1.30471875,0.020234997869390415,0.02707898537043368,True
63749,128858,0,128859,3856.0,42299.0,30567.0,-0.000122,0.00122,-0.00042699999999999997,0.3325,-2.1525000000000003,-3.6400000000000006,1.1026562500000001,0.21496875000000001,0.16909375000000001,1.3586875,1.064,-0.27478125000000003,-0.49946875,1.30428125,0.020175259045846192,0.027288857028787618,True
63750,128859,0,128860,3855.0,42300.0,30566.0,0.0025009999999999998,0.002806,-0.003294,0.3325,-2.2750000000000004,-3.7800000000000002,1.1093125,0.21775,0.16809375000000001,1.35971875,1.0676875000000001,-0.2783125,-0.493375,1.3077812500000001,0.0204323302947847,0.027006027139991937,True
63751,128860,0,128861,3857.0,42300.0,30568.0,0.003355,0.001464,-0.003965,0.385,-2.31,-3.7975000000000003,1.102375,0.21753125,0.1645625,1.36471875,1.07190625,-0.27040625,-0.498,1.306375,0.020104216426125955,0.027045575148991752,True
63752,128861,0,128862,3858.0,42303.0,30568.0,0.003111,-0.001098,-0.003477,0.35000000000000003,-2.2575000000000003,-3.8325000000000005,1.102875,0.21653125,0.16718750000000002,1.3603750000000001,1.06790625,-0.2754375,-0.500625,1.31,0.0202661126086811,0.027256957730670137,True
63753,128862,0,128863,3859.0,42305.0,30570.0,0.0006709999999999999,-0.003477,-0.000915,0.28,-1.6975000000000002,-3.8500000000000005,1.1011250000000001,0.21634375,0.1685625,1.3608437500000001,1.0666875,-0.27228125000000003,-0.49590625,1.30446875,0.02013098789385526,0.027125705953418233,True
63754,128863,0,128864,3860.0,42303.0,30567.0,-0.001037,-0.001769,0.001952,0.385,-1.1375000000000002,-3.6750000000000003,1.10565625,0.217625,0.16593750000000002,1.3553125,1.0729375,-0.27440625,-0.4965,1.3129375,0.02026954830254602,0.027042128467332067,True
63755,128864,0,128865,3861.0,42305.0,30568.0,-0.002562,0.000549,0.004209,0.43750000000000006,-1.1725,-3.7275000000000005,1.1031875,0.22,0.16809375000000001,1.3649375000000001,1.066,-0.2775625,-0.4965625,1.30490625,0.02049474694998726,0.02713263340519716,True
63756,128865,0,128866,3860.0,42304.0,30568.0,-0.002379,0.0,0.0042699999999999995,0.4025,-1.1025,-3.6750000000000003,1.1054375,0.217625,0.168,1.36,1.07328125,-0.27371875,-0.4965,1.31065625,0.020241799580049926,0.0271263241687588,True
63757,128866,0,128867,3860.0,42304.0,30571.0,-0.002013,0.001647,0.0008539999999999999,0.2625,-0.9975,-3.6750000000000003,1.1026562500000001,0.2149375,0.16825,1.35971875,1.06671875,-0.27646875,-0.49959375,1.296375,0.020242081130518622,0.027259380576463644,True
63758,128867,0,128868,3861.0,42303.0,30569.0,-0.00122,-0.000549,-0.0008539999999999999,0.10500000000000001,-1.4700000000000002,-3.6575,1.1133125,0.21721875000000002,0.16496875,1.35965625,1.07284375,-0.27703125,-0.49746875,1.311625,0.020358749589697054,0.027041059089013025,True
63759,128868,0,128869,3862.0,42306.0,30568.0,-0.000305,-0.0008539999999999999,-0.0011589999999999999,0.12250000000000001,-1.5925000000000002,-3.5175000000000005,1.1026875,0.21356250000000002,0.169375,1.36896875,1.06646875,-0.27784375,-0.496,1.30515625,0.02024093469997722,0.027162597975179625,True
63760,128869,0,128870,3858.0,42304.0,30566.0,0.003172,-0.0011589999999999999,-0.00061,0.10500000000000001,-1.8200000000000003,-3.5525,1.110625,0.21865625,0.1690625,1.3684375,1.0724375,-0.272875,-0.49765625,1.309375,0.020250227877826585,0.027215613738559175,True
63761,128870,0,128871,3860.0,42305.0,30562.0,0.006161,0.001098,0.0,0.2625,-1.9600000000000002,-3.4475000000000002,1.09928125,0.21428125,0.1695,1.359,1.07503125,-0.274375,-0.49171875000000004,1.2941562500000001,0.02013053889132058,0.02699764588795958,True
63762,128871,0,128872,3857.0,42303.0,30560.0,0.00671,0.002013,0.000244,0.15750000000000003,-1.9775000000000003,-3.4475000000000002,1.1108437500000001,0.218,0.16290625,1.358,1.07334375,-0.27768750000000003,-0.49734375000000003,1.3040625000000001,0.020417410018973185,0.02695190167301302,True
63763,128872,0,128873,3856.0,42301.0,30558.0,0.002745,-6.1e-05,0.000183,-0.052500000000000005,-1.1025,-3.6750000000000003,1.1043125,0.21634375,0.17596875,1.36915625,1.05790625,-0.27846875,-0.4965625,1.3015,0.020380712848704678,0.027454107081350702,True
63764,128873,0,128874,3855.0,42301.0,30559.0,-0.002928,-0.00122,0.001098,0.07,-0.36750000000000005,-3.6225000000000005,1.0989375000000001,0.21734375,0.1686875,1.36190625,1.07215625,-0.27503125,-0.49765625,1.3045625,0.020283187071077406,0.027200306151736457,True
63765,128874,0,128875,3854.0,42303.0,30557.0,-0.00976,-0.000488,0.0008539999999999999,0.24500000000000002,0.43750000000000006,-3.4825000000000004,1.10009375,0.21175,0.164125,1.3580625,1.0677812500000001,-0.27503125,-0.49771875,1.3041562500000001,0.02005275482395105,0.027016546183509432,True
63766,128875,0,128876,3851.0,42302.0,30558.0,-0.015738,0.000305,0.0032329999999999998,0.2625,0.56,-3.5700000000000003,1.11325,0.21878125,0.16878125,1.3714375,1.06703125,-0.27715625,-0.49643750000000003,1.30565625,0.02042815455372785,0.027155734379743994,True
63767,128876,0,128877,3851.0,42300.0,30558.0,-0.014152,0.0008539999999999999,0.003538,0.3325,0.3325,-3.5000000000000004,1.10040625,0.21609375,0.16825,1.3679375,1.06928125,-0.2750625,-0.49684375000000003,1.3048125,0.020232955115975497,0.027150181337136547,True
63768,128877,0,128878,3848.0,42304.0,30556.0,-0.002196,0.00183,-0.000122,0.42000000000000004,-1.2075,-3.9200000000000004,1.10021875,0.2154375,0.16640625,1.358125,1.07028125,-0.27475,-0.4995,1.3056875000000001,0.02019330786104903,0.027180401640849814,True
63769,128878,0,128879,3847.0,42301.0,30555.0,0.005124,0.001586,-0.00244,0.47250000000000003,-2.1875,-4.112500000000001,1.11053125,0.218625,0.16890625,1.35953125,1.0666875,-0.27515625,-0.497,1.3079687500000001,0.020341012223144807,0.027183175490876434,True
63770,128879,0,128880,3847.0,42304.0,30555.0,0.008662,-0.000549,-0.002562,0.47250000000000003,-2.7825,-4.2525,1.1010625,0.21734375,0.172625,1.3662812500000001,1.0698125,-0.27490625,-0.4910625,1.3060625000000001,0.020278142165842557,0.027099171381396784,True
63771,128880,0,128881,3846.0,42300.0,30553.0,0.010187,-0.000976,-0.000915,0.45500000000000007,-2.9575000000000005,-4.340000000000001,1.10221875,0.218125,0.16525,1.3595,1.07271875,-0.275,-0.49725,1.3055,0.020314109165808447,0.027043851860923167,True
63772,128881,0,128882,3845.0,42300.0,30554.0,0.00793,0.000244,-0.000244,0.6125,-2.765,-4.41,1.11003125,0.2176875,0.168125,1.35034375,1.06675,-0.2773125,-0.49771875,1.32446875,0.02038940677638845,0.027179826693046673,True
63773,128882,0,128883,3845.0,42299.0,30552.0,0.002745,-0.001037,-0.00061,0.43750000000000006,-2.0475000000000003,-4.4275,1.10328125,0.21728125,0.16834375000000001,1.3588125,1.0588125,-0.2846875,-0.49690625,1.32825,0.020670175393444942,0.027156490424173462,True
63774,128883,0,128884,3844.0,42300.0,30553.0,0.000488,-0.001952,-0.002257,0.45500000000000007,-1.8025000000000002,-4.515000000000001,1.10271875,0.21578125,0.1686875,1.3605625000000001,1.05903125,-0.27690625,-0.5000625,1.2901875,0.020294492837199966,0.02729584873507976,True
63775,128884,0,128885,3843.0,42298.0,30551.0,-0.0006709999999999999,-0.00183,-0.0025009999999999998,0.47250000000000003,-1.8025000000000002,-4.2700000000000005,1.1088125,0.21859375,0.16734375,1.36109375,1.0848125,-0.272,-0.50771875,1.3011875,0.0202123331410679,0.02754489338180446,True
63776,128885,0,128886,3844.0,42298.0,30550.0,-0.001403,-0.000488,-6.1e-05,0.3325,-1.7500000000000002,-4.077500000000001,1.10278125,0.21446875,0.16840625,1.3607500000000001,1.06221875,-0.28528125,-0.48996875,1.3011875,0.020578308105861448,0.026883456108942567,True
63777,128886,0,128887,3842.0,42298.0,30552.0,-0.001586,6.1e-05,0.001281,0.56,-2.0125,-4.0600000000000005,1.10915625,0.21809375,0.17115625,1.3675,1.08790625,-0.2695625,-0.49465625,1.327375,0.020093326775050026,0.02718194912410743,True
63778,128887,0,128888,3840.0,42299.0,30549.0,0.002562,0.0015249999999999999,-0.00122,0.5075000000000001,-2.2225,-4.095000000000001,1.10365625,0.2175,0.165,1.36290625,1.0735000000000001,-0.26796875000000003,-0.506375,1.3159687500000001,0.020004506969706723,0.027395932690983473,True
63779,128888,0,128889,3841.0,42299.0,30550.0,0.0026839999999999998,0.00061,-0.0015249999999999999,0.29750000000000004,-2.1875,-3.99,1.1031875,0.21528125,0.16593750000000002,1.36025,1.05334375,-0.27768750000000003,-0.50584375,1.29525,0.02030542447669285,0.0274131042723228,True
63780,128889,0,128890,3840.0,42297.0,30551.0,0.0017079999999999999,-0.00122,-0.001952,0.31500000000000006,-2.0825,-3.7975000000000003,1.1056875,0.216,0.16803125,1.3660625,1.06503125,-0.28171875,-0.4864375,1.30853125,0.020497673790081272,0.026727805953806062,True
63781,128890,0,128891,3839.0,42296.0,30549.0,0.0011589999999999999,-0.002257,-0.00183,0.29750000000000004,-1.6800000000000002,-3.7100000000000004,1.104125,0.216875,0.166125,1.3610312500000001,1.0733125000000001,-0.2650625,-0.50396875,1.294375,0.019861374764643613,0.02734633547881912,True
63782,128891,0,128892,3839.0,42298.0,30549.0,-0.000549,-0.001769,-0.000549,0.29750000000000004,-1.435,-3.7450000000000006,1.11,0.2176875,0.16668750000000002,1.360625,1.0881875,-0.27115625,-0.49946875,1.3065625,0.020140933747233407,0.02719064061338065,True
63783,128892,0,128893,3839.0,42298.0,30548.0,-0.001647,0.001464,0.0006709999999999999,0.22750000000000004,-1.1025,-3.4650000000000003,1.10975,0.21809375,0.166125,1.3536875,1.07025,-0.27428125000000003,-0.49275,1.30765625,0.020283813758646303,0.02690081758887834,True
63784,128893,0,128894,3839.0,42297.0,30545.0,-0.001769,0.0006709999999999999,0.0013419999999999999,0.24500000000000002,-1.0675000000000001,-3.3075,1.1045,0.21646875000000002,0.16690625,1.36640625,1.05853125,-0.27884375,-0.494875,1.3024375000000001,0.020400992118910114,0.027017131134574067,True
63785,128894,0,128895,3838.0,42297.0,30546.0,-0.0017079999999999999,6.1e-05,0.000915,0.21000000000000002,-0.8750000000000001,-3.325,1.1026875,0.2178125,0.16815625,1.36025,1.07246875,-0.27459375,-0.4953125,1.31375,0.020284839988310824,0.02708553932512598,True
63786,128895,0,128896,3839.0,42294.0,30545.0,-0.001769,0.000976,-0.000122,0.14,-0.8400000000000001,-3.4650000000000003,1.10721875,0.21790625,0.16790625,1.35834375,1.06671875,-0.27696875,-0.496625,1.30446875,0.020384546567412783,0.027127461436014143,True
63787,128896,0,128897,3838.0,42294.0,30545.0,-0.00122,0.000732,0.000488,0.07,-0.8750000000000001,-3.4125000000000005,1.10296875,0.22028125,0.16834375000000001,1.362875,1.0730625,-0.27015625,-0.49990625,1.3058125,0.020207430679396635,0.027275614575055774,True
63788,128897,0,128898,3840.0,42296.0,30545.0,-0.0028669999999999998,0.0008539999999999999,0.00042699999999999997,0.12250000000000001,-0.77,-3.4825000000000004,1.106875,0.21775,0.166875,1.36003125,1.07209375,-0.2770625,-0.497625,1.3120625000000001,0.020381893402465805,0.027125078451482543,True
63789,128898,0,128899,3839.0,42296.0,30545.0,-0.001464,6.1e-05,0.001281,0.1925,-0.7350000000000001,-3.4650000000000003,1.106125,0.21803125,0.168125,1.36571875,1.0658750000000001,-0.27896875,-0.4970625,1.3057812500000001,0.020470391684160802,0.027153765885195424,True
63790,128899,0,128900,3836.0,42296.0,30542.0,-0.0015249999999999999,0.000183,0.001647,0.21000000000000002,-0.8750000000000001,-3.4650000000000003,1.10271875,0.2164375,0.1725625,1.35546875,1.07296875,-0.27478125000000003,-0.49959375,1.305625,0.020235764225475773,0.02743540390338105,True
63791,128900,0,128901,3838.0,42294.0,30543.0,-0.000305,0.000305,0.0030499999999999998,0.14,-1.0850000000000002,-3.5175000000000005,1.10771875,0.21746875000000002,0.165875,1.36159375,1.0565625,-0.27546875,-0.497375,1.31075,0.020305993061411017,0.0270743293924349,True
63792,128901,0,128902,3836.0,42295.0,30540.0,0.0,-0.0011589999999999999,-0.000793,0.15750000000000003,-1.3650000000000002,-3.6225000000000005,1.10128125,0.2178125,0.16821875,1.3694375,1.066875,-0.277875,-0.49675,1.2969375,0.0204172523336577,0.027145182524212396,True
63793,128902,0,128903,3838.0,42295.0,30539.0,0.00122,0.000732,0.001586,0.35000000000000003,-1.33,-3.4125000000000005,1.10371875,0.21159375,0.17221875,1.37034375,1.07384375,-0.27571875,-0.498,1.30525,0.02007407092735411,0.02735810066127847,True
63794,128903,0,128904,3837.0,42297.0,30541.0,0.000366,0.000915,-0.000488,0.43750000000000006,-1.54,-3.4650000000000003,1.10059375,0.2094375,0.1693125,1.3666875,1.0754062500000001,-0.2701875,-0.4966875,1.305625,0.019761899243670864,0.02718734930998324,True
63795,128904,0,128905,3836.0,42296.0,30543.0,-0.003538,0.001952,-0.000305,0.45500000000000007,-1.9075000000000002,-3.4825000000000004,1.09546875,0.21375,0.17078125,1.356875,1.07234375,-0.27584375,-0.49834375000000003,1.3086875,0.020167939579854972,0.027313070909130335,True
63796,128905,0,128906,3837.0,42294.0,30542.0,-0.004026,-0.000305,0.005063,0.7000000000000001,-2.24,-3.3600000000000003,1.114875,0.2189375,0.16321875,1.3555,1.05734375,-0.277625,-0.497125,1.31296875,0.02045350399802287,0.02695596932293075,True
63797,128906,0,128907,3838.0,42296.0,30542.0,0.002196,-0.0044529999999999995,-0.0011589999999999999,0.29750000000000004,-2.2575000000000003,-3.3775000000000004,1.112125,0.2198125,0.16828125,1.36353125,1.06484375,-0.2758125,-0.49765625,1.30559375,0.0204164124269785,0.027183722932678515,True
63798,128907,0,128908,3836.0,42293.0,30539.0,0.009394,0.0037819999999999998,-0.0018909999999999999,0.35000000000000003,-2.87,-3.6050000000000004,1.09934375,0.21896875000000002,0.16671875,1.3751875,1.07303125,-0.2750625,-0.495,1.304,0.020351389414548365,0.027014441722800573,True
63799,128908,0,128909,3839.0,42294.0,30541.0,0.00793,0.008052,-0.003111,0.5950000000000001,-2.8875,-3.6400000000000006,1.09634375,0.210125,0.17200000000000001,1.35890625,1.0716875000000001,-0.27490625,-0.50109375,1.3098125,0.01998076717598034,0.027471987857684926,True
63800,128909,0,128910,3838.0,42296.0,30542.0,0.004758,0.002745,-0.000488,0.6475000000000001,-2.345,-3.3775000000000004,1.11565625,0.2174375,0.16565625,1.35096875,1.0670625,-0.26815625,-0.49853125000000004,1.31228125,0.020009503194129138,0.02711131917347086,True
63801,128910,0,128911,3838.0,42296.0,30540.0,0.000183,-0.003965,-0.001464,0.42000000000000004,-1.61,-3.2550000000000003,1.11390625,0.21203125,0.16953125,1.3763750000000001,1.0659687500000001,-0.27615625,-0.49278125,1.29771875,0.020109752753795198,0.02704113074132812,True
63802,128911,0,128912,3840.0,42296.0,30540.0,-0.003538,-0.0068319999999999995,-0.000976,0.052500000000000005,-0.9800000000000001,-3.3950000000000005,1.0971250000000001,0.218625,0.16178125000000002,1.3654375,1.07453125,-0.27703125,-0.4975625,1.30878125,0.020416674711822517,0.026914667530698207,True
63803,128912,0,128913,3840.0,42296.0,30538.0,-0.0050019999999999995,-0.00549,-0.001952,0.3325,-0.77,-3.1850000000000005,1.09634375,0.21156250000000001,0.16971875,1.35471875,1.07246875,-0.27468750000000003,-0.5026875000000001,1.3101562500000001,0.020031153851105193,0.027442142826169583,True
63804,128913,0,128914,3840.0,42297.0,30538.0,-0.002562,-0.00061,-0.00183,0.35000000000000003,-0.77,-3.0975,1.1075,0.2183125,0.16990625,1.3588437500000001,1.06746875,-0.27540625,-0.49778125,1.305125,0.02033822811925135,0.027255019268326595,True
63805,128914,0,128915,3840.0,42297.0,30540.0,-0.0008539999999999999,0.004575,-0.000915,0.35000000000000003,-0.9275000000000001,-3.1325000000000003,1.1073125,0.21875,0.16740625,1.36584375,1.06690625,-0.2759375,-0.4971875,1.30621875,0.02037768881222404,0.02712938985342705,True
63806,128915,0,128916,3841.0,42297.0,30544.0,-0.001037,0.00549,0.0013419999999999999,0.385,-1.0150000000000001,-3.1850000000000005,1.1033125,0.21565625,0.1754375,1.3596875,1.07446875,-0.27428125000000003,-0.501,1.3049375,0.020183398839049044,0.027608566997265417,True
63807,128916,0,128917,3839.0,42297.0,30542.0,-0.001098,0.001647,0.003843,0.36750000000000005,-1.0325000000000002,-3.1675000000000004,1.09803125,0.2183125,0.16793750000000002,1.36059375,1.067,-0.2778125,-0.49753125000000004,1.305125,0.020435325464351454,0.027164727057956094,True
63808,128917,0,128918,3840.0,42296.0,30542.0,-0.000366,0.0006709999999999999,0.0034159999999999998,0.24500000000000002,-0.8925000000000001,-3.2725000000000004,1.10190625,0.21671875000000002,0.1751875,1.3662812500000001,1.0666875,-0.2758125,-0.50115625,1.3058125,0.020288970760504926,0.027604564580498113,True
63809,128918,0,128919,3840.0,42297.0,30542.0,0.000488,-0.000305,0.001769,0.35000000000000003,-0.9275000000000001,-3.2550000000000003,1.10515625,0.21728125,0.165625,1.36059375,1.07296875,-0.27384375,-0.501125,1.3121875,0.020232683585598182,0.027213036136095794,True
63810,128919,0,128920,3841.0,42296.0,30544.0,-0.002257,0.0,-0.001769,0.29750000000000004,-0.9275000000000001,-3.2025,1.10225,0.21646875000000002,0.1689375,1.36021875,1.0665625,-0.2754375,-0.5004375,1.3055,0.02026353798978906,0.027320940697487542,True
63811,128920,0,128921,3842.0,42297.0,30547.0,-0.0032329999999999998,0.000732,-0.000732,0.4025,-1.0325000000000002,-3.1325000000000003,1.1086875,0.21859375,0.16771875,1.3644375,1.06646875,-0.27653125,-0.4970625,1.30540625,0.02039521193951463,0.027137182264200047,True
63812,128921,0,128922,3843.0,42299.0,30548.0,-0.002379,-0.0030499999999999998,0.00042699999999999997,0.4025,-1.2775,-3.08,1.10625,0.21721875000000002,0.16640625,1.3610312500000001,1.074625,-0.273875,-0.49475,1.30971875,0.020231370145887297,0.026991753334898293,True
63813,128922,0,128923,3843.0,42297.0,30548.0,-0.000732,-0.003111,-0.001403,0.14,-1.61,-3.2900000000000005,1.10353125,0.21509375,0.16925,1.354,1.0674062500000001,-0.27390625,-0.4981875,1.305375,0.020145088926509305,0.027244362465590567,True
63814,128923,0,128924,3842.0,42300.0,30547.0,0.0035989999999999998,0.000549,0.000366,0.3325,-2.0650000000000004,-3.4650000000000003,1.1088437500000001,0.21740625,0.16909375000000001,1.3608125,1.0741875,-0.276,-0.4975,1.3105,0.020324857884330205,0.027210684763751405,True
63815,128924,0,128925,3844.0,42298.0,30547.0,0.0055509999999999995,0.0013419999999999999,-0.0021349999999999997,0.43750000000000006,-2.4850000000000003,-3.4125000000000005,1.1029375000000001,0.21603125,0.1683125,1.3661875,1.0665,-0.2748125,-0.49978125,1.3055,0.02022029006403242,0.027269376129633812,True
63816,128925,0,128926,3844.0,42298.0,30548.0,0.0023179999999999997,0.004148,-0.0013419999999999999,0.5425000000000001,-2.765,-3.5525,1.1031250000000001,0.2139375,0.16834375000000001,1.3603750000000001,1.074375,-0.27418750000000003,-0.4988125,1.30884375,0.020108808997211545,0.027232187274383198,True
63817,128926,0,128927,3844.0,42299.0,30547.0,0.0051849999999999995,-0.0044529999999999995,0.000488,0.28,-2.3625000000000003,-3.5000000000000004,1.104375,0.21515625,0.16871875,1.36775,1.067,-0.27540625,-0.50028125,1.3053125,0.020208209697829466,0.027305808989437623,True
63818,128927,0,128928,3845.0,42299.0,30545.0,0.005124,-0.006893,-0.001647,-0.035,-1.8200000000000003,-3.5000000000000004,1.106625,0.21775,0.16678125,1.3595625,1.07240625,-0.27428125000000003,-0.49809375,1.31134375,0.020269652680241564,0.027139866749836403,True
63819,128928,0,128929,3844.0,42298.0,30546.0,0.0028669999999999998,-0.0013419999999999999,-0.001769,0.21000000000000002,-1.5050000000000001,-3.6750000000000003,1.10390625,0.2163125,0.168625,1.36121875,1.0674375,-0.27568750000000003,-0.49975,1.3049375,0.020267191196953742,0.027280890621332873,True
63820,128929,0,128930,3846.0,42300.0,30547.0,-0.00183,0.002623,-0.001464,0.47250000000000003,-1.3475000000000001,-3.6400000000000006,1.106,0.2175,0.167375,1.3606562500000001,1.068875,-0.2760625,-0.4980625,1.31009375,0.02033124193843215,0.027162862369217975,True
63821,128930,0,128931,3847.0,42299.0,30547.0,-0.0042699999999999995,0.003843,0.00183,0.49000000000000005,-1.1725,-3.2725000000000004,1.1058125,0.21559375,0.16840625,1.364125,1.05946875,-0.27528125000000003,-0.5003125,1.30509375,0.02022118693269517,0.02729429471562863,True
63822,128931,0,128932,3846.0,42299.0,30549.0,-0.003355,0.001037,0.000366,0.31500000000000006,-1.0675000000000001,-3.3075,1.10325,0.2175,0.16568750000000002,1.3603125,1.07275,-0.27459375,-0.49793750000000003,1.306625,0.020271966446400363,0.027089015146683267,True
63823,128932,0,128933,3847.0,42300.0,30549.0,-0.0015249999999999999,-0.000305,-0.000122,0.29750000000000004,-1.3650000000000002,-3.535,1.10590625,0.21809375,0.16803125,1.3606562500000001,1.067,-0.27475,-0.49815625,1.3102500000000001,0.020302732262948125,0.027193372970669986,True
63824,128933,0,128934,3846.0,42302.0,30550.0,0.000244,-0.002013,0.000305,0.21000000000000002,-1.6800000000000002,-3.4475000000000002,1.10559375,0.21765625,0.1685,1.363875,1.06715625,-0.2768125,-0.49815625,1.3123125,0.02036794369112502,0.027212507063669334,True
63825,128934,0,128935,3849.0,42303.0,30549.0,0.003294,-0.001098,-0.00183,0.17500000000000002,-1.6800000000000002,-3.3950000000000005,1.10390625,0.217,0.166375,1.3615,1.075,-0.27446875,-0.502375,1.298875,0.020246323619337703,0.027293272590922305,True
63826,128935,0,128936,3849.0,42303.0,30551.0,0.0032329999999999998,-0.00061,-0.001586,0.24500000000000002,-1.6275000000000002,-3.4125000000000005,1.1025625000000001,0.21675,0.168375,1.36109375,1.0657812500000001,-0.27775,-0.50090625,1.30375,0.020368444357487824,0.02731659160566765,True
63827,128936,0,128937,3851.0,42302.0,30553.0,-0.0021349999999999997,-0.000488,0.0011589999999999999,0.4025,-1.33,-3.325,1.10915625,0.2178125,0.1655,1.35734375,1.07728125,-0.27228125000000003,-0.4976875,1.31565625,0.020191499305406244,0.027071432762786285,True
63828,128937,0,128938,3850.0,42304.0,30554.0,-0.002989,-0.00122,0.0023179999999999997,0.43750000000000006,-1.155,-3.1500000000000004,1.1034375,0.212625,0.1686875,1.3594375,1.06428125,-0.27365625,-0.5006875000000001,1.3070625,0.02003329226514856,0.02732066192020122,True
63829,128938,0,128939,3850.0,42303.0,30551.0,-0.003172,-0.001098,0.002379,0.28,-1.1375000000000002,-3.0975,1.11240625,0.22021875,0.16834375000000001,1.3664687500000001,1.0638125,-0.27775,-0.50078125,1.3025,0.020511322095334204,0.027310353623927808,True
63830,128939,0,128940,3851.0,42307.0,30557.0,-0.0021349999999999997,0.000915,0.002623,0.36750000000000005,-1.1725,-3.1850000000000005,1.13146875,0.21559375,0.17250000000000001,1.351375,1.064375,-0.2773125,-0.50171875,1.3054375,0.0203031637047964,0.02751720223708796,True
63831,128940,0,128941,3851.0,42307.0,30557.0,-0.000549,0.002074,-0.000976,0.42000000000000004,-1.3475000000000001,-3.3775000000000004,1.1233125,0.21175,0.1729375,1.3544375,1.0645,-0.27571875,-0.50246875,1.30484375,0.020080507400012618,0.027564824462841118,True
63832,128941,0,128942,3853.0,42307.0,30558.0,0.00042699999999999997,0.001586,-0.000793,0.31500000000000006,-1.7325000000000002,-3.325,1.12509375,0.2215625,0.1721875,1.3795,1.0555625,-0.2805625,-0.50065625,1.2948125,0.02068012221710267,0.02746227460744036,True
63833,128942,0,128943,3854.0,42308.0,30558.0,0.001403,0.001586,-0.000366,0.4025,-1.995,-3.2900000000000005,1.1205625000000001,0.2216875,0.1753125,1.38303125,1.06684375,-0.27396875,-0.497125,1.3025,0.020419250560335337,0.02744964970379177,True
63834,128943,0,128944,3853.0,42310.0,30559.0,0.000488,0.001952,-0.000305,0.42000000000000004,-2.0300000000000002,-3.4475000000000002,1.1053125,0.2238125,0.1606875,1.3795,1.0728125,-0.27578125000000003,-0.496625,1.30290625,0.02057992469346378,0.026832777984722382,True
63835,128944,0,128945,3856.0,42309.0,30559.0,0.000549,0.0011589999999999999,-0.0013419999999999999,0.45500000000000007,-1.9775000000000003,-3.5000000000000004,1.10721875,0.22284375,0.17215625,1.37834375,1.07575,-0.27778125,-0.4995625,1.30271875,0.020620706432965326,0.0274175814364032,True
63836,128945,0,128946,3854.0,42309.0,30561.0,0.000366,-0.001098,-0.0034159999999999998,0.43750000000000006,-1.8200000000000003,-3.6225000000000005,1.12525,0.21725,0.17365625,1.35146875,1.065375,-0.27696875,-0.49834375000000003,1.3038125,0.020357514774162238,0.02743042578133471,True
63837,128946,0,128947,3856.0,42311.0,30561.0,0.000183,-0.0046359999999999995,-0.000549,0.36750000000000005,-1.5225000000000002,-3.6225000000000005,1.0958125,0.21046875,0.16515625,1.35021875,1.066,-0.27378125000000003,-0.5011875,1.3115,0.019949508278608225,0.02719638588945944,True
63838,128947,0,128948,3857.0,42309.0,30561.0,-0.000732,-0.003355,0.000183,0.49000000000000005,-1.435,-3.6050000000000004,1.095375,0.20590625,0.16809375000000001,1.3545625000000001,1.06646875,-0.274875,-0.4996875,1.310375,0.019805714756512646,0.027256725213331803,True
63839,128948,0,128949,3857.0,42311.0,30566.0,-0.001037,0.00042699999999999997,0.0015249999999999999,0.385,-1.5750000000000002,-3.7100000000000004,1.09159375,0.20825,0.17321875,1.35328125,1.0669375,-0.27034375,-0.5010625,1.3129375,0.01971928189109394,0.027520490182823702,True
63840,128949,0,128950,3857.0,42312.0,30564.0,-0.000549,0.001647,0.001586,0.45500000000000007,-1.6275000000000002,-3.7625,1.10415625,0.2181875,0.16959375000000002,1.3586875,1.0668125,-0.27571875,-0.49975,1.304875,0.020345690073543136,0.02732043184114124,True
63841,128950,0,128951,3856.0,42313.0,30563.0,-0.000244,0.002562,0.000366,0.45500000000000007,-1.6625,-3.7625,1.10253125,0.215875,0.16640625,1.36053125,1.066625,-0.2744375,-0.50125,1.3039687500000001,0.020198717272027416,0.027249885209938266,True
63842,128951,0,128952,3855.0,42311.0,30563.0,0.0015249999999999999,0.000488,0.00122,0.36750000000000005,-1.6975000000000002,-3.6925000000000003,1.10946875,0.21815625,0.1710625,1.36621875,1.066875,-0.27675,-0.4973125,1.2999375,0.020386017485866107,0.027283605089333775,True
63843,128952,0,128953,3854.0,42311.0,30564.0,0.002013,-0.000366,-0.000244,0.36750000000000005,-1.8200000000000003,-3.7975000000000003,1.10996875,0.2184375,0.16940625,1.36459375,1.074,-0.27559375,-0.49553125000000003,1.30921875,0.020350944042305866,0.027145257361993327,True
63844,128953,0,128954,3854.0,42311.0,30559.0,0.00183,-0.000488,0.000732,0.28,-1.8200000000000003,-3.8325000000000005,1.1031875,0.21775,0.16603125,1.3593125,1.069375,-0.27475,-0.5011875,1.3104375,0.020288571457996476,0.02723209844420806,True
63845,128954,0,128955,3851.0,42311.0,30559.0,0.002074,-0.000793,-0.000305,0.31500000000000006,-1.7850000000000001,-3.7625,1.10253125,0.21640625,0.16890625,1.36003125,1.06653125,-0.27475,-0.49790625,1.30484375,0.02023321558409458,0.027219162862132353,True
63846,128955,0,128956,3851.0,42311.0,30558.0,0.000305,0.000183,0.0006709999999999999,0.385,-1.6450000000000002,-3.7450000000000006,1.106875,0.21584375,0.16793750000000002,1.3599375,1.0680625,-0.27740625,-0.4975,1.3058750000000001,0.020317244557375238,0.027163486070007146,True
63847,128956,0,128957,3850.0,42312.0,30555.0,-0.001769,-0.001098,-0.001037,0.28,-1.3650000000000002,-3.6050000000000004,1.11028125,0.215375,0.16796875,1.3658125,1.066,-0.27753125,-0.49703125000000004,1.30490625,0.020302980765393927,0.027146146535613373,True
63848,128957,0,128958,3847.0,42312.0,30553.0,-0.00042699999999999997,-0.000732,-0.000244,0.29750000000000004,-1.435,-3.6225000000000005,1.1074375,0.224125,0.16503125,1.36478125,1.07228125,-0.27365625,-0.49778125,1.311,0.020507056904540286,0.02705602165502233,True
63849,128958,0,128959,3846.0,42311.0,30555.0,-0.000793,0.001952,0.0008539999999999999,0.29750000000000004,-1.4700000000000002,-3.6575,1.1028125,0.21628125,0.1678125,1.3605625000000001,1.06684375,-0.2749375,-0.5005937500000001,1.29821875,0.020235633974340823,0.027281226602926718,True
63850,128959,0,128960,3845.0,42310.0,30551.0,-0.000305,0.001098,0.0015249999999999999,0.385,-1.3825,-3.6050000000000004,1.1039375,0.21728125,0.16890625,1.3675,1.0671875,-0.27503125,-0.4973125,1.30521875,0.020280612409098342,0.027195585230012476,True
63851,128960,0,128961,3841.0,42310.0,30548.0,-0.000488,0.0015249999999999999,0.000793,0.43750000000000006,-1.4000000000000001,-3.6050000000000004,1.104625,0.217125,0.16621875,1.3594375,1.0685625,-0.27421875,-0.49853125000000004,1.3099375,0.02024138263976055,0.027134279733606482,True
63852,128961,0,128962,3841.0,42309.0,30548.0,-0.0011589999999999999,-0.0011589999999999999,-0.000183,0.3325,-1.2600000000000002,-3.6575,1.1025625000000001,0.21515625,0.166875,1.360625,1.06765625,-0.2753125,-0.499875,1.30315625,0.020204425792664876,0.027214424563390627,True
63853,128962,0,128963,3839.0,42307.0,30545.0,-0.002989,-0.0013419999999999999,0.000244,0.29750000000000004,-1.155,-3.7275000000000005,1.110125,0.21746875000000002,0.16821875,1.36778125,1.06909375,-0.26840625,-0.49753125000000004,1.3081562500000001,0.020020886208792554,0.027176207806653987,True
63854,128963,0,128964,3839.0,42307.0,30545.0,-0.002196,-0.00042699999999999997,0.000244,0.35000000000000003,-1.2425000000000002,-3.6575,1.10221875,0.21825,0.16815625,1.36784375,1.07375,-0.27425,-0.49759375,1.31128125,0.02028898936115431,0.027176138472783683,True
63855,128964,0,128965,3835.0,42305.0,30543.0,0.0,0.000366,0.000793,0.42000000000000004,-1.4700000000000002,-3.6225000000000005,1.10559375,0.21725,0.1695,1.36540625,1.0714062500000001,-0.27375,-0.49040625,1.3049375,0.020227612132447604,0.02694550034260865,True
63856,128965,0,128966,3835.0,42305.0,30542.0,-0.000244,0.001769,0.000549,0.5075000000000001,-1.7675,-3.5875000000000004,1.1104687500000001,0.21590625,0.1675625,1.36040625,1.071125,-0.27465625,-0.49734375000000003,1.30559375,0.02020883405918467,0.027141973300676733,True
63857,128966,0,128967,3832.0,42305.0,30542.0,0.0023179999999999997,-0.000366,-0.0011589999999999999,0.42000000000000004,-1.8725000000000003,-3.7800000000000002,1.10309375,0.215375,0.16640625,1.3603125,1.0660625,-0.27409375,-0.498625,1.30925,0.020164244030737504,0.027145656133762606,True
63858,128967,0,128968,3831.0,42302.0,30539.0,0.002257,-0.002806,-0.001952,0.4025,-1.5750000000000002,-3.8150000000000004,1.10225,0.2171875,0.16571875,1.36546875,1.0671875,-0.2745625,-0.4978125,1.3085625,0.02025783162930331,0.027085326495988164,True
63859,128968,0,128969,3830.0,42301.0,30535.0,0.000488,-0.002806,-0.00061,0.2625,-1.3650000000000002,-3.7625,1.1026562500000001,0.2180625,0.1680625,1.3650625,1.0715625,-0.273625,-0.49784375000000003,1.30884375,0.02025603921952325,0.02718223925319958,True
63860,128969,0,128970,3829.0,42301.0,30535.0,-0.001098,-0.000976,-6.1e-05,0.35000000000000003,-1.2950000000000002,-3.6750000000000003,1.0976875,0.2185,0.16578125,1.36596875,1.0708125,-0.27390625,-0.497625,1.31646875,0.02028541450760526,0.027080431266296223,True
63861,128970,0,128971,3828.0,42301.0,30533.0,-0.0025009999999999998,0.001037,0.002623,0.49000000000000005,-1.2075,-3.6225000000000005,1.10240625,0.21784375,0.16584375,1.36609375,1.0675937500000001,-0.26796875000000003,-0.50084375,1.32259375,0.020018671731642148,0.02721079758732799,True
63862,128971,0,128972,3829.0,42298.0,30534.0,-0.0006709999999999999,0.001769,0.000488,0.3325,-1.4175000000000002,-3.6575,1.10328125,0.21825,0.16528125,1.36603125,1.06425,-0.27475,-0.5001875,1.31946875,0.0203091689924716,0.02716178192513833,True
63863,128972,0,128973,3827.0,42299.0,30533.0,0.000122,0.00061,-6.1e-05,0.3325,-1.6800000000000002,-3.6925000000000003,1.1027500000000001,0.21746875000000002,0.1675,1.3675625,1.06165625,-0.27290625,-0.500375,1.31975,0.02020256639025251,0.027259786839997347,True
63864,128973,0,128974,3825.0,42300.0,30531.0,0.001037,-0.0008539999999999999,-0.00061,0.28,-1.7325000000000002,-3.7450000000000006,1.1085,0.21778125,0.167625,1.3598125,1.07375,-0.27225,-0.49562500000000004,1.30059375,0.02018895034452925,0.027076263618503304,True
63865,128974,0,128975,3823.0,42298.0,30533.0,0.000976,-0.00122,-0.000915,0.3325,-1.8025000000000002,-3.8325000000000005,1.11021875,0.2164375,0.16840625,1.360125,1.08390625,-0.27828125,-0.49512500000000004,1.3003125,0.02037700877198628,0.027088298181781066,True
63866,128975,0,128976,3824.0,42298.0,30534.0,0.000549,6.1e-05,0.000183,0.35000000000000003,-1.8550000000000002,-3.8150000000000004,1.0967500000000001,0.2164375,0.166375,1.36496875,1.0579687500000001,-0.28065625,-0.4995,1.31428125,0.020472830094944407,0.027179126104614378,True
63867,128976,0,128977,3824.0,42299.0,30533.0,0.001464,-0.000732,-0.0025009999999999998,0.36750000000000005,-1.6800000000000002,-3.8325000000000005,1.10346875,0.2181875,0.1685625,1.359875,1.0605625,-0.27190625,-0.49571875,1.30021875,0.02019181126327892,0.027118259185597477,True
63868,128977,0,128978,3824.0,42298.0,30532.0,0.001769,0.0015249999999999999,-0.001403,0.35000000000000003,-1.61,-3.8325000000000005,1.1041875,0.215875,0.1678125,1.3649375000000001,1.06853125,-0.28190625,-0.498875,1.308125,0.02050008944417204,0.02721298426968585,True
63869,128978,0,128979,3823.0,42297.0,30533.0,-6.1e-05,0.000732,-0.00061,0.43750000000000006,-1.5225000000000002,-3.6750000000000003,1.1029375000000001,0.21753125,0.17240625,1.36109375,1.0608125,-0.272375,-0.49162500000000003,1.30684375,0.020183696486231775,0.027112584403852343,True
63870,128979,0,128980,3822.0,42294.0,30532.0,-0.001647,0.001281,-0.000183,0.36750000000000005,-1.3650000000000002,-3.7275000000000005,1.1089375000000001,0.21475,0.1691875,1.3588437500000001,1.0834062500000001,-0.2818125,-0.4940625,1.29,0.020449976705816338,0.027077990839616747,True
63871,128980,0,128981,3822.0,42297.0,30530.0,-0.00244,-0.001037,0.001647,0.3325,-1.2950000000000002,-3.7275000000000005,1.10315625,0.21734375,0.16953125,1.363375,1.0600625000000001,-0.2703125,-0.49959375,1.309625,0.020092705852056914,0.027311677361997074,True
63872,128981,0,128982,3822.0,42296.0,30533.0,-0.0015249999999999999,0.000183,0.0013419999999999999,0.4025,-1.3475000000000001,-3.6575,1.103375,0.2185,0.16768750000000002,1.36490625,1.06015625,-0.273,-0.49634375000000003,1.31096875,0.020248836155399005,0.027107361685353555,True
63873,128982,0,128983,3820.0,42295.0,30529.0,6.1e-05,-0.00061,0.000488,0.49000000000000005,-1.5575,-3.6575,1.10940625,0.21840625,0.16859375000000001,1.35409375,1.07128125,-0.27428125000000003,-0.496375,1.3039687500000001,0.02029668746628698,0.027145598073184295,True
63874,128983,0,128984,3822.0,42296.0,30529.0,0.000793,-0.000793,0.000305,0.42000000000000004,-1.7675,-3.6575,1.107125,0.21528125,0.168875,1.35959375,1.0665,-0.27790625,-0.499625,1.3054375,0.0203142517695487,0.027286131930590773,True
63875,128984,0,128985,3818.0,42297.0,30530.0,0.001464,-0.000793,-0.000244,0.42000000000000004,-1.7675,-3.7450000000000006,1.1084375,0.21540625,0.1689375,1.36140625,1.066375,-0.2775,-0.49653125000000004,1.3043125,0.02030300689939244,0.027165835979328708,True
63876,128985,0,128986,3818.0,42296.0,30529.0,0.000366,-0.000366,0.000305,0.43750000000000006,-1.6975000000000002,-3.6750000000000003,1.107875,0.21765625,0.16865625,1.3633125,1.0696875000000001,-0.27659375,-0.49821875,1.3044375,0.020359116484370877,0.02722136685958035,True
63877,128986,0,128987,3820.0,42295.0,30526.0,0.000549,6.1e-05,0.000793,0.29750000000000004,-1.5925000000000002,-3.535,1.1074375,0.21815625,0.16834375000000001,1.365875,1.0760625,-0.2765625,-0.49815625,1.3058125,0.02037845143850164,0.027206129032669554,True
63878,128987,0,128988,3821.0,42294.0,30528.0,0.0008539999999999999,0.000976,0.00061,0.29750000000000004,-1.6625,-3.6050000000000004,1.10903125,0.21790625,0.16759375,1.3665,1.0755625,-0.27425,-0.498875,1.31121875,0.020274828264518985,0.027204055288253034,True
63879,128988,0,128989,3819.0,42290.0,30528.0,-0.000366,-6.1e-05,-0.000915,0.24500000000000002,-1.6275000000000002,-3.6750000000000003,1.10771875,0.21821875000000002,0.16828125,1.36575,1.0733125000000001,-0.2744375,-0.497375,1.3058750000000001,0.020295269457840166,0.027172554202235955,True
63880,128989,0,128990,3819.0,42294.0,30528.0,0.000366,0.000366,-0.0021349999999999997,0.29750000000000004,-1.6800000000000002,-3.6750000000000003,1.11103125,0.218125,0.1678125,1.36740625,1.07571875,-0.27671875,-0.49775,1.29865625,0.020383469244582324,0.02716831137553449,True
63881,128990,0,128991,3818.0,42296.0,30528.0,-0.000122,0.00061,-0.000549,0.36750000000000005,-1.5225000000000002,-3.6925000000000003,1.10803125,0.22415625,0.168,1.36940625,1.07475,-0.27390625,-0.498,1.3113125,0.020518432215663684,0.02718589272593681,True
63882,128991,0,128992,3819.0,42296.0,30529.0,-0.000244,-0.000732,-0.000305,0.31500000000000006,-1.435,-3.7275000000000005,1.103,0.21725,0.164125,1.35775,1.06246875,-0.27440625,-0.49753125000000004,1.3137812500000001,0.02025409993292833,0.02700909913116245,True
63883,128992,0,128993,3818.0,42294.0,30528.0,-0.00042699999999999997,-0.000305,0.000122,0.3325,-1.3825,-3.7625,1.10296875,0.2166875,0.1685,1.35571875,1.0678750000000001,-0.27440625,-0.49959375,1.3099375,0.02023092737850179,0.027269584827299437,True
63884,128993,0,128994,3819.0,42292.0,30526.0,-0.000915,0.000488,0.000122,0.36750000000000005,-1.2075,-3.8325000000000005,1.10178125,0.211125,0.169875,1.35834375,1.06715625,-0.27418750000000003,-0.49909375,1.305375,0.01999294518096641,0.02730585697685246,True
63885,128994,0,128995,3820.0,42293.0,30525.0,-0.001281,-0.000183,0.001769,0.3325,-1.2075,-3.7450000000000006,1.1140625,0.21912500000000001,0.16321875,1.3575625,1.0655000000000001,-0.27618750000000003,-0.49803125000000004,1.30990625,0.020403224353082627,0.02699196491554806,True
63886,128995,0,128996,3819.0,42295.0,30526.0,-0.0013419999999999999,-0.000122,0.0017079999999999999,0.385,-1.2600000000000002,-3.7100000000000004,1.10778125,0.218,0.16878125,1.36796875,1.06725,-0.27634375,-0.497625,1.30465625,0.020363187928577588,0.027202892117092984,True
63887,128996,0,128997,3818.0,42292.0,30527.0,0.000183,-0.000366,0.000915,0.2625,-1.33,-3.7800000000000002,1.09990625,0.21846875000000002,0.16621875,1.357625,1.0733125000000001,-0.27384375,-0.49825,1.31259375,0.02028160455634473,0.02712311083444736,True
63888,128997,0,128998,3819.0,42293.0,30528.0,0.000793,-0.00122,0.00042699999999999997,0.36750000000000005,-1.4175000000000002,-3.8325000000000005,1.1010312500000001,0.213375,0.16959375000000002,1.35890625,1.06571875,-0.27521875,-0.5000625,1.3059687500000001,0.020127264558635543,0.02733283843663664,True
63889,128998,0,128999,3819.0,42293.0,30528.0,0.0006709999999999999,0.000549,0.000366,0.29750000000000004,-1.5225000000000002,-3.7800000000000002,1.1008125,0.2160625,0.16925,1.3576875,1.05871875,-0.27721875,-0.49984375000000003,1.30559375,0.020318688688340792,0.02731012315129561,True
63890,128999,0,129000,3821.0,42291.0,30528.0,0.001281,-0.000549,0.000488,0.29750000000000004,-1.61,-3.7625,1.11409375,0.21884375,0.1691875,1.3613125,1.06675,-0.2765,-0.49821875,1.30446875,0.020404248965048506,0.02724305210965593,True
63891,129000,0,129001,3819.0,42293.0,30528.0,0.002379,-0.000244,-0.001464,0.28,-1.6975000000000002,-3.7625,1.1104375,0.21846875000000002,0.1663125,1.36290625,1.068125,-0.275625,-0.490875,1.30871875,0.020353492443551915,0.026833973878026003,True
63892,129001,0,129002,3819.0,42293.0,30528.0,0.001037,0.000915,-0.001586,0.28,-1.6975000000000002,-3.7450000000000006,1.0998125,0.21378125,0.16890625,1.3623750000000001,1.06446875,-0.27434375,-0.49853125000000004,1.30540625,0.020108679560080795,0.027243980187587776,True
63893,129002,0,129003,3819.0,42292.0,30528.0,0.000793,0.001464,-0.00183,0.36750000000000005,-1.6625,-3.6225000000000005,1.109375,0.21790625,0.16390625,1.3586875,1.06853125,-0.27034375,-0.4975625,1.3081875,0.020117143993891723,0.027001410854651357,True
63894,129003,0,129004,3818.0,42294.0,30528.0,0.000244,0.000244,-0.0006709999999999999,0.36750000000000005,-1.5575,-3.6575,1.101,0.2168125,0.1695,1.3594375,1.0673125,-0.27421875,-0.50040625,1.30484375,0.020228508898973322,0.027342658858973003,True
63895,129004,0,129005,3819.0,42295.0,30531.0,0.000976,0.000183,-0.000732,0.385,-1.4175000000000002,-3.6925000000000003,1.1061875,0.2166875,0.16846875,1.3606562500000001,1.06665625,-0.27575,-0.49709375,1.3054375,0.02028516111757618,0.027169039184495102,True
63896,129005,0,129006,3821.0,42296.0,30531.0,-0.002074,-0.000366,-0.001403,0.24500000000000002,-1.1025,-3.6575,1.10315625,0.21821875000000002,0.1685,1.35959375,1.07075,-0.27665625,-0.49212500000000003,1.30525,0.020384808966432518,0.026972955592869136,True
63897,129006,0,129007,3820.0,42293.0,30532.0,-0.003477,-0.000122,0.00042699999999999997,0.28,-0.9275000000000001,-3.7100000000000004,1.10796875,0.21871875000000002,0.1675,1.36609375,1.0675625,-0.274,-0.49359375,1.30521875,0.020298210018950318,0.02699047582594939,True
63898,129007,0,129008,3819.0,42295.0,30530.0,-0.0030499999999999998,-0.001403,0.002806,0.22750000000000004,-0.8750000000000001,-3.6225000000000005,1.1110625,0.21934375,0.168625,1.3603125,1.0901875,-0.2798125,-0.4976875,1.2908125,0.02055848866213444,0.027198995823585388,True
63899,129008,0,129009,3822.0,42295.0,30531.0,-0.0018909999999999999,-0.000549,0.002257,0.36750000000000005,-0.805,-3.5875000000000004,1.11021875,0.21912500000000001,0.167625,1.36153125,1.095375,-0.27028125000000003,-0.49640625,1.3248125,0.020164836367522525,0.02710729252377581,True
63900,129009,0,129010,3819.0,42294.0,30533.0,-0.000488,0.000366,0.00042699999999999997,0.24500000000000002,-0.9800000000000001,-3.6400000000000006,1.1081875,0.2184375,0.16793750000000002,1.36571875,1.075875,-0.271,-0.49596875,1.3258750000000001,0.02016552676033126,0.027102673781782972,True
63901,129010,0,129011,3821.0,42294.0,30532.0,0.001464,0.000488,-0.001464,0.24500000000000002,-1.435,-3.7450000000000006,1.10596875,0.22221875,0.16628125,1.36034375,1.0754375,-0.27087500000000003,-0.5096875,1.29353125,0.020316274135151698,0.027579656003366017,True
63902,129011,0,129012,3821.0,42296.0,30530.0,0.001464,0.000305,-0.000244,0.2625,-1.4000000000000001,-3.7275000000000005,1.10909375,0.2188125,0.16825,1.367625,1.0688125,-0.27646875,-0.4940625,1.319,0.020401700720991393,0.027039716257766556,True
63903,129012,0,129013,3823.0,42295.0,30534.0,0.002013,-0.000244,0.001647,0.1925,-1.3825,-3.7625,1.10390625,0.2165,0.167625,1.3559375,1.05490625,-0.27571875,-0.49946875,1.2896875,0.020276176168831254,0.027228906749253497,True
63904,129013,0,129014,3822.0,42296.0,30534.0,0.00042699999999999997,-0.000976,0.000732,0.22750000000000004,-1.4000000000000001,-3.6050000000000004,1.1081875,0.217875,0.16396875,1.358375,1.09078125,-0.26275,-0.5035937500000001,1.3128125,0.0198091724969346,0.027243452809855698,True
63905,129014,0,129015,3822.0,42298.0,30536.0,-0.0008539999999999999,0.000183,-0.000488,0.31500000000000006,-1.2075,-3.6925000000000003,1.10575,0.21803125,0.1680625,1.36525,1.0615937500000001,-0.281125,-0.493375,1.3275937500000001,0.020557377386756174,0.02700475128478619,True
63906,129015,0,129016,3823.0,42299.0,30536.0,-0.001769,-0.001037,6.1e-05,0.28,-1.2950000000000002,-3.7275000000000005,1.10353125,0.2171875,0.166375,1.3599375,1.0608125,-0.2738125,-0.5073125,1.31284375,0.020227560050568902,0.02748924428168123,True
63907,129016,0,129017,3823.0,42296.0,30535.0,-0.000793,-0.000305,0.001098,0.2625,-1.2950000000000002,-3.6925000000000003,1.107125,0.21771875000000002,0.16475,1.3609375000000001,1.06128125,-0.27846875,-0.49593750000000003,1.3158125,0.020437347392429764,0.02697130901807698,True
63908,129017,0,129018,3823.0,42296.0,30535.0,-0.0017079999999999999,0.000366,0.001037,0.385,-1.3475000000000001,-3.6575,1.1028437500000001,0.21896875000000002,0.169125,1.36540625,1.05434375,-0.284125,-0.49903125000000004,1.3002500000000001,0.02071698074359278,0.02727276206074475,True
63909,129018,0,129019,3825.0,42297.0,30536.0,6.1e-05,0.0017079999999999999,0.000244,0.24500000000000002,-1.6800000000000002,-3.6400000000000006,1.10496875,0.21690625,0.16468750000000001,1.359875,1.0733125000000001,-0.27225,-0.50390625,1.30190625,0.02015290094655419,0.027285190498963812,True
63910,129019,0,129020,3825.0,42297.0,30537.0,0.000122,0.001281,-0.000244,0.36750000000000005,-1.8025000000000002,-3.6925000000000003,1.10971875,0.21765625,0.17003125,1.35996875,1.07046875,-0.272875,-0.49709375,1.3106875,0.020209029626692347,0.027232822260803893,True
63911,129020,0,129021,3826.0,42296.0,30537.0,0.0032329999999999998,-0.000976,-0.000976,0.2625,-1.8725000000000003,-3.8325000000000005,1.10834375,0.21809375,0.16443750000000001,1.35971875,1.06728125,-0.273875,-0.49796875,1.31365625,0.020267417130557026,0.027039231568943858,True
63912,129021,0,129022,3826.0,42298.0,30539.0,0.0018909999999999999,-0.0018909999999999999,-0.002257,0.17500000000000002,-1.7325000000000002,-3.8675,1.1089375000000001,0.2183125,0.1653125,1.35871875,1.06653125,-0.27575,-0.49825,1.3113125,0.020352100347054158,0.02708611839621198,True
63913,129022,0,129023,3826.0,42297.0,30539.0,-0.0011589999999999999,-0.0008539999999999999,-0.000366,0.28,-1.8200000000000003,-3.7275000000000005,1.1028437500000001,0.21665625,0.1680625,1.362625,1.06690625,-0.27553125,-0.499125,1.304625,0.020275045474030563,0.027233115468409588,True
63914,129023,0,129024,3825.0,42300.0,30539.0,-0.0013419999999999999,0.000488,0.000488,0.5950000000000001,-1.8200000000000003,-3.7450000000000006,1.10315625,0.2181875,0.16721875,1.36053125,1.074125,-0.27409375,-0.49884375000000003,1.30884375,0.020280108294465166,0.027187507573699272,True
63915,129024,0,129025,3828.0,42299.0,30539.0,-0.000122,0.002623,-0.00061,0.5950000000000001,-1.8725000000000003,-3.7450000000000006,1.093625,0.2190625,0.16693750000000002,1.35990625,1.06765625,-0.27578125000000003,-0.498,1.31209375,0.02038425642841052,0.02714252183851743,True
63916,129025,0,129026,3828.0,42302.0,30545.0,0.0015249999999999999,-0.000305,-0.001769,0.47250000000000003,-1.9425000000000001,-3.7800000000000002,1.10353125,0.215375,0.1684375,1.36003125,1.06728125,-0.275,-0.4990625,1.304375,0.020200823892893925,0.02724594053343878,True
63917,129026,0,129027,3827.0,42300.0,30542.0,0.002257,-0.0028669999999999998,-0.0023179999999999997,0.4025,-1.8900000000000001,-3.8150000000000004,1.10778125,0.2179375,0.1713125,1.36621875,1.067375,-0.27834375,-0.4975,1.3088125,0.020441314082637947,0.027301255230125526,True
63918,129027,0,129028,3828.0,42300.0,30542.0,0.0008539999999999999,-0.003538,-6.1e-05,0.4025,-1.8725000000000003,-3.8850000000000002,1.10365625,0.21521875000000001,0.17221875,1.3567500000000001,1.06625,-0.2740625,-0.49934375000000003,1.3050625,0.020156545695637063,0.027411448520942527,True
63919,129028,0,129029,3828.0,42301.0,30542.0,0.0015249999999999999,-0.002562,0.001098,0.35000000000000003,-1.715,-3.7625,1.11365625,0.21634375,0.161,1.35809375,1.06728125,-0.2758125,-0.49815625,1.31225,0.020273523285780855,0.026906361575679803,True
63920,129029,0,129030,3830.0,42302.0,30543.0,0.001037,0.000244,0.001098,0.385,-1.5225000000000002,-3.6575,1.1176875,0.2231875,0.16428125,1.36878125,1.06715625,-0.27446875,-0.49778125,1.29703125,0.020501221061737962,0.027025406637590906,True
63921,129030,0,129031,3829.0,42301.0,30542.0,-0.000915,0.00183,0.000366,0.385,-1.61,-3.5875000000000004,1.09715625,0.21115625000000002,0.17290625,1.3593125,1.0745625,-0.27496875,-0.50134375,1.30775,0.02002577243276575,0.027518898835905685,True
63922,129031,0,129032,3826.0,42300.0,30540.0,-0.000244,0.001464,-0.000122,0.21000000000000002,-1.4700000000000002,-3.6400000000000006,1.1170625,0.21987500000000001,0.1663125,1.36903125,1.06646875,-0.2759375,-0.498375,1.30453125,0.020424030997773,0.027131901605718746,True
63923,129032,0,129033,3828.0,42299.0,30537.0,0.000305,0.000305,-0.000183,0.08750000000000001,-1.2950000000000002,-3.6575,1.09709375,0.2183125,0.1625625,1.34615625,1.07565625,-0.27415625,-0.49828125,1.3098750000000001,0.02028778034251963,0.02697510667202418,True
63924,129033,0,129034,3827.0,42298.0,30541.0,0.000183,-0.001037,6.1e-05,0.07,-1.3650000000000002,-3.5175000000000005,1.1016875,0.2134375,0.1698125,1.3746875,1.0699375,-0.27471875,-0.50215625,1.30475,0.020109656265327482,0.02742488224888371,True
63925,129034,0,129035,3823.0,42301.0,30536.0,-0.000976,-0.0008539999999999999,-6.1e-05,0.1925,-1.3125000000000002,-3.5875000000000004,1.107625,0.21875,0.160625,1.353875,1.06025,-0.27703125,-0.49809375,1.31121875,0.020421823611567004,0.02688857168733792,True
63926,129035,0,129036,3821.0,42299.0,30533.0,-0.0013419999999999999,0.000488,0.001647,0.24500000000000002,-1.1900000000000002,-3.5525,1.1028437500000001,0.2201875,0.1678125,1.36625,1.0668125,-0.27484375,-0.50003125,1.305125,0.02039276771863877,0.027258893802431378,True
63927,129036,0,129037,3819.0,42299.0,30534.0,-0.00061,0.000915,0.0006709999999999999,0.2625,-1.155,-3.6575,1.096875,0.21703125,0.161125,1.35425,1.07575,-0.27378125000000003,-0.49915625,1.30990625,0.020219861707783993,0.026951183267791112,True
63928,129037,0,129038,3817.0,42298.0,30529.0,-0.000122,0.001037,-0.000183,0.29750000000000004,-1.1025,-3.6050000000000004,1.11625,0.216875,0.17740625000000002,1.37365625,1.068,-0.2743125,-0.50175,1.3055,0.020234867619834753,0.027718683359351882,True
63929,129038,0,129039,3813.0,42295.0,30528.0,0.00061,-0.000183,-0.000305,0.35000000000000003,-1.12,-3.5875000000000004,1.09515625,0.2164375,0.163875,1.354125,1.074,-0.27334375,-0.49503125000000003,1.3125625,0.020177741272254673,0.026899588054209975,True
63930,129039,0,129040,3813.0,42294.0,30527.0,0.000183,-0.000366,0.00183,0.31500000000000006,-1.0675000000000001,-3.6050000000000004,1.09653125,0.2160625,0.16728125,1.3588437500000001,1.06984375,-0.2740625,-0.5016875000000001,1.3093125,0.020191305019503843,0.027302966377315854,True
63931,129040,0,129041,3810.0,42295.0,30525.0,-0.000366,-0.000488,0.000793,0.2625,-0.8225000000000001,-3.5700000000000003,1.102375,0.21728125,0.1731875,1.36171875,1.06721875,-0.27409375,-0.5003125,1.30334375,0.020242774253930697,0.027489445287687656,True
63932,129041,0,129042,3810.0,42294.0,30524.0,-0.001586,0.000122,0.000976,0.2625,-0.9100000000000001,-3.535,1.10878125,0.2253125,0.16684375,1.35928125,1.0744375,-0.273625,-0.49865625,1.30834375,0.020554717311485206,0.02716475520978829,True
63933,129042,0,129043,3806.0,42293.0,30524.0,-0.003355,0.000976,0.00061,0.35000000000000003,-0.8925000000000001,-3.6050000000000004,1.1068437500000001,0.21553125,0.1683125,1.3648437500000001,1.0673125,-0.27771875,-0.49940625,1.3057812500000001,0.020316983036142967,0.027254487034762322,True
63934,129043,0,129044,3806.0,42293.0,30524.0,-0.003294,0.000305,0.001098,0.31500000000000006,-0.9275000000000001,-3.5525,1.10359375,0.2175625,0.1658125,1.3606562500000001,1.068125,-0.27425,-0.4990625,1.3119375,0.020260667167883665,0.027138793576284806,True
63935,129044,0,129045,3804.0,42292.0,30523.0,-0.002989,0.0006709999999999999,0.00061,0.3325,-1.05,-3.535,1.10246875,0.21728125,0.16790625,1.36565625,1.06659375,-0.2750625,-0.4981875,1.305,0.020281873630603423,0.027189511468960717,True
63936,129045,0,129046,3802.0,42294.0,30525.0,-0.000793,0.000488,-0.001098,0.4025,-1.6975000000000002,-3.6925000000000003,1.0981875,0.215875,0.16784375,1.366,1.074625,-0.2745625,-0.49903125000000004,1.305125,0.020203762683673496,0.027220464074472334,True
63937,129046,0,129047,3801.0,42293.0,30525.0,-0.000488,-0.000549,-0.001037,0.4025,-1.8550000000000002,-3.7800000000000002,1.1035625,0.21990625,0.16793750000000002,1.36,1.0697812500000001,-0.27440625,-0.502,1.304375,0.02036352588438698,0.02734215574238838,True
63938,129047,0,129048,3801.0,42289.0,30522.0,0.001769,-0.001952,-0.002928,0.35000000000000003,-1.9600000000000002,-3.7800000000000002,1.11025,0.21815625,0.1701875,1.3610625,1.07084375,-0.276375,-0.4983125,1.31153125,0.020370885274263558,0.027287593788347664,True
63939,129048,0,129049,3800.0,42289.0,30520.0,0.00183,-0.001647,-0.001403,0.22750000000000004,-1.995,-3.8675,1.10384375,0.21821875000000002,0.16953125,1.3678125,1.05746875,-0.27768750000000003,-0.49709375,1.3041875,0.02042642034996126,0.027212411676385082,True
63940,129049,0,129050,3800.0,42291.0,30521.0,0.001952,0.0015249999999999999,0.000549,0.45500000000000007,-2.1350000000000002,-3.8850000000000002,1.1031875,0.2184375,0.16578125,1.3506562500000001,1.07503125,-0.27428125000000003,-0.49884375000000003,1.30171875,0.020297974837051046,0.027128831335152297,True
63941,129050,0,129051,3797.0,42290.0,30519.0,0.0030499999999999998,0.0017079999999999999,0.000122,0.42000000000000004,-2.2750000000000004,-3.9375000000000004,1.11015625,0.21790625,0.16615625,1.360875,1.0669375,-0.27484375,-0.49834375000000003,1.31109375,0.02029879183053444,0.027124282636453743,True
63942,129051,0,129052,3797.0,42288.0,30518.0,0.002379,0.00122,-0.000549,0.42000000000000004,-2.2575000000000003,-3.99,1.111875,0.2178125,0.16540625,1.3601875,1.06784375,-0.27678125,-0.4995,1.30559375,0.020373118862287393,0.027139584481315947,True
63943,129052,0,129053,3795.0,42288.0,30518.0,0.002989,-0.00042699999999999997,-0.000305,0.45500000000000007,-2.1,-3.9375000000000004,1.1084687500000001,0.2179375,0.16768750000000002,1.3605625000000001,1.0674062500000001,-0.276125,-0.49946875,1.3093125,0.020351785962545506,0.02723145782497835,True
63944,129053,0,129054,3795.0,42289.0,30520.0,0.0011589999999999999,-0.001281,-0.0006709999999999999,0.43750000000000006,-1.9425000000000001,-3.99,1.1105625000000001,0.21775,0.1670625,1.36,1.06746875,-0.27575,-0.49790625,1.31,0.020328929075311784,0.02714390132830229,True
63945,129054,0,129055,3795.0,42286.0,30518.0,-0.000549,-0.0018909999999999999,0.00061,0.42000000000000004,-1.6275000000000002,-3.99,1.102875,0.2163125,0.16821875,1.36575,1.0674062500000001,-0.27471875,-0.49625,1.30475,0.02022809224102751,0.02712532530489361,True
63946,129055,0,129056,3794.0,42289.0,30517.0,-0.001037,-6.1e-05,0.00042699999999999997,0.4025,-1.6275000000000002,-3.9725000000000006,1.10403125,0.218375,0.16490625,1.36496875,1.0735625,-0.27540625,-0.4980625,1.3105625,0.020340802741457727,0.027062089093780377,True
63947,129056,0,129057,3795.0,42287.0,30517.0,-0.0013419999999999999,0.000122,0.00061,0.49000000000000005,-1.7325000000000002,-3.7625,1.1000625,0.2179375,0.16621875,1.36259375,1.0690625,-0.27265625,-0.49884375000000003,1.3063437500000001,0.020211786668383275,0.02714668932079703,True
63948,129057,0,129058,3794.0,42289.0,30516.0,0.0008539999999999999,0.0,0.000366,0.36750000000000005,-1.8375000000000001,-3.7275000000000005,1.104,0.2181875,0.165125,1.36021875,1.0698750000000001,-0.274375,-0.49859375,1.31303125,0.020291459615335104,0.027092116256672894,True
63949,129058,0,129059,3793.0,42287.0,30517.0,0.0008539999999999999,-6.1e-05,0.000366,0.28,-1.9250000000000003,-3.5525,1.10328125,0.21834375,0.167875,1.36096875,1.0576875000000001,-0.27459375,-0.499125,1.3117812500000001,0.020306725009558605,0.02722546213385172,True
63950,129059,0,129060,3795.0,42288.0,30516.0,0.00366,0.001403,-0.0011589999999999999,0.36750000000000005,-2.1875,-3.5525,1.10321875,0.216,0.16825,1.3634375,1.066875,-0.27696875,-0.49803125000000004,1.30590625,0.020306025644161195,0.027197338561644625,True
63951,129060,0,129061,3793.0,42285.0,30518.0,0.0042699999999999995,0.0008539999999999999,-0.001647,0.43750000000000006,-2.0825,-3.4475000000000002,1.1061875,0.21871875000000002,0.16609375,1.3625,1.0761875,-0.27453125,-0.49793750000000003,1.3179687500000001,0.020319650868644477,0.027105598175356602,True
63952,129061,0,129062,3793.0,42287.0,30512.0,0.003843,-0.00042699999999999997,-0.0015249999999999999,0.31500000000000006,-1.8375000000000001,-3.3950000000000005,1.10353125,0.21834375,0.16965625,1.36071875,1.0657812500000001,-0.27575,-0.50140625,1.30271875,0.020353387639928736,0.02738873406500903,True
63953,129062,0,129063,3792.0,42286.0,30514.0,0.0021349999999999997,-0.000244,-0.000305,0.1925,-1.6975000000000002,-3.3075,1.108875,0.22003125,0.16721875,1.36115625,1.0690625,-0.2775,-0.497125,1.31575,0.0204935125115848,0.02711925378998556,True
63954,129063,0,129064,3791.0,42286.0,30515.0,0.000732,-0.000183,0.000122,0.1925,-1.3125000000000002,-3.325,1.09625,0.2176875,0.17621875,1.36425,1.06415625,-0.2765625,-0.49675,1.31103125,0.020359142691639312,0.02747175645748926,True
63955,129064,0,129065,3791.0,42286.0,30515.0,-0.0071979999999999995,-0.000366,0.0026839999999999998,0.35000000000000003,-0.47250000000000003,-3.2900000000000005,1.1036875,0.21840625,0.16653125,1.3570312500000001,1.0586875,-0.27571875,-0.49753125000000004,1.30759375,0.02035470113526505,0.027107323314466636,True
63956,129065,0,129066,3791.0,42286.0,30515.0,-0.008173999999999999,-0.00042699999999999997,0.0026839999999999998,0.3325,-0.21000000000000002,-3.1850000000000005,1.12803125,0.2200625,0.15828125,1.35721875,1.06325,-0.28065625,-0.497,1.30659375,0.020622125894970405,0.02674944891211169,True
63957,129066,0,129067,3791.0,42285.0,30513.0,-0.007991,0.0006709999999999999,0.0021349999999999997,0.31500000000000006,-0.24500000000000002,-3.2550000000000003,1.09609375,0.21134375,0.17409375,1.35259375,1.06646875,-0.27396875,-0.5035937500000001,1.3046875,0.019993125351617666,0.02765665750559548,True
63958,129067,0,129068,3791.0,42287.0,30515.0,-0.006405,0.000183,0.002562,0.31500000000000006,-0.5075000000000001,-3.3775000000000004,1.1151875,0.22071875,0.15934375,1.34971875,1.06496875,-0.27665625,-0.49262500000000004,1.3159687500000001,0.02048778855201692,0.026618982244655278,True
63959,129068,0,129069,3790.0,42285.0,30513.0,-0.0030499999999999998,0.000122,0.001586,0.31500000000000006,-0.8575,-3.43,1.1245625000000001,0.2211875,0.1555625,1.3505625,1.06534375,-0.280375,-0.4965,1.314375,0.02065711505691325,0.026618598575306674,True
63960,129069,0,129070,3791.0,42285.0,30512.0,0.0026839999999999998,-0.000549,-0.0011589999999999999,0.31500000000000006,-1.6450000000000002,-3.5700000000000003,1.12721875,0.22190625,0.15709375,1.34109375,1.06496875,-0.27853125,-0.4965625,1.31390625,0.020612346556178104,0.02668359080993507,True
63961,129070,0,129071,3789.0,42284.0,30514.0,0.003904,-0.00122,-0.00183,0.22750000000000004,-1.8375000000000001,-3.7275000000000005,1.1085625000000001,0.21231250000000002,0.17703125,1.38146875,1.064,-0.2753125,-0.4985,1.30165625,0.020087280029865734,0.02757439230973325,True
63962,129071,0,129072,3789.0,42284.0,30514.0,0.0055509999999999995,-0.000549,-0.00183,0.21000000000000002,-1.995,-3.7800000000000002,1.113375,0.2211875,0.159,1.34978125,1.071375,-0.274875,-0.49690625,1.31146875,0.020435223662325756,0.026775064708426194,True
63963,129072,0,129073,3790.0,42282.0,30514.0,0.004941,-0.001098,-0.0028669999999999998,0.24500000000000002,-1.995,-3.7625,1.1143750000000001,0.22253125,0.1693125,1.37765625,1.0653125,-0.277,-0.4986875,1.3045,0.02057631709025003,0.027266766842101237,True
63964,129073,0,129074,3790.0,42286.0,30514.0,0.003843,-0.000549,-0.001281,0.17500000000000002,-2.0300000000000002,-3.6050000000000004,1.11296875,0.22140625,0.16443750000000001,1.376875,1.07353125,-0.27709375,-0.49825,1.304625,0.02053375931787552,0.027050401559295056,True
63965,129074,0,129075,3789.0,42288.0,30516.0,0.002745,0.0021349999999999997,-0.00042699999999999997,0.4025,-1.5575,-3.7100000000000004,1.0908125,0.21684375,0.16821875,1.3568125,1.0745625,-0.27203125,-0.49803125000000004,1.3124375,0.02014149516225594,0.027196062948935947,True
63966,129075,0,129076,3788.0,42283.0,30514.0,0.001098,0.001037,-0.0006709999999999999,0.36750000000000005,-1.3825,-3.5700000000000003,1.09515625,0.218375,0.171,1.3575625,1.06721875,-0.26915625,-0.50003125,1.30603125,0.020088512553871746,0.027388995677301436,True
63967,129076,0,129077,3790.0,42286.0,30515.0,-0.000732,0.00042699999999999997,0.000244,0.42000000000000004,-1.0850000000000002,-3.5700000000000003,1.10746875,0.21821875000000002,0.16628125,1.36746875,1.06621875,-0.2784375,-0.49840625,1.3125625,0.020456680954035862,0.027131866996450024,True
63968,129077,0,129078,3790.0,42287.0,30516.0,-0.004026,0.000549,0.000976,0.36750000000000005,-0.8925000000000001,-3.6225000000000005,1.10315625,0.2155,0.16871875,1.36021875,1.0669375,-0.2749375,-0.4978125,1.30503125,0.02020345057531044,0.02720778640950085,True
63969,129078,0,129079,3790.0,42287.0,30518.0,-0.0034159999999999998,-0.000244,0.001647,0.28,-0.7525000000000001,-3.6400000000000006,1.11040625,0.218125,0.16718750000000002,1.36696875,1.07440625,-0.27559375,-0.49775,1.3119375,0.02033807103070342,0.027142798828463842,True
63970,129079,0,129080,3789.0,42292.0,30519.0,-0.0040869999999999995,-0.000549,0.00042699999999999997,0.36750000000000005,-0.8925000000000001,-3.5175000000000005,1.10315625,0.22240625,0.16603125,1.3566875,1.06984375,-0.27484375,-0.5003125,1.30628125,0.02048416892487722,0.027197357176566628,True
63971,129080,0,129081,3791.0,42289.0,30520.0,-0.003294,-0.000244,0.0015249999999999999,0.31500000000000006,-1.1725,-3.5175000000000005,1.10534375,0.21953125,0.16771875,1.367875,1.066875,-0.278375,-0.49384375,1.30775,0.020508219763472637,0.027009337805545527,True
63972,129081,0,129082,3792.0,42291.0,30521.0,-0.000183,6.1e-05,-0.000122,0.29750000000000004,-1.5050000000000001,-3.4825000000000004,1.1031875,0.2185,0.16646875,1.35871875,1.0730625,-0.2745,-0.50209375,1.30809375,0.020309378154029948,0.027285933472522117,True
63973,129082,0,129083,3791.0,42291.0,30520.0,0.002806,0.0011589999999999999,0.000793,0.35000000000000003,-1.7325000000000002,-3.5700000000000003,1.10615625,0.21765625,0.1675625,1.367125,1.059125,-0.27546875,-0.49775,1.3059687500000001,0.02031371690814415,0.02715810635670623,True
63974,129083,0,129084,3793.0,42293.0,30522.0,0.003538,0.000488,0.000183,0.35000000000000003,-1.7850000000000001,-3.6225000000000005,1.107,0.22028125,0.16493750000000001,1.36759375,1.07490625,-0.27453125,-0.498875,1.31209375,0.020384018743925283,0.027095631942283063,True
63975,129084,0,129085,3792.0,42293.0,30522.0,0.0013419999999999999,6.1e-05,-0.000305,0.385,-1.5750000000000002,-3.7450000000000006,1.1036875,0.21746875000000002,0.16625,1.36121875,1.0675937500000001,-0.2745625,-0.4975,1.29478125,0.020269417831938273,0.027094601489947957,True
63976,129085,0,129086,3790.0,42291.0,30521.0,-0.000122,-0.00061,0.000488,0.43750000000000006,-1.3825,-3.8150000000000004,1.10259375,0.217125,0.16603125,1.3611875,1.0675937500000001,-0.27515625,-0.5003125,1.31140625,0.020279220653832045,0.027197357176566628,True
63977,129086,0,129087,3793.0,42291.0,30523.0,-0.001281,-0.001586,-0.000793,0.3325,-1.225,-3.7800000000000002,1.10359375,0.21821875000000002,0.164,1.36815625,1.0675000000000001,-0.27471875,-0.49993750000000003,1.31384375,0.020306620442306876,0.027099558927446244,True
63978,129087,0,129088,3791.0,42293.0,30524.0,-0.00183,-0.00042699999999999997,0.0,0.35000000000000003,-1.1725,-3.9550000000000005,1.10271875,0.2180625,0.1643125,1.362,1.07075,-0.27471875,-0.498875,1.31240625,0.02030018370449709,0.027070120566760718,True
63979,129088,0,129089,3793.0,42292.0,30525.0,-0.003294,-0.000305,0.0013419999999999999,0.4025,-1.12,-3.9550000000000005,1.10315625,0.21803125,0.16559375,1.3603750000000001,1.06134375,-0.275125,-0.50009375,1.312125,0.020315291888301296,0.027170814397393887,True
63980,129089,0,129090,3794.0,42293.0,30526.0,-0.00183,-0.00042699999999999997,0.001281,0.43750000000000006,-1.33,-3.9725000000000006,1.1029375000000001,0.21478125,0.16746875,1.3648125,1.0674375,-0.27940625,-0.500375,1.305375,0.020354183908430627,0.027258511349316086,True
63981,129090,0,129091,3795.0,42291.0,30527.0,-0.000244,6.1e-05,0.000915,0.42000000000000004,-1.6275000000000002,-4.025,1.108375,0.218125,0.169625,1.36565625,1.0714375,-0.2745,-0.49634375000000003,1.3098125,0.02029392984407506,0.027186455121491343,True
63982,129091,0,129092,3795.0,42291.0,30528.0,0.001647,0.001098,-0.000915,0.35000000000000003,-1.8900000000000001,-4.077500000000001,1.1034375,0.21528125,0.16621875,1.360875,1.067375,-0.27484375,-0.500625,1.30496875,0.02019065519216782,0.027217417923012167,True
63983,129092,0,129093,3795.0,42293.0,30530.0,0.002074,0.001647,-0.001098,0.31500000000000006,-1.995,-4.1825,1.11121875,0.2201875,0.16915625,1.3656875,1.06709375,-0.276625,-0.49821875,1.30915625,0.020464644488268034,0.02724177650671031,True
63984,129093,0,129094,3796.0,42296.0,30528.0,0.0032329999999999998,6.1e-05,-0.001403,0.29750000000000004,-1.9775000000000003,-4.077500000000001,1.10359375,0.21725,0.16803125,1.36078125,1.0674375,-0.27446875,-0.4996875,1.3051875,0.02025662250589933,0.0272541741603847,True
63985,129094,0,129095,3794.0,42293.0,30529.0,0.003843,-0.000366,-0.0044529999999999995,0.35000000000000003,-2.2750000000000004,-4.165,1.1081875,0.22278125000000001,0.16793750000000002,1.3669375000000001,1.07296875,-0.27528125000000003,-0.493875,1.31046875,0.020517270011032318,0.027019509979535703,True
63986,129095,0,129096,3797.0,42295.0,30530.0,0.0030499999999999998,-0.000793,-0.002745,0.35000000000000003,-2.0650000000000004,-4.2,1.103,0.217125,0.16415625,1.359875,1.06684375,-0.27540625,-0.50265625,1.30503125,0.02028931029733025,0.027213886249577532,True
63987,129096,0,129097,3796.0,42296.0,30531.0,0.0030499999999999998,-0.00183,0.000488,0.28,-1.6625,-4.165,1.1087500000000001,0.2209375,0.164375,1.3613125,1.0680625,-0.27365625,-0.4995,1.3045625,0.020375741705578453,0.027097491785546643,True
63988,129097,0,129098,3796.0,42296.0,30531.0,0.001281,6.1e-05,0.002806,0.28,-1.2775,-4.0425,1.1074375,0.21878125,0.16753125,1.364625,1.05921875,-0.2795625,-0.4983125,1.31834375,0.020525235988086685,0.02717916795289471,True
63989,129098,0,129099,3798.0,42295.0,30531.0,-0.002013,0.000915,0.004148,0.28,-0.9275000000000001,-3.9025000000000003,1.1038125,0.21556250000000002,0.17175,1.3629375000000001,1.0605,-0.28190625,-0.49453125000000003,1.31853125,0.02048721977913081,0.027201224763180556,True
63990,129099,0,129100,3798.0,42295.0,30533.0,-0.007442,0.0011589999999999999,0.003538,0.35000000000000003,-0.35000000000000003,-3.9200000000000004,1.1025625000000001,0.22296875,0.167,1.3640625,1.06040625,-0.277,-0.497125,1.3155937500000001,0.020594338262553035,0.0271103241706935,True
63991,129100,0,129101,3797.0,42295.0,30537.0,-0.007137,-0.000122,0.0021349999999999997,0.24500000000000002,-0.4025,-3.9200000000000004,1.10334375,0.21556250000000002,0.168125,1.3548125,1.0609375,-0.28128125,-0.49509375,1.320875,0.020462007127403956,0.027075575083275606,True
63992,129101,0,129102,3797.0,42298.0,30536.0,-0.005429,-0.000732,-0.0006709999999999999,0.28,-0.8925000000000001,-3.9550000000000005,1.1039375,0.21825,0.16834375000000001,1.361625,1.05,-0.28328125,-0.49115625,1.30575,0.02065335589686834,0.026928087562219524,True
63993,129102,0,129103,3800.0,42299.0,30538.0,-0.0026839999999999998,-0.000915,-0.000915,0.3325,-1.7500000000000002,-3.99,1.1036875,0.21778125,0.16525,1.3605625000000001,1.07665625,-0.27325,-0.50696875,1.304875,0.020229316222590714,0.02742969793030809,True
63994,129103,0,129104,3800.0,42299.0,30540.0,0.003538,0.001037,-0.002074,0.36750000000000005,-2.3625000000000003,-3.99,1.1030312500000001,0.22040625,0.16768750000000002,1.36690625,1.0604375,-0.28250000000000003,-0.49593750000000003,1.320125,0.02071064552661382,0.02709122686159695,True
63995,129104,0,129105,3800.0,42300.0,30540.0,0.009516,0.000915,-0.0037819999999999998,0.36750000000000005,-2.975,-4.165,1.0964375,0.21575,0.167625,1.366,1.06128125,-0.27790625,-0.4963125,1.304625,0.020333559447697432,0.027103569159643928,True
63996,129105,0,129106,3800.0,42301.0,30540.0,0.0075639999999999995,0.000549,-0.004392,0.29750000000000004,-2.7475,-4.0075,1.10590625,0.21815625,0.16634375,1.361375,1.06534375,-0.2731875,-0.495,1.29925,0.02024224259792827,0.026999132476015514,True
63997,129106,0,129107,3801.0,42301.0,30542.0,0.0051849999999999995,-0.0015249999999999999,-0.002745,0.29750000000000004,-2.2225,-3.7975000000000003,1.10971875,0.22053125,0.16515625,1.3606562500000001,1.0770625,-0.2726875,-0.50109375,1.3033125,0.020319906891233204,0.027192663592824302,True
63998,129107,0,129108,3800.0,42302.0,30539.0,0.0006709999999999999,-0.001098,-0.0008539999999999999,0.28,-1.7500000000000002,-3.7800000000000002,1.105,0.216625,0.16734375,1.3666562500000001,1.0608125,-0.27668750000000003,-0.49584375,1.308,0.020320420568086153,0.027073470371887072,True
63999,129108,0,129109,3800.0,42302.0,30538.0,-0.003355,0.0011589999999999999,0.000732,0.35000000000000003,-1.435,-3.7975000000000003,1.10309375,0.21690625,0.17184375000000002,1.366125,1.0548125,-0.27625,-0.49815625,1.310375,0.020314350445394157,0.027348996927064665,True
64000,129109,0,129110,3800.0,42302.0,30540.0,-0.00671,0.0015249999999999999,0.001952,0.43750000000000006,-1.2775,-3.7625,1.10390625,0.21671875000000002,0.1675,1.3661875,1.06721875,-0.27809375000000003,-0.49893750000000003,1.313625,0.02038102764966875,0.027202710321621092,True
64001,129110,0,129111,3801.0,42300.0,30539.0,-0.00549,0.000305,0.000549,0.43750000000000006,-1.4000000000000001,-3.8675,1.0924375,0.22090625,0.16725,1.366125,1.067,-0.2780625,-0.49784375000000003,1.3051875,0.020552247527989516,0.02714907306893081,True
64002,129111,0,129112,3801.0,42299.0,30538.0,-0.00488,-0.000488,-6.1e-05,0.49000000000000005,-1.6975000000000002,-3.8850000000000002,1.0915625,0.21828125,0.166875,1.35546875,1.073,-0.27496875,-0.5016875000000001,1.3051875,0.02031928465407396,0.02728638588668638,True
64003,129112,0,129113,3798.0,42302.0,30540.0,0.000122,-0.0015249999999999999,-0.000244,0.385,-2.0825,-3.8850000000000002,1.1084375,0.2185625,0.16984375000000002,1.3508125,1.064875,-0.27734375,-0.49834375000000003,1.3035,0.02042670957361223,0.027274803016020217,True
64004,129113,0,129114,3796.0,42300.0,30533.0,0.0040869999999999995,-0.0011589999999999999,-0.0021349999999999997,0.22750000000000004,-2.345,-3.8675,1.10221875,0.21609375,0.16746875,1.3656875,1.0679687500000001,-0.27918750000000003,-0.4975,1.29540625,0.020399416166624194,0.027144351464435147,True
64005,129114,0,129115,3795.0,42298.0,30533.0,0.0059169999999999995,-0.000122,-0.000305,0.29750000000000004,-2.45,-3.8150000000000004,1.103375,0.2175625,0.16709375,1.36021875,1.0725625,-0.27465625,-0.5011875,1.3051875,0.02027706365563879,0.02727546368925996,True
64006,129115,0,129116,3793.0,42295.0,30530.0,0.006344,0.0006709999999999999,-0.000183,0.2625,-2.4325,-3.7625,1.1103750000000001,0.21915625,0.17225000000000001,1.3605,1.068,-0.27434375,-0.49590625,1.31071875,0.020330106761382583,0.027276241310729216,True
64007,129116,0,129117,3791.0,42296.0,30525.0,0.0077469999999999995,-0.000549,0.001464,0.35000000000000003,-2.2750000000000004,-3.7975000000000003,1.106125,0.218125,0.166625,1.359625,1.0674375,-0.27518750000000003,-0.49884375000000003,1.313625,0.020321676197145748,0.027163271736038566,True
64008,129117,0,129118,3789.0,42294.0,30523.0,0.007625,0.000549,0.0013419999999999999,0.22750000000000004,-1.8375000000000001,-3.7450000000000006,1.10253125,0.21534375,0.168625,1.35859375,1.06175,-0.2755,-0.5006875000000001,1.30515625,0.02021971741055797,0.027318110971375806,True
64009,129118,0,129119,3788.0,42292.0,30519.0,0.000122,-0.000305,0.002989,0.22750000000000004,-0.7525000000000001,-3.5000000000000004,1.11221875,0.2195,0.16543750000000002,1.35946875,1.07228125,-0.2739375,-0.49793750000000003,1.31321875,0.020327872229217035,0.02707881020596122,True
64010,129119,0,129120,3786.0,42290.0,30519.0,-0.004575,-0.000122,0.003294,0.28,-0.31500000000000006,-3.1850000000000005,1.100625,0.21296875,0.1710625,1.3575,1.0673125,-0.27571875,-0.49553125000000003,1.3051875,0.02013071188674898,0.0272128717355334,True
64011,129120,0,129121,3783.0,42288.0,30517.0,-0.007442,-0.000183,0.00183,0.24500000000000002,-0.10500000000000001,-3.0100000000000002,1.11459375,0.225875,0.1635,1.35790625,1.0694062500000001,-0.2765625,-0.499,1.31103125,0.02069640213683465,0.027041920078370547,True
64012,129121,0,129122,3782.0,42290.0,30518.0,-0.008357,0.00183,-0.00061,0.3325,-0.3325,-2.9400000000000004,1.1124687500000001,0.21940625,0.1660625,1.35828125,1.06725,-0.27265625,-0.49434375,1.310875,0.02027229714506421,0.02696158169169158,True
64013,129122,0,129123,3780.0,42286.0,30516.0,-0.005307,0.001281,-0.001037,0.35000000000000003,-0.77,-2.87,1.1005625,0.21525,0.16684375,1.365625,1.06696875,-0.27475,-0.49834375000000003,1.3110625,0.02018558378562086,0.02715234575806783,True
64014,129123,0,129124,3778.0,42289.0,30512.0,0.0034159999999999998,-0.000183,-0.002257,0.22750000000000004,-1.4875,-2.66,1.10184375,0.21628125,0.16846875,1.3714375,1.0674062500000001,-0.27575,-0.49825,1.306875,0.02026842631020669,0.027214954129376592,True
64015,129124,0,129125,3779.0,42287.0,30511.0,0.0044529999999999995,0.00061,-0.0017079999999999999,0.17500000000000002,-1.61,-2.7125000000000004,1.09215625,0.215375,0.16990625,1.366125,1.0697812500000001,-0.2749375,-0.50021875,1.30575,0.02019830123146558,0.027351796603856858,True
64016,129125,0,129126,3776.0,42284.0,30509.0,0.004209,0.000366,-0.000732,0.21000000000000002,-1.4525000000000001,-2.555,1.1113125,0.22112500000000002,0.1636875,1.35859375,1.07121875,-0.27540625,-0.49796875,1.3088125,0.020454086118538183,0.027008616785830462,True
64017,129126,0,129127,3774.0,42284.0,30508.0,0.00183,0.000244,0.001464,0.2625,-0.8225000000000001,-2.5725000000000002,1.10290625,0.2163125,0.16828125,1.36728125,1.068,-0.27684375,-0.4968125,1.3049375,0.020313853607926275,0.027150215971975946,True
64018,129127,0,129128,3773.0,42283.0,30511.0,-0.0044529999999999995,0.0008539999999999999,0.001769,0.29750000000000004,-0.08750000000000001,-2.6250000000000004,1.10153125,0.21371875,0.1695,1.36271875,1.0710625,-0.27434375,-0.499875,1.3053125,0.020106104825181936,0.02732156796718351,True
64019,129128,0,129129,3772.0,42284.0,30507.0,-0.017568,0.000244,0.0035989999999999998,0.525,0.49000000000000005,-2.6250000000000004,1.10815625,0.2186875,0.16809375000000001,1.367875,1.07028125,-0.276,-0.499,1.307125,0.02037763634865711,0.027229427731744155,True
64020,129129,0,129130,3771.0,42286.0,30508.0,-0.019154,0.000488,0.0028669999999999998,0.525,0.10500000000000001,-2.555,1.10353125,0.2175,0.16853125,1.35990625,1.0691875,-0.27565625,-0.50040625,1.3058125,0.020314847307165998,0.02730311869828689,True
64021,129130,0,129131,3770.0,42286.0,30511.0,-0.011041,-0.002257,0.00366,0.6125,-0.665,-2.7125000000000004,1.11103125,0.218375,0.16734375,1.3608437500000001,1.06309375,-0.27478125000000003,-0.49375,1.31275,0.02031557956881692,0.026990303648890025,True
64022,129131,0,129132,3768.0,42285.0,30511.0,-0.000305,-0.004026,-0.002623,0.4025,-1.9075000000000002,-3.1500000000000004,1.10925,0.21725,0.1675,1.365125,1.06346875,-0.28075,-0.49893750000000003,1.3174375,0.020510074853536238,0.027202710321621092,True
64023,129132,0,129133,3768.0,42284.0,30509.0,0.011346,-0.0023179999999999997,-0.003538,0.3325,-3.3600000000000003,-3.5000000000000004,1.10290625,0.21496875000000001,0.174125,1.36028125,1.06225,-0.2794375,-0.4941875,1.2918125,0.02036316739216055,0.027284534341055405,True
64024,129133,0,129134,3768.0,42283.0,30505.0,0.021167,0.001037,-0.0046359999999999995,0.2625,-4.025,-3.6750000000000003,1.1116875,0.21815625,0.167,1.3519375,1.09459375,-0.27171875,-0.505625,1.29228125,0.0201829546990775,0.027447779846463825,True
64025,129134,0,129135,3767.0,42286.0,30505.0,0.016287,0.001586,-0.000915,0.42000000000000004,-3.2550000000000003,-3.6225000000000005,1.10971875,0.218,0.16775,1.3643750000000001,1.08996875,-0.27134375,-0.4953125,1.3239375,0.020161378580450452,0.027068954519359572,True
64026,129135,0,129136,3768.0,42282.0,30507.0,0.008539999999999999,0.00122,0.000976,0.36750000000000005,-1.995,-3.535,1.10371875,0.218,0.16675,1.36053125,1.0601875,-0.26690625,-0.5088125,1.29771875,0.019982203129004134,0.027564064966427892,True
64027,129136,0,129137,3766.0,42285.0,30506.0,-0.001464,0.000183,0.001586,0.4025,-0.9975,-3.4825000000000004,1.10371875,0.2163125,0.1681875,1.3658125,1.06259375,-0.28250000000000003,-0.493875,1.3228125,0.020542057036960774,0.027029716612826677,True
64028,129137,0,129138,3768.0,42284.0,30507.0,-0.008113,0.001037,0.00183,0.35000000000000003,-0.22750000000000004,-3.3775000000000004,1.090875,0.21825,0.16668750000000002,1.36053125,1.0626875,-0.27646875,-0.5033125,1.29475,0.020378530135277604,0.02734324185760599,True
64029,129138,0,129139,3766.0,42288.0,30508.0,-0.011529,0.004148,0.004941,0.5775,0.24500000000000002,-3.5875000000000004,1.11059375,0.218125,0.17,1.36034375,1.0851875,-0.2708125,-0.50803125,1.31028125,0.020145081669598,0.02766567592001092,True
64030,129139,0,129140,3767.0,42286.0,30510.0,-0.011101999999999999,-0.0028669999999999998,0.002379,0.49000000000000005,0.21000000000000002,-3.8500000000000005,1.1040625,0.22165625,0.167625,1.367125,1.05759375,-0.28521875,-0.4935,1.3129375,0.020871749405180877,0.02699185498193398,True
64031,129140,0,129141,3767.0,42287.0,30510.0,-0.012627,-0.007808,-0.0046359999999999995,-0.0175,-0.42000000000000004,-4.095000000000001,1.10365625,0.21834375,0.16540625,1.36121875,1.0768125,-0.27253125,-0.5045000000000001,1.2926250000000001,0.0202234779283681,0.02733809096288437,True
64032,129141,0,129142,3766.0,42289.0,30512.0,-0.007808,-0.004575,-0.003721,0.10500000000000001,-1.5050000000000001,-3.99,1.1105,0.22262500000000002,0.16765625,1.3608125,1.06028125,-0.27971875,-0.49928125,1.2974375,0.02068985045388963,0.027222737401735,True
64033,129142,0,129143,3767.0,42290.0,30512.0,0.0032329999999999998,0.001647,-0.000915,0.5950000000000001,-2.555,-3.8675,1.110875,0.21934375,0.1675625,1.3651875,1.076,-0.27865625,-0.49359375,1.30428125,0.020511843607489602,0.02699302751357179,True
64034,129143,0,129144,3767.0,42287.0,30513.0,0.01281,0.004209,-0.003965,0.525,-3.7100000000000004,-4.7075000000000005,1.103,0.21753125,0.16559375,1.3608125,1.06240625,-0.27328125000000003,-0.49665625,1.31384375,0.020220278212283314,0.027034301875383502,True
64035,129144,0,129145,3767.0,42290.0,30514.0,0.011041,0.000976,-0.005978,0.31500000000000006,-3.4475000000000002,-4.8475,1.10378125,0.21937500000000001,0.168125,1.36125,1.0676875000000001,-0.27475,-0.499,1.3113125,0.020355513445040628,0.027230703294012,True
64036,129145,0,129146,3765.0,42286.0,30511.0,0.00732,-0.0018909999999999999,-0.002379,0.28,-2.3975000000000004,-4.742500000000001,1.0963125,0.2168125,0.16596875,1.3606875,1.06828125,-0.2748125,-0.5023125,1.312375,0.02025247362878704,0.027274211362703013,True
64037,129146,0,129147,3766.0,42286.0,30512.0,6.1e-05,-0.003355,-0.0011589999999999999,0.43750000000000006,-1.5050000000000001,-4.655,1.10353125,0.215625,0.168,1.3609375000000001,1.06753125,-0.27559375,-0.50190625,1.3065625,0.02023508693788386,0.02734098494887515,True
64038,129147,0,129148,3765.0,42289.0,30510.0,-0.0057339999999999995,-0.0015249999999999999,-0.00061,0.35000000000000003,-1.2775,-4.62,1.10353125,0.2179375,0.16846875,1.36153125,1.0660625,-0.27475,-0.49928125,1.3063437500000001,0.020296295533424647,0.027255901639971585,True
64039,129148,0,129149,3766.0,42287.0,30512.0,0.0,0.0021349999999999997,0.00244,0.47250000000000003,-1.9775000000000003,-4.48,1.10340625,0.2164375,0.16503125,1.3603125,1.06834375,-0.27515625,-0.5033125,1.31128125,0.020250899517897027,0.027275648955625897,True
64040,129149,0,129150,3766.0,42286.0,30508.0,0.004514,0.00042699999999999997,0.0021349999999999997,0.35000000000000003,-2.2575000000000003,-4.6725,1.10315625,0.2193125,0.1665,1.35809375,1.06878125,-0.27478125000000003,-0.499375,1.311125,0.020354199896240054,0.027179264777162683,True
64041,129150,0,129151,3766.0,42287.0,30512.0,0.006405,0.0008539999999999999,0.002806,0.385,-2.45,-4.6725,1.1040625,0.21875,0.16475,1.35540625,1.07021875,-0.27418750000000003,-0.49562500000000004,1.31009375,0.020307064860564335,0.0269588957211747,True
64042,129151,0,129152,3767.0,42286.0,30510.0,0.0064659999999999995,-0.0015249999999999999,0.002623,0.385,-2.2925000000000004,-4.48,1.104,0.21909375,0.16443750000000001,1.36128125,1.0720625,-0.27425,-0.4995,1.31171875,0.020323748416531923,0.027100042858017512,True
64043,129152,0,129153,3766.0,42286.0,30512.0,0.003477,-0.000244,0.001647,0.56,-1.8725000000000003,-4.41,1.1039375,0.21556250000000002,0.16153125000000002,1.3546562500000001,1.0690625,-0.27415625,-0.49890625,1.31115625,0.020174491131900823,0.026957836127888362,True
64044,129153,0,129154,3767.0,42285.0,30509.0,-0.004941,0.001647,-0.000305,0.385,-1.05,-4.235,1.1101875,0.21271875,0.16925,1.3545,1.0679375,-0.2749375,-0.50125,1.313625,0.020088877674762293,0.027365950716800164,True
64045,129154,0,129155,3766.0,42285.0,30511.0,-0.007686,0.000793,-0.000549,0.47250000000000003,-1.1375000000000002,-4.2175,1.117375,0.21521875000000001,0.17078125,1.3626562500000001,1.0675000000000001,-0.2749375,-0.50025,1.3046875,0.020191864551659507,0.027388751135192495,True
64046,129155,0,129156,3767.0,42285.0,30511.0,-0.005612,0.000122,0.000244,0.28,-1.4700000000000002,-4.1475,1.11696875,0.22062500000000002,0.16290625,1.364125,1.06715625,-0.27696875,-0.498,1.30540625,0.020496535425165052,0.026977967589190955,True
64047,129156,0,129157,3768.0,42286.0,30512.0,-0.003355,-0.00061,6.1e-05,0.28,-1.9075000000000002,-4.1825,1.0983125,0.21046875,0.170125,1.35540625,1.06128125,-0.2743125,-0.49990625,1.311625,0.01997095695295181,0.027348318934893884,True
64048,129157,0,129158,3769.0,42286.0,30512.0,-0.000122,-0.000976,-0.000488,0.29750000000000004,-2.205,-4.375,1.11928125,0.222,0.16593750000000002,1.37434375,1.06825,-0.27659375,-0.49875,1.3056875000000001,0.02053804397497075,0.027131486300321448,True
64049,129158,0,129159,3769.0,42285.0,30514.0,0.00244,0.000122,-0.003721,0.42000000000000004,-2.345,-4.2700000000000005,1.09709375,0.2165,0.165375,1.35509375,1.06871875,-0.27403125,-0.4988125,1.3116875000000001,0.02020806700576362,0.02711100793150688,True
64050,129159,0,129160,3768.0,42285.0,30512.0,0.0023179999999999997,-0.000488,-0.002806,0.43750000000000006,-2.2925000000000004,-4.130000000000001,1.1078125,0.2145,0.16925,1.36128125,1.068,-0.27459375,-0.50025,1.30525,0.020148380444059952,0.02732625177294109,True
64051,129160,0,129161,3769.0,42284.0,30511.0,0.0040869999999999995,-0.000549,-0.002013,0.36750000000000005,-2.31,-3.9725000000000006,1.098125,0.2179375,0.16234375,1.35509375,1.0757812500000001,-0.27428125000000003,-0.499,1.31290625,0.020277376904825967,0.026994724274460185,True
64052,129161,0,129162,3769.0,42283.0,30509.0,0.004575,-0.000305,-0.001098,0.36750000000000005,-2.3275,-3.9025000000000003,1.11996875,0.21509375,0.16909375000000001,1.373,1.0638750000000001,-0.27584375,-0.4983125,1.3057812500000001,0.02022329295969373,0.02724294785610233,True
64053,129162,0,129163,3770.0,42282.0,30508.0,0.007869,-0.001769,0.0013419999999999999,0.28,-2.1175,-3.9025000000000003,1.0989375000000001,0.21903125,0.16740625,1.36034375,1.07615625,-0.27640625,-0.498875,1.31134375,0.0204081895358791,0.02719640187559633,True
64054,129163,0,129164,3771.0,42283.0,30508.0,0.005429,-0.0008539999999999999,0.002806,0.14,-1.5225000000000002,-3.5700000000000003,1.09725,0.21490625,0.1658125,1.3613125,1.07078125,-0.27490625,-0.49893750000000003,1.3129375,0.020177729831603364,0.02713382978343449,True
64055,129164,0,129165,3773.0,42282.0,30507.0,0.001464,0.0013419999999999999,0.004148,0.15750000000000003,-0.9800000000000001,-3.3950000000000005,1.102125,0.21675,0.1683125,1.3610625,1.0701875,-0.2745,-0.5005000000000001,1.3051875,0.020237286040907125,0.02729791228750434,True
64056,129165,0,129166,3772.0,42279.0,30509.0,-0.0026839999999999998,0.000976,0.003111,0.17500000000000002,-0.35000000000000003,-3.1500000000000004,1.1115,0.2183125,0.16828125,1.3664687500000001,1.0674062500000001,-0.27646875,-0.4981875,1.3056875000000001,0.020381104644801355,0.027204818723834158,True
64057,129166,0,129167,3773.0,42283.0,30511.0,-0.006527,0.0017079999999999999,0.002989,0.21000000000000002,-0.052500000000000005,-2.9925,1.10384375,0.2154375,0.16865625,1.36,1.0735625,-0.27484375,-0.50209375,1.30928125,0.020197091896832498,0.027375211557175597,True
64058,129167,0,129168,3773.0,42281.0,30512.0,-0.009028,0.001281,0.002745,0.2625,0.052500000000000005,-2.9225000000000003,1.1049375000000001,0.21975,0.16743750000000002,1.366125,1.0679375,-0.276375,-0.4978125,1.3045625,0.02043653552064507,0.02715548582143814,True
64059,129168,0,129169,3774.0,42284.0,30515.0,-0.008357,0.00042699999999999997,-0.000915,0.15750000000000003,-0.47250000000000003,-2.9925,1.10415625,0.21878125,0.16425,1.3608437500000001,1.07525,-0.27346875,-0.49890625,1.31296875,0.0202793430584576,0.027068810469855157,True
64060,129169,0,129170,3776.0,42285.0,30516.0,-0.005429,0.0,-0.002196,0.07,-0.7525000000000001,-2.975,1.11025,0.2184375,0.1650625,1.35996875,1.0673125,-0.2769375,-0.49903125000000004,1.3105,0.020405168485522526,0.027106939177441964,True
64061,129170,0,129171,3775.0,42285.0,30517.0,-0.004148,-0.001403,-0.0013419999999999999,0.15750000000000003,-1.05,-2.9925,1.11146875,0.21912500000000001,0.16396875,1.36025,1.0680625,-0.2755,-0.49843750000000003,1.31275,0.020375481452493256,0.027038714203711973,True
64062,129171,0,129172,3777.0,42285.0,30516.0,-0.00183,-0.001403,-0.001769,0.10500000000000001,-1.2075,-3.1850000000000005,1.10678125,0.21946875000000002,0.168125,1.36375,1.0679375,-0.27165625,-0.49459375,1.3125625,0.020234507070361136,0.02705571510039843,True
64063,129172,0,129173,3776.0,42288.0,30519.0,0.000976,0.000122,-0.0017079999999999999,0.1925,-1.2600000000000002,-3.2375000000000003,1.10440625,0.216625,0.16775,1.36775,1.0658750000000001,-0.27490625,-0.5014375,1.30525,0.02024853340061818,0.02731217301025705,True
64064,129173,0,129174,3778.0,42290.0,30522.0,0.0015249999999999999,0.000793,0.000244,0.35000000000000003,-1.4525000000000001,-3.5875000000000004,1.09621875,0.22253125,0.16559375,1.36059375,1.07675,-0.274625,-0.50046875,1.31103125,0.020480491459703293,0.027185704355146268,True
64065,129174,0,129175,3779.0,42291.0,30523.0,0.0011589999999999999,0.000366,-0.000183,0.29750000000000004,-1.3825,-3.6225000000000005,1.1104375,0.2198125,0.16734375,1.36565625,1.06746875,-0.2773125,-0.49893750000000003,1.305,0.020476937058004258,0.02719633249401122,True
64066,129175,0,129176,3778.0,42291.0,30522.0,0.0,-0.001464,0.0,0.21000000000000002,-1.3125000000000002,-3.6400000000000006,1.10384375,0.2220625,0.16525,1.36040625,1.072875,-0.27446875,-0.4995625,1.3100625000000001,0.02045487607221064,0.02713568864750136,True
64067,129176,0,129177,3779.0,42294.0,30524.0,-0.001037,-0.001952,-0.000183,0.17500000000000002,-1.2775,-3.6925000000000003,1.103375,0.21546875000000001,0.16593750000000002,1.360875,1.0673125,-0.2735625,-0.50209375,1.31128125,0.020146661620023845,0.02726425165196342,True
64068,129177,0,129178,3781.0,42293.0,30527.0,-0.000122,0.000122,-0.000366,0.24500000000000002,-1.4700000000000002,-3.7450000000000006,1.10415625,0.21531250000000002,0.168,1.3665,1.06784375,-0.2690625,-0.499375,1.30528125,0.019958537747389295,0.027240490828847677,True
64069,129178,0,129179,3780.0,42293.0,30527.0,0.003172,0.0015249999999999999,-0.000488,0.36750000000000005,-2.0825,-3.8675,1.106375,0.21790625,0.1653125,1.36034375,1.0638750000000001,-0.2734375,-0.49571875,1.31253125,0.020242034116511102,0.02698558293987597,True
64070,129179,0,129180,3783.0,42295.0,30530.0,0.004941,0.001952,-0.002379,0.35000000000000003,-2.2925000000000004,-3.8850000000000002,1.1028125,0.2165,0.16821875,1.36721875,1.0674062500000001,-0.2745,-0.49978125,1.30653125,0.020226987167603863,0.027265549564855808,True
64071,129180,0,129181,3783.0,42293.0,30529.0,0.004209,0.000305,-0.00122,0.3325,-2.2925000000000004,-3.9200000000000004,1.104375,0.2186875,0.16793750000000002,1.3608437500000001,1.0736875000000001,-0.27446875,-0.49984375000000003,1.3102500000000001,0.020315841103628683,0.02725655138106748,True
64072,129181,0,129182,3783.0,42296.0,30528.0,0.003477,0.000549,-0.0013419999999999999,0.4025,-2.31,-3.8675,1.1035625,0.21865625,0.16796875,1.36390625,1.06790625,-0.2774375,-0.49943750000000003,1.30484375,0.020434353913999365,0.027241696875693576,True
64073,129182,0,129183,3784.0,42295.0,30528.0,0.002928,0.001037,-0.001586,0.42000000000000004,-2.24,-3.9025000000000003,1.104625,0.21903125,0.167125,1.361125,1.0740625,-0.27371875,-0.498375,1.3011875,0.02029973260689609,0.027165067070775102,True
64074,129183,0,129184,3783.0,42295.0,30529.0,0.003477,0.001464,-0.003172,0.49000000000000005,-2.1,-3.8325000000000005,1.1039375,0.2188125,0.16775,1.36059375,1.068875,-0.27465625,-0.50209375,1.2961875,0.020328557690698506,0.027338224922104873,True
64075,129184,0,129185,3785.0,42298.0,30530.0,0.0017079999999999999,0.000183,-0.0037819999999999998,0.3325,-1.8725000000000003,-3.7100000000000004,1.107,0.21778125,0.16821875,1.35690625,1.06790625,-0.2790625,-0.49893750000000003,1.3049375,0.020463877054560903,0.027232048328626496,True
64076,129185,0,129186,3786.0,42297.0,30532.0,0.002379,-0.0018909999999999999,-0.000915,0.24500000000000002,-1.61,-3.6400000000000006,1.10734375,0.2193125,0.1668125,1.36821875,1.08146875,-0.2731875,-0.498375,1.31553125,0.020289877462529388,0.027152311122676506,True
64077,129186,0,129187,3788.0,42296.0,30530.0,0.000305,-0.003355,0.00122,0.24500000000000002,-1.1900000000000002,-3.5875000000000004,1.10453125,0.2195625,0.1655625,1.36728125,1.0770625,-0.27368750000000003,-0.49784375000000003,1.31140625,0.020320357176881344,0.02708018945544952,True
64078,129187,0,129188,3785.0,42297.0,30530.0,-0.003477,-6.1e-05,0.0051849999999999995,0.28,-0.525,-3.3775000000000004,1.1045625000000001,0.215,0.16809375000000001,1.358625,1.0694375,-0.27284375,-0.5020625,1.302625,0.02009833520227724,0.027351013817714324,True
64079,129188,0,129189,3787.0,42297.0,30531.0,-0.004209,0.001586,0.005246,0.385,-0.45500000000000007,-3.2725000000000004,1.12,0.2234375,0.1620625,1.357375,1.07121875,-0.27840625,-0.49878125,1.3154375,0.02067037452262749,0.026974556132256577,True
64080,129189,0,129190,3788.0,42296.0,30530.0,-0.004941,0.002379,0.004392,0.28,-0.385,-3.325,1.129875,0.22237500000000002,0.16934375000000002,1.37953125,1.06565625,-0.27928125,-0.4935625,1.2984375000000001,0.020661906949984363,0.027064509297085714,True
64081,129190,0,129191,3786.0,42295.0,30527.0,-0.005856,0.000183,0.00244,0.22750000000000004,-0.385,-3.3950000000000005,1.112625,0.22284375,0.1684375,1.38115625,1.0725,-0.28003125,-0.49753125000000004,1.30375,0.020711464281990985,0.027185137277863456,True
64082,129191,0,129192,3786.0,42297.0,30528.0,-0.004941,-0.00042699999999999997,0.001769,0.14,-0.665,-3.4475000000000002,1.0894375,0.217875,0.163125,1.34425,1.07784375,-0.27371875,-0.49790625,1.3141875,0.020252098784822578,0.026983173306902503,True
64083,129192,0,129193,3783.0,42299.0,30526.0,-0.00244,0.0008539999999999999,-0.001586,0.3325,-1.4525000000000001,-3.5700000000000003,1.0903125,0.21628125,0.1770625,1.35734375,1.056,-0.27309375,-0.5024375,1.30325,0.020161212453604107,0.027731934833014064,True
64084,129193,0,129194,3782.0,42298.0,30523.0,-0.001281,0.001647,-0.001952,0.43750000000000006,-1.6800000000000002,-3.7275000000000005,1.12753125,0.226125,0.1691875,1.38140625,1.06525,-0.2764375,-0.49703125000000004,1.3008125,0.020701657728816266,0.02719589746206492,True
64085,129194,0,129195,3781.0,42295.0,30523.0,-0.00061,0.00122,-0.0015249999999999999,0.49000000000000005,-1.8725000000000003,-3.7275000000000005,1.0958125,0.22171875,0.16446875,1.38171875,1.07840625,-0.27618750000000003,-0.492875,1.304,0.020510067736130313,0.026838162118575298,True
64086,129195,0,129196,3779.0,42294.0,30523.0,0.000732,6.1e-05,-0.0023179999999999997,0.385,-1.9600000000000002,-3.8325000000000005,1.1001875,0.22196875,0.1636875,1.3810625,1.076625,-0.2753125,-0.497625,1.30065625,0.020485060696952925,0.02699496379751098,True
64087,129196,0,129197,3777.0,42292.0,30523.0,0.00244,-0.00122,-0.0030499999999999998,0.42000000000000004,-1.9250000000000003,-4.0600000000000005,1.0970625,0.229,0.1560625,1.35640625,1.07403125,-0.2775625,-0.49840625,1.31225,0.020865459619350175,0.02671474802570065,True
64088,129197,0,129198,3777.0,42292.0,30521.0,0.0032329999999999998,-0.0011589999999999999,-0.0011589999999999999,0.45500000000000007,-1.9250000000000003,-4.375,1.09459375,0.21309375,0.17353125,1.3586875,1.0697812500000001,-0.27518750000000003,-0.50103125,1.305625,0.02011441724188536,0.027532004392672248,True
64089,129198,0,129199,3774.0,42291.0,30520.0,0.0035989999999999998,-0.001586,0.000366,0.36750000000000005,-1.6800000000000002,-4.305000000000001,1.1183750000000001,0.21859375,0.1709375,1.3680625,1.068375,-0.27696875,-0.49803125000000004,1.30590625,0.02041286558891336,0.02730704125459061,True
64090,129199,0,129200,3774.0,42292.0,30517.0,0.0030499999999999998,-0.001586,0.000732,0.4025,-1.6625,-4.322500000000001,1.108125,0.22071875,0.16765625,1.365875,1.07096875,-0.275875,-0.4985,1.31246875,0.020456265737074358,0.02719171581933588,True
64091,129200,0,129201,3772.0,42290.0,30517.0,0.003172,0.000366,0.001403,0.43750000000000006,-1.5750000000000002,-4.357500000000001,1.103,0.2180625,0.16709375,1.36278125,1.06971875,-0.27309375,-0.49909375,1.3101875,0.020234596177094236,0.027192332369437137,True
64092,129201,0,129202,3773.0,42290.0,30518.0,0.002196,6.1e-05,0.0028669999999999998,0.49000000000000005,-1.5575,-4.357500000000001,1.1041875,0.21609375,0.167,1.36121875,1.06771875,-0.275375,-0.501125,1.29928125,0.020245567782166084,0.027269156008142486,True
64093,129202,0,129203,3770.0,42288.0,30516.0,0.0015249999999999999,-6.1e-05,0.001769,0.43750000000000006,-1.5925000000000002,-4.0600000000000005,1.10396875,0.21875,0.1681875,1.36715625,1.06828125,-0.27359375,-0.49984375000000003,1.31371875,0.020283100849045065,0.027266755527777603,True
64094,129203,0,129204,3769.0,42288.0,30516.0,0.0018909999999999999,0.000305,0.000122,0.35000000000000003,-1.6975000000000002,-4.1475,1.1036875,0.2186875,0.1655625,1.36696875,1.0729375,-0.27425,-0.4996875,1.312125,0.020307012575053813,0.027153407568974094,True
64095,129204,0,129205,3767.0,42288.0,30513.0,0.001037,-0.000244,0.00042699999999999997,0.36750000000000005,-1.7500000000000002,-3.9725000000000006,1.10378125,0.21821875000000002,0.16675,1.3668437500000001,1.07396875,-0.27490625,-0.4980625,1.313375,0.02031418761915919,0.027137350147588203,True
64096,129205,0,129206,3770.0,42288.0,30514.0,0.000976,-0.000305,-0.001403,0.36750000000000005,-1.715,-3.8325000000000005,1.10390625,0.21765625,0.17009375000000002,1.36128125,1.06815625,-0.27453125,-0.50315625,1.31221875,0.020275880713453532,0.027476052192255844,True
64097,129206,0,129207,3768.0,42286.0,30513.0,0.000366,6.1e-05,-0.001464,0.29750000000000004,-1.6275000000000002,-3.6575,1.1043125,0.21528125,0.17115625,1.3524375,1.0674062500000001,-0.27575,-0.5008125,1.30496875,0.020227232938220242,0.027426386369839777,True
64098,129207,0,129208,3766.0,42288.0,30513.0,-0.0032329999999999998,-6.1e-05,-0.002257,0.07,-1.2775,-3.5175000000000005,1.106,0.21725,0.17159375000000002,1.3608437500000001,1.055,-0.2753125,-0.4993125,1.3055,0.020290675969670834,0.027384697019559225,True
64099,129208,0,129209,3768.0,42290.0,30511.0,-0.0037819999999999998,0.001098,-0.001098,0.22750000000000004,-1.2775,-3.325,1.10925,0.21878125,0.16871875,1.3586562500000001,1.0717812500000001,-0.27821875,-0.49840625,1.3056875000000001,0.02047102405319583,0.027231363264702168,True
64100,129209,0,129210,3767.0,42288.0,30511.0,-0.002745,0.001281,-6.1e-05,0.2625,-1.5050000000000001,-3.2550000000000003,1.111375,0.2190625,0.16765625,1.36896875,1.073625,-0.27515625,-0.49943750000000003,1.307375,0.020359034764194362,0.027228941480799306,True
64101,129210,0,129211,3768.0,42289.0,30512.0,-0.000915,0.002196,-0.0006709999999999999,0.2625,-1.61,-3.3425000000000002,1.10128125,0.2184375,0.16521875,1.3606562500000001,1.0765625,-0.27078125000000003,-0.5009375,1.31225,0.020156695615226646,0.02718901062459345,True
64102,129211,0,129212,3767.0,42289.0,30512.0,0.000366,0.0021349999999999997,0.000183,0.385,-1.8025000000000002,-3.5175000000000005,1.10115625,0.21934375,0.16768750000000002,1.36590625,1.0546875,-0.2790625,-0.49859375,1.30546875,0.020528232916736385,0.027196714097110167,True
64103,129212,0,129213,3767.0,42290.0,30512.0,0.001769,-0.0006709999999999999,0.000793,0.36750000000000005,-1.5225000000000002,-3.5875000000000004,1.11040625,0.21909375,0.16384375,1.36396875,1.07196875,-0.27465625,-0.499625,1.31140625,0.020340143848586942,0.027080771644463947,True
64104,129213,0,129214,3768.0,42290.0,30512.0,-0.001037,-0.0008539999999999999,0.000732,0.3325,-1.2075,-3.6050000000000004,1.098,0.215125,0.16778125,1.36115625,1.0675000000000001,-0.27518750000000003,-0.50209375,1.305,0.020198093217611606,0.027339500323314208,True
64105,129214,0,129215,3768.0,42287.0,30514.0,-0.004026,-0.000976,0.00183,0.29750000000000004,-0.8225000000000001,-3.5525,1.110875,0.21746875000000002,0.16796875,1.36096875,1.068,-0.27275,-0.499625,1.305375,0.020196259179532605,0.027249141568493392,True
64106,129215,0,129216,3766.0,42287.0,30513.0,-0.005978,-0.000244,0.00183,0.4025,-0.7000000000000001,-3.5525,1.1111875,0.21840625,0.1673125,1.36825,1.07146875,-0.27653125,-0.4995,1.30496875,0.020387488430827612,0.027217392191677382,True
64107,129216,0,129217,3769.0,42285.0,30513.0,-0.0042699999999999995,-0.00042699999999999997,0.00183,0.5075000000000001,-0.7350000000000001,-3.5700000000000003,1.11021875,0.21865625,0.165,1.36725,1.0730625,-0.27140625,-0.4996875,1.3103125,0.020190939698848314,0.027130448092450157,True
64108,129217,0,129218,3767.0,42288.0,30513.0,-0.001037,-0.0013419999999999999,0.0006709999999999999,0.385,-1.5750000000000002,-3.9025000000000003,1.09809375,0.21915625,0.164875,1.36915625,1.062,-0.27521875,-0.49946875,1.31171875,0.020365418952197907,0.027116659417359818,True
64109,129218,0,129219,3768.0,42288.0,30516.0,0.001952,0.000244,-0.001647,0.29750000000000004,-1.9075000000000002,-3.99,1.10353125,0.2184375,0.16540625,1.365875,1.0685625,-0.27446875,-0.499375,1.31490625,0.020305542217067058,0.027134620781142375,True
64110,129219,0,129220,3767.0,42288.0,30512.0,0.0042699999999999995,0.001098,-0.00183,0.29750000000000004,-2.45,-4.0600000000000005,1.1033125,0.21771875000000002,0.17025,1.36121875,1.06865625,-0.2749375,-0.50175,1.29959375,0.020294851428556717,0.027426612384829654,True
64111,129220,0,129221,3768.0,42287.0,30513.0,0.004758,0.000732,-0.001586,0.45500000000000007,-2.5375,-3.9725000000000006,1.1047500000000001,0.215375,0.1685625,1.36109375,1.06775,-0.2755625,-0.50571875,1.3045625,0.020223527261211766,0.027515261106144863,True
64112,129221,0,129222,3767.0,42286.0,30516.0,0.005124,0.000305,-0.0017079999999999999,0.43750000000000006,-2.555,-3.9200000000000004,1.11140625,0.22075,0.16765625,1.36853125,1.08553125,-0.2670625,-0.49640625,1.3243125,0.020101835564152026,0.02710856822110386,True
