frame_seq,absolute_seq_u64,segment_id,sample_seq,PPG_G,PPG_R,PPG_IR,ACC_X,ACC_Y,ACC_Z,GYRO_X,GYRO_Y,GYRO_Z,Uh1,Uh2,Uh3,Uh4,Uc1,Uc2,Uc3,Uc4,UD1,UD2,parser_valid
40432,370,0,371,4113.0,42212.0,31361.0,0.003111,0.003172,-0.000366,0.6125,-2.9400000000000004,-3.9200000000000004,1.0168125000000001,0.19621875,0.12984375,1.2625625,0.97984375,-0.2501875,-0.31628125,1.25,0.018408362821936943,0.01834676097933355,True
40433,371,0,372,4113.0,42211.0,31363.0,0.0035989999999999998,0.002257,-0.001098,0.7175,-3.43,-3.9725000000000006,1.01621875,0.196875,0.1269375,1.26809375,0.9869375,-0.250625,-0.3081875,1.2368125,0.01845313265122033,0.017900347362385615,True
40434,372,0,373,4114.0,42210.0,31360.0,0.007442,6.1e-05,-0.0025009999999999998,0.5775,-2.8525000000000005,-4.077500000000001,1.024125,0.2015,0.1246875,1.2672812500000001,0.99503125,-0.25478125,-0.30834375,1.2633750000000001,0.018812012579993893,0.017814099325463094,True
40435,373,0,374,4112.0,42210.0,31363.0,0.007808,-0.002745,0.008296,0.29750000000000004,-1.225,-3.99,1.01865625,0.20278125,0.12678125,1.262625,1.0039375,-0.2589375,-0.3123125,1.24096875,0.019032933738338705,0.01806055059550588,True
40436,374,0,375,4113.0,42212.0,31361.0,-0.01769,-0.0017079999999999999,-0.0057339999999999995,0.5775,-0.1925,-3.43,1.01740625,0.19759375,0.128,1.26796875,0.9813125,-0.25003125,-0.3078125,1.24659375,0.018458739099563016,0.01792890660152986,True
40437,375,0,376,4114.0,42217.0,31365.0,-0.020191,0.0053679999999999995,-0.0013419999999999999,0.7875000000000001,-0.8575,-3.4650000000000003,1.02259375,0.19646875,0.124125,1.26053125,0.9949375,-0.252875,-0.3129375,1.25415625,0.018527442622781838,0.017976540267912917,True
40438,376,0,377,4113.0,42219.0,31367.0,-0.008723,0.0066489999999999995,0.008601,0.5775,-2.3625000000000003,-3.7975000000000003,1.02178125,0.19643750000000001,0.1258125,1.2546875,0.998,-0.255,-0.3126875,1.248625,0.018612141826427543,0.018035850623259974,True
40439,377,0,378,4113.0,42215.0,31366.0,0.012078,0.0013419999999999999,0.0040869999999999995,0.08750000000000001,-3.9200000000000004,-4.1475,1.01715625,0.19696875,0.12721875,1.2639375,0.98578125,-0.25228125,-0.310375,1.2450625,0.018524030600214157,0.018000287942905036,True
40440,378,0,379,4113.0,42208.0,31362.0,0.027084,-0.005124,-0.006222,-0.4025,-5.040000000000001,-4.322500000000001,1.01659375,0.1944375,0.12725,1.26234375,0.99546875,-0.25528125,-0.31121875,1.2456875,0.018541065154624833,0.018035654835280523,True
40441,379,0,380,4113.0,42203.0,31360.0,0.019947,-0.001952,-0.0068319999999999995,-0.052500000000000005,-4.2175,-4.2175,1.01759375,0.19746875,0.12709375,1.26921875,0.9870625000000001,-0.25209375,-0.31021875,1.2510937500000001,0.01853705930029237,0.017988834427909044,True
40442,380,0,381,4113.0,42200.0,31360.0,0.0040869999999999995,-0.001037,-0.001281,0.21000000000000002,-2.6950000000000003,-3.9025000000000003,1.02421875,0.1945625,0.1271875,1.2603125,0.99265625,-0.2525,-0.30362500000000003,1.24403125,0.01843366663230595,0.017726265114771975,True
40443,381,0,382,4115.0,42204.0,31361.0,-0.008967,-0.001586,0.0006709999999999999,0.24500000000000002,-0.6125,-3.6750000000000003,1.0170000000000001,0.19809375,0.12690625,1.26615625,0.98703125,-0.252375,-0.30990625,1.248625,0.01857421180399858,0.017968497924585783,True
40444,382,0,383,4117.0,42208.0,31363.0,-0.017324,-0.002623,0.004514,0.24500000000000002,1.1025,-3.535,1.02146875,0.19475,0.1249375,1.2643125,0.99271875,-0.2531875,-0.312625,1.2483125,0.018469221829089475,0.017997336774618122,True
40445,383,0,384,4119.0,42213.0,31367.0,-0.022935999999999998,-0.002745,0.00732,0.45500000000000007,2.1,-3.43,1.01646875,0.19734375,0.12675,1.26225,0.987625,-0.2531875,-0.310875,1.23725,0.01857616653481115,0.018001203165250123,True
40446,384,0,385,4119.0,42219.0,31370.0,-0.020252,0.005978,0.004392,0.9800000000000001,1.12,-3.6750000000000003,1.0170000000000001,0.197375,0.12696875,1.26246875,0.9811875,-0.25209375,-0.3116875,1.245875,0.018533193654671567,0.01804301943252602,True
40447,385,0,386,4118.0,42221.0,31372.0,-0.009394,0.007076,0.002379,1.0150000000000001,-0.49000000000000005,-3.6925000000000003,1.017125,0.19753125,0.12709375,1.26534375,0.9873437500000001,-0.25275000000000003,-0.31143750000000003,1.24446875,0.018566193524445683,0.01803806336009543,True
40448,386,0,387,4122.0,42222.0,31373.0,0.005063,0.006039,-0.000549,0.7350000000000001,-2.3800000000000003,-3.9550000000000005,1.02365625,0.19384375,0.12475,1.27446875,0.986625,-0.25428125,-0.3128125,1.2539375,0.018476119551058642,0.01799719797946042,True
40449,387,0,388,4122.0,42218.0,31370.0,0.017568,0.000732,-0.0060999999999999995,0.31500000000000006,-3.9550000000000005,-4.1475,1.030125,0.1924375,0.12275,1.2670000000000001,0.99190625,-0.25521875,-0.311875,1.24884375,0.01845607968388246,0.01787706624848968,True
40450,388,0,389,4124.0,42211.0,31369.0,0.02379,-0.0023179999999999997,-0.005978,-0.12250000000000001,-4.952500000000001,-4.2175,1.01525,0.19693750000000002,0.130375,1.26725,0.9875,-0.2518125,-0.31059375,1.252375,0.018503771625316665,0.018138954339607605,True
40451,389,0,390,4123.0,42208.0,31366.0,0.017202,-0.006222,-0.0023179999999999997,-0.2625,-3.8325000000000005,-4.095000000000001,1.02609375,0.19484375,0.122625,1.27259375,0.99421875,-0.25521875,-0.31325000000000003,1.2493750000000001,0.018555285138378726,0.017927467533135226,True
40452,390,0,391,4124.0,42208.0,31365.0,0.0068319999999999995,-0.005795,-0.003294,-0.14,-2.4850000000000003,-3.8500000000000005,1.0209375,0.20184375000000002,0.1275625,1.260625,0.98946875,-0.25253125,-0.3110625,1.2456562500000001,0.018735157799250335,0.018042197867740254,True
40453,391,0,392,4124.0,42210.0,31368.0,-0.004697,-0.003965,-0.001098,0.24500000000000002,-0.8575,-3.7275000000000005,1.01390625,0.19868750000000002,0.12884375,1.260625,0.9865625,-0.2521875,-0.31059375,1.24259375,0.018591106472354298,0.018075967395901223,True
40454,392,0,393,4127.0,42212.0,31368.0,-0.014518,0.000732,0.003477,0.5425000000000001,0.42000000000000004,-3.5875000000000004,1.0136875,0.19875,0.124,1.271375,0.9891562500000001,-0.25271875,-0.3116875,1.2518125,0.018615181029961847,0.017920907382508927,True
40455,393,0,394,4128.0,42217.0,31371.0,-0.01891,0.002806,0.005978,0.665,1.155,-3.6225000000000005,1.02378125,0.19225,0.12328125000000001,1.2730000000000001,0.98278125,-0.25496875,-0.31215625,1.253125,0.01843823237249069,0.017910278937105794,True
40456,394,0,395,4129.0,42220.0,31374.0,-0.012322,0.0035989999999999998,0.003111,0.7175,0.525,-3.6050000000000004,1.0301875,0.19165625,0.12278125000000001,1.25875,0.989625,-0.248125,-0.31159375,1.2457500000000001,0.01813671160141248,0.017866989900651824,True
40457,395,0,396,4126.0,42223.0,31374.0,-0.004209,0.002562,0.001464,0.7175,-0.5950000000000001,-3.7275000000000005,1.01209375,0.1978125,0.1275,1.260375,0.98709375,-0.25253125,-0.31025,1.24584375,0.018568938036107055,0.018006807827973797,True
40458,396,0,397,4130.0,42222.0,31374.0,0.006222,0.004697,-0.00061,0.525,-1.7500000000000002,-3.8500000000000005,1.0147187500000001,0.19715625,0.1280625,1.26053125,0.98146875,-0.25240625,-0.307125,1.24596875,0.01853682044436312,0.017903701075301995,True
40459,397,0,398,4129.0,42221.0,31373.0,0.012078,0.0028669999999999998,-0.0021349999999999997,0.36750000000000005,-2.45,-4.025,1.0138125,0.197875,0.12903125000000001,1.26065625,0.9872500000000001,-0.25175000000000003,-0.31059375,1.2484375,0.01853989918253322,0.01808368008288568,True
40460,398,0,399,4130.0,42218.0,31373.0,0.013297999999999999,-0.000366,-0.00488,0.10500000000000001,-2.765,-3.9725000000000006,1.0225312500000001,0.19640625,0.12759375,1.26215625,0.99225,-0.2513125,-0.3115625,1.24615625,0.018461629654065115,0.01806367854801599,True
40461,399,0,400,4130.0,42214.0,31372.0,0.008357,-0.005307,-0.0018909999999999999,-0.22750000000000004,-1.6975000000000002,-3.8150000000000004,1.00753125,0.19384375,0.1263125,1.2512812500000001,0.98653125,-0.25421875,-0.31140625,1.24659375,0.018473590290348976,0.01800466601967955,True
40462,400,0,401,4131.0,42214.0,31372.0,0.000732,-0.0040869999999999995,0.0008539999999999999,-0.15750000000000003,-0.7875000000000001,-3.6750000000000003,1.0204375,0.19465625,0.1265,1.26275,0.9874375,-0.25346875,-0.31090625,1.24659375,0.018476738507764996,0.017992182006789648,True
40463,401,0,402,4133.0,42218.0,31372.0,-0.00671,-0.004758,0.001403,-0.12250000000000001,-0.07,-3.6050000000000004,1.0236875,0.19609375,0.12737500000000002,1.261625,0.99446875,-0.2558125,-0.31184375000000003,1.2438125,0.018630843637993985,0.018066040342991266,True
40464,402,0,403,4133.0,42222.0,31377.0,-0.012565999999999999,-0.001952,0.002562,0.22750000000000004,0.385,-3.5525,1.02296875,0.1950625,0.12753125,1.263125,0.988125,-0.25871875,-0.32075,1.2448125,0.018705903418745066,0.018432048764943514,True
40465,403,0,404,4135.0,42224.0,31378.0,-0.012688,0.001281,0.001647,0.43750000000000006,0.43750000000000006,-3.6575,1.0228125000000001,0.19484375,0.12678125,1.26234375,0.98440625,-0.2576875,-0.31159375,1.23684375,0.018655168593461353,0.018031520455132646,True
40466,404,0,405,4135.0,42225.0,31381.0,-0.006222,0.004758,0.0044529999999999995,0.5775,-0.7525000000000001,-3.9025000000000003,1.01325,0.192875,0.1275,1.2574687500000001,0.97296875,-0.25378125,-0.32175,1.2351875,0.018415942874886775,0.018471121527028275,True
40467,405,0,406,4136.0,42227.0,31382.0,0.0011589999999999999,0.0032329999999999998,0.000488,0.49000000000000005,-1.715,-4.025,1.022875,0.1953125,0.12675,1.2613750000000001,0.975125,-0.253625,-0.3154375,1.2295625000000001,0.018510119621293723,0.01818546345300182,True
40468,406,0,407,4138.0,42227.0,31382.0,0.008845,0.002562,-0.002989,0.35000000000000003,-2.5025000000000004,-4.025,1.0245312500000001,0.19740625,0.12665625,1.26571875,0.98940625,-0.2585,-0.30893750000000003,1.23540625,0.0187936702599089,0.017919078116844886,True
40469,407,0,408,4140.0,42226.0,31379.0,0.012322,0.000488,-0.004331,0.1925,-3.0450000000000004,-3.9725000000000006,1.024,0.1965625,0.12721875,1.269375,0.98409375,-0.25678125,-0.311,1.2339375000000001,0.018689361351271618,0.018025533709020606,True
40470,408,0,409,4138.0,42221.0,31381.0,0.012993,0.00061,-0.0028669999999999998,0.08750000000000001,-2.9225000000000003,-4.0600000000000005,1.0249375,0.197375,0.12662500000000002,1.2700625,0.998,-0.26534375,-0.30875,1.238875,0.01906911992540802,0.017910217514269557,True
40471,409,0,410,4140.0,42225.0,31383.0,0.002379,-0.0028669999999999998,-0.001586,-0.035,-1.5050000000000001,-3.5875000000000004,1.018375,0.19740625,0.12709375,1.26915625,1.0118125,-0.25409375,-0.3066875,1.24678125,0.018615414150446253,0.017846168878420807,True
40472,410,0,411,4141.0,42226.0,31381.0,-0.002562,-0.0032329999999999998,0.0006709999999999999,-0.0175,-0.665,-3.535,1.01975,0.19768750000000002,0.1304375,1.270875,1.01246875,-0.2564375,-0.30559375,1.2420625,0.01872183415227401,0.017939543237860626,True
40473,411,0,412,4144.0,42226.0,31385.0,-0.006954,-0.002379,0.001647,0.15750000000000003,-0.10500000000000001,-3.6400000000000006,1.017375,0.19703125,0.1246875,1.2681875,1.0136875,-0.25084375000000003,-0.30446875,1.26446875,0.018468429577836853,0.01765750382838547,True
40474,412,0,413,4144.0,42225.0,31385.0,-0.008052,0.000122,-0.000122,0.2625,0.36750000000000005,-3.5525,1.01734375,0.20275,0.128,1.268,0.99334375,-0.24875,-0.30434375,1.253875,0.01861951646992113,0.017788744038809937,True
40475,413,0,414,4144.0,42225.0,31386.0,-0.008662,0.000915,0.002928,0.4025,0.5075000000000001,-3.5875000000000004,1.0173125,0.197375,0.12775,1.262625,1.00646875,-0.25590625,-0.30571875,1.23840625,0.018687458853449353,0.01783402311441623,True
40476,414,0,415,4148.0,42227.0,31388.0,-0.00244,0.001037,-0.000549,0.35000000000000003,-0.21000000000000002,-3.8850000000000002,1.02575,0.200375,0.1268125,1.26821875,0.9828125,-0.25821875,-0.3073125,1.25103125,0.018904675348432168,0.017859851844995205,True
40477,415,0,416,4147.0,42232.0,31386.0,0.000183,0.0028669999999999998,-0.000305,0.36750000000000005,-0.6300000000000001,-3.8850000000000002,1.0185,0.197875,0.12659375,1.26628125,0.987,-0.253125,-0.313875,1.25234375,0.01859554181162221,0.018115942028985508,True
40478,416,0,417,4149.0,42233.0,31391.0,0.0025009999999999998,0.002196,0.001037,0.49000000000000005,-1.1025,-3.7975000000000003,1.0173125,0.19840625,0.12653125,1.26590625,0.98771875,-0.251875,-0.31346875,1.246875,0.018566863386851533,0.01809696528801552,True
40479,417,0,418,4151.0,42233.0,31390.0,0.003355,0.001647,0.00042699999999999997,0.2625,-1.4700000000000002,-3.8325000000000005,1.01103125,0.19734375,0.12596875,1.268375,0.987625,-0.25234375,-0.31390625,1.24578125,0.018542022356086717,0.018091498563707755,True
40480,418,0,419,4152.0,42233.0,31389.0,0.001098,0.00061,0.00042699999999999997,0.17500000000000002,-1.6275000000000002,-3.6750000000000003,1.01721875,0.1955,0.12571875,1.26390625,0.9879375,-0.25190625,-0.31384375000000003,1.24640625,0.018448292080132874,0.01807869230877985,True
40481,419,0,420,4152.0,42230.0,31392.0,0.003294,-0.002989,-0.002562,-0.12250000000000001,-1.5225000000000002,-3.6225000000000005,1.0174375,0.19734375,0.1280625,1.2633125,0.9874375,-0.2524375,-0.3105625,1.24675,0.018545816271044922,0.018042568945083028,True
40482,420,0,421,4154.0,42234.0,31390.0,0.0034159999999999998,-0.0017079999999999999,-6.1e-05,-0.10500000000000001,-1.1725,-3.7450000000000006,1.01721875,0.197875,0.12590625,1.26275,0.9936875000000001,-0.25475000000000003,-0.3110625,1.2456562500000001,0.018661293148764677,0.01797407044632459,True
40483,421,0,422,4156.0,42231.0,31391.0,0.001769,-0.002196,0.001281,-0.052500000000000005,-0.6825000000000001,-3.7275000000000005,1.01765625,0.19921875,0.12740625,1.26865625,0.9871875,-0.25109375,-0.31315625,1.25203125,0.01856875012080641,0.018120333512848627,True
40484,422,0,423,4157.0,42232.0,31392.0,0.0008539999999999999,-0.001403,-0.001647,0.14,-0.43750000000000006,-3.6925000000000003,1.0245312500000001,0.20115625,0.12684375,1.263625,0.99521875,-0.2524375,-0.31115625,1.24634375,0.018703016964789623,0.01801641993066455,True
40485,423,0,424,4158.0,42235.0,31394.0,-0.0021349999999999997,-6.1e-05,-0.000732,0.29750000000000004,0.0175,-3.8150000000000004,1.017875,0.19675,0.123,1.26390625,0.9914375,-0.25415625000000003,-0.31428125,1.24371875,0.018590885840442297,0.01798454354886596,True
40486,424,0,425,4159.0,42234.0,31395.0,-0.0055509999999999995,0.0028669999999999998,0.00366,0.4025,0.15750000000000003,-3.7975000000000003,1.017875,0.20171875,0.1206875,1.2745,0.9879687500000001,-0.25209375,-0.313,1.2465625,0.018712301901768792,0.01783767943075721,True
40487,425,0,426,4163.0,42236.0,31396.0,-0.005246,0.002257,0.0023179999999999997,0.24500000000000002,-0.10500000000000001,-3.9025000000000003,1.01665625,0.19728125,0.12975,1.2690937500000001,0.98684375,-0.25246875,-0.31328125,1.25290625,0.018544503845613656,0.01822177950579994,True
40488,426,0,427,4162.0,42237.0,31398.0,-0.002013,-0.000305,-0.000915,0.1925,-0.36750000000000005,-3.7100000000000004,1.0345312500000001,0.19803125,0.12921875,1.26765625,0.988125,-0.2520625,-0.31025,1.25334375,0.018558988539634516,0.018077508458366327,True
40489,427,0,428,4163.0,42237.0,31397.0,-0.000122,6.1e-05,0.00042699999999999997,0.10500000000000001,-0.9450000000000001,-3.6400000000000006,1.03221875,0.19959375000000001,0.1301875,1.27175,0.9881562500000001,-0.2519375,-0.31140625,1.25103125,0.018618357811618143,0.018164056223609032,True
40490,428,0,429,4164.0,42239.0,31399.0,0.002013,-0.00183,6.1e-05,-0.035,-1.225,-3.5875000000000004,1.01815625,0.2000625,0.1361875,1.27821875,0.9880625000000001,-0.2523125,-0.31240625,1.2478125,0.018652860423103983,0.01845122796103327,True
40491,429,0,430,4164.0,42236.0,31401.0,0.0026839999999999998,-0.001769,-0.000793,-0.10500000000000001,-1.33,-3.8150000000000004,1.0149375,0.20015625,0.124125,1.277625,0.9879375,-0.2544375,-0.3131875,1.2359375000000001,0.018742704298955602,0.01798663790998198,True
40492,430,0,431,4166.0,42237.0,31401.0,0.004941,-0.0013419999999999999,-0.000549,-0.035,-1.2425000000000002,-3.7275000000000005,1.00121875,0.20450000000000002,0.1235,1.27946875,0.98759375,-0.25203125,-0.312875,1.2457500000000001,0.018824454137217887,0.01794830928057665,True
40493,431,0,432,4168.0,42239.0,31402.0,0.005307,0.0,-0.002989,0.07,-1.05,-3.7625,1.02171875,0.19918750000000002,0.12459375,1.27875,0.98709375,-0.25171875,-0.3124375,1.24596875,0.018592754379522073,0.017975624616001582,True
40494,432,0,433,4170.0,42239.0,31403.0,0.002196,0.000305,-0.001403,0.1925,-0.665,-3.7800000000000002,1.01203125,0.19978125,0.120625,1.253625,0.9873437500000001,-0.25446875,-0.31440625,1.24634375,0.01872850750441607,0.01789191335897828,True
40495,433,0,434,4171.0,42238.0,31403.0,-0.004941,0.0013419999999999999,0.001281,0.4025,-0.21000000000000002,-3.7450000000000006,1.00671875,0.19534375,0.12328125000000001,1.256375,0.988625,-0.25378125,-0.31025,1.24715625,0.018517731126976335,0.017833269917010317,True
40496,434,0,435,4172.0,42240.0,31403.0,-0.005673,0.000976,0.0018909999999999999,0.36750000000000005,-0.2625,-3.6750000000000003,1.01675,0.18934375,0.129375,1.2575,0.9963125,-0.2529375,-0.31059375,1.2484375,0.01823619303847214,0.018097820009023845,True
40497,435,0,436,4175.0,42245.0,31405.0,-0.004026,-0.000183,0.001098,0.3325,-0.35000000000000003,-3.6400000000000006,1.02734375,0.19059375,0.12971875,1.26175,0.99309375,-0.25271875,-0.307875,1.2510000000000001,0.01827887852779392,0.0180021392244283,True
40498,436,0,437,4175.0,42244.0,31409.0,0.000549,0.0,-0.002379,0.31500000000000006,-0.6475000000000001,-3.5875000000000004,1.0274375,0.1988125,0.12771875,1.27015625,0.9931875,-0.2516875,-0.312375,1.25153125,0.018576026925961338,0.018101635483987064,True
40499,437,0,438,4176.0,42244.0,31405.0,0.002074,0.00042699999999999997,-0.000183,0.385,-0.665,-3.5175000000000005,1.0158125,0.19671875,0.1295625,1.26478125,0.985125,-0.25140625,-0.30975,1.2488125,0.018478309891823284,0.018071452812143275,True
40500,438,0,439,4177.0,42242.0,31407.0,0.001281,-0.001647,-0.0006709999999999999,0.24500000000000002,-0.49000000000000005,-3.4650000000000003,1.01775,0.19640625,0.12662500000000002,1.2593750000000001,0.9884375,-0.255,-0.31421875,1.24684375,0.018610853432282005,0.018131108983298096,True
40501,439,0,440,4179.0,42246.0,31408.0,-0.001098,-0.0018909999999999999,-0.000732,0.3325,-0.4025,-3.4825000000000004,1.0150625,0.198,0.12728125,1.2710000000000001,0.99375,-0.24859375,-0.3095625,1.25496875,0.018417305127230315,0.017970037510958912,True
40502,440,0,441,4182.0,42245.0,31406.0,-0.002745,-0.000366,0.0013419999999999999,0.42000000000000004,-0.29750000000000004,-3.5700000000000003,1.017125,0.19759375,0.1239375,1.2632812500000001,0.9880625000000001,-0.25334375,-0.31403125,1.24653125,0.018592797127200245,0.01801300432234988,True
40503,441,0,442,4181.0,42247.0,31407.0,-0.002257,0.00122,-0.000366,0.36750000000000005,-0.35000000000000003,-3.7100000000000004,1.02096875,0.19375,0.12703125,1.26634375,0.98846875,-0.2555,-0.31125,1.25065625,0.018521572426872256,0.018027919173222277,True
40504,442,0,443,4182.0,42245.0,31406.0,-0.001586,0.000183,-0.0006709999999999999,0.5425000000000001,-0.5775,-3.7800000000000002,1.0236875,0.19768750000000002,0.1263125,1.2630625,0.9946875000000001,-0.2518125,-0.31253125,1.23459375,0.018534697148924438,0.01805010533405484,True
40505,443,0,444,4184.0,42247.0,31408.0,-0.00244,0.001647,0.0017079999999999999,0.56,-1.0325000000000002,-3.7450000000000006,1.02046875,0.19596875,0.12715625,1.265625,0.9896875,-0.25528125,-0.31075,1.2471875000000001,0.018604195735722504,0.018012864679205706,True
40506,444,0,445,4183.0,42247.0,31405.0,-0.002013,0.000244,0.001647,0.42000000000000004,-1.4175000000000002,-3.7800000000000002,1.02428125,0.19784375,0.1258125,1.26571875,0.99628125,-0.2520625,-0.3134375,1.2494375,0.018551257238430752,0.01806614140842898,True
40507,445,0,446,4185.0,42249.0,31406.0,-0.000488,0.000183,-0.00061,0.2625,-1.8900000000000001,-3.7275000000000005,1.01796875,0.195375,0.12734375,1.26365625,0.98746875,-0.25253125,-0.31121875,1.242125,0.018468433063043674,0.018039511079632732,True
40508,446,0,447,4185.0,42247.0,31403.0,0.001952,0.00061,-0.0006709999999999999,0.28,-2.0825,-3.7450000000000006,1.0265,0.19790625,0.124875,1.2630625,0.9955625,-0.25125000000000003,-0.31215625,1.2460625,0.018520952528220197,0.017975832563185343,True
40509,447,0,448,4184.0,42245.0,31404.0,0.0037819999999999998,-0.0006709999999999999,-0.0015249999999999999,0.10500000000000001,-2.2575000000000003,-3.7625,1.01859375,0.19515625,0.12728125,1.2672812500000001,0.9881875,-0.254375,-0.3096875,1.25240625,0.01853402736619682,0.017975087092337163,True
40510,448,0,449,4185.0,42244.0,31403.0,0.004575,-0.000549,0.000488,0.035,-2.24,-3.7625,1.01775,0.19421875,0.12725,1.2623125,0.9885,-0.2535,-0.31153125,1.239,0.01845996454120024,0.018048276987900545,True
40511,449,0,450,4183.0,42244.0,31399.0,0.0042699999999999995,-0.001037,-0.000976,0.10500000000000001,-1.9425000000000001,-3.8150000000000004,1.02375,0.19793750000000002,0.12503125,1.2646875,0.9971875,-0.25209375,-0.30975,1.2470625,0.01855638752839639,0.01788505640740855,True
40512,450,0,451,4183.0,42243.0,31398.0,0.003172,-0.000732,-0.0023179999999999997,0.12250000000000001,-1.5225000000000002,-3.7975000000000003,1.0158125,0.2013125,0.12687500000000002,1.25678125,0.9868125,-0.2556875,-0.31059375,1.2465,0.01884094194402859,0.017994984182564445,True
40513,451,0,452,4182.0,42242.0,31399.0,0.000793,0.000244,-0.000915,0.2625,-1.12,-3.8675,1.019125,0.2019375,0.12634375,1.25325,0.99528125,-0.25184375000000003,-0.30965625,1.24815625,0.018711206235608378,0.017935259779742876,True
40514,452,0,453,4183.0,42244.0,31400.0,-0.0026839999999999998,0.001952,0.001769,0.29750000000000004,-0.7525000000000001,-3.7800000000000002,1.0183125,0.19871875,0.12540625,1.262375,0.98821875,-0.25428125,-0.31065625,1.246375,0.018677114993873506,0.017937092915786674,True
40515,453,0,454,4182.0,42246.0,31400.0,-0.007442,-6.1e-05,0.002989,0.35000000000000003,-0.7000000000000001,-3.5700000000000003,1.017375,0.19743750000000002,0.1240625,1.25178125,0.98684375,-0.25328125,-0.3125625,1.246625,0.018583825642148936,0.01795882272796214,True
40516,454,0,455,4183.0,42247.0,31401.0,-0.0060999999999999995,-0.0015249999999999999,0.000915,0.21000000000000002,-1.0150000000000001,-3.5175000000000005,1.017625,0.19875,0.131,1.263125,0.98865625,-0.2520625,-0.3128125,1.23665625,0.018588625194248944,0.0182542640840092,True
40517,455,0,456,4184.0,42246.0,31402.0,-0.003294,-0.0013419999999999999,0.000183,0.21000000000000002,-1.6450000000000002,-3.4825000000000004,1.01853125,0.1978125,0.1256875,1.26584375,0.9796875,-0.2515625,-0.31240625,1.2533125,0.018529733908897623,0.018019349689009086,True
40518,456,0,457,4184.0,42248.0,31400.0,0.0030499999999999998,0.00042699999999999997,-0.000366,0.17500000000000002,-2.0300000000000002,-3.6050000000000004,1.021375,0.19640625,0.12712500000000002,1.2641875,0.9945625,-0.25290625,-0.31125,1.24703125,0.018526130244700057,0.018031775412617617,True
40519,457,0,458,4185.0,42248.0,31403.0,0.0055509999999999995,-0.000366,-0.0018909999999999999,0.12250000000000001,-2.1,-3.7450000000000006,1.01921875,0.197,0.12737500000000002,1.26421875,0.98784375,-0.2558125,-0.3096875,1.24640625,0.018668205816647042,0.017978943579591473,True
40520,458,0,459,4186.0,42246.0,31405.0,0.005612,-0.000732,-0.0023179999999999997,0.08750000000000001,-1.8550000000000002,-3.6575,1.02203125,0.2024375,0.12787500000000002,1.26753125,0.9971875,-0.2476875,-0.31090625,1.2481875,0.01856362591278034,0.018048740984306172,True
40521,459,0,460,4186.0,42245.0,31402.0,0.0026839999999999998,-0.000915,-0.001769,0.15750000000000003,-1.6800000000000002,-3.8850000000000002,1.021625,0.19834375,0.128,1.26453125,0.9985937500000001,-0.25246875,-0.307125,1.24490625,0.01858831381856744,0.017901129812760663,True
40522,460,0,461,4185.0,42243.0,31400.0,0.000488,-0.00122,-0.000122,0.42000000000000004,-1.2425000000000002,-3.7625,1.020875,0.19625,0.12725,1.2633750000000001,0.98928125,-0.25534375,-0.31325000000000003,1.24315625,0.018618319932076823,0.018117693027464448,True
40523,461,0,462,4186.0,42243.0,31402.0,-0.000183,0.000793,0.000183,0.5075000000000001,-0.77,-3.6925000000000003,1.01828125,0.19893750000000002,0.12959375,1.262625,0.98440625,-0.2556875,-0.31565625,1.2439375,0.018743026764341354,0.018311247511569838,True
40524,462,0,463,4187.0,42244.0,31401.0,-0.002928,0.0015249999999999999,0.000976,0.56,-0.45500000000000007,-3.8150000000000004,1.0186250000000001,0.19884375,0.12703125,1.2930625,0.9859687500000001,-0.2508125,-0.31259375,1.25390625,0.0185419045238175,0.018082192485118952,True
40525,463,0,464,4187.0,42247.0,31404.0,-0.005795,0.000549,0.001769,0.525,-0.35000000000000003,-3.6575,1.01403125,0.19840625,0.1305625,1.2684375,0.98121875,-0.2454375,-0.30821875,1.258,0.01830627927419334,0.018050736440735706,True
40526,464,0,465,4187.0,42248.0,31405.0,-0.0055509999999999995,0.000366,0.000549,0.43750000000000006,-0.6125,-3.7450000000000006,1.04221875,0.1978125,0.13121875,1.25325,0.99915625,-0.2515,-0.30746875,1.253625,0.018527204502814257,0.018047436551779993,True
40527,465,0,466,4189.0,42251.0,31407.0,-0.0034159999999999998,-0.000732,0.0008539999999999999,0.4025,-0.9275000000000001,-3.8500000000000005,1.03203125,0.1880625,0.11728125,1.252875,0.99253125,-0.25403125,-0.3095625,1.2445625,0.01822763999283624,0.0175586767552892,True
40528,466,0,467,4190.0,42254.0,31409.0,-0.000915,-0.000305,0.000915,0.4025,-1.2950000000000002,-3.7275000000000005,1.00546875,0.20209375000000002,0.1265625,1.285125,0.9736875,-0.25521875,-0.31284375000000003,1.2465625,0.018854189884393437,0.018073009250511883,True
40529,467,0,468,4190.0,42253.0,31408.0,0.002623,-0.001037,-0.000549,0.22750000000000004,-1.6800000000000002,-3.7100000000000004,1.0156875,0.20125,0.13159375,1.276375,0.9804375000000001,-0.2506875,-0.31240625,1.2569062500000001,0.01863606959596506,0.01826228121702269,True
40530,468,0,469,4191.0,42251.0,31408.0,0.0073809999999999995,-0.000976,-0.00183,0.1925,-1.6450000000000002,-3.8150000000000004,1.02278125,0.20465625,0.1239375,1.287375,0.98553125,-0.2511875,-0.310875,1.255625,0.018796759952476552,0.017885514198892474,True
40531,469,0,470,4191.0,42250.0,31407.0,0.005063,-0.000732,-0.00061,0.28,-1.4000000000000001,-3.8850000000000002,1.0304375000000001,0.20021875,0.13784375000000001,1.2741875,0.9858750000000001,-0.25115625,-0.30965625,1.25359375,0.018612514609483828,0.018408322824392056,True
40532,470,0,471,4192.0,42251.0,31407.0,0.000244,0.0017079999999999999,0.000366,0.36750000000000005,-0.9800000000000001,-3.9200000000000004,1.0439375,0.1935625,0.130625,1.2426875,0.98921875,-0.25121875,-0.310625,1.2493125,0.018340573089754512,0.01815050003856338,True
40533,471,0,472,4194.0,42252.0,31408.0,-0.002562,0.002257,-0.000366,0.35000000000000003,-0.5775,-3.8500000000000005,1.0280625,0.19434375,0.11846875,1.279375,0.993375,-0.2545,-0.31215625,1.24653125,0.01850558659217877,0.017712332693649913,True
40534,472,0,473,4193.0,42250.0,31410.0,-0.003355,0.00042699999999999997,0.00061,0.36750000000000005,-0.31500000000000006,-3.6750000000000003,1.01440625,0.19903125,0.13178125000000002,1.25353125,0.9882500000000001,-0.25196875,-0.310875,1.24871875,0.018596428382747276,0.01820815787173436,True
40535,473,0,474,4194.0,42252.0,31411.0,-0.004514,-0.0008539999999999999,0.0023179999999999997,0.42000000000000004,-0.45500000000000007,-3.6575,1.00571875,0.19453125000000002,0.1311875,1.26853125,0.9905,-0.2506875,-0.3145625,1.2534375,0.0183590155949187,0.01833263502067948,True
40536,474,0,475,4194.0,42253.0,31410.0,-0.004514,0.000366,0.00244,0.5075000000000001,-0.8400000000000001,-3.5525,1.02725,0.1975,0.1304375,1.26084375,0.9900625000000001,-0.2506875,-0.311125,1.2478125,0.018481434804683373,0.01816298093979608,True
40537,475,0,476,4196.0,42257.0,31412.0,-0.0013419999999999999,0.000305,-6.1e-05,0.4025,-1.1900000000000002,-3.6050000000000004,1.0188125000000001,0.19593750000000001,0.128625,1.2600625,0.989125,-0.2538125,-0.31265625,1.24696875,0.018543476412213544,0.018150268957140378,True
40538,476,0,477,4196.0,42257.0,31412.0,0.0026839999999999998,-0.000244,-0.000366,0.29750000000000004,-1.4000000000000001,-3.7100000000000004,1.01784375,0.1983125,0.12459375,1.26971875,0.988125,-0.2511875,-0.31203125,1.2544375,0.018535174823913262,0.01795921515196308,True
40539,477,0,478,4199.0,42257.0,31410.0,0.0048189999999999995,-0.00061,-0.002196,0.1925,-1.5225000000000002,-3.6750000000000003,1.02675,0.19609375,0.12571875,1.26546875,0.99503125,-0.25296875,-0.314625,1.25240625,0.01851577448637087,0.018110242292447447,True
40540,478,0,479,4197.0,42258.0,31413.0,0.002806,0.000488,0.001281,0.42000000000000004,-1.4000000000000001,-3.8675,1.01809375,0.19990625,0.12665625,1.2631875000000001,0.99071875,-0.2524375,-0.31253125,1.2464375,0.018651475753725784,0.018064244133362294,True
40541,479,0,480,4200.0,42257.0,31413.0,-0.0006709999999999999,0.0011589999999999999,-0.000915,0.47250000000000003,-1.0675000000000001,-3.8850000000000002,1.01790625,0.19790625,0.12446875,1.26903125,0.98846875,-0.25159375,-0.31190625,1.2535625000000001,0.018534864332369907,0.017949024462036993,True
40542,480,0,481,4199.0,42259.0,31411.0,-0.002562,0.001037,6.1e-05,0.45500000000000007,-0.805,-3.7625,1.02153125,0.1945625,0.12684375,1.26415625,0.99384375,-0.25584375,-0.31509375,1.2468125,0.01856897886720597,0.01817543886706174,True
40543,481,0,482,4201.0,42262.0,31414.0,-0.0034159999999999998,0.000488,0.00122,0.42000000000000004,-0.6825000000000001,-3.7450000000000006,1.01796875,0.19818750000000002,0.1284375,1.2631875000000001,0.9843437500000001,-0.2518125,-0.3108125,1.25375,0.01855531416466295,0.018068092129787928,True
40544,482,0,483,4201.0,42266.0,31415.0,-0.0034159999999999998,0.00061,0.000793,0.45500000000000007,-0.6125,-3.6400000000000006,1.02478125,0.19546875,0.12578125,1.2645,0.99528125,-0.25446875,-0.30521875,1.24721875,0.018550705217981737,0.017732817154752,True
40545,483,0,484,4201.0,42269.0,31417.0,-0.00122,0.00042699999999999997,0.000305,0.24500000000000002,-0.8925000000000001,-3.6400000000000006,1.0175625,0.1985625,0.12475,1.26665625,0.9885,-0.2523125,-0.31265625,1.25259375,0.018591010651046166,0.017990886948027328,True
40546,484,0,485,4201.0,42268.0,31419.0,-0.00042699999999999997,0.000732,0.000793,0.15750000000000003,-1.0850000000000002,-3.5700000000000003,1.01840625,0.19896875,0.124625,1.2685,0.9889375,-0.252625,-0.31225,1.2533750000000001,0.018620407069337857,0.017969336445618978,True
40547,485,0,486,4204.0,42269.0,31418.0,0.001098,-0.000976,0.000305,0.10500000000000001,-1.3125000000000002,-3.6050000000000004,1.01865625,0.19796875,0.12771875,1.27075,0.9926875000000001,-0.25203125,-0.3113125,1.2532812500000001,0.01855514679827076,0.0180587226625465,True
40548,486,0,487,4202.0,42267.0,31420.0,0.00183,-0.000915,-6.1e-05,0.0175,-1.54,-3.6225000000000005,1.0238125,0.197625,0.12740625,1.2638125,0.99571875,-0.252125,-0.31134375000000003,1.24653125,0.018544766695701924,0.01804713077614231,True
40549,487,0,488,4205.0,42267.0,31420.0,0.002257,-0.0013419999999999999,0.000305,0.0,-1.6450000000000002,-3.6750000000000003,1.0190000000000001,0.19775,0.12478125,1.2671875000000001,0.9890625000000001,-0.25140625,-0.31271875,1.24790625,0.018520833199105725,0.017994696705813704,True
40550,488,0,489,4205.0,42266.0,31420.0,0.00061,0.000244,-0.00042699999999999997,0.14,-1.435,-3.7450000000000006,1.02421875,0.19746875,0.13059375,1.2636875,0.9936875000000001,-0.25559375,-0.3116875,1.24321875,0.018678681077431883,0.018192124672546897,True
40551,489,0,490,4207.0,42268.0,31421.0,-0.000366,0.0008539999999999999,0.000915,0.14,-1.33,-3.6925000000000003,1.015125,0.20096875,0.12853125,1.26421875,0.988,-0.2516875,-0.31140625,1.24734375,0.0186649382646053,0.01809592976547788,True
40552,490,0,491,4207.0,42268.0,31422.0,6.1e-05,0.00061,0.00042699999999999997,0.14,-1.4175000000000002,-3.6225000000000005,1.01715625,0.19793750000000002,0.12821875,1.264375,0.9888125,-0.25165625,-0.31128125,1.2466875,0.018538682280720517,0.018078027047628353,True
40553,491,0,492,4208.0,42268.0,31423.0,-0.001037,0.00042699999999999997,-0.000732,-0.07,-1.3825,-3.5700000000000003,1.01825,0.19778125,0.1285,1.26646875,0.9888125,-0.251125,-0.31165625,1.24878125,0.018510739192511685,0.018104741424188244,True
40554,492,0,493,4209.0,42271.0,31426.0,0.000488,-0.0026839999999999998,-0.000549,-0.14,-1.225,-3.5175000000000005,1.02475,0.19475,0.12790625,1.26446875,0.99365625,-0.25359375,-0.3110625,1.2470937500000001,0.018485662562893388,0.018056337521241618,True
40555,493,0,494,4209.0,42269.0,31426.0,0.000366,-0.0015249999999999999,-0.000183,0.12250000000000001,-1.3125000000000002,-3.6575,1.0184375,0.202125,0.12659375,1.265625,0.9887812500000001,-0.25128125,-0.31134375000000003,1.24796875,0.01869617713497096,0.0180137101635939,True
40556,494,0,495,4210.0,42269.0,31428.0,-0.0021349999999999997,-0.000244,0.001403,0.525,-1.3825,-3.6575,1.02440625,0.1965625,0.1276875,1.2640625,0.9936875000000001,-0.25353125,-0.31193750000000003,1.2468125,0.018557864640844822,0.018082680576157292,True
40557,495,0,496,4212.0,42269.0,31428.0,-0.002806,0.002745,0.000366,0.7175,-1.2775,-3.6575,1.01765625,0.19865625,0.12512500000000001,1.2695,0.9893125,-0.2516875,-0.31171875,1.2513750000000001,0.018569584075334968,0.017968443716057714,True
40558,496,0,497,4213.0,42272.0,31427.0,-0.002379,0.0034159999999999998,0.00042699999999999997,0.7350000000000001,-1.4875,-3.7275000000000005,1.0183125,0.19821875,0.12759375,1.2658125,0.9951562500000001,-0.2521875,-0.31046875,1.24734375,0.018571778318966073,0.018019500343859064,True
40559,497,0,498,4214.0,42273.0,31430.0,0.002196,-0.0017079999999999999,0.000183,0.5075000000000001,-1.8725000000000003,-3.6750000000000003,1.023875,0.195125,0.12465625,1.26546875,0.99171875,-0.25559375,-0.3173125,1.2531875000000001,0.018582053881900953,0.018175065603980703,True
40560,498,0,499,4215.0,42274.0,31430.0,0.00488,-0.000793,-0.002806,0.22750000000000004,-1.8200000000000003,-3.7275000000000005,1.018125,0.19803125,0.12828125,1.26453125,0.98965625,-0.251,-0.3113125,1.2434375,0.01851598903138015,0.018081860039436373,True
40561,499,0,500,4215.0,42276.0,31430.0,0.00549,-0.001281,-0.001464,0.24500000000000002,-1.5575,-3.7450000000000006,1.01646875,0.19775,0.128625,1.2672812500000001,0.9843125,-0.2511875,-0.3085625,1.23603125,0.018511980083449522,0.01798491786587545,True
40562,500,0,501,4216.0,42276.0,31430.0,0.002379,6.1e-05,-0.00042699999999999997,0.49000000000000005,-1.3650000000000002,-3.8325000000000005,1.0234375,0.19525,0.125,1.2687187500000001,0.9821562500000001,-0.24984375,-0.31228125,1.2613750000000001,0.01835449970682801,0.01798602301048981,True
40563,501,0,502,4219.0,42276.0,31431.0,-0.000549,0.00244,0.00122,0.5950000000000001,-0.8750000000000001,-3.7275000000000005,1.01865625,0.1985,0.1279375,1.26434375,1.00434375,-0.25809375,-0.3130625,1.242,0.018822326053546563,0.018138397826271375,True
40564,502,0,503,4219.0,42277.0,31432.0,-0.0021349999999999997,0.000732,0.000366,0.07,-0.36750000000000005,-3.5700000000000003,1.018375,0.19940625,0.128125,1.27,0.9813437500000001,-0.249375,-0.30575,1.2420625,0.018506920281450553,0.017850714337142446,True
40565,503,0,504,4220.0,42280.0,31433.0,-0.00244,-0.0021349999999999997,-0.0008539999999999999,-0.07,-0.22750000000000004,-3.5175000000000005,1.0253125,0.19803125,0.12740625,1.26415625,1.00384375,-0.2591875,-0.316125,1.24659375,0.01884724086493004,0.018240210971114848,True
40566,504,0,505,4219.0,42280.0,31434.0,-0.000976,-0.002745,0.000488,-0.0175,-0.24500000000000002,-3.5875000000000004,1.01828125,0.204625,0.12471875,1.26103125,0.9822500000000001,-0.24971875000000002,-0.30553125000000003,1.2575,0.018736042041724712,0.017701731987446272,True
40567,505,0,506,4221.0,42282.0,31435.0,-0.000732,-0.002196,0.001098,0.10500000000000001,-0.21000000000000002,-3.5875000000000004,1.0267187500000001,0.195125,0.13034375,1.2645625,1.0049375,-0.2563125,-0.3155,1.2572812500000001,0.018611134730392345,0.018335783759330468,True
40568,506,0,507,4225.0,42284.0,31436.0,-0.001403,0.000488,0.001098,0.24500000000000002,-0.08750000000000001,-3.6050000000000004,1.01840625,0.19934375000000001,0.12765625,1.2685625,0.9875,-0.25,-0.31,1.242375,0.018529639175257732,0.01800313656931304,True
40569,507,0,508,4225.0,42284.0,31438.0,-0.002623,0.001281,0.000305,0.35000000000000003,-0.3325,-3.6575,1.0243125,0.1953125,0.12740625,1.26465625,0.99484375,-0.259,-0.30715625,1.26209375,0.018727585638319798,0.017877965465417207,True
40570,508,0,509,4228.0,42286.0,31440.0,-0.002745,-0.001281,-0.0006709999999999999,0.17500000000000002,-0.7000000000000001,-3.7100000000000004,1.0189062500000001,0.19809375,0.12762500000000002,1.26478125,0.9955,-0.2535625,-0.3151875,1.2446875,0.018622264254993467,0.018211354528933823,True
40571,509,0,510,4227.0,42288.0,31441.0,0.000122,-0.002074,0.000793,0.0175,-0.7350000000000001,-3.8150000000000004,1.01821875,0.20165625,0.12784375,1.25771875,0.9858125,-0.25221875,-0.31096875,1.2426875,0.018714782539226437,0.018049980011594562,True
40572,510,0,511,4229.0,42287.0,31439.0,0.0017079999999999999,-0.0015249999999999999,-0.0006709999999999999,0.10500000000000001,-1.0150000000000001,-3.7800000000000002,1.01875,0.19918750000000002,0.12734375,1.2656875,0.9831875,-0.2498125,-0.3128125,1.24621875,0.01851560707943618,0.018103880412848165,True
40573,511,0,512,4228.0,42287.0,31440.0,0.002196,0.000244,-0.0013419999999999999,0.29750000000000004,-1.1025,-3.7450000000000006,1.02553125,0.19618750000000001,0.1279375,1.26428125,0.98903125,-0.25253125,-0.31628125,1.24771875,0.01850193472073147,0.018268367002047238,True
40574,512,0,513,4230.0,42287.0,31442.0,-0.000915,0.001098,0.00061,0.24500000000000002,-1.2950000000000002,-3.6575,1.0219375,0.19653125,0.12537500000000001,1.26984375,0.99340625,-0.254875,-0.3148125,1.2550937500000001,0.01861094934523472,0.018103676514059076,True
40575,513,0,514,4231.0,42291.0,31446.0,0.00042699999999999997,-0.000732,-0.000793,0.29750000000000004,-1.4525000000000001,-3.6050000000000004,1.024125,0.19653125,0.124375,1.26171875,0.99734375,-0.25396875,-0.316,1.25175,0.018574279724838848,0.018110503372265177,True
40576,514,0,515,4233.0,42289.0,31444.0,-0.003477,-0.002074,-0.004392,0.3325,-1.6975000000000002,-3.7275000000000005,1.02509375,0.19853125,0.12815625,1.2593750000000001,0.9913125,-0.252,-0.31365625,1.2400625,0.018577076117433613,0.018171372312627807,True
40577,515,0,516,4234.0,42291.0,31446.0,0.00183,0.002013,0.008601,0.49000000000000005,-1.6450000000000002,-3.7100000000000004,1.0264375000000001,0.20021875,0.12725,1.265125,0.99534375,-0.252,-0.313125,1.23934375,0.018646658007587004,0.018112644919153747,True
40578,516,0,517,4234.0,42293.0,31448.0,0.003111,0.002196,-0.0037819999999999998,0.49000000000000005,-1.5925000000000002,-3.5525,1.01865625,0.19565625,0.12578125,1.26884375,0.98875,-0.25109375,-0.316625,1.2434687500000001,0.01842184952998254,0.01819357127068415,True
40579,517,0,518,4239.0,42292.0,31446.0,0.0070149999999999995,-0.002013,-0.0015249999999999999,0.17500000000000002,-0.7350000000000001,-3.7100000000000004,1.0189375,0.1980625,0.13153125000000002,1.2646875,0.9888125,-0.24621875000000001,-0.31446875,1.24734375,0.018323733468749638,0.018342987650100315,True
40580,518,0,519,4239.0,42294.0,31446.0,0.001647,-0.00183,-0.0008539999999999999,0.45500000000000007,-0.28,-3.535,1.0185625,0.200625,0.1250625,1.2714375,0.9886875,-0.25371875,-0.317125,1.25578125,0.0187329520344174,0.01818420146296077,True
40581,519,0,520,4240.0,42294.0,31448.0,-0.0066489999999999995,6.1e-05,0.003172,0.7000000000000001,0.0175,-3.4825000000000004,1.01703125,0.2025625,0.12565625,1.27040625,0.9951562500000001,-0.254375,-0.317375,1.2490625,0.01883938464709975,0.018218711929227558,True
40582,520,0,521,4243.0,42299.0,31449.0,-0.008845,0.001769,0.0023179999999999997,0.665,0.052500000000000005,-3.5000000000000004,1.0180625,0.19968750000000002,0.1275,1.263125,0.98890625,-0.251625,-0.31334375000000003,1.24734375,0.018609577708710242,0.01813176149413838,True
40583,521,0,522,4245.0,42299.0,31448.0,-0.008052,0.002379,0.00122,0.6300000000000001,0.052500000000000005,-3.5000000000000004,1.017625,0.198375,0.1273125,1.26315625,0.9876875,-0.24556250000000002,-0.31425000000000003,1.24721875,0.01831005158160385,0.01816064653443968,True
40584,522,0,523,4245.0,42300.0,31449.0,-0.000122,6.1e-05,0.001586,0.36750000000000005,-0.6125,-3.7800000000000002,1.0245312500000001,0.19568750000000001,0.1255625,1.26959375,0.9951562500000001,-0.2540625,-0.31115625,1.242625,0.01854328527437414,0.017963717789029474,True
40585,523,0,524,4243.0,42302.0,31449.0,0.002562,-0.002257,-0.00061,0.2625,-0.9450000000000001,-3.8150000000000004,1.0153125,0.1995,0.12834375,1.2650000000000001,0.98475,-0.25175000000000003,-0.31409375,1.2476875,0.018606904656365005,0.018196750598611144,True
40586,524,0,525,4245.0,42300.0,31445.0,0.002989,-0.002745,-0.000732,0.15750000000000003,-1.2950000000000002,-3.8150000000000004,1.03021875,0.194375,0.122375,1.2623125,0.99521875,-0.256125,-0.3155625,1.2470625,0.018572628562888754,0.01801058478494997,True
40587,525,0,526,4246.0,42300.0,31445.0,0.0013419999999999999,-0.0028669999999999998,-0.0006709999999999999,0.2625,-1.435,-3.8325000000000005,1.01634375,0.19853125,0.1275,1.257875,0.98903125,-0.25171875,-0.31403125,1.24721875,0.018565694441759928,0.0181595246571874,True
40588,526,0,527,4245.0,42297.0,31443.0,0.00042699999999999997,0.0,-0.000244,0.35000000000000003,-1.5225000000000002,-3.8850000000000002,1.0158125,0.1983125,0.12859375,1.26225,0.9879687500000001,-0.25125000000000003,-0.314375,1.24715625,0.018537704242049383,0.01821838932730124,True
40589,527,0,528,4245.0,42300.0,31441.0,-0.001098,0.002745,0.001098,0.56,-2.0475000000000003,-3.7275000000000005,1.0164375,0.1990625,0.1294375,1.26284375,0.98909375,-0.25121875,-0.3155,1.2533750000000001,0.018567365815377834,0.01829851329398943,True
40590,528,0,529,4244.0,42299.0,31441.0,-0.00042699999999999997,0.0006709999999999999,-0.000122,0.31500000000000006,-2.31,-3.8150000000000004,1.01553125,0.203875,0.1281875,1.272875,0.994,-0.25334375,-0.315625,1.25246875,0.018851782035209062,0.018252152679604162,True
40591,529,0,530,4244.0,42298.0,31440.0,0.000915,0.001403,-0.002196,0.21000000000000002,-2.555,-3.7800000000000002,1.0305312500000001,0.19743750000000002,0.12834375,1.26225,0.99509375,-0.252125,-0.3138125,1.2479375,0.018537035414422448,0.018185393590577373,True
40592,530,0,531,4242.0,42298.0,31441.0,0.003538,-0.002257,-0.000244,0.0175,-2.6775,-3.6750000000000003,1.0154375,0.19853125,0.12434375,1.26878125,0.9885,-0.253125,-0.31615625,1.24465625,0.018622600180389123,0.01811552761345659,True
40593,531,0,532,4241.0,42296.0,31439.0,0.004941,-0.0015249999999999999,-0.00061,0.12250000000000001,-2.765,-3.7975000000000003,1.01153125,0.19878125,0.12865625,1.261625,0.9885625,-0.25175000000000003,-0.314125,1.2477500000000001,0.018577267619862486,0.01821086508356768,True
40594,532,0,533,4240.0,42295.0,31439.0,0.001647,0.001952,0.000488,0.4025,-2.5025000000000004,-3.7100000000000004,1.02428125,0.19734375,0.12625,1.264125,0.99234375,-0.2536875,-0.314625,1.2474687500000001,0.018596399001182807,0.01813209128251001,True
40595,533,0,534,4241.0,42294.0,31439.0,-0.0011589999999999999,0.001952,0.00042699999999999997,0.49000000000000005,-2.1700000000000004,-3.6925000000000003,1.0169062500000001,0.1995,0.12646875,1.268875,0.98821875,-0.24653125,-0.316125,1.25084375,0.01839567257687633,0.018201656308313927,True
40596,534,0,535,4240.0,42294.0,31441.0,-0.001647,0.0008539999999999999,-0.000183,0.4025,-1.9425000000000001,-3.7275000000000005,1.02521875,0.198,0.12796875,1.26503125,0.99190625,-0.2531875,-0.3145625,1.24828125,0.01860322483384916,0.01820025550531703,True
40597,535,0,536,4239.0,42298.0,31440.0,0.000366,-0.0026839999999999998,-0.000976,0.21000000000000002,-1.8025000000000002,-3.6750000000000003,1.019125,0.19993750000000002,0.1279375,1.2707187500000001,0.9898125,-0.2515625,-0.31390625,1.24925,0.018617357129050965,0.018172470743980103,True
40598,536,0,537,4239.0,42295.0,31439.0,0.002379,-0.002623,-0.0017079999999999999,0.12250000000000001,-1.6975000000000002,-3.6925000000000003,1.0258125,0.19690625,0.125,1.2718125,0.99865625,-0.25571875,-0.31953125,1.25609375,0.018660547834724543,0.018278775418420122,True
40599,537,0,538,4239.0,42294.0,31442.0,-0.00122,-0.000244,0.000244,0.47250000000000003,-1.2425000000000002,-3.7975000000000003,1.0183125,0.19596875,0.12565625,1.27228125,0.9965,-0.24953125,-0.3085,1.2510937500000001,0.01837148913960966,0.017860264927905878,True
40600,538,0,539,4239.0,42297.0,31442.0,-0.006588,0.001403,0.001952,0.7175,-1.5050000000000001,-3.7625,1.02709375,0.196625,0.12659375,1.27103125,0.97775,-0.2416875,-0.309125,1.25753125,0.018080940116070712,0.01792408200624251,True
40601,539,0,540,4239.0,42297.0,31445.0,-0.007686,0.0013419999999999999,0.00183,0.805,-1.8025000000000002,-3.6925000000000003,1.01775,0.19615625,0.12571875,1.27028125,0.9988750000000001,-0.2549375,-0.31715625000000003,1.2630000000000001,0.01859801741398014,0.018212450314785474,True
40602,540,0,541,4240.0,42301.0,31445.0,-0.00671,0.002013,0.001586,0.8575,-2.2750000000000004,-3.8150000000000004,1.02175,0.19865625,0.1275625,1.25828125,1.0126875,-0.26053125,-0.32515625,1.2658125,0.018927347273155856,0.018611134306691247,True
40603,541,0,542,4241.0,42301.0,31445.0,-0.003355,0.000183,0.0015249999999999999,0.7525000000000001,-3.0450000000000004,-3.7800000000000002,1.01859375,0.19853125,0.13,1.26559375,1.0049062500000001,-0.2553125,-0.316,1.23478125,0.018711107102825413,0.018341832538246422,True
40604,542,0,543,4241.0,42303.0,31445.0,0.0071979999999999995,0.0008539999999999999,-0.000366,0.43750000000000006,-4.095000000000001,-3.8150000000000004,1.01903125,0.19540625,0.12575,1.2664375,0.9665312500000001,-0.24781250000000002,-0.31875000000000003,1.2690937500000001,0.018278710708440195,0.018278077615008995,True
40605,543,0,544,4241.0,42299.0,31444.0,0.010735999999999999,0.000793,-0.003111,0.28,-4.2175,-3.9200000000000004,1.0135625,0.19596875,0.1253125,1.26475,0.98253125,-0.24731250000000002,-0.320375,1.26359375,0.018281665236095753,0.018325683711702637,True
40606,544,0,545,4241.0,42298.0,31444.0,0.012139,-0.0006709999999999999,-0.0034159999999999998,0.22750000000000004,-3.8675,-3.8850000000000002,1.01821875,0.19475,0.12528125,1.26790625,0.97571875,-0.24759375,-0.31334375000000003,1.2613125,0.018242789555149158,0.018040505021033975,True
40607,545,0,546,4239.0,42294.0,31443.0,0.009394,-0.002623,-0.00183,0.22750000000000004,-3.3600000000000003,-3.8325000000000005,1.01875,0.19818750000000002,0.1258125,1.2688125000000001,0.9853125,-0.247625,-0.31371875,1.262875,0.018385821291776003,0.01807749997108114,True
40608,546,0,547,4240.0,42292.0,31443.0,0.003965,-0.001586,-0.00122,0.31500000000000006,-2.6075000000000004,-3.8500000000000005,1.018875,0.19868750000000002,0.12725,1.26934375,1.0128125000000001,-0.2501875,-0.30834375,1.25634375,0.018510166158509086,0.017919515804115615,True
40609,547,0,548,4240.0,42297.0,31446.0,-0.006405,0.000183,0.001098,0.5425000000000001,-1.33,-3.7450000000000006,1.01265625,0.1985625,0.127,1.2660625,1.01175,-0.25415625000000003,-0.31015625,1.2378125,0.01866561530047041,0.017982453321335606,True
40610,548,0,549,4239.0,42299.0,31445.0,-0.009211,0.000976,0.000244,0.47250000000000003,-1.1900000000000002,-3.6750000000000003,1.027125,0.1980625,0.1268125,1.27084375,1.0010000000000001,-0.260625,-0.31615625,1.26384375,0.018906664605713993,0.01821705476168751,True
40611,549,0,550,4240.0,42296.0,31444.0,-0.007991,0.000488,0.002623,0.56,-1.1375000000000002,-3.6750000000000003,1.02190625,0.19840625,0.12759375,1.2626875,0.99675,-0.252,-0.3118125,1.240875,0.01857192190334818,0.018073775865127293,True
40612,550,0,551,4241.0,42299.0,31447.0,-0.0059169999999999995,0.000732,0.002257,0.5425000000000001,-1.4525000000000001,-3.8325000000000005,1.0210000000000001,0.19825,0.12953125000000001,1.270375,0.98709375,-0.2519375,-0.31621875,1.2458125,0.0185629498674075,0.01833138633036849,True
40613,551,0,552,4242.0,42301.0,31446.0,-0.0030499999999999998,0.000488,0.0013419999999999999,0.6300000000000001,-2.0125,-3.8325000000000005,1.02378125,0.196375,0.1273125,1.25821875,0.988625,-0.25115625,-0.3146875,1.2475,0.018454017012075455,0.018178313005256595,True
40614,552,0,553,4240.0,42301.0,31445.0,0.0034159999999999998,0.000244,-0.002196,0.4025,-2.6775,-3.8325000000000005,1.01878125,0.1995,0.12865625,1.2650625,0.986125,-0.25425000000000003,-0.31771875,1.2532812500000001,0.018708061473762333,0.018355957011798235,True
40615,553,0,554,4239.0,42301.0,31446.0,0.00671,0.0006709999999999999,-0.0017079999999999999,0.31500000000000006,-2.8350000000000004,-3.7275000000000005,1.01825,0.19890625,0.12825,1.26615625,0.9958125,-0.25125000000000003,-0.3170625,1.2451875000000001,0.018562187516107418,0.018312758788196562,True
40616,554,0,555,4240.0,42298.0,31444.0,0.009333,0.000183,0.000122,0.24500000000000002,-2.6775,-3.7625,1.01375,0.1975,0.12609375,1.26603125,0.997375,-0.25378125,-0.3150625,1.248,0.0186066347901938,0.018143331936736746,True
40617,555,0,556,4241.0,42297.0,31441.0,0.0077469999999999995,-0.0008539999999999999,-0.0028669999999999998,0.22750000000000004,-2.2225,-3.7625,1.01834375,0.19828125,0.128125,1.26525,0.98709375,-0.251125,-0.31390625,1.24828125,0.018531356792726113,0.01818018238019652,True
40618,556,0,557,4242.0,42293.0,31442.0,-0.001647,0.000183,0.000366,0.29750000000000004,-1.7325000000000002,-3.7450000000000006,1.02115625,0.19868750000000002,0.12584375,1.26546875,0.9958125,-0.2545,-0.31771875,1.241625,0.01868467707023439,0.018240300603854953,True
40619,557,0,558,4241.0,42294.0,31443.0,-0.0051849999999999995,-0.000488,0.0006709999999999999,0.5775,-0.56,-3.6400000000000006,1.0190000000000001,0.1985625,0.128,1.26459375,0.9801875,-0.2510625,-0.3136875,1.2525,0.01854042477520315,0.01816620782018359,True
40620,558,0,559,4239.0,42297.0,31444.0,-0.0059169999999999995,-0.00042699999999999997,0.002013,0.5075000000000001,-0.5075000000000001,-3.6400000000000006,1.02175,0.19634375,0.12562500000000001,1.25621875,0.9969687500000001,-0.253625,-0.3146875,1.2481875,0.01855263903849425,0.018108910509337203,True
40621,559,0,560,4242.0,42300.0,31444.0,-0.008418,0.0008539999999999999,0.001037,0.56,-0.5950000000000001,-3.5875000000000004,1.01921875,0.19921875,0.1270625,1.26496875,0.9892500000000001,-0.2515625,-0.30821875,1.2480625,0.018587719863410866,0.017906752217292758,True
40622,560,0,561,4242.0,42301.0,31448.0,-0.006161,0.001586,0.0011589999999999999,0.49000000000000005,-0.9975,-3.6575,1.03028125,0.19690625,0.12353125000000001,1.2640625,0.9974375,-0.2539375,-0.3139375,1.24753125,0.0185884766133334,0.017992509440315864,True
40623,561,0,562,4241.0,42304.0,31446.0,0.0013419999999999999,6.1e-05,-0.000366,0.22750000000000004,-1.8725000000000003,-3.6750000000000003,1.01715625,0.19984375000000001,0.13003125000000001,1.2672812500000001,0.98890625,-0.25265625,-0.31603125,1.2552812500000001,0.018657750117577327,0.0183443792868131,True
40624,562,0,563,4243.0,42302.0,31448.0,0.005978,-0.0011589999999999999,-0.000549,-0.14,-2.0650000000000004,-3.4825000000000004,1.0383125,0.19553125000000002,0.1273125,1.25878125,0.9844375,-0.247,-0.31409375,1.2477500000000001,0.018250969192064998,0.018154336926499676,True
40625,563,0,564,4243.0,42300.0,31446.0,0.00732,-0.000793,-0.000549,-0.35000000000000003,-2.0825,-3.6225000000000005,1.01209375,0.20071875,0.12521875,1.28028125,0.9935625,-0.25446875,-0.3171875,1.24825,0.018767160175380052,0.018193150420870014,True
40626,564,0,565,4242.0,42297.0,31448.0,0.007991,-0.0006709999999999999,-0.001281,-0.35000000000000003,-1.7325000000000002,-3.6225000000000005,1.012625,0.20075,0.1314375,1.2601875,0.989125,-0.251875,-0.31703125,1.2546875,0.018663505399067085,0.01844257818272944,True
40627,565,0,566,4241.0,42295.0,31446.0,0.00732,-0.0013419999999999999,-0.0035989999999999998,-0.31500000000000006,-1.155,-3.5525,1.0190937500000001,0.1953125,0.1249375,1.2735625,0.99746875,-0.2535625,-0.31471875,1.24840625,0.018507590379763798,0.01808189741039057,True
40628,566,0,567,4241.0,42293.0,31444.0,-0.001098,-0.003843,0.0011589999999999999,0.43750000000000006,-0.0175,-3.6050000000000004,1.0078125,0.2003125,0.130875,1.26003125,0.9890625000000001,-0.25115625,-0.31746875,1.25025,0.018616380404542568,0.018437106041310325,True
40629,567,0,568,4243.0,42295.0,31446.0,-0.009271999999999999,0.0013419999999999999,0.002074,0.9625000000000001,0.45500000000000007,-3.6575,1.01715625,0.1935625,0.12371875,1.27234375,0.99584375,-0.24990625,-0.31584375000000003,1.24853125,0.018287441832893683,0.01807720532009094,True
40630,568,0,569,4244.0,42301.0,31451.0,-0.014274,0.0055509999999999995,0.003355,1.2600000000000002,0.5950000000000001,-3.6050000000000004,1.014,0.20053125,0.13134375,1.27146875,0.98540625,-0.2515625,-0.31678125,1.2550625,0.01864184008762322,0.01842863146206902,True
40631,569,0,570,4245.0,42305.0,31452.0,-0.014823,0.0048189999999999995,0.002928,1.2600000000000002,0.14,-3.5875000000000004,1.0325312500000001,0.19084375,0.122,1.2628125000000001,0.9845,-0.251375,-0.31465625,1.2485625,0.018234790810830313,0.01795856151575246,True
40632,570,0,571,4245.0,42309.0,31454.0,-0.007991,0.0006709999999999999,0.002379,0.8400000000000001,-0.5950000000000001,-3.7450000000000006,1.01240625,0.200875,0.1241875,1.27390625,0.989625,-0.25325000000000003,-0.3153125,1.25715625,0.018724294682155997,0.018075029880862112,True
40633,571,0,572,4245.0,42308.0,31453.0,0.005429,-0.002257,-0.000244,0.43750000000000006,-2.3275,-3.7800000000000002,1.02978125,0.1926875,0.12646875,1.2583125,0.9961875,-0.2515,-0.31515625,1.2475,0.018315877368410203,0.018162540082381745,True
40634,572,0,573,4249.0,42310.0,31452.0,0.012078,-6.1e-05,-0.0017079999999999999,0.47250000000000003,-2.6075000000000004,-3.7450000000000006,1.01225,0.19828125,0.12596875,1.26159375,0.9885,-0.25325000000000003,-0.3174375,1.2498125,0.01861735025202808,0.018234086136748578,True
40635,573,0,574,4246.0,42307.0,31451.0,0.014029999999999999,0.001586,-0.0037819999999999998,0.42000000000000004,-2.5025000000000004,-3.8675,1.01846875,0.199125,0.12953125000000001,1.2655,0.98875,-0.2511875,-0.31446875,1.2453750000000001,0.018568678337916443,0.018260732100099868,True
40636,574,0,575,4246.0,42307.0,31452.0,0.00976,0.0018909999999999999,0.000183,0.31500000000000006,-1.9250000000000003,-3.8850000000000002,1.02390625,0.19790625,0.1275,1.27234375,0.9978125,-0.25384375,-0.3173125,1.2521875,0.018625913676053922,0.018292009036771643,True
40637,575,0,576,4247.0,42303.0,31450.0,0.005856,-6.1e-05,-0.003538,0.24500000000000002,-1.0325000000000002,-3.7800000000000002,1.01665625,0.1953125,0.1255,1.2674375,0.9924375,-0.2521875,-0.31509375,1.24734375,0.018451943767959077,0.018120174839959233,True
40638,576,0,577,4248.0,42305.0,31454.0,-0.005429,-0.000122,-0.001403,0.12250000000000001,0.5075000000000001,-3.5875000000000004,1.0195,0.199,0.12753125,1.2646875,0.9894375,-0.250625,-0.3138125,1.248875,0.01854075925878199,0.018151976371455526,True
40639,577,0,578,4249.0,42306.0,31454.0,-0.008173999999999999,-0.0021349999999999997,0.0046359999999999995,0.15750000000000003,0.9450000000000001,-3.6225000000000005,1.01034375,0.19953125,0.12815625,1.27121875,0.988625,-0.25034375000000003,-0.31675000000000003,1.24009375,0.018551283422528805,0.018296287538425163,True
40640,578,0,579,4251.0,42309.0,31457.0,-0.010369999999999999,-0.0032329999999999998,0.004758,0.3325,0.9450000000000001,-3.4650000000000003,1.02378125,0.1955625,0.12740625,1.2646875,0.9978750000000001,-0.25109375,-0.31503125,1.247875,0.018417983724960858,0.018196048997469415,True
40641,579,0,580,4252.0,42310.0,31461.0,-0.009821,6.1e-05,0.000488,0.5075000000000001,0.5775,-3.5175000000000005,1.0187187500000001,0.19868750000000002,0.131875,1.27175,0.98821875,-0.2508125,-0.31603125,1.2530000000000001,0.018535461440724925,0.018420203749326895,True
40642,580,0,581,4252.0,42315.0,31462.0,-0.006954,0.0028669999999999998,-0.000793,0.56,0.08750000000000001,-3.6225000000000005,1.02515625,0.1978125,0.13303125,1.25765625,0.9888125,-0.25075000000000003,-0.31440625,1.24834375,0.018496850612867644,0.018402156129146686,True
40643,581,0,582,4252.0,42313.0,31463.0,0.00244,0.0,0.002928,0.24500000000000002,-1.1375000000000002,-3.6750000000000003,1.01878125,0.196125,0.12671875,1.2690000000000001,0.9911562500000001,-0.2541875,-0.316,1.2483125,0.018566381578438776,0.018206890524757362,True
40644,582,0,583,4252.0,42314.0,31465.0,0.006588,-0.003843,-0.001952,-0.10500000000000001,-1.5050000000000001,-3.6925000000000003,1.01878125,0.19896875,0.125,1.2652812500000001,0.9889687500000001,-0.25053125,-0.315375,1.2565,0.01853567640915083,0.018110968882857043,True
40645,583,0,584,4254.0,42311.0,31462.0,0.008539999999999999,-0.0026839999999999998,-0.004392,-0.07,-1.5750000000000002,-3.7100000000000004,1.0194375,0.19893750000000002,0.1254375,1.27259375,0.9791875,-0.2503125,-0.3155,1.25446875,0.018525534464762055,0.01813400917110485,True
40646,584,0,585,4254.0,42310.0,31463.0,0.007076,-0.001037,-0.0018909999999999999,0.14,-1.3125000000000002,-3.7625,1.019625,0.19840625,0.1264375,1.27225,0.989,-0.25053125,-0.31578125,1.25353125,0.01851248104100812,0.018186491540344813,True
40647,585,0,586,4254.0,42308.0,31460.0,0.003538,0.000488,-0.000549,0.45500000000000007,-0.9975,-3.7275000000000005,1.02721875,0.198375,0.12787500000000002,1.26165625,0.99059375,-0.2511875,-0.31440625,1.24759375,0.018537752017298122,0.018190090494190046,True
40648,586,0,587,4256.0,42310.0,31462.0,-0.00488,0.002745,0.0021349999999999997,0.7175,-0.29750000000000004,-3.7625,1.0184375,0.19971875,0.128,1.26965625,0.9799375,-0.2506875,-0.31696875,1.2534375,0.018572927056191704,0.018298693170792517,True
40649,587,0,588,4255.0,42313.0,31464.0,-0.007686,0.001281,0.0051849999999999995,0.665,-0.3325,-3.6575,1.01834375,0.19625,0.12490625,1.2690625,0.99621875,-0.25315625,-0.3140625,1.24884375,0.018529804754793513,0.018054109633057005,True
40650,588,0,589,4256.0,42316.0,31467.0,-0.0060999999999999995,6.1e-05,0.00042699999999999997,0.49000000000000005,-0.47250000000000003,-3.6225000000000005,1.02,0.20178125,0.1286875,1.265625,0.978625,-0.25075000000000003,-0.31475000000000003,1.249,0.018660505345195512,0.018237386771404192,True
40651,589,0,590,4258.0,42315.0,31468.0,-0.002074,-0.0015249999999999999,-0.001769,0.15750000000000003,-0.9100000000000001,-3.5875000000000004,1.015875,0.19768750000000002,0.12612500000000001,1.26146875,0.9913125,-0.2524375,-0.3159375,1.24009375,0.018559990104087477,0.018179948850419608,True
40652,590,0,591,4259.0,42315.0,31465.0,0.002257,-0.000915,-0.0006709999999999999,0.10500000000000001,-1.2075,-3.5700000000000003,1.01934375,0.19975,0.1285,1.2575625,0.98934375,-0.25153125,-0.31403125,1.2538125,0.01860836106998398,0.018200653172229513,True
40653,591,0,592,4260.0,42318.0,31467.0,0.0050019999999999995,-0.001281,-0.0026839999999999998,0.31500000000000006,-1.3125000000000002,-3.6575,1.02334375,0.19978125,0.12765625,1.2655625,0.996625,-0.25346875,-0.315,1.24865625,0.018688048487909593,0.01820506888751799,True
40654,592,0,593,4259.0,42314.0,31466.0,0.0026839999999999998,0.00042699999999999997,-0.0044529999999999995,0.45500000000000007,-1.05,-3.6050000000000004,1.0183125,0.19953125,0.1271875,1.26896875,0.98875,-0.2528125,-0.31321875,1.2534375,0.018651187362290454,0.018113860387160792,True
40655,593,0,594,4261.0,42316.0,31469.0,0.0011589999999999999,0.0015249999999999999,-0.00183,0.5425000000000001,-0.5950000000000001,-3.6575,1.0215625,0.19890625,0.12884375,1.26565625,0.9901875,-0.25084375000000003,-0.3144375,1.24825,0.018545746475315938,0.018231194943333563,True
40656,594,0,595,4261.0,42319.0,31468.0,-0.000305,0.00122,0.0026839999999999998,0.47250000000000003,-0.21000000000000002,-3.5700000000000003,1.01928125,0.19990625,0.12715625,1.26825,0.9888125,-0.252375,-0.31565625,1.2540625,0.01864894675263763,0.018211003455849563,True
40657,595,0,596,4263.0,42320.0,31471.0,-0.001403,-0.000122,0.0017079999999999999,0.525,0.21000000000000002,-3.4475000000000002,1.01353125,0.1995625,0.13009375,1.26565625,0.9881875,-0.2511875,-0.31034375000000003,1.24934375,0.018586718691610462,0.01811728803711383,True
40658,596,0,597,4264.0,42322.0,31472.0,-0.004514,0.000549,-0.0017079999999999999,0.5950000000000001,0.385,-3.3950000000000005,1.0190000000000001,0.19890625,0.12740625,1.27146875,0.9879375,-0.25571875,-0.31953125,1.25721875,0.01874300261665097,0.018377718526133187,True
40659,597,0,598,4265.0,42325.0,31476.0,-0.0051849999999999995,0.000732,-0.0006709999999999999,0.77,0.29750000000000004,-3.3600000000000003,1.02234375,0.199,0.12834375,1.2658125,0.99571875,-0.25203125,-0.307375,1.24584375,0.018597669009683467,0.017925372443548512,True
40660,598,0,599,4267.0,42326.0,31475.0,-0.002928,0.0006709999999999999,0.002745,0.7350000000000001,0.0175,-3.3600000000000003,1.02590625,0.19490625,0.12590625,1.26390625,0.9998125,-0.25390625,-0.315,1.2455,0.018504751167659848,0.018133096853793954,True
40661,599,0,600,4268.0,42330.0,31474.0,-0.0018909999999999999,6.1e-05,0.001464,0.6300000000000001,-0.24500000000000002,-3.4125000000000005,1.0200625,0.2,0.11978125,1.2845,0.9869687500000001,-0.25309375,-0.3198125,1.24759375,0.018681894964431085,0.018075540261669368,True
40662,600,0,601,4268.0,42327.0,31474.0,-0.001281,0.000183,0.00061,0.45500000000000007,-0.5775,-3.43,1.02946875,0.20390625,0.13,1.2550000000000001,0.9868125,-0.24475,-0.30943750000000003,1.26028125,0.018505294960764702,0.018076827158176736,True
40663,601,0,602,4268.0,42328.0,31474.0,0.0008539999999999999,0.000183,0.000244,0.17500000000000002,-0.8925000000000001,-3.5175000000000005,1.0287187500000001,0.19178125000000001,0.11834375,1.26140625,1.00065625,-0.25284375,-0.31340625,1.2466875,0.018332901682921204,0.017757692836642334,True
40664,602,0,603,4267.0,42327.0,31474.0,0.0011589999999999999,-0.001464,0.000488,0.035,-1.1725,-3.5000000000000004,1.0070625,0.20390625,0.12225,1.2875,0.98903125,-0.25690625,-0.320625,1.2475,0.01899716704392177,0.018209852748438827,True
40665,603,0,604,4269.0,42324.0,31471.0,0.003538,-0.002562,-0.0011589999999999999,0.052500000000000005,-1.435,-3.4650000000000003,1.017875,0.202,0.13209375,1.25121875,0.98490625,-0.2498125,-0.31196875,1.25615625,0.01863158735763421,0.018265180601632687,True
40666,604,0,605,4269.0,42324.0,31465.0,0.004026,-0.001769,-0.0023179999999999997,0.0175,-1.5050000000000001,-3.5875000000000004,1.02665625,0.1915625,0.120375,1.2733125,1.00215625,-0.25709375,-0.31609375,1.2465625,0.018495878138740342,0.017949788912949887,True
40667,605,0,606,4269.0,42323.0,31464.0,0.003172,-0.000793,-0.001037,0.22750000000000004,-1.5050000000000001,-3.7100000000000004,1.0169062500000001,0.2011875,0.13465625,1.27721875,0.9869687500000001,-0.25025000000000003,-0.31396875,1.2544375,0.018615787466108598,0.01845132749049865,True
40668,606,0,607,4266.0,42321.0,31464.0,-0.001586,0.001281,0.002074,0.665,-1.3475000000000001,-3.7100000000000004,1.042625,0.19918750000000002,0.13090625,1.25496875,0.99440625,-0.2505625,-0.31259375,1.246625,0.018545961562747258,0.018241574903952812,True
40669,607,0,608,4267.0,42322.0,31464.0,-0.0021349999999999997,0.001098,0.0023179999999999997,0.6825000000000001,-1.2950000000000002,-3.7275000000000005,1.01665625,0.18959375,0.12109375,1.24534375,0.98821875,-0.24946875000000002,-0.314,1.2479375,0.018106066756617092,0.017894782841161472,True
40670,608,0,609,4266.0,42324.0,31463.0,-0.0032329999999999998,-0.000122,0.002196,0.7000000000000001,-1.33,-3.6225000000000005,1.02503125,0.18759375,0.12575,1.253875,0.99525,-0.253875,-0.3145,1.24103125,0.018201988342069052,0.018106479672623334,True
40671,609,0,610,4265.0,42325.0,31463.0,-0.002745,0.001037,-0.004758,0.5775,-1.435,-3.6225000000000005,1.02140625,0.18903125,0.12359375,1.2548125,0.99359375,-0.247875,-0.31465625,1.24809375,0.01801833150327606,0.018024108401697023,True
40672,610,0,611,4264.0,42325.0,31465.0,-0.000244,0.000732,-0.0030499999999999998,0.42000000000000004,-1.435,-3.6575,1.02221875,0.19678125,0.12296875,1.2631875000000001,0.99246875,-0.2521875,-0.31478125,1.24821875,0.01851250531524218,0.018003452118245975,True
40673,611,0,612,4264.0,42326.0,31466.0,0.004209,-0.000305,0.0030499999999999998,0.10500000000000001,-1.4700000000000002,-3.6750000000000003,1.01034375,0.200125,0.12978125000000001,1.26284375,0.98946875,-0.25190625,-0.3156875,1.248,0.018638998738501226,0.018320220228196304,True
40674,612,0,613,4261.0,42324.0,31464.0,0.003721,-0.0018909999999999999,0.000976,-0.07,-1.2775,-3.7100000000000004,1.0185,0.1993125,0.12546875,1.26515625,0.99,-0.25340625,-0.31065625,1.2486875,0.01866619250646494,0.01793966380483867,True
40675,613,0,614,4262.0,42323.0,31464.0,0.00244,-0.0011589999999999999,-0.003111,0.0175,-0.9800000000000001,-3.7275000000000005,1.01875,0.19746875,0.1273125,1.2706250000000001,0.98965625,-0.24296875,-0.31496875,1.254375,0.018167638812800105,0.018189669686497132,True
40676,614,0,615,4260.0,42323.0,31464.0,0.001098,0.00042699999999999997,-0.00244,0.31500000000000006,-0.6300000000000001,-3.6050000000000004,1.0210000000000001,0.19925,0.128875,1.26265625,0.99403125,-0.2510625,-0.31340625,1.2469375,0.01856877404855973,0.018190838644832005,True
40677,615,0,616,4262.0,42325.0,31465.0,-0.0030499999999999998,0.001586,0.0028669999999999998,0.5775,-0.43750000000000006,-3.5525,1.02615625,0.195375,0.12865625,1.26521875,0.99640625,-0.25328125,-0.31353125,1.2425625,0.018498785602463583,0.018186889245057725,True
40678,616,0,617,4259.0,42328.0,31467.0,-0.005612,-6.1e-05,-0.001403,0.56,-0.3325,-3.5875000000000004,1.0261875,0.19865625,0.12859375,1.2649062500000001,0.995625,-0.2529375,-0.314375,1.2476875,0.018620167144701542,0.01821838932730124,True
40679,617,0,618,4260.0,42329.0,31468.0,-0.0042699999999999995,0.001098,-0.0021349999999999997,0.47250000000000003,-0.5075000000000001,-3.5875000000000004,1.0278125,0.19734375,0.12825,1.26609375,0.9959375,-0.253875,-0.31459375,1.24215625,0.01860398596100623,0.018213084477300797,True
40680,618,0,619,4261.0,42332.0,31467.0,-0.0015249999999999999,0.000488,0.000549,0.31500000000000006,-0.8225000000000001,-3.6575,1.0204375,0.1993125,0.12778125,1.272375,0.99003125,-0.2506875,-0.31659375,1.25540625,0.018556174953802854,0.01827455788292717,True
40681,619,0,620,4260.0,42332.0,31469.0,0.001098,-0.00061,0.0040869999999999995,0.15750000000000003,-1.155,-3.5525,1.01903125,0.2000625,0.13425,1.26503125,0.99184375,-0.251125,-0.31315625,1.2491875000000001,0.018604806993489993,0.018401816917538217,True
40682,620,0,621,4262.0,42330.0,31467.0,0.005673,-0.002928,-0.002074,-0.0175,-1.4875,-3.5175000000000005,1.019625,0.20378125,0.12784375,1.26896875,0.9902500000000001,-0.25075000000000003,-0.3140625,1.24896875,0.018742977021329238,0.018174924490713968,True
40683,621,0,622,4260.0,42330.0,31466.0,0.005429,-0.0011589999999999999,-0.0013419999999999999,0.12250000000000001,-1.3475000000000001,-3.6750000000000003,1.0112812500000001,0.19959375000000001,0.12884375,1.26628125,0.989625,-0.2506875,-0.30828125,1.24896875,0.018567772563148982,0.017982554813495914,True
40684,622,0,623,4260.0,42330.0,31467.0,0.0040869999999999995,0.001464,-0.000244,0.31500000000000006,-0.9275000000000001,-3.7450000000000006,1.02375,0.1970625,0.12415625,1.27021875,0.9925625,-0.25190625,-0.31653125,1.25446875,0.01851272000525732,0.018122959046636227,True
40685,623,0,624,4260.0,42329.0,31468.0,-0.000244,0.0025009999999999998,-0.000244,0.47250000000000003,-0.5775,-3.6400000000000006,1.02059375,0.199125,0.1293125,1.25959375,0.9925,-0.2514375,-0.31390625,1.2492812500000001,0.01857879558685954,0.018229022742900475,True
40686,624,0,625,4259.0,42331.0,31468.0,-0.002257,0.000915,0.0017079999999999999,0.56,-0.07,-3.6050000000000004,1.02284375,0.1980625,0.12584375,1.2715625,0.9900625000000001,-0.25365625,-0.31615625,1.253875,0.018624769203612345,0.018177214994660188,True
40687,625,0,626,4260.0,42332.0,31468.0,-0.007137,0.000488,0.000305,0.5950000000000001,0.22750000000000004,-3.5875000000000004,1.0115625,0.19853125,0.1284375,1.26315625,0.99353125,-0.24340625000000002,-0.31325000000000003,1.2460625,0.018229183450654753,0.01816653470844087,True
40688,626,0,627,4260.0,42334.0,31471.0,-0.007137,0.000488,0.0008539999999999999,0.8575,0.035,-3.5875000000000004,1.0200625,0.20128125,0.1261875,1.2647187500000001,0.9891875,-0.250875,-0.31390625,1.25496875,0.01864494580092471,0.018100495472626908,True
40689,627,0,628,4261.0,42337.0,31473.0,-0.006222,0.00244,0.002074,0.8575,-0.45500000000000007,-3.7100000000000004,1.02240625,0.20178125,0.129625,1.27240625,0.99475,-0.2505625,-0.31321875,1.249625,0.01865291784468917,0.01821411449275921,True
40690,628,0,629,4261.0,42342.0,31475.0,-0.003355,0.001464,0.0032329999999999998,0.7000000000000001,-0.8750000000000001,-3.7100000000000004,1.02065625,0.2000625,0.12740625,1.27134375,0.99653125,-0.25003125,-0.311625,1.25290625,0.01856054309208364,0.01805849053693449,True
40691,629,0,630,4261.0,42339.0,31474.0,0.002623,-0.001037,-0.000488,0.5075000000000001,-1.4875,-3.5875000000000004,1.02,0.19946875,0.12828125,1.273625,0.99021875,-0.25003125,-0.3131875,1.25515625,0.018536058587553368,0.0181575842328366,True
40692,630,0,631,4261.0,42338.0,31472.0,0.009333,-0.003355,-0.003965,0.15750000000000003,-1.8025000000000002,-3.5700000000000003,1.01925,0.19946875,0.129125,1.27225,0.99575,-0.25025000000000003,-0.313,1.253875,0.01854491190812466,0.018184715995557932,True
40693,631,0,632,4261.0,42339.0,31473.0,0.003111,0.000244,0.003538,0.42000000000000004,-2.1525000000000003,-3.7625,1.0206250000000001,0.204375,0.12653125,1.26625,0.9921562500000001,-0.250625,-0.3164375,1.2535,0.01876240303084972,0.018216844058674304,True
40694,632,0,633,4261.0,42340.0,31474.0,0.00244,0.000366,0.002257,0.49000000000000005,-1.5225000000000002,-3.5175000000000005,1.02003125,0.19721875,0.1285,1.2654375,0.9899375,-0.25028125,-0.31525000000000003,1.248,0.018453394226097892,0.018249863768622573,True
40695,633,0,634,4263.0,42338.0,31474.0,-0.000366,-0.00061,-0.0046359999999999995,0.36750000000000005,-1.7500000000000002,-3.535,1.02528125,0.1985,0.1295,1.266,0.9910625000000001,-0.2531875,-0.3140625,1.24975,0.018623840680735266,0.018243043506201404,True
40696,634,0,635,4263.0,42339.0,31472.0,0.004209,-0.0006709999999999999,-0.004758,0.22750000000000004,-1.1900000000000002,-3.7625,1.02265625,0.19784375,0.128625,1.26653125,0.98928125,-0.2576875,-0.31403125,1.24734375,0.018778840728325818,0.018205794236609774,True
40697,635,0,636,4261.0,42338.0,31473.0,0.001647,0.000976,0.0044529999999999995,0.5075000000000001,0.052500000000000005,-3.5875000000000004,1.025125,0.19893750000000002,0.12921875,1.26603125,0.9929375,-0.25771875,-0.31371875,1.2434375,0.01882519352731798,0.018217595776047216,True
40698,636,0,637,4263.0,42339.0,31474.0,-0.0062829999999999995,0.002562,0.002013,0.5425000000000001,0.5075000000000001,-3.5000000000000004,1.0207187500000001,0.19893750000000002,0.1264375,1.27121875,0.9824375000000001,-0.24828125,-0.31753125,1.2605625,0.01844331750317355,0.018257147299851832,True
40699,637,0,638,4262.0,42345.0,31477.0,-0.009028,0.001586,-0.000366,0.42000000000000004,0.805,-3.4650000000000003,1.020875,0.20121875,0.129125,1.26540625,1.00446875,-0.25596875,-0.3065625,1.2430625,0.01884845353785344,0.017924685977295227,True
40700,638,0,639,4259.0,42345.0,31477.0,-0.008539999999999999,0.0,0.00042699999999999997,0.2625,0.7350000000000001,-3.3950000000000005,1.0274375,0.19634375,0.12587500000000001,1.26584375,0.98384375,-0.25228125,-0.31975000000000003,1.26403125,0.01849825982865014,0.01832358474079709,True
40701,639,0,640,4261.0,42346.0,31479.0,-0.003904,-0.0008539999999999999,-0.000183,0.24500000000000002,0.7175,-3.3950000000000005,1.0205,0.2021875,0.12737500000000002,1.26546875,0.9791562500000001,-0.2485625,-0.31553125,1.257875,0.018588730775277916,0.01821495263444018,True
40702,640,0,641,4263.0,42349.0,31481.0,-0.001769,-0.0021349999999999997,0.000366,0.43750000000000006,0.052500000000000005,-3.4475000000000002,1.009125,0.19759375,0.12512500000000001,1.2660625,0.984125,-0.24803125,-0.3195,1.2553125,0.018377780670337927,0.018282653837455542,True
40703,641,0,642,4262.0,42351.0,31481.0,-0.000122,-0.000549,-0.000793,0.5425000000000001,-0.43750000000000006,-3.5525,1.0170937500000001,0.19696875,0.1264375,1.268375,0.9819375,-0.24753125,-0.3145,1.254375,0.018331763156300706,0.018134754981595346,True
40704,642,0,643,4264.0,42354.0,31481.0,0.00244,0.0011589999999999999,-0.001769,0.5075000000000001,-0.7875000000000001,-3.6400000000000006,1.01921875,0.2078125,0.12684375,1.2669375,0.9954375,-0.24921875000000002,-0.31403125,1.2664375,0.01884725667708367,0.018132534069191016,True
40705,643,0,644,4265.0,42355.0,31483.0,0.00366,0.000793,-0.000549,0.56,-0.9625000000000001,-3.7275000000000005,1.01959375,0.19975,0.12840625,1.27040625,0.9928750000000001,-0.24853125,-0.31659375,1.2630000000000001,0.018486944441222602,0.018300260495983326,True
40706,644,0,645,4264.0,42355.0,31485.0,0.0053679999999999995,0.001098,-0.000183,0.49000000000000005,-0.8225000000000001,-3.7275000000000005,1.02684375,0.19796875,0.12771875,1.271625,1.0051875000000001,-0.254625,-0.319125,1.251625,0.0186601009085896,0.018374170534507305,True
40707,645,0,646,4263.0,42355.0,31486.0,-0.0008539999999999999,0.0,-0.00042699999999999997,0.3325,-0.525,-3.6750000000000003,1.02521875,0.20140625,0.128375,1.26590625,1.00465625,-0.25621875,-0.31315625,1.24275,0.018866295885462365,0.018160178195704233,True
40708,646,0,647,4264.0,42355.0,31487.0,-0.001037,0.0,0.000183,0.3325,-0.4025,-3.5875000000000004,1.019875,0.19968750000000002,0.128625,1.27178125,0.983625,-0.24865625,-0.31303125,1.25125,0.018489426604824753,0.018165412838022817,True
40709,647,0,648,4266.0,42356.0,31488.0,-0.001403,-6.1e-05,0.000244,0.4025,-0.47250000000000003,-3.6050000000000004,1.01609375,0.1993125,0.12890625,1.26646875,0.9958125,-0.24728125,-0.31165625,1.24971875,0.018418302051905304,0.01812145151566957,True
40710,648,0,649,4264.0,42360.0,31488.0,-0.002562,0.000183,0.001098,0.56,-0.4025,-3.6575,1.0194375,0.1985,0.1263125,1.26975,0.98975,-0.25321875,-0.314875,1.2546875,0.018625105172895867,0.018144757067433,True
40711,649,0,650,4266.0,42362.0,31490.0,-0.0018909999999999999,0.000915,0.001098,0.7175,-0.42000000000000004,-3.6225000000000005,1.02684375,0.1970625,0.12759375,1.27175,0.999,-0.25109375,-0.314125,1.255625,0.01847983660530775,0.018167166204829496,True
40712,650,0,651,4266.0,42364.0,31493.0,-0.000244,0.00244,-0.000732,0.4025,-0.7350000000000001,-3.6225000000000005,1.0269375,0.19593750000000001,0.12746875,1.26553125,0.9954375,-0.251625,-0.3155,1.2538125,0.018454948895177126,0.018217546421007178,True
40713,651,0,652,4268.0,42363.0,31491.0,0.0018909999999999999,-0.000915,-0.000915,0.1925,-0.77,-3.6750000000000003,1.01784375,0.19975,0.12884375,1.2655625,0.99528125,-0.251,-0.3128125,1.24009375,0.01858686239742691,0.018165576277939872,True
40714,652,0,653,4268.0,42366.0,31495.0,0.0026839999999999998,-0.001586,0.0011589999999999999,0.07,-0.6825000000000001,-3.7100000000000004,1.02021875,0.199,0.12909375,1.265875,0.9794375000000001,-0.2504375,-0.312375,1.24475,0.01853317079331043,0.018158191044684035,True
40715,653,0,654,4268.0,42365.0,31494.0,0.003111,-0.001952,-6.1e-05,0.10500000000000001,-0.5075000000000001,-3.5700000000000003,1.0205,0.19918750000000002,0.12746875,1.2724375,0.9899687500000001,-0.25275000000000003,-0.3150625,1.25671875,0.01863448474915216,0.018199881246449605,True
40716,654,0,655,4271.0,42367.0,31494.0,0.000122,-0.000915,-0.0026839999999999998,0.21000000000000002,-0.4025,-3.4650000000000003,1.0266250000000001,0.2005,0.128375,1.2658125,0.9960625000000001,-0.2513125,-0.31390625,1.24578125,0.01863043495068566,0.018190464561818404,True
40717,655,0,656,4270.0,42366.0,31494.0,-0.002379,0.000244,0.001647,0.385,-0.42000000000000004,-3.4475000000000002,1.020125,0.20040625,0.12925,1.26625,0.99040625,-0.24853125,-0.31184375000000003,1.2471875000000001,0.018514007936047672,0.018143163247337012,True
40718,656,0,657,4272.0,42368.0,31498.0,-0.0011589999999999999,-0.000732,0.005856,0.15750000000000003,-0.43750000000000006,-3.3950000000000005,1.01946875,0.19593750000000001,0.1338125,1.26584375,0.99234375,-0.2525625,-0.314,1.24615625,0.01849289121510356,0.01841788681418113,True
40719,657,0,658,4273.0,42369.0,31495.0,0.00183,-6.1e-05,-0.000549,-0.035,-0.35000000000000003,-3.5000000000000004,1.019875,0.19959375000000001,0.1291875,1.26515625,0.99090625,-0.25025000000000003,-0.310375,1.24896875,0.018550066494159856,0.018081271884946244,True
40720,658,0,659,4272.0,42369.0,31498.0,0.004758,-0.001281,-0.0046359999999999995,-0.052500000000000005,-0.21000000000000002,-3.6400000000000006,1.0185,0.20046875,0.12446875,1.2749375,0.99725,-0.25175000000000003,-0.31671875,1.2563125,0.018646850227303183,0.018143381289879006,True
40721,659,0,660,4274.0,42368.0,31499.0,0.0021349999999999997,-0.000366,-0.001037,0.12250000000000001,0.08750000000000001,-3.6925000000000003,1.02971875,0.2005625,0.12940625,1.2629375,0.99334375,-0.250125,-0.31359375,1.24903125,0.018584955747650785,0.018220260014009653,True
40722,660,0,661,4276.0,42373.0,31500.0,-0.007442,0.001586,0.002806,0.5425000000000001,0.43750000000000006,-3.5700000000000003,1.01759375,0.19996875,0.13009375,1.26346875,0.99053125,-0.249875,-0.3093125,1.2411875,0.018550353352336867,0.018075634594766923,True
40723,661,0,662,4275.0,42375.0,31503.0,-0.007137,0.002013,0.000366,0.665,0.1925,-3.6925000000000003,1.02046875,0.1950625,0.12762500000000002,1.2770625,0.9953125,-0.25109375,-0.31575000000000003,1.2448125,0.018397366098178564,0.018234066397293937,True
40724,662,0,663,4277.0,42377.0,31504.0,-0.00549,0.0021349999999999997,6.1e-05,0.56,0.0,-3.5875000000000004,1.031125,0.19975,0.13165625,1.2640625,0.9981875,-0.250625,-0.31271875,1.2434375,0.018571686296744928,0.018277470511190774,True
40725,663,0,664,4277.0,42375.0,31506.0,-0.000366,0.000549,0.002013,0.43750000000000006,-0.24500000000000002,-3.6400000000000006,1.01625,0.2014375,0.130875,1.27396875,0.98790625,-0.246,-0.31253125,1.25553125,0.018454074898952406,0.01823776576122653,True
40726,664,0,665,4278.0,42378.0,31503.0,0.002806,-0.000549,-6.1e-05,0.21000000000000002,-0.5950000000000001,-3.6575,1.0275,0.19843750000000002,0.12953125000000001,1.26425,0.996,-0.250625,-0.3115,1.247125,0.01851756398030979,0.01814084898093495,True
40727,665,0,666,4279.0,42379.0,31506.0,0.004392,-0.002562,-0.00061,-0.08750000000000001,-1.0150000000000001,-3.6225000000000005,1.01740625,0.2016875,0.12753125,1.27378125,0.9901875,-0.24690625,-0.315125,1.2536875,0.01850107165733773,0.018204975298296844,True
40728,666,0,667,4278.0,42378.0,31505.0,0.004697,-0.0032329999999999998,-0.001769,-0.28,-1.0850000000000002,-3.6750000000000003,1.01140625,0.20046875,0.130375,1.27584375,0.9897812500000001,-0.2498125,-0.31209375,1.25321875,0.018568442539504168,0.018199532897079256,True
40729,667,0,668,4279.0,42375.0,31503.0,0.003904,-0.002745,-0.002806,-0.12250000000000001,-0.7525000000000001,-3.6400000000000006,1.0176875,0.200625,0.1311875,1.27196875,0.9878125,-0.25096875,-0.30809375,1.25278125,0.018621678773141796,0.018071398543952052,True
40730,668,0,669,4278.0,42376.0,31506.0,0.0006709999999999999,-0.001586,0.000244,0.22750000000000004,-0.47250000000000003,-3.6750000000000003,1.02734375,0.19490625,0.13015625,1.26371875,0.99284375,-0.2526875,-0.31396875,1.24940625,0.018455428908651875,0.018266248697058146,True
40731,669,0,670,4280.0,42379.0,31505.0,-0.001098,0.0006709999999999999,0.000732,0.47250000000000003,-0.28,-3.7625,1.016875,0.2005,0.12737500000000002,1.2725625,0.9905,-0.25065625,-0.31453125,1.25334375,0.018603877987837962,0.018174574103705987,True
40732,670,0,671,4280.0,42378.0,31508.0,-0.0053679999999999995,0.0025009999999999998,0.000122,0.6300000000000001,0.07,-3.7450000000000006,1.0178125,0.20021875,0.1265625,1.2706250000000001,0.99028125,-0.2504375,-0.31325000000000003,1.25053125,0.01858342761857389,0.01808941626479389,True
40733,671,0,672,4278.0,42382.0,31511.0,-0.007503,0.001281,0.000732,0.7525000000000001,0.035,-3.6925000000000003,1.020375,0.199625,0.12646875,1.2711875000000001,0.98565625,-0.249375,-0.3144375,1.25196875,0.018515941132503416,0.018133516352167305,True
40734,672,0,673,4283.0,42383.0,31512.0,-0.006222,0.001586,0.004514,0.7525000000000001,-0.31500000000000006,-3.5175000000000005,1.0208125000000001,0.20046875,0.129125,1.26621875,0.9791562500000001,-0.24990625,-0.31578125,1.25534375,0.018572236748337946,0.01829701646949962,True
40735,673,0,674,4282.0,42387.0,31513.0,-0.003965,0.00122,0.0023179999999999997,0.6300000000000001,-0.8400000000000001,-3.4825000000000004,1.02103125,0.19868750000000002,0.12659375,1.2725625,0.991,-0.24953125,-0.31678125,1.27178125,0.018483604708853907,0.018233293109054062,True
40736,674,0,675,4283.0,42386.0,31513.0,-0.000915,0.000366,0.00042699999999999997,0.36750000000000005,-1.4525000000000001,-3.6400000000000006,1.01996875,0.19915625,0.13003125000000001,1.2673125,0.9755625,-0.25125000000000003,-0.311875,1.2423125,0.018572496263079222,0.018176559808735445,True
40737,675,0,676,4284.0,42385.0,31513.0,0.007076,-0.001586,-0.002928,0.28,-2.2750000000000004,-3.6225000000000005,1.02353125,0.19834375,0.1256875,1.26221875,0.9855,-0.24709375,-0.3178125,1.26934375,0.01837075835119415,0.018237660151380806,True
40738,676,0,677,4285.0,42383.0,31511.0,0.010675,-0.002196,-0.002379,0.052500000000000005,-2.0475000000000003,-3.8150000000000004,1.02028125,0.199875,0.12909375,1.26615625,1.0149375,-0.2539375,-0.31253125,1.24125,0.0187108794190634,0.018164501073906075,True
40739,677,0,678,4284.0,42383.0,31507.0,0.010003999999999999,-0.0034159999999999998,-0.0030499999999999998,0.0175,-1.6275000000000002,-3.7625,1.0200625,0.1968125,0.12665625,1.27225,0.9780625000000001,-0.24546875,-0.30643750000000003,1.23740625,0.018241810647608124,0.01781806774439899,True
40740,678,0,679,4285.0,42382.0,31510.0,0.0037819999999999998,-0.002623,-0.001464,0.17500000000000002,-1.0850000000000002,-3.6925000000000003,1.02565625,0.19921875,0.13546875,1.2664375,0.9800625000000001,-0.24606250000000002,-0.3068125,1.23915625,0.01836509536342241,0.018195773304294834,True
40741,679,0,680,4284.0,42385.0,31510.0,-0.0025009999999999998,0.000122,0.000915,0.56,-0.5775,-3.5000000000000004,1.0200625,0.20271875,0.1325,1.27171875,0.97809375,-0.24640625,-0.30653125000000003,1.2425,0.01852336364280789,0.018062274928677867,True
40742,680,0,681,4287.0,42384.0,31509.0,-0.009271999999999999,0.002928,0.002013,0.665,-0.1925,-3.535,1.02696875,0.19790625,0.1259375,1.26925,1.00071875,-0.2593125,-0.317375,1.2746250000000001,0.018847143751497493,0.01823027773351359,True
40743,681,0,682,4286.0,42385.0,31508.0,-0.006222,0.001464,0.000976,0.45500000000000007,-0.36750000000000005,-3.5700000000000003,1.02140625,0.19809375,0.12796875,1.266,1.01371875,-0.26256250000000003,-0.325375,1.27175,0.018986298335140817,0.01863666027759079,True
40744,682,0,683,4287.0,42385.0,31507.0,-0.002562,-0.000244,0.0017079999999999999,0.43750000000000006,-0.5425000000000001,-3.6400000000000006,1.02084375,0.20034375000000001,0.12728125,1.2745625,0.987375,-0.24284375,-0.30643750000000003,1.2703125,0.018281168025100193,0.017843781097085905,True
40745,683,0,684,4286.0,42387.0,31506.0,-0.0021349999999999997,-0.000732,0.002013,0.385,-0.77,-3.6225000000000005,1.0241875,0.19993750000000002,0.128125,1.26459375,1.01475,-0.25596875,-0.31575000000000003,1.248125,0.018795631487610653,0.018254629201237882,True
40746,684,0,685,4284.0,42387.0,31504.0,0.002257,0.000122,-0.001769,0.31500000000000006,-1.225,-3.7100000000000004,1.01915625,0.20003125,0.129625,1.26625,0.9831562500000001,-0.2469375,-0.30840625,1.2392812500000001,0.018434029039749864,0.018019743684347878,True
40747,685,0,686,4284.0,42385.0,31502.0,0.003355,-0.001281,-0.0017079999999999999,0.08750000000000001,-1.8025000000000002,-3.7975000000000003,1.0244375000000001,0.19718750000000002,0.12712500000000002,1.27390625,0.98721875,-0.25459375,-0.31896875,1.26103125,0.018626626141697383,0.018343448465511107,True
40748,686,0,687,4282.0,42383.0,31500.0,0.003721,-0.000915,-0.00122,0.10500000000000001,-1.7500000000000002,-3.8325000000000005,1.0198125,0.20046875,0.12953125000000001,1.2710625,0.99815625,-0.24740625,-0.30640625,1.2469375,0.018471047805370934,0.017935086557684766,True
40749,687,0,688,4282.0,42382.0,31500.0,0.0025009999999999998,-0.000549,0.000244,0.24500000000000002,-1.8025000000000002,-3.8325000000000005,1.0253125,0.19784375,0.128625,1.2667187500000001,0.98959375,-0.2553125,-0.31171875,1.24553125,0.01868276279680998,0.01811240721102863,True
40750,688,0,689,4280.0,42383.0,31498.0,0.00061,-0.001464,-0.000183,0.35000000000000003,-1.7325000000000002,-3.7625,1.0205312500000001,0.19818750000000002,0.12975,1.266375,0.9967812500000001,-0.24825,-0.31075,1.2496875,0.018411122452135723,0.018119556163425646,True
40751,689,0,690,4279.0,42385.0,31496.0,0.00061,-0.000732,0.00061,0.35000000000000003,-1.61,-3.8675,1.0276875,0.19965625,0.1295625,1.26590625,0.99790625,-0.25015625,-0.31278125,1.25153125,0.018548849556381728,0.01819387693458559,True
40752,690,0,691,4278.0,42383.0,31495.0,-0.000366,0.001403,0.000122,0.7000000000000001,-1.6625,-3.9200000000000004,1.027375,0.197625,0.12640625,1.26840625,0.9980625000000001,-0.25328125,-0.3136875,1.2488125,0.018591556554847604,0.01810065832260121,True
40753,691,0,692,4276.0,42383.0,31496.0,0.00042699999999999997,0.002196,0.000549,0.7000000000000001,-1.5925000000000002,-3.9375000000000004,1.02121875,0.20078125,0.1289375,1.271875,0.984375,-0.25015625,-0.31221875,1.254625,0.01859524101004504,0.01814545412479065,True
40754,692,0,693,4276.0,42382.0,31497.0,0.001464,0.001403,-0.000183,0.525,-1.5575,-3.9550000000000005,1.02628125,0.19925,0.1291875,1.26684375,0.992,-0.24965625,-0.31325000000000003,1.2503125,0.01851186034853587,0.018197382085899664,True
40755,693,0,694,4276.0,42383.0,31495.0,0.0017079999999999999,0.001281,-0.000549,0.4025,-1.435,-4.077500000000001,1.02075,0.20034375000000001,0.12934375,1.26578125,0.99003125,-0.24953125,-0.30628125,1.2541875,0.018551904998163626,0.017922322033527855,True
40756,694,0,695,4275.0,42382.0,31497.0,-0.0021349999999999997,0.0008539999999999999,0.0011589999999999999,0.4025,-1.05,-3.8850000000000002,1.0205,0.20046875,0.12915625,1.2705625,0.993625,-0.2466875,-0.31225,1.25003125,0.01844195212232599,0.018155713683431194,True
40757,695,0,696,4273.0,42386.0,31497.0,-0.004758,-0.00042699999999999997,0.000244,0.1925,-1.0325000000000002,-3.8675,1.02515625,0.19778125,0.12790625,1.2705,0.9959375,-0.2475,-0.313625,1.246375,0.018364006598618414,0.018159828079934607,True
40758,696,0,697,4272.0,42385.0,31497.0,-0.005063,-0.001769,0.000183,0.21000000000000002,-1.2775,-3.8675,1.0205,0.20346875,0.12896875,1.26684375,0.99003125,-0.24859375,-0.31221875,1.25009375,0.018642833669478255,0.018146739486703572,True
40759,697,0,698,4273.0,42385.0,31498.0,-0.004331,-0.0008539999999999999,0.0011589999999999999,0.14,-1.5750000000000002,-3.7975000000000003,1.01303125,0.200375,0.12928125000000001,1.2670625,0.9918125,-0.24959375,-0.3155625,1.25615625,0.01855572322732211,0.01829461070456421,True
40760,698,0,699,4269.0,42385.0,31497.0,-0.000305,0.000183,0.000366,0.14,-1.8725000000000003,-3.7275000000000005,1.00846875,0.2046875,0.1299375,1.2649375,0.994,-0.24996875000000002,-0.31193750000000003,1.24915625,0.01874873550094781,0.018175227704497022,True
40761,699,0,700,4270.0,42383.0,31497.0,0.004514,-0.0023179999999999997,-0.001647,-0.0175,-2.5025000000000004,-3.8325000000000005,1.01646875,0.20234375000000002,0.12603125,1.27996875,0.99665625,-0.25375000000000003,-0.31590625,1.25725,0.018805081688398704,0.018174831546737023,True
40762,700,0,701,4270.0,42382.0,31495.0,0.0059169999999999995,-0.001403,-0.0013419999999999999,-0.052500000000000005,-2.555,-3.9025000000000003,1.03728125,0.19496875,0.12184375,1.2705,0.99221875,-0.247125,-0.31253125,1.249625,0.018232831727472844,0.01786630094305791,True
40763,701,0,702,4270.0,42381.0,31495.0,0.005429,-0.001464,-0.00042699999999999997,0.07,-2.4850000000000003,-3.9550000000000005,1.01946875,0.20134375000000002,0.1308125,1.2612812500000001,0.9781875,-0.2494375,-0.31084375000000003,1.25371875,0.01858934872200644,0.01816704736955088,True
40764,702,0,703,4267.0,42380.0,31494.0,0.0037819999999999998,0.00061,-0.00122,0.1925,-2.2750000000000004,-3.99,1.01971875,0.20275,0.12546875,1.28121875,0.9931875,-0.25384375,-0.30871875,1.253875,0.018825624288933585,0.01786138975341923,True
40765,703,0,704,4268.0,42378.0,31492.0,0.000305,0.000488,-0.000183,0.36750000000000005,-2.1525000000000003,-3.9375000000000004,1.0363125,0.19425,0.1303125,1.2796875,0.991,-0.24971875000000002,-0.3123125,1.24990625,0.018308202028116307,0.01820579593158816,True
40766,704,0,705,4268.0,42381.0,31495.0,-0.005246,0.001586,0.001098,0.45500000000000007,-1.9075000000000002,-3.7450000000000006,1.033875,0.19525,0.1266875,1.28278125,0.99059375,-0.25059375,-0.3144375,1.2496562500000001,0.018384859133603687,0.01814251306451157,True
40767,705,0,706,4266.0,42378.0,31495.0,-0.003538,0.000732,0.000549,0.43750000000000006,-1.8550000000000002,-3.7450000000000006,1.0344375000000001,0.19521875,0.13171875,1.26159375,0.9917812500000001,-0.25,-0.31440625,1.25565625,0.018359536082474228,0.018348175785703177,True
40768,706,0,707,4267.0,42379.0,31491.0,-0.0018909999999999999,0.000122,0.001586,0.35000000000000003,-2.1,-3.7450000000000006,1.0135625,0.2014375,0.12996875,1.2530000000000001,0.997,-0.252625,-0.312375,1.24971875,0.018722200174207948,0.018194180946945745,True
40769,707,0,708,4268.0,42379.0,31492.0,0.0011589999999999999,-0.0006709999999999999,0.000122,0.35000000000000003,-2.24,-3.8500000000000005,1.01253125,0.20115625,0.131625,1.260875,0.9908750000000001,-0.25078125,-0.31484375000000003,1.25903125,0.01863599755162527,0.01836198309931562,True
40770,708,0,709,4266.0,42378.0,31490.0,0.003721,-0.00183,-0.000366,0.36750000000000005,-2.1875,-3.9025000000000003,1.0145,0.20175,0.13196875,1.26775,1.0,-0.252,-0.3153125,1.24653125,0.0187097971301336,0.018395044275083858,True
40771,709,0,710,4266.0,42375.0,31489.0,0.004697,0.001403,-0.00183,0.35000000000000003,-1.8900000000000001,-3.9725000000000006,1.0215625,0.19571875,0.12646875,1.27428125,0.9928750000000001,-0.247875,-0.31284375000000003,1.2566875,0.018294128866962567,0.018069153263899868,True
40772,710,0,711,4267.0,42374.0,31490.0,-0.000549,0.002196,-0.000793,0.385,-1.6450000000000002,-3.8850000000000002,1.0285,0.19484375,0.12921875,1.26321875,0.99046875,-0.2465,-0.31203125,1.2500625,0.018202369414142248,0.018149450182201456,True
40773,711,0,712,4266.0,42375.0,31488.0,-0.0030499999999999998,0.000793,0.001769,0.31500000000000006,-1.4000000000000001,-3.7450000000000006,1.01815625,0.2011875,0.13140625,1.26828125,0.9904375,-0.249625,-0.31228125,1.2550000000000001,0.018590493667427845,0.01824952152525794,True
40774,712,0,713,4265.0,42378.0,31489.0,-0.003965,-0.000366,0.00366,0.1925,-1.2075,-3.7275000000000005,1.02528125,0.198875,0.1256875,1.2739375,0.9868125,-0.2521875,-0.316125,1.2510937500000001,0.01859883773370959,0.018169527422646495,True
40775,713,0,714,4265.0,42377.0,31490.0,-0.00488,-0.0018909999999999999,-0.0021349999999999997,0.21000000000000002,-1.4000000000000001,-3.7275000000000005,1.02803125,0.19868750000000002,0.12915625,1.2666875,0.9915,-0.25028125,-0.31203125,1.2498125,0.01851396053396288,0.018146879438549583,True
40776,714,0,715,4264.0,42378.0,31490.0,0.000305,-0.000976,-0.000976,0.2625,-1.8550000000000002,-3.7100000000000004,1.0204375,0.19965625,0.12996875,1.27278125,0.99053125,-0.2518125,-0.31446875,1.25621875,0.018615876648394834,0.018278725501662464,True
40777,715,0,716,4263.0,42377.0,31489.0,0.0025009999999999998,0.000366,0.0055509999999999995,0.36750000000000005,-1.9250000000000003,-3.8675,1.02615625,0.19721875,0.1280625,1.266375,0.9993125,-0.2500625,-0.31246875,1.25,0.018444540091391518,0.018119560564987872,True
40778,716,0,717,4262.0,42377.0,31490.0,0.0048189999999999995,-0.000305,0.002562,0.14,-1.8200000000000003,-3.9550000000000005,1.02078125,0.201,0.12646875,1.27425,0.9897812500000001,-0.25240625,-0.3156875,1.2559375,0.018695309872602848,0.018183991301911576,True
40779,717,0,718,4263.0,42374.0,31491.0,0.00488,-0.001403,-0.0032329999999999998,0.10500000000000001,-1.7675,-3.99,1.02753125,0.19965625,0.12871875,1.2672812500000001,0.99109375,-0.24971875000000002,-0.31193750000000003,1.24934375,0.018531142758099,0.018125098009979666,True
40780,718,0,719,4262.0,42373.0,31489.0,0.0018909999999999999,0.000305,-0.003843,0.36750000000000005,-1.4000000000000001,-3.99,1.02409375,0.19628125,0.1271875,1.27190625,0.99784375,-0.25140625,-0.31259375,1.23996875,0.018460269700854976,0.0180886191955558,True
40781,719,0,720,4264.0,42377.0,31492.0,-0.0062829999999999995,0.004026,0.004392,0.5075000000000001,-1.0325000000000002,-3.8500000000000005,1.022,0.20025,0.137375,1.26665625,0.9873125,-0.2500625,-0.30865625,1.24984375,0.0185695397692274,0.01834865923532898,True
40782,720,0,721,4260.0,42377.0,31493.0,-0.006771,0.001281,0.000732,0.1925,-0.9975,-3.7275000000000005,1.0090000000000001,0.20096875,0.129375,1.2706250000000001,0.991,-0.24978125,-0.31253125,1.2569375,0.01858779653940177,0.018176069182430355,True
40783,721,0,722,4262.0,42375.0,31490.0,-0.0018909999999999999,-0.0026839999999999998,6.1e-05,0.035,-1.2600000000000002,-3.7275000000000005,1.02121875,0.1993125,0.12540625,1.2750937500000001,0.9985,-0.251625,-0.3155625,1.2540625,0.018594114827356928,0.018135247745142646,True
40784,722,0,723,4260.0,42375.0,31493.0,0.0018909999999999999,-0.003355,-0.001647,-0.1925,-1.3825,-3.8500000000000005,1.021875,0.1993125,0.1294375,1.2667187500000001,0.99034375,-0.24978125,-0.31271875,1.25046875,0.0185194969542251,0.01818621169218272,True
40785,723,0,724,4261.0,42374.0,31493.0,0.007259,-0.002928,-0.0008539999999999999,-0.17500000000000002,-1.3475000000000001,-3.8325000000000005,1.01996875,0.201625,0.129875,1.2612812500000001,0.99003125,-0.2498125,-0.31115625,1.25603125,0.018616123320541137,0.01814110548526461,True
40786,724,0,725,4261.0,42372.0,31493.0,0.005795,-0.0006709999999999999,-0.001403,0.1925,-0.6825000000000001,-3.9025000000000003,1.0250625,0.19778125,0.12703125,1.2705312500000001,0.99871875,-0.25203125,-0.31421875,1.25015625,0.018547415487104812,0.018147817313686053,True
40787,725,0,726,4260.0,42374.0,31492.0,-0.001403,0.000732,-0.000366,0.45500000000000007,-0.2625,-3.9550000000000005,1.0207187500000001,0.2008125,0.1296875,1.26675,0.9835625,-0.24675,-0.31109375,1.244875,0.018458659407961892,0.01813086875204864,True
40788,726,0,727,4260.0,42376.0,31495.0,-0.0073809999999999995,0.002257,0.001403,0.7000000000000001,0.0,-3.8150000000000004,1.0213125,0.200625,0.12896875,1.2690000000000001,0.99103125,-0.249625,-0.3115,1.2546875,0.018567297432434522,0.01811771178248977,True
40789,727,0,728,4260.0,42380.0,31497.0,-0.00976,0.002806,0.001952,0.77,0.035,-3.8675,1.02721875,0.19996875,0.12803125,1.2669375,0.998375,-0.2521875,-0.3123125,1.25065625,0.018643936758282114,0.018111964873765093,True
40790,728,0,729,4260.0,42382.0,31498.0,-0.008784,0.0015249999999999999,0.007137,0.45500000000000007,-0.28,-3.8150000000000004,1.00840625,0.198875,0.12746875,1.2663125,0.9914375,-0.253125,-0.3136875,1.24953125,0.01863677361164798,0.01814435798765613,True
40791,729,0,730,4262.0,42381.0,31497.0,0.003477,-0.001586,0.00061,0.10500000000000001,-0.6825000000000001,-3.9375000000000004,1.02103125,0.20015625,0.130125,1.272,0.9908750000000001,-0.25003125,-0.31303125,1.25584375,0.01856440906648316,0.01822710814802247,True
40792,730,0,731,4259.0,42379.0,31495.0,0.005246,-0.001098,-0.001281,0.17500000000000002,-0.8225000000000001,-3.9550000000000005,1.02534375,0.19890625,0.1289375,1.270375,0.9960625000000001,-0.2525,-0.31271875,1.25465625,0.018612771879187712,0.01816564632451893,True
40793,731,0,732,4260.0,42377.0,31495.0,0.0060999999999999995,0.000305,-0.002196,0.29750000000000004,-0.5425000000000001,-4.0600000000000005,1.02328125,0.2006875,0.12721875,1.26784375,0.9951875,-0.2500625,-0.31196875,1.24878125,0.01858758095984289,0.01806466208130512,True
40794,732,0,733,4261.0,42381.0,31498.0,0.003477,0.002196,0.00042699999999999997,0.385,-0.24500000000000002,-4.165,1.0209062500000001,0.2003125,0.12925,1.2669062500000001,0.9905625,-0.25015625,-0.31184375000000003,1.24571875,0.018575911237685327,0.018143163247337012,True
40795,733,0,734,4261.0,42379.0,31500.0,0.000488,0.0006709999999999999,-0.000122,0.385,0.052500000000000005,-4.077500000000001,1.02078125,0.2071875,0.12790625,1.2706250000000001,0.99128125,-0.25384375,-0.3085625,1.26028125,0.019008584979442692,0.017955350095259642,True
40796,734,0,735,4263.0,42382.0,31498.0,-0.005429,0.00061,0.00061,0.4025,0.36750000000000005,-3.8850000000000002,1.0231875,0.201,0.129,1.2676875,1.00140625,-0.249875,-0.3116875,1.24921875,0.018592879344738893,0.01812656978253772,True
40797,735,0,736,4264.0,42382.0,31503.0,-0.008967,-0.000549,0.002074,0.385,0.1925,-3.7450000000000006,1.02146875,0.19753125,0.12825,1.26640625,0.97609375,-0.25325000000000003,-0.316625,1.25025,0.018586426561388678,0.018295096461782834,True
40798,736,0,737,4264.0,42385.0,31503.0,-0.007808,-0.001281,0.0013419999999999999,0.31500000000000006,-0.3325,-3.7625,1.01465625,0.20078125,0.13003125000000001,1.2745625,0.98775,-0.24859375,-0.31271875,1.2609375,0.01853200250014498,0.018210633066283465,True
40799,737,0,738,4263.0,42383.0,31503.0,-0.0021349999999999997,-0.001037,0.001464,0.1925,-0.8575,-3.8500000000000005,1.03159375,0.200375,0.129125,1.2665,0.993625,-0.25125000000000003,-0.31028125,1.24665625,0.01862275140456678,0.01807491429166415,True
40800,738,0,739,4264.0,42383.0,31503.0,0.002806,-0.00122,-0.000976,0.035,-1.4000000000000001,-3.8850000000000002,1.02278125,0.2034375,0.13153125000000002,1.263125,0.98809375,-0.24703125,-0.31178125,1.2574687500000001,0.01857830533377153,0.018234472227328057,True
40801,739,0,740,4264.0,42386.0,31502.0,0.008235,-0.000122,-0.002074,0.24500000000000002,-1.8550000000000002,-3.9025000000000003,1.036125,0.19321875,0.11837500000000001,1.2590625,1.00340625,-0.25046875,-0.310375,1.24790625,0.01829603809204719,0.017636502933418344,True
40802,740,0,741,4264.0,42382.0,31502.0,0.005429,0.000488,-0.000549,0.1925,-1.61,-3.9025000000000003,1.007625,0.2048125,0.12709375,1.2822500000000001,0.9904375,-0.25528125,-0.3158125,1.26059375,0.01896880705104172,0.018214741950325533,True
40803,741,0,742,4264.0,42382.0,31500.0,0.00061,0.000305,0.0,0.29750000000000004,-1.2425000000000002,-3.9025000000000003,1.04290625,0.19121875,0.1310625,1.25553125,0.9933125,-0.24925,-0.31075,1.24690625,0.018164221573863108,0.018173544625320077,True
40804,742,0,743,4263.0,42381.0,31503.0,-0.002745,0.000915,-0.000244,0.43750000000000006,-1.155,-3.7450000000000006,1.007625,0.20465625,0.1275625,1.27334375,0.9975625,-0.25253125,-0.3153125,1.2533750000000001,0.018851125075861924,0.018213831304861906,True
40805,743,0,744,4265.0,42384.0,31503.0,-0.0044529999999999995,0.000183,-0.000244,0.45500000000000007,-0.9625000000000001,-3.8150000000000004,1.04325,0.1939375,0.1186875,1.2672812500000001,0.9918125,-0.24990625,-0.31240625,1.2474375,0.018302905810202875,0.017731430840992962,True
40806,744,0,745,4262.0,42384.0,31504.0,-0.0018909999999999999,0.000305,0.0011589999999999999,0.385,-0.9800000000000001,-3.7275000000000005,1.00934375,0.2044375,0.134125,1.25725,0.9881875,-0.24809375,-0.30375,1.25496875,0.018662549504535796,0.0180167669598313,True
40807,745,0,746,4265.0,42383.0,31505.0,0.000732,0.001586,0.000305,0.31500000000000006,-1.1900000000000002,-3.6750000000000003,1.008125,0.19540625,0.11946875,1.26446875,0.9993125,-0.25296875,-0.31259375,1.24790625,0.0184874274412282,0.01777113969997545,True
40808,746,0,747,4267.0,42382.0,31507.0,0.002989,-0.000244,-0.0008539999999999999,0.12250000000000001,-1.33,-3.6575,1.0213125,0.20896875,0.13434375,1.26753125,0.988,-0.24828125,-0.3128125,1.2535625000000001,0.018857006617737083,0.018391794449942805,True
40809,747,0,748,4266.0,42382.0,31504.0,0.002806,-0.002806,-0.002013,0.035,-1.33,-3.7100000000000004,1.039625,0.191,0.12003125,1.26553125,0.999125,-0.24990625,-0.3113125,1.24371875,0.018181771321280883,0.01774251184505156,True
40810,748,0,749,4266.0,42385.0,31506.0,0.000305,0.000183,0.000549,0.17500000000000002,-1.1025,-3.6575,1.02278125,0.19965625,0.13075,1.2554375,0.99146875,-0.2494375,-0.31184375000000003,1.25003125,0.01851975947895699,0.018204861570813607,True
40811,749,0,750,4266.0,42384.0,31506.0,-0.002196,0.000793,0.000915,0.525,-0.77,-3.5700000000000003,1.00840625,0.19765625,0.12840625,1.2781875,0.9916875,-0.2521875,-0.31309375,1.25284375,0.0185485845349002,0.018158939563172622,True
40812,750,0,751,4267.0,42386.0,31508.0,-0.002928,0.002562,0.00061,0.56,-0.5775,-3.5700000000000003,1.0305312500000001,0.19871875,0.13065625,1.2645625,0.99171875,-0.2498125,-0.31184375000000003,1.2495625000000001,0.018496277033069844,0.01820100542559632,True
40813,751,0,752,4267.0,42388.0,31508.0,-0.0023179999999999997,0.0021349999999999997,-0.0011589999999999999,0.5075000000000001,-0.5425000000000001,-3.5000000000000004,1.01796875,0.20084375000000002,0.13040625,1.26734375,0.9915625,-0.24865625,-0.31071875,1.2496562500000001,0.018537109659427006,0.018145288279475487,True
40814,752,0,753,4267.0,42387.0,31507.0,-0.000122,0.0006709999999999999,0.0013419999999999999,0.43750000000000006,-0.5425000000000001,-3.4825000000000004,1.02075,0.20096875,0.13034375,1.273875,0.991,-0.24878125,-0.312,1.257125,0.018547323899010388,0.018194461582757487,True
40815,753,0,754,4267.0,42386.0,31504.0,-0.0006709999999999999,-0.0013419999999999999,-0.000793,0.29750000000000004,-0.36750000000000005,-3.6050000000000004,1.02159375,0.19793750000000002,0.12728125,1.26334375,0.99828125,-0.250625,-0.3135,1.2504375,0.01849694595500116,0.018129074382544675,True
40816,754,0,755,4268.0,42387.0,31505.0,-0.001586,0.00042699999999999997,0.00122,0.385,-0.43750000000000006,-3.535,1.012,0.201125,0.13040625,1.2620625,0.9915625,-0.2494375,-0.31046875,1.25671875,0.018580327894203733,0.018135191243484356,True
40817,755,0,756,4270.0,42386.0,31503.0,-0.000732,0.000244,0.0026839999999999998,0.4025,-0.49000000000000005,-3.4125000000000005,1.027,0.19840625,0.13271875,1.25478125,0.9984375,-0.2519375,-0.3125,1.2470937500000001,0.01856939265161804,0.018312339331619538,True
40818,756,0,757,4269.0,42387.0,31502.0,0.001647,-0.001281,-0.002623,0.15750000000000003,-0.43750000000000006,-3.6575,1.02078125,0.200875,0.13103125000000002,1.2733125,0.9910625000000001,-0.24256250000000001,-0.31065625,1.24890625,0.0182916925551909,0.01816847293046645,True
40819,757,0,758,4268.0,42385.0,31499.0,0.001952,-0.002806,-0.0037819999999999998,0.035,-0.2625,-3.8325000000000005,1.02590625,0.19696875,0.12859375,1.2669062500000001,0.998,-0.25284375,-0.31396875,1.25034375,0.018546794125946568,0.01820198522711353,True
40820,758,0,759,4269.0,42388.0,31497.0,-0.0025009999999999998,0.000305,0.002928,0.28,-0.21000000000000002,-3.7450000000000006,1.01921875,0.201,0.129375,1.2733125,0.98253125,-0.24725,-0.31059375,1.2543125,0.01848663250471703,0.018097820009023845,True
40821,759,0,760,4267.0,42386.0,31495.0,-0.0062829999999999995,0.00183,0.002928,0.4025,-0.525,-3.7100000000000004,1.02725,0.19840625,0.12653125,1.26928125,0.99965625,-0.25259375,-0.31421875,1.25378125,0.01859594914461469,0.01812725321474703,True
40822,760,0,761,4265.0,42388.0,31495.0,-0.0053679999999999995,0.00061,-0.001403,0.4025,-0.9450000000000001,-3.6400000000000006,1.02078125,0.20103125,0.12971875,1.26746875,0.9918125,-0.24934375,-0.31143750000000003,1.25040625,0.018572667559302505,0.01814603723041881,True
40823,761,0,762,4265.0,42388.0,31494.0,-0.003172,0.001037,-0.001037,0.3325,-1.435,-3.7450000000000006,1.0156875,0.19793750000000002,0.12821875,1.27546875,0.99040625,-0.251375,-0.3125,1.2580625,0.018527299998453695,0.01812724935732648,True
40824,762,0,763,4264.0,42385.0,31491.0,0.0032329999999999998,0.000976,-0.000366,0.2625,-1.7325000000000002,-3.7625,1.01553125,0.2004375,0.1360625,1.26834375,0.9975625,-0.2495,-0.31096875,1.2501875,0.018554506278479967,0.018388047576261227,True
40825,763,0,764,4259.0,42383.0,31489.0,0.0044529999999999995,-0.0006709999999999999,0.000305,0.17500000000000002,-2.1700000000000004,-3.7275000000000005,1.0289375,0.1983125,0.12890625,1.26665625,0.9968125,-0.25278125,-0.310875,1.24990625,0.018599670914031766,0.018089898039457653,True
40826,764,0,765,4259.0,42380.0,31488.0,0.002989,-0.0008539999999999999,-0.00061,0.15750000000000003,-2.1,-3.6225000000000005,1.02084375,0.2036875,0.12615625,1.27475,0.98684375,-0.24965625,-0.3086875,1.25578125,0.018694852633220314,0.01788840923640982,True
40827,765,0,766,4257.0,42380.0,31485.0,0.002989,-0.000549,-0.002745,0.08750000000000001,-1.8550000000000002,-3.6925000000000003,1.0215625,0.2009375,0.12984375,1.2670937500000001,0.9938750000000001,-0.2495,-0.3108125,1.250625,0.018575125260314643,0.018125936761677543,True
40828,766,0,767,4256.0,42378.0,31485.0,0.0025009999999999998,-0.000244,-0.0023179999999999997,0.035,-1.4700000000000002,-3.7800000000000002,1.02709375,0.1993125,0.12771875,1.274,0.9918125,-0.25034375000000003,-0.3135,1.2541875,0.018542262931839887,0.018147068501038515,True
40829,767,0,768,4255.0,42377.0,31483.0,0.001464,-0.0008539999999999999,0.000488,0.21000000000000002,-1.1900000000000002,-3.7450000000000006,1.02046875,0.20028125,0.1298125,1.2671875000000001,0.9815,-0.24903125,-0.3111875,1.24996875,0.018529090723985106,0.018139796749953082,True
40830,768,0,769,4253.0,42379.0,31483.0,-0.004148,0.0,0.000549,0.17500000000000002,-0.7525000000000001,-3.6400000000000006,1.02121875,0.200875,0.13353125,1.2590937500000001,0.99190625,-0.24946875000000002,-0.3110625,1.2501875,0.018571283133779995,0.018287713669445753,True
40831,769,0,770,4251.0,42377.0,31484.0,-0.0046359999999999995,0.0011589999999999999,-0.0008539999999999999,0.14,-0.77,-3.6400000000000006,1.0207187500000001,0.203875,0.13109375,1.27178125,0.98778125,-0.24896875000000002,-0.311875,1.25453125,0.018674763230910593,0.018220262731689762,True
40832,770,0,771,4251.0,42378.0,31484.0,-0.0030499999999999998,0.0,0.0015249999999999999,0.14,-0.9100000000000001,-3.5175000000000005,1.0244375000000001,0.20053125,0.12903125000000001,1.2728125000000001,0.99746875,-0.25084375000000003,-0.31121875,1.2543125,0.018612754453131142,0.01810892347797249,True
40833,771,0,772,4249.0,42376.0,31484.0,-0.002196,0.000183,0.001586,-0.07,-1.12,-3.5175000000000005,1.02475,0.19759375,0.13328125,1.27409375,0.99484375,-0.25015625,-0.3143125,1.25940625,0.018463798557998984,0.018408653339468267,True
40834,772,0,773,4246.0,42376.0,31481.0,6.1e-05,-0.000244,0.000366,-0.10500000000000001,-1.4525000000000001,-3.6575,1.027375,0.2003125,0.12865625,1.27034375,0.9994375,-0.253125,-0.31528125,1.25384375,0.018696044324185028,0.018257551514029885,True
40835,773,0,774,4245.0,42374.0,31480.0,0.0008539999999999999,-0.00122,0.000122,-0.21000000000000002,-1.9075000000000002,-3.5700000000000003,1.02765625,0.1995625,0.1305625,1.2686250000000001,0.9913125,-0.247875,-0.310125,1.24790625,0.018452647912445937,0.018127734842992377,True
40836,774,0,775,4244.0,42369.0,31482.0,0.0034159999999999998,-0.000976,-0.000549,-0.14,-1.9250000000000003,-3.6225000000000005,1.02184375,0.20015625,0.13203125,1.266875,0.98875,-0.2475,-0.30896875,1.244375,0.018461954840705227,0.018141452421752774,True
40837,775,0,776,4244.0,42369.0,31480.0,0.004575,-0.00122,-0.002074,0.10500000000000001,-1.8725000000000003,-3.7100000000000004,1.0208125000000001,0.20153125,0.13453125,1.26684375,0.9843437500000001,-0.247,-0.30828125,1.244125,0.01849842248525591,0.018216528575009803,True
40838,776,0,777,4242.0,42367.0,31478.0,0.003111,-0.0008539999999999999,-6.1e-05,0.36750000000000005,-1.8025000000000002,-3.7100000000000004,1.0206250000000001,0.200375,0.13025,1.2660625,0.98403125,-0.24925,-0.31125,1.243125,0.018541810571460975,0.01816031672579567,True
40839,777,0,778,4240.0,42369.0,31477.0,0.000305,0.0011589999999999999,0.000488,0.6125,-1.6450000000000002,-3.8325000000000005,1.0214375,0.20084375000000002,0.13040625,1.26721875,0.987625,-0.2481875,-0.30878125,1.24453125,0.018518136664853815,0.018067030818338537,True
40840,778,0,779,4241.0,42370.0,31480.0,-0.0060999999999999995,0.00183,0.001769,0.8400000000000001,-1.5925000000000002,-3.8150000000000004,1.0246875,0.20059375000000002,0.12790625,1.27115625,0.9849687500000001,-0.24978125,-0.3135,1.2649375,0.01857233248238064,0.018154780266107305,True
40841,779,0,780,4240.0,42374.0,31482.0,-0.0060999999999999995,0.001281,0.002806,0.9800000000000001,-2.0475000000000003,-3.7625,1.0215625,0.20053125,0.12984375,1.2610000000000001,1.00796875,-0.24865625,-0.3096875,1.24475,0.01852422234737234,0.018080497743954958,True
40842,780,0,781,4240.0,42375.0,31481.0,-0.0026839999999999998,0.000122,-0.000305,0.77,-2.4850000000000003,-3.9725000000000006,1.018875,0.19865625,0.12746875,1.27221875,0.9756250000000001,-0.24684375,-0.31365625,1.26778125,0.01837352542019,0.018143096022425666,True
40843,781,0,782,4238.0,42374.0,31481.0,0.0006709999999999999,0.0006709999999999999,-0.001403,0.6300000000000001,-2.9225000000000003,-3.9200000000000004,1.02340625,0.20078125,0.13659375,1.26703125,1.01096875,-0.25746875,-0.31515625,1.25015625,0.018891088955849938,0.018578947030208782,True
40844,782,0,783,4240.0,42373.0,31480.0,0.0051849999999999995,0.000244,0.000549,0.5075000000000001,-3.2550000000000003,-3.8500000000000005,1.020125,0.20103125,0.13084375,1.27121875,0.9893125,-0.24684375,-0.30896875,1.24415625,0.018471476313283046,0.018092602138871074,True
40845,783,0,784,4238.0,42371.0,31477.0,0.006893,-6.1e-05,-0.000793,0.24500000000000002,-3.1675000000000004,-4.0425,1.01040625,0.2011875,0.12803125,1.27403125,0.98471875,-0.24678125,-0.307625,1.259875,0.018475390419089133,0.017922616874334697,True
40846,784,0,785,4237.0,42367.0,31478.0,0.0066489999999999995,-0.000915,-0.002745,0.15750000000000003,-2.8175000000000003,-3.9725000000000006,1.02096875,0.19984375000000001,0.12825,1.27225,0.9907812500000001,-0.25334375,-0.3129375,1.25771875,0.018685567840516837,0.018146203024624233,True
40847,785,0,786,4237.0,42367.0,31476.0,0.004575,-0.001037,-0.002928,0.17500000000000002,-2.1525000000000003,-3.9025000000000003,1.0274375,0.20028125,0.12728125,1.27265625,0.99975,-0.25334375,-0.31459375,1.25775,0.018703606590328395,0.018173242150097614,True
40848,786,0,787,4236.0,42368.0,31475.0,0.00042699999999999997,0.000488,-0.000122,0.35000000000000003,-1.5750000000000002,-3.8325000000000005,1.0265625,0.19740625,0.12925,1.26765625,0.99753125,-0.25040625,-0.31184375000000003,1.24934375,0.018466185489160618,0.018143163247337012,True
40849,787,0,788,4236.0,42366.0,31476.0,-0.004148,0.00061,0.002013,0.56,-0.9625000000000001,-3.7800000000000002,1.02125,0.20046875,0.12703125,1.2713125,0.9775312500000001,-0.249,-0.312,1.2563125,0.018535558167347106,0.018058211994077,True
40850,788,0,789,4234.0,42367.0,31476.0,-0.0071979999999999995,0.0006709999999999999,0.000488,0.3325,-0.7875000000000001,-3.6575,1.01628125,0.2014375,0.13003125000000001,1.2674375,0.991,-0.24978125,-0.31093750000000003,1.2496562500000001,0.018607126610678187,0.018138697859759623,True
40851,789,0,790,4235.0,42369.0,31477.0,-0.006771,0.00061,0.000915,0.36750000000000005,-0.8575,-3.7450000000000006,1.02171875,0.20309375000000002,0.12975,1.26775,0.9915,-0.2489375,-0.3110625,1.2505625,0.018641280674668734,0.018132177480930753,True
40852,790,0,791,4233.0,42369.0,31477.0,-0.002196,-0.000549,0.00122,0.21000000000000002,-1.1375000000000002,-3.5700000000000003,1.02153125,0.198375,0.12684375,1.27353125,0.99165625,-0.25153125,-0.31475000000000003,1.25634375,0.018551663619178684,0.018161558313369457,True
40853,791,0,792,4233.0,42367.0,31477.0,0.000305,-0.00122,0.001464,0.12250000000000001,-1.5225000000000002,-3.5700000000000003,1.02009375,0.201,0.12984375,1.268125,0.99790625,-0.24934375,-0.3111875,1.2504375,0.018571378864634225,0.018141082166389447,True
40854,792,0,793,4234.0,42365.0,31474.0,0.0037819999999999998,-0.001647,-0.0017079999999999999,-0.052500000000000005,-1.8025000000000002,-3.5700000000000003,1.02115625,0.2001875,0.12765625,1.27403125,0.991375,-0.24971875000000002,-0.31275000000000003,1.2569062500000001,0.018553050228675334,0.01811420962252316,True
40855,793,0,794,4233.0,42366.0,31473.0,0.004392,-0.001098,-0.0018909999999999999,0.0175,-1.8725000000000003,-3.6575,1.0280625,0.20096875,0.128,1.2703125,0.997125,-0.2519375,-0.3123125,1.25771875,0.018675054312670893,0.01811067951680861,True
40856,794,0,795,4231.0,42362.0,31473.0,0.002379,-0.00042699999999999997,0.000122,0.22750000000000004,-1.6975000000000002,-3.6925000000000003,1.0216875,0.2010625,0.1306875,1.26821875,0.98459375,-0.249375,-0.31084375000000003,1.2496875,0.018575221010850795,0.018161905631103405,True
40857,795,0,796,4231.0,42364.0,31474.0,0.002989,0.000305,0.000366,0.35000000000000003,-1.435,-3.8500000000000005,1.021625,0.19793750000000002,0.13046875,1.26784375,0.99171875,-0.25203125,-0.3133125,1.2393750000000001,0.01855385824640977,0.018252603383434488,True
40858,796,0,797,4232.0,42365.0,31473.0,0.001098,0.0008539999999999999,-6.1e-05,0.5075000000000001,-1.05,-3.8850000000000002,1.02021875,0.204625,0.12575,1.2769375,0.9905,-0.248125,-0.3138125,1.2500625,0.01867154676908008,0.018078715544919167,True
40859,797,0,798,4231.0,42364.0,31477.0,-0.001403,0.001647,-0.0008539999999999999,0.525,-0.7525000000000001,-3.8150000000000004,1.0164375,0.20184375000000002,0.1320625,1.2652812500000001,0.99128125,-0.2491875,-0.31009375,1.24584375,0.018599849994974056,0.01818817543638638,True
40860,798,0,799,4231.0,42366.0,31475.0,-0.0060999999999999995,0.001098,0.0021349999999999997,0.45500000000000007,-0.7000000000000001,-3.7100000000000004,1.023625,0.19571875,0.13478125,1.26503125,0.99946875,-0.2516875,-0.31071875,1.251125,0.018448458483559135,0.01832525005045357,True
40861,799,0,800,4231.0,42368.0,31476.0,-0.0068319999999999995,-0.000183,0.0018909999999999999,0.45500000000000007,-1.0850000000000002,-3.6925000000000003,1.0188125000000001,0.202,0.1289375,1.27734375,0.9918125,-0.24984375,-0.31290625,1.2572812500000001,0.01863285201579907,0.018173218185300245,True
40862,800,0,801,4232.0,42369.0,31478.0,-0.004697,-0.0017079999999999999,0.0026839999999999998,0.42000000000000004,-1.61,-3.6925000000000003,1.0333125,0.19834375,0.12784375,1.27440625,0.99109375,-0.2516875,-0.31303125,1.25625,0.018556698374082217,0.018133279864064666,True
40863,801,0,802,4231.0,42370.0,31477.0,-0.0013419999999999999,-0.000244,-0.000122,0.6125,-2.205,-3.7975000000000003,1.0345625,0.19690625,0.12496875,1.26734375,0.9839687500000001,-0.2498125,-0.31003125,1.25046875,0.018421534187120003,0.01789384783287763,True
40864,802,0,803,4232.0,42368.0,31476.0,0.002745,0.00183,-0.000732,0.45500000000000007,-2.5725000000000002,-3.7625,1.0195625,0.2033125,0.132125,1.272125,0.9916875,-0.24903125,-0.3100625,1.2490937500000001,0.018654095717741303,0.018189484292769714,True
40865,803,0,804,4231.0,42366.0,31476.0,0.008479,-0.000305,-0.002196,0.14,-2.975,-3.8150000000000004,1.0340625,0.19675,0.12596875,1.27221875,0.9968125,-0.25128125,-0.31278125,1.2425625,0.018474539360678107,0.01804606373448122,True
40866,804,0,805,4231.0,42367.0,31477.0,0.008173999999999999,-0.00183,-0.001952,-0.035,-2.7125000000000004,-3.7625,1.0185,0.20215625,0.132125,1.26971875,0.98028125,-0.24865625,-0.31184375000000003,1.25515625,0.01859123637005659,0.01826141836733382,True
40867,805,0,806,4231.0,42365.0,31476.0,0.0068319999999999995,-0.0037819999999999998,-0.002745,0.1925,-2.2575000000000003,-3.7100000000000004,1.03184375,0.199375,0.1305625,1.265375,0.9947812500000001,-0.24959375,-0.31065625,1.24415625,0.018514485423080543,0.018149191262576466,True
40868,806,0,807,4228.0,42366.0,31475.0,0.0015249999999999999,-0.000122,-0.001586,0.3325,-1.54,-3.7975000000000003,1.01915625,0.20209375000000002,0.1326875,1.274125,0.9921562500000001,-0.24696875000000001,-0.31134375000000003,1.25340625,0.01852035628164861,0.01826436475770699,True
40869,807,0,808,4228.0,42365.0,31474.0,-0.003477,0.00183,0.001647,0.6125,-1.0675000000000001,-3.9025000000000003,1.0235625,0.19768750000000002,0.12759375,1.2745625,0.9948750000000001,-0.249,-0.31184375000000003,1.25434375,0.01842086271598829,0.018075038015164933,True
40870,808,0,809,4230.0,42366.0,31479.0,-0.00915,0.00122,0.002074,0.5950000000000001,-0.7875000000000001,-3.7100000000000004,1.02615625,0.197125,0.13009375,1.267125,0.9938125,-0.24975,-0.311625,1.25090625,0.01842802503118589,0.01816903436113382,True
40871,809,0,810,4230.0,42371.0,31479.0,-0.008235,6.1e-05,0.001037,0.45500000000000007,-0.9975,-3.6225000000000005,1.02115625,0.20125,0.13815625,1.26990625,0.98984375,-0.24846875000000002,-0.31009375,1.2511875000000001,0.018546274184838993,0.018438842918900716,True
40872,810,0,811,4229.0,42370.0,31480.0,-0.0030499999999999998,-6.1e-05,0.002745,0.28,-1.5225000000000002,-3.5175000000000005,1.02678125,0.19834375,0.1274375,1.26884375,0.9929375,-0.25109375,-0.31309375,1.25325,0.01853266927393739,0.01811909477789103,True
40873,811,0,812,4229.0,42369.0,31481.0,0.0026839999999999998,-0.001647,-0.000122,0.0175,-1.9075000000000002,-3.6575,1.02203125,0.20078125,0.13003125000000001,1.26103125,0.992,-0.24884375,-0.310375,1.247875,0.01854212120938756,0.018115979288678186,True
40874,812,0,813,4229.0,42369.0,31478.0,0.008601,-0.0018909999999999999,-0.003172,0.0175,-2.1700000000000004,-3.6750000000000003,1.01484375,0.19796875,0.1280625,1.27596875,0.9895625,-0.24728125,-0.30743750000000003,1.2686875,0.01836288346760526,0.01791632705010555,True
40875,813,0,814,4229.0,42366.0,31478.0,0.0057339999999999995,-0.00061,-6.1e-05,0.29750000000000004,-2.0650000000000004,-3.8500000000000005,1.02475,0.19943750000000002,0.1301875,1.268125,1.01784375,-0.256125,-0.32075,1.26896875,0.018781338734031094,0.018541266202728123,True
40876,814,0,815,4230.0,42365.0,31477.0,0.002989,0.00122,0.000366,0.3325,-1.5575,-3.8675,1.02203125,0.20078125,0.13071875,1.271625,0.990625,-0.2479375,-0.304875,1.23834375,0.01850543989566123,0.017922073246622334,True
40877,815,0,816,4229.0,42362.0,31477.0,-0.001037,0.001952,-0.001098,0.42000000000000004,-1.1900000000000002,-3.9200000000000004,1.02909375,0.19853125,0.12859375,1.26778125,0.98021875,-0.246875,-0.3115625,1.25878125,0.018369635262276068,0.01810481123950795,True
40878,816,0,817,4232.0,42365.0,31478.0,-0.002196,-0.000488,-0.0013419999999999999,0.45500000000000007,-0.8750000000000001,-3.8325000000000005,1.03040625,0.20071875,0.1295,1.2666875,1.0095625,-0.25834375,-0.32096875,1.2746875,0.018923901183484547,0.0185218259449472,True
40879,817,0,818,4230.0,42370.0,31482.0,-0.006954,0.001281,0.003843,0.385,-0.5425000000000001,-3.7625,1.0155,0.2011875,0.13075,1.26746875,1.0153125,-0.256625,-0.31659375,1.26103125,0.018873709759704822,0.018396645294943913,True
40880,818,0,819,4231.0,42373.0,31482.0,-0.0050019999999999995,0.0,0.000244,0.3325,-0.77,-3.7625,1.02409375,0.1975625,0.12896875,1.2659375,1.009375,-0.2601875,-0.3159375,1.26225,0.018868362002560778,0.018296898896042975,True
40881,819,0,820,4232.0,42372.0,31483.0,-0.003477,-6.1e-05,0.00061,0.28,-1.155,-3.7975000000000003,1.0266875,0.197875,0.12775,1.273875,1.0195,-0.25484375,-0.31546875,1.26521875,0.018665086226333658,0.018227851354911673,True
40882,820,0,821,4232.0,42372.0,31482.0,0.0006709999999999999,0.000305,-0.000183,0.17500000000000002,-1.3475000000000001,-3.8325000000000005,1.0305625,0.19943750000000002,0.13284375,1.26575,1.0090000000000001,-0.2548125,-0.3051875,1.240375,0.018728242075670552,0.01802213004939789,True
40883,821,0,822,4231.0,42370.0,31484.0,0.0044529999999999995,0.000915,-6.1e-05,0.12250000000000001,-1.5225000000000002,-3.7625,1.02265625,0.2089375,0.13109375,1.26746875,0.9706250000000001,-0.24496875,-0.30703125000000003,1.248,0.01872166776869943,0.018024619933789735,True
40884,822,0,823,4231.0,42369.0,31481.0,0.003721,0.0,-0.000488,-0.12250000000000001,-1.54,-3.6925000000000003,1.02596875,0.19778125,0.1279375,1.27525,0.9969375,-0.255375,-0.318875,1.269625,0.01868271465602985,0.018373074412364885,True
40885,823,0,824,4232.0,42368.0,31483.0,0.002623,-0.003904,-0.001769,-0.12250000000000001,-1.3825,-3.6225000000000005,1.0285312500000001,0.198,0.12734375,1.26975,1.0088125000000001,-0.2554375,-0.31709375,1.25175,0.018694261853656524,0.018276752335998212,True
40886,824,0,825,4233.0,42371.0,31484.0,0.00042699999999999997,-0.002928,-0.0013419999999999999,0.12250000000000001,-1.2075,-3.6400000000000006,1.02659375,0.20034375000000001,0.1276875,1.269125,0.9934375,-0.2489375,-0.309375,1.24959375,0.01852787364394832,0.017979174701118397,True
