frame_seq,absolute_seq_u64,segment_id,sample_seq,PPG_G,PPG_R,PPG_IR,ACC_X,ACC_Y,ACC_Z,GYRO_X,GYRO_Y,GYRO_Z,Uh1,Uh2,Uh3,Uh4,Uc1,Uc2,Uc3,Uc4,UD1,UD2,parser_valid
63422,23360,0,23361,3635.0,39672.0,29548.0,0.00061,0.0006709999999999999,-0.000122,0.5075000000000001,-1.995,-3.9550000000000005,1.06609375,0.19509375,0.16659375,1.31825,1.035375,-0.24453125,-0.3331875,1.3039687500000001,0.01813295524119486,0.020539078573244874,True
63423,23361,0,23362,3632.0,39672.0,29548.0,-0.001952,0.0013419999999999999,0.0034159999999999998,0.5775,-1.5225000000000002,-3.8850000000000002,1.07428125,0.1850625,0.17625,1.31784375,1.0463437500000001,-0.24496875,-0.33103125,1.30840625,0.017736927377974037,0.0208491471153735,True
63424,23362,0,23363,3634.0,39674.0,29546.0,-0.004758,0.002257,0.003904,0.6300000000000001,-1.0675000000000001,-3.7275000000000005,1.0880625,0.19471875,0.177125,1.328625,1.0386875,-0.243,-0.335,1.30953125,0.018055469620096524,0.02104479145264023,True
63425,23363,0,23364,3632.0,39673.0,29547.0,-0.006771,-6.1e-05,0.001037,0.5950000000000001,-0.8925000000000001,-3.6575,1.0904375,0.1946875,0.18140625,1.3408437500000001,1.039875,-0.2435,-0.32996875000000003,1.310375,0.01807443232206571,0.021018317173136528,True
63426,23364,0,23365,3632.0,39673.0,29545.0,-0.004758,0.000244,0.000915,0.24500000000000002,-0.36750000000000005,-3.6750000000000003,1.0735937500000001,0.19818750000000002,0.1723125,1.3286875,1.0385,-0.24353125,-0.33484375,1.3075,0.01822006643524755,0.020840744046281372,True
63427,23365,0,23366,3631.0,39674.0,29547.0,-0.007259,-0.000793,0.003355,0.4025,-0.8575,-3.5875000000000004,1.0698750000000001,0.19396875,0.17759375,1.33028125,1.03865625,-0.2434375,-0.3349375,1.30890625,0.01804225370267727,0.02106153960740602,True
63428,23366,0,23367,3630.0,39677.0,29550.0,-0.0026839999999999998,0.000122,-0.002013,0.525,-1.8550000000000002,-3.7100000000000004,1.06859375,0.1993125,0.17178125,1.323,1.03865625,-0.24234375,-0.3336875,1.30275,0.01821838080321751,0.020772386018354187,True
63429,23367,0,23368,3631.0,39677.0,29550.0,0.0060999999999999995,0.00122,-0.004697,0.28,-2.975,-4.077500000000001,1.0696875000000001,0.19134375,0.17659375,1.3239687500000001,1.0386250000000001,-0.24625,-0.33390625,1.30421875,0.018047894004227457,0.0209789581152841,True
63430,23368,0,23369,3632.0,39674.0,29549.0,0.017079999999999998,0.000305,-0.004148,0.21000000000000002,-3.7100000000000004,-4.1825,1.07653125,0.19271875,0.1734375,1.324,1.04428125,-0.24646875000000001,-0.33296875,1.3041875,0.018113462398519374,0.020811527569976434,True
63431,23369,0,23370,3631.0,39673.0,29548.0,0.01586,-0.0040869999999999995,-0.000366,0.17500000000000002,-3.3075,-3.99,1.07796875,0.18937500000000002,0.173375,1.32371875,1.04178125,-0.24746875000000002,-0.332625,1.2990625,0.018016055799638882,0.020795125885513792,True
63432,23370,0,23371,3631.0,39673.0,29548.0,0.0055509999999999995,-0.0026839999999999998,-0.0035989999999999998,0.15750000000000003,-2.1700000000000004,-3.7625,1.08090625,0.19334375,0.17446875,1.32809375,1.03734375,-0.23996875,-0.3321875,1.3078125,0.01787595126334476,0.020822470236184068,True
63433,23371,0,23372,3631.0,39675.0,29551.0,-0.0064659999999999995,-0.002196,-0.001769,0.22750000000000004,-0.8925000000000001,-3.6225000000000005,1.0771875,0.1938125,0.17475000000000002,1.33059375,1.0479375,-0.24306250000000001,-0.32796875000000003,1.31240625,0.01802061930088247,0.0206642303418776,True
63434,23372,0,23373,3630.0,39674.0,29549.0,-0.014761999999999999,-0.00042699999999999997,0.003843,0.43750000000000006,0.4025,-3.4825000000000004,1.07284375,0.199625,0.17278125,1.3239687500000001,1.0390625,-0.2424375,-0.334625,1.3030625,0.018235068152697105,0.020851204816182706,True
63435,23373,0,23374,3630.0,39674.0,29550.0,-0.017324,0.0015249999999999999,0.00671,0.7525000000000001,1.1375000000000002,-3.43,1.07253125,0.192375,0.17315625,1.32421875,1.037,-0.24675,-0.32590625,1.30284375,0.018110674626496334,0.020515679657361174,True
63436,23374,0,23375,3630.0,39675.0,29549.0,-0.014823,0.005246,0.003904,1.0850000000000002,0.07,-3.5000000000000004,1.07715625,0.19709375,0.17500000000000002,1.332125,1.0465625,-0.2439375,-0.331125,1.310375,0.018191403520983338,0.02080154534572487,True
63437,23375,0,23376,3630.0,39674.0,29548.0,-0.006954,0.0053679999999999995,0.000793,1.0150000000000001,-0.9975,-3.7275000000000005,1.07259375,0.19075,0.17421875,1.32384375,1.0380625,-0.246375,-0.33275,1.30309375,0.01802846817307742,0.02083483165692328,True
63438,23376,0,23377,3630.0,39675.0,29549.0,0.0028669999999999998,0.0042699999999999995,-0.002562,0.805,-2.205,-3.9025000000000003,1.0791875,0.19403125000000002,0.17215625,1.32325,1.04671875,-0.24325,-0.3343125,1.3040625000000001,0.01803723716910893,0.02081294673930073,True
63439,23377,0,23378,3629.0,39673.0,29550.0,0.013297999999999999,0.000976,-0.0035989999999999998,0.47250000000000003,-3.3775000000000004,-3.9375000000000004,1.078125,0.19325,0.17459375,1.32353125,1.0375,-0.24109375,-0.33178125,1.30409375,0.01791766305924212,0.020811258937320918,True
63440,23378,0,23379,3630.0,39672.0,29548.0,0.018727,-0.0021349999999999997,-0.003721,0.052500000000000005,-3.9200000000000004,-3.8675,1.07696875,0.19684375,0.17428125,1.32903125,1.04521875,-0.24328125,-0.33237500000000003,1.30934375,0.018154514459547428,0.020822309782748294,True
63441,23379,0,23380,3629.0,39674.0,29551.0,0.015189,-0.006039,-0.003721,-0.385,-2.9050000000000002,-3.6925000000000003,1.0794062500000001,0.193875,0.17400000000000002,1.3291875,1.04578125,-0.24371875,-0.3324375,1.31003125,0.018049778357538487,0.020813266241822257,True
63442,23380,0,23381,3628.0,39673.0,29548.0,0.006039,-0.006344,-0.001769,-0.29750000000000004,-1.5575,-3.6050000000000004,1.07453125,0.19796875,0.1746875,1.3294375,1.03884375,-0.24334375,-0.33128125,1.30909375,0.018203450173823483,0.020794989988453652,True
63443,23381,0,23382,3629.0,39671.0,29548.0,-0.003843,-0.0037819999999999998,0.000183,0.052500000000000005,-0.2625,-3.6225000000000005,1.08025,0.19371875,0.1746875,1.3275937500000001,1.0422500000000001,-0.2425,-0.332,1.30946875,0.01799396720635248,0.02082391500904159,True
63444,23382,0,23383,3630.0,39674.0,29549.0,-0.013663999999999999,0.0006709999999999999,0.0028669999999999998,0.29750000000000004,0.665,-3.6225000000000005,1.078375,0.19275,0.1780625,1.32928125,1.04540625,-0.23846875,-0.33215625,1.30871875,0.01779067623650937,0.020968908170643525,True
63445,23383,0,23384,3630.0,39674.0,29551.0,-0.017751,0.002623,0.0051849999999999995,0.6825000000000001,0.9450000000000001,-3.5875000000000004,1.0795625,0.1929375,0.17400000000000002,1.32703125,1.04175,-0.2434375,-0.33175,1.30953125,0.01799971641810284,0.020785599062952728,True
63446,23384,0,23385,3629.0,39675.0,29552.0,-0.011467999999999999,0.0062829999999999995,0.003172,0.8225000000000001,-0.28,-3.6050000000000004,1.07546875,0.19409375,0.17440625,1.324375,1.04515625,-0.2435,-0.33428125000000003,1.3059687500000001,0.018049941221358303,0.02090415142218347,True
63447,23385,0,23386,3631.0,39673.0,29551.0,-0.0028669999999999998,0.004209,0.00122,0.77,-1.2950000000000002,-3.7100000000000004,1.0724375,0.192875,0.17275000000000001,1.3234375,1.03909375,-0.24584375,-0.33496875,1.304125,0.01809459610990028,0.020863751879689592,True
63448,23386,0,23387,3631.0,39676.0,29552.0,0.0066489999999999995,0.002257,-0.001098,0.5775,-2.345,-3.7100000000000004,1.07321875,0.1930625,0.174125,1.32296875,1.038375,-0.241125,-0.33215625,1.30428125,0.01791119430306968,0.02080708527424486,True
63449,23387,0,23388,3631.0,39674.0,29552.0,0.012871,-0.000183,-0.004331,0.3325,-2.7825,-3.7275000000000005,1.076375,0.19375,0.175875,1.3268125,1.03475,-0.24315625000000002,-0.33171875,1.3148125,0.01802183863745052,0.020861401334420736,True
63450,23388,0,23389,3630.0,39677.0,29556.0,0.014701,-0.00244,-0.004148,0.12250000000000001,-2.9225000000000003,-3.6400000000000006,1.073875,0.19425,0.17259375,1.32390625,1.03878125,-0.24321875,-0.3356875,1.3038750000000001,0.018044994540999223,0.020886249874798073,True
63451,23389,0,23390,3629.0,39677.0,29554.0,0.0077469999999999995,-0.003843,-0.0025009999999999998,-0.12250000000000001,-1.54,-3.7450000000000006,1.07309375,0.19134375,0.174875,1.32496875,1.0365625,-0.24203125,-0.33740625,1.30134375,0.01787700855306834,0.021049130903175024,True
63452,23390,0,23391,3632.0,39676.0,29552.0,0.000915,-0.003111,-0.001281,0.0,-0.6300000000000001,-3.7100000000000004,1.079875,0.1918125,0.17400000000000002,1.3243125,1.04471875,-0.24765625,-0.3308125,1.29365625,0.018124174372523116,0.020747868572001036,True
63453,23391,0,23392,3632.0,39674.0,29552.0,-0.006344,-0.001586,0.0008539999999999999,0.15750000000000003,0.1925,-3.5700000000000003,1.089,0.1931875,0.17465625,1.34928125,1.04853125,-0.24259375,-0.327625,1.31246875,0.01797585087198023,0.02064653865718499,True
63454,23392,0,23393,3631.0,39676.0,29552.0,-0.012627,0.000305,0.004026,0.47250000000000003,0.5425000000000001,-3.6225000000000005,1.066625,0.2021875,0.170875,1.32525,1.03515625,-0.24165625000000002,-0.33615625,1.3004375000000001,0.018309134715166174,0.020834483670772785,True
63455,23393,0,23394,3632.0,39676.0,29552.0,-0.013176,0.001647,0.004758,0.49000000000000005,0.385,-3.535,1.0625625,0.18331250000000002,0.17621875,1.32353125,1.0368125,-0.24840625,-0.33171875,1.312125,0.01780400516013295,0.02087552898415777,True
63456,23394,0,23395,3633.0,39676.0,29554.0,-0.0026839999999999998,0.00244,0.0,0.42000000000000004,-0.9450000000000001,-3.6750000000000003,1.0941875,0.19971875,0.17284375,1.34440625,1.0310625,-0.2425,-0.3360625,1.30265625,0.018241466432917398,0.020911610084827816,True
63457,23395,0,23396,3633.0,39677.0,29554.0,0.004514,0.001586,0.00183,0.35000000000000003,-1.4875,-3.7275000000000005,1.06034375,0.1894375,0.17478125,1.3125,1.036,-0.24915625,-0.3294375,1.30146875,0.01808696952084673,0.020724636564244444,True
63458,23396,0,23397,3633.0,39675.0,29554.0,0.007869,0.000488,-0.001464,0.36750000000000005,-2.1,-3.7100000000000004,1.097,0.19603125,0.1701875,1.3455625,1.04621875,-0.2429375,-0.3326875,1.3044375,0.01810707757671693,0.020666644405801866,True
63459,23397,0,23398,3634.0,39676.0,29552.0,0.009211,-0.000183,-0.002806,0.24500000000000002,-2.1875,-3.7625,1.05453125,0.187125,0.17196875,1.30875,1.0361562500000001,-0.2449375,-0.3314375,1.30084375,0.017820730616443126,0.020689540024094344,True
63460,23398,0,23399,3633.0,39675.0,29552.0,0.002013,-0.000488,0.0,0.24500000000000002,-1.7850000000000001,-3.6925000000000003,1.0978125,0.1898125,0.17815625000000002,1.3376875,1.04975,-0.243375,-0.32896875000000003,1.31075,0.017868283603252436,0.020844492226987633,True
63461,23399,0,23400,3634.0,39675.0,29553.0,-0.000244,-0.001647,-0.002074,0.07,-0.7175,-3.5700000000000003,1.097875,0.194625,0.180875,1.3447500000000001,1.03721875,-0.2429375,-0.33265625,1.3094375,0.018049070992325084,0.021104611215637423,True
63462,23400,0,23401,3635.0,39676.0,29553.0,-0.0017079999999999999,-0.0015249999999999999,0.000366,0.15750000000000003,-0.45500000000000007,-3.6225000000000005,1.06659375,0.20034375000000001,0.16596875,1.32153125,1.0376875,-0.24346875,-0.33337500000000003,1.30428125,0.018306476873281595,0.020520940888799848,True
63463,23401,0,23402,3635.0,39679.0,29555.0,-0.0042699999999999995,-0.0015249999999999999,0.00183,0.2625,-0.17500000000000002,-3.6050000000000004,1.06084375,0.1848125,0.17734375,1.32821875,1.03871875,-0.24681250000000002,-0.33115625,1.3090625,0.017801308934937324,0.020899130101965455,True
63464,23402,0,23403,3638.0,39677.0,29555.0,-0.004758,-0.000793,0.001464,0.31500000000000006,-0.07,-3.535,1.06915625,0.1940625,0.17240625,1.31571875,1.0380625,-0.24321875,-0.33525,1.30125,0.01803726041947297,0.020860942460011713,True
63465,23403,0,23404,3636.0,39678.0,29554.0,-0.004209,0.0013419999999999999,0.00061,0.665,-0.805,-3.6575,1.07375,0.1905625,0.17671875,1.32096875,1.04478125,-0.2456875,-0.33171875,1.3029375,0.017992890488256936,0.020896078292866178,True
63466,23404,0,23405,3637.0,39680.0,29556.0,-0.002013,0.001098,0.000244,0.7175,-1.4000000000000001,-3.6925000000000003,1.080625,0.193375,0.1741875,1.32403125,1.0415625,-0.24521875,-0.33228125000000003,1.30453125,0.01808990690174738,0.02081468419653418,True
63467,23405,0,23406,3638.0,39679.0,29556.0,0.001098,0.001769,-0.000183,0.6475000000000001,-1.8375000000000001,-3.6925000000000003,1.07421875,0.18975,0.1729375,1.3238125,1.03875,-0.2445,-0.3353125,1.3034375,0.01791127884674875,0.020885287583629755,True
63468,23406,0,23407,3638.0,39682.0,29559.0,0.003294,0.000976,-6.1e-05,0.5950000000000001,-2.0825,-3.6575,1.0778125,0.1945,0.17459375,1.3289375,1.03865625,-0.247375,-0.33159375,1.31109375,0.018223622144665143,0.02080371327915994,True
63469,23407,0,23408,3639.0,39681.0,29557.0,0.004026,0.001037,-0.001281,0.45500000000000007,-2.1525000000000003,-3.4825000000000004,1.0735000000000001,0.19062500000000002,0.1733125,1.3234062500000001,1.0396875,-0.2429375,-0.33175,1.3037812500000001,0.0178840744856105,0.02075734379976779,True
63470,23408,0,23409,3640.0,39680.0,29556.0,0.005673,-0.00122,-0.00183,0.17500000000000002,-1.715,-3.6225000000000005,1.07965625,0.197625,0.17271875,1.32371875,1.0466875,-0.24309375,-0.33290625,1.3095937500000001,0.018179146380605818,0.020779474297280047,True
63471,23409,0,23410,3640.0,39681.0,29557.0,0.005124,-0.000549,-0.002013,0.15750000000000003,-1.1375000000000002,-3.6925000000000003,1.06840625,0.19071875,0.1750625,1.33084375,1.03903125,-0.2405625,-0.33278125000000003,1.3001875,0.017791717910836436,0.020870764619231517,True
63472,23410,0,23411,3640.0,39683.0,29557.0,0.0006709999999999999,-0.000976,-0.000366,0.2625,-0.6475000000000001,-3.7450000000000006,1.0720625,0.19196875,0.17446875,1.32484375,1.0381875,-0.24271875,-0.33537500000000003,1.3033125,0.017930641545721847,0.020950725024783883,True
63473,23411,0,23412,3641.0,39683.0,29558.0,-0.003965,0.0,0.002989,0.36750000000000005,-0.24500000000000002,-3.5525,1.0709375,0.1943125,0.1715625,1.3285,1.04484375,-0.243625,-0.3313125,1.310625,0.018064027141155663,0.020667812309755177,True
63474,23412,0,23413,3641.0,39684.0,29560.0,-0.0040869999999999995,-0.00061,0.000488,0.35000000000000003,0.035,-3.3600000000000003,1.072625,0.19240625,0.17153125,1.32259375,1.03828125,-0.24271875,-0.33421875,1.30353125,0.017948688201483175,0.020783490326764652,True
63475,23413,0,23414,3644.0,39687.0,29558.0,-0.001281,-0.001098,0.001037,0.31500000000000006,0.21000000000000002,-3.6925000000000003,1.0795000000000001,0.19087500000000002,0.1745625,1.3234062500000001,1.0385312500000001,-0.2454375,-0.333125,1.30403125,0.01799565382146641,0.020864048493565872,True
63476,23414,0,23415,3643.0,39687.0,29560.0,-0.0025009999999999998,-0.0013419999999999999,0.001769,0.43750000000000006,0.17500000000000002,-3.4650000000000003,1.06965625,0.1900625,0.1733125,1.3239687500000001,1.0434375,-0.24681250000000002,-0.33134375,1.30328125,0.01801783224083578,0.02074099380557229,True
63477,23415,0,23416,3645.0,39688.0,29560.0,-0.0021349999999999997,-0.0006709999999999999,0.000488,0.6125,0.15750000000000003,-3.6400000000000006,1.07284375,0.19103125,0.17334375,1.328625,1.0335625,-0.24234375,-0.33478125000000003,1.3100625000000001,0.017876778106489806,0.020880606847452146,True
63478,23416,0,23417,3645.0,39688.0,29560.0,-0.002379,0.0018909999999999999,0.00042699999999999997,0.6825000000000001,0.08750000000000001,-3.6050000000000004,1.07184375,0.19390625,0.17465625,1.3291250000000001,1.03796875,-0.24296875,-0.33203125,1.31109375,0.018020688988430924,0.02082388826456895,True
63479,23417,0,23418,3646.0,39687.0,29561.0,-0.0017079999999999999,0.002257,-0.000244,0.7000000000000001,0.052500000000000005,-3.5525,1.08103125,0.19203125000000001,0.17409375,1.3239375,1.0449375,-0.2441875,-0.33221875,1.3041562500000001,0.017992714748638203,0.02080831613434348,True
63480,23418,0,23419,3645.0,39685.0,29559.0,-0.0011589999999999999,0.00061,0.000976,0.47250000000000003,-0.0175,-3.5875000000000004,1.07275,0.195,0.17221875,1.314125,1.0389375,-0.2459375,-0.33490625,1.3035625,0.01818603632051761,0.02083940635686649,True
63481,23419,0,23420,3647.0,39686.0,29562.0,-0.0026839999999999998,-0.000488,0.0015249999999999999,0.43750000000000006,-0.24500000000000002,-3.535,1.0723125,0.18962500000000002,0.17615625000000001,1.3238750000000001,1.039,-0.243875,-0.33190625,1.3039687500000001,0.01788080494557904,0.02088050540635303,True
63482,23420,0,23421,3647.0,39686.0,29559.0,-0.0032329999999999998,-0.002074,0.0013419999999999999,0.49000000000000005,-0.43750000000000006,-3.5175000000000005,1.080125,0.19346875,0.17446875,1.3310625,1.04303125,-0.24231250000000001,-0.3319375,1.3077812500000001,0.017976059420898895,0.02081240961596256,True
63483,23421,0,23422,3646.0,39686.0,29558.0,-0.0018909999999999999,-0.000488,-0.0006709999999999999,0.5425000000000001,-0.9625000000000001,-3.5875000000000004,1.07384375,0.19421875,0.17409375,1.324375,1.0398125,-0.243125,-0.33459375,1.3082500000000001,0.018039908221402976,0.020903882975239724,True
63484,23422,0,23423,3646.0,39684.0,29556.0,0.0013419999999999999,0.0017079999999999999,-0.001281,0.525,-1.1725,-3.6575,1.07278125,0.19475,0.17125,1.3235000000000001,1.03921875,-0.24178125,-0.33265625,1.30375,0.018007391680427778,0.020709052263868644,True
63485,23423,0,23424,3647.0,39687.0,29554.0,0.0030499999999999998,0.000122,0.00042699999999999997,0.56,-1.6800000000000002,-3.5525,1.07284375,0.1943125,0.17146875,1.3255000000000001,1.0390625,-0.2429375,-0.3358125,1.313625,0.018036180640238007,0.02084505088950698,True
63486,23424,0,23425,3647.0,39683.0,29550.0,0.0048189999999999995,-0.000549,0.000244,0.31500000000000006,-1.5225000000000002,-3.5525,1.06965625,0.193625,0.1755625,1.33034375,1.03878125,-0.24256250000000001,-0.3319375,1.30671875,0.017992631760771993,0.020857360824636347,True
63487,23425,0,23426,3645.0,39682.0,29549.0,0.004392,-0.0023179999999999997,-0.002013,0.21000000000000002,-1.3125000000000002,-3.5875000000000004,1.0794375,0.19425,0.1745625,1.33053125,1.0595,-0.24681250000000002,-0.3315625,1.2861562500000001,0.018190535353873834,0.02080117131811818,True
63488,23426,0,23427,3644.0,39682.0,29546.0,0.0030499999999999998,-0.0008539999999999999,-0.002074,0.22750000000000004,-1.0850000000000002,-3.7100000000000004,1.07246875,0.19718750000000002,0.17446875,1.329625,1.0544375,-0.2419375,-0.32815625,1.299125,0.018114269950576353,0.020660217520594066,True
63489,23427,0,23428,3642.0,39682.0,29546.0,0.00042699999999999997,-0.000488,-0.000305,0.35000000000000003,-0.6475000000000001,-3.7100000000000004,1.0794375,0.19365625,0.17500000000000002,1.3306875,1.04934375,-0.249375,-0.3295,1.2925312500000001,0.01826980076806103,0.020736143365050662,True
63490,23428,0,23429,3643.0,39683.0,29546.0,-0.005063,0.00183,0.001952,0.45500000000000007,0.035,-3.6575,1.0794375,0.1930625,0.174875,1.32825,1.05528125,-0.2481875,-0.33075,1.29421875,0.01819723639137977,0.020781315824625217,True
63491,23429,0,23430,3640.0,39682.0,29548.0,-0.004575,0.001403,0.001098,0.35000000000000003,0.052500000000000005,-3.7450000000000006,1.07009375,0.19271875,0.174875,1.325,1.05375,-0.252,-0.33225,1.29828125,0.018337405162460827,0.020841681307729457,True
63492,23430,0,23431,3639.0,39681.0,29545.0,-0.002379,0.000183,-0.000183,0.2625,-0.035,-3.7100000000000004,1.07975,0.1955625,0.17434375,1.3271875,1.0482500000000001,-0.246,-0.32959375,1.31334375,0.018211766889383814,0.02071294347033641,True
63493,23431,0,23432,3639.0,39681.0,29550.0,-0.002745,-0.0011589999999999999,0.00061,0.22750000000000004,-0.29750000000000004,-3.7450000000000006,1.0728125,0.19403125000000002,0.17478125,1.3315937500000001,1.0566875,-0.24296875,-0.32959375,1.29746875,0.01802584512261932,0.020730925685925192,True
63494,23432,0,23433,3638.0,39685.0,29547.0,-0.003721,-0.000488,0.00122,0.35000000000000003,-0.5775,-3.6225000000000005,1.07765625,0.193,0.175375,1.330375,1.05371875,-0.24959375,-0.3295,1.297625,0.01825159442104056,0.02075155675209108,True
63495,23433,0,23434,3639.0,39684.0,29549.0,0.002196,0.000244,-0.0006709999999999999,0.31500000000000006,-1.4000000000000001,-3.5875000000000004,1.07375,0.193625,0.17346875,1.31890625,1.0541562500000001,-0.24228125,-0.332625,1.31421875,0.017981238873713667,0.020798978737394752,True
63496,23434,0,23435,3636.0,39687.0,29548.0,0.003721,0.000549,-0.001037,0.45500000000000007,-1.6450000000000002,-3.6400000000000006,1.07303125,0.19453125000000002,0.17300000000000001,1.31771875,1.04384375,-0.2419375,-0.329625,1.3143125,0.01800469743806575,0.020658970288280235,True
63497,23435,0,23436,3635.0,39685.0,29548.0,0.006588,0.000122,-0.001403,0.43750000000000006,-1.6450000000000002,-3.6050000000000004,1.0730625,0.1940625,0.172625,1.32546875,1.03378125,-0.24103125,-0.32809375,1.3113125,0.017948648533671605,0.02058191468454038,True
63498,23436,0,23437,3635.0,39685.0,29550.0,0.005978,-0.000732,-0.001952,0.35000000000000003,-1.4000000000000001,-3.6400000000000006,1.0731875,0.1938125,0.17209375,1.3314062500000001,1.03515625,-0.24240625000000002,-0.33287500000000003,1.3097812500000001,0.017994036792449184,0.02075253129767855,True
63499,23437,0,23438,3635.0,39689.0,29552.0,0.005124,-0.001098,-0.000183,0.12250000000000001,-0.8575,-3.6050000000000004,1.074,0.19340625,0.17515625,1.3284375,1.0371875,-0.24346875,-0.33340625,1.30478125,0.018020317327733886,0.020899766139399412,True
63500,23438,0,23439,3633.0,39689.0,29552.0,-0.004575,0.00061,0.001281,0.45500000000000007,0.0,-3.4650000000000003,1.0796875000000001,0.19365625,0.174625,1.314125,1.0470625,-0.245,-0.33240625,1.304,0.018092647968653328,0.020837694586822875,True
63501,23439,0,23440,3633.0,39692.0,29552.0,-0.007625,0.001037,0.00122,0.385,0.24500000000000002,-3.4125000000000005,1.07221875,0.1921875,0.17121875,1.32259375,1.038375,-0.24275,-0.3335,1.293625,0.017940930793742458,0.020741724371750876,True
63502,23440,0,23441,3633.0,39693.0,29552.0,-0.007076,0.000244,0.000732,0.47250000000000003,0.22750000000000004,-3.3775000000000004,1.0726875,0.193125,0.1769375,1.3137812500000001,1.03871875,-0.2429375,-0.33387500000000003,1.30671875,0.017987197302307117,0.020991827236722473,True
63503,23441,0,23442,3632.0,39692.0,29551.0,-0.0042699999999999995,-0.000488,0.000366,0.56,0.0,-3.4125000000000005,1.07284375,0.193,0.1719375,1.32534375,1.03896875,-0.2469375,-0.33503125,1.31021875,0.018144043964315078,0.020832878527739716,True
63504,23442,0,23443,3634.0,39693.0,29554.0,-0.0013419999999999999,0.000366,0.0006709999999999999,0.45500000000000007,-0.24500000000000002,-3.5175000000000005,1.073375,0.19340625,0.17540625,1.32909375,1.0389375,-0.243,-0.3309375,1.312375,0.01800133028090583,0.020810696258621354,True
63505,23443,0,23444,3633.0,39696.0,29552.0,0.005124,-0.0008539999999999999,-0.001647,0.22750000000000004,-0.42000000000000004,-3.4475000000000002,1.078625,0.19659375,0.1743125,1.32409375,1.04740625,-0.24353125,-0.33178125,1.30359375,0.018154327249665824,0.020799699980863506,True
63506,23444,0,23445,3633.0,39697.0,29555.0,0.004209,-0.000793,-0.001403,0.14,-0.42000000000000004,-3.535,1.07565625,0.19059375,0.173625,1.32375,1.03753125,-0.24381250000000002,-0.335,1.304375,0.017918231713762015,0.02090096568728169,True
63507,23445,0,23446,3632.0,39696.0,29553.0,0.001464,-0.000793,0.000915,0.24500000000000002,-0.1925,-3.5175000000000005,1.07325,0.19396875,0.17503125,1.3245,1.03759375,-0.24284375,-0.328125,1.300625,0.018018203825613487,0.02068208092485549,True
63508,23446,0,23447,3633.0,39694.0,29554.0,-0.003355,-0.0006709999999999999,0.00042699999999999997,0.31500000000000006,-0.052500000000000005,-3.4825000000000004,1.07259375,0.19475,0.1764375,1.334,1.03859375,-0.24381250000000002,-0.33525,1.31003125,0.01808966720890124,0.021026597220081978,True
63509,23447,0,23448,3632.0,39692.0,29555.0,-0.004209,-0.000244,-0.000305,0.4025,-0.035,-3.6225000000000005,1.08296875,0.1873125,0.17025,1.3236875000000001,1.04765625,-0.24453125,-0.33225,1.2940625000000001,0.017812006573647406,0.020651604352248557,True
63510,23448,0,23449,3635.0,39695.0,29554.0,-0.003477,0.000976,0.000976,0.6300000000000001,-0.36750000000000005,-3.5525,1.07015625,0.19453125000000002,0.17428125,1.3318125,1.0373125,-0.24281250000000001,-0.3331875,1.312375,0.01804014076337059,0.020855005124174545,True
63511,23449,0,23450,3632.0,39692.0,29553.0,-0.001769,0.001586,0.001464,0.6125,-0.77,-3.5700000000000003,1.0811875,0.1925625,0.1749375,1.32121875,1.0449375,-0.24440625,-0.333625,1.30409375,0.01802348737659847,0.020899578258479778,True
63512,23450,0,23451,3632.0,39694.0,29552.0,0.000976,0.000976,0.000244,0.56,-0.9450000000000001,-3.6225000000000005,1.08134375,0.19003125,0.17471875,1.32203125,1.04459375,-0.24603125,-0.3285625,1.297375,0.01798490216826723,0.02068684699311766,True
63513,23451,0,23452,3632.0,39695.0,29551.0,0.004148,0.000488,-0.001098,0.385,-1.3125000000000002,-3.6050000000000004,1.07584375,0.1899375,0.17478125,1.31453125,1.04465625,-0.24556250000000002,-0.33265625,1.29571875,0.017962049756527612,0.020854176165004592,True
63514,23452,0,23453,3631.0,39690.0,29548.0,0.004148,-0.000183,-0.001769,0.43750000000000006,-1.2775,-3.5875000000000004,1.07453125,0.18862500000000001,0.1725625,1.321375,1.0434375,-0.24528125,-0.33178125,1.3041875,0.017896523679221087,0.020727777585128507,True
63515,23453,0,23454,3631.0,39692.0,29551.0,0.003538,-0.000732,-0.001281,0.4025,-0.7875000000000001,-3.5175000000000005,1.07021875,0.19153125000000001,0.17240625,1.3211875,1.0366250000000001,-0.24425,-0.3340625,1.30321875,0.017974622848716707,0.02081316056453788,True
63516,23454,0,23455,3632.0,39690.0,29547.0,0.003355,0.00122,-0.0017079999999999999,0.45500000000000007,-0.43750000000000006,-3.5525,1.073875,0.18975,0.1748125,1.32128125,1.03875,-0.24471875,-0.33246875,1.2998125,0.01792013982426585,0.02084791540110372,True
63517,23455,0,23456,3630.0,39692.0,29549.0,-0.0015249999999999999,0.0011589999999999999,0.000976,0.49000000000000005,-0.035,-3.3950000000000005,1.0689375,0.18896875,0.173875,1.322,1.04075,-0.24334375,-0.33221875,1.3036875,0.017832214254685886,0.020799325996524672,True
63518,23456,0,23457,3630.0,39692.0,29551.0,-0.003111,0.000366,0.003111,0.4025,0.21000000000000002,-3.2900000000000005,1.0688125,0.191,0.17328125,1.324875,1.0385312500000001,-0.24403125,-0.33287500000000003,1.3038125,0.0179438495815336,0.020801333586762765,True
63519,23457,0,23458,3630.0,39692.0,29548.0,-0.005124,-0.000976,-0.00061,0.28,0.35000000000000003,-3.2725000000000004,1.0714062500000001,0.1938125,0.17300000000000001,1.3309375,1.0389375,-0.242875,-0.3325,1.3081875,0.01801302444532672,0.02077468406452276,True
63520,23458,0,23459,3629.0,39692.0,29547.0,-0.0055509999999999995,-0.002074,0.001464,0.21000000000000002,0.28,-3.4125000000000005,1.07225,0.19340625,0.17453125,1.33165625,1.03875,-0.24290625000000002,-0.33284375,1.3096875000000001,0.017997532783430203,0.020851446925516055,True
63521,23459,0,23460,3630.0,39692.0,29551.0,-0.005612,-0.002196,0.002623,0.45500000000000007,-0.15750000000000003,-3.43,1.08021875,0.1938125,0.173625,1.3234375,1.0440625000000001,-0.24381250000000002,-0.33234375,1.30428125,0.018050997548343523,0.020794081951106744,True
63522,23460,0,23461,3628.0,39690.0,29552.0,-0.004331,0.000915,0.001098,0.525,-0.8400000000000001,-3.5000000000000004,1.080625,0.18978125,0.17965625000000002,1.3240625,1.0386875,-0.2466875,-0.3330625,1.3038750000000001,0.01800117026294829,0.021070868083292022,True
63523,23461,0,23462,3630.0,39696.0,29551.0,-0.001098,0.001586,0.0006709999999999999,0.7175,-1.61,-3.5000000000000004,1.07315625,0.1940625,0.17203125,1.33034375,1.03915625,-0.24281250000000001,-0.32846875000000003,1.32603125,0.01802080513554275,0.02057260591051379,True
63524,23462,0,23463,3631.0,39695.0,29552.0,0.006344,0.001464,-0.0021349999999999997,0.6825000000000001,-2.1700000000000004,-3.6750000000000003,1.07296875,0.19715625,0.17515625,1.3285,1.06421875,-0.246125,-0.3263125,1.2926250000000001,0.018282560615356064,0.02061425257116137,True
63525,23463,0,23464,3629.0,39693.0,29554.0,0.006954,0.0013419999999999999,-0.001098,0.42000000000000004,-2.7125000000000004,-3.7100000000000004,1.0694062500000001,0.19390625,0.1741875,1.32425,1.05490625,-0.2545625,-0.33184375,1.293875,0.01849007789771512,0.020797077903313428,True
63526,23464,0,23465,3631.0,39699.0,29556.0,0.00549,-0.000549,-0.001037,0.28,-2.5725000000000002,-3.6575,1.0785,0.19278125000000002,0.176125,1.3233125000000001,1.0260625,-0.24740625,-0.33428125000000003,1.29271875,0.01815400358543504,0.02097478223237023,True
63527,23465,0,23466,3629.0,39700.0,29559.0,0.004697,-0.0011589999999999999,-0.000305,0.1925,-2.2750000000000004,-3.6750000000000003,1.0795000000000001,0.19771875,0.172875,1.32871875,1.0483437500000001,-0.24759375,-0.32740625,1.31540625,0.018365224384378348,0.02056451250325957,True
63528,23466,0,23467,3629.0,39700.0,29558.0,0.004331,-0.001647,-0.002196,0.15750000000000003,-1.8200000000000003,-3.7275000000000005,1.073375,0.1945,0.17200000000000001,1.3235937500000001,1.05465625,-0.23640625,-0.32990625,1.3245,0.017779296383926557,0.020629189641863086,True
63529,23467,0,23468,3629.0,39700.0,29561.0,-0.001647,0.000732,6.1e-05,0.45500000000000007,-0.8225000000000001,-3.5875000000000004,1.072375,0.19209375,0.17284375,1.3194062500000001,1.03521875,-0.24003125,-0.3321875,1.3275000000000001,0.0178269159615873,0.020755686269473307,True
63530,23468,0,23469,3629.0,39704.0,29564.0,-0.005673,0.000915,0.0017079999999999999,0.45500000000000007,-0.6300000000000001,-3.5175000000000005,1.07253125,0.1899375,0.17300000000000001,1.326375,1.02828125,-0.23778125,-0.3310625,1.32925,0.01764677820912341,0.02071683059463597,True
63531,23469,0,23470,3630.0,39706.0,29563.0,-0.007137,0.000122,0.0025009999999999998,0.49000000000000005,-0.525,-3.43,1.06540625,0.19053125,0.1731875,1.3236875000000001,1.0314375,-0.2391875,-0.33553125,1.30428125,0.017728265437940115,0.020904361806360815,True
63532,23470,0,23471,3631.0,39705.0,29563.0,-0.0053679999999999995,0.0008539999999999999,0.000915,0.4025,-0.7175,-3.4475000000000002,1.07746875,0.19284375,0.174875,1.33075,1.02640625,-0.24959375,-0.32984375,1.30203125,0.018245151014127818,0.02074484140491038,True
63533,23471,0,23472,3632.0,39705.0,29564.0,-0.002196,0.000366,-0.000793,0.31500000000000006,-0.9275000000000001,-3.4825000000000004,1.07665625,0.19359375,0.17534375,1.328625,1.0591875,-0.2409375,-0.32578125,1.31371875,0.017925513400626522,0.02060057166714841,True
63534,23472,0,23473,3630.0,39705.0,29563.0,0.0030499999999999998,0.000549,0.0,0.22750000000000004,-1.2775,-3.4125000000000005,1.07284375,0.19390625,0.172625,1.32425,1.0421875,-0.23953125,-0.33396875,1.3058125,0.017881430772305057,0.020818377602297197,True
63535,23473,0,23474,3629.0,39704.0,29563.0,0.003904,-0.000244,-0.000793,0.15750000000000003,-1.4175000000000002,-3.5175000000000005,1.07265625,0.1934375,0.1741875,1.3289375,1.03315625,-0.24290625000000002,-0.328125,1.3098125,0.017998821820300527,0.020647398843930635,True
63536,23474,0,23475,3630.0,39705.0,29562.0,0.003111,-0.000244,-0.000549,-0.0175,-1.0850000000000002,-3.5175000000000005,1.07346875,0.1935,0.1733125,1.3235625,1.03909375,-0.24240625000000002,-0.335125,1.30428125,0.017981146157881916,0.02089315341507389,True
63537,23475,0,23476,3630.0,39702.0,29561.0,0.004209,-0.002013,-0.001647,-0.12250000000000001,-0.6825000000000001,-3.4650000000000003,1.077125,0.1935625,0.17384375,1.3241875,1.04475,-0.24334375,-0.33337500000000003,1.3038750000000001,0.018021699255079036,0.020844570471625908,True
63538,23476,0,23477,3630.0,39703.0,29562.0,0.0037819999999999998,-0.000915,-0.002013,-0.07,-0.22750000000000004,-3.6225000000000005,1.07465625,0.1914375,0.177625,1.32834375,1.0410625,-0.2419375,-0.33137500000000003,1.3101562500000001,0.01787707768820046,0.020919491808416086,True
63539,23477,0,23478,3630.0,39701.0,29560.0,-0.0035989999999999998,0.000122,0.002562,0.07,0.385,-3.6050000000000004,1.07390625,0.19165625,0.17500000000000002,1.3223125,1.0381875,-0.24556250000000002,-0.33134375,1.3030625,0.01803293901719129,0.020810348791360938,True
63540,23478,0,23479,3631.0,39701.0,29562.0,-0.006222,0.0,0.002074,0.08750000000000001,0.6475000000000001,-3.5175000000000005,1.078375,0.195375,0.1745625,1.32765625,1.0465,-0.24225,-0.33190625,1.30340625,0.018052160999907186,0.020815004989590574,True
63541,23479,0,23480,3631.0,39699.0,29560.0,-0.004758,-0.0006709999999999999,0.0032329999999999998,0.12250000000000001,0.5775,-3.6750000000000003,1.07271875,0.19246875,0.17221875,1.32415625,1.03871875,-0.2445,-0.33390625,1.30403125,0.01802341768236095,0.020799167827812277,True
63542,23480,0,23481,3631.0,39698.0,29559.0,-0.003477,-0.00061,0.001464,0.12250000000000001,0.43750000000000006,-3.7275000000000005,1.0728125,0.1925,0.17478125,1.3237812500000001,1.040625,-0.24628125,-0.33171875,1.30375,0.01809684732581414,0.02081644972162108,True
63543,23481,0,23482,3631.0,39697.0,29558.0,0.0,0.0,-0.000915,0.0175,0.22750000000000004,-3.9550000000000005,1.08125,0.19290625,0.176,1.3351875,1.04665625,-0.24306250000000001,-0.3310625,1.30975,0.01798323747257592,0.02084012977238458,True
63544,23482,0,23483,3632.0,39697.0,29558.0,-0.003294,-0.000244,0.001403,0.36750000000000005,0.035,-3.9200000000000004,1.0735937500000001,0.20221875,0.174375,1.3240625,1.0385,-0.24281250000000001,-0.3351875,1.3038125,0.01835724505974709,0.02093932910934013,True
63545,23483,0,23484,3632.0,39696.0,29559.0,-0.005612,0.000366,0.0013419999999999999,0.42000000000000004,-0.31500000000000006,-3.8150000000000004,1.076125,0.19087500000000002,0.1758125,1.3346875,1.0465,-0.2409375,-0.33103125,1.30821875,0.017813358084851297,0.020831165962190774,True
63546,23484,0,23485,3633.0,39699.0,29559.0,-0.006893,0.000488,0.0008539999999999999,0.49000000000000005,-0.805,-3.8150000000000004,1.07434375,0.19553125000000002,0.1685625,1.318,1.03971875,-0.24515625,-0.33559375,1.30365625,0.01817631098995289,0.020716825534614295,True
63547,23485,0,23486,3632.0,39701.0,29562.0,-0.001769,0.000732,-0.00042699999999999997,0.36750000000000005,-1.5925000000000002,-3.7800000000000002,1.072375,0.1855,0.17634375,1.3175000000000001,1.0443437500000001,-0.24303125,-0.32790625,1.3125625,0.01767647146022633,0.02072722554987649,True
63548,23486,0,23487,3633.0,39701.0,29562.0,0.0035989999999999998,0.0008539999999999999,-0.001403,0.31500000000000006,-2.345,-3.8325000000000005,1.09159375,0.19409375,0.17740625000000002,1.3334375,1.03846875,-0.24331250000000001,-0.33153125,1.30878125,0.01804234672963936,0.020916788786155823,True
63549,23487,0,23488,3633.0,39702.0,29562.0,0.0077469999999999995,-0.00061,-0.001098,0.31500000000000006,-2.9225000000000003,-3.9025000000000003,1.0784375,0.195,0.17684375,1.32228125,1.0389375,-0.24240625000000002,-0.33284375,1.31078125,0.018043021203804802,0.02094648308420589,True
63550,23488,0,23489,3631.0,39702.0,29561.0,0.0057339999999999995,-0.000305,-0.0023179999999999997,0.29750000000000004,-2.8000000000000003,-3.8850000000000002,1.09025,0.19121875,0.177125,1.3391875,1.041375,-0.24356250000000002,-0.33196875000000003,1.30740625,0.01793388451057884,0.020922834285655573,True
63551,23489,0,23490,3634.0,39702.0,29565.0,0.0032329999999999998,0.000793,-0.000183,0.36750000000000005,-2.4850000000000003,-3.7450000000000006,1.06571875,0.1875,0.17450000000000002,1.32821875,1.035875,-0.24559375,-0.3323125,1.31084375,0.01786278176833677,0.020828784769224052,True
63552,23490,0,23491,3633.0,39701.0,29562.0,0.000549,0.001403,0.00042699999999999997,0.42000000000000004,-2.1175,-3.7275000000000005,1.069375,0.19640625,0.1689375,1.3178125,1.03678125,-0.246,-0.33337500000000003,1.304625,0.01824656644394952,0.02064294410454777,True
63553,23491,0,23492,3634.0,39702.0,29563.0,-0.00061,0.000305,-0.000183,0.31500000000000006,-1.7850000000000001,-3.7275000000000005,1.07675,0.1890625,0.17725,1.33803125,1.047625,-0.244125,-0.3315,1.30809375,0.017867730842008114,0.0209091095904486,True
63554,23492,0,23493,3632.0,39702.0,29563.0,-0.003111,-0.000488,0.000732,0.10500000000000001,-1.2600000000000002,-3.7100000000000004,1.0666875,0.1928125,0.169625,1.3188125,1.0335625,-0.24440625,-0.33178125,1.3035625,0.01803379903353995,0.020607050706573326,True
63555,23493,0,23494,3634.0,39703.0,29565.0,-0.004941,-0.0008539999999999999,0.001464,0.15750000000000003,-1.3125000000000002,-3.7975000000000003,1.0743125,0.18925,0.1771875,1.3270625,1.04578125,-0.24375,-0.33096875000000003,1.31084375,0.01786027326630575,0.020885163070212733,True
63556,23494,0,23495,3634.0,39707.0,29567.0,-0.003843,0.00042699999999999997,0.0017079999999999999,0.385,-1.5925000000000002,-3.8150000000000004,1.07028125,0.19215625,0.1770625,1.32640625,1.038875,-0.24506250000000002,-0.33209375,1.302875,0.01803331090608655,0.020925295423867913,True
63557,23495,0,23496,3635.0,39705.0,29569.0,-0.0018909999999999999,-0.000183,-0.000732,0.3325,-1.7500000000000002,-3.7450000000000006,1.07075,0.194,0.17209375,1.3248125,1.044875,-0.24365625000000002,-0.3341875,1.3039687500000001,0.018052402883744073,0.020805348442392006,True
63558,23496,0,23497,3635.0,39705.0,29569.0,0.0017079999999999999,6.1e-05,-0.002196,0.2625,-1.9425000000000001,-3.7625,1.07275,0.196,0.172375,1.32453125,1.04446875,-0.24334375,-0.33290625,1.30559375,0.018122242316512136,0.020765347337003776,True
63559,23497,0,23498,3636.0,39707.0,29570.0,0.00549,0.000244,-0.000732,0.29750000000000004,-2.1175,-3.7450000000000006,1.0680625,0.19187500000000002,0.174125,1.3244375,1.037875,-0.24665625,-0.33221875,1.30240625,0.018086256739009116,0.02080960043974617,True
63560,23498,0,23499,3634.0,39707.0,29570.0,0.005795,-0.000488,-0.00183,0.24500000000000002,-1.9775000000000003,-3.7450000000000006,1.07103125,0.19359375,0.1739375,1.323125,1.04678125,-0.24346875,-0.3279375,1.3041562500000001,0.018028051369505447,0.020629574537504462,True
63561,23499,0,23500,3635.0,39707.0,29569.0,0.004209,-0.0006709999999999999,-0.00042699999999999997,0.14,-1.4875,-3.7275000000000005,1.0733125000000001,0.19075,0.17509375,1.33059375,1.03875,-0.24671875000000001,-0.33196875000000003,1.306875,0.018042389756345898,0.02083935357676308,True
63562,23500,0,23501,3638.0,39705.0,29568.0,-0.000732,-0.000915,0.00122,0.15750000000000003,-1.1025,-3.7275000000000005,1.073,0.1945,0.17153125,1.32384375,1.032875,-0.243,-0.33309375,1.30440625,0.018046446396898074,0.020738217884850748,True
63563,23501,0,23502,3636.0,39701.0,29568.0,-0.00549,-0.0011589999999999999,0.002074,0.31500000000000006,-0.9100000000000001,-3.8325000000000005,1.080875,0.1931875,0.17396875,1.329875,1.04553125,-0.2441875,-0.3311875,1.31121875,0.018040406592301765,0.020761676757453783,True
63564,23502,0,23503,3635.0,39700.0,29567.0,-0.006161,0.002745,0.00122,0.36750000000000005,-1.0150000000000001,-3.7275000000000005,1.0735000000000001,0.1931875,0.17203125,1.32309375,1.03871875,-0.24231250000000001,-0.33359375,1.30440625,0.017964457804922694,0.020778887212251584,True
63565,23503,0,23504,3636.0,39699.0,29563.0,-0.001952,0.001952,0.002745,0.4025,-1.435,-3.6925000000000003,1.07996875,0.19159375,0.17434375,1.32434375,1.0443437500000001,-0.24659375,-0.33159375,1.304125,0.01807212611049748,0.020793438572021202,True
63566,23504,0,23505,3636.0,39697.0,29559.0,0.00366,-0.0008539999999999999,-0.00244,0.17500000000000002,-1.6800000000000002,-3.7100000000000004,1.07825,0.1933125,0.17553125,1.329875,1.04503125,-0.243125,-0.32809375,1.311125,0.018002526489468665,0.02070137533895355,True
63567,23505,0,23506,3633.0,39692.0,29555.0,0.008113,-0.002379,-0.003294,-0.052500000000000005,-1.7850000000000001,-3.7975000000000003,1.07346875,0.19275,0.1735625,1.32375,1.034,-0.245625,-0.33528125000000003,1.3040625000000001,0.018080581548217463,0.020909713135121463,True
63568,23506,0,23507,3633.0,39693.0,29554.0,0.00732,-0.0011589999999999999,-0.000488,-0.052500000000000005,-1.5050000000000001,-3.8675,1.0774375,0.1906875,0.1743125,1.33175,1.04103125,-0.24756250000000002,-0.3319375,1.30934375,0.018073981663105313,0.02080598801472345,True
63569,23507,0,23508,3630.0,39689.0,29550.0,-0.002623,0.00061,0.0013419999999999999,0.31500000000000006,-0.8400000000000001,-3.7100000000000004,1.0720625,0.192625,0.170625,1.32440625,1.03859375,-0.2439375,-0.33537500000000003,1.30315625,0.018007079089359966,0.020792775948593356,True
63570,23508,0,23509,3629.0,39687.0,29548.0,-0.0077469999999999995,0.0006709999999999999,0.001586,0.28,-0.805,-3.7100000000000004,1.0706875,0.19009375,0.174625,1.31678125,1.046625,-0.24359375,-0.33184375,1.3041562500000001,0.017888746382742866,0.020815058456061308,True
63571,23509,0,23510,3626.0,39685.0,29547.0,-0.0068319999999999995,0.000183,0.000793,0.22750000000000004,-0.9625000000000001,-3.6575,1.07896875,0.19425,0.1745625,1.32003125,1.0443437500000001,-0.24303125,-0.334125,1.308125,0.018037399922915993,0.020904285648240893,True
63572,23510,0,23511,3625.0,39685.0,29543.0,-0.002379,-0.0011589999999999999,-0.000915,0.052500000000000005,-1.2600000000000002,-3.9025000000000003,1.07275,0.19365625,0.1730625,1.33025,1.03903125,-0.242625,-0.33340625,1.3078125,0.017996452529377493,0.020813721876689582,True
63573,23511,0,23512,3623.0,39684.0,29541.0,0.000976,-0.0015249999999999999,0.001037,-0.0175,-1.5750000000000002,-3.8675,1.0756875000000001,0.19334375,0.1739375,1.32375,1.0396875,-0.2398125,-0.33171875,1.30325,0.01786962048489443,0.02078177276317564,True
63574,23512,0,23513,3622.0,39682.0,29540.0,0.00122,0.000976,-0.00061,0.14,-1.995,-3.9025000000000003,1.075625,0.19359375,0.17440625,1.32453125,1.04346875,-0.24609375,-0.33340625,1.30275,0.018134364427259547,0.020868944313951115,True
63575,23513,0,23514,3620.0,39685.0,29541.0,0.000122,0.000488,0.000976,0.17500000000000002,-2.1700000000000004,-3.9725000000000006,1.07309375,0.19346875,0.17275000000000001,1.32390625,1.03909375,-0.2425,-0.33321875,1.305,0.017983654738578943,0.020793334215186803,True
63576,23514,0,23515,3621.0,39684.0,29539.0,0.0018909999999999999,0.000732,-0.00183,0.35000000000000003,-2.24,-3.9200000000000004,1.0755000000000001,0.1933125,0.17409375,1.32040625,1.04515625,-0.24556250000000002,-0.3313125,1.3038750000000001,0.01810125048655811,0.020771844922052606,True
63577,23515,0,23516,3618.0,39681.0,29540.0,0.002074,0.0017079999999999999,-0.0011589999999999999,0.42000000000000004,-2.24,-4.025,1.0771875,0.19378125000000002,0.17453125,1.32509375,1.045875,-0.24456250000000002,-0.32728125,1.30603125,0.0180800849675056,0.020627561906450192,True
63578,23516,0,23517,3617.0,39682.0,29539.0,0.001403,0.000549,-0.0006709999999999999,0.3325,-2.2925000000000004,-3.9550000000000005,1.07625,0.1941875,0.17459375,1.3243125,1.0490625,-0.243125,-0.33190625,1.30321875,0.01803861919616386,0.020816289311487872,True
63579,23517,0,23518,3615.0,39680.0,29535.0,-0.002379,-0.000305,0.0013419999999999999,0.35000000000000003,-2.2925000000000004,-3.9025000000000003,1.0775937500000001,0.19390625,0.1748125,1.3288125,1.0535,-0.24715625,-0.33159375,1.31246875,0.018190277468105153,0.020812703647906338,True
63580,23518,0,23519,3617.0,39678.0,29537.0,-0.001281,-0.000976,0.00042699999999999997,0.29750000000000004,-2.4675000000000002,-3.8150000000000004,1.0735625,0.1941875,0.17159375000000002,1.324125,1.04678125,-0.2413125,-0.3330625,1.2945312500000001,0.01796519887279206,0.02073952877900182,True
63581,23519,0,23520,3613.0,39679.0,29537.0,-0.000122,-0.00122,-0.000732,0.17500000000000002,-2.45,-3.8150000000000004,1.07415625,0.1890625,0.174125,1.32490625,1.03665625,-0.24403125,-0.33137500000000003,1.301625,0.017863933004128595,0.020775644615234446,True
63582,23520,0,23521,3613.0,39676.0,29537.0,0.00244,-0.000915,-0.001037,0.0175,-2.5900000000000003,-3.99,1.09128125,0.19690625,0.173375,1.3206875,1.03871875,-0.23921875,-0.3304375,1.3039375,0.017992535341098813,0.02070708757292178,True
63583,23521,0,23522,3612.0,39673.0,29536.0,0.0028669999999999998,-0.001098,-0.000244,0.08750000000000001,-2.6775,-3.9725000000000006,1.08009375,0.18078125,0.17203125,1.31640625,1.05171875,-0.24456250000000002,-0.32825,1.3023125,0.017543882262259836,0.02056379928683732,True
63584,23522,0,23523,3610.0,39674.0,29534.0,-0.000183,0.001098,0.000305,0.29750000000000004,-2.5900000000000003,-4.0425,1.0605,0.19196875,0.1688125,1.3125625,1.04709375,-0.24703125,-0.331625,1.2984375000000001,0.0181053092839974,0.020567368599507842,True
63585,23523,0,23524,3611.0,39673.0,29536.0,0.0013419999999999999,0.000793,-0.000793,0.385,-2.6250000000000004,-3.9550000000000005,1.0598125,0.18596875000000002,0.17153125,1.312,1.0473125,-0.24825,-0.32709375,1.30128125,0.017907220108667635,0.020496694143746618,True
63586,23524,0,23525,3609.0,39675.0,29534.0,0.0034159999999999998,0.000732,-0.003538,0.35000000000000003,-2.3625000000000003,-4.0075,1.08778125,0.19265625,0.179625,1.3455625,1.05175,-0.23896875,-0.32990625,1.31459375,0.017807069452985703,0.020942589945244856,True
63587,23525,0,23526,3608.0,39672.0,29534.0,0.000488,0.001098,-0.001098,0.385,-2.205,-4.095000000000001,1.0663125,0.198125,0.1695625,1.31721875,1.0362500000000001,-0.24353125,-0.3368125,1.30121875,0.01821748842796983,0.020806956539604356,True
63588,23526,0,23527,3608.0,39671.0,29534.0,-0.0048189999999999995,0.000244,0.004148,0.47250000000000003,-1.8900000000000001,-3.7275000000000005,1.06053125,0.1831875,0.16878125,1.31209375,1.04571875,-0.2485,-0.332,1.30128125,0.017802647586448648,0.02058117910570442,True
63589,23527,0,23528,3606.0,39673.0,29534.0,-0.003477,6.1e-05,0.000244,0.24500000000000002,-2.0300000000000002,-3.7625,1.05865625,0.18762500000000001,0.178125,1.343875,1.04171875,-0.2454375,-0.3304375,1.31021875,0.017861607982945244,0.020902316285927865,True
63590,23528,0,23529,3605.0,39671.0,29531.0,-0.00061,-0.001403,-0.0015249999999999999,0.14,-2.2925000000000004,-3.7800000000000002,1.07,0.1983125,0.16621875,1.327,1.031,-0.24090625000000002,-0.33359375,1.30228125,0.018118907992559066,0.020540019905608886,True
63591,23529,0,23530,3605.0,39671.0,29532.0,0.002196,-0.002196,-0.00122,0.24500000000000002,-2.3800000000000003,-3.6925000000000003,1.06028125,0.1861875,0.1760625,1.313,1.0299375,-0.2451875,-0.33228125000000003,1.30346875,0.0177921907182611,0.020891742322763102,True
63592,23530,0,23531,3605.0,39669.0,29530.0,0.003111,-0.0006709999999999999,-0.000122,0.24500000000000002,-2.45,-3.8150000000000004,1.0950312500000001,0.193,0.1790625,1.3324375,1.04484375,-0.24190625000000002,-0.3308125,1.3105,0.017940266145530535,0.020955938072351677,True
63593,23531,0,23532,3604.0,39671.0,29532.0,0.002989,-0.00042699999999999997,0.0,0.4025,-2.31,-3.8500000000000005,1.0925,0.19593750000000001,0.1773125,1.3360625,1.0413125,-0.24253125,-0.33396875,1.31009375,0.018086756101428146,0.021011009558397662,True
63594,23532,0,23533,3603.0,39670.0,29531.0,0.0032329999999999998,-0.001403,-0.0025009999999999998,0.22750000000000004,-2.0475000000000003,-3.8850000000000002,1.0680625,0.19440625,0.179625,1.31309375,1.03784375,-0.2429375,-0.33415625,1.29165625,0.01804004774586413,0.021113583915612442,True
63595,23533,0,23534,3603.0,39671.0,29533.0,0.000915,-0.0025009999999999998,-0.004148,0.08750000000000001,-1.995,-3.7450000000000006,1.0706875,0.19209375,0.17196875,1.3240625,1.03140625,-0.246625,-0.33490625,1.30728125,0.018094013084295237,0.02082913304833463,True
63596,23534,0,23535,3601.0,39669.0,29531.0,-0.002074,-0.002379,0.000915,0.17500000000000002,-1.7500000000000002,-3.7625,1.0735000000000001,0.19084375,0.17159375000000002,1.32421875,1.0386875,-0.23534375000000002,-0.3349375,1.306875,0.01758537053966895,0.020814980519263712,True
63597,23535,0,23536,3601.0,39670.0,29531.0,-0.0040869999999999995,0.000488,0.002989,0.47250000000000003,-1.5050000000000001,-3.7800000000000002,1.07334375,0.1905,0.17315625,1.321375,1.0390625,-0.242,-0.33340625,1.30334375,0.017840937216401287,0.02081757460487062,True
63598,23536,0,23537,3601.0,39672.0,29532.0,-0.004392,0.008052,0.002379,1.2775,-1.9425000000000001,-4.165,1.07284375,0.192875,0.17178125,1.3239375,1.03928125,-0.24309375,-0.33246875,1.30365625,0.017983214291699055,0.020723339056995603,True
63599,23537,0,23538,3599.0,39671.0,29535.0,-0.0023179999999999997,0.009637999999999999,-0.002562,1.3825,-2.2750000000000004,-4.340000000000001,1.07425,0.19340625,0.1739375,1.328375,1.03875,-0.24465625,-0.33259375,1.3041875,0.018068414560425045,0.020816985447759756,True
63600,23538,0,23539,3600.0,39673.0,29534.0,0.001769,0.006771,-0.00042699999999999997,1.05,-2.2750000000000004,-4.1475,1.081,0.19359375,0.17484375,1.33071875,1.04534375,-0.24490625,-0.33134375,1.3082500000000001,0.018086273276474312,0.020803927033417546,True
63601,23539,0,23540,3599.0,39671.0,29532.0,0.0040869999999999995,0.000122,-0.001586,0.35000000000000003,-2.1,-3.7800000000000002,1.0799375,0.1934375,0.1746875,1.3263125,1.0471875,-0.2431875,-0.332125,1.2985312500000001,0.018010214209661993,0.02082894527296732,True
63602,23540,0,23541,3598.0,39674.0,29531.0,0.007076,-0.0071979999999999995,-0.000976,-0.47250000000000003,-1.7500000000000002,-3.6225000000000005,1.07278125,0.1931875,0.17559375,1.32996875,1.04621875,-0.247125,-0.33146875000000003,1.31028125,0.018159369409775385,0.020839781815473017,True
63603,23541,0,23542,3598.0,39673.0,29531.0,0.0037819999999999998,-0.010735999999999999,-0.003965,-0.665,-0.9450000000000001,-3.4125000000000005,1.0735000000000001,0.19596875,0.17465625,1.327375,1.04509375,-0.24309375,-0.33259375,1.31071875,0.01811082795486859,0.020846524016783042,True
63604,23542,0,23543,3597.0,39674.0,29531.0,-0.001037,-0.006771,-0.003538,-0.385,-0.6125,-3.4650000000000003,1.07296875,0.193375,0.1721875,1.32425,1.039,-0.24284375,-0.33234375,1.30390625,0.017993712061935802,0.020735004206078586,True
63605,23543,0,23544,3597.0,39671.0,29529.0,-0.002989,-0.00183,-0.000244,0.052500000000000005,-0.7000000000000001,-3.5875000000000004,1.06765625,0.19175,0.17453125,1.32753125,1.03846875,-0.24646875000000001,-0.3310625,1.292,0.018073508126827748,0.020779764549945155,True
63606,23544,0,23545,3597.0,39671.0,29529.0,-0.003843,0.0018909999999999999,0.003172,0.35000000000000003,-0.7350000000000001,-3.6575,1.07953125,0.19440625,0.17759375,1.332125,1.04584375,-0.24284375,-0.33196875000000003,1.31103125,0.01803625038832336,0.020942099064630765,True
63607,23545,0,23546,3597.0,39670.0,29532.0,-0.004575,0.002928,0.002806,0.6300000000000001,-0.9975,-3.7800000000000002,1.0730625,0.19496875,0.1723125,1.3275937500000001,1.03896875,-0.2424375,-0.33121875,1.30934375,0.0180429979452355,0.020694863466302935,True
63608,23546,0,23547,3596.0,39671.0,29530.0,-0.002623,0.005795,0.000366,0.9625000000000001,-1.6800000000000002,-4.077500000000001,1.07384375,0.19025,0.17071875,1.323625,1.0389375,-0.24196875,-0.33375,1.304,0.017829358434429957,0.020731237478810297,True
63609,23547,0,23548,3596.0,39671.0,29532.0,-0.002074,0.0073809999999999995,0.001647,1.0675000000000001,-1.9775000000000003,-4.112500000000001,1.07246875,0.19121875,0.171625,1.32428125,1.0388125,-0.2435,-0.33237500000000003,1.30871875,0.01793135273372244,0.020713144524527508,True
63610,23548,0,23549,3596.0,39669.0,29531.0,-0.0017079999999999999,0.0070149999999999995,0.003355,0.9800000000000001,-2.1875,-3.9375000000000004,1.07271875,0.19375,0.17221875,1.323625,1.03865625,-0.238875,-0.33137500000000003,1.30559375,0.01784839436648772,0.020697299268948015,True
63611,23549,0,23550,3594.0,39672.0,29534.0,-0.0006709999999999999,0.003172,0.000976,0.7000000000000001,-2.24,-3.8325000000000005,1.0726875,0.192875,0.17340625,1.3185,1.0385,-0.24421875,-0.33315625,1.30440625,0.018028782635035413,0.02081778848561826,True
63612,23550,0,23551,3596.0,39672.0,29532.0,0.0017079999999999999,-0.002013,-0.002074,0.22750000000000004,-2.31,-3.7800000000000002,1.08015625,0.193625,0.1743125,1.32953125,1.04303125,-0.24315625000000002,-0.3305625,1.30565625,0.0180166825431404,0.020750650544967875,True
63613,23551,0,23552,3594.0,39668.0,29531.0,0.003843,-0.0053679999999999995,-0.001281,-0.2625,-2.0300000000000002,-3.6575,1.0785625,0.19340625,0.1745625,1.329625,1.04459375,-0.24306250000000001,-0.3314375,1.30828125,0.018003861929572637,0.020796140795216064,True
63614,23552,0,23553,3595.0,39671.0,29534.0,0.0050019999999999995,-0.0040869999999999995,-0.000305,-0.15750000000000003,-2.0125,-3.7275000000000005,1.0726875,0.19075,0.17603125,1.3230625,1.0390625,-0.24271875,-0.33340625,1.3033125,0.01788036871895814,0.020935724935755757,True
63615,23553,0,23554,3593.0,39671.0,29533.0,0.0035989999999999998,-0.003965,-0.001281,0.17500000000000002,-1.9600000000000002,-3.9375000000000004,1.0799375,0.1945,0.174375,1.321,1.043,-0.24371875,-0.33228125000000003,1.3135937500000001,0.018075558230933528,0.020822390009157074,True
63616,23554,0,23555,3594.0,39671.0,29534.0,0.00042699999999999997,-0.001586,-0.0018909999999999999,0.31500000000000006,-2.1350000000000002,-3.8850000000000002,1.072875,0.19115625,0.17140625,1.3238750000000001,1.02890625,-0.24225,-0.33428125000000003,1.30496875,0.01787813631160474,0.020780868553493852,True
63617,23555,0,23556,3596.0,39672.0,29535.0,-0.001098,-0.0011589999999999999,-0.0018909999999999999,0.4025,-2.24,-3.8325000000000005,1.0725625,0.1905625,0.174125,1.3238125,1.04,-0.24159375,-0.3393125,1.2996875,0.01782705602844285,0.021094987789815348,True
63618,23556,0,23557,3595.0,39671.0,29536.0,-0.000976,0.001769,0.0015249999999999999,0.49000000000000005,-2.205,-3.9550000000000005,1.079,0.19425,0.174875,1.32634375,1.03921875,-0.2508125,-0.32971875,1.3008125,0.018352477880895744,0.020739810237222735,True
63619,23557,0,23558,3597.0,39671.0,29536.0,-0.000976,0.002074,0.001464,0.5775,-2.2925000000000004,-3.9025000000000003,1.07459375,0.19384375,0.175375,1.3311875,1.055125,-0.24331250000000001,-0.32534375,1.30040625,0.018032034607481963,0.0205842414868238,True
63620,23558,0,23559,3595.0,39670.0,29536.0,-0.000183,0.002257,0.000305,0.5425000000000001,-2.1875,-3.9725000000000006,1.07284375,0.19428125000000002,0.17225000000000001,1.32421875,1.05634375,-0.242625,-0.3354375,1.2887187500000001,0.018022233565878284,0.02086206586587975,True
63621,23559,0,23560,3596.0,39670.0,29536.0,-0.00183,0.002806,0.000305,0.5075000000000001,-2.1175,-3.8850000000000002,1.0804375,0.1938125,0.1731875,1.325,1.047625,-0.24340625000000002,-0.3305625,1.3041562500000001,0.01803454289761778,0.020704412403124667,True
63622,23560,0,23561,3596.0,39672.0,29538.0,-0.000976,0.00183,0.0011589999999999999,0.525,-2.1525000000000003,-3.7975000000000003,1.0783125,0.19375,0.1719375,1.3235625,1.0306875,-0.25025000000000003,-0.32878125,1.31071875,0.018309089597014466,0.020581333066160067,True
63623,23561,0,23562,3596.0,39671.0,29537.0,0.000549,-0.000244,-0.0013419999999999999,0.385,-2.0125,-3.8675,1.0759375,0.19315625,0.17521875,1.3297812500000001,1.03221875,-0.2493125,-0.32915625,1.31590625,0.01824665132258904,0.020731298480603906,True
63624,23562,0,23563,3595.0,39670.0,29538.0,0.0032329999999999998,-0.000549,-0.0018909999999999999,0.1925,-2.0650000000000004,-3.8325000000000005,1.073,0.19365625,0.17300000000000001,1.3231875,1.03734375,-0.241125,-0.335,1.32003125,0.017935687803268208,0.02087528251489624,True
63625,23563,0,23564,3594.0,39671.0,29539.0,0.00183,-0.001464,0.000122,0.24500000000000002,-2.1700000000000004,-3.7625,1.06715625,0.19087500000000002,0.17484375,1.32996875,1.03146875,-0.247125,-0.33387500000000003,1.29740625,0.01806399727802781,0.02090578463150649,True
63626,23564,0,23565,3594.0,39671.0,29537.0,-0.001037,-0.001464,0.0006709999999999999,0.3325,-2.2925000000000004,-3.8150000000000004,1.0809375,0.1940625,0.17340625,1.3243125,1.0499375,-0.24284375,-0.328125,1.3139687500000001,0.018022070946194173,0.02061528580603725,True
63627,23565,0,23566,3597.0,39673.0,29540.0,-0.001281,-0.002074,-0.000244,0.24500000000000002,-2.4675000000000002,-3.7275000000000005,1.0730625,0.19084375,0.17500000000000002,1.3315000000000001,1.03175,-0.24228125,-0.3335,1.29921875,0.017866511634502216,0.02089711714303327,True
63628,23566,0,23567,3595.0,39672.0,29538.0,0.0042699999999999995,-0.0011589999999999999,-0.0021349999999999997,0.29750000000000004,-2.8525000000000005,-3.9025000000000003,1.07325,0.19709375,0.1716875,1.32446875,1.048875,-0.2409375,-0.3336875,1.3028125,0.018069897255417616,0.020768533334703177,True
63629,23567,0,23568,3595.0,39670.0,29540.0,0.0060999999999999995,-0.000793,-0.001403,0.31500000000000006,-2.6075000000000004,-3.8850000000000002,1.07275,0.19009375,0.17446875,1.32965625,1.0293125,-0.24415625,-0.33040625,1.30309375,0.0179115328049414,0.020750783805757456,True
63630,23568,0,23569,3595.0,39669.0,29538.0,0.003172,0.0018909999999999999,0.001037,0.35000000000000003,-2.1875,-3.9025000000000003,1.0735000000000001,0.1939375,0.17250000000000001,1.32384375,1.0478125,-0.24256250000000001,-0.334125,1.3085625,0.018005522312255565,0.020819528131790232,True
63631,23569,0,23570,3595.0,39671.0,29539.0,-0.000122,0.000793,0.0021349999999999997,0.42000000000000004,-1.8025000000000002,-3.9725000000000006,1.07275,0.19159375,0.17459375,1.327625,1.0385312500000001,-0.2454375,-0.33190625,1.29565625,0.01802529857421628,0.020816289311487872,True
63632,23570,0,23571,3593.0,39670.0,29539.0,-0.002196,0.002196,-0.000732,0.42000000000000004,-1.4000000000000001,-4.095000000000001,1.0737812500000001,0.1935625,0.17515625,1.3306875,1.045875,-0.24325,-0.33128125,1.30353125,0.018017901890216865,0.02081425531177073,True
63633,23571,0,23572,3596.0,39670.0,29540.0,-0.0034159999999999998,0.002013,0.000976,0.6475000000000001,-1.05,-3.9025000000000003,1.0660625,0.1939375,0.17440625,1.32428125,1.0385312500000001,-0.24290625000000002,-0.333625,1.3039375,0.01801944641022567,0.020877746328383052,True
63634,23572,0,23573,3595.0,39671.0,29541.0,-0.0028669999999999998,0.000122,0.0015249999999999999,0.47250000000000003,-1.0850000000000002,-3.9550000000000005,1.0791250000000001,0.19415625,0.17400000000000002,1.32078125,1.0461875,-0.24309375,-0.33090625,1.3097812500000001,0.018036064394627852,0.02075164175193844,True
63635,23573,0,23574,3597.0,39672.0,29541.0,-0.001464,-0.000488,-0.000366,0.28,-1.0850000000000002,-3.7625,1.0724375,0.19121875,0.17440625,1.32371875,1.0395,-0.245625,-0.3291875,1.3045,0.01801742582424664,0.020699160216509492,True
63636,23574,0,23575,3596.0,39673.0,29543.0,-0.002745,-0.002074,-0.000122,0.29750000000000004,-1.4000000000000001,-3.6925000000000003,1.08003125,0.19396875,0.17446875,1.32903125,1.04296875,-0.2436875,-0.33209375,1.30928125,0.018052379614281036,0.020818697527827834,True
63637,23575,0,23576,3596.0,39674.0,29543.0,-0.002745,-0.002745,0.000488,0.1925,-1.7325000000000002,-3.7275000000000005,1.07828125,0.19315625,0.17128125,1.324,1.0450625,-0.243,-0.33196875000000003,1.30921875,0.017991018025821887,0.02068266670776486,True
63638,23576,0,23577,3598.0,39675.0,29546.0,0.005673,-0.0006709999999999999,-0.0028669999999999998,0.49000000000000005,-2.1175,-3.7625,1.0736875000000001,0.18928125,0.17425000000000002,1.33459375,1.0388125,-0.24471875,-0.33140625,1.309375,0.017900805716708924,0.020782039673518667,True
63639,23577,0,23578,3599.0,39675.0,29545.0,0.007625,0.000976,-0.001952,0.6300000000000001,-2.0125,-3.7100000000000004,1.07315625,0.1889375,0.1741875,1.3149375,1.0376875,-0.24390625000000002,-0.33428125000000003,1.30453125,0.017853713239796086,0.02089516204634152,True
63640,23578,0,23579,3598.0,39675.0,29544.0,0.00793,0.001403,-0.001586,0.525,-1.5050000000000001,-3.7800000000000002,1.084,0.1945,0.17109375000000002,1.32175,1.04703125,-0.238625,-0.3331875,1.30365625,0.017869206689735906,0.02072401118842322,True
63641,23579,0,23580,3599.0,39674.0,29543.0,0.003111,0.0006709999999999999,0.000183,0.43750000000000006,-0.8575,-3.6400000000000006,1.0809375,0.19725,0.1759375,1.3334062500000001,1.04321875,-0.24334375,-0.33109375,1.311,0.0181738028608368,0.020838818641270494,True
63642,23580,0,23581,3597.0,39674.0,29541.0,-0.003111,0.0,0.001037,0.42000000000000004,-0.3325,-3.5525,1.0715625,0.19496875,0.17234375,1.325625,1.0318125,-0.2365625,-0.3346875,1.3042500000000001,0.01780496924842374,0.020835741161664804,True
63643,23581,0,23582,3598.0,39671.0,29538.0,-0.010126,0.000976,0.004697,0.5425000000000001,-0.0175,-3.5875000000000004,1.0705,0.19065625,0.16878125,1.31278125,1.0389375,-0.24471875,-0.3358125,1.30284375,0.017957519098875916,0.02073461693543209,True
63644,23582,0,23583,3598.0,39669.0,29539.0,-0.009333,0.001037,0.00244,0.56,-0.36750000000000005,-3.5875000000000004,1.0675000000000001,0.18846875,0.17546875,1.3339375,1.039625,-0.24578125,-0.33159375,1.30925,0.0179103323387445,0.020839674754145523,True
63645,23583,0,23584,3598.0,39669.0,29537.0,-0.0034159999999999998,0.000183,-0.000549,0.45500000000000007,-0.9625000000000001,-3.535,1.07165625,0.19471875,0.17034375000000002,1.32025,1.043875,-0.24334375,-0.33365625,1.3011875,0.018069392758579352,0.020712053906818875,True
63646,23584,0,23585,3596.0,39666.0,29531.0,0.002745,-0.000305,-0.001586,0.22750000000000004,-1.2950000000000002,-3.6575,1.0846875,0.1931875,0.1761875,1.32475,1.04521875,-0.24215625000000002,-0.33196875000000003,1.30853125,0.017958128208995436,0.020884304727705194,True
63647,23585,0,23586,3595.0,39663.0,29526.0,0.007625,-0.001586,-0.0011589999999999999,0.1925,-1.6450000000000002,-3.7100000000000004,1.069625,0.19087500000000002,0.175875,1.3317812500000001,1.028125,-0.2431875,-0.3321875,1.30865625,0.017904514412554043,0.020880264053529923,True
63648,23586,0,23587,3595.0,39664.0,29524.0,0.0064659999999999995,-0.000488,-0.001952,0.15750000000000003,-1.3475000000000001,-3.6400000000000006,1.07446875,0.194875,0.1721875,1.3208125,1.0403125,-0.24215625000000002,-0.33425,1.30375,0.018027738353513827,0.020811715997000112,True
63649,23587,0,23588,3592.0,39662.0,29523.0,0.0013419999999999999,-0.000122,-6.1e-05,0.24500000000000002,-1.1375000000000002,-3.6575,1.07825,0.18746875000000002,0.17534375,1.3255625,1.0395625,-0.24340625000000002,-0.33134375,1.3043125,0.01777287380976013,0.020824476658836404,True
63650,23588,0,23589,3590.0,39659.0,29517.0,-0.0034159999999999998,0.00061,0.000732,0.35000000000000003,-0.8575,-3.6750000000000003,1.07821875,0.1931875,0.1749375,1.32915625,1.042125,-0.24228125,-0.3311875,1.30509375,0.017963191892264675,0.020801491912386113,True
63651,23589,0,23590,3586.0,39660.0,29520.0,-0.0057339999999999995,0.000366,0.000488,0.31500000000000006,-0.9100000000000001,-3.7275000000000005,1.07896875,0.194,0.17559375,1.3295937500000001,1.043375,-0.24271875,-0.3315,1.30915625,0.018014429590328025,0.020841039393378957,True
63652,23590,0,23591,3585.0,39659.0,29516.0,-0.0028669999999999998,-0.000122,0.0017079999999999999,0.24500000000000002,-0.8925000000000001,-3.6050000000000004,1.07528125,0.1941875,0.17434375,1.3291250000000001,1.03909375,-0.2415625,-0.3286875,1.30759375,0.017975326466682998,0.02067646477024295,True
63653,23591,0,23592,3583.0,39658.0,29517.0,-0.000732,-0.000122,-0.000122,0.14,-1.4875,-3.6400000000000006,1.072625,0.19965625,0.17403125,1.3312187500000001,1.0309375,-0.24159375,-0.3310625,1.3174375,0.018202186067077377,0.020759214686987056,True
63654,23592,0,23593,3581.0,39657.0,29515.0,0.0018909999999999999,-0.000488,0.0011589999999999999,0.28,-1.7500000000000002,-3.7450000000000006,1.075375,0.1936875,0.17478125,1.32428125,1.0503437500000001,-0.243,-0.33196875000000003,1.29984375,0.018012931567875264,0.02082651039077962,True
63655,23593,0,23594,3579.0,39657.0,29514.0,0.002074,-0.000122,-0.001037,0.385,-1.8200000000000003,-3.8150000000000004,1.07903125,0.1928125,0.17425000000000002,1.3291250000000001,1.0405625,-0.25353125,-0.33203125,1.29709375,0.018403247980641992,0.020807192165676676,True
63656,23594,0,23595,3578.0,39658.0,29514.0,0.002562,0.001647,-0.001037,0.47250000000000003,-1.9250000000000003,-3.7975000000000003,1.0754062500000001,0.1940625,0.17350000000000002,1.3299375,1.04803125,-0.24903125,-0.32721875,1.3045,0.018272637180093535,0.020582654973659905,True
63657,23595,0,23596,3576.0,39657.0,29515.0,0.000488,0.000183,-0.000366,0.42000000000000004,-1.9425000000000001,-3.6400000000000006,1.0643125,0.19375,0.17221875,1.3238125,1.06334375,-0.23671875,-0.32934375,1.32465625,0.017761016020371983,0.02061553756459214,True
63658,23596,0,23597,3575.0,39661.0,29513.0,0.002074,-0.00061,-0.0018909999999999999,0.3325,-1.9075000000000002,-3.7800000000000002,1.07253125,0.19009375,0.175625,1.32278125,1.02971875,-0.23796875,-0.33659375,1.28759375,0.017660823991284335,0.02104726549910051,True
63659,23597,0,23598,3573.0,39659.0,29513.0,0.002623,-0.0008539999999999999,-0.002074,0.21000000000000002,-1.6800000000000002,-3.6575,1.07853125,0.19396875,0.1749375,1.32515625,1.026,-0.25315625,-0.33121875,1.28965625,0.018435744832180346,0.020802749554006617,True
63660,23598,0,23599,3572.0,39657.0,29512.0,0.001037,-0.000549,0.00061,0.1925,-1.4700000000000002,-3.6225000000000005,1.07984375,0.19353125000000002,0.1760625,1.32,1.0519375,-0.2528125,-0.3271875,1.30421875,0.018403793374479765,0.02068673166596015,True
63661,23599,0,23600,3572.0,39656.0,29512.0,-0.000732,-0.0008539999999999999,0.000488,0.2625,-1.2425000000000002,-3.6050000000000004,1.07525,0.194,0.17540625,1.3303125,1.0621875,-0.24859375,-0.32803125,1.2933125,0.018252347107757538,0.020693721363088106,True
63662,23600,0,23601,3570.0,39655.0,29510.0,-0.005063,-0.0006709999999999999,0.001281,0.36750000000000005,-1.2775,-3.7275000000000005,1.080625,0.1934375,0.17503125,1.33078125,1.05275,-0.24681250000000002,-0.3284375,1.30715625,0.018157025794627645,0.020694660312648522,True
63663,23601,0,23602,3570.0,39655.0,29510.0,-0.00244,-0.0008539999999999999,-0.000793,0.3325,-1.4525000000000001,-3.7800000000000002,1.0790625,0.19384375,0.17540625,1.332875,1.06515625,-0.24234375,-0.32503125,1.30696875,0.017992794116699216,0.02057294376548848,True
63664,23602,0,23603,3569.0,39654.0,29510.0,0.000976,0.000732,-0.000366,0.28,-1.4700000000000002,-3.7625,1.0705625,0.19478125000000002,0.17128125,1.3239375,1.06034375,-0.23875000000000002,-0.32990625,1.31440625,0.01788587489041308,0.020599647809986937,True
63665,23603,0,23604,3566.0,39653.0,29507.0,0.00183,0.00122,0.00061,0.36750000000000005,-1.5050000000000001,-3.6575,1.0752187500000001,0.1903125,0.1755625,1.3280625,1.02609375,-0.252625,-0.33153125,1.29590625,0.01826348694213513,0.02084101262636317,True
63666,23604,0,23605,3564.0,39654.0,29509.0,0.001769,0.0015249999999999999,-6.1e-05,0.42000000000000004,-1.54,-3.6050000000000004,1.080625,0.19425,0.17196875,1.316125,1.04946875,-0.24103125,-0.32656250000000003,1.314375,0.01795638335312158,0.020493287943991266,True
63667,23605,0,23606,3565.0,39653.0,29511.0,6.1e-05,0.000549,0.000244,0.22750000000000004,-1.61,-3.5875000000000004,1.07196875,0.1920625,0.17534375,1.3235937500000001,1.03075,-0.2426875,-0.33121875,1.289875,0.017933242756191944,0.02081944621043695,True
63668,23606,0,23607,3565.0,39653.0,29508.0,0.001281,-0.0011589999999999999,-0.0015249999999999999,0.24500000000000002,-1.5575,-3.6225000000000005,1.06771875,0.19075,0.1740625,1.32709375,1.0335,-0.24381250000000002,-0.33159375,1.3104375,0.017924676657188304,0.020781879526490122,True
63669,23607,0,23608,3564.0,39654.0,29508.0,0.0011589999999999999,-0.000549,-6.1e-05,0.1925,-1.4175000000000002,-3.5700000000000003,1.07859375,0.19321875,0.173375,1.3286875,1.04609375,-0.242625,-0.334,1.3119375,0.017978405803826935,0.02085045615188625,True
63670,23608,0,23609,3562.0,39654.0,29510.0,-6.1e-05,-0.0008539999999999999,0.002013,0.15750000000000003,-1.3825,-3.6050000000000004,1.07446875,0.19378125000000002,0.1753125,1.3301875,1.03878125,-0.242375,-0.33025,1.310375,0.017991481857697524,0.020779174073427113,True
63671,23609,0,23610,3563.0,39652.0,29508.0,0.0023179999999999997,-0.002379,-0.000122,0.0175,-1.1725,-3.6400000000000006,1.07790625,0.19409375,0.174875,1.32384375,1.04384375,-0.24271875,-0.33178125,1.3048125,0.01801829673084831,0.02082281789377833,True
63672,23610,0,23611,3561.0,39654.0,29506.0,0.00061,-0.0017079999999999999,6.1e-05,0.0,-0.9975,-3.8150000000000004,1.07875,0.19315625,0.1751875,1.3279375,1.04521875,-0.24221875,-0.33125,1.31221875,0.017959370983730606,0.020814282044695605,True
63673,23611,0,23612,3561.0,39654.0,29506.0,-0.0021349999999999997,-0.002074,0.001281,0.15750000000000003,-0.7350000000000001,-3.6750000000000003,1.07609375,0.193125,0.17434375,1.33003125,1.04584375,-0.24290625000000002,-0.33203125,1.3096875000000001,0.01798593145159731,0.020811045111574892,True
63674,23612,0,23613,3560.0,39653.0,29505.0,-0.002989,-0.000549,0.000488,0.29750000000000004,-0.77,-3.5875000000000004,1.074875,0.1940625,0.1719375,1.32909375,1.03953125,-0.23675000000000002,-0.3335,1.3,0.017775176127162264,0.020771261840672323,True
63675,23613,0,23614,3560.0,39652.0,29506.0,-0.0026839999999999998,0.002562,0.001647,0.45500000000000007,-0.9450000000000001,-3.7800000000000002,1.0716875000000001,0.19434375,0.1745625,1.334875,1.0383437500000001,-0.24259375,-0.33153125,1.30321875,0.018023545850987994,0.020799913692238336,True
63676,23614,0,23615,3559.0,39655.0,29506.0,-0.0023179999999999997,0.004331,0.001098,0.7350000000000001,-1.12,-3.7975000000000003,1.07365625,0.19425,0.17003125,1.3235000000000001,1.0386875,-0.242625,-0.3331875,1.2956875,0.018020944514053245,0.020680346543172776,True
63677,23615,0,23616,3559.0,39656.0,29510.0,-0.00183,0.005612,0.0013419999999999999,0.9975,-1.61,-3.8500000000000005,1.07446875,0.1948125,0.16718750000000002,1.3218750000000001,1.04040625,-0.245875,-0.33303125,1.30384375,0.01817577216743054,0.020557190136350153,True
63678,23616,0,23617,3558.0,39655.0,29509.0,0.000793,0.004392,-0.000183,0.8400000000000001,-1.6975000000000002,-3.8325000000000005,1.068625,0.19012500000000002,0.16659375,1.3194062500000001,1.04365625,-0.24434375,-0.331625,1.3034375,0.017920417004481718,0.020476180690767676,True
63679,23617,0,23618,3558.0,39654.0,29508.0,0.0035989999999999998,0.000549,-0.002379,0.47250000000000003,-1.5750000000000002,-3.7275000000000005,1.0835937500000001,0.18575,0.1765625,1.31565625,1.04390625,-0.24390625000000002,-0.3309375,1.30753125,0.01772223690231437,0.020858218060853598,True
63680,23618,0,23619,3557.0,39658.0,29510.0,0.0044529999999999995,-0.002379,-0.00183,0.14,-1.2775,-3.6750000000000003,1.08275,0.1869375,0.1756875,1.31809375,1.04678125,-0.24225,-0.33221875,1.3085625,0.017704111623302293,0.020873815709880547,True
63681,23619,0,23620,3556.0,39656.0,29506.0,0.003721,-0.004697,0.000183,-0.052500000000000005,-0.9975,-3.535,1.08175,0.1888125,0.17365625,1.3185625,1.0462500000000001,-0.24340625000000002,-0.3320625,1.29678125,0.01782830125201569,0.020784047797016796,True
63682,23620,0,23621,3554.0,39655.0,29507.0,0.000488,-0.005307,-0.0037819999999999998,-0.28,-0.2625,-3.5525,1.0664375,0.18965625,0.16743750000000002,1.3180625000000001,1.04565625,-0.24553125,-0.33187500000000003,1.304,0.017949183934668374,0.02052092163057718,True
63683,23621,0,23622,3555.0,39656.0,29506.0,-0.0015249999999999999,-0.005124,0.000244,-0.08750000000000001,-0.08750000000000001,-3.4125000000000005,1.0666875,0.18812500000000001,0.17478125,1.3193125,1.0346875,-0.24565625,-0.3318125,1.3064375,0.017891091316614705,0.020820222496782757,True
63684,23622,0,23623,3555.0,39654.0,29504.0,-0.003721,-0.004575,0.002623,-0.07,-0.035,-3.3600000000000003,1.07728125,0.18740625,0.177875,1.32975,1.047375,-0.24331250000000001,-0.3315,1.31225,0.017766497461928935,0.02093479645726733,True
63685,23623,0,23624,3554.0,39653.0,29505.0,-0.003843,-0.0032329999999999998,0.001952,0.0175,-0.2625,-3.6225000000000005,1.0890625,0.19478125000000002,0.1821875,1.33953125,1.03859375,-0.24246875,-0.33437500000000003,1.30834375,0.01803652938605933,0.021227687170925904,True
63686,23624,0,23625,3551.0,39652.0,29504.0,-0.0034159999999999998,0.0026839999999999998,0.002257,0.49000000000000005,-0.6300000000000001,-3.8150000000000004,1.06634375,0.1920625,0.16590625,1.31753125,1.039625,-0.24309375,-0.3329375,1.30421875,0.017949699592280793,0.02050076157060774,True
63687,23625,0,23626,3554.0,39652.0,29504.0,-0.002745,0.009394,0.002013,1.2775,-1.3650000000000002,-3.8850000000000002,1.0659687500000001,0.1881875,0.1720625,1.31809375,1.04209375,-0.24678125,-0.33134375,1.3039375,0.01793923678013963,0.020689619742025142,True
63688,23626,0,23627,3554.0,39655.0,29508.0,-0.000366,0.008723,0.001098,1.1375000000000002,-1.7500000000000002,-3.9550000000000005,1.0671875,0.1898125,0.17575000000000002,1.32071875,1.044875,-0.242625,-0.3319375,1.3058750000000001,0.017837899154897623,0.020865066746123283,True
63689,23627,0,23628,3553.0,39654.0,29508.0,0.001769,0.0037819999999999998,0.000976,0.8225000000000001,-1.995,-3.7275000000000005,1.07753125,0.1945625,0.17396875,1.32828125,1.04609375,-0.243,-0.3315625,1.311125,0.01804902446066906,0.020776768857322665,True
63690,23628,0,23629,3552.0,39655.0,29506.0,0.0037819999999999998,-0.001098,-0.00183,0.36750000000000005,-1.7850000000000001,-3.6050000000000004,1.07765625,0.19309375,0.1750625,1.32096875,1.0460625000000001,-0.2420625,-0.3319375,1.30984375,0.01795046316706757,0.020836811700671188,True
63691,23629,0,23630,3550.0,39655.0,29508.0,0.002074,-0.0034159999999999998,-0.000732,0.052500000000000005,-1.6625,-3.535,1.0728125,0.1939375,0.17234375,1.3308125,1.0388125,-0.2426875,-0.33415625,1.3104375,0.01801058566629628,0.02081436458270461,True
63692,23630,0,23631,3551.0,39656.0,29508.0,0.000976,-0.0044529999999999995,-0.0006709999999999999,0.035,-1.5050000000000001,-3.535,1.06303125,0.193375,0.17209375,1.32696875,1.0331875,-0.241875,-0.3343125,1.30715625,0.017954469280944647,0.020810378349501345,True
63693,23631,0,23632,3552.0,39657.0,29510.0,0.00244,-0.0021349999999999997,-0.0030499999999999998,0.12250000000000001,-1.435,-3.6750000000000003,1.0663125,0.19428125000000002,0.173875,1.324625,1.03896875,-0.24406250000000002,-0.3324375,1.304,0.01808045784405976,0.020808129066395422,True
63694,23632,0,23633,3552.0,39658.0,29510.0,0.004026,-0.001403,-0.001403,0.035,-1.12,-3.7450000000000006,1.0804375,0.19384375,0.18071875,1.33090625,1.0385625,-0.24278125,-0.3315,1.30934375,0.01801051601701022,0.021051671701292567,True
63695,23633,0,23634,3551.0,39656.0,29510.0,0.0021349999999999997,-0.001586,-0.0017079999999999999,0.08750000000000001,-1.2425000000000002,-3.6400000000000006,1.081875,0.19375,0.174375,1.329875,1.043625,-0.24259375,-0.32809375,1.3111875,0.017999053834740767,0.02065384798182143,True
63696,23634,0,23635,3551.0,39656.0,29510.0,-0.0011589999999999999,-0.001403,0.000793,0.24500000000000002,-1.1900000000000002,-3.6575,1.08234375,0.19390625,0.1744375,1.33115625,1.044625,-0.24231250000000001,-0.32656250000000003,1.30946875,0.01799410637908409,0.0205947716616353,True
63697,23635,0,23636,3551.0,39657.0,29512.0,-0.0032329999999999998,0.000915,0.000244,0.45500000000000007,-1.1025,-3.6925000000000003,1.0731875,0.1941875,0.173125,1.32471875,1.03934375,-0.24203125,-0.333125,1.2981875,0.017994315142218126,0.020804972645313745,True
63698,23636,0,23637,3553.0,39656.0,29512.0,-0.004148,0.001647,0.00122,0.5075000000000001,-1.155,-3.7100000000000004,1.07275,0.19025,0.17384375,1.3234375,1.0381875,-0.246625,-0.33234375,1.30334375,0.018017971573363302,0.020803072042741465,True
63699,23637,0,23638,3553.0,39658.0,29513.0,-0.002745,0.003294,0.0018909999999999999,0.6825000000000001,-1.0675000000000001,-3.7625,1.0805,0.19568750000000001,0.1739375,1.33025,1.04646875,-0.23875000000000002,-0.33321875,1.30903125,0.017923263369604456,0.020842135814851868,True
63700,23638,0,23639,3551.0,39657.0,29510.0,-0.003477,0.0021349999999999997,0.000915,0.56,-1.1900000000000002,-3.7275000000000005,1.07296875,0.19078125,0.17928125,1.32459375,1.0296875,-0.24559375,-0.33259375,1.29865625,0.01799811563699074,0.021036598287019856,True
63701,23639,0,23640,3552.0,39658.0,29513.0,-0.001769,0.002013,0.001098,0.5075000000000001,-1.3825,-3.6750000000000003,1.08128125,0.191,0.17400000000000002,1.3274062500000001,1.04403125,-0.2451875,-0.33087500000000003,1.30421875,0.017990683718160563,0.020750384028523434,True
63702,23640,0,23641,3553.0,39657.0,29513.0,0.0021349999999999997,-0.000976,-0.000244,0.21000000000000002,-1.8200000000000003,-3.5875000000000004,1.074625,0.19390625,0.17084375000000002,1.32384375,1.045625,-0.24134375,-0.334125,1.30346875,0.017954862753843837,0.020751465277670758,True
63703,23641,0,23642,3553.0,39656.0,29512.0,0.0050019999999999995,-0.001037,-0.002257,0.08750000000000001,-1.9425000000000001,-3.7450000000000006,1.07228125,0.1895,0.17446875,1.33046875,1.02925,-0.24525,-0.33137500000000003,1.31078125,0.01793134737732133,0.020789772464564784,True
63704,23642,0,23643,3553.0,39657.0,29513.0,0.0060999999999999995,-0.002074,-0.0028669999999999998,0.14,-1.8025000000000002,-3.7275000000000005,1.0681875,0.19390625,0.17446875,1.31628125,1.0383125,-0.24403125,-0.332125,1.30440625,0.018063724447641108,0.020819955100510126,True
63705,23643,0,23644,3552.0,39657.0,29511.0,0.0044529999999999995,-0.0021349999999999997,-6.1e-05,0.07,-1.7325000000000002,-3.6050000000000004,1.074375,0.19365625,0.17384375,1.320375,1.04640625,-0.24278125,-0.3329375,1.305625,0.0180027817559093,0.020826965507144378,True
63706,23644,0,23645,3553.0,39656.0,29511.0,0.002562,-0.002074,-0.00183,0.17500000000000002,-1.5225000000000002,-3.6575,1.0739375,0.19265625,0.1743125,1.3199375,1.0296875,-0.24525,-0.33234375,1.30328125,0.018061527515698953,0.020822336524815865,True
63707,23645,0,23646,3555.0,39659.0,29511.0,-0.001464,0.0,0.000549,0.22750000000000004,-1.0850000000000002,-3.7800000000000002,1.07728125,0.1933125,0.17475000000000002,1.32728125,1.04471875,-0.24265625000000002,-0.33190625,1.30878125,0.01798353882941355,0.02082271092097439,True
63708,23646,0,23647,3554.0,39659.0,29514.0,-0.004514,0.000976,0.000793,0.31500000000000006,-0.9450000000000001,-3.7975000000000003,1.073375,0.19375,0.1749375,1.3264375,1.04334375,-0.24256250000000001,-0.33175,1.30884375,0.01799778798136542,0.020824128967295817,True
63709,23647,0,23648,3554.0,39660.0,29514.0,-0.004697,0.00183,0.002928,0.47250000000000003,-0.77,-3.6400000000000006,1.073,0.1930625,0.17459375,1.31165625,1.0391875,-0.24384375,-0.33146875000000003,1.3041562500000001,0.018021327579295258,0.02079868277577777,True
63710,23648,0,23649,3555.0,39661.0,29513.0,-0.006039,0.0017079999999999999,0.002257,0.45500000000000007,-1.0150000000000001,-3.5175000000000005,1.07640625,0.19371875,0.17475000000000002,1.3277812500000001,1.049,-0.24371875,-0.33028125,1.3130625,0.018043333389189727,0.020757312454002152,True
63711,23649,0,23650,3552.0,39656.0,29513.0,-0.000183,0.000793,-0.000732,0.43750000000000006,-1.3475000000000001,-3.5875000000000004,1.07309375,0.19415625,0.17328125,1.3291250000000001,1.0399375,-0.24165625000000002,-0.3328125,1.304875,0.01797783515719971,0.020798818467861042,True
63712,23650,0,23651,3555.0,39658.0,29515.0,0.0032329999999999998,0.001037,-0.000915,0.35000000000000003,-1.7500000000000002,-3.6575,1.076125,0.19359375,0.17475000000000002,1.323625,1.043375,-0.2404375,-0.32990625,1.30534375,0.01790525645422035,0.020742219259476186,True
63713,23651,0,23652,3554.0,39660.0,29514.0,0.005795,-0.000732,-0.001098,0.29750000000000004,-1.6800000000000002,-3.7800000000000002,1.07315625,0.1944375,0.17503125,1.32465625,1.049375,-0.24353125,-0.33037500000000003,1.3005,0.018065385998584673,0.020772645304480513,True
63714,23652,0,23653,3553.0,39660.0,29515.0,0.008418,-0.00061,-0.001952,0.1925,-1.3125000000000002,-3.8325000000000005,1.0855625,0.19303125000000002,0.176,1.32415625,1.0483125,-0.24253125,-0.330625,1.3019375,0.01796687381809604,0.020822523054792055,True
63715,23653,0,23654,3554.0,39660.0,29514.0,0.004209,-0.00183,-0.0026839999999999998,0.17500000000000002,-0.8925000000000001,-3.9025000000000003,1.07515625,0.18309375,0.16828125,1.3165,1.0515,-0.246,-0.33187500000000003,1.3014375,0.017697506805246226,0.020555598366340452,True
63716,23654,0,23655,3554.0,39664.0,29519.0,-0.0075639999999999995,-0.001464,0.001769,0.1925,-0.5075000000000001,-3.6925000000000003,1.055375,0.18703125,0.17059375000000002,1.32334375,1.0479687500000001,-0.246875,-0.3284375,1.3025,0.01789534733857456,0.020512260600377648,True
63717,23655,0,23656,3556.0,39664.0,29520.0,-0.007991,-0.000488,0.002623,0.5075000000000001,-0.36750000000000005,-3.6400000000000006,1.06365625,0.19778125,0.17925,1.328625,1.03490625,-0.24071875,-0.32953125,1.3155625,0.01808939761738707,0.020912086006589215,True
63718,23656,0,23657,3556.0,39664.0,29520.0,-0.00366,0.000549,-0.001281,0.6825000000000001,-0.56,-3.6575,1.0945625,0.1955625,0.17909375,1.33475,1.046125,-0.24196875,-0.33009375,1.31553125,0.018048503176954223,0.020928299957742664,True
63719,23657,0,23658,3557.0,39665.0,29520.0,0.0013419999999999999,0.002196,-0.001769,0.56,-0.665,-3.6925000000000003,1.08571875,0.201,0.180125,1.3218750000000001,1.0284375000000001,-0.24231250000000001,-0.33090625,1.31328125,0.018286724915372657,0.021003379189790762,True
63720,23658,0,23659,3557.0,39666.0,29518.0,0.004941,0.001647,0.0013419999999999999,0.43750000000000006,-0.6125,-3.6225000000000005,1.0954375,0.179625,0.18040625,1.3123125,1.0491875,-0.24215625000000002,-0.32771875,1.302,0.0173986688993476,0.020886668627735593,True
63721,23659,0,23660,3557.0,39664.0,29516.0,-0.00183,6.1e-05,0.000549,0.49000000000000005,-0.6475000000000001,-3.5175000000000005,1.05934375,0.19509375,0.17509375,1.3493125000000001,1.0465,-0.24821875000000002,-0.33296875,1.30703125,0.0182822707338039,0.020879593658295392,True
63722,23660,0,23661,3557.0,39663.0,29516.0,-0.003355,0.000366,0.001769,0.47250000000000003,-0.6475000000000001,-3.6050000000000004,1.06053125,0.19915625,0.17259375,1.32428125,1.03590625,-0.24140625000000002,-0.33246875,1.303125,0.018173966289600052,0.020756730654385408,True
63723,23661,0,23662,3557.0,39660.0,29515.0,-0.002562,-0.000244,0.000183,0.43750000000000006,-0.7525000000000001,-3.5175000000000005,1.05678125,0.19190625,0.16721875,1.31334375,1.03665625,-0.24559375,-0.33171875,1.303125,0.018044515820529246,0.02050564142740636,True
63724,23662,0,23663,3556.0,39661.0,29514.0,-0.001098,0.000183,-0.001098,0.35000000000000003,-0.8225000000000001,-3.535,1.08496875,0.19071875,0.17925,1.33734375,1.0325312500000001,-0.24215625000000002,-0.331,1.31046875,0.017856291145718524,0.020971189018125027,True
63725,23663,0,23664,3556.0,39658.0,29509.0,0.002562,-0.000549,-0.0006709999999999999,0.24500000000000002,-0.9100000000000001,-3.5700000000000003,1.06021875,0.185375,0.1725625,1.3140625000000001,1.03928125,-0.24615625,-0.33240625,1.30440625,0.017797924155504033,0.020752931083418847,True
63726,23664,0,23665,3555.0,39656.0,29507.0,0.000549,-0.00122,6.1e-05,0.22750000000000004,-0.9100000000000001,-3.5875000000000004,1.0805625,0.195,0.17584375,1.33225,1.04609375,-0.2395625,-0.3306875,1.3099375,0.01792781944806141,0.020818616407777216,True
63727,23665,0,23666,3554.0,39655.0,29503.0,-0.001403,-0.000793,0.000183,0.2625,-1.1900000000000002,-3.5875000000000004,1.0686875,0.1920625,0.1726875,1.3236875000000001,1.0338125,-0.24165625000000002,-0.3324375,1.30053125,0.01789146523352752,0.020759325899840492,True
63728,23666,0,23667,3552.0,39655.0,29501.0,0.00061,0.0,0.000793,0.28,-1.3125000000000002,-3.6225000000000005,1.06846875,0.1936875,0.17209375,1.3271875,1.03846875,-0.24228125,-0.33315625,1.30953125,0.01798381701392067,0.020763849736920175,True
63729,23667,0,23668,3550.0,39656.0,29500.0,0.00183,-0.0008539999999999999,-0.0021349999999999997,0.22750000000000004,-1.1375000000000002,-3.6400000000000006,1.073,0.19503125000000002,0.1738125,1.3295625,1.03803125,-0.24253125,-0.33378125000000003,1.3128125,0.01804937345393749,0.020859633148876115,True
63730,23668,0,23669,3549.0,39656.0,29501.0,0.004331,-0.000244,-0.0017079999999999999,0.14,-1.0675000000000001,-3.8325000000000005,1.07353125,0.1940625,0.17371875,1.3332187500000001,1.03909375,-0.2421875,-0.33090625,1.30965625,0.017995488237189817,0.02074008237979216,True
63731,23669,0,23670,3547.0,39657.0,29497.0,-0.004148,0.001098,0.0028669999999999998,0.36750000000000005,-0.6475000000000001,-3.6750000000000003,1.07346875,0.19421875,0.17328125,1.3238125,1.042125,-0.2426875,-0.331125,1.31146875,0.01802218710281193,0.020730905373261613,True
63732,23670,0,23671,3543.0,39656.0,29498.0,-0.0060999999999999995,0.0017079999999999999,0.001037,0.49000000000000005,-0.8400000000000001,-3.535,1.0738125,0.1923125,0.17250000000000001,1.31453125,1.0383125,-0.238125,-0.3325625,1.304,0.01775869626879142,0.020756650681571245,True
63733,23671,0,23672,3542.0,39658.0,29498.0,-0.006039,0.001464,0.000976,0.36750000000000005,-1.2075,-3.6400000000000006,1.0726875,0.19121875,0.17515625,1.32528125,1.0386250000000001,-0.24590625,-0.3329375,1.30375,0.01802881672034841,0.020880904740744926,True
63734,23672,0,23673,3540.0,39657.0,29497.0,-0.0026839999999999998,0.001037,0.00042699999999999997,0.31500000000000006,-1.5225000000000002,-3.535,1.07984375,0.1900625,0.17490625,1.32828125,1.0443125,-0.24465625,-0.33221875,1.30375,0.01793049757098536,0.02084170807481336,True
63735,23673,0,23674,3538.0,39658.0,29495.0,0.0030499999999999998,-0.000732,-0.000549,0.21000000000000002,-1.8200000000000003,-3.6050000000000004,1.0750625,0.19396875,0.1731875,1.33128125,1.04628125,-0.24256250000000001,-0.33396875,1.3098125,0.018006811367403924,0.020841493437029256,True
63736,23674,0,23675,3538.0,39660.0,29497.0,0.0059169999999999995,-0.002745,-0.00122,0.14,-1.9250000000000003,-3.7100000000000004,1.07334375,0.193875,0.17428125,1.3230625,1.0385,-0.24253125,-0.3335,1.31328125,0.01800167835196665,0.020867579674111823,True
63737,23675,0,23676,3536.0,39658.0,29495.0,0.003172,-0.001037,-0.0011589999999999999,0.24500000000000002,-1.9075000000000002,-3.6225000000000005,1.07396875,0.193375,0.174125,1.3165,1.03896875,-0.2381875,-0.3313125,1.30334375,0.017805064838284628,0.020773129275290843,True
63738,23676,0,23677,3535.0,39658.0,29495.0,0.0015249999999999999,0.0,-0.000244,0.385,-1.6450000000000002,-3.535,1.07296875,0.1916875,0.1726875,1.323625,1.03909375,-0.245625,-0.3329375,1.30340625,0.018036759209135667,0.02077944761087723,True
63739,23677,0,23678,3534.0,39659.0,29496.0,0.000183,0.00061,-0.0013419999999999999,0.42000000000000004,-1.5050000000000001,-3.6050000000000004,1.0803125,0.19371875,0.17434375,1.33065625,1.04378125,-0.246,-0.33178125,1.3073125,0.018135723418295804,0.020800984309358776,True
63740,23678,0,23679,3533.0,39657.0,29495.0,-0.001769,6.1e-05,-6.1e-05,0.29750000000000004,-1.4700000000000002,-3.5875000000000004,1.07203125,0.1938125,0.17525000000000002,1.33059375,1.046,-0.241875,-0.3316875,1.30928125,0.01797251656482842,0.020834457125096646,True
63741,23679,0,23680,3530.0,39658.0,29494.0,-0.00244,-0.00183,0.000793,0.24500000000000002,-1.2950000000000002,-3.7100000000000004,1.0796875000000001,0.19353125000000002,0.1755625,1.332625,1.04515625,-0.242625,-0.331125,1.30984375,0.017991296322077334,0.020824663882167388,True
63742,23680,0,23681,3529.0,39658.0,29491.0,-0.00244,-0.000976,-0.000366,0.36750000000000005,-1.3825,-3.7100000000000004,1.073375,0.19365625,0.175125,1.3230625,1.044,-0.243,-0.33184375,1.30865625,0.01801164253598977,0.020835607659201737,True
63743,23681,0,23682,3528.0,39657.0,29493.0,0.000366,0.000549,-0.000793,0.36750000000000005,-1.5575,-3.8150000000000004,1.078375,0.19371875,0.1749375,1.32259375,1.04515625,-0.24265625000000002,-0.3315625,1.3081875,0.01800029648153758,0.020816583398620615,True
63744,23682,0,23683,3526.0,39659.0,29495.0,0.004148,0.001952,-0.00061,0.56,-1.4525000000000001,-3.8150000000000004,1.0725,0.193875,0.17296875,1.32971875,1.03840625,-0.24153125,-0.33115625,1.30890625,0.017961169429014514,0.020719319493910197,True
63745,23683,0,23684,3526.0,39660.0,29494.0,0.00488,0.003111,-0.000793,0.7000000000000001,-1.33,-3.8675,1.0728125,0.1939375,0.17484375,1.3293125000000001,1.03840625,-0.2426875,-0.33184375,1.3084375,0.01801058566629628,0.020824048732435246,True
63746,23684,0,23685,3527.0,39658.0,29495.0,-0.001281,-0.000122,0.000915,0.385,-0.6825000000000001,-3.5875000000000004,1.07975,0.19371875,0.17465625,1.32121875,1.04275,-0.24325,-0.3308125,1.3045,0.018024346983180888,0.020774840544268713,True
63747,23685,0,23686,3525.0,39659.0,29494.0,-0.00366,-0.0025009999999999998,0.0006709999999999999,0.29750000000000004,-0.56,-3.5175000000000005,1.0790625,0.19178125000000001,0.17921875,1.32390625,1.04553125,-0.24559375,-0.33375,1.3039687500000001,0.018039360244580523,0.02108054656598346,True
63748,23686,0,23687,3524.0,39660.0,29496.0,-0.005246,-0.002623,0.000366,0.21000000000000002,-0.6300000000000001,-3.6050000000000004,1.07603125,0.193875,0.17403125,1.32375,1.0385312500000001,-0.246625,-0.33575,1.29775,0.018167476916890492,0.020947833947998314,True
63749,23687,0,23688,3523.0,39662.0,29495.0,-0.003843,-0.002562,0.0021349999999999997,0.24500000000000002,-0.7175,-3.6225000000000005,1.06390625,0.1929375,0.17484375,1.31425,1.0326250000000001,-0.24834375,-0.338625,1.30290625,0.01819840788095063,0.021096867633237294,True
63750,23688,0,23689,3523.0,39658.0,29494.0,-0.0013419999999999999,-0.001403,6.1e-05,0.385,-0.9100000000000001,-3.6400000000000006,1.08125,0.1903125,0.174375,1.32440625,1.033875,-0.244625,-0.33303125,1.2985312500000001,0.01793954330083472,0.020852570515644247,True
63751,23689,0,23690,3521.0,39659.0,29495.0,-0.000122,0.001037,0.00061,0.6300000000000001,-1.7850000000000001,-3.6925000000000003,1.08003125,0.19365625,0.174875,1.3316875000000001,1.03265625,-0.24828125,-0.33046875000000003,1.29909375,0.01822551856123823,0.02076999646790611,True
63752,23690,0,23691,3523.0,39662.0,29493.0,0.001647,0.000183,-0.000305,0.6475000000000001,-2.1525000000000003,-3.7800000000000002,1.07803125,0.19421875,0.17503125,1.33221875,1.0476875,-0.24756250000000002,-0.3295625,1.3,0.01821961485819451,0.020739943433014874,True
63753,23691,0,23692,3520.0,39661.0,29496.0,0.003965,0.0008539999999999999,-0.00183,0.5075000000000001,-2.0650000000000004,-3.9550000000000005,1.0733125000000001,0.19409375,0.17253125,1.3256875000000001,1.05075,-0.2411875,-0.33096875000000003,1.30975,0.017956267612714932,0.020693791734042653,True
63754,23692,0,23693,3520.0,39662.0,29495.0,0.004209,0.001037,-0.000488,0.525,-2.0125,-3.9200000000000004,1.07328125,0.1904375,0.17450000000000002,1.32990625,1.03059375,-0.24509375,-0.333,1.2905625,0.017963685951925844,0.02085645008835738,True
63755,23693,0,23694,3519.0,39661.0,29495.0,0.002379,0.0008539999999999999,0.000183,0.6125,-1.9250000000000003,-3.8150000000000004,1.0805625,0.1936875,0.17278125,1.3299375,1.052875,-0.24240625000000002,-0.32790625,1.31928125,0.017988880538622277,0.020580788780374386,True
63756,23694,0,23695,3519.0,39663.0,29496.0,-0.002989,0.002013,0.001098,0.7350000000000001,-1.7850000000000001,-3.6750000000000003,1.072625,0.19425,0.17440625,1.32353125,1.04046875,-0.24021875,-0.3350625,1.31846875,0.017923466552875064,0.020935584200780254,True
63757,23695,0,23696,3517.0,39664.0,29497.0,-0.0006709999999999999,-0.000549,-0.000793,0.47250000000000003,-1.7325000000000002,-3.7275000000000005,1.07290625,0.19271875,0.1713125,1.31709375,1.03178125,-0.24003125,-0.335125,1.29959375,0.01785269975672989,0.02081096768559849,True
63758,23696,0,23697,3518.0,39665.0,29499.0,0.001403,-0.001586,-0.00061,0.36750000000000005,-1.6450000000000002,-3.8150000000000004,1.0796875000000001,0.19559375,0.17515625,1.3292187500000001,1.03209375,-0.25053125,-0.3330625,1.29846875,0.01839650420029458,0.020885934518106792,True
63759,23697,0,23698,3518.0,39665.0,29495.0,0.0015249999999999999,-0.0017079999999999999,0.000183,0.45500000000000007,-1.5050000000000001,-3.9025000000000003,1.0795000000000001,0.1965,0.17809375,1.33053125,1.05125,-0.24303125,-0.3289375,1.30915625,0.018130210099036193,0.020840665565440335,True
63760,23698,0,23699,3517.0,39660.0,29493.0,-0.001769,-0.0026839999999999998,0.000976,0.5775,-1.6450000000000002,-3.7800000000000002,1.0725625,0.19534375,0.1719375,1.32421875,1.03765625,-0.2400625,-0.33425,1.30865625,0.017962257729327222,0.02080144241141601,True
63761,23699,0,23700,3516.0,39658.0,29489.0,-0.0053679999999999995,0.001037,-0.000122,0.8750000000000001,-2.415,-3.99,1.07303125,0.19046875,0.1739375,1.3243125,1.03584375,-0.2419375,-0.33090625,1.30496875,0.01783711594834365,0.0207490730025726,True
63762,23700,0,23701,3515.0,39655.0,29487.0,-0.002806,0.002623,-0.00042699999999999997,0.805,-2.8525000000000005,-3.99,1.07315625,0.19365625,0.17550000000000002,1.3321875,1.0454375,-0.243,-0.33046875000000003,1.31109375,0.01801164253598977,0.020795684423465948,True
63763,23701,0,23702,3516.0,39651.0,29482.0,0.000793,0.001098,-0.00061,0.7875000000000001,-3.22,-3.9025000000000003,1.07271875,0.1940625,0.17253125,1.31696875,1.038875,-0.24175,-0.33184375,1.308,0.017977765631606628,0.02072900866791075,True
63764,23702,0,23703,3514.0,39648.0,29480.0,0.003843,0.0015249999999999999,-0.000732,0.665,-3.43,-4.0075,1.0728125,0.19303125000000002,0.17334375,1.3245625,1.03871875,-0.24471875,-0.33365625,1.30384375,0.018055478577164358,0.02083533994197851,True
63765,23703,0,23704,3514.0,39647.0,29479.0,0.005307,0.00061,-0.000183,0.6125,-3.5700000000000003,-3.8500000000000005,1.0794062500000001,0.19271875,0.1749375,1.32459375,1.0391875,-0.2449375,-0.33221875,1.3045,0.01805144888494763,0.020842992380216047,True
63766,23704,0,23705,3515.0,39647.0,29481.0,0.00549,-0.001281,-0.001098,0.43750000000000006,-3.1325000000000003,-3.7100000000000004,1.07784375,0.19096875,0.17471875,1.324875,1.04675,-0.246625,-0.33246875,1.30446875,0.018047614874235073,0.02084406252448182,True
63767,23705,0,23706,3516.0,39645.0,29481.0,0.004697,6.1e-05,-0.001098,0.5075000000000001,-2.5375,-3.8500000000000005,1.073875,0.19065625,0.1746875,1.3286875,1.03909375,-0.24496875,-0.33140625,1.30478125,0.01796764534909949,0.020800020549572633,True
63768,23706,0,23707,3514.0,39646.0,29482.0,0.0030499999999999998,0.000793,0.000244,0.5075000000000001,-2.0650000000000004,-3.8150000000000004,1.079625,0.196625,0.17771875,1.3253125000000001,1.0479375,-0.24296875,-0.33115625,1.30409375,0.018132834907028456,0.020914542439798765,True
63769,23707,0,23708,3515.0,39648.0,29484.0,-0.000732,0.00061,-0.000122,0.43750000000000006,-1.5050000000000001,-3.6750000000000003,1.0814375,0.19215625,0.1739375,1.3255937500000001,1.04771875,-0.24509375,-0.33303125,1.3041875,0.01803457658314891,0.02083459084038286,True
63770,23708,0,23709,3517.0,39649.0,29484.0,-0.0025009999999999998,6.1e-05,0.000793,0.31500000000000006,-1.155,-3.5875000000000004,1.07296875,0.1899375,0.1721875,1.3244375,1.0385625,-0.24509375,-0.3321875,1.30421875,0.017943063222842767,0.020728715821378575,True
63771,23709,0,23710,3517.0,39650.0,29484.0,-0.0057339999999999995,-0.001098,0.0008539999999999999,0.28,-0.6300000000000001,-3.4125000000000005,1.0716875000000001,0.18978125,0.17875,1.32278125,1.0389375,-0.24115625000000002,-0.33309375,1.30271875,0.017777101700749115,0.021034881764674912,True
63772,23710,0,23711,3515.0,39654.0,29485.0,-0.0048189999999999995,-0.000732,0.00122,0.28,-0.77,-3.3950000000000005,1.0710625,0.192125,0.173875,1.336125,1.0388125,-0.24440625,-0.334125,1.3101562500000001,0.018005441976950868,0.020876033142757343,True
63773,23711,0,23712,3517.0,39654.0,29485.0,-0.002745,0.0,0.000488,0.35000000000000003,-0.9800000000000001,-3.3075,1.07465625,0.19465625,0.1759375,1.3311875,1.03365625,-0.237625,-0.331,1.3090625,0.01783513236135966,0.020835045826312116,True
63774,23712,0,23713,3520.0,39653.0,29487.0,-0.001281,-0.000488,-0.000366,0.2625,-1.2425000000000002,-3.3425000000000002,1.0815937500000001,0.1923125,0.1755625,1.322125,1.04259375,-0.24375,-0.33184375,1.2942500000000001,0.017986594483114206,0.02085358821194962,True
63775,23713,0,23714,3516.0,39657.0,29488.0,0.004209,-0.000122,-0.000915,0.22750000000000004,-1.4175000000000002,-3.2900000000000005,1.073375,0.18884375,0.17565625,1.3211875,1.0433125,-0.244625,-0.3346875,1.30340625,0.017878962862902602,0.020971863723337317,True
63776,23714,0,23715,3518.0,39655.0,29488.0,0.006344,-0.000549,-0.00042699999999999997,0.10500000000000001,-1.435,-3.5000000000000004,1.07040625,0.195375,0.17384375,1.33634375,1.0385625,-0.244375,-0.3336875,1.31075,0.018138227939470494,0.020857145058676373,True
63777,23715,0,23716,3518.0,39656.0,29487.0,0.0064659999999999995,-0.000732,-0.00042699999999999997,0.14,-1.1725,-3.4825000000000004,1.0705,0.194625,0.17671875,1.33425,1.0389375,-0.24096875,-0.32937500000000003,1.3105625,0.017969321048689525,0.020801757135150412,True
63778,23716,0,23717,3518.0,39658.0,29490.0,0.005795,-0.001403,-0.002074,0.22750000000000004,-0.525,-3.535,1.07496875,0.19478125000000002,0.17621875,1.333875,1.03884375,-0.2394375,-0.32987500000000003,1.30484375,0.017913730465073704,0.02080132964102775,True
63779,23717,0,23718,3520.0,39661.0,29489.0,0.000183,-0.001037,-0.0011589999999999999,0.24500000000000002,0.14,-3.5875000000000004,1.0751875,0.1985625,0.1756875,1.33396875,1.03809375,-0.24190625000000002,-0.3313125,1.30890625,0.018169724173403238,0.020837346937202832,True
63780,23718,0,23719,3519.0,39662.0,29490.0,-0.00732,0.0008539999999999999,0.002745,0.4025,0.805,-3.4650000000000003,1.084625,0.19178125000000001,0.1748125,1.3213125000000001,1.04059375,-0.24271875,-0.33125,1.298875,0.017922907264681275,0.02079886976624711,True
63781,23719,0,23720,3519.0,39665.0,29495.0,-0.009637999999999999,0.001464,0.0017079999999999999,0.5950000000000001,0.7350000000000001,-3.4825000000000004,1.07065625,0.1945,0.17653125,1.3286875,1.03915625,-0.24246875,-0.3268125,1.307375,0.018024927844859037,0.02069090432624496,True
63782,23720,0,23721,3521.0,39664.0,29496.0,-0.006893,0.001952,0.001098,0.56,0.47250000000000003,-3.43,1.0805,0.195875,0.18303125,1.3225625,1.0421562500000001,-0.24234375,-0.33159375,1.30440625,0.01807658345740601,0.02115048464509235,True
63783,23721,0,23722,3520.0,39664.0,29494.0,-0.005246,6.1e-05,0.002806,0.45500000000000007,0.10500000000000001,-3.3775000000000004,1.0785,0.19346875,0.17596875,1.326875,1.042,-0.24175,-0.33125,1.3043125,0.01795327276289872,0.020846390958129977,True
63784,23722,0,23723,3522.0,39665.0,29493.0,-0.001586,-0.0017079999999999999,-0.000183,0.31500000000000006,-0.47250000000000003,-3.3775000000000004,1.079375,0.19,0.174625,1.32290625,1.0439375,-0.243875,-0.32984375,1.30509375,0.017896272769926426,0.02073456595873124,True
63785,23723,0,23724,3522.0,39665.0,29492.0,0.003904,6.1e-05,0.0006709999999999999,0.31500000000000006,-1.3825,-3.4650000000000003,1.07321875,0.19096875,0.17215625,1.32315625,1.039125,-0.2439375,-0.3340625,1.29665625,0.01793876304127578,0.02080288689979324,True
63786,23724,0,23725,3521.0,39665.0,29494.0,0.0059169999999999995,-0.000549,-0.00061,0.5075000000000001,-1.5925000000000002,-3.5175000000000005,1.07459375,0.1913125,0.1751875,1.32425,1.03721875,-0.24725,-0.334625,1.3049375,0.01808710266112652,0.020950086553624722,True
63787,23725,0,23726,3521.0,39665.0,29495.0,0.008967,6.1e-05,-0.003111,0.36750000000000005,-1.4000000000000001,-3.6750000000000003,1.07346875,0.19768750000000002,0.1785625,1.3272187500000001,1.03871875,-0.253375,-0.3330625,1.294875,0.018597927092621133,0.021025918952865055,True
63788,23726,0,23727,3523.0,39666.0,29496.0,0.009211,0.000488,-0.0040869999999999995,0.29750000000000004,-0.77,-3.9200000000000004,1.08084375,0.19334375,0.17528125,1.3271875,1.0465625,-0.25196875,-0.3313125,1.29246875,0.018361911339672167,0.020820650345105714,True
63789,23727,0,23728,3523.0,39668.0,29498.0,0.00549,0.0006709999999999999,-0.000915,0.2625,0.035,-3.8675,1.08084375,0.19109375,0.1745625,1.324625,1.02828125,-0.25275000000000003,-0.338125,1.29859375,0.01830075970766202,0.021065201201818134,True
63790,23728,0,23729,3524.0,39670.0,29499.0,-0.008845,-0.000122,0.002745,0.43750000000000006,1.155,-3.535,1.07478125,0.19140625,0.1740625,1.323,1.02521875,-0.24446875,-0.33537500000000003,1.29471875,0.017978327530893002,0.020934031219983256,True
63791,23729,0,23730,3523.0,39670.0,29502.0,-0.012322,0.000305,0.0026839999999999998,0.5075000000000001,1.225,-3.5175000000000005,1.07603125,0.19893750000000002,0.1734375,1.32484375,1.04940625,-0.24584375,-0.32546875000000003,1.3208125,0.018344638965183468,0.020509625328391668,True
63792,23730,0,23731,3524.0,39673.0,29501.0,-0.009699,0.000122,0.0021349999999999997,0.36750000000000005,0.9625000000000001,-3.4125000000000005,1.0729375,0.19340625,0.17503125,1.324375,1.02915625,-0.23715625,-0.3370625,1.30409375,0.01776456344790862,0.021041723913886486,True
63793,23731,0,23732,3525.0,39673.0,29500.0,-0.004514,-0.0008539999999999999,0.002074,0.525,0.47250000000000003,-3.3600000000000003,1.08203125,0.19475,0.176875,1.32428125,1.02659375,-0.2515,-0.33365625,1.287875,0.01840092365420696,0.020980457879197664,True
63794,23732,0,23733,3527.0,39674.0,29504.0,-0.000122,-0.000976,-0.000305,0.47250000000000003,-0.08750000000000001,-3.4825000000000004,1.0731875,0.193625,0.17453125,1.32421875,1.06253125,-0.24025,-0.33446875,1.31290625,0.017898949061993998,0.020916832219729474,True
63795,23733,0,23734,3527.0,39674.0,29504.0,0.002074,0.000183,0.000305,0.5425000000000001,-0.7875000000000001,-3.4475000000000002,1.07925,0.195375,0.1748125,1.33353125,1.01790625,-0.2515625,-0.33059375,1.3125,0.018429224921074672,0.020772458543063713,True
63796,23734,0,23735,3525.0,39678.0,29505.0,0.004026,0.00042699999999999997,-0.000122,0.7525000000000001,-0.7875000000000001,-3.3950000000000005,1.0694062500000001,0.19246875,0.18021875,1.328875,1.04134375,-0.23578125,-0.33475,1.2939687500000001,0.017670154536487247,0.02116186728854827,True
63797,23735,0,23736,3527.0,39678.0,29504.0,0.0057339999999999995,0.000488,-0.002196,0.7350000000000001,-0.665,-3.43,1.07278125,0.19921875,0.1716875,1.32425,1.0595,-0.23940625000000001,-0.336875,1.29528125,0.01809553400261197,0.0208967872826729,True
63798,23736,0,23737,3529.0,39680.0,29507.0,0.0044529999999999995,0.0017079999999999999,-0.0040869999999999995,0.7350000000000001,-0.3325,-3.5875000000000004,1.0801875,0.194125,0.17221875,1.32478125,1.0361875,-0.24375,-0.3290625,1.3059687500000001,0.01806135601959268,0.020604215637162346,True
63799,23737,0,23738,3530.0,39683.0,29507.0,0.0032329999999999998,0.00122,-0.0015249999999999999,0.77,0.14,-3.4650000000000003,1.07975,0.19209375,0.17496875,1.33009375,1.03640625,-0.24621875000000001,-0.32934375,1.3103125,0.0180775610630008,0.020728569795475882,True
63800,23738,0,23739,3530.0,39681.0,29506.0,-0.005612,0.000244,0.0013419999999999999,0.5950000000000001,0.9975,-3.325,1.07546875,0.19828125,0.17175,1.33078125,1.0388125,-0.24328125,-0.3335,1.2995,0.018213809238384344,0.020763556413997162,True
63801,23739,0,23740,3530.0,39683.0,29505.0,-0.008662,-0.00042699999999999997,0.002806,0.5075000000000001,0.9975,-3.325,1.0735000000000001,0.19140625,0.17475000000000002,1.32815625,1.037875,-0.24484375,-0.335,1.29115625,0.017993516662692454,0.02094719539757551,True
63802,23740,0,23741,3531.0,39682.0,29505.0,-0.0073809999999999995,6.1e-05,0.0028669999999999998,0.525,0.77,-3.2900000000000005,1.073125,0.19325,0.172375,1.3276875000000001,1.0383437500000001,-0.24228125,-0.33209375,1.29684375,0.017965770032471677,0.020732648623795476,True
63803,23741,0,23742,3534.0,39684.0,29505.0,-0.0032329999999999998,-0.000244,0.000183,0.5425000000000001,0.4025,-3.3600000000000003,1.07253125,0.194125,0.17309375,1.324625,1.039375,-0.242875,-0.3335625,1.30403125,0.018025914830646115,0.02082129363507707,True
63804,23742,0,23743,3532.0,39682.0,29502.0,0.002989,0.000122,-0.000305,0.45500000000000007,0.035,-3.2725000000000004,1.0738125,0.19271875,0.17300000000000001,1.32490625,1.039,-0.24506250000000002,-0.33309375,1.30471875,0.01805651150620874,0.020798578068191596,True
63805,23743,0,23744,3532.0,39682.0,29501.0,0.007137,-6.1e-05,-0.001952,0.31500000000000006,0.42000000000000004,-3.3075,1.07078125,0.19225,0.172375,1.324875,1.03921875,-0.2374375,-0.331625,1.3043437500000001,0.017728256132687296,0.02071378298818924,True
63806,23744,0,23745,3531.0,39681.0,29497.0,0.004209,-0.000305,-0.0008539999999999999,0.31500000000000006,0.9100000000000001,-3.3075,1.0738125,0.192,0.1748125,1.32475,1.037625,-0.245375,-0.33134375,1.30475,0.018039523001809624,0.020802642681828864,True
63807,23745,0,23746,3531.0,39680.0,29495.0,-0.000244,-0.000122,0.000488,0.31500000000000006,1.3825,-3.2900000000000005,1.07896875,0.19718750000000002,0.17628125,1.3249375,1.0479687500000001,-0.24309375,-0.33025,1.3093125,0.018161100003995984,0.02081899076252813,True
63808,23746,0,23747,3529.0,39682.0,29496.0,-0.0062829999999999995,-0.000122,0.000549,0.28,1.6275000000000002,-3.2025,1.067625,0.1931875,0.1753125,1.33659375,1.0478125,-0.24253125,-0.32709375,1.310375,0.017973319102146154,0.020652127835862025,True
63809,23747,0,23748,3528.0,39683.0,29491.0,-0.009577,0.000732,0.0034159999999999998,0.4025,1.6450000000000002,-3.1675000000000004,1.0735937500000001,0.1939375,0.18015625,1.33584375,1.03959375,-0.24225,-0.33287500000000003,1.31171875,0.017992863698707836,0.021083873155145046,True
63810,23748,0,23749,3526.0,39683.0,29490.0,-0.0070149999999999995,-0.0006709999999999999,0.001281,0.42000000000000004,0.7350000000000001,-3.0975,1.09296875,0.1929375,0.17621875,1.3178125,1.043875,-0.24256250000000001,-0.3299375,1.3109375,0.01796427254750813,0.020803845057144103,True
63811,23749,0,23750,3524.0,39685.0,29492.0,-0.002623,-0.00183,0.00042699999999999997,0.2625,-0.07,-3.2375000000000003,1.0900625,0.19121875,0.17734375,1.3335000000000001,1.04565625,-0.242,-0.3308125,1.31340625,0.01787058617275802,0.020885297192603,True
63812,23750,0,23751,3522.0,39684.0,29488.0,0.00122,-0.001952,-0.000183,0.1925,-0.7000000000000001,-3.5525,1.07440625,0.1953125,0.1785,1.33928125,1.039,-0.24234375,-0.33290625,1.30565625,0.018053380255364126,0.02101706408374462,True
63813,23751,0,23752,3522.0,39683.0,29493.0,0.004941,-0.000488,-0.001281,0.1925,-1.2075,-3.6925000000000003,1.05984375,0.19575,0.17359375,1.34096875,1.02959375,-0.24403125,-0.33387500000000003,1.3064375,0.018139774093881355,0.020854415911974563,True
63814,23752,0,23753,3519.0,39683.0,29490.0,0.006588,6.1e-05,-0.002196,0.29750000000000004,-1.3125000000000002,-3.9025000000000003,1.06653125,0.19596875,0.1730625,1.31509375,1.03875,-0.24406250000000002,-0.33371875,1.30490625,0.018150062515306584,0.020826296843757183,True
63815,23753,0,23754,3518.0,39685.0,29487.0,0.002623,0.000549,-0.000183,0.6125,-1.3475000000000001,-3.8850000000000002,1.06684375,0.18978125,0.17096875,1.33228125,1.0455,-0.24575,-0.3318125,1.29909375,0.017963199736036214,0.020663534621598777,True
63816,23754,0,23755,3515.0,39681.0,29486.0,-0.000976,0.001403,-0.000793,0.5775,-1.2600000000000002,-3.8500000000000005,1.0669375,0.19521875,0.1759375,1.34053125,1.0386875,-0.243625,-0.32925,1.309125,0.01810140810212994,0.020764614609985924,True
63817,23755,0,23756,3514.0,39682.0,29485.0,-0.0037819999999999998,0.000915,-0.000549,0.56,-1.155,-3.7625,1.06775,0.19484375,0.16784375,1.32365625,1.03925,-0.24090625000000002,-0.3328125,1.3041875,0.017975813094859027,0.020575354780710205,True
63818,23756,0,23757,3516.0,39682.0,29485.0,-0.001647,0.00061,-0.000244,0.47250000000000003,-1.1725,-3.5875000000000004,1.06746875,0.1855,0.17365625,1.3181875,1.0425,-0.24603125,-0.331,1.3045,0.017798015912398036,0.020741286835723974,True
63819,23757,0,23758,3514.0,39679.0,29483.0,-0.000305,-6.1e-05,0.0,0.5075000000000001,-1.0675000000000001,-3.535,1.08015625,0.1883125,0.1770625,1.3292187500000001,1.04684375,-0.24315625000000002,-0.3269375,1.31165625,0.017797548534960253,0.02071777427799944,True
63820,23758,0,23759,3513.0,39680.0,29483.0,-6.1e-05,0.000549,0.001464,0.45500000000000007,-1.225,-3.535,1.08646875,0.19521875,0.1750625,1.33053125,1.04046875,-0.24140625000000002,-0.33275,1.30896875,0.018011537593863806,0.020869507145719245,True
63821,23759,0,23760,3513.0,39678.0,29486.0,-0.0028669999999999998,0.000305,0.001098,0.47250000000000003,-1.12,-3.4825000000000004,1.07040625,0.19584375,0.17459375,1.32871875,1.03959375,-0.24228125,-0.3330625,1.31128125,0.018072762851062126,0.020862817822458638,True
63822,23760,0,23761,3511.0,39680.0,29484.0,-0.001281,-0.00042699999999999997,0.000976,0.31500000000000006,-1.3825,-3.535,1.07415625,0.1921875,0.17559375,1.3299375,1.0384375000000001,-0.24159375,-0.32975,1.3091875,0.017894089574865515,0.020770610055590378,True
63823,23761,0,23762,3511.0,39679.0,29483.0,0.001281,-0.000976,-0.000244,0.2625,-1.4700000000000002,-3.6225000000000005,1.0739375,0.197375,0.172375,1.3268125,1.03925,-0.241625,-0.33209375,1.304125,0.01810934704253531,0.020732648623795476,True
63824,23762,0,23763,3511.0,39681.0,29485.0,0.002623,0.0,-0.002745,0.24500000000000002,-1.5750000000000002,-3.6575,1.07346875,0.1945,0.17265625,1.32809375,1.03909375,-0.23646875,-0.33378125000000003,1.30659375,0.017781829293923027,0.02081211690024542,True
63825,23763,0,23764,3510.0,39682.0,29486.0,0.001464,-0.000244,0.001464,0.29750000000000004,-1.33,-3.6925000000000003,1.07384375,0.19984375000000001,0.1716875,1.3201875,1.03940625,-0.24396875,-0.3320625,1.3056875000000001,0.018306099326249957,0.020703136037070427,True
63826,23764,0,23765,3510.0,39680.0,29485.0,-0.00061,-0.001586,-0.000915,0.14,-1.155,-3.6925000000000003,1.07353125,0.193875,0.17378125,1.32484375,1.0391875,-0.24515625,-0.33196875000000003,1.30403125,0.01810799837596427,0.020785412195632548,True
63827,23765,0,23766,3510.0,39682.0,29486.0,-0.000244,-0.0013419999999999999,-0.0015249999999999999,0.14,-0.8925000000000001,-3.7625,1.073875,0.19353125000000002,0.1743125,1.32475,1.03840625,-0.2455,-0.33140625,1.30353125,0.018107741642779073,0.020784608370097803,True
63828,23766,0,23767,3508.0,39681.0,29485.0,-0.001464,-0.0017079999999999999,0.003538,0.10500000000000001,-0.8575,-3.7450000000000006,1.06540625,0.19065625,0.17453125,1.324375,1.044875,-0.24506250000000002,-0.33046875000000003,1.30565625,0.017971442639094046,0.0207558680923482,True
63829,23767,0,23768,3508.0,39681.0,29485.0,-0.002989,-0.002196,-0.0028669999999999998,0.1925,-0.9625000000000001,-3.7800000000000002,1.08046875,0.19440625,0.1718125,1.3203125,1.044625,-0.24140625000000002,-0.33184375,1.29875,0.017978020561410294,0.02069946918839638,True
63830,23768,0,23769,3508.0,39679.0,29487.0,-0.0030499999999999998,0.0015249999999999999,0.001098,0.7175,-1.2425000000000002,-3.8675,1.07496875,0.1919375,0.174625,1.32653125,1.03928125,-0.24515625,-0.3314375,1.3113125,0.01802808550677004,0.020798709488496107,True
63831,23769,0,23770,3508.0,39682.0,29487.0,-0.003172,0.0037819999999999998,0.000244,0.8750000000000001,-1.7500000000000002,-3.8850000000000002,1.0730625,0.19121875,0.17371875,1.324625,1.0345625,-0.2426875,-0.33165625,1.30371875,0.017898438446644994,0.020770267128856056,True
63832,23770,0,23771,3508.0,39682.0,29489.0,-0.0021349999999999997,0.004331,0.0017079999999999999,0.8925000000000001,-2.1,-3.8325000000000005,1.08175,0.19378125000000002,0.17471875,1.3297812500000001,1.046125,-0.24278125,-0.32990625,1.31384375,0.01800793792997658,0.02074093483200331,True
63833,23771,0,23772,3508.0,39683.0,29488.0,0.000183,0.004209,-0.001281,0.8575,-2.6425,-3.7800000000000002,1.08221875,0.194125,0.17459375,1.3335625,1.04703125,-0.24281250000000001,-0.33115625,1.3120625000000001,0.01802338321925313,0.020786106291187864,True
63834,23772,0,23773,3508.0,39682.0,29486.0,0.004575,0.001037,0.000122,0.56,-2.9225000000000003,-3.7800000000000002,1.07265625,0.1940625,0.17540625,1.3301875,1.04003125,-0.236125,-0.33365625,1.3125,0.017749846561692515,0.020920099091150758,True
63835,23773,0,23774,3507.0,39682.0,29490.0,0.007808,-0.003904,-0.001037,-0.14,-2.7125000000000004,-3.7800000000000002,1.07490625,0.193625,0.17321875,1.3317812500000001,1.03946875,-0.242625,-0.33334375,1.30915625,0.017995163477552454,0.020817628074645517,True
63836,23774,0,23775,3507.0,39680.0,29486.0,0.007137,-0.004758,-0.002257,-0.035,-2.1700000000000004,-3.7975000000000003,1.07384375,0.19253125000000001,0.17390625,1.32253125,1.0393125,-0.24253125,-0.33109375,1.3038750000000001,0.017946248909135674,0.020755334930226882,True
63837,23775,0,23776,3506.0,39677.0,29484.0,0.003721,-0.001769,-0.0018909999999999999,0.15750000000000003,-1.5750000000000002,-3.8325000000000005,1.08046875,0.19375,0.17478125,1.32996875,1.0456875,-0.23965625000000002,-0.33153125,1.308,0.017880049350947377,0.02080890408407814,True
63838,23776,0,23777,3506.0,39678.0,29483.0,-0.001098,0.0008539999999999999,-0.000244,0.47250000000000003,-0.9625000000000001,-3.8500000000000005,1.07278125,0.19434375,0.17234375,1.32440625,1.03890625,-0.24184375,-0.33409375,1.3041562500000001,0.017993165226964224,0.02081184962969907,True
63839,23777,0,23778,3504.0,39678.0,29481.0,-0.006344,0.002013,0.0015249999999999999,0.5950000000000001,-0.49000000000000005,-3.7450000000000006,1.0735000000000001,0.19309375,0.17459375,1.32484375,1.0394375,-0.2434375,-0.33175,1.304875,0.018006161461220176,0.02081000133570335,True
63840,23778,0,23779,3504.0,39679.0,29481.0,-0.0050019999999999995,0.000915,0.000488,0.4025,-0.3325,-3.6925000000000003,1.07675,0.19175,0.17396875,1.32621875,1.041125,-0.24340625000000002,-0.33125,1.3044375,0.01794946821880692,0.020764192139737993,True
63841,23779,0,23780,3505.0,39679.0,29481.0,-0.003355,-0.0006709999999999999,-0.001586,0.14,-0.5425000000000001,-3.7275000000000005,1.0763125,0.1950625,0.17478125,1.32853125,1.045,-0.24265625000000002,-0.32325,1.31228125,0.018055725638563228,0.020475522391127828,True
63842,23780,0,23781,3503.0,39678.0,29480.0,-0.002928,-0.0023179999999999997,0.001281,0.10500000000000001,-0.7350000000000001,-3.6225000000000005,1.0729375,0.194125,0.17346875,1.3260625,1.0402500000000001,-0.2420625,-0.32715625,1.31165625,0.017993002864339618,0.020578854135489016,True
63843,23781,0,23782,3505.0,39679.0,29481.0,-0.001769,-0.003111,0.001586,-0.0175,-1.0325000000000002,-3.5875000000000004,1.0734375,0.19478125000000002,0.17475000000000002,1.3253125000000001,1.03875,-0.2409375,-0.3324375,1.303625,0.017974500779930645,0.020844089294383267,True
63844,23782,0,23783,3505.0,39680.0,29482.0,-0.0006709999999999999,-0.0011589999999999999,-0.001098,0.035,-1.9075000000000002,-3.7275000000000005,1.0729375,0.19334375,0.18209375,1.3250625,1.03784375,-0.24578125,-0.33425,1.2946875,0.018111398245828848,0.02121880682577026,True
63845,23783,0,23784,3504.0,39677.0,29481.0,0.001281,0.00183,-0.000305,0.35000000000000003,-2.31,-3.9025000000000003,1.074125,0.1916875,0.17246875,1.3255000000000001,1.03628125,-0.2441875,-0.33587500000000003,1.3011875,0.017978536092413906,0.02088865717793176,True
63846,23784,0,23785,3504.0,39678.0,29481.0,0.0040869999999999995,0.003172,-0.000183,0.525,-2.5900000000000003,-4.0600000000000005,1.07303125,0.19640625,0.1726875,1.324125,1.036,-0.24028125,-0.3359375,1.3013125,0.018014951868596824,0.02090016051364366,True
63847,23785,0,23786,3505.0,39678.0,29481.0,0.0048189999999999995,0.0050019999999999995,0.000183,0.5775,-2.6075000000000004,-4.025,1.07403125,0.1831875,0.17359375,1.31003125,1.0386250000000001,-0.24859375,-0.3300625,1.30190625,0.017806444961370183,0.02070098463577724,True
63848,23786,0,23787,3502.0,39675.0,29483.0,0.005856,0.002623,-0.00122,0.28,-2.5200000000000005,-4.025,1.0908437500000001,0.18315625,0.17465625,1.314125,1.05128125,-0.24234375,-0.3296875,1.30696875,0.017551933277903463,0.020729561364074247,True
63849,23787,0,23788,3504.0,39676.0,29482.0,0.001403,-0.0023179999999999997,-0.001769,0.07,-1.7675,-3.8150000000000004,1.086875,0.18696875000000002,0.1779375,1.330125,1.04978125,-0.24146875,-0.33053125,1.3146875,0.0176737434690297,0.02089838256203304,True
63850,23788,0,23789,3504.0,39678.0,29482.0,-0.00122,-0.00244,0.00122,-0.07,-1.4175000000000002,-3.7275000000000005,1.0953125000000001,0.19484375,0.18084375,1.3433125000000001,1.04478125,-0.24203125,-0.33434375,1.30721875,0.018021385893560383,0.02117120992835486,True
63851,23789,0,23790,3503.0,39676.0,29482.0,-0.0046359999999999995,-0.002745,0.0025009999999999998,-0.0175,-1.1725,-3.7450000000000006,1.06809375,0.19746875,0.1700625,1.33990625,1.0286250000000001,-0.242375,-0.336,1.30309375,0.01814359154167032,0.02079481015779093,True
63852,23790,0,23791,3505.0,39677.0,29483.0,-0.00549,-0.00122,0.0013419999999999999,0.07,-1.12,-3.7275000000000005,1.0496875,0.198875,0.16615625,1.3198750000000001,1.03525,-0.24196875,-0.3340625,1.30240625,0.018185146369351705,0.020556318945921994,True
63853,23791,0,23792,3505.0,39676.0,29482.0,-0.00488,-0.000244,0.000366,0.17500000000000002,-1.2950000000000002,-3.5175000000000005,1.060375,0.18515625,0.1720625,1.31334375,1.03840625,-0.24325,-0.3309375,1.3033125,0.017671155888752538,0.020673268344057846,True
63854,23792,0,23793,3504.0,39678.0,29481.0,0.000976,-0.0008539999999999999,-0.000366,0.14,-2.1350000000000002,-3.6925000000000003,1.0955,0.19815625,0.17021875,1.31546875,1.050625,-0.2414375,-0.33415625,1.30175,0.01813398029716678,0.020727038768808763,True
63855,23793,0,23794,3503.0,39674.0,29483.0,0.0032329999999999998,0.000122,-0.000976,0.21000000000000002,-2.4675000000000002,-3.8325000000000005,1.08309375,0.18915625,0.17940625000000002,1.3425625,1.0425,-0.24265625000000002,-0.3304375,1.3053125,0.017812095157683065,0.0209549766624624,True
63856,23794,0,23795,3505.0,39674.0,29481.0,0.002806,0.001037,0.000366,0.35000000000000003,-2.6075000000000004,-3.7975000000000003,1.0689375,0.19703125,0.16546875,1.3143125,1.03890625,-0.24371875,-0.33525,1.3048125,0.018179966718183446,0.020575862175239622,True
63857,23795,0,23796,3507.0,39672.0,29480.0,0.0028669999999999998,0.002745,-0.0008539999999999999,0.43750000000000006,-2.6775,-3.7800000000000002,1.0834375,0.18912500000000002,0.180125,1.341875,1.0462500000000001,-0.2425,-0.3313125,1.312625,0.01780447561101372,0.021019725097032888,True
63858,23796,0,23797,3505.0,39672.0,29480.0,0.003111,0.00122,-0.0021349999999999997,0.42000000000000004,-2.5900000000000003,-3.8675,1.06225,0.19075,0.17625,1.322875,1.03865625,-0.244875,-0.33184375,1.30515625,0.01796771482632928,0.02088184336626771,True
63859,23797,0,23798,3505.0,39672.0,29481.0,0.0017079999999999999,-0.000793,0.000183,0.15750000000000003,-2.0825,-3.9025000000000003,1.08234375,0.196125,0.17446875,1.3225,1.0459375,-0.242125,-0.33378125000000003,1.30846875,0.018078035650752566,0.020886601830531374,True
63860,23798,0,23799,3506.0,39673.0,29482.0,-0.0006709999999999999,-0.0011589999999999999,0.0011589999999999999,0.12250000000000001,-1.8375000000000001,-3.8325000000000005,1.07375,0.1926875,0.172375,1.3249375,1.0390625,-0.24134375,-0.33465625,1.30428125,0.01790458707554114,0.020835767918439368,True
63861,23799,0,23800,3506.0,39675.0,29481.0,-0.0018909999999999999,-0.00061,-0.00061,0.1925,-1.6625,-3.7975000000000003,1.07965625,0.1935625,0.17496875,1.331,1.03828125,-0.24521875,-0.33053125,1.31109375,0.01809764038528215,0.02077636508656177,True
63862,23800,0,23801,3505.0,39673.0,29481.0,-0.00366,0.000244,0.000976,0.35000000000000003,-1.8550000000000002,-3.7975000000000003,1.072875,0.19390625,0.1704375,1.324125,1.0445,-0.24203125,-0.33409375,1.3043437500000001,0.017982713391642872,0.020733513036621715,True
63863,23801,0,23802,3506.0,39675.0,29480.0,-0.003355,0.000549,0.0006709999999999999,0.47250000000000003,-2.0650000000000004,-3.7625,1.0792187500000001,0.1933125,0.17484375,1.33328125,1.0389375,-0.24496875,-0.3304375,1.31084375,0.018077204162203757,0.020767454346022344,True
63864,23802,0,23803,3507.0,39672.0,29481.0,0.000976,0.000366,-0.000549,0.29750000000000004,-2.2225,-3.8500000000000005,1.0725625,0.19590625,0.17478125,1.3311875,1.0390625,-0.24559375,-0.32565625,1.30690625,0.01820949425088837,0.02057241518407134,True
63865,23803,0,23804,3508.0,39673.0,29479.0,0.002745,-0.0006709999999999999,0.000488,0.14,-2.2575000000000003,-3.8500000000000005,1.07303125,0.1938125,0.174875,1.32528125,1.04303125,-0.24159375,-0.33175,1.30484375,0.01796112312128818,0.020821560307006277,True
63866,23804,0,23805,3510.0,39674.0,29483.0,0.003965,-0.00122,-0.0008539999999999999,0.12250000000000001,-2.2225,-3.8325000000000005,1.0785,0.19146875,0.1753125,1.32575,1.03978125,-0.24531250000000002,-0.32809375,1.3040625000000001,0.018015080234581426,0.02069238367679342,True
63867,23805,0,23806,3507.0,39674.0,29482.0,0.003111,-0.0008539999999999999,-0.00061,0.14,-2.0650000000000004,-3.9550000000000005,1.08134375,0.19384375,0.17534375,1.32390625,1.048,-0.24356250000000002,-0.3313125,1.30475,0.01804216067667448,0.020823219051582197,True
63868,23806,0,23807,3510.0,39672.0,29483.0,0.000793,0.00061,0.000183,0.12250000000000001,-1.9075000000000002,-3.9375000000000004,1.0814062500000001,0.1916875,0.17525000000000002,1.329375,1.0461562500000001,-0.24428125,-0.3315,1.30440625,0.017982333462659365,0.020826911616628654,True
63869,23807,0,23808,3508.0,39676.0,29483.0,-0.001769,0.000915,0.001769,0.24500000000000002,-1.4700000000000002,-3.7625,1.07484375,0.19315625,0.17578125,1.32728125,1.0481562500000001,-0.2384375,-0.33103125,1.30428125,0.017806170467877726,0.020829881594106293,True
63870,23808,0,23809,3510.0,39675.0,29484.0,-0.001586,-0.000183,0.000305,0.08750000000000001,-1.435,-3.8325000000000005,1.07896875,0.19396875,0.174875,1.32771875,1.0458125,-0.245625,-0.33075,1.30359375,0.01813084834892893,0.020781315824625217,True
