frame_seq,absolute_seq_u64,segment_id,sample_seq,PPG_G,PPG_R,PPG_IR,ACC_X,ACC_Y,ACC_Z,GYRO_X,GYRO_Y,GYRO_Z,Uh1,Uh2,Uh3,Uh4,Uc1,Uc2,Uc3,Uc4,UD1,UD2,parser_valid
42768,324,0,325,4127.0,41894.0,41450.0,0.0050019999999999995,0.000122,0.0008539999999999999,0.2625,-1.6800000000000002,-4.025,0.87996875,-0.0401875,-0.15634375,0.90740625,0.84759375,-0.46368750000000003,-0.777875,0.81296875,0.017311372212386218,0.02508412242777074,True
42769,325,0,326,4127.0,41894.0,41451.0,0.003294,-0.002013,-0.000793,0.22750000000000004,-1.6800000000000002,-3.99,0.87140625,-0.03875,-0.15371875000000002,0.913375,0.8420625,-0.464625,-0.7776875,0.8145625,0.017407787775206036,0.025182687044543604,True
42770,326,0,327,4126.0,41894.0,41450.0,0.0006709999999999999,-0.0015249999999999999,-0.0030499999999999998,0.12250000000000001,-1.4875,-3.7975000000000003,0.87,-0.043625000000000004,-0.15862500000000002,0.9158125,0.84246875,-0.4746875,-0.77675,0.81878125,0.01761258443034257,0.02494778370851706,True
42771,327,0,328,4126.0,41896.0,41449.0,-0.004941,-0.000488,-0.000366,0.22750000000000004,-1.05,-3.7800000000000002,0.8698750000000001,-0.04471875,-0.1576875,0.92490625,0.84146875,-0.4719375,-0.775375,0.820625,0.0174574959583809,0.02493150961388072,True
42772,328,0,329,4126.0,41895.0,41451.0,-0.004697,0.000488,0.001647,0.4025,-1.1725,-3.8675,0.8680625000000001,-0.0444375,-0.15959375,0.9281875,0.837,-0.473875,-0.777,0.81878125,0.017546771812800382,0.024918523227186504,True
42773,329,0,330,4125.0,41895.0,41451.0,-0.001037,0.0008539999999999999,0.0013419999999999999,0.42000000000000004,-1.3650000000000002,-3.9725000000000006,0.8648750000000001,-0.043875000000000004,-0.16253125000000002,0.9018125,0.8335625,-0.47225,-0.7795,0.81353125,0.01750452042619702,0.024898353477673076,True
42774,330,0,331,4126.0,41892.0,41449.0,0.002257,0.001037,0.000305,0.4025,-1.61,-4.130000000000001,0.87303125,-0.04365625,-0.1565,0.9145625000000001,0.84415625,-0.47340625000000003,-0.77675,0.8139375,0.01755987685612827,0.025033549597909335,True
42775,331,0,332,4124.0,41893.0,41451.0,0.0044529999999999995,0.001403,0.0,0.2625,-1.8725000000000003,-3.9550000000000005,0.88034375,-0.037,-0.1614375,0.9176562500000001,0.84940625,-0.47028125,-0.77765625,0.8188125,0.017706427056288943,0.024869937002213436,True
42776,332,0,333,4126.0,41894.0,41451.0,0.001403,-0.000976,-0.00122,0.31500000000000006,-1.8375000000000001,-3.9200000000000004,0.86659375,-0.038125,-0.16596875,0.91259375,0.8413437500000001,-0.47125,-0.77953125,0.8129375,0.01769934106349287,0.024760859832649175,True
42777,333,0,334,4125.0,41894.0,41452.0,0.000976,-0.00122,-0.000488,0.4025,-1.7500000000000002,-3.8675,0.86590625,-0.04846875,-0.15609375,0.9078437500000001,0.8300000000000001,-0.47353125,-0.7768125,0.813875,0.01736825371287603,0.025052405348750976,True
42778,334,0,335,4124.0,41893.0,41452.0,0.000488,-0.0021349999999999997,-0.00042699999999999997,0.28,-1.6275000000000002,-3.8500000000000005,0.8798750000000001,-0.04425,-0.1531875,0.9075625,0.8403437500000001,-0.47340625000000003,-0.77709375,0.81415625,0.01753561582789482,0.02518076802288404,True
42779,335,0,336,4124.0,41893.0,41455.0,-0.000488,-0.0006709999999999999,-0.000915,0.385,-1.5750000000000002,-3.8850000000000002,0.88128125,-0.047625,-0.1535,0.9070312500000001,0.847875,-0.47365625,-0.77709375,0.8130000000000001,0.01740774838250823,0.025168155567074937,True
42780,336,0,337,4125.0,41894.0,41455.0,-0.002745,0.000183,-0.0011589999999999999,0.47250000000000003,-1.5225000000000002,-3.8675,0.8826875000000001,-0.041125,-0.15637500000000001,0.92215625,0.84946875,-0.47084375,-0.7771250000000001,0.8191875000000001,0.017560438634242025,0.02505335062078429,True
42781,337,0,338,4125.0,41893.0,41455.0,-0.0017079999999999999,0.000793,0.0018909999999999999,0.47250000000000003,-1.5225000000000002,-3.9725000000000006,0.87321875,-0.0370625,-0.16396875,0.9159375000000001,0.840875,-0.4715625,-0.779875,0.81315625,0.017755302711054924,0.024855099147998123,True
42782,338,0,339,4125.0,41894.0,41457.0,0.00244,0.000793,0.001586,0.42000000000000004,-1.5925000000000002,-3.9550000000000005,0.87140625,-0.0419375,-0.16253125000000002,0.913875,0.84040625,-0.47384375,-0.7779375000000001,0.81334375,0.017647667216147852,0.024836863439501373,True
42783,339,0,340,4124.0,41896.0,41460.0,0.001586,0.0006709999999999999,0.000122,0.36750000000000005,-1.6275000000000002,-3.9200000000000004,0.865,-0.04121875,-0.15903125,0.91425,0.83896875,-0.47275,-0.7765,0.81284375,0.017633132770121872,0.024921548644885275,True
42784,340,0,341,4126.0,41894.0,41461.0,0.001098,-0.00061,0.000549,0.31500000000000006,-1.6450000000000002,-3.8675,0.8704375,-0.04140625,-0.16221875,0.9179375000000001,0.8446250000000001,-0.472625,-0.77878125,0.8134375,0.017620453465862367,0.02488268062013744,True
42785,341,0,342,4126.0,41896.0,41460.0,0.000488,6.1e-05,0.000366,0.35000000000000003,-1.6275000000000002,-4.0075,0.87184375,-0.03746875,-0.163125,0.9195,0.83246875,-0.47159375000000003,-0.77753125,0.8132812500000001,0.017739956148136043,0.024796911516356178,True
42786,342,0,343,4127.0,41895.0,41461.0,-0.000183,-0.000793,-0.000793,0.31500000000000006,-1.54,-3.9725000000000006,0.87084375,-0.04246875,-0.1609375,0.9126875,0.84125,-0.4748125,-0.77546875,0.8132812500000001,0.017664844214843323,0.02480402111463582,True
42787,343,0,344,4128.0,41895.0,41464.0,-0.000549,-0.000244,0.000488,0.36750000000000005,-1.4175000000000002,-3.9025000000000003,0.87825,-0.04315625,-0.1589375,0.91278125,0.85046875,-0.4663125,-0.777625,0.81896875,0.017295464937758805,0.024969604633212426,True
42788,344,0,345,4130.0,41897.0,41465.0,-0.000793,-0.000122,-0.000183,0.36750000000000005,-1.3125000000000002,-3.8150000000000004,0.87046875,-0.04015625,-0.16340625,0.91315625,0.8417187500000001,-0.47150000000000003,-0.7789375000000001,0.813625,0.01762637149336984,0.024840905708729443,True
42789,345,0,346,4129.0,41896.0,41466.0,0.000305,-0.000305,0.001281,0.29750000000000004,-1.4175000000000002,-3.8850000000000002,0.86525,-0.04225,-0.15896875,0.916625,0.84903125,-0.4705625,-0.7775625,0.8210937500000001,0.017503173455861505,0.02496588395246708,True
42790,346,0,347,4129.0,41896.0,41469.0,0.000549,-6.1e-05,0.0006709999999999999,0.1925,-1.4000000000000001,-4.0075,0.87775,-0.040375,-0.15865625,0.9130625,0.84509375,-0.47034375,-0.77715625,0.81378125,0.01757101389309253,0.024962509569676706,True
42791,347,0,348,4127.0,41895.0,41467.0,6.1e-05,6.1e-05,-0.001464,0.22750000000000004,-1.3825,-3.7800000000000002,0.87234375,-0.042875,-0.1588125,0.9136875,0.8479375,-0.47228125,-0.77709375,0.81253125,0.01754663758614657,0.0249537438183201,True
42792,348,0,349,4131.0,41896.0,41468.0,0.000549,-0.000549,0.000488,0.17500000000000002,-1.3475000000000001,-3.7800000000000002,0.8709687500000001,-0.04296875,-0.1585,0.9136562500000001,0.84675,-0.47428125,-0.7775,0.8120625,0.01762309158721464,0.024982342851377258,True
42793,349,0,350,4130.0,41896.0,41469.0,0.000793,-0.001403,-0.000366,0.14,-1.4700000000000002,-3.7100000000000004,0.87234375,-0.039718750000000004,-0.15875,0.91315625,0.8505625,-0.46684375,-0.7779375000000001,0.81459375,0.017457298716758267,0.02498946895801961,True
42794,350,0,351,4131.0,41897.0,41470.0,-6.1e-05,-0.0006709999999999999,-0.001769,0.035,-1.5575,-3.6225000000000005,0.87765625,-0.0406875,-0.15862500000000002,0.9205625000000001,0.84875,-0.47003125,-0.777875,0.82034375,0.01754569684090616,0.024992054403373976,True
42795,351,0,352,4130.0,41897.0,41473.0,-0.0021349999999999997,-0.0008539999999999999,-0.0044529999999999995,0.15750000000000003,-1.4700000000000002,-3.5700000000000003,0.8759687500000001,-0.0400625,-0.1559375,0.92090625,0.84109375,-0.47128125,-0.7781875,0.820625,0.017621421027965177,0.025112813437221746,True
42796,352,0,353,4131.0,41897.0,41473.0,0.0013419999999999999,-0.000183,0.000305,0.22750000000000004,-1.4175000000000002,-3.5175000000000005,0.87746875,-0.039218750000000004,-0.15928125,0.9131875,0.8274375,-0.47125,-0.7780625,0.818625,0.01765464575777698,0.024972947340010945,True
42797,353,0,354,4130.0,41897.0,41474.0,0.0028669999999999998,0.000488,0.003294,0.35000000000000003,-1.3825,-3.6925000000000003,0.8673125,-0.04409375,-0.1569375,0.92053125,0.8470625,-0.47334375,-0.77728125,0.8130625,0.017539491308783663,0.025036796561366068,True
42798,354,0,355,4132.0,41897.0,41473.0,0.000976,0.0026839999999999998,0.002989,0.45500000000000007,-1.1375000000000002,-3.7275000000000005,0.86284375,-0.04015625,-0.15940625,0.91271875,0.83996875,-0.47065625,-0.7778437500000001,0.81578125,0.01759249917950198,0.024959294531026337,True
42799,355,0,356,4130.0,41899.0,41472.0,-0.002928,0.002745,0.002745,0.45500000000000007,-0.8400000000000001,-3.6925000000000003,0.87065625,-0.04059375,-0.161875,0.9155625000000001,0.8468125,-0.4714375,-0.7800625,0.81259375,0.01760598452788072,0.02494697097717167,True
42800,356,0,357,4132.0,41894.0,41471.0,-0.005124,0.00183,0.001647,0.35000000000000003,-0.7350000000000001,-3.7450000000000006,0.86765625,-0.036875,-0.159,0.9130312500000001,0.8415,-0.47150000000000003,-0.7781875,0.817625,0.01776045604070041,0.02498921682629127,True
42801,357,0,358,4131.0,41895.0,41470.0,-0.002257,-0.002196,-0.001403,0.08750000000000001,-1.3650000000000002,-3.7975000000000003,0.871125,-0.04059375,-0.161125,0.91715625,0.8458125,-0.47328125,-0.78028125,0.8126875,0.017679995403150118,0.024985844339438238,True
42802,358,0,359,4133.0,41896.0,41471.0,0.002806,-0.002074,-0.002562,0.15750000000000003,-1.7675,-3.8325000000000005,0.874,-0.042,-0.159,0.9058437500000001,0.84196875,-0.4703125,-0.7770312500000001,0.813125,0.01750335227635528,0.024943716773977918,True
42803,359,0,360,4133.0,41895.0,41474.0,0.0048189999999999995,-0.001769,-0.001769,0.12250000000000001,-1.8900000000000001,-3.8675,0.8715,-0.039593750000000004,-0.1600625,0.9135,0.847875,-0.47434375,-0.78196875,0.8260937500000001,0.017763499787404925,0.0250951107344932,True
42804,360,0,361,4134.0,41894.0,41473.0,0.005124,-0.000793,-0.001098,0.24500000000000002,-1.715,-3.9725000000000006,0.8737812500000001,-0.04140625,-0.15796875,0.91328125,0.846875,-0.47025,-0.7756875,0.81059375,0.017525107017705172,0.024932456465637937,True
42805,361,0,362,4133.0,41895.0,41473.0,0.0042699999999999995,0.001281,-0.00183,0.29750000000000004,-1.6275000000000002,-3.7975000000000003,0.871125,-0.0380625,-0.16096875,0.9225625000000001,0.84175,-0.47459375000000004,-0.774625,0.81084375,0.017836097892329674,0.02476954747044607,True
42806,362,0,363,4133.0,41895.0,41474.0,-0.002196,0.002074,0.0025009999999999998,0.5425000000000001,-0.7875000000000001,-3.8150000000000004,0.87746875,-0.033625,-0.1584375,0.9133125,0.8375,-0.4700625,-0.77665625,0.8041875,0.017835569484140057,0.024951661909584755,True
42807,363,0,364,4133.0,41896.0,41474.0,-0.006405,-0.000122,0.002623,0.47250000000000003,-0.7525000000000001,-3.6750000000000003,0.8718750000000001,-0.04040625,-0.1601875,0.90996875,0.836125,-0.47015625,-0.77728125,0.81903125,0.017562209068444343,0.024905628013565852,True
42808,364,0,365,4136.0,41895.0,41474.0,-0.005856,-0.001952,0.00042699999999999997,0.43750000000000006,-0.9100000000000001,-3.7450000000000006,0.87125,-0.045,-0.17009375000000002,0.93253125,0.8555625,-0.4700625,-0.77840625,0.80734375,0.01737071574704805,0.024550106002075897,True
42809,365,0,366,4133.0,41893.0,41477.0,-0.0057339999999999995,-0.00042699999999999997,-0.001281,0.43750000000000006,-0.9100000000000001,-3.8500000000000005,0.88884375,-0.0446875,-0.15378125,0.90275,0.84240625,-0.46890625,-0.77509375,0.8099375,0.0173370540418005,0.02507810893752925,True
42810,366,0,367,4135.0,41894.0,41476.0,-0.002379,-0.000305,0.000244,0.4025,-1.12,-3.9550000000000005,0.85959375,-0.0389375,-0.15778125,0.9353125,0.83621875,-0.47384375,-0.7835625,0.82203125,0.017770247062233534,0.025249850581408547,True
42811,367,0,368,4135.0,41892.0,41474.0,0.0070149999999999995,-0.00061,0.0011589999999999999,0.31500000000000006,-1.5750000000000002,-4.165,0.89178125,-0.0489375,-0.1579375,0.9187500000000001,0.847375,-0.46940625,-0.775,0.8068125,0.01718344718724019,0.0249066599394551,True
42812,368,0,369,4135.0,41890.0,41473.0,0.0064659999999999995,-0.000915,0.000244,0.2625,-1.715,-4.077500000000001,0.86203125,-0.03625,-0.154625,0.9020625,0.83725,-0.4698125,-0.77765625,0.81796875,0.01771825999892725,0.02514488229692831,True
42813,369,0,370,4133.0,41889.0,41470.0,0.00366,-0.000549,-0.0018909999999999999,0.22750000000000004,-1.4000000000000001,-4.025,0.8630625000000001,-0.03653125,-0.1575,0.9170625,0.83259375,-0.47834375,-0.7811250000000001,0.82334375,0.018049117395861392,0.025165322397590912,True
42814,370,0,371,4132.0,41889.0,41466.0,-0.000976,0.00061,-0.001098,0.17500000000000002,-1.0850000000000002,-4.0075,0.89025,-0.051500000000000004,-0.16984375000000002,0.93725,0.85059375,-0.47321875,-0.77728125,0.81753125,0.017231846546543864,0.02451590607827483,True
42815,371,0,372,4131.0,41888.0,41466.0,-0.0030499999999999998,0.000183,-0.001098,0.24500000000000002,-0.9275000000000001,-3.99,0.9,-0.04996875,-0.16434375,0.91371875,0.84440625,-0.4739375,-0.7761250000000001,0.81121875,0.017323275014492455,0.024692370174916378,True
42816,372,0,373,4129.0,41885.0,41463.0,-0.000366,-0.000488,-0.000183,0.31500000000000006,-1.2600000000000002,-4.077500000000001,0.881125,-0.0411875,-0.1539375,0.901625,0.83996875,-0.46909375000000003,-0.77765625,0.81196875,0.017487621502124493,0.025172629069789444,True
42817,373,0,374,4127.0,41882.0,41460.0,-0.000366,-0.0008539999999999999,0.001647,0.24500000000000002,-1.2775,-3.8675,0.86809375,-0.0468125,-0.16646875,0.9290625,0.844875,-0.4743125,-0.77890625,0.81084375,0.01746729351437349,0.024716082857773432,True
42818,374,0,375,4125.0,41881.0,41457.0,0.0,-6.1e-05,0.00122,0.3325,-1.33,-3.8675,0.87684375,-0.0388125,-0.15403125,0.90996875,0.84125,-0.4708125,-0.777875,0.8200000000000001,0.017653684363770104,0.025177451657981163,True
42819,375,0,376,4124.0,41881.0,41459.0,0.0006709999999999999,0.002379,0.0013419999999999999,0.2625,-1.3125000000000002,-3.9025000000000003,0.8699375,-0.04240625,-0.15790625,0.91734375,0.8499375,-0.47265625,-0.7770625,0.81284375,0.017580845969672788,0.024989090211965197,True
42820,376,0,377,4120.0,41881.0,41458.0,0.000183,0.0021349999999999997,-0.0006709999999999999,0.22750000000000004,-1.2950000000000002,-3.7800000000000002,0.8698750000000001,-0.0403125,-0.16390625,0.920375,0.84221875,-0.4739375,-0.77959375,0.80659375,0.017717827382700474,0.02484655342664768,True
42821,377,0,378,4121.0,41880.0,41458.0,-0.000488,-0.000305,-0.000793,0.31500000000000006,-1.435,-3.7975000000000003,0.87465625,-0.0390625,-0.1596875,0.90696875,0.842125,-0.47115625,-0.78071875,0.8205625,0.017657267420700645,0.02506106688289661,True
42822,378,0,379,4120.0,41881.0,41457.0,-0.000549,-0.000122,0.001952,0.35000000000000003,-1.3650000000000002,-3.7975000000000003,0.87871875,-0.04003125,-0.15709375,0.9120312500000001,0.8419375,-0.47053125,-0.781375,0.821625,0.017592589045241917,0.02519155010567412,True
42823,379,0,380,4118.0,41879.0,41456.0,-0.000488,-0.00061,0.0013419999999999999,0.3325,-1.3125000000000002,-3.7800000000000002,0.87696875,-0.0415625,-0.16046875,0.914625,0.84109375,-0.47084375,-0.7770312500000001,0.8123125,0.017542560215154004,0.024884438082145136,True
42824,380,0,381,4121.0,41879.0,41458.0,-0.000366,-0.00122,-0.000915,0.28,-1.5050000000000001,-3.7800000000000002,0.86253125,-0.039843750000000004,-0.15896875,0.90946875,0.84296875,-0.4748125,-0.77778125,0.81303125,0.01777209733475997,0.024974492015906388,True
42825,381,0,382,4117.0,41880.0,41457.0,0.0006709999999999999,-0.00042699999999999997,-0.001769,0.22750000000000004,-1.54,-3.6400000000000006,0.8704375,-0.04065625,-0.16021875,0.9195625000000001,0.8501562500000001,-0.47346875,-0.7798437500000001,0.8140937500000001,0.017684967522227514,0.025005202060646572,True
42826,382,0,383,4117.0,41878.0,41455.0,0.00122,-0.0008539999999999999,-0.000488,0.21000000000000002,-1.4000000000000001,-3.7625,0.877125,-0.04234375,-0.15912500000000002,0.91309375,0.83425,-0.46953125,-0.77740625,0.81078125,0.017457935570384088,0.024953429094298357,True
42827,383,0,384,4117.0,41878.0,41457.0,6.1e-05,-6.1e-05,0.001037,0.31500000000000006,-1.2425000000000002,-3.7625,0.8713125,-0.041,-0.1609375,0.91259375,0.846375,-0.47396875,-0.7761875,0.81403125,0.017690990555015725,0.02483231126661437,True
42828,384,0,385,4117.0,41879.0,41457.0,-0.000732,0.0008539999999999999,0.0013419999999999999,0.42000000000000004,-1.1375000000000002,-3.7625,0.87675,-0.0394375,-0.15484375,0.9136875,0.8415,-0.47090625,-0.7811250000000001,0.8205,0.01763190727764731,0.025272510832337117,True
42829,385,0,386,4117.0,41880.0,41459.0,-0.0008539999999999999,0.0008539999999999999,0.000976,0.3325,-1.2075,-3.6225000000000005,0.87871875,-0.0411875,-0.1546875,0.9143125,0.84396875,-0.471625,-0.77740625,0.81340625,0.017589248772813412,0.02513252370796479,True
42830,386,0,387,4118.0,41879.0,41458.0,-0.001586,0.000915,-6.1e-05,0.3325,-1.2950000000000002,-3.5700000000000003,0.87065625,-0.031968750000000004,-0.16153125000000002,0.91934375,0.848625,-0.473125,-0.7740625,0.80953125,0.01802615113517379,0.02472469947147344,True
42831,387,0,388,4118.0,41879.0,41459.0,-0.000183,0.000732,-0.000244,0.42000000000000004,-1.4875,-3.6925000000000003,0.87253125,-0.039718750000000004,-0.1593125,0.90740625,0.84128125,-0.4730625,-0.7781250000000001,0.8184375,0.01770696863132679,0.024974145541682435,True
42832,388,0,389,4118.0,41880.0,41461.0,0.000732,0.00042699999999999997,-0.000244,0.4025,-1.61,-3.7800000000000002,0.87725,-0.039281250000000004,-0.15887500000000002,0.91328125,0.84090625,-0.4704375,-0.7781250000000001,0.81978125,0.01761947451899869,0.024991802244923703,True
42833,389,0,390,4118.0,41881.0,41464.0,0.001281,-0.0006709999999999999,0.001037,0.385,-1.5050000000000001,-3.8325000000000005,0.87115625,-0.04053125,-0.1623125,0.91778125,0.84909375,-0.4728125,-0.77809375,0.81271875,0.0176637339905252,0.024851841155052536,True
42834,390,0,391,4119.0,41882.0,41465.0,0.000976,-0.00061,0.00042699999999999997,0.47250000000000003,-1.3825,-3.7275000000000005,0.87440625,-0.04178125,-0.16125,0.9201875,0.8416250000000001,-0.47071875,-0.776875,0.81290625,0.017528602424070606,0.02484675730898267,True
42835,391,0,392,4122.0,41881.0,41463.0,0.000122,6.1e-05,0.000122,0.49000000000000005,-1.4175000000000002,-3.7450000000000006,0.87415625,-0.040125,-0.15915625,0.91246875,0.84146875,-0.47040625,-0.77809375,0.81825,0.017583739542534157,0.024979221817658995,True
42836,392,0,393,4120.0,41880.0,41463.0,0.0011589999999999999,-0.000549,-0.000488,0.24500000000000002,-1.4700000000000002,-3.7100000000000004,0.87084375,-0.0410625,-0.16184375,0.9195,0.8482500000000001,-0.47278125,-0.77896875,0.81384375,0.01764077182686377,0.024905193037946742,True
42837,393,0,394,4121.0,41880.0,41465.0,0.00042699999999999997,-0.0018909999999999999,-0.0025009999999999998,0.29750000000000004,-1.435,-3.7275000000000005,0.8637812500000001,-0.0401875,-0.15971875,0.9158437500000001,0.842375,-0.47118750000000004,-0.78021875,0.8192812500000001,0.017612549452289558,0.02504013407871954,True
42838,394,0,395,4120.0,41880.0,41463.0,0.0011589999999999999,-0.00042699999999999997,-0.000793,0.4025,-1.3825,-3.8150000000000004,0.88053125,-0.039781250000000004,-0.1593125,0.9190625,0.837,-0.47150000000000003,-0.77934375,0.81490625,0.017641695441636192,0.025022101321791463,True
42839,395,0,396,4120.0,41878.0,41464.0,-0.00122,-0.00042699999999999997,0.001098,0.47250000000000003,-1.3125000000000002,-3.7625,0.873,-0.04065625,-0.15965625,0.9144375,0.84165625,-0.47428125,-0.77678125,0.81253125,0.01771757852950227,0.024907391875205742,True
42840,396,0,397,4121.0,41879.0,41462.0,0.000122,0.0015249999999999999,-0.000366,0.4025,-1.33,-3.7275000000000005,0.87128125,-0.03821875,-0.1606875,0.9128125,0.8443437500000001,-0.47415625,-0.7770625,0.81321875,0.017812156445638445,0.024876839213688065,True
42841,397,0,398,4122.0,41880.0,41463.0,0.0,0.00122,0.0013419999999999999,0.36750000000000005,-1.3125000000000002,-3.6925000000000003,0.8709375,-0.042625,-0.16084375,0.91346875,0.84875,-0.46834375,-0.77525,0.81078125,0.017398756301190185,0.0247991947609005,True
42842,398,0,399,4120.0,41877.0,41462.0,0.0006709999999999999,0.000915,0.000366,0.17500000000000002,-1.4000000000000001,-3.7275000000000005,0.8709375,-0.04446875,-0.16003125,0.91521875,0.8623125,-0.46971875,-0.7754375,0.811125,0.01737862230230987,0.02483936963777128,True
42843,399,0,400,4119.0,41876.0,41464.0,-0.000244,0.000488,-0.00042699999999999997,0.24500000000000002,-1.2600000000000002,-3.7275000000000005,0.8713125,-0.03975,-0.15875,0.9127500000000001,0.85346875,-0.47700000000000004,-0.7815,0.8196875,0.01786370878784165,0.02512963299235316,True
42844,400,0,401,4120.0,41875.0,41461.0,-0.001464,-0.000244,-0.000366,0.385,-1.2425000000000002,-3.7450000000000006,0.8769375,-0.04125,-0.15875,0.91390625,0.8345,-0.46703125,-0.776625,0.82840625,0.01740224409121969,0.024937819416486304,True
42845,401,0,402,4118.0,41878.0,41461.0,0.0,-0.000732,0.001037,0.49000000000000005,-1.2950000000000002,-3.7975000000000003,0.8710625000000001,-0.0405625,-0.16009375,0.915375,0.85828125,-0.47628125,-0.7742187500000001,0.80871875,0.0178016727929207,0.024788874523036172,True
42846,402,0,403,4119.0,41876.0,41462.0,-6.1e-05,-0.000122,-0.000305,0.385,-1.2600000000000002,-3.8675,0.8755625,-0.04296875,-0.16075,0.914,0.8350625,-0.46921875,-0.7751875,0.80384375,0.017419845085981753,0.024800518664086797,True
42847,403,0,404,4118.0,41874.0,41459.0,0.000732,-0.000244,0.001098,0.4025,-1.225,-3.8500000000000005,0.857625,-0.038625,-0.161,0.9187500000000001,0.85953125,-0.47475,-0.77025,0.80678125,0.017819385284834368,0.024596037585409916,True
42848,404,0,405,4119.0,41875.0,41460.0,0.000122,-0.00042699999999999997,-0.000122,0.385,-1.225,-3.7275000000000005,0.8755000000000001,-0.039406250000000004,-0.15896875,0.91309375,0.83978125,-0.47359375000000004,-0.782625,0.82903125,0.01774106019881122,0.02516506019842531,True
42849,405,0,406,4118.0,41873.0,41459.0,-0.000549,-0.000183,-0.00042699999999999997,0.31500000000000006,-1.2950000000000002,-3.7450000000000006,0.8716875000000001,-0.04096875,-0.1635,0.9200625,0.85575,-0.47550000000000003,-0.7742187500000001,0.80321875,0.017753723110865968,0.02465138280092082,True
42850,406,0,407,4118.0,41873.0,41458.0,-0.000244,0.000305,-0.0018909999999999999,0.22750000000000004,-1.4700000000000002,-3.7800000000000002,0.87428125,-0.04009375,-0.15921875,0.9185625000000001,0.84084375,-0.47778125,-0.7821875,0.8116875,0.017881011989189177,0.025137762758029335,True
42851,407,0,408,4118.0,41872.0,41462.0,-0.000732,0.000366,-0.0018909999999999999,0.28,-1.3125000000000002,-3.7450000000000006,0.87690625,-0.043187500000000004,-0.1588125,0.9137500000000001,0.83446875,-0.4694375,-0.7786875,0.82146875,0.01741968935738715,0.025016458196181698,True
42852,408,0,409,4119.0,41875.0,41461.0,-0.000305,0.00061,0.0,0.35000000000000003,-1.2075,-3.7800000000000002,0.87071875,-0.0396875,-0.1616875,0.91871875,0.8519375,-0.470875,-0.77634375,0.8102812500000001,0.01762043653935546,0.024808190272222877,True
42853,409,0,410,4119.0,41876.0,41463.0,-0.000915,-0.000366,0.001403,0.42000000000000004,-1.2950000000000002,-3.7450000000000006,0.8759687500000001,-0.039593750000000004,-0.15971875,0.9166562500000001,0.83684375,-0.47184375,-0.77965625,0.8196875,0.01766315625482857,0.025018002418818866,True
42854,410,0,411,4119.0,41873.0,41462.0,-0.000305,0.000488,0.002074,0.56,-1.4875,-3.8325000000000005,0.864625,-0.040875,-0.15865625,0.9140312500000001,0.82884375,-0.46909375000000003,-0.77709375,0.81965625,0.01750039271478945,0.02496005004622465,True
42855,411,0,412,4118.0,41873.0,41461.0,0.0017079999999999999,-0.00042699999999999997,0.000549,0.42000000000000004,-1.5575,-3.8500000000000005,0.8708750000000001,-0.04428125,-0.16121875,0.9097500000000001,0.84728125,-0.47050000000000003,-0.77715625,0.81334375,0.01741765595308637,0.02485908769292279,True
42856,412,0,413,4118.0,41872.0,41462.0,0.000244,0.00042699999999999997,-0.00042699999999999997,0.31500000000000006,-1.5750000000000002,-3.9025000000000003,0.87075,-0.039781250000000004,-0.15975,0.91921875,0.8413125,-0.47203125,-0.7794375,0.8175625,0.017663020923120144,0.02500813426454898,True
42857,413,0,414,4120.0,41872.0,41460.0,-0.000122,-0.000183,-0.0026839999999999998,0.2625,-1.5575,-3.9200000000000004,0.873125,-0.0398125,-0.15915625,0.91353125,0.8325,-0.4710625,-0.77996875,0.81946875,0.01762285556665143,0.025052997695971673,True
42858,414,0,415,4120.0,41872.0,41464.0,-0.000305,-0.0006709999999999999,-0.001769,0.22750000000000004,-1.4700000000000002,-3.7975000000000003,0.876125,-0.04009375,-0.15609375,0.91359375,0.844375,-0.464875,-0.777875,0.81378125,0.0173629029373745,0.025094212074279976,True
42859,415,0,416,4120.0,41873.0,41465.0,-0.000305,-0.0013419999999999999,-0.000732,0.3325,-1.54,-3.8325000000000005,0.871375,-0.039875,-0.15365625,0.91821875,0.84784375,-0.47296875,-0.7800312500000001,0.812875,0.01769682111002573,0.025277409607786516,True
42860,416,0,417,4120.0,41874.0,41465.0,-0.00061,-0.000122,0.00042699999999999997,0.385,-1.5050000000000001,-3.8500000000000005,0.878125,-0.039593750000000004,-0.1591875,0.912625,0.84084375,-0.470625,-0.7760625,0.81959375,0.01761423134881108,0.024898024050431743,True
42861,417,0,418,4121.0,41872.0,41464.0,-0.001647,0.00042699999999999997,0.0008539999999999999,0.45500000000000007,-1.5050000000000001,-3.8675,0.8709687500000001,-0.044,-0.1593125,0.91415625,0.84884375,-0.47159375000000003,-0.7771875,0.8128125,0.017473065071620032,0.0249372532697668,True
42862,418,0,419,4121.0,41870.0,41464.0,0.000549,0.000915,0.001769,0.4025,-1.61,-3.8500000000000005,0.8708750000000001,-0.04271875,-0.15712500000000001,0.90740625,0.8505,-0.47365625,-0.77675,0.81296875,0.017608219041648096,0.02500832433632337,True
42863,419,0,420,4123.0,41871.0,41464.0,0.000793,0.000793,0.0008539999999999999,0.3325,-1.715,-3.8675,0.87021875,-0.0423125,-0.16559375,0.91903125,0.84509375,-0.47325,-0.77728125,0.81271875,0.017608511333803232,0.024687434179244343,True
42864,420,0,421,4124.0,41870.0,41466.0,0.0013419999999999999,0.000549,0.000366,0.28,-1.715,-3.8675,0.8690625000000001,-0.0386875,-0.15784375,0.9111875,0.8405625,-0.47084375,-0.7810312500000001,0.8092812500000001,0.017660046969161004,0.025147762968903885,True
42865,421,0,422,4126.0,41873.0,41466.0,-0.000915,-0.001098,-0.0021349999999999997,0.42000000000000004,-1.6450000000000002,-3.9025000000000003,0.8798125,-0.0456875,-0.16296875,0.9146562500000001,0.84828125,-0.4694375,-0.7775,0.81253125,0.017317521091361417,0.02480198769044496,True
42866,422,0,423,4126.0,41873.0,41470.0,-0.001403,-0.00122,-0.001647,0.4025,-1.61,-3.8150000000000004,0.8679375,-0.0384375,-0.15675,0.9088125,0.84225,-0.47159375000000003,-0.77584375,0.8165625,0.017700369433437495,0.024987796833357088,True
42867,423,0,424,4124.0,41871.0,41466.0,0.0006709999999999999,-0.000488,-0.000305,0.3325,-1.6625,-3.7450000000000006,0.87646875,-0.04478125,-0.16103125000000001,0.9105,0.848375,-0.47196875,-0.7771250000000001,0.8126875,0.01745619669443228,0.02486542526624861,True
42868,424,0,425,4127.0,41870.0,41469.0,0.0013419999999999999,-0.000244,0.0,0.28,-1.6450000000000002,-3.7450000000000006,0.86659375,-0.03475,-0.14996875,0.9098125,0.8423125,-0.47121875,-0.777625,0.81659375,0.01783600377484264,0.025331574353877742,True
42869,425,0,426,4125.0,41869.0,41468.0,0.0021349999999999997,-0.000244,0.000915,0.47250000000000003,-1.6625,-3.7100000000000004,0.86828125,-0.04303125,-0.16496875,0.9156562500000001,0.84615625,-0.47303125,-0.78,0.81290625,0.017570361252245776,0.024819663034705407,True
42870,426,0,427,4128.0,41871.0,41466.0,-0.000305,0.00366,0.0028669999999999998,0.49000000000000005,-1.2425000000000002,-3.8150000000000004,0.87471875,-0.04353125,-0.15671875,0.91028125,0.84096875,-0.47115625,-0.778,0.8130937500000001,0.01747465447203787,0.025073906287835984,True
42871,427,0,428,4126.0,41869.0,41467.0,-0.002379,0.002623,0.003172,0.5425000000000001,-1.3650000000000002,-3.8150000000000004,0.86675,-0.03875,-0.1579375,0.92159375,0.8409375,-0.47125,-0.77825,0.8170000000000001,0.017673800888798077,0.02503455651629958,True
42872,428,0,429,4125.0,41868.0,41466.0,-0.0034159999999999998,-0.001403,0.000915,0.5075000000000001,-1.3650000000000002,-3.8675,0.875125,-0.03859375,-0.15725,0.90615625,0.84340625,-0.4655625,-0.7780625,0.8165,0.01745182641927812,0.02505492509755353,True
42873,429,0,430,4128.0,41867.0,41466.0,-0.004514,-0.001403,-0.000305,0.42000000000000004,-1.33,-3.7625,0.8816875000000001,-0.044375,-0.1598125,0.9095625,0.84575,-0.46840625,-0.77665625,0.813125,0.017329745373178933,0.02489616612411128,True
42874,430,0,431,4127.0,41866.0,41468.0,-0.002196,-0.00122,-0.001098,0.3325,-1.5050000000000001,-3.7975000000000003,0.86825,-0.0395,-0.16028125000000001,0.9178437500000001,0.84128125,-0.472625,-0.7780312500000001,0.8172812500000001,0.0176983466219909,0.024931359306442073,True
42875,431,0,432,4128.0,41868.0,41468.0,0.004758,-0.0017079999999999999,-0.002928,0.10500000000000001,-2.1525000000000003,-3.8500000000000005,0.87821875,-0.04415625,-0.1579375,0.921625,0.84225,-0.47090625,-0.7776875,0.8143125,0.017439076249985634,0.025012422971272038,True
42876,432,0,433,4125.0,41870.0,41468.0,0.009333,0.00042699999999999997,-0.0021349999999999997,0.2625,-2.2575000000000003,-3.8325000000000005,0.8788125,-0.03771875,-0.16175,0.9128125,0.8405625,-0.46759375000000003,-0.777375,0.81275,0.0175691571632376,0.024846255908868478,True
42877,433,0,434,4126.0,41870.0,41467.0,0.00793,0.0015249999999999999,0.0006709999999999999,0.28,-2.0300000000000002,-3.7625,0.87746875,-0.0416875,-0.15912500000000002,0.91346875,0.8418125,-0.47068750000000004,-0.77834375,0.825375,0.017531178884941424,0.024990320428499177,True
42878,434,0,435,4128.0,41870.0,41468.0,0.001037,0.001769,0.00042699999999999997,0.35000000000000003,-1.5225000000000002,-3.7450000000000006,0.87059375,-0.0415625,-0.162125,0.91825,0.86746875,-0.46953125,-0.775625,0.80790625,0.01748986303119313,0.024762241113998135,True
42879,435,0,436,4127.0,41866.0,41468.0,-0.005978,0.0006709999999999999,0.002379,0.525,-1.0150000000000001,-3.6750000000000003,0.87325,-0.04025,-0.15315625,0.9140312500000001,0.85028125,-0.4825,-0.7856875,0.82853125,0.018063923210456446,0.025520020374661785,True
42880,436,0,437,4128.0,41869.0,41468.0,-0.009271999999999999,-0.000732,-6.1e-05,0.525,-0.8400000000000001,-3.7975000000000003,0.8744375,-0.04271875,-0.15834375,0.907,0.8260000000000001,-0.46696875,-0.77615625,0.8347187500000001,0.0173397041674809,0.02493576863844649,True
42881,437,0,438,4129.0,41866.0,41468.0,-0.004331,-0.0021349999999999997,-0.000305,0.5950000000000001,-1.1900000000000002,-3.9200000000000004,0.87121875,-0.04259375,-0.161125,0.9133125,0.8320625,-0.46734375,-0.774,0.81140625,0.017359873811394012,0.024738637281020427,True
42882,438,0,439,4127.0,41865.0,41466.0,0.000976,-0.000915,0.000488,0.56,-1.6450000000000002,-3.9200000000000004,0.87053125,-0.04440625,-0.16228125000000002,0.9176875,0.85096875,-0.4663125,-0.771875,0.80459375,0.017244374279941042,0.024608300744291656,True
42883,439,0,440,4128.0,41862.0,41466.0,0.005795,-0.000488,0.001403,0.49000000000000005,-1.8725000000000003,-4.130000000000001,0.8715937500000001,-0.040625,-0.16203125000000002,0.918375,0.84984375,-0.481375,-0.76996875,0.80278125,0.018003482239049073,0.02454332930880262,True
42884,440,0,441,4127.0,41862.0,41461.0,0.00549,-0.0015249999999999999,-0.00042699999999999997,0.43750000000000006,-1.8900000000000001,-4.1825,0.87490625,-0.04059375,-0.15959375,0.91325,0.83365625,-0.478875,-0.78521875,0.82278125,0.017904468648988158,0.02524185912218346,True
42885,441,0,442,4128.0,41863.0,41461.0,0.0015249999999999999,-0.0008539999999999999,-0.00122,0.385,-1.7325000000000002,-4.077500000000001,0.874125,-0.04246875,-0.1595,0.91446875,0.8320000000000001,-0.46171875,-0.7785,0.83709375,0.01713902462393408,0.02498133462477551,True
42886,442,0,443,4127.0,41861.0,41459.0,0.000244,0.000488,-0.0006709999999999999,0.36750000000000005,-1.6275000000000002,-4.0425,0.8689375,-0.043437500000000004,-0.160625,0.9199375000000001,0.8638125,-0.4710625,-0.7684375,0.79471875,0.01747472141841001,0.024539799896541717,True
42887,443,0,444,4124.0,41859.0,41456.0,0.0008539999999999999,0.000549,-0.001403,0.36750000000000005,-1.6975000000000002,-4.112500000000001,0.8758125,-0.0405,-0.159,0.9131875,0.8348125000000001,-0.47640625000000003,-0.7860625,0.8324375,0.017809242318814675,0.025298996159636086,True
42888,444,0,445,4123.0,41858.0,41455.0,0.001464,0.0008539999999999999,0.000732,0.3325,-1.61,-4.130000000000001,0.8707812500000001,-0.043812500000000004,-0.162,0.9205,0.8523125,-0.4751875,-0.769625,0.80215625,0.01762499265838106,0.024531053659472033,True
42889,445,0,446,4120.0,41858.0,41452.0,0.00122,0.001098,0.001586,0.31500000000000006,-1.3825,-3.99,0.86190625,-0.036625,-0.1598125,0.919125,0.8345312500000001,-0.476125,-0.7741875,0.8146875,0.01795627371571276,0.024798996939859277,True
42890,446,0,447,4119.0,41857.0,41448.0,-0.004331,0.001769,0.002013,0.2625,-0.9450000000000001,-4.1475,0.87734375,-0.03746875,-0.15971875,0.91309375,0.83715625,-0.4703125,-0.77725,0.8190000000000001,0.01768852563693251,0.02492331675226266,True
42891,447,0,448,4118.0,41854.0,41445.0,-0.0040869999999999995,0.0013419999999999999,0.000915,0.21000000000000002,-0.9975,-4.165,0.87928125,-0.04221875,-0.15934375,0.91240625,0.8495,-0.46521875,-0.7765,0.8133125,0.017289851536684095,0.024908935886828243,True
42892,448,0,449,4116.0,41854.0,41445.0,-0.002074,0.000244,0.00042699999999999997,0.0175,-1.12,-4.1825,0.87134375,-0.03621875,-0.15937500000000002,0.91940625,0.84121875,-0.4715625,-0.78028125,0.820625,0.017789781506595666,0.025056465006828763,True
42893,449,0,450,4114.0,41853.0,41446.0,-0.0008539999999999999,-0.001647,-0.00042699999999999997,-0.035,-1.2950000000000002,-4.1825,0.87528125,-0.04128125,-0.15837500000000002,0.91259375,0.8325625,-0.4715625,-0.7780312500000001,0.81840625,0.01758290873335121,0.025008292375932814,True
42894,450,0,451,4114.0,41850.0,41445.0,0.000244,-0.000366,-0.0013419999999999999,-0.035,-1.2950000000000002,-4.2525,0.8725,-0.042875,-0.16065625,0.91878125,0.84959375,-0.47384375,-0.778375,0.8152812500000001,0.017609361014246077,0.024929752253729315,True
42895,451,0,452,4112.0,41852.0,41447.0,0.002013,-0.001403,-0.002989,-0.052500000000000005,-1.3475000000000001,-4.357500000000001,0.87528125,-0.039093750000000003,-0.15878125,0.91340625,0.84121875,-0.4720625,-0.7771250000000001,0.8205625,0.01769236859377913,0.024956234833541018,True
42896,452,0,453,4112.0,41852.0,41445.0,0.0021349999999999997,-0.002623,-0.001769,-0.035,-1.2775,-4.2875000000000005,0.87434375,-0.04284375,-0.16196875,0.9128437500000001,0.8464375000000001,-0.47040625,-0.7773125,0.81275,0.017472635951844895,0.02483496747276364,True
42897,453,0,454,4111.0,41852.0,41445.0,0.002074,-0.002257,-0.002562,0.08750000000000001,-1.4175000000000002,-4.235,0.8710625000000001,-0.04003125,-0.15734375,0.9134375,0.84125,-0.47034375,-0.7791875,0.8175,0.0175850615094036,0.025095405166129844,True
42898,454,0,455,4111.0,41852.0,41445.0,0.000732,-0.000183,-0.0018909999999999999,0.12250000000000001,-1.3475000000000001,-4.2875000000000005,0.879625,-0.04075,-0.15921875,0.91390625,0.8476875,-0.47078125,-0.771625,0.81440625,0.017573253816732963,0.024722086257966524,True
42899,455,0,456,4113.0,41851.0,41446.0,-0.002257,0.0017079999999999999,0.0042699999999999995,0.24500000000000002,-0.9800000000000001,-4.025,0.8744375,-0.039093750000000003,-0.1573125,0.9115,0.8455625,-0.47390625000000003,-0.7766875,0.8130000000000001,0.017766371071230202,0.024998297290547818,True
42900,456,0,457,4112.0,41852.0,41447.0,0.00042699999999999997,-0.000488,0.00244,0.36750000000000005,-1.435,-4.0425,0.8658125,-0.0469375,-0.16203125000000002,0.90753125,0.84284375,-0.47428125,-0.78015625,0.81296875,0.01746093156463992,0.02494435441665143,True
42901,457,0,458,4112.0,41850.0,41448.0,0.0025009999999999998,0.001037,-0.001037,0.2625,-1.6800000000000002,-4.0425,0.8647812500000001,-0.0399375,-0.1673125,0.9225625000000001,0.8405,-0.468,-0.77796875,0.81740625,0.017494789112309957,0.024645129556877015,True
42902,458,0,459,4111.0,41851.0,41449.0,0.0006709999999999999,0.001769,-0.002623,0.31500000000000006,-1.7675,-4.130000000000001,0.87075,-0.03859375,-0.15853125,0.90909375,0.8411875,-0.47134375,-0.77753125,0.81984375,0.017683949211003178,0.02498231134306409,True
42903,459,0,460,4114.0,41850.0,41450.0,-0.000183,0.001098,-0.000488,0.385,-1.5925000000000002,-3.99,0.88425,-0.047281250000000004,-0.164875,0.91703125,0.847375,-0.47384375,-0.7781250000000001,0.812625,0.017429321865307733,0.024749653171900622,True
42904,460,0,461,4113.0,41852.0,41447.0,0.000183,0.000183,0.001464,0.6125,-1.5225000000000002,-4.0425,0.8645,-0.0404375,-0.15921875,0.92225,0.8413437500000001,-0.46646875,-0.7800625,0.81546875,0.01741286224641633,0.02505416400785914,True
42905,461,0,462,4115.0,41849.0,41450.0,0.002074,-0.000122,0.0013419999999999999,0.56,-1.61,-3.99,0.8638125,-0.0384375,-0.15996875,0.93021875,0.84215625,-0.47125,-0.7776875,0.8205,0.017686570976145476,0.02493044397303017,True
42906,462,0,463,4115.0,41851.0,41451.0,0.00122,-0.000488,0.000488,0.5425000000000001,-1.6450000000000002,-3.9025000000000003,0.8775000000000001,-0.038375,-0.15659375,0.90396875,0.84103125,-0.47118750000000004,-0.77796875,0.81440625,0.0176866161480721,0.025077721514197973,True
42907,463,0,464,4113.0,41851.0,41451.0,0.000366,-0.00042699999999999997,0.0008539999999999999,0.47250000000000003,-1.5750000000000002,-3.7450000000000006,0.88584375,-0.0468125,-0.16128125000000001,0.9077500000000001,0.8501875,-0.47265625,-0.7763125,0.80840625,0.017400798084596967,0.02482335698663794,True
42908,464,0,465,4115.0,41850.0,41451.0,-0.000488,-0.000793,-0.002074,0.5425000000000001,-1.61,-3.6925000000000003,0.86465625,-0.04621875,-0.1575,0.90815625,0.84190625,-0.47465625,-0.7765625,0.81290625,0.017505353113999304,0.02498581068297913,True
42909,465,0,466,4116.0,41850.0,41451.0,0.000244,-0.00183,-0.0011589999999999999,0.6300000000000001,-1.6450000000000002,-3.6400000000000006,0.8670625000000001,-0.04625,-0.15865625,0.9176562500000001,0.844,-0.47365625,-0.77965625,0.81296875,0.017463931242394565,0.025060880334044182,True
42910,466,0,467,4116.0,41852.0,41451.0,0.0,-0.001098,0.001037,0.7525000000000001,-1.5225000000000002,-3.6050000000000004,0.86659375,-0.03796875,-0.15725,0.9205,0.83503125,-0.46709375000000003,-0.77759375,0.8200625,0.017538862783815508,0.025036480792248034,True
42911,467,0,468,4115.0,41852.0,41451.0,-0.001464,0.000183,0.001647,0.9100000000000001,-1.4000000000000001,-3.5700000000000003,0.87634375,-0.039656250000000004,-0.15909375,0.91915625,0.8410625,-0.4704375,-0.78059375,0.81640625,0.01760414990537051,0.025080109309325967,True
42912,468,0,469,4115.0,41851.0,41452.0,-0.001098,0.002257,0.002745,0.805,-1.4875,-3.535,0.8715,-0.04003125,-0.1595625,0.9130625,0.841875,-0.47400000000000003,-0.77775,0.812,0.017731827653836726,0.02494929927051488,True
42913,469,0,470,4117.0,41849.0,41454.0,-0.0013419999999999999,0.002745,0.000122,0.805,-1.61,-3.4475000000000002,0.8711875,-0.04128125,-0.1594375,0.92159375,0.84140625,-0.47459375000000004,-0.779,0.8125,0.017704583962706227,0.02500353121594899,True
42914,470,0,471,4118.0,41853.0,41449.0,-0.00122,0.001586,0.001586,0.805,-1.7500000000000002,-3.5700000000000003,0.872625,-0.04065625,-0.1603125,0.91390625,0.8335625,-0.4713125,-0.7778437500000001,0.82153125,0.017598412426795662,0.02492271951630174,True
42915,471,0,472,4117.0,41849.0,41449.0,-0.00061,-6.1e-05,0.000793,0.7175,-1.7675,-3.6225000000000005,0.87834375,-0.04390625,-0.15909375,0.91346875,0.848375,-0.47071875,-0.77734375,0.81096875,0.017441763944918864,0.024952230805612485,True
42916,472,0,473,4116.0,41849.0,41450.0,0.000122,6.1e-05,0.000549,0.7350000000000001,-1.8550000000000002,-3.6750000000000003,0.87490625,-0.0428125,-0.1593125,0.9055,0.8359062500000001,-0.4708125,-0.7771250000000001,0.8198125,0.017490224323364827,0.02493479368570809,True
42917,473,0,474,4119.0,41849.0,41450.0,-0.000549,-0.001281,0.0,0.6825000000000001,-1.9775000000000003,-3.7275000000000005,0.87925,-0.04025,-0.15912500000000002,0.9196875,0.8469375,-0.47165625,-0.7805625,0.81540625,0.01762881292515704,0.0250776187990083,True
42918,474,0,475,4116.0,41849.0,41449.0,0.0011589999999999999,-0.001769,-0.001647,0.7000000000000001,-2.1875,-3.7100000000000004,0.8706875000000001,-0.04075,-0.1614375,0.914,0.8410625,-0.47221875,-0.78075,0.8119375,0.017630961638899212,0.0249916770073545,True
42919,475,0,476,4116.0,41849.0,41451.0,0.0034159999999999998,-0.000915,-0.00122,0.6300000000000001,-2.1525000000000003,-3.7975000000000003,0.87175,-0.042625,-0.1593125,0.916,0.84475,-0.4710625,-0.7764375,0.82003125,0.017507923899912396,0.024907737442075764,True
42920,476,0,477,4117.0,41851.0,41451.0,0.00122,-0.000976,0.000122,0.6125,-2.0825,-3.6050000000000004,0.87990625,-0.039968750000000004,-0.1590625,0.91309375,0.8390625,-0.46778125000000004,-0.7775625,0.819125,0.017484728003279822,0.02496210028730631,True
42921,477,0,478,4116.0,41848.0,41451.0,0.001403,0.000366,0.0008539999999999999,0.6125,-2.0300000000000002,-3.6050000000000004,0.877125,-0.039906250000000004,-0.15962500000000002,0.9193125,0.84965625,-0.47109375000000003,-0.77528125,0.81859375,0.01762027902819015,0.024849616994761667,True
42922,478,0,479,4116.0,41849.0,41450.0,0.000244,0.000366,-0.000915,0.6825000000000001,-1.8725000000000003,-3.6575,0.8778125,-0.04021875,-0.155125,0.913375,0.840875,-0.46953125,-0.7770312500000001,0.819875,0.017544778263784682,0.025100111620515477,True
42923,479,0,480,4115.0,41848.0,41448.0,-0.0006709999999999999,0.0017079999999999999,-0.000244,0.7875000000000001,-1.7325000000000002,-3.535,0.87465625,-0.0379375,-0.160625,0.9130625,0.83675,-0.470375,-0.77734375,0.80596875,0.017671878751347292,0.02489043039571181,True
42924,480,0,481,4116.0,41847.0,41452.0,-0.001952,-0.000244,0.0015249999999999999,0.5775,-1.6800000000000002,-3.535,0.87028125,-0.04096875,-0.16209375,0.9125625,0.847,-0.47371875,-0.7785,0.8133125,0.01768223310975166,0.024876657182638172,True
42925,481,0,482,4117.0,41846.0,41449.0,-0.002928,-0.000183,0.000183,0.5775,-1.6975000000000002,-3.6050000000000004,0.86375,-0.04346875,-0.16109375,0.9080625,0.84509375,-0.47434375,-0.77678125,0.81296875,0.017605170720869687,0.024849373846734024,True
42926,482,0,483,4117.0,41847.0,41450.0,-0.001464,0.000488,0.000366,0.5775,-1.7675,-3.6750000000000003,0.87084375,-0.0391875,-0.1614375,0.9151875,0.84128125,-0.47246875,-0.777375,0.8130000000000001,0.01770484434677233,0.02485886822151257,True
42927,483,0,484,4117.0,41847.0,41450.0,0.000244,-0.00061,-0.000366,0.525,-1.9775000000000003,-3.6750000000000003,0.86053125,-0.0406875,-0.1629375,0.9184375,0.8403437500000001,-0.4730625,-0.77828125,0.81365625,0.01766738429242356,0.02483399650651718,True
42928,484,0,485,4117.0,41847.0,41450.0,0.002074,0.000122,0.0013419999999999999,0.5425000000000001,-2.0650000000000004,-3.7625,0.87625,-0.04040625,-0.1600625,0.91715625,0.84178125,-0.47090625,-0.7788437500000001,0.8172812500000001,0.01759231945077637,0.024972159970135816,True
42929,485,0,486,4117.0,41848.0,41451.0,0.001769,0.000366,0.0,0.6825000000000001,-1.995,-3.8500000000000005,0.8678125,-0.04065625,-0.1550625,0.91290625,0.83509375,-0.47140625,-0.77734375,0.81815625,0.017602176008990084,0.025114929843922433,True
42930,486,0,487,4119.0,41847.0,41451.0,0.0011589999999999999,0.000488,-0.0008539999999999999,0.6125,-1.8375000000000001,-3.8675,0.871,-0.04096875,-0.16209375,0.91659375,0.846,-0.47365625,-0.7763125,0.8129375,0.01767972449968525,0.024790563567520386,True
42931,487,0,488,4120.0,41846.0,41451.0,6.1e-05,0.001037,-0.000793,0.42000000000000004,-1.8025000000000002,-3.8500000000000005,0.86425,-0.04071875,-0.15953125,0.90653125,0.84259375,-0.47178125,-0.78115625,0.81578125,0.017614676087381258,0.025084584178754775,True
42932,488,0,489,4120.0,41848.0,41456.0,6.1e-05,0.0006709999999999999,0.000366,0.385,-1.6800000000000002,-3.8675,0.8735,-0.04075,-0.15937500000000002,0.913375,0.84128125,-0.4585625,-0.77846875,0.81903125,0.017082463452216375,0.02498514965740165,True
42933,489,0,490,4121.0,41848.0,41454.0,-0.000549,0.000305,-0.000915,0.45500000000000007,-1.61,-3.8850000000000002,0.87121875,-0.0425,-0.16159375,0.91646875,0.85846875,-0.46946875,-0.77484375,0.810875,0.017449040449641965,0.024752931085589597,True
42934,490,0,491,4121.0,41850.0,41458.0,0.00061,-0.000793,0.000366,0.5075000000000001,-1.9250000000000003,-4.0075,0.8727812500000001,-0.0395,-0.1598125,0.91378125,0.8381875,-0.47165625,-0.7810625,0.8225,0.01765946062600483,0.025069546553946182,True
42935,491,0,492,4121.0,41849.0,41458.0,0.001464,-0.000793,0.001037,0.5775,-2.1,-4.025,0.87171875,-0.04475,-0.16253125000000002,0.9098437500000001,0.8519375,-0.47300000000000003,-0.775875,0.8092812500000001,0.017498876312671108,0.024755684713456134,True
42936,492,0,493,4123.0,41849.0,41458.0,0.003294,-0.000366,-0.00061,0.6300000000000001,-2.1875,-4.095000000000001,0.865375,-0.03540625,-0.1579375,0.91440625,0.8367187500000001,-0.4710625,-0.77815625,0.82484375,0.01780291517787591,0.02503086766191492,True
42937,493,0,494,4122.0,41848.0,41458.0,0.00244,0.000488,-0.001769,0.525,-2.1175,-4.095000000000001,0.9040312500000001,-0.03828125,-0.15415625,0.90253125,0.85096875,-0.46575,-0.77584375,0.80975,0.017472129405393253,0.025092485498097318,True
42938,494,0,495,4121.0,41849.0,41457.0,0.0006709999999999999,0.000793,-0.001037,0.43750000000000006,-1.9075000000000002,-3.9025000000000003,0.8574375,-0.032,-0.15321875000000001,0.9021250000000001,0.83721875,-0.46953125,-0.77459375,0.80853125,0.017880655151495804,0.025081137808768306,True
42939,495,0,496,4125.0,41850.0,41459.0,-0.004514,-0.00042699999999999997,0.002013,0.5775,-1.0325000000000002,-3.6750000000000003,0.85778125,-0.0373125,-0.156,0.90759375,0.83940625,-0.471875,-0.78009375,0.823875,0.017757629932320263,0.02518528607261625,True
42940,496,0,497,4124.0,41848.0,41456.0,-0.0059169999999999995,-0.0008539999999999999,0.00122,0.5775,-0.805,-3.6050000000000004,0.86753125,-0.045625,-0.16646875,0.9335,0.85678125,-0.47328125,-0.7835625,0.82621875,0.017474414061253024,0.024899315826770265,True
42941,497,0,498,4126.0,41847.0,41457.0,-0.006893,0.000183,0.001769,0.5425000000000001,-0.9625000000000001,-3.6575,0.89303125,-0.04028125,-0.16075,0.902,0.83678125,-0.46959375000000003,-0.77490625,0.8090937500000001,0.01754473345108151,0.02478944799236122,True
42942,498,0,499,4127.0,41848.0,41457.0,-0.0037819999999999998,-0.000732,0.003172,0.2625,-1.4525000000000001,-3.7100000000000004,0.86434375,-0.04565625,-0.1675,0.92221875,0.84321875,-0.4771875,-0.7791875,0.80896875,0.017629936037381746,0.024685534987779565,True
42943,499,0,500,4124.0,41847.0,41457.0,0.0015249999999999999,-0.0013419999999999999,0.00061,0.22750000000000004,-1.9250000000000003,-3.8150000000000004,0.85853125,-0.03690625,-0.1585625,0.91921875,0.8368125000000001,-0.46759375000000003,-0.7732187500000001,0.82125,0.01760236435182761,0.02481131968368059,True
42944,500,0,501,4126.0,41847.0,41458.0,0.010797,0.0018909999999999999,-0.0059169999999999995,0.052500000000000005,-2.8525000000000005,-4.1825,0.89709375,-0.045375,-0.15353125,0.9019375000000001,0.84515625,-0.4700625,-0.77625,0.81265625,0.01735539089857249,0.025133696584430654,True
42945,501,0,502,4125.0,41846.0,41460.0,0.011285,0.000793,-0.0050019999999999995,0.12250000000000001,-2.8000000000000003,-4.095000000000001,0.87240625,-0.050375,-0.16003125,0.9023125000000001,0.8493125,-0.46746875,-0.776375,0.81315625,0.01704686963174317,0.02487626821922093,True
42946,502,0,503,4126.0,41846.0,41463.0,0.010369999999999999,0.000732,-0.002379,0.21000000000000002,-2.4325,-4.0075,0.86278125,-0.05025,-0.16375,0.9187500000000001,0.8415625,-0.4745625,-0.77878125,0.8070625,0.01733687782978756,0.024820883795485294,True
42947,503,0,504,4128.0,41845.0,41461.0,0.005612,0.00061,0.001281,0.4025,-1.5750000000000002,-3.9200000000000004,0.85946875,-0.037,-0.15928125,0.91825,0.8415,-0.4709375,-0.7814375,0.81290625,0.017732769739614594,0.02510573690489101,True
42948,504,0,505,4128.0,41843.0,41462.0,-0.003538,0.001098,0.0032329999999999998,0.43750000000000006,-0.665,-3.7275000000000005,0.8689687500000001,-0.037875,-0.15846875,0.909625,0.8417187500000001,-0.4714375,-0.77971875,0.8218125000000001,0.017717083436557417,0.02507090602067467,True
42949,505,0,506,4129.0,41847.0,41461.0,-0.017934,-0.0018909999999999999,0.0030499999999999998,0.5425000000000001,0.17500000000000002,-3.5000000000000004,0.86771875,-0.04390625,-0.15878125,0.90290625,0.84771875,-0.47175,-0.7775625,0.8190000000000001,0.01748316936876194,0.024973451282788616,True
42950,506,0,507,4128.0,41847.0,41461.0,-0.015799,-0.002257,0.00366,0.6125,-0.24500000000000002,-3.6050000000000004,0.8785625,-0.03803125,-0.15965625,0.9179375000000001,0.8449375,-0.4718125,-0.781625,0.81896875,0.017725750800027584,0.02509798086283688,True
42951,507,0,508,4129.0,41844.0,41462.0,-0.009943,-0.002196,0.001037,0.5775,-0.9275000000000001,-3.7800000000000002,0.876,-0.04021875,-0.15962500000000002,0.9208437500000001,0.8413437500000001,-0.47203125,-0.78025,0.81503125,0.017645143371578527,0.025045146840730018,True
42952,508,0,509,4130.0,41846.0,41462.0,-0.000915,-0.0013419999999999999,-0.0021349999999999997,0.49000000000000005,-1.6975000000000002,-3.99,0.87190625,-0.04090625,-0.16340625,0.9128125,0.842,-0.4751875,-0.77709375,0.81353125,0.017743735364642254,0.02476834071792621,True
42953,509,0,510,4128.0,41847.0,41461.0,0.007808,0.000305,-0.003477,0.28,-2.4675000000000002,-4.1475,0.8709375,-0.04046875,-0.16303125000000002,0.91296875,0.83765625,-0.47321875,-0.7765,0.813625,0.017682594366546085,0.024760105341755295,True
42954,510,0,511,4130.0,41850.0,41460.0,0.018239,0.002928,-0.001037,0.14,-2.9400000000000004,-4.340000000000001,0.8709687500000001,-0.04165625,-0.1573125,0.91321875,0.84890625,-0.4733125,-0.7770625,0.81346875,0.017637835090774902,0.025013053908226612,True
42955,511,0,512,4129.0,41846.0,41457.0,0.01342,0.001586,-0.000305,0.22750000000000004,-2.3275,-4.322500000000001,0.87109375,-0.04259375,-0.1615625,0.9128125,0.84109375,-0.47546875,-0.77828125,0.81290625,0.01768607598169085,0.024889488652486743,True
42956,512,0,513,4128.0,41846.0,41454.0,0.0046359999999999995,0.0015249999999999999,-0.000305,0.22750000000000004,-1.435,-4.112500000000001,0.87115625,-0.0408125,-0.16240625,0.9200625,0.8493125,-0.47434375,-0.77728125,0.8128125,0.01771370274228497,0.02481608025497148,True
42957,513,0,514,4126.0,41846.0,41451.0,-0.005856,0.000488,0.0008539999999999999,0.24500000000000002,-0.7175,-4.0075,0.8784375,-0.0403125,-0.157,0.9154375,0.8416875,-0.46796875,-0.7795,0.8159375,0.01747820811647881,0.025121572267398452,True
42958,514,0,515,4126.0,41845.0,41449.0,-0.013237,-0.003843,0.002196,0.28,-0.525,-3.8500000000000005,0.87840625,-0.0425,-0.1595625,0.9133125,0.8416875,-0.47115625,-0.77753125,0.812625,0.01751679592172928,0.02494069097380313,True
42959,515,0,516,4121.0,41841.0,41443.0,-0.010065,-0.002623,0.00122,0.2625,-0.7875000000000001,-3.8850000000000002,0.8665,-0.039406250000000004,-0.16084375,0.92,0.8493125,-0.47503125,-0.78075,0.80859375,0.01779875153376975,0.02501563713769761,True
42960,516,0,517,4121.0,41840.0,41444.0,-0.0057339999999999995,-0.001769,-0.000183,0.1925,-1.1725,-3.7975000000000003,0.870625,-0.040375,-0.1625,0.91753125,0.84125,-0.47284375,-0.7764375,0.80325,0.01767137298868261,0.02477908698536664,True
42961,517,0,518,4119.0,41839.0,41442.0,0.0008539999999999999,-6.1e-05,-0.001037,0.15750000000000003,-1.8375000000000001,-3.9200000000000004,0.87121875,-0.04065625,-0.15987500000000002,0.9094375,0.84190625,-0.47296875,-0.77684375,0.812125,0.01766489813378281,0.024901022754361117,True
42962,518,0,519,4119.0,41838.0,41441.0,0.0057339999999999995,0.002074,-0.000915,0.07,-2.205,-4.0425,0.8733125,-0.04390625,-0.160125,0.9085,0.8452500000000001,-0.47134375,-0.77759375,0.8190000000000001,0.017466858557777402,0.024920448540326882,True
42963,519,0,520,4117.0,41836.0,41442.0,0.008173999999999999,0.003904,0.0015249999999999999,0.22750000000000004,-2.1700000000000004,-4.095000000000001,0.8749687500000001,-0.04321875,-0.1595625,0.91490625,0.84178125,-0.47118750000000004,-0.77571875,0.818125,0.01748867928865324,0.024869359239073536,True
42964,520,0,521,4117.0,41839.0,41442.0,0.0064659999999999995,0.002623,0.001037,0.24500000000000002,-1.9425000000000001,-4.0600000000000005,0.87734375,-0.0398125,-0.15946875,0.91321875,0.8410625,-0.47015625,-0.77975,0.81671875,0.017586473318902493,0.025031779981638237,True
42965,521,0,522,4115.0,41838.0,41442.0,0.0023179999999999997,0.00042699999999999997,-0.000549,0.22750000000000004,-1.6275000000000002,-4.0600000000000005,0.8769375,-0.04415625,-0.1614375,0.904875,0.8436875,-0.47125,-0.7769375000000001,0.8125625,0.0174528783776881,0.02484164961872306,True
42966,522,0,523,4115.0,41837.0,41441.0,-0.0023179999999999997,-0.0011589999999999999,0.000244,0.28,-1.4875,-4.0425,0.8680625000000001,-0.04121875,-0.16375,0.918875,0.84771875,-0.4670625,-0.76928125,0.81321875,0.017404776319184207,0.02444686399610405,True
42967,523,0,524,4115.0,41836.0,41441.0,-0.005063,-0.0025009999999999998,-0.0017079999999999999,0.31500000000000006,-1.2775,-3.9200000000000004,0.87071875,-0.04015625,-0.15925,0.9183125,0.84140625,-0.4745625,-0.7788437500000001,0.8160937500000001,0.017749295825001978,0.025004950039285028,True
42968,524,0,525,4114.0,41834.0,41441.0,-0.005246,-0.0026839999999999998,0.000122,0.42000000000000004,-1.4525000000000001,-3.8850000000000002,0.8776875000000001,-0.04015625,-0.15912500000000002,0.9125625,0.84178125,-0.47103125,-0.77446875,0.817875,0.01760755382959188,0.024837818167140317,True
42969,525,0,526,4114.0,41834.0,41441.0,-0.0011589999999999999,-0.0025009999999999998,-0.00061,0.29750000000000004,-1.5925000000000002,-3.9025000000000003,0.87090625,-0.043000000000000003,-0.1609375,0.91240625,0.8540625000000001,-0.47109375000000003,-0.7768125,0.8040625,0.017493854356223863,0.024856910064601733,True
42970,526,0,527,4115.0,41836.0,41443.0,6.1e-05,0.000305,0.000305,0.385,-1.6800000000000002,-3.9725000000000006,0.86390625,-0.04128125,-0.1604375,0.92159375,0.84740625,-0.4743125,-0.77928125,0.80384375,0.017693295776949815,0.02497424133317023,True
42971,527,0,528,4115.0,41834.0,41444.0,0.00183,0.0025009999999999998,0.001403,0.36750000000000005,-1.715,-3.9725000000000006,0.8776875000000001,-0.040375,-0.1601875,0.91446875,0.82984375,-0.4771875,-0.78209375,0.8094687500000001,0.017845698162830187,0.025094984155646653,True
42972,528,0,529,4113.0,41836.0,41444.0,0.00183,0.001403,0.0008539999999999999,0.21000000000000002,-1.9075000000000002,-4.077500000000001,0.878125,-0.04340625,-0.15940625,0.91396875,0.83265625,-0.47003125,-0.77875,0.8260937500000001,0.017434591547569028,0.02499495535489079,True
42973,529,0,530,4115.0,41836.0,41446.0,0.002928,0.002013,-0.000488,0.385,-2.0300000000000002,-3.99,0.87134375,-0.04075,-0.15953125,0.92225,0.85953125,-0.47409375000000004,-0.77684375,0.80790625,0.017706222523561264,0.024914896595737705,True
42974,530,0,531,4117.0,41836.0,41448.0,0.003111,0.0013419999999999999,-0.000732,0.385,-1.9250000000000003,-4.0425,0.87575,-0.039281250000000004,-0.1598125,0.9058125,0.8335625,-0.4723125,-0.784,0.8300000000000001,0.01769474176173584,0.02518509925758554,True
42975,531,0,532,4118.0,41837.0,41448.0,0.000122,0.000488,0.000793,0.5075000000000001,-1.7850000000000001,-4.025,0.871125,-0.03703125,-0.16078125000000001,0.919875,0.85071875,-0.47615625,-0.77328125,0.807625,0.017940929756893507,0.024724217749717753,True
42976,532,0,533,4119.0,41837.0,41449.0,-6.1e-05,-0.001098,0.001281,0.5425000000000001,-1.6975000000000002,-3.8675,0.8708750000000001,-0.04003125,-0.1601875,0.91246875,0.8449375,-0.476125,-0.78109375,0.80965625,0.017817107487398433,0.02505564347820604,True
42977,533,0,534,4119.0,41837.0,41450.0,-0.001403,-0.000244,0.0017079999999999999,0.5950000000000001,-1.6275000000000002,-3.8325000000000005,0.8710625000000001,-0.043187500000000004,-0.15978125,0.913125,0.83409375,-0.46853125,-0.78296875,0.8299062500000001,0.017383297168684777,0.025145796949770195,True
42978,534,0,535,4120.0,41839.0,41453.0,-0.0025009999999999998,-0.001647,-0.000976,0.47250000000000003,-1.61,-3.8850000000000002,0.87084375,-0.04353125,-0.15928125,0.9131875,0.8480625,-0.4685625,-0.7774375,0.8251875,0.01737050347767671,0.02494835271000078,True
42979,535,0,536,4121.0,41836.0,41451.0,-0.0011589999999999999,-0.002013,-0.0006709999999999999,0.45500000000000007,-1.6975000000000002,-3.8675,0.871,-0.04128125,-0.1608125,0.9196562500000001,0.85684375,-0.47709375,-0.77925,0.80675,0.017804911990419614,0.024957878063298928,True
42980,536,0,537,4120.0,41839.0,41452.0,-0.002074,-0.001403,-0.001281,0.45500000000000007,-1.8025000000000002,-3.9200000000000004,0.87684375,-0.04265625,-0.16003125,0.91334375,0.8345625,-0.4693125,-0.77575,0.8235625,0.017436380772855798,0.024851669475192482,True
42981,537,0,538,4119.0,41839.0,41451.0,-0.000488,-0.000732,-0.000976,0.35000000000000003,-1.8900000000000001,-3.9375000000000004,0.87228125,-0.04303125,-0.16009375,0.9107500000000001,0.84796875,-0.46900000000000003,-0.77371875,0.81884375,0.017408506681924067,0.024769192150451775,True
42982,538,0,539,4120.0,41839.0,41451.0,0.001464,-0.00042699999999999997,0.000549,0.385,-1.9600000000000002,-3.8325000000000005,0.8705,-0.0361875,-0.15987500000000002,0.9198437500000001,0.84365625,-0.47509375000000004,-0.779625,0.81684375,0.01793277094188863,0.025010467268976024,True
42983,539,0,540,4119.0,41838.0,41453.0,0.004331,0.002074,-0.000915,0.4025,-1.8550000000000002,-3.7975000000000003,0.87575,-0.039718750000000004,-0.15953125,0.92071875,0.8420625,-0.46875,-0.77609375,0.81821875,0.0175338441890166,0.024885379681774896,True
42984,540,0,541,4118.0,41836.0,41450.0,0.003904,0.001952,-0.0006709999999999999,0.4025,-1.6975000000000002,-3.7800000000000002,0.8745,-0.04075,-0.1614375,0.9113125,0.840125,-0.472375,-0.779375,0.812875,0.017637233819766163,0.02493757409135622,True
42985,541,0,542,4120.0,41837.0,41451.0,0.002074,0.000915,0.000549,0.45500000000000007,-1.5750000000000002,-3.7625,0.87075,-0.042125,-0.15878125,0.91334375,0.8461875,-0.47103125,-0.77734375,0.812875,0.017527101560135518,0.024964843134163646,True
42986,542,0,543,4120.0,41838.0,41448.0,-0.00061,0.00042699999999999997,0.00244,0.49000000000000005,-1.2600000000000002,-3.7275000000000005,0.87175,-0.04321875,-0.15896875,0.91325,0.849875,-0.47125,-0.77771875,0.8029375,0.017491188639730294,0.024972032584718886,True
42987,543,0,544,4119.0,41836.0,41449.0,-0.0025009999999999998,-0.000488,0.0018909999999999999,0.5775,-1.0150000000000001,-3.7275000000000005,0.87490625,-0.0415,-0.15925,0.9130625,0.8474375000000001,-0.470625,-0.77853125,0.8194375,0.017536331826424542,0.02499265367070536,True
42988,544,0,545,4121.0,41839.0,41450.0,-0.006344,0.000183,0.00183,0.35000000000000003,-1.12,-3.7100000000000004,0.875625,-0.043375000000000004,-0.15962500000000002,0.9130312500000001,0.841375,-0.46971875,-0.77746875,0.80696875,0.01742332040493927,0.024935708979554258,True
42989,545,0,546,4121.0,41838.0,41449.0,-0.002806,6.1e-05,0.000549,0.21000000000000002,-1.1900000000000002,-3.6575,0.87721875,-0.037125,-0.1594375,0.91253125,0.84175,-0.47034375,-0.77828125,0.8192812500000001,0.01770382772003356,0.02497524924171244,True
42990,546,0,547,4122.0,41837.0,41450.0,-0.000549,-0.00183,-0.002928,0.14,-1.5050000000000001,-3.7975000000000003,0.876125,-0.040625,-0.1603125,0.9135625,0.84259375,-0.47075,-0.77909375,0.8208125000000001,0.017577107362872,0.02497190802226171,True
42991,547,0,548,4121.0,41839.0,41450.0,0.002379,-0.001098,-0.003172,0.035,-1.7325000000000002,-3.8675,0.8658750000000001,-0.0440625,-0.16090625,0.9136562500000001,0.850125,-0.470875,-0.7771250000000001,0.8133125,0.017441652576787713,0.024870470242209296,True
42992,548,0,549,4121.0,41839.0,41449.0,0.00366,-0.000915,-0.0021349999999999997,0.12250000000000001,-1.6800000000000002,-3.8500000000000005,0.86971875,-0.043062500000000004,-0.16518750000000001,0.92125,0.84796875,-0.46790625,-0.776875,0.80453125,0.01736330626982029,0.024687838962742473,True
42993,549,0,550,4122.0,41836.0,41450.0,0.00183,0.0006709999999999999,-0.000183,0.29750000000000004,-1.6625,-3.8150000000000004,0.87009375,-0.039656250000000004,-0.1606875,0.9266875,0.84165625,-0.47040625,-0.78128125,0.8184375,0.01760289533403231,0.02504284357775085,True
42994,550,0,551,4123.0,41839.0,41450.0,0.0011589999999999999,0.001403,0.000366,0.35000000000000003,-1.5225000000000002,-3.8150000000000004,0.87103125,-0.0383125,-0.1621875,0.9241875,0.8415,-0.4719375,-0.7810625,0.81325,0.017719275394520766,0.024973707241164496,True
42995,551,0,552,4122.0,41837.0,41453.0,-0.000366,0.0013419999999999999,0.003477,0.385,-1.3475000000000001,-3.9025000000000003,0.86809375,-0.0391875,-0.16034375,0.9256875,0.8408125,-0.47240625,-0.77809375,0.81825,0.017702335666318063,0.024931296419846666,True
42996,552,0,553,4124.0,41840.0,41455.0,-0.002989,0.0013419999999999999,0.003172,0.385,-1.2950000000000002,-3.9025000000000003,0.8795000000000001,-0.039,-0.1546875,0.91971875,0.8349062500000001,-0.47215625,-0.78190625,0.817625,0.01769996258502967,0.02530954413565341,True
42997,553,0,554,4124.0,41839.0,41453.0,-0.003477,0.001098,0.002074,0.31500000000000006,-1.435,-3.9375000000000004,0.875625,-0.03903125,-0.1595625,0.92325,0.84146875,-0.471125,-0.78178125,0.819875,0.017657289969300553,0.025107910675307085,True
42998,554,0,555,4124.0,41840.0,41452.0,0.003172,-0.0017079999999999999,-0.001647,0.0175,-1.8550000000000002,-4.025,0.88215625,-0.038625,-0.15746875,0.91146875,0.84103125,-0.47103125,-0.7781875,0.81321875,0.017670127816946823,0.025051015131756508,True
42999,555,0,556,4125.0,41839.0,41453.0,0.004331,-0.0021349999999999997,-0.003721,0.035,-1.8375000000000001,-3.9375000000000004,0.884625,-0.047031250000000004,-0.15684375,0.90921875,0.8476250000000001,-0.47184375,-0.7778125,0.8119375,0.01735923555003901,0.02506148393850345,True
43000,556,0,557,4127.0,41841.0,41458.0,0.003477,-0.003721,-0.004331,-0.0175,-1.6275000000000002,-3.9200000000000004,0.8699687500000001,-0.047875,-0.16171875,0.9165625000000001,0.84809375,-0.472625,-0.7775625,0.8130000000000001,0.017356127509819647,0.024854896441084552,True
43001,557,0,558,4126.0,41843.0,41458.0,0.000122,-0.001464,-0.003355,0.052500000000000005,-1.2950000000000002,-3.8500000000000005,0.86728125,-0.04021875,-0.14796875,0.910625,0.84140625,-0.4718125,-0.77890625,0.816875,0.01763636224329522,0.025462685626004986,True
43002,558,0,559,4127.0,41843.0,41459.0,-0.002196,0.00061,0.000488,0.17500000000000002,-1.05,-3.8325000000000005,0.8835000000000001,-0.04390625,-0.16225,0.905375,0.84509375,-0.47171875,-0.77771875,0.81353125,0.017481914710220346,0.02483960513919386,True
43003,559,0,560,4127.0,41844.0,41461.0,-0.003172,0.001464,0.003843,0.36750000000000005,-0.8750000000000001,-3.7625,0.8668750000000001,-0.04,-0.1599375,0.9175625000000001,0.84146875,-0.471875,-0.7785625,0.81225,0.017647809985953264,0.02496613756346842,True
43004,560,0,561,4127.0,41843.0,41463.0,-0.0011589999999999999,0.0018909999999999999,0.004209,0.4025,-1.0325000000000002,-3.8325000000000005,0.87134375,-0.040125,-0.1596875,0.91578125,0.84140625,-0.4698125,-0.77909375,0.8135,0.017559901613467616,0.024997130897896538,True
43005,561,0,562,4129.0,41844.0,41462.0,-0.001403,0.00244,0.002623,0.31500000000000006,-1.155,-3.9200000000000004,0.8715625,-0.039968750000000004,-0.16059375,0.91890625,0.84215625,-0.47128125,-0.7790312500000001,0.8142812500000001,0.01762525204927715,0.02495809839216374,True
43006,562,0,563,4128.0,41841.0,41460.0,-0.00183,0.000976,-0.000366,0.17500000000000002,-1.4000000000000001,-3.9550000000000005,0.87675,-0.04134375,-0.15725,0.91253125,0.84175,-0.4714375,-0.7780312500000001,0.82634375,0.01757533655307335,0.025053695498910955,True
43007,563,0,564,4130.0,41843.0,41463.0,0.0006709999999999999,-0.001586,-0.0037819999999999998,0.14,-1.5050000000000001,-3.9200000000000004,0.87796875,-0.04096875,-0.1614375,0.92096875,0.8413125,-0.47290625000000003,-0.78328125,0.80175,0.01764962017945866,0.025091259858901854,True
43008,564,0,565,4130.0,41842.0,41463.0,0.00366,-0.0025009999999999998,-0.001464,0.08750000000000001,-1.6625,-3.99,0.87121875,-0.0426875,-0.16153125000000002,0.9036875,0.846125,-0.46215625,-0.77675,0.8359375,0.017147660480665926,0.024830486242142333,True
43009,565,0,566,4131.0,41845.0,41466.0,0.003721,-0.001098,-0.0023179999999999997,0.21000000000000002,-1.6625,-3.8850000000000002,0.874625,-0.04225,-0.1594375,0.9136562500000001,0.8410625,-0.46890625,-0.7877500000000001,0.8165625,0.017436670263919134,0.025347701989894205,True
43010,566,0,567,4130.0,41848.0,41465.0,0.002257,0.00042699999999999997,-0.000732,0.31500000000000006,-1.3475000000000001,-3.8150000000000004,0.8803125,-0.04171875,-0.15890625,0.91509375,0.8286250000000001,-0.471625,-0.787375,0.8149375,0.017567539956991007,0.025354389079117898,True
43011,567,0,568,4132.0,41847.0,41466.0,-0.000976,0.0026839999999999998,0.002196,0.42000000000000004,-1.0325000000000002,-3.8500000000000005,0.8794375,-0.04021875,-0.15996875,0.92015625,0.82809375,-0.474875,-0.77846875,0.8025,0.01775928375527965,0.024961187321149537,True
43012,568,0,569,4132.0,41844.0,41466.0,-0.0037819999999999998,0.002379,0.0030499999999999998,0.56,-0.8925000000000001,-3.8675,0.87828125,-0.03346875,-0.15934375,0.91690625,0.8300000000000001,-0.4756875,-0.7833125,0.8043750000000001,0.01806767429924083,0.025176971399606084,True
43013,569,0,570,4133.0,41850.0,41467.0,-0.004148,-0.000488,0.002074,0.385,-0.9450000000000001,-3.8675,0.8740625,-0.040625,-0.15984375,0.92128125,0.83359375,-0.481125,-0.7810625,0.802625,0.01799345414069002,0.025068285510356947,True
43014,570,0,571,4133.0,41845.0,41467.0,-0.002257,0.0006709999999999999,-0.00122,0.3325,-1.33,-3.8850000000000002,0.87190625,-0.04028125,-0.15962500000000002,0.9158437500000001,0.83628125,-0.47928125,-0.780875,0.8164375,0.017933533077079213,0.025069736238127183,True
43015,571,0,572,4135.0,41846.0,41468.0,0.001586,-0.000183,-0.003111,0.21000000000000002,-1.5750000000000002,-3.9375000000000004,0.87590625,-0.039968750000000004,-0.1591875,0.91271875,0.828125,-0.46846875,-0.78334375,0.8239062500000001,0.01751233411367436,0.025184505218348512,True
43016,572,0,573,4135.0,41845.0,41467.0,0.005246,-0.0018909999999999999,-0.002989,0.2625,-1.9600000000000002,-3.6925000000000003,0.87034375,-0.04403125,-0.15940625,0.91290625,0.84790625,-0.46696875,-0.7756875,0.8339062500000001,0.0172860604156369,0.02487443587589648,True
43017,573,0,574,4135.0,41844.0,41467.0,0.009028,-0.001037,-0.003355,0.35000000000000003,-2.0125,-3.7275000000000005,0.870625,-0.04365625,-0.1593125,0.90953125,0.8601875,-0.46546875,-0.77215625,0.8198125,0.017241137061802667,0.02473921703929185,True
43018,574,0,575,4136.0,41845.0,41471.0,0.000976,0.0023179999999999997,0.000183,0.6125,-1.2075,-3.6925000000000003,0.8720625,-0.043125000000000004,-0.15996875,0.9130625,0.8572500000000001,-0.47184375,-0.77296875,0.82703125,0.01751885776894109,0.024744712924243285,True
43019,575,0,576,4135.0,41845.0,41470.0,-0.006344,0.000488,0.002013,0.7175,-0.7350000000000001,-3.4825000000000004,0.87315625,-0.043500000000000004,-0.16196875,0.913,0.8425,-0.47028125,-0.7735625,0.8096875,0.01744079872396236,0.02468735572447443,True
43020,576,0,577,4136.0,41846.0,41470.0,-0.008845,-0.000305,0.0011589999999999999,0.7525000000000001,-0.5950000000000001,-3.43,0.864375,-0.04065625,-0.15528125,0.913125,0.8371875,-0.47250000000000003,-0.78078125,0.8186875,0.017646082337317397,0.025241334955894496,True
43021,577,0,578,4137.0,41847.0,41471.0,-0.009637999999999999,-0.000732,-0.001281,0.8225000000000001,-0.7000000000000001,-3.5175000000000005,0.87625,-0.0425,-0.15912500000000002,0.9135625,0.839375,-0.464875,-0.77671875,0.81059375,0.01726454764228307,0.024926373674883803,True
43022,578,0,579,4136.0,41845.0,41469.0,0.000244,-0.00122,0.0015249999999999999,0.8575,-1.1025,-3.6225000000000005,0.871125,-0.04240625,-0.1605,0.914125,0.8480625,-0.47428125,-0.77690625,0.8130625,0.01764607489750082,0.024878257349018305,True
43023,579,0,580,4138.0,41844.0,41472.0,0.0066489999999999995,-0.001037,0.004331,0.9625000000000001,-1.8900000000000001,-3.7800000000000002,0.87128125,-0.0400625,-0.1629375,0.911625,0.84109375,-0.47434375,-0.7810312500000001,0.81021875,0.017744347077743403,0.02494221260465099,True
43024,580,0,581,4137.0,41846.0,41467.0,0.009089,0.000976,0.00183,0.805,-2.0650000000000004,-3.8150000000000004,0.87134375,-0.04078125,-0.1600625,0.9148437500000001,0.8410625,-0.47159375000000003,-0.7800625,0.819875,0.017604595123682946,0.025020114456934885,True
43025,581,0,582,4138.0,41845.0,41467.0,0.0064659999999999995,0.001037,0.00061,0.6475000000000001,-2.0125,-3.7100000000000004,0.8758125,-0.04034375,-0.15853125,0.91234375,0.84221875,-0.47140625,-0.77878125,0.82140625,0.017614946014800438,0.025031497463177288,True
43026,582,0,583,4136.0,41842.0,41462.0,0.0023179999999999997,0.000549,-0.001281,0.56,-1.8025000000000002,-3.7275000000000005,0.8755000000000001,-0.04096875,-0.15912500000000002,0.9120625,0.8473437500000001,-0.47118750000000004,-0.7786875,0.81546875,0.01758062415238329,0.02500384655159802,True
43027,583,0,584,4136.0,41841.0,41461.0,-0.003904,-0.000366,-0.001647,0.6475000000000001,-1.3475000000000001,-3.5525,0.87615625,-0.040125,-0.15912500000000002,0.9148125,0.84996875,-0.47171875,-0.77759375,0.8140000000000001,0.017636429807366922,0.024960807584473367,True
43028,584,0,585,4133.0,41843.0,41457.0,-0.003538,-0.000244,0.00183,0.7350000000000001,-1.2775,-3.5875000000000004,0.86465625,-0.0394375,-0.15975,0.9266875,0.8305625,-0.47084375,-0.77834375,0.8200625,0.017629398250724394,0.0249650967894091,True
43029,585,0,586,4133.0,41839.0,41455.0,-0.0018909999999999999,-0.0015249999999999999,0.00183,0.6475000000000001,-1.3650000000000002,-3.6225000000000005,0.86353125,-0.04028125,-0.16246875,0.9114375,0.83115625,-0.4718125,-0.77853125,0.81171875,0.01763380828453144,0.02486275291236239,True
43030,586,0,587,4130.0,41839.0,41453.0,-0.002074,0.000183,0.0017079999999999999,0.56,-1.4175000000000002,-3.6925000000000003,0.8746875000000001,-0.03753125,-0.16034375,0.92740625,0.8463125,-0.46846875,-0.77778125,0.8200000000000001,0.017611952116946425,0.02491899875014031,True
43031,587,0,588,4127.0,41837.0,41453.0,-0.000366,0.001098,0.00042699999999999997,0.49000000000000005,-1.6800000000000002,-3.7100000000000004,0.8811875,-0.03834375,-0.16234375,0.9268125,0.84321875,-0.471625,-0.780375,0.8211875000000001,0.01770545478692159,0.024940350983389075,True
43032,588,0,589,4126.0,41837.0,41449.0,0.0023179999999999997,0.000549,0.0,0.49000000000000005,-1.995,-3.7625,0.8671562500000001,-0.0370625,-0.15987500000000002,0.92796875,0.84046875,-0.47168750000000004,-0.7779375000000001,0.81740625,0.017760319961588264,0.024944065663253856,True
43033,589,0,590,4125.0,41836.0,41450.0,0.002074,-0.00244,-0.000976,0.385,-1.8200000000000003,-3.6925000000000003,0.88109375,-0.0385,-0.15762500000000002,0.9273125,0.8453437500000001,-0.47100000000000003,-0.77753125,0.8209375,0.01767398144742757,0.0250188868190813,True
43034,590,0,591,4123.0,41835.0,41446.0,0.00042699999999999997,-0.000122,-0.00183,0.36750000000000005,-1.7850000000000001,-3.5875000000000004,0.8779375,-0.0385,-0.16190625,0.9270625,0.8347187500000001,-0.47065625,-0.77796875,0.82059375,0.0176601822846496,0.024863317337100118,True
43035,591,0,592,4122.0,41832.0,41446.0,0.0011589999999999999,0.0021349999999999997,-0.00183,0.56,-1.8025000000000002,-3.5700000000000003,0.8550625000000001,-0.03271875,-0.1663125,0.908375,0.8410625,-0.47146875,-0.77590625,0.81303125,0.01792904236694007,0.024604296765128424,True
43036,592,0,593,4122.0,41833.0,41445.0,0.002562,-0.000366,0.00061,0.47250000000000003,-1.7500000000000002,-3.6575,0.8655625,-0.0470625,-0.15737500000000001,0.90053125,0.84103125,-0.47296875,-0.7768125,0.8125,0.017403129728590854,0.025000693692943755,True
43037,593,0,594,4120.0,41835.0,41447.0,-0.0025009999999999998,-0.00042699999999999997,0.0017079999999999999,0.29750000000000004,-1.3125000000000002,-3.3600000000000003,0.88846875,-0.04484375,-0.1579375,0.92078125,0.8501875,-0.473875,-0.7782187500000001,0.82021875,0.017530172479838194,0.025033326901272922,True
43038,594,0,595,4119.0,41835.0,41447.0,-0.005063,0.000244,0.00061,0.3325,-1.05,-3.4650000000000003,0.87440625,-0.038625,-0.16784375,0.9194375,0.83278125,-0.47125,-0.77834375,0.8023750000000001,0.01767890892373704,0.02463845066319253,True
43039,595,0,596,4121.0,41835.0,41446.0,-0.00488,6.1e-05,0.000244,0.052500000000000005,-1.0325000000000002,-3.5525,0.86459375,-0.04121875,-0.1635,0.90734375,0.84115625,-0.47371875,-0.7775625,0.8131875000000001,0.017672018070404603,0.024783006803029962,True
43040,596,0,597,4122.0,41833.0,41447.0,-0.0032329999999999998,-0.000305,-0.002379,0.07,-1.3475000000000001,-3.535,0.8697812500000001,-0.043437500000000004,-0.15603125,0.908375,0.84009375,-0.4736875,-0.77709375,0.812875,0.017580105163964358,0.02506599467502116,True
43041,597,0,598,4120.0,41836.0,41448.0,0.0006709999999999999,0.000366,-0.001586,0.14,-1.715,-3.7275000000000005,0.873625,-0.04025,-0.16009375,0.91671875,0.848,-0.47250000000000003,-0.78140625,0.807625,0.01766268260292165,0.02507172085926318,True
43042,598,0,599,4121.0,41833.0,41447.0,0.002989,-0.0011589999999999999,0.000732,0.24500000000000002,-1.8375000000000001,-3.7975000000000003,0.85875,-0.042875,-0.1596875,0.9204687500000001,0.8415,-0.47290625000000003,-0.77828125,0.80934375,0.01757172791850171,0.024965159760627065,True
43043,599,0,600,4122.0,41836.0,41451.0,0.0032329999999999998,0.000915,0.00042699999999999997,0.35000000000000003,-1.8550000000000002,-3.8675,0.87075,-0.044875,-0.159,0.91296875,0.8406875,-0.47334375,-0.77753125,0.81375,0.017507568821689926,0.02496339299340002,True
43044,600,0,601,4122.0,41837.0,41450.0,0.001647,0.002196,0.000366,0.31500000000000006,-1.7325000000000002,-3.9550000000000005,0.87746875,-0.04028125,-0.16065625,0.9179375000000001,0.8499375,-0.4709375,-0.78109375,0.813125,0.01759868211015618,0.025036727848220985,True
43045,601,0,602,4124.0,41838.0,41452.0,0.0,0.000915,-0.000793,0.15750000000000003,-1.6275000000000002,-4.025,0.8638750000000001,-0.044,-0.15878125,0.9147500000000001,0.8415312500000001,-0.47371875,-0.77740625,0.81840625,0.017558375757668623,0.02496730262070914,True
43046,602,0,603,4123.0,41836.0,41454.0,-0.0015249999999999999,-0.000549,-0.0013419999999999999,0.28,-1.5225000000000002,-3.9025000000000003,0.8748750000000001,-0.0405,-0.15959375,0.9136875,0.8395312500000001,-0.4720625,-0.7785625,0.81396875,0.017634905108631527,0.024980010442494396,True
43047,603,0,604,4122.0,41838.0,41456.0,-0.0011589999999999999,-0.000915,0.00042699999999999997,0.24500000000000002,-1.5050000000000001,-4.0600000000000005,0.87740625,-0.03890625,-0.15834375,0.921,0.84628125,-0.47103125,-0.778,0.8091875000000001,0.017658634635595916,0.025008323916377435,True
43048,604,0,605,4124.0,41838.0,41458.0,-0.0023179999999999997,-0.001647,-0.00183,0.3325,-1.5050000000000001,-4.025,0.871,-0.04071875,-0.16265625,0.9080312500000001,0.84128125,-0.4736875,-0.7792187500000001,0.80509375,0.017691193858710503,0.024882241293422546,True
43049,605,0,606,4124.0,41839.0,41458.0,0.000305,-0.00122,-0.001464,0.29750000000000004,-1.5575,-4.2175,0.87065625,-0.04071875,-0.16365625,0.9131875,0.8411875,-0.4750625,-0.7801250000000001,0.81278125,0.017746379605772203,0.024877548034967542,True
43050,606,0,607,4125.0,41840.0,41459.0,-6.1e-05,-0.000793,-0.000122,0.31500000000000006,-1.61,-4.2525,0.8709375,-0.04134375,-0.15887500000000002,0.91340625,0.84846875,-0.4710625,-0.77578125,0.812125,0.017560281659204622,0.024899568000504524,True
43051,607,0,608,4125.0,41838.0,41456.0,0.0025009999999999998,-0.000244,0.000183,0.31500000000000006,-1.7325000000000002,-4.2,0.8731875,-0.04378125,-0.15965625,0.914125,0.85075,-0.47153125,-0.77775,0.8196875,0.01747949466791131,0.02494551563398614,True
43052,608,0,609,4125.0,41837.0,41456.0,0.0018909999999999999,0.0006709999999999999,0.0011589999999999999,0.2625,-1.5925000000000002,-4.2175,0.8786875000000001,-0.0375625,-0.16053125000000001,0.9135625,0.84109375,-0.47065625,-0.78096875,0.816125,0.01769849347624259,0.02503685413831935,True
43053,609,0,610,4124.0,41837.0,41456.0,-0.000122,0.00042699999999999997,-0.000122,0.2625,-1.5575,-4.1825,0.87109375,-0.04090625,-0.1619375,0.9128125,0.8407187500000001,-0.47428125,-0.7771250000000001,0.81221875,0.017707363724930637,0.024828849190533606,True
43054,610,0,611,4125.0,41837.0,41456.0,0.000793,0.001037,-0.000183,0.385,-1.4700000000000002,-4.1475,0.8725625,-0.043625000000000004,-0.1576875,0.9184687500000001,0.84809375,-0.4723125,-0.77734375,0.81784375,0.01751724525420309,0.0250089862840927,True
43055,611,0,612,4125.0,41837.0,41457.0,-0.00061,0.001403,-0.000366,0.43750000000000006,-1.4525000000000001,-4.112500000000001,0.87184375,-0.04028125,-0.1613125,0.9203125,0.84184375,-0.4718125,-0.780875,0.812125,0.01763380828453144,0.025001639369069895,True
43056,612,0,613,4124.0,41838.0,41453.0,-0.001586,-0.00042699999999999997,0.000244,0.385,-1.4175000000000002,-4.1475,0.87109375,-0.04046875,-0.15853125,0.9127500000000001,0.83525,-0.4745625,-0.77709375,0.813125,0.01773652746601701,0.024965095028548295,True
43057,613,0,614,4123.0,41838.0,41451.0,-0.0023179999999999997,-6.1e-05,0.001586,0.56,-1.1725,-4.165,0.8715625,-0.04334375,-0.162,0.9135625,0.84146875,-0.47478125,-0.77771875,0.81271875,0.017627838859642513,0.0248496948493291,True
43058,614,0,615,4124.0,41837.0,41452.0,-0.0011589999999999999,-0.000305,0.001586,0.49000000000000005,-1.3475000000000001,-4.095000000000001,0.8608750000000001,-0.04278125,-0.15946875,0.906875,0.8480625,-0.4731875,-0.77725,0.8196875,0.01758684887287363,0.02493340665328073,True
43059,615,0,616,4121.0,41838.0,41450.0,-0.000122,0.0,0.000366,0.35000000000000003,-1.4875,-4.077500000000001,0.8739687500000001,-0.0331875,-0.160125,0.913375,0.84046875,-0.471625,-0.779875,0.802,0.017916157999315535,0.025010214942569324,True
43060,616,0,617,4122.0,41837.0,41452.0,0.001769,-0.00122,-6.1e-05,0.22750000000000004,-1.715,-4.165,0.8718125,-0.04184375,-0.15934375,0.9134375,0.84421875,-0.47384375,-0.774625,0.81615625,0.01765149783633803,0.024835138776066235,True
43061,617,0,618,4122.0,41835.0,41451.0,0.002806,-0.001586,-0.002074,0.35000000000000003,-1.8725000000000003,-4.025,0.875625,-0.04015625,-0.16015625,0.9165625000000001,0.8490625,-0.47125,-0.77825,0.8106875,0.01761633549573479,0.02494501225873498,True
43062,618,0,619,4122.0,41838.0,41451.0,0.001952,0.000183,-0.0023179999999999997,0.31500000000000006,-1.6450000000000002,-3.99,0.87075,-0.0405,-0.16153125000000002,0.91225,0.840875,-0.47421875,-0.7780625,0.81384375,0.01772145433651483,0.02488214120857916,True
43063,619,0,620,4122.0,41836.0,41450.0,0.0,-0.000488,-0.000305,0.42000000000000004,-1.5050000000000001,-3.9550000000000005,0.8718750000000001,-0.04084375,-0.162125,0.91340625,0.842125,-0.47571875,-0.7764375,0.81115625,0.017767608969603804,0.024794222333214773,True
43064,620,0,621,4121.0,41835.0,41452.0,-0.001098,0.00042699999999999997,0.000488,0.5425000000000001,-1.3650000000000002,-3.8150000000000004,0.871,-0.040625,-0.1611875,0.9005625,0.84628125,-0.47565625,-0.7761875,0.8084687500000001,0.017774038234419146,0.024822220932901803,True
43065,621,0,622,4123.0,41837.0,41452.0,-0.0018909999999999999,0.0008539999999999999,0.000305,0.45500000000000007,-1.1725,-3.7975000000000003,0.8711875,-0.0408125,-0.16371875,0.9134375,0.84796875,-0.47525,-0.7755625,0.80021875,0.017750074054401897,0.024695453433196523,True
43066,622,0,623,4122.0,41837.0,41453.0,-0.0013419999999999999,-6.1e-05,0.001403,0.47250000000000003,-1.1725,-3.7800000000000002,0.8719375,-0.04575,-0.15984375,0.91559375,0.85046875,-0.4700625,-0.77596875,0.8270625,0.017340066050096928,0.024867846993873854,True
43067,623,0,624,4124.0,41837.0,41452.0,-0.000976,0.000122,0.0018909999999999999,0.43750000000000006,-1.2075,-3.6575,0.8651562500000001,-0.03059375,-0.1738125,0.90590625,0.83909375,-0.47121875,-0.7828125,0.80825,0.01800584615345323,0.02457348212596936,True
43068,624,0,625,4123.0,41837.0,41455.0,-0.000976,0.000549,0.0013419999999999999,0.4025,-1.1725,-3.7450000000000006,0.8886875,-0.04553125,-0.15559375,0.93603125,0.8495,-0.4751875,-0.7761250000000001,0.82528125,0.017554768477258856,0.025045532745738088,True
43069,625,0,626,4124.0,41838.0,41455.0,0.0,0.0008539999999999999,0.000488,0.42000000000000004,-1.1900000000000002,-3.7975000000000003,0.85946875,-0.03559375,-0.16953125,0.9029375000000001,0.83784375,-0.47150000000000003,-0.78153125,0.8095,0.017812812863943775,0.024695810514130355,True
43070,626,0,627,4123.0,41839.0,41457.0,0.000549,-0.000122,-0.00042699999999999997,0.36750000000000005,-1.1900000000000002,-3.7275000000000005,0.8726875000000001,-0.04621875,-0.15509375,0.9219375,0.843875,-0.47209375000000003,-0.77640625,0.81971875,0.017402475012993118,0.02507678045519616,True
43071,627,0,628,4125.0,41838.0,41459.0,0.000366,6.1e-05,-0.001769,0.14,-1.2950000000000002,-3.7450000000000006,0.8675625,-0.04065625,-0.164375,0.90175,0.83809375,-0.47000000000000003,-0.77934375,0.80834375,0.01754571924805885,0.024817798090395356,True
43072,628,0,629,4126.0,41838.0,41458.0,0.00042699999999999997,0.000305,-0.0015249999999999999,0.31500000000000006,-1.3650000000000002,-3.7100000000000004,0.8780625,-0.045,-0.15434375,0.9183125,0.8425625,-0.471875,-0.7714062500000001,0.82528125,0.017443493806665815,0.024910273311592884,True
43073,629,0,630,4127.0,41839.0,41460.0,0.00042699999999999997,-0.000976,-0.0006709999999999999,0.3325,-1.4175000000000002,-3.7975000000000003,0.89125,-0.0366875,-0.171875,0.90015625,0.8483125,-0.46959375000000003,-0.78025,0.80996875,0.017691599395678565,0.0245508015455857,True
43074,630,0,631,4126.0,41839.0,41458.0,-6.1e-05,-6.1e-05,0.0,0.3325,-1.3825,-3.9025000000000003,0.874625,-0.04125,-0.1553125,0.9342812500000001,0.8408125,-0.4733125,-0.7759375000000001,0.8178125,0.017654434805259814,0.02504950619931133,True
43075,631,0,632,4129.0,41840.0,41461.0,0.000122,0.000732,0.00061,0.45500000000000007,-1.435,-3.9025000000000003,0.87484375,-0.035562500000000004,-0.16434375,0.930875,0.83896875,-0.47150000000000003,-0.7801250000000001,0.80803125,0.017814089859632638,0.024849804026412296,True
43076,632,0,633,4129.0,41839.0,41461.0,0.000244,0.00042699999999999997,0.001647,0.5075000000000001,-1.3650000000000002,-3.7975000000000003,0.87803125,-0.03084375,-0.16303125000000002,0.9213125,0.84103125,-0.471125,-0.7801250000000001,0.81471875,0.01799186796683847,0.02490276986092685,True
43077,633,0,634,4129.0,41843.0,41461.0,0.000244,-0.00122,-0.000732,0.35000000000000003,-1.4525000000000001,-3.8150000000000004,0.8605625,-0.04865625,-0.1581875,0.90715625,0.84209375,-0.47478125,-0.77096875,0.81303125,0.017410778696949538,0.024737879902254525,True
43078,634,0,635,4130.0,41841.0,41463.0,-0.000183,0.000122,-0.002074,0.31500000000000006,-1.4000000000000001,-3.7100000000000004,0.8845937500000001,-0.043750000000000004,-0.15484375,0.90953125,0.84871875,-0.4714375,-0.7780625,0.82053125,0.017477007633899724,0.025152037210334745,True
43079,635,0,636,4130.0,41844.0,41464.0,0.000183,-0.000183,-0.0006709999999999999,0.385,-1.4875,-3.6050000000000004,0.8719375,-0.043312500000000004,-0.15909375,0.913,0.843,-0.467625,-0.7780625,0.815125,0.017341793492421105,0.02498051451763026,True
43080,636,0,637,4133.0,41844.0,41464.0,0.000793,0.0021349999999999997,0.00244,0.36750000000000005,-1.4175000000000002,-3.7800000000000002,0.87625,-0.04075,-0.1603125,0.9195,0.8408125,-0.47184375,-0.7798437500000001,0.8180625,0.017615908078033555,0.025001418743812703,True
43081,637,0,638,4133.0,41848.0,41467.0,0.000183,0.001647,0.00183,0.43750000000000006,-1.2950000000000002,-3.8675,0.87796875,-0.04021875,-0.15915625,0.91896875,0.8416250000000001,-0.47168750000000004,-0.77875,0.81121875,0.01763134438522068,0.02500504464510922,True
43082,638,0,639,4134.0,41847.0,41468.0,-0.005978,0.0,-0.000122,0.56,-1.155,-3.9200000000000004,0.8756875000000001,-0.04059375,-0.16375,0.9131875,0.84184375,-0.47203125,-0.776,0.8140000000000001,0.017629819755971422,0.02471141427187601,True
43083,639,0,640,4134.0,41848.0,41466.0,-0.004026,-0.000976,0.000183,0.5425000000000001,-1.3475000000000001,-3.9725000000000006,0.858625,-0.04090625,-0.163125,0.91659375,0.84065625,-0.47350000000000003,-0.77771875,0.8125,0.017676006701125707,0.02480429115372052,True
43084,640,0,641,4135.0,41846.0,41467.0,0.000915,-0.000976,-0.000183,0.47250000000000003,-1.7675,-4.0425,0.869625,-0.04196875,-0.16121875,0.90965625,0.8470625,-0.47200000000000003,-0.7775,0.81740625,0.017572378636809414,0.02487261628493593,True
43085,641,0,642,4135.0,41846.0,41468.0,0.006222,-0.001769,-0.001037,0.47250000000000003,-2.2575000000000003,-4.095000000000001,0.876625,-0.04025,-0.16365625,0.9175,0.84015625,-0.47271875,-0.7789375000000001,0.81278125,0.017671463249255868,0.02483081649485576,True
43086,642,0,643,4136.0,41847.0,41468.0,0.009271999999999999,0.001647,-0.002562,0.47250000000000003,-2.5900000000000003,-3.7800000000000002,0.8719687500000001,-0.04109375,-0.1639375,0.917625,0.84378125,-0.47384375,-0.776625,0.8120937500000001,0.01768214279785945,0.024728448689036543,True
43087,643,0,644,4136.0,41849.0,41467.0,0.0048189999999999995,0.003172,0.00061,0.5775,-1.6450000000000002,-3.9025000000000003,0.868125,-0.0401875,-0.16225,0.91325,0.841,-0.4751875,-0.7769375000000001,0.81203125,0.017773101840384265,0.02480885702682182,True
43088,644,0,645,4135.0,41848.0,41468.0,-0.002989,0.002074,0.003172,0.665,-1.0325000000000002,-3.8850000000000002,0.8651875,-0.041375,-0.16284375,0.9130312500000001,0.84771875,-0.47325,-0.7691875,0.81203125,0.017646818465058788,0.024479759378461644,True
43089,645,0,646,4136.0,41850.0,41471.0,-0.009394,0.00122,0.002928,0.6825000000000001,-0.7000000000000001,-3.7100000000000004,0.8711875,-0.04153125,-0.16184375,0.91309375,0.8396250000000001,-0.47365625,-0.7779375000000001,0.81153125,0.01765674060245902,0.02486460989741378,True
43090,646,0,647,4135.0,41853.0,41470.0,-0.011346,-0.000305,0.0008539999999999999,0.77,-0.8400000000000001,-3.7975000000000003,0.87059375,-0.04359375,-0.16165625,0.9125625,0.84909375,-0.4734375,-0.77690625,0.812625,0.017563685117793527,0.02483159090937756,True
43091,647,0,648,4138.0,41852.0,41471.0,-0.0021349999999999997,-0.00366,0.0,0.5775,-1.4875,-4.025,0.8707812500000001,-0.04246875,-0.16084375,0.9129375000000001,0.850125,-0.47350000000000003,-0.7775,0.81221875,0.017612162134553702,0.02488775098375542,True
43092,648,0,649,4138.0,41852.0,41472.0,0.0030499999999999998,-0.0028669999999999998,0.001586,0.5950000000000001,-1.8725000000000003,-4.0425,0.87084375,-0.04096875,-0.1624375,0.908625,0.8427187500000001,-0.4744375,-0.77796875,0.8125625,0.017711081204624213,0.024841876919390334,True
43093,649,0,650,4137.0,41849.0,41468.0,0.00732,-0.000793,0.000488,0.47250000000000003,-2.1350000000000002,-4.165,0.87284375,-0.0406875,-0.1568125,0.918625,0.8286250000000001,-0.47125,-0.7788437500000001,0.81284375,0.017594626347244215,0.02510332024673266,True
43094,650,0,651,4137.0,41846.0,41465.0,0.008845,0.000122,-0.000366,0.4025,-2.205,-4.1475,0.87275,-0.039875,-0.160875,0.918375,0.841375,-0.472125,-0.7804375,0.812875,0.017662953258043592,0.025002080774401178,True
43095,651,0,652,4136.0,41848.0,41462.0,0.00671,0.001647,-0.0023179999999999997,0.31500000000000006,-2.0650000000000004,-4.0600000000000005,0.86440625,-0.04103125,-0.16228125000000002,0.9186562500000001,0.83665625,-0.47325,-0.77671875,0.8121875000000001,0.017660864413185824,0.02479898594320525,True
43096,652,0,653,4135.0,41847.0,41458.0,-0.002257,0.00122,-0.001281,0.49000000000000005,-1.4700000000000002,-4.0425,0.8708750000000001,-0.039718750000000004,-0.15896875,0.91578125,0.84140625,-0.47490625000000003,-0.7791250000000001,0.8178125,0.01778096698531787,0.02502736678555034,True
43097,653,0,654,4133.0,41844.0,41458.0,-0.0040869999999999995,0.00061,0.000488,0.49000000000000005,-1.1375000000000002,-4.0075,0.880125,-0.043687500000000004,-0.15884375,0.91325,0.841875,-0.46725,-0.77753125,0.81340625,0.01731140606320694,0.024969699109954713,True
43098,654,0,655,4129.0,41842.0,41455.0,-0.005307,-0.001037,0.003111,0.42000000000000004,-1.2600000000000002,-3.99,0.8609375,-0.043375000000000004,-0.15709375,0.91390625,0.83978125,-0.47090625,-0.7773125,0.8036875,0.01747100191681704,0.025031720046312524,True
43099,655,0,656,4128.0,41840.0,41454.0,-0.001647,0.000366,0.002806,0.5075000000000001,-1.4000000000000001,-4.0425,0.86946875,-0.04234375,-0.162875,0.9133125,0.84565625,-0.471125,-0.77046875,0.81159375,0.017521926351976053,0.02452895648169759,True
43100,656,0,657,4124.0,41841.0,41451.0,0.000183,0.001098,0.0013419999999999999,0.47250000000000003,-1.435,-3.9725000000000006,0.8704375,-0.04296875,-0.1591875,0.9056875,0.854,-0.47121875,-0.7788437500000001,0.8204375,0.01750015004871795,0.025007472352296504,True
43101,657,0,658,4122.0,41841.0,41448.0,-0.000244,-0.00042699999999999997,-0.000183,0.3325,-1.8025000000000002,-3.9550000000000005,0.87371875,-0.04225,-0.1595,0.9130312500000001,0.85121875,-0.4630625,-0.7771250000000001,0.83084375,0.01720195498826036,0.024927226221767056,True
43102,658,0,659,4121.0,41840.0,41446.0,0.000793,0.000915,-0.002623,0.29750000000000004,-1.9425000000000001,-3.8500000000000005,0.8699375,-0.043375000000000004,-0.1630625,0.91128125,0.854625,-0.46534375,-0.7743125000000001,0.8200937500000001,0.01724761173649972,0.024672733098042583,True
43103,659,0,660,4119.0,41839.0,41443.0,-0.0011589999999999999,-0.000915,-0.004026,0.21000000000000002,-1.8375000000000001,-3.8150000000000004,0.8719375,-0.043437500000000004,-0.15921875,0.912125,0.85728125,-0.46896875,-0.7778437500000001,0.82940625,0.01739064912574217,0.024966861775452116,True
43104,660,0,661,4118.0,41837.0,41443.0,-0.0013419999999999999,-0.00061,-0.003538,0.3325,-1.8550000000000002,-3.7800000000000002,0.8711875,-0.039156250000000004,-0.16078125000000001,0.91309375,0.846875,-0.46853125,-0.77659375,0.81365625,0.017548049599421706,0.024854606981639677,True
43105,661,0,662,4118.0,41836.0,41444.0,0.000915,-0.000366,-0.001037,0.4025,-1.8900000000000001,-3.9200000000000004,0.87175,-0.0419375,-0.1630625,0.912875,0.85584375,-0.46875,-0.77478125,0.817375,0.01744316730523627,0.02469118672843983,True
43106,662,0,663,4117.0,41838.0,41444.0,0.0021349999999999997,0.000549,0.004392,0.665,-1.8025000000000002,-4.130000000000001,0.8716875000000001,-0.043625000000000004,-0.162375,0.9135625,0.85890625,-0.46903125,-0.7745625,0.8138125,0.01738549620757871,0.0247103253589241,True
43107,663,0,664,4116.0,41835.0,41446.0,0.001464,0.000732,0.0040869999999999995,0.47250000000000003,-1.6275000000000002,-4.130000000000001,0.8661875,-0.044,-0.15665625,0.9128125,0.85428125,-0.46928125,-0.77496875,0.8100625,0.017380210135922974,0.024957145505985757,True
43108,664,0,665,4116.0,41836.0,41445.0,-6.1e-05,0.000793,0.002379,0.3325,-1.5050000000000001,-3.9550000000000005,0.87071875,-0.04028125,-0.16271875,0.92015625,0.85871875,-0.47650000000000003,-0.7743125000000001,0.8073125,0.017821941454047762,0.024686608356942297,True
43109,665,0,666,4115.0,41834.0,41446.0,-0.001037,0.000305,-0.003538,0.21000000000000002,-1.5925000000000002,-3.7800000000000002,0.87746875,-0.04009375,-0.15987500000000002,0.91246875,0.834,-0.47353125,-0.78653125,0.81871875,0.017710460152741546,0.025282127768483136,True
43110,666,0,667,4115.0,41836.0,41448.0,-0.001647,6.1e-05,-0.006222,0.35000000000000003,-1.6275000000000002,-3.6925000000000003,0.8678125,-0.042625,-0.16225,0.91234375,0.8512500000000001,-0.46934375,-0.7745,0.801125,0.01743891272114725,0.02471291045227956,True
43111,667,0,668,4115.0,41837.0,41447.0,-0.002257,-0.002623,0.000122,0.56,-1.4000000000000001,-3.8325000000000005,0.87140625,-0.0401875,-0.15837500000000002,0.91346875,0.844125,-0.47878125,-0.78059375,0.81646875,0.017917303378819156,0.02510911386051837,True
43112,668,0,669,4116.0,41839.0,41448.0,-0.000732,-0.001281,0.002257,0.56,-1.4525000000000001,-3.7625,0.87503125,-0.04328125,-0.162,0.9136562500000001,0.8403437500000001,-0.46978125,-0.77153125,0.8104687500000001,0.017429661329726842,0.02460611917157927,True
43113,669,0,670,4114.0,41837.0,41450.0,-0.000305,0.002745,0.003111,0.6475000000000001,-1.5225000000000002,-3.7975000000000003,0.87071875,-0.04090625,-0.16296875,0.91296875,0.84603125,-0.473375,-0.77659375,0.81384375,0.017670989391532634,0.0247663180093107,True
43114,670,0,671,4117.0,41840.0,41450.0,0.001586,0.00366,0.00244,0.7175,-1.6975000000000002,-3.8675,0.8710625000000001,-0.04028125,-0.1601875,0.918375,0.84259375,-0.47565625,-0.77990625,0.8182812500000001,0.017788082801661345,0.025008922299695948,True
43115,671,0,672,4116.0,41839.0,41453.0,0.003172,0.002562,0.003111,0.6125,-1.7675,-3.8325000000000005,0.8770625,-0.04084375,-0.1598125,0.90425,0.84165625,-0.47200000000000003,-0.7775625,0.8210000000000001,0.017618349542334096,0.024931830966020165,True
43116,672,0,673,4119.0,41842.0,41454.0,0.001586,-0.000793,-0.0008539999999999999,0.35000000000000003,-1.6800000000000002,-3.8675,0.87103125,-0.04334375,-0.1563125,0.9064375,0.8476250000000001,-0.47290625000000003,-0.7770312500000001,0.8023750000000001,0.017552574083840165,0.02505218416754429,True
43117,673,0,674,4120.0,41842.0,41454.0,-0.0013419999999999999,-0.001647,-0.002257,0.4025,-1.435,-3.9200000000000004,0.8711875,-0.04053125,-0.1610625,0.91321875,0.845,-0.47275,-0.7770312500000001,0.81259375,0.017661225240318313,0.02486047435565954,True
43118,674,0,675,4121.0,41841.0,41453.0,-0.0025009999999999998,-0.0017079999999999999,-0.0028669999999999998,0.43750000000000006,-1.2950000000000002,-3.7800000000000002,0.871,-0.0424375,-0.1618125,0.9056875,0.8486875,-0.47284375,-0.7776875,0.8078125,0.01758709590094122,0.024856032266933708,True
43119,675,0,676,4121.0,41842.0,41453.0,-0.002013,-0.002379,-0.001952,0.42000000000000004,-1.3125000000000002,-3.7450000000000006,0.87403125,-0.043125000000000004,-0.16009375,0.91790625,0.8426250000000001,-0.467625,-0.7760625,0.8193125,0.01734945668000061,0.024861446406183388,True
43120,676,0,677,4120.0,41841.0,41453.0,-0.000305,-0.00042699999999999997,-6.1e-05,0.5425000000000001,-1.3825,-3.9550000000000005,0.87584375,-0.039843750000000004,-0.15996875,0.9190625,0.84190625,-0.4714375,-0.78078125,0.8116875,0.01763663250268808,0.02505217627067347,True
43121,677,0,678,4121.0,41843.0,41454.0,0.000549,0.000366,0.000549,0.525,-1.5750000000000002,-3.8325000000000005,0.86890625,-0.0404375,-0.16334375,0.9129375000000001,0.83575,-0.47496875,-0.7772187500000001,0.81259375,0.017754108470516432,0.02477578319802339,True
43122,678,0,679,4121.0,41842.0,41453.0,0.002257,0.001281,-0.00061,0.5425000000000001,-1.5575,-3.9025000000000003,0.87284375,-0.04434375,-0.1594375,0.9130625,0.83759375,-0.47121875,-0.77771875,0.8210625,0.01744396159263625,0.024953114378215308,True
43123,679,0,680,4122.0,41844.0,41452.0,-0.000976,0.001586,-0.0017079999999999999,0.5425000000000001,-1.4700000000000002,-3.99,0.88465625,-0.04471875,-0.1583125,0.9100312500000001,0.84215625,-0.47100000000000003,-0.7774375,0.81403125,0.017419854113031753,0.02498745078057406,True
43124,680,0,681,4122.0,41843.0,41452.0,-0.0006709999999999999,0.000732,-0.000183,0.5775,-1.2600000000000002,-3.8500000000000005,0.86928125,-0.044625,-0.1625625,0.91134375,0.8515312500000001,-0.47503125,-0.77696875,0.8130625,0.017585524022568917,0.024797474469107527,True
43125,681,0,682,4122.0,41842.0,41454.0,0.0,-0.000976,0.0011589999999999999,0.6125,-1.33,-3.8675,0.867625,-0.03571875,-0.15715625,0.90965625,0.8338125000000001,-0.47203125,-0.781375,0.8170625,0.017829026758863754,0.025189028050299874,True
43126,682,0,683,4121.0,41842.0,41451.0,0.001037,0.0013419999999999999,0.00122,0.45500000000000007,-1.435,-3.8500000000000005,0.88228125,-0.04525,-0.16525,0.91325,0.8445,-0.47309375000000004,-0.7769375000000001,0.8131875000000001,0.01748220941620836,0.02468777668749417,True
43127,683,0,684,4119.0,41844.0,41452.0,-0.000915,0.0021349999999999997,0.00183,0.56,-1.225,-3.8325000000000005,0.8729687500000001,-0.03821875,-0.1570625,0.9101250000000001,0.84125,-0.47203125,-0.77878125,0.8176875,0.01772686932148307,0.025090771968455872,True
43128,684,0,685,4121.0,41844.0,41451.0,-0.001586,0.000793,0.0028669999999999998,0.5950000000000001,-1.3125000000000002,-3.8150000000000004,0.87134375,-0.047031250000000004,-0.1626875,0.9093125,0.85075,-0.4715625,-0.7780312500000001,0.8125,0.017347942126703188,0.02483424707118327,True
43129,685,0,686,4120.0,41845.0,41452.0,-0.000976,-0.000793,0.0013419999999999999,0.4025,-1.4700000000000002,-3.8500000000000005,0.86725,-0.0415,-0.1629375,0.9215625000000001,0.8415312500000001,-0.47225,-0.77725,0.80609375,0.01760156912421212,0.024793409276655,True
43130,686,0,687,4119.0,41845.0,41451.0,0.000976,-0.000732,-0.0017079999999999999,0.29750000000000004,-1.4875,-3.9200000000000004,0.86559375,-0.03975,-0.1625,0.92459375,0.8407187500000001,-0.47365625,-0.7752187500000001,0.80859375,0.017729522943675406,0.02473111362538424,True
43131,687,0,688,4119.0,41844.0,41452.0,-0.0015249999999999999,-0.000915,-0.003172,0.49000000000000005,-1.6975000000000002,-3.9200000000000004,0.8669375,-0.039406250000000004,-0.16165625,0.91890625,0.84190625,-0.47118750000000004,-0.7783125,0.8114375,0.017644474752195823,0.024886934895183035,True
43132,688,0,689,4118.0,41845.0,41452.0,-0.00122,-0.001403,-0.002562,0.45500000000000007,-1.61,-3.9025000000000003,0.8701875,-0.039718750000000004,-0.161375,0.9195,0.8414375000000001,-0.46784375,-0.777375,0.8150937500000001,0.01749745520587608,0.024861390684041394,True
43133,689,0,690,4120.0,41847.0,41454.0,0.0008539999999999999,-0.001464,0.0017079999999999999,0.43750000000000006,-1.5750000000000002,-3.9725000000000006,0.8706875000000001,-0.039781250000000004,-0.1590625,0.91921875,0.84140625,-0.47215625,-0.77875,0.81753125,0.017668038548912093,0.025008828128941132,True
43134,690,0,691,4120.0,41844.0,41453.0,0.002806,0.001098,0.0015249999999999999,0.5075000000000001,-1.5750000000000002,-4.025,0.8755625,-0.039656250000000004,-0.15928125,0.91115625,0.84115625,-0.4714375,-0.7781250000000001,0.817375,0.017644294496389924,0.024975406734771097,True
43135,691,0,692,4118.0,41845.0,41453.0,0.0013419999999999999,0.001281,0.0018909999999999999,0.47250000000000003,-1.6625,-4.025,0.8774375,-0.039343750000000004,-0.16009375,0.9130625,0.82921875,-0.47215625,-0.7781250000000001,0.81953125,0.017685916009137936,0.024942615714465887,True
43136,692,0,693,4119.0,41847.0,41454.0,-0.000122,0.000122,-0.001037,0.17500000000000002,-1.5575,-3.99,0.878,-0.04509375,-0.16084375,0.91128125,0.84615625,-0.47134375,-0.7778437500000001,0.8126875,0.017418332411762227,0.024901278990428696,True
43137,693,0,694,4119.0,41847.0,41456.0,-0.0006709999999999999,6.1e-05,-0.00042699999999999997,0.12250000000000001,-1.6275000000000002,-3.9375000000000004,0.87146875,-0.0415625,-0.16228125000000002,0.90940625,0.853,-0.47465625,-0.7704375,0.81278125,0.017695600934129568,0.024551695948042903,True
43138,694,0,695,4119.0,41847.0,41457.0,-0.000549,-0.00061,-0.0017079999999999999,0.10500000000000001,-1.5925000000000002,-3.9200000000000004,0.871,-0.04071875,-0.1601875,0.9191875,0.84090625,-0.483875,-0.77765625,0.8082812500000001,0.018099922908444845,0.02492038568014277,True
43139,695,0,696,4121.0,41847.0,41458.0,6.1e-05,-0.0011589999999999999,-0.0006709999999999999,0.12250000000000001,-1.4700000000000002,-3.9200000000000004,0.87346875,-0.04021875,-0.16025,0.9104375,0.83625,-0.48103125,-0.7826875,0.80209375,0.01800628803167759,0.025115819258908056,True
43140,696,0,697,4121.0,41850.0,41458.0,-0.000976,-0.0013419999999999999,-0.001281,0.24500000000000002,-1.5575,-3.9375000000000004,0.8728125,-0.0403125,-0.16428125,0.9178437500000001,0.83328125,-0.47903125,-0.7711875,0.8055,0.017922226803807853,0.024500490741511685,True
43141,697,0,698,4121.0,41847.0,41460.0,0.0006709999999999999,0.0018909999999999999,-0.000244,0.24500000000000002,-1.6275000000000002,-3.9375000000000004,0.871375,-0.0405,-0.16071875,0.9158125,0.8654375,-0.47828125,-0.7705625,0.80671875,0.017884476672560497,0.02461969727171113,True
43142,698,0,699,4122.0,41848.0,41461.0,-0.000183,-0.000366,0.000366,0.36750000000000005,-1.5750000000000002,-4.077500000000001,0.87121875,-0.0406875,-0.162375,0.92153125,0.86571875,-0.4723125,-0.7724375,0.80425,0.01763727886361373,0.024626664210980448,True
43143,699,0,700,4122.0,41850.0,41461.0,0.0,-0.000183,0.001403,0.43750000000000006,-1.435,-3.9725000000000006,0.87325,-0.0361875,-0.1608125,0.91878125,0.8426250000000001,-0.48178125,-0.7795625,0.8028125,0.018201034697996086,0.024970174513775215,True
43144,700,0,701,4123.0,41849.0,41461.0,0.000915,-0.000732,0.001586,0.42000000000000004,-1.61,-3.9025000000000003,0.87284375,-0.04053125,-0.16259375,0.91959375,0.83540625,-0.48296875,-0.778875,0.79315625,0.01807123574423547,0.02487123608315551,True
43145,701,0,702,4123.0,41849.0,41463.0,0.001403,0.0008539999999999999,0.0006709999999999999,0.28,-1.7325000000000002,-3.9375000000000004,0.87128125,-0.04065625,-0.16040625,0.9200625,0.8663125,-0.467125,-0.7781875,0.81065625,0.017430276340191175,0.024932463280455845,True
43146,702,0,703,4124.0,41849.0,41466.0,0.000244,-0.000793,-0.002928,0.31500000000000006,-1.8725000000000003,-3.7800000000000002,0.8773125,-0.04034375,-0.15762500000000002,0.912125,0.81925,-0.4779375,-0.773875,0.7966562500000001,0.01787706786979091,0.02487499432365748,True
43147,703,0,704,4124.0,41850.0,41464.0,0.001098,-0.0011589999999999999,-0.0013419999999999999,0.31500000000000006,-1.7500000000000002,-3.6400000000000006,0.8713125,-0.04065625,-0.1599375,0.92,0.8395,-0.48171875000000003,-0.7771875,0.80275,0.01801599407721323,0.02491202845359265,True
43148,704,0,705,4126.0,41848.0,41464.0,0.002379,0.000549,0.00042699999999999997,0.28,-1.61,-3.7100000000000004,0.8765625,-0.0405,-0.16034375,0.91915625,0.8305,-0.476125,-0.7837500000000001,0.81834375,0.017797956171575365,0.02515383063499269,True
43149,705,0,706,4126.0,41852.0,41465.0,0.000366,0.0008539999999999999,0.001037,0.29750000000000004,-1.3475000000000001,-3.8675,0.8725937500000001,-0.04265625,-0.15887500000000002,0.9133125,0.82875,-0.46746875,-0.77696875,0.81634375,0.017362339535020352,0.02494630219848826,True
43150,706,0,707,4126.0,41851.0,41467.0,-0.00671,0.00183,0.004514,0.49000000000000005,-0.9800000000000001,-3.99,0.87184375,-0.04009375,-0.15987500000000002,0.9131875,0.839125,-0.47009375000000003,-0.77615625,0.8171875000000001,0.01757247047735565,0.02487396526650497,True
43151,707,0,708,4126.0,41850.0,41466.0,-0.004941,-0.000244,0.003294,0.36750000000000005,-1.0850000000000002,-3.9025000000000003,0.878,-0.03665625,-0.1591875,0.91334375,0.84865625,-0.46640625,-0.77865625,0.81565625,0.017564900852572087,0.025000094587453666,True
43152,708,0,709,4126.0,41851.0,41469.0,-0.001403,-0.00122,0.000122,0.1925,-1.5050000000000001,-3.8675,0.87815625,-0.0408125,-0.15946875,0.91321875,0.8476875,-0.47025,-0.77715625,0.81303125,0.017549371175202545,0.024929717267291315,True
43153,709,0,710,4128.0,41849.0,41468.0,0.002806,-0.001464,-0.002928,0.15750000000000003,-2.0650000000000004,-3.9375000000000004,0.871625,-0.0409375,-0.16153125000000002,0.9176562500000001,0.8459375,-0.47290625000000003,-0.77446875,0.81284375,0.017650897101769432,0.024740691967411008,True
43154,710,0,711,4128.0,41852.0,41469.0,0.005124,-0.001586,-0.0050019999999999995,-0.035,-2.3625000000000003,-3.8850000000000002,0.87028125,-0.039625,-0.160625,0.91659375,0.84090625,-0.47168750000000004,-0.7741875,0.81671875,0.01765560711740864,0.024766200707894055,True
43155,711,0,712,4128.0,41853.0,41470.0,0.006405,0.00061,-0.0053679999999999995,0.22750000000000004,-2.1875,-3.7100000000000004,0.8769375,-0.03975,-0.15959375,0.9126562500000001,0.84084375,-0.47109375000000003,-0.7723125000000001,0.815125,0.01762666411263289,0.02473401504199497,True
43156,712,0,713,4128.0,41854.0,41471.0,0.005063,0.001769,0.0021349999999999997,0.42000000000000004,-1.6625,-3.9200000000000004,0.87121875,-0.04134375,-0.1585625,0.91434375,0.84321875,-0.47396875,-0.7770312500000001,0.81275,0.017676945019389222,0.024961374256651514,True
43157,713,0,714,4128.0,41854.0,41472.0,-0.00042699999999999997,0.002074,0.0057339999999999995,0.6125,-1.2775,-3.8675,0.87084375,-0.040875,-0.15953125,0.9121875,0.84165625,-0.4714375,-0.780625,0.818875,0.017594491537327957,0.02506368382556937,True
43158,714,0,715,4129.0,41853.0,41471.0,-0.007991,0.001952,0.0051849999999999995,0.665,-0.805,-3.7625,0.8715,-0.0419375,-0.15428125,0.9131875,0.8485,-0.46646875,-0.77775,0.81265625,0.01735155384857081,0.02516244412830059,True
43159,715,0,716,4130.0,41853.0,41472.0,-0.010919,0.00122,0.002013,0.6125,-0.665,-3.8500000000000005,0.85865625,-0.04025,-0.1604375,0.9146562500000001,0.8419375,-0.473875,-0.7785,0.8200000000000001,0.017717872629487565,0.02494349940472587,True
43160,716,0,717,4131.0,41853.0,41471.0,-0.002379,-0.003111,-0.001037,0.43750000000000006,-1.54,-3.99,0.87190625,-0.04040625,-0.16725,0.9264687500000001,0.84090625,-0.47171875,-0.7814375,0.8172812500000001,0.017624936948901476,0.024784175655669694,True
43161,717,0,718,4130.0,41855.0,41470.0,0.005978,-0.0035989999999999998,-0.00183,0.36750000000000005,-2.1175,-4.077500000000001,0.86546875,-0.03865625,-0.15962500000000002,0.92640625,0.84159375,-0.46975,-0.77546875,0.8185,0.017617415380214347,0.02485699690343901,True
43162,718,0,719,4129.0,41852.0,41469.0,0.010309,-0.002745,-0.0015249999999999999,0.22750000000000004,-2.31,-4.130000000000001,0.87965625,-0.038,-0.1599375,0.92840625,0.83809375,-0.47175,-0.777875,0.81775,0.01772451908833655,0.024939083759200495,True
43163,719,0,720,4129.0,41855.0,41463.0,0.006588,-0.001037,-0.001586,0.1925,-1.9075000000000002,-4.0425,0.87915625,-0.0376875,-0.15778125,0.9080312500000001,0.8411875,-0.47175,-0.7780312500000001,0.80734375,0.01773728891476907,0.02503225513528239,True
43164,720,0,721,4127.0,41851.0,41460.0,0.0023179999999999997,0.000366,-0.0013419999999999999,0.28,-1.5750000000000002,-3.9375000000000004,0.87375,-0.044875,-0.15725,0.90671875,0.84809375,-0.47096875,-0.7769375000000001,0.81153125,0.01741221421812326,0.025010657592367907,True
43165,721,0,722,4126.0,41848.0,41459.0,-0.0013419999999999999,0.001464,0.0018909999999999999,0.42000000000000004,-1.3125000000000002,-4.025,0.8703125,-0.045,-0.16540625,0.9264375,0.84315625,-0.47375,-0.7795,0.81771875,0.017518770110833037,0.02478233015194011,True
43166,722,0,723,4123.0,41847.0,41454.0,-0.002013,0.000793,0.00488,0.35000000000000003,-1.2775,-4.077500000000001,0.875625,-0.0381875,-0.15790625,0.91803125,0.8346875,-0.47071875,-0.7780625,0.8190000000000001,0.017675461616753697,0.025028439975885924,True
43167,723,0,724,4119.0,41844.0,41451.0,-0.002806,0.00061,0.002196,0.24500000000000002,-1.12,-3.99,0.890375,-0.04471875,-0.1613125,0.90828125,0.8493125,-0.47478125,-0.77696875,0.81240625,0.01757165858223963,0.024847924546863707,True
43168,724,0,725,4117.0,41844.0,41450.0,-0.003721,0.002013,-0.0013419999999999999,0.31500000000000006,-1.12,-3.9200000000000004,0.8681875,-0.04840625,-0.16418750000000001,0.9107500000000001,0.8374375000000001,-0.47559375000000004,-0.77296875,0.8128125,0.017453611314332262,0.024574416419106005,True
43169,725,0,726,4115.0,41842.0,41446.0,-0.003355,0.0008539999999999999,-0.002196,0.31500000000000006,-1.3650000000000002,-3.9375000000000004,0.8541562500000001,-0.04178125,-0.16996875,0.9243750000000001,0.8409375,-0.47309375000000004,-0.780625,0.81659375,0.017623946706778748,0.02464248783071452,True
43170,726,0,727,4114.0,41845.0,41446.0,0.002928,-0.002379,-0.00122,0.4025,-1.9250000000000003,-4.112500000000001,0.86925,-0.03853125,-0.15737500000000001,0.906875,0.84109375,-0.4713125,-0.77778125,0.81225,0.017685248798976354,0.025038813755771612,True
43171,727,0,728,4109.0,41841.0,41442.0,0.003294,-0.000915,0.002196,0.45500000000000007,-1.9075000000000002,-4.0425,0.86428125,-0.04115625,-0.1599375,0.9225,0.84146875,-0.47546875,-0.78046875,0.8178125,0.0177448082582688,0.025041142532866736,True
43172,728,0,729,4109.0,41843.0,41444.0,0.0021349999999999997,0.001586,0.0017079999999999999,0.35000000000000003,-1.7500000000000002,-3.99,0.87409375,-0.04165625,-0.15840625,0.9088437500000001,0.8409375,-0.4709375,-0.77771875,0.8126875,0.01754249300828789,0.024994734432523175,True
43173,729,0,730,4108.0,41841.0,41442.0,0.000244,0.0018909999999999999,0.001037,0.35000000000000003,-1.7675,-3.9375000000000004,0.87884375,-0.0423125,-0.16003125,0.9119375000000001,0.849125,-0.471375,-0.77765625,0.8165,0.01753324036757232,0.02492669176488394,True
43174,730,0,731,4107.0,41843.0,41443.0,-0.000244,0.0011589999999999999,-0.000488,0.22750000000000004,-1.8200000000000003,-3.8675,0.87521875,-0.04334375,-0.1598125,0.91221875,0.8474375000000001,-0.47153125,-0.77771875,0.81203125,0.017497372584725362,0.024937979813012448,True
43175,731,0,732,4107.0,41842.0,41442.0,0.00122,-0.0018909999999999999,-0.002745,0.17500000000000002,-1.8725000000000003,-3.8850000000000002,0.85871875,-0.04265625,-0.16278125000000002,0.9181875,0.8459375,-0.4749375,-0.7794375,0.8136875,0.017662200363126566,0.024885805014742565,True
43176,732,0,733,4106.0,41842.0,41443.0,-0.0008539999999999999,-0.0023179999999999997,-0.0017079999999999999,0.22750000000000004,-1.61,-3.8500000000000005,0.8669375,-0.039968750000000004,-0.15987500000000002,0.91278125,0.8413437500000001,-0.47115625,-0.77390625,0.81734375,0.017620234025517285,0.024785402988275217,True
43177,733,0,734,4106.0,41843.0,41446.0,-0.003294,-0.000976,-0.0015249999999999999,0.28,-1.4525000000000001,-3.7800000000000002,0.87734375,-0.0419375,-0.15940625,0.913375,0.849375,-0.4723125,-0.7769375000000001,0.81240625,0.017586200731949626,0.02492363109847616,True
43178,734,0,735,4106.0,41842.0,41447.0,-0.0021349999999999997,0.000122,0.0,0.29750000000000004,-1.4700000000000002,-3.8500000000000005,0.87515625,-0.04503125,-0.16203125000000002,0.91296875,0.847125,-0.471125,-0.77440625,0.81275,0.017412103039807118,0.024718049499168115,True
43179,735,0,736,4108.0,41842.0,41448.0,0.000793,-0.000305,0.000366,0.24500000000000002,-1.5750000000000002,-3.9200000000000004,0.8709687500000001,-0.0416875,-0.16159375,0.913,0.84290625,-0.47400000000000003,-0.7792187500000001,0.81296875,0.017664153795865,0.024925119965697067,True
43180,736,0,737,4107.0,41843.0,41451.0,-0.000366,0.00061,0.001403,0.45500000000000007,-1.5750000000000002,-3.9550000000000005,0.87040625,-0.043687500000000004,-0.16315625,0.91321875,0.83978125,-0.473875,-0.7775,0.8120625,0.017577416735192117,0.02479442034103521,True
43181,737,0,738,4107.0,41844.0,41451.0,-0.0008539999999999999,0.002013,0.001281,0.525,-1.6275000000000002,-3.9375000000000004,0.87059375,-0.0365,-0.1639375,0.9124375,0.84175,-0.4744375,-0.777875,0.81334375,0.017893669670651268,0.024777649415052744,True
43182,738,0,739,4106.0,41843.0,41452.0,-0.000915,0.001769,0.000183,0.525,-1.6800000000000002,-3.9725000000000006,0.8708750000000001,-0.0440625,-0.16175,0.91215625,0.842375,-0.47246875,-0.77675,0.81234375,0.01750564090514979,0.024821657400587244,True
43183,739,0,740,4107.0,41844.0,41451.0,0.0013419999999999999,0.000976,-0.0006709999999999999,0.42000000000000004,-1.7675,-4.0600000000000005,0.871375,-0.036875,-0.16265625,0.9177500000000001,0.8416250000000001,-0.47578125,-0.77878125,0.81275,0.017932267228446486,0.024865024384522545,True
43184,740,0,741,4108.0,41846.0,41456.0,0.00244,-0.000366,0.001037,0.36750000000000005,-1.7500000000000002,-4.0425,0.87034375,-0.0408125,-0.160375,0.9195625000000001,0.84125,-0.473125,-0.779375,0.818625,0.017664785351278186,0.024980452493252956,True
43185,741,0,742,4110.0,41846.0,41452.0,-6.1e-05,-0.000183,-0.000244,0.42000000000000004,-1.6800000000000002,-3.9375000000000004,0.87771875,-0.0396875,-0.15975,0.91215625,0.84159375,-0.47159375000000003,-0.77825,0.81375,0.0176492898015684,0.024961407686176388,True
43186,742,0,743,4109.0,41847.0,41454.0,-0.000122,0.0,-0.0013419999999999999,0.35000000000000003,-1.6800000000000002,-3.9200000000000004,0.87534375,-0.043687500000000004,-0.15996875,0.9063125,0.84996875,-0.47003125,-0.77446875,0.812,0.017423097896534154,0.024803760928274195,True
43187,743,0,744,4108.0,41848.0,41455.0,0.000244,-0.0008539999999999999,-0.001281,0.22750000000000004,-1.4700000000000002,-3.9200000000000004,0.87203125,-0.0410625,-0.16284375,0.91790625,0.84809375,-0.47334375,-0.7788437500000001,0.81259375,0.01766335055870737,0.024859917041125057,True
43188,744,0,745,4109.0,41847.0,41454.0,-0.0006709999999999999,-0.001098,-0.00061,0.28,-1.3475000000000001,-3.9025000000000003,0.870625,-0.040875,-0.1605625,0.9097500000000001,0.84075,-0.4719375,-0.77840625,0.816875,0.01761456362006482,0.024934765527948353,True
43189,745,0,746,4109.0,41849.0,41456.0,-0.002013,-0.001281,0.00122,0.31500000000000006,-1.33,-3.8150000000000004,0.8725625,-0.040375,-0.16025,0.91603125,0.8414375000000001,-0.47190625,-0.78115625,0.81725,0.017633740730761422,0.025055580285927942,True
43190,746,0,747,4109.0,41850.0,41454.0,-0.000549,-0.000549,0.000732,0.31500000000000006,-1.3825,-3.8325000000000005,0.87059375,-0.039781250000000004,-0.15509375,0.91625,0.8345625,-0.47184375,-0.77965625,0.806,0.01765549438832127,0.025204647461564367,True
43191,747,0,748,4109.0,41849.0,41452.0,0.000732,0.0013419999999999999,0.001037,0.29750000000000004,-1.4875,-3.9200000000000004,0.8718125,-0.0404375,-0.15990625,0.91540625,0.8419375,-0.47209375000000003,-0.7790312500000001,0.8169062500000001,0.01763871348359803,0.024985843625343507,True
43192,748,0,749,4107.0,41846.0,41451.0,0.001586,0.001281,0.000244,0.2625,-1.4525000000000001,-3.9025000000000003,0.875125,-0.0404375,-0.16015625,0.91271875,0.8307187500000001,-0.47128125,-0.7775625,0.80471875,0.01760609694271729,0.024917957527097353,True
43193,749,0,750,4107.0,41846.0,41451.0,0.0021349999999999997,0.001281,0.000732,0.24500000000000002,-1.5225000000000002,-3.8675,0.8701875,-0.04065625,-0.16071875,0.912,0.84109375,-0.4723125,-0.7776875,0.8133750000000001,0.01763855581690533,0.024900174804448557,True
43194,750,0,751,4107.0,41845.0,41452.0,0.00042699999999999997,-0.000244,-0.002013,0.31500000000000006,-1.3825,-3.8500000000000005,0.8716875000000001,-0.039843750000000004,-0.16003125,0.91309375,0.84590625,-0.47696875,-0.78315625,0.8275625,0.01785862475311613,0.025143084832062096,True
43195,751,0,752,4105.0,41847.0,41450.0,-0.0008539999999999999,-0.000122,0.000366,0.42000000000000004,-1.2950000000000002,-3.7625,0.87634375,-0.04234375,-0.15253125,0.91096875,0.83903125,-0.46634375,-0.7765,0.810625,0.017329928996848987,0.025183894012471494,True
43196,752,0,753,4105.0,41847.0,41451.0,-0.000549,-0.000732,0.0023179999999999997,0.43750000000000006,-1.2600000000000002,-3.7450000000000006,0.8718125,-0.04003125,-0.16065625,0.91290625,0.842,-0.47890625000000003,-0.78090625,0.8250937500000001,0.0179287013691635,0.02502935097460368,True
43197,753,0,754,4106.0,41849.0,41452.0,-0.00122,-0.000549,0.00122,0.28,-1.3650000000000002,-3.8325000000000005,0.87303125,-0.0491875,-0.15884375,0.9131875,0.85246875,-0.471375,-0.77525,0.80134375,0.017252299880983396,0.024879920485161605,True
43198,754,0,755,4104.0,41848.0,41450.0,-0.001098,0.000549,-0.000122,0.14,-1.4875,-3.8850000000000002,0.8671562500000001,-0.0391875,-0.16859375000000001,0.921125,0.844,-0.4755625,-0.78140625,0.808125,0.017829008015648264,0.02472872176089684,True
43199,755,0,756,4106.0,41847.0,41449.0,-0.000366,-0.000549,-0.000122,0.15750000000000003,-1.4000000000000001,-3.8850000000000002,0.8637812500000001,-0.03871875,-0.17125,0.9226562500000001,0.8358125000000001,-0.47125,-0.78128125,0.8158125,0.017675077897532816,0.024616614607043372,True
43200,756,0,757,4106.0,41849.0,41448.0,0.00042699999999999997,-0.00042699999999999997,-0.00183,0.17500000000000002,-1.5925000000000002,-3.8850000000000002,0.85846875,-0.03115625,-0.15662500000000001,0.90965625,0.83709375,-0.4699375,-0.77825,0.8223125,0.017931441385986378,0.025087526358802577,True
43201,757,0,758,4105.0,41848.0,41449.0,0.000915,-0.000305,-0.00122,0.24500000000000002,-1.3650000000000002,-3.8675,0.879625,-0.0415625,-0.16628125,0.918375,0.8562500000000001,-0.4769375,-0.77315625,0.805125,0.017787151681046703,0.024497282214493765,True
43202,758,0,759,4107.0,41847.0,41451.0,0.0008539999999999999,-0.000183,-6.1e-05,0.36750000000000005,-1.3825,-3.9025000000000003,0.86321875,-0.03671875,-0.1573125,0.92915625,0.83778125,-0.4644375,-0.78028125,0.8140625,0.017483285687643544,0.02513969650768189,True
43203,759,0,760,4106.0,41850.0,41452.0,-6.1e-05,0.0006709999999999999,0.001769,0.385,-1.3650000000000002,-3.99,0.89315625,-0.04859375,-0.16909375000000001,0.90828125,0.85059375,-0.47146875,-0.7699375,0.80971875,0.017280327728592098,0.024256974810695425,True
43204,760,0,761,4108.0,41851.0,41452.0,-0.000488,0.0006709999999999999,0.0013419999999999999,0.2625,-1.2950000000000002,-3.9375000000000004,0.8583437500000001,-0.0365,-0.1574375,0.910875,0.8369375,-0.46575,-0.777,0.8216875,0.017544935266648274,0.02500554950155386,True
43205,761,0,762,4109.0,41849.0,41453.0,-0.000305,-0.000488,6.1e-05,0.3325,-1.5050000000000001,-4.0075,0.8921875,-0.04978125,-0.1635625,0.900625,0.84896875,-0.47346875,-0.77575,0.81071875,0.01731211477735456,0.024709140994722666,True
43206,762,0,763,4107.0,41850.0,41454.0,0.0015249999999999999,-0.001098,-0.0026839999999999998,0.28,-1.5750000000000002,-4.130000000000001,0.8590625000000001,-0.037375,-0.1605625,0.9303750000000001,0.8394375000000001,-0.47025,-0.78015625,0.818375,0.0176898478765031,0.025003625632909393,True
43207,763,0,764,4108.0,41850.0,41453.0,0.000915,-0.000122,-0.000183,0.24500000000000002,-1.5750000000000002,-4.130000000000001,0.8911875,-0.0478125,-0.16065625,0.9143125,0.85021875,-0.4739375,-0.777375,0.8101875000000001,0.01741137894137386,0.024890399003122808,True
43208,764,0,765,4109.0,41849.0,41456.0,0.000488,-0.000915,-6.1e-05,0.21000000000000002,-1.4175000000000002,-3.9375000000000004,0.85865625,-0.039781250000000004,-0.16053125000000001,0.91790625,0.84128125,-0.4724375,-0.77975,0.8204375,0.01767932801953218,0.024988902228634268,True
43209,765,0,766,4109.0,41852.0,41457.0,0.000976,-6.1e-05,0.000915,0.3325,-1.435,-3.9200000000000004,0.87571875,-0.04371875,-0.1626875,0.9191875,0.84709375,-0.4728125,-0.77965625,0.81778125,0.017533487415882423,0.024898196479218718,True
43210,766,0,767,4109.0,41851.0,41457.0,-0.0015249999999999999,0.001647,-0.000122,0.28,-1.33,-4.025,0.87015625,-0.04321875,-0.1655,0.91890625,0.84415625,-0.46578125000000004,-0.7769375000000001,0.8131875000000001,0.01727157190208263,0.024677686659216866,True
43211,767,0,768,4110.0,41853.0,41458.0,-0.000122,-0.000244,0.0006709999999999999,0.35000000000000003,-1.2950000000000002,-3.9375000000000004,0.8785000000000001,-0.04496875,-0.15840625,0.91840625,0.84165625,-0.47184375,-0.7776875,0.8131875000000001,0.017443516081619308,0.02499350474090853,True
43212,768,0,769,4111.0,41853.0,41460.0,-0.001037,-0.000183,-0.0011589999999999999,0.3325,-1.3825,-3.9375000000000004,0.8778750000000001,-0.0420625,-0.1594375,0.9069375000000001,0.84159375,-0.47146875,-0.775375,0.812,0.017547220168384867,0.02486087496152934,True
43213,769,0,770,4110.0,41854.0,41459.0,0.00042699999999999997,-0.001281,-0.00042699999999999997,0.2625,-1.54,-3.9550000000000005,0.87253125,-0.03546875,-0.15959375,0.91271875,0.83359375,-0.47175,-0.7775625,0.81853125,0.017827954682439955,0.024940659518061962,True
43214,770,0,771,4112.0,41853.0,41461.0,0.0008539999999999999,-0.001281,-0.00122,0.28,-1.5925000000000002,-3.8850000000000002,0.8766875000000001,-0.04396875,-0.16225,0.9149375000000001,0.84603125,-0.46378125000000003,-0.77715625,0.81259375,0.01716057283662966,0.024817466693741335,True
43215,771,0,772,4111.0,41853.0,41460.0,0.0008539999999999999,-0.000305,-0.001769,0.3325,-1.5575,-3.7625,0.87115625,-0.039781250000000004,-0.1580625,0.90628125,0.8385625,-0.472875,-0.7805,0.817625,0.017696888902509412,0.025118036359234073,True
43216,772,0,773,4113.0,41856.0,41462.0,0.000976,0.000549,-0.000549,0.36750000000000005,-1.54,-3.8150000000000004,0.87028125,-0.04053125,-0.15984375,0.91040625,0.8498125,-0.47384375,-0.7773125,0.80896875,0.017705126519000514,0.024920731415079823,True
43217,773,0,774,4115.0,41856.0,41462.0,0.0011589999999999999,0.0011589999999999999,0.00244,0.4025,-1.2950000000000002,-3.8150000000000004,0.86140625,-0.040125,-0.15946875,0.9115625,0.83834375,-0.47265625,-0.77971875,0.8206875,0.017674062250598564,0.025030550437542796,True
