frame_seq,absolute_seq_u64,segment_id,sample_seq,PPG_G,PPG_R,PPG_IR,ACC_X,ACC_Y,ACC_Z,GYRO_X,GYRO_Y,GYRO_Z,Uh1,Uh2,Uh3,Uh4,Uc1,Uc2,Uc3,Uc4,UD1,UD2,parser_valid
50075,68523,0,68524,4317.0,42366.0,41868.0,0.005307,0.00183,0.001281,0.4025,-1.3650000000000002,-3.9025000000000003,0.89378125,0.11884375,-0.08721875,0.97703125,0.8689375,-0.32690625,-0.68778125,0.9423750000000001,0.018323332832344844,0.024326305143359126,True
50076,68524,0,68525,4319.0,42367.0,41872.0,0.0034159999999999998,0.00244,0.0008539999999999999,0.47250000000000003,-1.2425000000000002,-3.9725000000000006,0.92790625,0.10121875,-0.094375,0.9878125,0.8872187500000001,-0.32796875000000003,-0.6823125,0.92796875,0.01764173180303021,0.023820195129609513,True
50077,68525,0,68526,4321.0,42366.0,41872.0,-0.00042699999999999997,0.0015249999999999999,0.000976,0.43750000000000006,-0.8400000000000001,-3.8150000000000004,0.8918125,0.1145,-0.0968125,1.0133125,0.87071875,-0.33187500000000003,-0.68925,0.9422812500000001,0.01834527754231846,0.023995767388640805,True
50078,68526,0,68527,4320.0,42366.0,41872.0,-0.002074,0.000488,0.0006709999999999999,0.4025,-0.77,-3.7275000000000005,0.9171875,0.11753125,-0.08346875000000001,0.9888125,0.87103125,-0.3263125,-0.6829375,0.9275625000000001,0.018245418412675574,0.02428676692148169,True
50079,68527,0,68528,4324.0,42369.0,41874.0,-0.002928,-0.000915,0.0,0.3325,-0.805,-3.7100000000000004,0.8831875,0.11540625,-0.09059375,1.0215,0.8747812500000001,-0.32921875,-0.6924375,0.9365625,0.018275350498050826,0.02437360629139995,True
50080,68528,0,68529,4324.0,42369.0,41877.0,-0.000976,-0.000366,-0.000305,0.28,-1.0325000000000002,-3.7275000000000005,0.91421875,0.11909375,-0.08478125,0.9955,0.8705625,-0.32653125,-0.6845,0.937625,0.018318476868747987,0.02429535741052077,True
50081,68529,0,68530,4327.0,42369.0,41877.0,0.00061,-6.1e-05,-0.001464,0.29750000000000004,-1.2600000000000002,-3.7100000000000004,0.916125,0.1019375,-0.0971875,0.99065625,0.88690625,-0.32903125,-0.6829375,0.92690625,0.017714176350527727,0.023730968001681323,True
50082,68530,0,68531,4327.0,42370.0,41880.0,0.000732,0.0021349999999999997,-0.0023179999999999997,0.2625,-1.3650000000000002,-3.8325000000000005,0.88996875,0.1148125,-0.09403125,1.02465625,0.86740625,-0.3298125,-0.689375,0.93615625,0.018274904502449413,0.024113358479102853,True
50083,68531,0,68532,4328.0,42367.0,41880.0,-0.000976,0.00122,-0.001098,0.4025,-1.225,-3.9200000000000004,0.9256562500000001,0.11146875,-0.080875,0.9905625,0.8648750000000001,-0.325875,-0.68359375,0.93021875,0.017978541367987794,0.024417787624624147,True
50084,68532,0,68533,4331.0,42367.0,41882.0,-0.000183,0.000366,0.001464,0.47250000000000003,-1.2775,-3.9725000000000006,0.9050312500000001,0.10665625000000001,-0.0935625,1.009625,0.87509375,-0.32975,-0.68759375,0.92540625,0.01793714485352295,0.024061933942023005,True
50085,68533,0,68534,4331.0,42369.0,41882.0,0.0030499999999999998,0.000183,0.0048189999999999995,0.45500000000000007,-1.7325000000000002,-3.9550000000000005,0.88125,0.11459375000000001,-0.0955,1.01503125,0.8735,-0.32896875000000003,-0.68834375,0.93459375,0.018231866075293472,0.024013103349632352,True
50086,68534,0,68535,4330.0,42369.0,41882.0,0.0053679999999999995,-0.00244,0.0059169999999999995,0.42000000000000004,-1.7675,-3.9025000000000003,0.9149375000000001,0.1149375,-0.08515625,0.99146875,0.8739375,-0.32790625,-0.68503125,0.930875,0.01820311807556394,0.02430116429364455,True
50087,68535,0,68536,4331.0,42369.0,41883.0,0.00244,-0.007991,-0.000915,0.07,-1.7325000000000002,-3.6750000000000003,0.88990625,0.110875,-0.08921875,1.0010000000000001,0.87984375,-0.3221875,-0.6839375,0.9302812500000001,0.01780524469684316,0.024093350179646176,True
50088,68536,0,68537,4335.0,42370.0,41884.0,-0.003477,-0.006222,-0.008601,0.035,-1.61,-3.4825000000000004,0.9091250000000001,0.11671875,-0.08946875,0.999375,0.87415625,-0.328625,-0.6891875000000001,0.93703125,0.018305339903097687,0.024290744683274818,True
50089,68537,0,68538,4336.0,42371.0,41887.0,-0.0059169999999999995,0.002623,-0.01098,0.14,-1.1725,-3.43,0.90865625,0.11184375,-0.09225,0.99934375,0.87909375,-0.32746875000000003,-0.68584375,0.93115625,0.01805829058972689,0.02404591700455853,True
50090,68538,0,68539,4335.0,42372.0,41887.0,-0.0046359999999999995,0.00671,0.001098,0.56,-1.2425000000000002,-3.6925000000000003,0.90446875,0.1141875,-0.09009375,1.005125,0.8749375,-0.33059375,-0.68775,0.9305625000000001,0.018280739655192346,0.024208615608955857,True
50091,68539,0,68540,4336.0,42371.0,41889.0,-0.000549,0.003477,0.0070149999999999995,0.6475000000000001,-1.61,-3.7450000000000006,0.91134375,0.1145,-0.08946875,0.99634375,0.87403125,-0.32853125,-0.68925,0.9385625,0.01821035743783341,0.024293214658201445,True
50092,68540,0,68541,4338.0,42370.0,41890.0,0.005429,0.002379,0.008967,0.77,-2.2225,-3.8150000000000004,0.910625,0.11178125,-0.08928125,0.99909375,0.8755000000000001,-0.3281875,-0.68596875,0.9395625,0.018084731959583922,0.024171119474499052,True
50093,68541,0,68542,4338.0,42372.0,41889.0,0.011346,-0.000366,0.005795,0.6125,-2.6775,-3.9025000000000003,0.9117500000000001,0.11271875,-0.08915625,1.0003125,0.8806875000000001,-0.32759375,-0.6854375,0.9292812500000001,0.01809930338877021,0.02415518258487418,True
50094,68542,0,68543,4338.0,42372.0,41891.0,0.012261,0.000549,0.0015249999999999999,0.45500000000000007,-2.5725000000000002,-4.0600000000000005,0.90465625,0.11156250000000001,-0.08934375,0.99946875,0.88234375,-0.32734375,-0.68596875,0.9372812500000001,0.01804168406178747,0.02416858767189357,True
50095,68543,0,68544,4342.0,42373.0,41888.0,-0.0018909999999999999,-0.005795,-0.0028669999999999998,0.31500000000000006,-1.5050000000000001,-3.5700000000000003,0.90371875,0.11228125,-0.0891875,1.00046875,0.8806875000000001,-0.32825,-0.6852812500000001,0.935625,0.01810780676785219,0.024147739860164653,True
50096,68544,0,68545,4341.0,42371.0,41891.0,-0.008845,-0.005124,-0.0042699999999999995,0.28,-0.9100000000000001,-3.5000000000000004,0.90440625,0.1120625,-0.092875,0.9998125,0.878,-0.32803125,-0.6850625,0.9302812500000001,0.018089986217031024,0.02398971037646755,True
50097,68545,0,68546,4344.0,42375.0,41892.0,-0.01159,-0.003355,-0.0057339999999999995,0.2625,-0.6300000000000001,-3.5000000000000004,0.90525,0.11221875,-0.08459375,0.9985937500000001,0.8818125,-0.3218125,-0.68525,0.93034375,0.017845349724655592,0.024332597401282144,True
50098,68546,0,68547,4343.0,42375.0,41894.0,-0.010248,0.0,-0.00183,0.2625,-0.45500000000000007,-3.535,0.9105,0.1144375,-0.08971875,1.00390625,0.8815625,-0.32684375,-0.68865625,0.937,0.018139683657071214,0.02425962328346647,True
50099,68547,0,68548,4344.0,42374.0,41897.0,-0.008967,0.0023179999999999997,0.00061,0.4025,-0.6475000000000001,-3.5875000000000004,0.9084375,0.11453125,-0.09303125,0.9995,0.8746875000000001,-0.330125,-0.68815625,0.92459375,0.01827595419259046,0.024105688329803893,True
50100,68548,0,68549,4346.0,42374.0,41896.0,0.002745,0.0032329999999999998,0.0023179999999999997,0.43750000000000006,-1.6800000000000002,-3.9375000000000004,0.90446875,0.11421875000000001,-0.0908125,1.003125,0.867625,-0.33090625,-0.6846875,0.9313750000000001,0.01829463298351248,0.024058437037130814,True
50101,68549,0,68550,4344.0,42372.0,41891.0,0.009637999999999999,0.00122,0.0015249999999999999,0.4025,-2.205,-3.99,0.90378125,0.12209375,-0.09025,0.9980625000000001,0.8689687500000001,-0.33246875,-0.68615625,0.931125,0.018681314447388325,0.024139288594189307,True
50102,68550,0,68551,4342.0,42370.0,41885.0,0.011651,-0.000732,0.000976,0.385,-2.5900000000000003,-4.112500000000001,0.911,0.1145625,-0.08787500000000001,0.9965625,0.8737812500000001,-0.3284375,-0.6870625,0.9299375,0.018209143106703834,0.024271316200540263,True
50103,68551,0,68552,4338.0,42367.0,41881.0,0.012017,-0.0028669999999999998,-0.000915,0.28,-2.45,-4.235,0.91096875,0.11184375,-0.084875,0.999,0.8743125,-0.32771875,-0.68603125,0.9355625000000001,0.01806838136025393,0.024352081706126818,True
50104,68552,0,68553,4334.0,42364.0,41878.0,0.009637999999999999,-0.002257,-0.001952,0.3325,-2.1175,-4.1825,0.90765625,0.11215625,-0.0921875,1.0006875,0.8797812500000001,-0.32803125,-0.68584375,0.930875,0.018093839796428247,0.024048448819984126,True
50105,68553,0,68554,4332.0,42364.0,41875.0,-0.004575,0.001098,-0.0021349999999999997,0.385,-1.0850000000000002,-3.7625,0.90375,0.114625,-0.09003125000000001,1.00115625,0.87434375,-0.33134375,-0.68796875,0.93634375,0.018328981522033695,0.024219793295064018,True
50106,68554,0,68555,4328.0,42365.0,41876.0,-0.009271999999999999,0.001403,0.0015249999999999999,0.42000000000000004,-0.5950000000000001,-3.6575,0.907375,0.11275,-0.09346875,1.00675,0.87753125,-0.32803125,-0.68565625,0.9310625,0.018118245799277326,0.02398913336565642,True
50107,68555,0,68556,4326.0,42364.0,41876.0,-0.009333,0.001037,0.002745,0.5425000000000001,-0.56,-3.6225000000000005,0.8993125000000001,0.11118750000000001,-0.0925,1.005625,0.87353125,-0.3286875,-0.68575,0.9314375,0.01808050680909112,0.02403208328691654,True
50108,68556,0,68557,4321.0,42366.0,41875.0,-0.008357,0.00183,0.0032329999999999998,0.6825000000000001,-0.7000000000000001,-3.6400000000000006,0.8944062500000001,0.1145,-0.08921875,0.9988125,0.8739375,-0.3243125,-0.6860937500000001,0.939625,0.01804007821392691,0.024178592451468753,True
50109,68557,0,68558,4321.0,42362.0,41875.0,-0.003843,0.001769,0.002623,0.5075000000000001,-0.9450000000000001,-3.6925000000000003,0.90465625,0.12096875,-0.08612500000000001,1.0066875,0.8823125,-0.333,-0.6855625,0.9306875,0.018656505568569435,0.024282918406254666,True
50110,68558,0,68559,4317.0,42361.0,41871.0,0.0015249999999999999,0.0008539999999999999,0.0013419999999999999,0.31500000000000006,-1.8200000000000003,-3.7625,0.91271875,0.11446875000000001,-0.0893125,1.00009375,0.87221875,-0.32828125,-0.6835625,0.94696875,0.018198983950006745,0.024074725842349536,True
50111,68559,0,68560,4315.0,42359.0,41871.0,0.003355,0.002074,-0.001647,0.42000000000000004,-1.9075000000000002,-3.8500000000000005,0.90459375,0.1140625,-0.08940625,0.99921875,0.89390625,-0.3355,-0.69175,0.94375,0.018473526329847344,0.02439453461176304,True
50112,68560,0,68561,4313.0,42361.0,41874.0,0.0044529999999999995,-0.00042699999999999997,-0.00061,0.29750000000000004,-2.0650000000000004,-3.99,0.9034375,0.11440625,-0.09090625000000001,1.00546875,0.88415625,-0.32634375,-0.6834687500000001,0.9246875,0.018118218032662635,0.02400645168641462,True
50113,68561,0,68562,4314.0,42360.0,41872.0,0.0060999999999999995,-0.002074,-0.000915,0.15750000000000003,-2.31,-3.9025000000000003,0.909625,0.114875,-0.0894375,0.999,0.867125,-0.3269375,-0.691625,0.9428125,0.018161451682933785,0.024388330051181326,True
50114,68562,0,68563,4313.0,42357.0,41870.0,0.005246,-0.0034159999999999998,-0.003477,0.10500000000000001,-2.1875,-3.8850000000000002,0.8983125000000001,0.11196875,-0.09228125,1.00465625,0.8731875,-0.3238125,-0.679625,0.9263125,0.017915828367777463,0.023798730734360833,True
50115,68563,0,68564,4311.0,42358.0,41870.0,-0.00042699999999999997,-0.000915,-0.0044529999999999995,0.15750000000000003,-1.435,-3.7800000000000002,0.9081875,0.11515625,-0.089625,0.99953125,0.87028125,-0.315875,-0.6909375,0.94659375,0.017726331049160274,0.024353571021756466,True
50116,68564,0,68565,4313.0,42357.0,41872.0,-0.002562,6.1e-05,-0.001403,0.28,-1.12,-3.6575,0.90446875,0.1148125,-0.0838125,0.9988750000000001,0.8935625,-0.33115625,-0.69103125,0.9366875,0.01832912276826137,0.02459268484381348,True
50117,68565,0,68566,4312.0,42355.0,41871.0,-0.003965,-0.000366,0.0017079999999999999,0.385,-0.9100000000000001,-3.5875000000000004,0.90396875,0.110375,-0.09346875,1.0025625,0.88575,-0.324375,-0.68171875,0.9254687500000001,0.017873018320100725,0.023833429347378816,True
50118,68566,0,68567,4313.0,42356.0,41871.0,-0.003172,0.00042699999999999997,0.001464,0.47250000000000003,-0.7525000000000001,-3.6225000000000005,0.90378125,0.11912500000000001,-0.09003125000000001,1.00178125,0.88253125,-0.3358125,-0.68625,0.932,0.018694157016536844,0.02415185579016659,True
50119,68567,0,68568,4312.0,42355.0,41871.0,-0.002928,-0.0006709999999999999,0.003538,0.5950000000000001,-0.77,-3.6925000000000003,0.90921875,0.11440625,-0.08940625,1.00025,0.8674375,-0.3306875,-0.68965625,0.94146875,0.018293513078904984,0.024311800614883004,True
50120,68568,0,68569,4313.0,42355.0,41871.0,-0.000122,0.0008539999999999999,0.0008539999999999999,0.49000000000000005,-1.1375000000000002,-3.7100000000000004,0.9111250000000001,0.11684375,-0.08246875000000001,0.999,0.8745,-0.3258125,-0.6842812500000001,0.937875,0.018196976976616916,0.02438039389945778,True
50121,68569,0,68570,4312.0,42355.0,41871.0,0.000488,0.001098,6.1e-05,0.5425000000000001,-1.0325000000000002,-3.8850000000000002,0.910375,0.11128125,-0.08875,0.998375,0.87746875,-0.32628125,-0.684125,0.9345,0.01798723345764162,0.024119753080167918,True
50122,68570,0,68571,4313.0,42354.0,41871.0,0.000488,0.000915,-0.001098,0.5425000000000001,-1.2425000000000002,-3.7625,0.90846875,0.111625,-0.088625,0.99990625,0.8795000000000001,-0.3279375,-0.6854375,0.9306562500000001,0.0180682188944295,0.02417670337015498,True
50123,68571,0,68572,4312.0,42355.0,41870.0,0.001586,0.000183,0.000488,0.36750000000000005,-1.155,-3.6575,0.904,0.11056250000000001,-0.09021875,0.999375,0.87865625,-0.3273125,-0.685875,0.93125,0.01799931661173013,0.024129436367963462,True
50124,68572,0,68573,4315.0,42355.0,41872.0,0.00244,0.001281,0.00042699999999999997,0.3325,-1.0850000000000002,-3.7450000000000006,0.90546875,0.11181250000000001,-0.088875,0.9988125,0.881625,-0.3276875,-0.685,0.93665625,0.01806583548066375,0.024149280939842012,True
50125,68573,0,68574,4314.0,42355.0,41870.0,0.005063,-0.001098,0.000183,0.42000000000000004,-0.9975,-3.7100000000000004,0.9060625,0.11240625,-0.08940625,0.9985937500000001,0.8775000000000001,-0.32246875,-0.68159375,0.9312812500000001,0.017879558381589042,0.023993081889211468,True
50126,68574,0,68575,4315.0,42352.0,41869.0,0.000793,0.0037819999999999998,0.000305,0.35000000000000003,-0.525,-3.7100000000000004,0.9038437500000001,0.11193750000000001,-0.08878125,0.999375,0.88246875,-0.3278125,-0.6850625,0.9351875000000001,0.018076018959781115,0.02415554953527057,True
50127,68575,0,68576,4314.0,42351.0,41870.0,-0.008784,-0.002257,-0.004514,0.3325,-0.49000000000000005,-3.2375000000000003,0.903625,0.11153125,-0.090125,1.00471875,0.88184375,-0.3308125,-0.68503125,0.93103125,0.01818039368804474,0.024099878342264604,True
50128,68576,0,68577,4315.0,42353.0,41871.0,-0.007869,-0.0030499999999999998,0.001037,0.4025,-0.42000000000000004,-3.2900000000000005,0.904375,0.11425,-0.08978125,1.0011875000000001,0.87434375,-0.33087500000000003,-0.68440625,0.9321875000000001,0.018294656480706103,0.024089094709336994,True
50129,68577,0,68578,4312.0,42353.0,41867.0,-0.0006709999999999999,-0.0037819999999999998,-0.0015249999999999999,0.36750000000000005,-1.225,-3.6400000000000006,0.9105,0.11584375000000001,-0.0904375,1.006,0.8671562500000001,-0.32815625,-0.6863750000000001,0.93640625,0.018250458252462104,0.024140340572481784,True
50130,68578,0,68579,4315.0,42351.0,41869.0,0.002196,-0.001586,-0.001952,0.43750000000000006,-1.2600000000000002,-3.5875000000000004,0.901625,0.114875,-0.090125,1.00221875,0.87365625,-0.32384375,-0.68896875,0.9354687500000001,0.018036571625321345,0.024255518975453357,True
50131,68579,0,68580,4313.0,42351.0,41869.0,0.0030499999999999998,0.002013,-0.00042699999999999997,0.56,-1.1025,-3.7800000000000002,0.9158437500000001,0.116375,-0.08925,0.998375,0.8739375,-0.32828125,-0.6854375,0.9309375,0.0182773392592212,0.024151384799236397,True
50132,68580,0,68581,4312.0,42350.0,41865.0,0.002013,0.00122,0.002196,0.525,-1.05,-3.6925000000000003,0.89546875,0.1158125,-0.08946875,0.99853125,0.88121875,-0.32675,-0.688125,0.9373750000000001,0.018192421922369407,0.024248753196121617,True
50133,68581,0,68582,4312.0,42349.0,41865.0,0.000976,0.00244,0.0017079999999999999,0.5425000000000001,-1.155,-3.7275000000000005,0.9058125,0.1093125,-0.09240625,0.99609375,0.88209375,-0.32846875000000003,-0.6853750000000001,0.9302812500000001,0.01799460765486936,0.024021054976884088,True
50134,68582,0,68583,4313.0,42348.0,41867.0,0.000244,0.0015249999999999999,0.0011589999999999999,0.5425000000000001,-0.9975,-3.7800000000000002,0.9,0.1155,-0.089875,1.0046875,0.86728125,-0.32940625,-0.6880625,0.9374687500000001,0.018286769739808178,0.024229827674812472,True
50135,68583,0,68584,4312.0,42350.0,41865.0,-0.000305,0.000732,0.001464,0.5075000000000001,-0.7350000000000001,-3.7975000000000003,0.9190625,0.10840625,-0.08796875,0.995,0.8768125,-0.327125,-0.68590625,0.9223125,0.017903112266657074,0.02422181685146763,True
50136,68584,0,68585,4311.0,42349.0,41868.0,-0.000305,-0.000488,0.001037,0.385,-0.56,-3.8150000000000004,0.90009375,0.11475,-0.09303125,1.01096875,0.8749687500000001,-0.33137500000000003,-0.6882812500000001,0.9349375,0.018335379730903,0.024110629410461697,True
50137,68585,0,68586,4312.0,42351.0,41867.0,-0.001098,0.000305,0.0011589999999999999,0.2625,-0.525,-3.8500000000000005,0.90634375,0.1156875,-0.0891875,1.00190625,0.865625,-0.32840625,-0.68678125,0.937,0.01825412422977769,0.0242070338756698,True
50138,68586,0,68587,4312.0,42349.0,41869.0,-0.0032329999999999998,-0.001098,6.1e-05,0.29750000000000004,-0.6300000000000001,-3.8850000000000002,0.914,0.11143750000000001,-0.096125,1.0070625,0.87815625,-0.32790625,-0.68503125,0.93053125,0.018059250372193456,0.023856816061352967,True
50139,68587,0,68588,4312.0,42350.0,41869.0,-0.0006709999999999999,-0.001464,-0.0026839999999999998,0.24500000000000002,-0.8750000000000001,-3.9550000000000005,0.9003125000000001,0.1158125,-0.08509375,1.0050625,0.8743125,-0.327875,-0.68925,0.9358125,0.0182378238954286,0.024470417286875868,True
50140,68588,0,68589,4312.0,42350.0,41869.0,-0.000244,-0.000366,-0.0025009999999999998,0.17500000000000002,-0.805,-3.9725000000000006,0.9128437500000001,0.11584375000000001,-0.0884375,0.9956875000000001,0.87425,-0.32728125,-0.6858125,0.93265625,0.018215146832324308,0.02419912247166262,True
50141,68589,0,68590,4311.0,42348.0,41870.0,0.0008539999999999999,-0.00061,-0.000183,0.17500000000000002,-0.8400000000000001,-4.2175,0.90115625,0.11234375,-0.0973125,1.0089375,0.87815625,-0.323125,-0.6855625,0.931625,0.01790348690803505,0.023829718281687926,True
50142,68590,0,68591,4312.0,42349.0,41868.0,0.000488,-0.00061,-0.000183,0.1925,-0.9100000000000001,-4.112500000000001,0.91446875,0.10981250000000001,-0.09128125000000001,0.999125,0.8741875,-0.32778125,-0.68521875,0.9301875000000001,0.01798740894219443,0.024060451155613113,True
50143,68591,0,68592,4314.0,42349.0,41869.0,0.001464,-0.0013419999999999999,-0.000549,0.29750000000000004,-0.9450000000000001,-4.112500000000001,0.89909375,0.114875,-0.08884375,0.99884375,0.874,-0.328125,-0.686875,0.933125,0.01820937700706487,0.024224663915542167,True
50144,68592,0,68593,4316.0,42350.0,41871.0,0.001769,0.001464,0.001403,0.24500000000000002,-0.8575,-4.0425,0.911,0.111625,-0.0925,0.99565625,0.877125,-0.327875,-0.68546875,0.9306562500000001,0.01806569624350668,0.024020963750181975,True
50145,68593,0,68594,4313.0,42346.0,41872.0,0.000549,0.001037,-6.1e-05,0.10500000000000001,-0.8750000000000001,-4.0075,0.9039375000000001,0.11421875000000001,-0.08971875,0.99840625,0.8745937500000001,-0.3285625,-0.68584375,0.9374375,0.018200058059328412,0.024148455529295003,True
50146,68594,0,68595,4317.0,42348.0,41872.0,-0.00061,0.000366,0.001281,0.10500000000000001,-0.7000000000000001,-4.025,0.9131875,0.11106250000000001,-0.089625,0.9990625000000001,0.87128125,-0.328125,-0.6859375,0.93,0.01805266538214515,0.02415595923792645,True
50147,68595,0,68596,4317.0,42348.0,41872.0,-0.00042699999999999997,0.00042699999999999997,0.000915,0.28,-0.7175,-3.8675,0.90353125,0.11184375,-0.093,1.000125,0.8931250000000001,-0.32703125,-0.68559375,0.91959375,0.018040631242252383,0.02400565106925978,True
50148,68596,0,68597,4315.0,42349.0,41873.0,-0.0011589999999999999,-0.000488,0.00042699999999999997,0.3325,-0.6300000000000001,-3.99,0.904625,0.1141875,-0.09381250000000001,1.00621875,0.9041250000000001,-0.3231875,-0.68171875,0.924125,0.017981812622214915,0.023819502035286745,True
50149,68597,0,68598,4318.0,42347.0,41874.0,-0.002013,0.0013419999999999999,-0.0011589999999999999,0.3325,-0.7175,-3.9025000000000003,0.9048125,0.1144375,-0.089875,0.999125,0.8899375,-0.33646875,-0.6913125,0.94940625,0.018528006451223534,0.024358263660548624,True
50150,68598,0,68599,4320.0,42351.0,41874.0,-0.001403,0.00061,0.000366,0.43750000000000006,-0.6475000000000001,-3.9725000000000006,0.90425,0.11984375,-0.0906875,0.99871875,0.89671875,-0.33087500000000003,-0.6833125,0.92009375,0.01852455984423084,0.024009135726819484,True
50151,68599,0,68600,4321.0,42350.0,41877.0,-0.002257,-0.000244,0.0013419999999999999,0.385,-0.7350000000000001,-4.0075,0.908875,0.11128125,-0.09296875,1.00525,0.8618750000000001,-0.32309375,-0.67996875,0.919875,0.01785854235750746,0.02378447095886213,True
50152,68600,0,68601,4323.0,42350.0,41877.0,-0.00122,-0.0006709999999999999,0.000915,0.36750000000000005,-1.0850000000000002,-3.9375000000000004,0.9110625,0.111625,-0.092875,1.0054375,0.8619687500000001,-0.325125,-0.683875,0.9206875,0.017954686769338285,0.02394275615153617,True
50153,68601,0,68602,4324.0,42350.0,41880.0,0.0006709999999999999,6.1e-05,0.001098,0.3325,-1.2775,-3.99,0.90928125,0.112875,-0.08946875,0.99871875,0.8655625,-0.32690625,-0.6886875,0.95525,0.018077976931406968,0.024270984433660155,True
50154,68602,0,68603,4323.0,42350.0,41879.0,0.003355,-0.000305,-0.0008539999999999999,0.2625,-1.5050000000000001,-3.8500000000000005,0.90465625,0.11046875,-0.0914375,1.00271875,0.88396875,-0.322625,-0.68065625,0.92003125,0.017806209239339916,0.023873706761747875,True
50155,68603,0,68604,4325.0,42351.0,41880.0,0.001586,-0.0008539999999999999,-0.0008539999999999999,0.28,-1.2950000000000002,-3.8500000000000005,0.9045625,0.1198125,-0.08921875,1.0059375,0.88365625,-0.34103125,-0.69225,0.92725,0.018932794805068088,0.024421883384462734,True
50156,68604,0,68605,4326.0,42350.0,41881.0,-0.001037,6.1e-05,-0.00183,0.2625,-1.2425000000000002,-3.7800000000000002,0.90534375,0.11421875000000001,-0.09046875,0.99875,0.861375,-0.3331875,-0.690125,0.95421875,0.018386668413252476,0.024287290971592896,True
50157,68605,0,68606,4326.0,42352.0,41880.0,-0.001586,-0.000549,-0.000976,0.3325,-1.4175000000000002,-3.8150000000000004,0.9038125,0.1133125,-0.09428125,1.0061875,0.891,-0.3328125,-0.67865625,0.91934375,0.018334296538881398,0.023679368685237876,True
50158,68606,0,68607,4330.0,42353.0,41887.0,0.0006709999999999999,-0.000244,0.0006709999999999999,0.29750000000000004,-1.33,-3.8500000000000005,0.90578125,0.11834375,-0.08978125,0.99940625,0.8688750000000001,-0.32887500000000003,-0.693375,0.944375,0.01838222071509677,0.024443550142497734,True
50159,68607,0,68608,4329.0,42354.0,41886.0,-0.002257,-0.000732,-0.0028669999999999998,0.35000000000000003,-1.33,-3.9025000000000003,0.90546875,0.1131875,-0.0925,1.00221875,0.87790625,-0.3290625,-0.681625,0.9213125,0.018177847995581416,0.023868971350144087,True
50160,68608,0,68609,4332.0,42353.0,41888.0,-0.004148,-0.0008539999999999999,0.00183,0.45500000000000007,-1.1725,-3.8675,0.9041250000000001,0.114,-0.084375,0.99871875,0.86946875,-0.3281875,-0.6850625,0.931625,0.01817593275290237,0.024334048171844817,True
50161,68609,0,68610,4332.0,42354.0,41889.0,-0.0051849999999999995,-0.000488,0.0011589999999999999,0.42000000000000004,-1.3125000000000002,-3.8150000000000004,0.9042187500000001,0.11784375,-0.08625000000000001,0.99915625,0.8738750000000001,-0.33075,-0.68571875,0.933,0.018437316975432324,0.024284030619930806,True
50162,68610,0,68611,4333.0,42355.0,41890.0,-0.000793,-0.001647,0.000976,0.43750000000000006,-1.6275000000000002,-3.6750000000000003,0.9084375,0.11134375,-0.09334375,1.003625,0.8724375,-0.3288125,-0.6860937500000001,0.9354687500000001,0.01809197427946802,0.024011494325626145,True
50163,68611,0,68612,4334.0,42353.0,41887.0,0.0048189999999999995,0.000122,0.000366,0.36750000000000005,-2.1525000000000003,-3.8325000000000005,0.9097500000000001,0.11103125,-0.09184375,1.00446875,0.879625,-0.33090625,-0.6828125,0.93,0.01816362676585464,0.023942520731784517,True
50164,68612,0,68613,4335.0,42352.0,41888.0,0.007259,0.0028669999999999998,-0.0011589999999999999,0.45500000000000007,-2.1,-3.7100000000000004,0.90340625,0.11434375000000001,-0.09025,0.99840625,0.87059375,-0.32837500000000003,-0.68553125,0.93625,0.018197629311452163,0.024114581289393963,True
50165,68613,0,68614,4337.0,42351.0,41888.0,0.002745,0.0023179999999999997,0.0011589999999999999,0.45500000000000007,-1.5750000000000002,-3.6925000000000003,0.8988125,0.11181250000000001,-0.09021875,0.9993125,0.88015625,-0.32740625,-0.6849375,0.93009375,0.018054483305222892,0.024092374145164432,True
50166,68614,0,68615,4339.0,42355.0,41891.0,-0.0042699999999999995,0.0018909999999999999,0.000976,0.56,-0.8925000000000001,-3.6750000000000003,0.90296875,0.1141875,-0.0923125,1.0010937500000001,0.8777812500000001,-0.32584375,-0.68775,0.9271875,0.018089043673973283,0.02411874310133568,True
50167,68615,0,68616,4340.0,42354.0,41893.0,-0.009516,-0.000305,0.002379,0.5075000000000001,-0.525,-3.6400000000000006,0.90396875,0.1145,-0.09393750000000001,1.00325,0.8735937500000001,-0.33015625,-0.6866875,0.9301875000000001,0.018275930718694006,0.024010916814983782,True
50168,68616,0,68617,4340.0,42356.0,41896.0,-0.012017,-0.001586,0.002196,0.4025,-0.7000000000000001,-3.7800000000000002,0.90440625,0.114,-0.09393750000000001,0.9987812500000001,0.874125,-0.3319375,-0.68878125,0.9300625,0.01832724993642615,0.024093686277041317,True
50169,68617,0,68618,4341.0,42356.0,41896.0,-0.001952,-0.00183,-0.002379,0.3325,-1.6800000000000002,-3.9725000000000006,0.90396875,0.108,-0.09434375,0.9989375,0.8740625,-0.32865625,-0.6850937500000001,0.93034375,0.017948227206342312,0.02393144648275845,True
50170,68618,0,68619,4340.0,42355.0,41892.0,0.002806,-0.002806,-0.004209,0.29750000000000004,-2.2225,-4.0425,0.90453125,0.10765625000000001,-0.08828125,0.99525,0.8814062500000001,-0.33153125,-0.684,0.93078125,0.018050138130948908,0.024133801247771838,True
50171,68619,0,68620,4339.0,42353.0,41889.0,0.008173999999999999,-0.0028669999999999998,-0.0028669999999999998,0.24500000000000002,-2.6425,-4.130000000000001,0.9176875,0.11753125,-0.08803125,1.01065625,0.88184375,-0.32803125,-0.68671875,0.93040625,0.018314778348535704,0.024251400360770912,True
50172,68620,0,68621,4336.0,42353.0,41886.0,0.009394,-0.002562,-0.0026839999999999998,0.31500000000000006,-2.6250000000000004,-4.2,0.91903125,0.11246875,-0.08809375,0.99225,0.88296875,-0.3278125,-0.6849375,0.93015625,0.018097856106051458,0.024178459029924625,True
50173,68621,0,68622,4333.0,42350.0,41880.0,0.008723,-0.00042699999999999997,-0.000549,0.35000000000000003,-2.6425,-4.1475,0.91140625,0.108625,-0.09040625000000001,0.99403125,0.88103125,-0.3308125,-0.6866875,0.93015625,0.018060946382287894,0.02415395949740118,True
50174,68622,0,68623,4328.0,42350.0,41875.0,0.002257,0.003111,0.000183,0.5775,-2.1525000000000003,-4.025,0.8985,0.11181250000000001,-0.0974375,1.0158125,0.87471875,-0.3286875,-0.6890000000000001,0.92825,0.018106196645421173,0.02396056948438576,True
50175,68623,0,68624,4324.0,42347.0,41871.0,-0.000244,0.003111,0.0026839999999999998,0.56,-1.8375000000000001,-3.9550000000000005,0.9150625,0.116375,-0.08740625,0.994,0.87821875,-0.32796875000000003,-0.6851875000000001,0.93075,0.018264728739426715,0.02421619240283267,True
50176,68624,0,68625,4322.0,42344.0,41871.0,-0.004514,0.002196,0.00244,0.5950000000000001,-1.5575,-3.8675,0.90696875,0.1055625,-0.0863125,0.99353125,0.8828125,-0.33025,-0.68134375,0.92953125,0.017912372458153945,0.02410854352287849,True
50177,68625,0,68626,4318.0,42344.0,41870.0,-0.0059169999999999995,0.001403,0.002745,0.5075000000000001,-1.4175000000000002,-3.7800000000000002,0.90340625,0.1060625,-0.08659375,0.99321875,0.87528125,-0.33090625,-0.68496875,0.93034375,0.017959411191270362,0.024240460097807497,True
50178,68626,0,68627,4315.0,42343.0,41869.0,-0.0064659999999999995,0.000366,0.0034159999999999998,0.45500000000000007,-1.435,-3.6225000000000005,0.9104375,0.10709375,-0.0871875,0.9955,0.87615625,-0.33065625,-0.6840625,0.930125,0.017991705423070943,0.024180582106369242,True
50179,68627,0,68628,4311.0,42343.0,41867.0,-0.00366,0.0008539999999999999,-0.0008539999999999999,0.45500000000000007,-2.0125,-3.7975000000000003,0.919875,0.110625,-0.088125,0.9935625,0.8810625,-0.32859375,-0.68471875,0.93078125,0.01805360205005684,0.024168545570323746,True
50180,68628,0,68629,4311.0,42342.0,41867.0,-0.00061,0.000183,-0.001098,0.47250000000000003,-2.3975000000000004,-3.7800000000000002,0.91734375,0.113375,-0.08662500000000001,0.9925,0.8816875000000001,-0.3299375,-0.68521875,0.92890625,0.01822086472684116,0.024249076180457182,True
50181,68629,0,68630,4307.0,42342.0,41869.0,0.0021349999999999997,-0.001952,-0.00061,0.29750000000000004,-2.7825,-3.7450000000000006,0.9011250000000001,0.11071875,-0.085625,0.99715625,0.87915625,-0.33090625,-0.6861875000000001,0.9305625000000001,0.01815078301902544,0.024327875659212267,True
50182,68630,0,68631,4307.0,42340.0,41865.0,0.00549,-0.002074,-0.000793,0.29750000000000004,-2.9925,-3.7975000000000003,0.90553125,0.11134375,-0.08971875,0.9987812500000001,0.88065625,-0.32746875000000003,-0.6843750000000001,0.93565625,0.018037737691061675,0.024090391188758074,True
50183,68631,0,68632,4307.0,42337.0,41863.0,0.006344,-0.0011589999999999999,-0.002257,0.21000000000000002,-3.0275000000000003,-3.8500000000000005,0.9103125,0.11409375000000001,-0.08584375,1.0045625,0.88034375,-0.3280625,-0.68559375,0.93834375,0.018174741617833313,0.0242955468713407,True
50184,68632,0,68633,4307.0,42336.0,41863.0,0.003294,-6.1e-05,-0.003477,0.3325,-2.5200000000000005,-3.8675,0.90640625,0.11878125,-0.09103125000000001,1.00759375,0.87375,-0.32865625,-0.687875,0.93734375,0.01839137745225859,0.024175582143056058,True
50185,68633,0,68634,4305.0,42338.0,41862.0,0.000915,-0.0015249999999999999,-0.0030499999999999998,0.3325,-2.3275,-3.7100000000000004,0.90446875,0.1139375,-0.09240625,1.0055,0.8746875000000001,-0.32834375,-0.68684375,0.9305,0.01817966954696618,0.02407912109056063,True
50186,68634,0,68635,4304.0,42337.0,41865.0,-0.000915,-0.002379,-0.0013419999999999999,0.36750000000000005,-2.0825,-3.7450000000000006,0.90440625,0.11990625,-0.09475,1.0045625,0.8675625,-0.329,-0.68784375,0.92909375,0.01845148793620782,0.024023716125471672,True
50187,68635,0,68636,4304.0,42335.0,41862.0,-0.0008539999999999999,-0.000488,0.001098,0.5075000000000001,-1.9075000000000002,-3.7625,0.9045625,0.1141875,-0.09440625,1.00034375,0.87428125,-0.33115625,-0.68790625,0.93,0.018303435538539192,0.024040110732355038,True
50188,68636,0,68637,4305.0,42334.0,41864.0,-0.001464,0.001281,0.0034159999999999998,0.7000000000000001,-1.6975000000000002,-3.6925000000000003,0.90425,0.11178125,-0.0905,0.99890625,0.87403125,-0.33075,-0.68553125,0.92940625,0.01818814668680579,0.024104453899488187,True
50189,68637,0,68638,4305.0,42333.0,41864.0,-0.001098,0.0015249999999999999,0.004148,0.7000000000000001,-1.61,-3.7975000000000003,0.90453125,0.11053125,-0.09325,0.9985625,0.8785625,-0.33003125,-0.68478125,0.9304375,0.018107765480161474,0.023963398500847565,True
50190,68638,0,68639,4304.0,42334.0,41867.0,-0.000305,0.0030499999999999998,0.002257,0.6300000000000001,-1.7850000000000001,-3.6575,0.90478125,0.11384375000000001,-0.09171875,1.0030937500000001,0.87503125,-0.33240625,-0.68784375,0.93334375,0.018339739827416372,0.024146499225960145,True
50191,68639,0,68640,4304.0,42335.0,41866.0,-0.000366,0.00183,0.001464,0.5950000000000001,-1.7325000000000002,-3.7275000000000005,0.910625,0.11371875000000001,-0.09025,0.9991875,0.8739375,-0.32356250000000003,-0.68578125,0.9324687500000001,0.017977681106540213,0.024124464361442888,True
50192,68640,0,68641,4306.0,42336.0,41869.0,0.000183,0.0013419999999999999,0.0008539999999999999,0.42000000000000004,-1.6975000000000002,-3.7275000000000005,0.9040625,0.11059375,-0.09328125,0.998,0.88,-0.330625,-0.68471875,0.9303125,0.018134295769220887,0.02395966127829591,True
50193,68641,0,68642,4306.0,42336.0,41868.0,-0.002196,0.000122,-0.001281,0.43750000000000006,-1.5575,-3.5875000000000004,0.90753125,0.11193750000000001,-0.0898125,0.99803125,0.88021875,-0.32740625,-0.68490625,0.92940625,0.018059621543089908,0.02410759611452849,True
50194,68642,0,68643,4305.0,42336.0,41866.0,-0.002989,-0.00042699999999999997,-0.002928,0.5075000000000001,-1.5750000000000002,-3.5875000000000004,0.9098125,0.11115625,-0.084125,0.99903125,0.88215625,-0.327625,-0.68521875,0.92975,0.018036337291453645,0.02435035136158151,True
50195,68643,0,68644,4306.0,42335.0,41865.0,-0.0017079999999999999,-0.00122,0.0,0.665,-1.5925000000000002,-3.5700000000000003,0.906875,0.11096875,-0.08975,0.999,0.8795625,-0.32746875000000003,-0.68584375,0.9300625,0.01802232301706276,0.024147189621582205,True
50196,68644,0,68645,4307.0,42336.0,41865.0,0.000366,-0.00244,0.00183,0.6300000000000001,-1.6450000000000002,-3.6750000000000003,0.9015,0.11275,-0.0914375,0.9986875000000001,0.882,-0.3316875,-0.68559375,0.92940625,0.01826579023752463,0.024068947095915,True
50197,68645,0,68646,4308.0,42333.0,41866.0,0.001464,-0.0025009999999999998,0.002562,0.5075000000000001,-1.8550000000000002,-3.6400000000000006,0.90409375,0.1125625,-0.09309375,1.00340625,0.87925,-0.3305625,-0.6864375,0.93025,0.018212690314907434,0.02403521164202004,True
50198,68646,0,68647,4306.0,42335.0,41864.0,0.002074,0.0021349999999999997,-0.003355,0.36750000000000005,-1.9775000000000003,-3.7275000000000005,0.90471875,0.11371875000000001,-0.0916875,0.999125,0.87303125,-0.32765625,-0.684875,0.9291875,0.018142931463033966,0.024030403232748795,True
50199,68647,0,68648,4306.0,42333.0,41864.0,0.002074,0.001281,-0.00183,0.42000000000000004,-1.8200000000000003,-3.7625,0.891625,0.11165625,-0.0904375,0.998625,0.87846875,-0.32925,-0.684875,0.9355625000000001,0.01812247603193687,0.024081041528466313,True
50200,68648,0,68649,4306.0,42334.0,41862.0,0.00183,-6.1e-05,0.000183,0.35000000000000003,-1.8550000000000002,-3.6750000000000003,0.9080312500000001,0.1144375,-0.08975,1.00003125,0.87653125,-0.32740625,-0.68721875,0.93571875,0.018162386300430197,0.024201541536549152,True
50201,68649,0,68650,4305.0,42331.0,41861.0,0.000305,-0.000183,0.000244,0.36750000000000005,-1.8550000000000002,-3.5700000000000003,0.90753125,0.11403125,-0.09125,1.00234375,0.8715937500000001,-0.32640625,-0.68740625,0.93296875,0.018105325360173168,0.024148192967821395,True
50202,68650,0,68651,4305.0,42331.0,41861.0,-0.000976,0.000793,0.0006709999999999999,0.47250000000000003,-1.5925000000000002,-3.7800000000000002,0.90615625,0.11396875000000001,-0.09028125000000001,1.00234375,0.87340625,-0.328625,-0.6892812500000001,0.93525,0.018192304332858927,0.024261540623018343,True
50203,68651,0,68652,4304.0,42331.0,41860.0,-0.005612,-0.000122,0.000488,0.665,-1.4700000000000002,-3.6225000000000005,0.8953125000000001,0.11428125,-0.0905,0.99953125,0.87425,-0.32796875000000003,-0.6876875,0.9439375,0.018178665245120393,0.024189689698559252,True
50204,68652,0,68653,4305.0,42334.0,41862.0,-0.0026839999999999998,-0.000488,0.003965,0.665,-1.61,-3.6575,0.90959375,0.11546875000000001,-0.0900625,0.998125,0.8728125,-0.3263125,-0.69121875,0.9433125,0.018160633675983567,0.024346965457102028,True
50205,68653,0,68654,4304.0,42334.0,41863.0,0.000183,-0.002562,0.003843,0.5425000000000001,-1.9075000000000002,-3.7100000000000004,0.9080312500000001,0.11471875000000001,-0.09059375,1.0015,0.86803125,-0.32625,-0.690125,0.9420000000000001,0.018127280201428498,0.024282228218771674,True
50206,68654,0,68655,4303.0,42332.0,41861.0,0.000976,-0.000732,0.00042699999999999997,0.49000000000000005,-2.1175,-3.6925000000000003,0.91696875,0.11515625,-0.08703125,0.998375,0.8698750000000001,-0.3213125,-0.6835625,0.924625,0.01794593733376848,0.024167145646014423,True
50207,68655,0,68656,4303.0,42332.0,41864.0,0.002379,0.0013419999999999999,-0.0018909999999999999,0.3325,-2.1875,-3.8150000000000004,0.9060625,0.10959375,-0.10196875,0.99953125,0.88625,-0.3333125,-0.68859375,0.926,0.01820164229592662,0.023760972615137304,True
50208,68656,0,68657,4304.0,42333.0,41863.0,0.000366,-0.000244,0.00042699999999999997,0.31500000000000006,-2.205,-3.7975000000000003,0.8969375,0.11590625,-0.08709375,0.9935,0.8705625,-0.32665625,-0.68471875,0.93915625,0.018192492032274268,0.024210322428729315,True
50209,68657,0,68658,4304.0,42332.0,41862.0,0.002745,-0.001769,-0.000122,0.3325,-2.3275,-3.8675,0.9138437500000001,0.10240625,-0.096875,1.00546875,0.88878125,-0.33221875,-0.684125,0.926,0.017862119540578272,0.023790594157175913,True
50210,68658,0,68659,4306.0,42332.0,41864.0,0.003172,0.000915,-0.0013419999999999999,0.28,-2.415,-3.9025000000000003,0.891,0.11753125,-0.0873125,0.99259375,0.87015625,-0.3271875,-0.68475,0.93015625,0.018280730150166354,0.024202695996516064,True
50211,68659,0,68660,4304.0,42330.0,41863.0,0.00366,0.001281,-0.0025009999999999998,0.2625,-2.3625000000000003,-3.8500000000000005,0.90728125,0.1050625,-0.099625,1.0019375,0.88425,-0.3341875,-0.6889375,0.92625,0.01805073623271786,0.023869496206549996,True
50212,68660,0,68661,4307.0,42333.0,41864.0,0.0015249999999999999,-0.000366,0.0,0.35000000000000003,-2.2750000000000004,-3.7800000000000002,0.89190625,0.11746875,-0.0919375,1.022375,0.8695625,-0.32628125,-0.688375,0.9433125,0.018241587994465864,0.024158637415382742,True
50213,68661,0,68662,4306.0,42332.0,41864.0,-0.001952,-0.00244,-0.001403,0.4025,-1.9775000000000003,-3.6925000000000003,0.9215,0.10809375,-0.084625,0.98765625,0.875,-0.32653125,-0.67865625,0.92596875,0.017866295672548875,0.02407064809292443,True
50214,68662,0,68663,4307.0,42331.0,41867.0,-0.001037,-0.001464,0.000183,0.385,-1.9425000000000001,-3.7450000000000006,0.8827812500000001,0.11975000000000001,-0.0885625,1.02028125,0.8705625,-0.3303125,-0.68921875,0.93475,0.01849801559268916,0.024328685977558526,True
50215,68663,0,68664,4307.0,42333.0,41864.0,-0.000915,-0.000549,-0.001586,0.4025,-1.9075000000000002,-3.6750000000000003,0.92678125,0.10678125000000001,-0.0880625,0.9871562500000001,0.8747812500000001,-0.32671875,-0.6843125,0.92834375,0.017819912519028074,0.024155017483269987,True
50216,68664,0,68665,4307.0,42331.0,41868.0,-0.00042699999999999997,-0.000366,-0.0011589999999999999,0.5075000000000001,-1.8375000000000001,-3.7975000000000003,0.8905937500000001,0.11390625,-0.09234375,1.0004375,0.86684375,-0.32878125,-0.6886875,0.9369375,0.018196040954579263,0.024154534338854585,True
50217,68665,0,68666,4308.0,42332.0,41868.0,-0.000305,0.0008539999999999999,0.001037,0.6300000000000001,-1.7675,-3.8500000000000005,0.92703125,0.1010625,-0.09434375,1.00878125,0.8815937500000001,-0.33084375,-0.6813750000000001,0.92996875,0.017751388091504224,0.023784381947926328,True
50218,68666,0,68667,4309.0,42330.0,41866.0,0.000732,0.002196,0.0018909999999999999,0.49000000000000005,-2.0300000000000002,-3.9025000000000003,0.905625,0.112625,-0.08546875,0.9919687500000001,0.87390625,-0.32621875,-0.6850625,0.93484375,0.018039949180346824,0.024289739999645534,True
50219,68667,0,68668,4311.0,42331.0,41869.0,0.000305,0.003477,0.001464,0.49000000000000005,-2.0475000000000003,-3.8850000000000002,0.8979375,0.112,-0.09359375,1.0021875,0.88025,-0.3313125,-0.68746875,0.93078125,0.018219835037670083,0.024055726652818545,True
50220,68668,0,68669,4310.0,42332.0,41870.0,0.001281,0.001586,0.0021349999999999997,0.4025,-2.0125,-3.7275000000000005,0.906,0.11353125,-0.0914375,1.0041875,0.8735937500000001,-0.33071875,-0.6866875,0.9305,0.018258811199319793,0.024112185970677515,True
50221,68669,0,68670,4312.0,42331.0,41868.0,0.000915,-0.001037,0.0008539999999999999,0.42000000000000004,-1.995,-3.6750000000000003,0.903625,0.11371875000000001,-0.0913125,1.00390625,0.8736875000000001,-0.33159375,-0.6853125,0.93034375,0.018301822090877218,0.024062891648627092,True
50222,68670,0,68671,4312.0,42333.0,41869.0,0.000976,-0.000793,0.00061,0.385,-2.1350000000000002,-3.6050000000000004,0.90415625,0.11359375000000001,-0.0911875,1.004625,0.87365625,-0.33237500000000003,-0.6862812500000001,0.9311875000000001,0.018328204706692216,0.024106253346684207,True
50223,68671,0,68672,4313.0,42333.0,41872.0,-0.0011589999999999999,-0.001586,-0.001281,0.35000000000000003,-2.1175,-3.5525,0.9114375,0.112875,-0.08778125,0.9986875000000001,0.8744375,-0.32803125,-0.68625,0.92678125,0.01812338390514029,0.024242999645551672,True
50224,68672,0,68673,4314.0,42332.0,41869.0,-0.0013419999999999999,-0.0011589999999999999,-0.003538,0.28,-2.0125,-3.4825000000000004,0.90559375,0.1128125,-0.09365625,1.000125,0.88128125,-0.327375,-0.68534375,0.9236562500000001,0.01809432789193244,0.023969182118438192,True
50225,68673,0,68674,4314.0,42333.0,41870.0,-0.001281,-0.00183,-0.004514,0.29750000000000004,-2.0300000000000002,-3.5175000000000005,0.9040625,0.11625,-0.09084375,0.99809375,0.8769375,-0.32846875000000003,-0.6880937500000001,0.93553125,0.01827976740213048,0.02419182323463107,True
50226,68674,0,68675,4317.0,42332.0,41875.0,-0.000122,0.000183,-0.001647,0.49000000000000005,-2.0475000000000003,-3.535,0.911875,0.11428125,-0.09025,1.00378125,0.873625,-0.3278125,-0.688875,0.9259375,0.018172359310973808,0.02424675081387872,True
50227,68675,0,68676,4317.0,42334.0,41874.0,0.00042699999999999997,0.000488,0.0008539999999999999,0.45500000000000007,-1.8375000000000001,-3.6225000000000005,0.90725,0.11203125,-0.0928125,0.9985,0.8735937500000001,-0.32290625,-0.6855625,0.9294375,0.017881806373364614,0.024012011069223155,True
50228,68676,0,68677,4317.0,42334.0,41875.0,-0.00042699999999999997,-0.000244,0.000122,0.45500000000000007,-1.7850000000000001,-3.6575,0.90434375,0.12146875,-0.092375,1.00603125,0.87775,-0.32978125,-0.68559375,0.93040625,0.018547227998607675,0.02403096947992187,True
50229,68677,0,68678,4317.0,42335.0,41874.0,-0.00061,0.001098,0.000122,0.4025,-1.7675,-3.7975000000000003,0.90959375,0.1139375,-0.090875,1.0045,0.874125,-0.32271875,-0.68890625,0.93678125,0.017952608607950126,0.024222670860520604,True
50230,68678,0,68679,4318.0,42335.0,41875.0,-0.0013419999999999999,0.0013419999999999999,0.0026839999999999998,0.5075000000000001,-1.9425000000000001,-3.7800000000000002,0.90965625,0.1145,-0.08965625,0.9994375,0.87375,-0.32909375,-0.68559375,0.9363750000000001,0.01823305687249448,0.024141104566301957,True
50231,68679,0,68680,4319.0,42335.0,41877.0,0.000793,-0.0006709999999999999,0.001647,0.525,-2.1350000000000002,-3.6925000000000003,0.9040625,0.11340625,-0.0926875,0.9936875000000001,0.88328125,-0.33015625,-0.684125,0.93009375,0.018230976219069696,0.02396023760210256,True
50232,68680,0,68681,4320.0,42335.0,41876.0,0.004941,-0.000793,-0.000549,0.45500000000000007,-2.4850000000000003,-3.6575,0.9045625,0.1131875,-0.09059375,1.0013125,0.87434375,-0.32275,-0.6893125,0.9373750000000001,0.017923035018655373,0.024250118345741704,True
50233,68681,0,68682,4320.0,42332.0,41873.0,0.004209,0.0018909999999999999,-0.0011589999999999999,0.42000000000000004,-2.0825,-3.6225000000000005,0.91315625,0.1130625,-0.09009375,0.9991875,0.87365625,-0.32809375,-0.68696875,0.9353125,0.01813361353065322,0.024177735470256957,True
50234,68682,0,68683,4321.0,42335.0,41876.0,-0.000976,-0.00042699999999999997,-0.000305,0.42000000000000004,-1.6450000000000002,-3.5525,0.91146875,0.11118750000000001,-0.0905625,0.9989687500000001,0.87375,-0.3275,-0.68553125,0.9371875000000001,0.01803257630253828,0.024101922052011743,True
50235,68683,0,68684,4321.0,42333.0,41878.0,-0.005429,6.1e-05,0.000305,0.525,-1.2950000000000002,-3.6225000000000005,0.9050312500000001,0.11009375,-0.0903125,0.9985,0.8775937500000001,-0.3278125,-0.68496875,0.93090625,0.01800023121684286,0.024089811740191085,True
50236,68684,0,68685,4321.0,42336.0,41877.0,-0.006588,0.000488,0.000549,0.5425000000000001,-1.1900000000000002,-3.5875000000000004,0.9038125,0.11106250000000001,-0.09309375,0.9986875000000001,0.88025,-0.32978125,-0.68546875,0.929125,0.018119511452656403,0.023996911138258213,True
50237,68685,0,68686,4322.0,42335.0,41876.0,-0.005978,0.001037,0.00122,0.5425000000000001,-1.4175000000000002,-3.7275000000000005,0.89490625,0.11325,-0.09446875,1.00540625,0.8750625,-0.3285,-0.6866875,0.92653125,0.018157716258708923,0.023989397119398865,True
50238,68686,0,68687,4322.0,42334.0,41875.0,-0.0008539999999999999,-0.0034159999999999998,0.0,0.43750000000000006,-2.0650000000000004,-3.7450000000000006,0.9036875,0.11428125,-0.08946875,1.0068125,0.87290625,-0.32784375,-0.68803125,0.9300625,0.018173620504283287,0.024245047891374487,True
50239,68687,0,68688,4320.0,42332.0,41872.0,0.0026839999999999998,-0.0025009999999999998,-0.0011589999999999999,0.45500000000000007,-2.1,-3.9025000000000003,0.90965625,0.11459375000000001,-0.09009375,1.0015,0.87471875,-0.327625,-0.68575,0.9292812500000001,0.018177637562236344,0.024129558550985895,True
50240,68688,0,68689,4316.0,42329.0,41864.0,0.0037819999999999998,-0.001952,-0.0023179999999999997,0.385,-2.2225,-4.0075,0.90996875,0.11059375,-0.08971875,0.99934375,0.86621875,-0.327625,-0.68746875,0.92190625,0.01801321542896193,0.02421268887682136,True
50241,68689,0,68690,4311.0,42327.0,41860.0,0.005856,-0.0006709999999999999,-0.002806,0.36750000000000005,-2.31,-4.112500000000001,0.9040625,0.111125,-0.0905,0.99921875,0.8882187500000001,-0.32721875,-0.68571875,0.935125,0.018018654516353212,0.024111866299213996,True
50242,68690,0,68691,4308.0,42326.0,41856.0,0.005063,0.001281,-0.001037,0.43750000000000006,-2.2925000000000004,-4.112500000000001,0.904,0.11278125,-0.09175,1.0025625,0.89203125,-0.334,-0.68275,0.91653125,0.01836037026382839,0.023943847423808125,True
50243,68691,0,68692,4304.0,42322.0,41850.0,0.0030499999999999998,0.0,0.002013,0.5075000000000001,-1.995,-3.9550000000000005,0.90978125,0.11071875,-0.09021875,0.9990625000000001,0.860625,-0.32671875,-0.6850625,0.93959375,0.01798177158602617,0.024097315937522946,True
50244,68692,0,68693,4299.0,42322.0,41846.0,0.001464,0.0006709999999999999,0.002379,0.49000000000000005,-1.7850000000000001,-4.025,0.9048437500000001,0.11384375000000001,-0.0936875,1.00375,0.89009375,-0.326375,-0.6822812500000001,0.9235625000000001,0.018096356321071268,0.02384681318709145,True
50245,68693,0,68694,4296.0,42318.0,41842.0,-0.000915,0.0023179999999999997,0.001769,0.49000000000000005,-1.5925000000000002,-3.9200000000000004,0.9051250000000001,0.1130625,-0.09165625000000001,0.9985625,0.87334375,-0.33534375,-0.6915625,0.94146875,0.018426131745108387,0.02429600192373407,True
50246,68694,0,68695,4290.0,42317.0,41840.0,-0.0028669999999999998,0.001098,0.0011589999999999999,0.35000000000000003,-1.5575,-3.6925000000000003,0.90434375,0.11334375000000001,-0.0905625,0.998,0.88465625,-0.33146875000000003,-0.6880937500000001,0.93471875,0.018281366594443668,0.024203215365706396,True
50247,68695,0,68696,4287.0,42316.0,41839.0,-0.004758,0.001098,-0.0006709999999999999,0.3325,-1.435,-3.6050000000000004,0.90453125,0.113125,-0.09381250000000001,1.00390625,0.86934375,-0.325125,-0.68196875,0.92378125,0.01801635140621066,0.023829389622738263,True
50248,68696,0,68697,4285.0,42315.0,41837.0,-0.004209,-0.000915,-0.000549,0.43750000000000006,-1.4000000000000001,-3.535,0.91046875,0.11131250000000001,-0.09253125,0.9983125,0.8666875,-0.3265,-0.68375,0.93175,0.017997348570488975,0.023951739504734896,True
50249,68697,0,68698,4284.0,42313.0,41835.0,-0.003904,-0.002013,0.0013419999999999999,0.4025,-1.4700000000000002,-3.5700000000000003,0.9042187500000001,0.11490625,-0.09103125000000001,1.00478125,0.89190625,-0.32809375,-0.68890625,0.92421875,0.018209400397431467,0.024216342107095168,True
50250,68698,0,68699,4281.0,42312.0,41835.0,-0.000305,-0.000366,0.00122,0.43750000000000006,-1.5925000000000002,-3.7800000000000002,0.8993125000000001,0.111375,-0.09234375,0.9985937500000001,0.867,-0.3273125,-0.6835,0.9197500000000001,0.018032715286573475,0.02394945003747443,True
50251,68699,0,68700,4278.0,42311.0,41833.0,0.002257,0.000122,0.000793,0.49000000000000005,-1.8900000000000001,-3.7625,0.9041875,0.11340625,-0.08434375,0.9996875000000001,0.890375,-0.33437500000000003,-0.6862812500000001,0.9333750000000001,0.018401181456273275,0.0243834822225401,True
50252,68700,0,68701,4278.0,42312.0,41832.0,0.005063,-0.000244,-0.0015249999999999999,0.3325,-2.0650000000000004,-3.9375000000000004,0.90315625,0.110875,-0.093,0.99865625,0.8664375,-0.326,-0.68265625,0.9313750000000001,0.01795917947874702,0.02388949730643354,True
50253,68701,0,68702,4278.0,42310.0,41828.0,0.0035989999999999998,-0.000549,-0.003538,0.15750000000000003,-1.9250000000000003,-3.7800000000000002,0.90471875,0.11434375000000001,-0.091125,0.99853125,0.8786875000000001,-0.324125,-0.68765625,0.93596875,0.01802608521375384,0.024163138207986025,True
50254,68702,0,68703,4277.0,42310.0,41830.0,0.000244,0.000122,-0.003904,0.1925,-1.54,-3.8500000000000005,0.9068125,0.10981250000000001,-0.092125,1.00315625,0.88134375,-0.3278125,-0.68425,0.92859375,0.01798867037469974,0.023987968036298452,True
50255,68703,0,68704,4276.0,42308.0,41827.0,-0.00244,-0.000122,-0.000915,0.3325,-1.2600000000000002,-3.8675,0.9041875,0.11325,-0.09346875,1.00465625,0.87390625,-0.33109375,-0.6883125,0.9295625000000001,0.01826238288198614,0.02409414373704157,True
50256,68704,0,68705,4276.0,42309.0,41829.0,-0.0034159999999999998,-0.0006709999999999999,0.002196,0.49000000000000005,-1.2950000000000002,-3.7800000000000002,0.9041250000000001,0.113375,-0.0905,1.0021875,0.8739375,-0.32803125,-0.687625,0.9298125,0.018143936328592146,0.024187219305218707,True
50257,68705,0,68706,4276.0,42307.0,41830.0,0.00061,0.001586,0.001647,0.47250000000000003,-1.54,-3.8850000000000002,0.8961250000000001,0.11296875,-0.09253125,1.003125,0.87321875,-0.33153125,-0.6875,0.9304375,0.01826847621848707,0.024100000000000003,True
50258,68706,0,68707,4276.0,42308.0,41828.0,0.001403,0.0025009999999999998,0.0008539999999999999,0.5075000000000001,-1.54,-3.9025000000000003,0.904625,0.113,-0.09284375,0.99840625,0.87625,-0.33134375,-0.685,0.9300625,0.0182621952394224,0.023988505165080012,True
50259,68707,0,68708,4276.0,42308.0,41827.0,0.0006709999999999999,0.0015249999999999999,0.0015249999999999999,0.385,-1.7675,-3.8325000000000005,0.9044375,0.11175,-0.09084375,0.9980625000000001,0.87603125,-0.3308125,-0.6855,0.92896875,0.018189384345467297,0.024089293309837757,True
50260,68708,0,68709,4278.0,42309.0,41828.0,0.000366,-0.000976,0.000915,0.49000000000000005,-1.9075000000000002,-3.8500000000000005,0.90415625,0.1135625,-0.09253125,1.00684375,0.8785625,-0.33084375,-0.68578125,0.9302812500000001,0.018265139284370277,0.02403205286443993,True
50261,68709,0,68710,4278.0,42307.0,41828.0,-0.00061,-6.1e-05,-6.1e-05,0.5775,-1.995,-3.8150000000000004,0.8964062500000001,0.11787500000000001,-0.0900625,0.999375,0.8738750000000001,-0.32859375,-0.6876875,0.93825,0.018351605299833658,0.024207411082953798,True
50262,68710,0,68711,4278.0,42308.0,41827.0,0.000366,0.000549,0.000305,0.42000000000000004,-2.0300000000000002,-3.6925000000000003,0.91240625,0.111,-0.09021875,0.99871875,0.87934375,-0.32809375,-0.6865625,0.92725,0.01804883500171484,0.024156613542286414,True
50263,68711,0,68712,4278.0,42307.0,41827.0,-0.000366,-0.0006709999999999999,-0.001403,0.385,-2.1,-3.6400000000000006,0.8958125,0.10934375,-0.0901875,0.99634375,0.8831875,-0.3278125,-0.68321875,0.936,0.0179694023044612,0.024025685466973385,True
50264,68712,0,68713,4278.0,42308.0,41826.0,-0.000488,-0.0011589999999999999,-0.0015249999999999999,0.28,-2.0475000000000003,-3.6050000000000004,0.91728125,0.11053125,-0.0885,0.9884375,0.8827812500000001,-0.3309375,-0.6863750000000001,0.9324687500000001,0.01814433784148268,0.024218825161652937,True
50265,68713,0,68714,4281.0,42308.0,41826.0,-6.1e-05,-0.000366,-0.0017079999999999999,0.29750000000000004,-2.0825,-3.6225000000000005,0.89953125,0.10753125000000001,-0.08815625,0.99490625,0.8814375,-0.331625,-0.68559375,0.9303125,0.01804878424683925,0.024201868751890968,True
50266,68714,0,68715,4279.0,42305.0,41824.0,0.000793,-0.0011589999999999999,6.1e-05,0.28,-2.0300000000000002,-3.6575,0.8944375,0.10984375,-0.09409375,0.995625,0.88171875,-0.33246875,-0.68525,0.9298125,0.01817787190212666,0.023947752200200526,True
50267,68715,0,68716,4279.0,42304.0,41824.0,0.000244,-0.001281,-0.000915,0.29750000000000004,-1.9600000000000002,-3.6750000000000003,0.90078125,0.11028125,-0.09146875,0.9891875,0.8736875000000001,-0.33365625,-0.68471875,0.929625,0.018243764744560322,0.02403308727185721,True
50268,68716,0,68717,4277.0,42304.0,41821.0,-6.1e-05,-0.000122,-0.0011589999999999999,0.28,-1.9425000000000001,-3.6925000000000003,0.9090625,0.1093125,-0.08878125,1.008875,0.8753125,-0.32925,-0.68484375,0.9378125,0.018026141373038627,0.024146901881848044,True
50269,68717,0,68718,4277.0,42302.0,41820.0,0.000183,0.000366,-0.0015249999999999999,0.4025,-1.7675,-3.7275000000000005,0.91015625,0.11478125,-0.09428125,1.00096875,0.87384375,-0.3298125,-0.68653125,0.92921875,0.018273620070027256,0.023990814829442673,True
50270,68718,0,68719,4276.0,42305.0,41819.0,0.00042699999999999997,6.1e-05,0.001403,0.5425000000000001,-1.6800000000000002,-3.8675,0.8914062500000001,0.11534375000000001,-0.09696875,0.99534375,0.87434375,-0.3310625,-0.6864375,0.9294687500000001,0.018347174522279904,0.02387824286108516,True
50271,68719,0,68720,4275.0,42304.0,41821.0,-0.002623,0.0011589999999999999,0.001647,0.6475000000000001,-1.5750000000000002,-3.9025000000000003,0.9021875,0.106875,-0.093125,0.9940625000000001,0.876125,-0.33146875000000003,-0.68546875,0.9298125,0.018015507181415015,0.023995645211314854,True
50272,68720,0,68721,4274.0,42306.0,41819.0,-0.000244,0.0021349999999999997,0.0032329999999999998,0.49000000000000005,-1.6975000000000002,-3.9375000000000004,0.90840625,0.106125,-0.0891875,0.99840625,0.8785625,-0.32984375,-0.685,0.93434375,0.017919093705647003,0.024136621430018233,True
50273,68721,0,68722,4274.0,42303.0,41820.0,0.0006709999999999999,0.0021349999999999997,0.0017079999999999999,0.4025,-1.9600000000000002,-3.9725000000000006,0.91590625,0.11471875000000001,-0.0894375,1.00640625,0.8773125,-0.3298125,-0.686125,0.93234375,0.018271051205182944,0.024170966484209248,True
50274,68722,0,68723,4272.0,42304.0,41820.0,0.002623,0.000793,0.0011589999999999999,0.36750000000000005,-2.0825,-3.9725000000000006,0.9005,0.11359375000000001,-0.09325,1.0032812500000001,0.8748125,-0.3295625,-0.68365625,0.92996875,0.018214723343257813,0.023918913957489588,True
50275,68723,0,68724,4272.0,42303.0,41818.0,0.0023179999999999997,0.000244,0.000122,0.22750000000000004,-2.2750000000000004,-3.9550000000000005,0.90265625,0.11309375,-0.0913125,0.999625,0.87403125,-0.33053125,-0.6865625,0.9294375,0.018233264018844637,0.02411230806233148,True
50276,68724,0,68725,4273.0,42302.0,41819.0,0.005612,-0.001098,-0.001281,0.24500000000000002,-2.3800000000000003,-3.9025000000000003,0.90390625,0.11215625,-0.09303125,0.99409375,0.87565625,-0.3315,-0.6850937500000001,0.92975,0.018233822411277564,0.02398461622208747,True
50277,68725,0,68726,4272.0,42301.0,41818.0,-0.00042699999999999997,-0.002379,-0.006222,0.14,-1.9250000000000003,-3.6400000000000006,0.89709375,0.11862500000000001,-0.09109375,0.99928125,0.87740625,-0.333125,-0.6862812500000001,0.9334687500000001,0.01856522744201577,0.024110051002517847,True
50278,68726,0,68727,4273.0,42301.0,41817.0,-0.003477,-0.001952,-0.0035989999999999998,0.28,-1.7850000000000001,-3.6750000000000003,0.91178125,0.11271875,-0.0910625,1.00375,0.8749687500000001,-0.325875,-0.6920000000000001,0.9290625,0.01802992698104385,0.02433733597926454,True
50279,68727,0,68728,4271.0,42302.0,41818.0,-0.0021349999999999997,-0.002379,0.0,0.3325,-1.8900000000000001,-3.6225000000000005,0.9058437500000001,0.11259375,-0.0921875,1.00375,0.8699375,-0.33796875,-0.6875625,0.91825,0.018512740509620384,0.024116394642038883,True
50280,68728,0,68729,4272.0,42300.0,41818.0,-0.001037,-0.002257,0.000305,0.47250000000000003,-2.1525000000000003,-3.5875000000000004,0.89928125,0.1124375,-0.09225,0.99928125,0.8643125,-0.33390625,-0.6805,0.95059375,0.018342461971143663,0.0238346062681064,True
50281,68729,0,68730,4274.0,42302.0,41819.0,0.0026839999999999998,0.0006709999999999999,0.0017079999999999999,0.47250000000000003,-2.1,-3.7450000000000006,0.89884375,0.109,-0.08700000000000001,0.998375,0.8883125000000001,-0.325,-0.6855,0.949625,0.017841726618705037,0.024245002126754574,True
50282,68730,0,68731,4273.0,42301.0,41820.0,0.000732,0.0021349999999999997,0.001037,0.525,-1.8550000000000002,-3.535,0.909,0.11371875000000001,-0.09046875,1.00628125,0.8641562500000001,-0.32896875000000003,-0.69425,0.91903125,0.018195900720206236,0.02445027688631969,True
50283,68731,0,68732,4273.0,42298.0,41818.0,0.000732,0.001464,0.0008539999999999999,0.5425000000000001,-1.6800000000000002,-3.43,0.9038437500000001,0.11184375,-0.09190625000000001,0.99546875,0.8999375000000001,-0.3211875,-0.6806875,0.95375,0.01780469189672585,0.023855950122945318,True
50284,68732,0,68733,4274.0,42302.0,41820.0,-0.000244,0.00122,0.002074,0.5075000000000001,-1.7850000000000001,-3.4475000000000002,0.912375,0.11303125,-0.09053125000000001,1.00521875,0.862375,-0.3329375,-0.6890625,0.9191875,0.018327781016985723,0.024242769444971838,True
50285,68733,0,68734,4275.0,42301.0,41819.0,-0.00061,0.001281,-0.000732,0.5775,-1.6275000000000002,-3.3600000000000003,0.90734375,0.11315625,-0.09128125000000001,1.006125,0.86709375,-0.33909375,-0.6873125,0.91925,0.01858121771686754,0.024143221340921575,True
50286,68734,0,68735,4276.0,42301.0,41820.0,-0.000244,-0.000122,0.000488,0.5075000000000001,-1.4525000000000001,-3.3075,0.8962187500000001,0.11265625,-0.0924375,1.0033750000000001,0.8765937500000001,-0.341125,-0.6776875,0.9109375000000001,0.01864257506586076,0.0237157553761875,True
50287,68735,0,68736,4279.0,42303.0,41821.0,0.000244,-0.001464,-0.000732,0.36750000000000005,-1.2425000000000002,-3.325,0.8946875,0.11309375,-0.09359375,0.99953125,0.881375,-0.33046875000000003,-0.6860937500000001,0.91925,0.018230742060816235,0.024001367166484166,True
50288,68736,0,68737,4279.0,42302.0,41822.0,0.000793,-0.0013419999999999999,-0.001098,0.35000000000000003,-0.9275000000000001,-3.5175000000000005,0.90653125,0.11371875000000001,-0.09025,0.99846875,0.86484375,-0.33140625,-0.6956875,0.94603125,0.018294257036623192,0.02451592003664608,True
50289,68737,0,68738,4278.0,42303.0,41822.0,-0.0015249999999999999,0.000183,-0.002074,0.31500000000000006,-0.7525000000000001,-3.5175000000000005,0.9085625,0.1095,-0.0914375,0.9989687500000001,0.878375,-0.32556250000000003,-0.67959375,0.9260625,0.017884992381985,0.02383168280474633,True
50290,68738,0,68739,4280.0,42305.0,41822.0,-0.001952,0.000976,-0.0006709999999999999,0.42000000000000004,-0.56,-3.4125000000000005,0.9041250000000001,0.11690625,-0.08834375,1.00478125,0.8834375,-0.3285,-0.6854375,0.9318125,0.018308002959491955,0.02418809672706834,True
50291,68739,0,68740,4282.0,42305.0,41820.0,-0.003721,0.001647,0.001281,0.42000000000000004,-0.45500000000000007,-3.4650000000000003,0.91159375,0.11762500000000001,-0.0845,0.9986875000000001,0.87084375,-0.32965625,-0.6860625,0.93390625,0.018384199324641096,0.024368507533350046,True
50292,68740,0,68741,4282.0,42305.0,41822.0,-0.0021349999999999997,-0.000366,0.002013,0.35000000000000003,-0.6300000000000001,-3.5875000000000004,0.9116562500000001,0.111375,-0.09034375,0.99253125,0.88071875,-0.3289375,-0.6853750000000001,0.9294375,0.018098303717538015,0.02410460647245586,True
50293,68741,0,68742,4283.0,42305.0,41825.0,-0.0006709999999999999,-0.002379,0.001464,0.3325,-0.8925000000000001,-3.4650000000000003,0.90475,0.11084375,-0.09121875,0.9985,0.87796875,-0.33184375,-0.684625,0.930125,0.018193750730459955,0.024039508398446402,True
50294,68742,0,68743,4283.0,42306.0,41822.0,0.002989,-0.002074,-0.000732,0.24500000000000002,-1.2075,-3.5175000000000005,0.90446875,0.1126875,-0.09134375,1.00265625,0.87453125,-0.3334375,-0.68971875,0.9360937500000001,0.018333825625746467,0.02423579652967898,True
50295,68743,0,68744,4287.0,42306.0,41822.0,0.0050019999999999995,-0.000122,-0.0030499999999999998,0.24500000000000002,-1.2600000000000002,-3.5700000000000003,0.90925,0.11359375000000001,-0.08978125,0.9988125,0.87371875,-0.3291875,-0.68459375,0.9365,0.018199590512424636,0.024096507563548617,True
50296,68744,0,68745,4286.0,42307.0,41824.0,0.003477,0.0017079999999999999,-0.001586,0.36750000000000005,-1.0150000000000001,-3.6575,0.9044375,0.11131250000000001,-0.090875,0.9998750000000001,0.8795625,-0.3335,-0.6845625,0.9298125,0.01827984054903734,0.024050963025980306,True
50297,68745,0,68746,4288.0,42306.0,41823.0,-0.0017079999999999999,-0.000549,0.0023179999999999997,0.47250000000000003,-0.5775,-3.43,0.90453125,0.11290625,-0.0919375,1.0030000000000001,0.87415625,-0.33321875,-0.68815625,0.930125,0.018333990442591982,0.02414999094960767,True
50298,68746,0,68747,4288.0,42307.0,41824.0,-0.003355,-0.000488,-0.000732,0.29750000000000004,-0.56,-3.4125000000000005,0.9048437500000001,0.1129375,-0.09003125000000001,1.00225,0.873625,-0.32987500000000003,-0.68721875,0.925875,0.018200360667697636,0.024190149001697487,True
50299,68747,0,68748,4289.0,42306.0,41826.0,-0.0032329999999999998,0.000793,-0.001586,0.2625,-0.6125,-3.3775000000000004,0.9118437500000001,0.10928125,-0.08965625,0.99865625,0.87853125,-0.329125,-0.68475,0.9292812500000001,0.018019811645507183,0.024107748711248846,True
50300,68748,0,68749,4290.0,42307.0,41825.0,-0.002196,0.001098,-0.0008539999999999999,0.36750000000000005,-0.7175,-3.2725000000000004,0.90453125,0.1209375,-0.0916875,0.99203125,0.8735625,-0.329125,-0.68365625,0.9385,0.018498918477339404,0.02398221495245462,True
50301,68749,0,68750,4293.0,42308.0,41827.0,-0.001464,0.000793,-0.000244,0.42000000000000004,-0.9275000000000001,-3.325,0.92890625,0.1055625,-0.0984375,1.0129062500000001,0.88315625,-0.332625,-0.6838125,0.925125,0.018008229691617736,0.023714934635806366,True
50302,68750,0,68751,4292.0,42309.0,41827.0,0.000549,0.000732,0.0028669999999999998,0.7000000000000001,-1.155,-3.43,0.9173125,0.1151875,-0.0870625,0.99328125,0.8751875,-0.32878125,-0.68496875,0.93034375,0.018248704916116586,0.02422147080903232,True
50303,68751,0,68752,4295.0,42310.0,41830.0,-6.1e-05,0.000732,0.002074,0.6825000000000001,-1.0850000000000002,-3.5700000000000003,0.89784375,0.11371875000000001,-0.09434375,1.0159375,0.87384375,-0.332125,-0.688125,0.938125,0.01832325577811227,0.02405128984076352,True
50304,68752,0,68753,4294.0,42310.0,41832.0,-0.00183,0.00122,0.0011589999999999999,0.7525000000000001,-0.9800000000000001,-3.6225000000000005,0.914,0.11628125,-0.0876875,0.99284375,0.87475,-0.32903125,-0.68465625,0.92140625,0.018303749763977965,0.024183798386902794,True
50305,68753,0,68754,4296.0,42312.0,41830.0,-0.004209,0.000915,0.002623,0.8225000000000001,-1.05,-3.6225000000000005,0.8980312500000001,0.11428125,-0.093625,1.00809375,0.8737812500000001,-0.32784375,-0.68875,0.935875,0.018173620504283287,0.0241051086020961,True
50306,68754,0,68755,4296.0,42312.0,41828.0,-0.00244,0.0026839999999999998,0.0037819999999999998,0.7525000000000001,-1.33,-3.4475000000000002,0.9145,0.104375,-0.0996875,1.00053125,0.8718125,-0.33309375,-0.68725,0.9306562500000001,0.01797834482103206,0.023800241015098887,True
50307,68755,0,68756,4295.0,42309.0,41822.0,0.000793,-0.000305,-0.003111,0.42000000000000004,-1.9075000000000002,-3.8675,0.8980312500000001,0.10400000000000001,-0.09365625,0.99303125,0.86503125,-0.33237500000000003,-0.6820625,0.92940625,0.01793392547994185,0.0238394279246315,True
50308,68756,0,68757,4292.0,42306.0,41815.0,0.000732,-0.0026839999999999998,-0.002379,0.42000000000000004,-1.9600000000000002,-3.7975000000000003,0.90071875,0.1070625,-0.08521875,1.0018125,0.8748750000000001,-0.333,-0.6849375,0.931,0.01808500801380841,0.02429492681518841,True
50309,68757,0,68758,4289.0,42307.0,41811.0,-0.000244,-0.003172,-0.003538,0.36750000000000005,-2.0650000000000004,-3.9725000000000006,0.9185,0.11465625,-0.099875,1.00684375,0.88296875,-0.32965625,-0.6868125,0.93259375,0.018262177460891992,0.02377534564253688,True
50310,68758,0,68759,4285.0,42307.0,41807.0,-0.00061,-0.003111,-0.0008539999999999999,0.45500000000000007,-2.1525000000000003,-4.1475,0.8974062500000001,0.10928125,-0.095375,0.993,0.8665,-0.3328125,-0.688125,0.92996875,0.018168625184614397,0.024009518746360852,True
50311,68759,0,68760,4278.0,42302.0,41800.0,0.001098,-0.0018909999999999999,0.000549,0.5950000000000001,-2.4675000000000002,-4.235,0.898375,0.11078125,-0.09153125000000001,0.99921875,0.8739687500000001,-0.3336875,-0.68703125,0.9300625,0.018265573189431318,0.02412197699956328,True
50312,68760,0,68761,4274.0,42302.0,41796.0,0.004331,0.0018909999999999999,0.00061,0.5775,-2.8525000000000005,-4.322500000000001,0.89265625,0.11321875,-0.0905625,0.9929375,0.873,-0.33221875,-0.68790625,0.93003125,0.018306489209908162,0.024195804372839434,True
50313,68761,0,68762,4272.0,42299.0,41794.0,0.0042699999999999995,0.00183,0.001647,0.6300000000000001,-2.8525000000000005,-4.340000000000001,0.9040625,0.1134375,-0.09125,1.004875,0.87365625,-0.33325,-0.6875,0.93496875,0.01835708341466923,0.024151898734177214,True
50314,68762,0,68763,4268.0,42300.0,41789.0,0.0034159999999999998,0.001098,0.000732,0.5950000000000001,-2.765,-4.1825,0.9098437500000001,0.11353125,-0.0859375,1.0033750000000001,0.8735,-0.33078125,-0.6826875,0.937,0.018261333059331992,0.02417686485720001,True
50315,68763,0,68764,4266.0,42299.0,41787.0,0.002013,0.000549,0.0006709999999999999,0.56,-2.66,-4.165,0.91234375,0.11396875000000001,-0.091,1.0046875,0.8738125,-0.32940625,-0.6893125,0.9349375,0.018223831500203586,0.024233663857590203,True
50316,68764,0,68765,4262.0,42299.0,41787.0,-0.001769,0.000305,0.000305,0.56,-2.6425,-3.8150000000000004,0.9050312500000001,0.113375,-0.09053125000000001,1.0043125,0.8735937500000001,-0.32978125,-0.6886875,0.93603125,0.018214559573978908,0.024227948529058095,True
50317,68765,0,68766,4262.0,42295.0,41786.0,-0.002074,0.000244,-0.000915,0.43750000000000006,-2.5900000000000003,-3.7625,0.9030312500000001,0.1125,-0.0898125,0.9995625,0.8735625,-0.32378125,-0.6856875,0.9319375,0.01793640739965132,0.02413848105303934,True
50318,68766,0,68767,4259.0,42296.0,41785.0,-0.001952,0.000183,-0.002928,0.35000000000000003,-2.7475,-3.7975000000000003,0.9104375,0.10993750000000001,-0.09378125,1.00659375,0.8826875000000001,-0.32803125,-0.68496875,0.93059375,0.018002638417360634,0.023949291003254762,True
50319,68767,0,68768,4258.0,42294.0,41784.0,-0.000549,-0.001647,-0.000122,0.4025,-2.7825,-3.6925000000000003,0.90946875,0.11503125,-0.09003125000000001,0.99884375,0.87453125,-0.32909375,-0.68209375,0.9303750000000001,0.018254892868748967,0.02398753144675986,True
50320,68768,0,68769,4256.0,42296.0,41783.0,0.000244,-0.002745,0.000915,0.49000000000000005,-2.7825,-3.6925000000000003,0.90515625,0.11203125,-0.08675000000000001,1.00471875,0.882125,-0.33175,-0.68721875,0.935125,0.018238772385874423,0.02432306190830022,True
50321,68769,0,68770,4257.0,42293.0,41782.0,0.002196,-0.002379,-0.00244,0.2625,-3.115,-3.7100000000000004,0.911625,0.11046875,-0.08959375,0.99934375,0.8736875000000001,-0.32853125,-0.6854375,0.92921875,0.01804465692929983,0.024137459585231173,True
50322,68770,0,68771,4254.0,42294.0,41781.0,0.00366,-0.000183,-0.002562,0.24500000000000002,-2.975,-3.7800000000000002,0.904,0.11056250000000001,-0.09234375,0.9973125,0.87809375,-0.331,-0.6841875000000001,0.92478125,0.018148144342608197,0.02397663483961139,True
50323,68771,0,68772,4253.0,42292.0,41777.0,0.003355,0.000366,-0.0018909999999999999,0.385,-2.8525000000000005,-3.7275000000000005,0.9044375,0.1125,-0.09203125,1.00371875,0.8735,-0.333,-0.6870937500000001,0.93034375,0.01830846997904081,0.024104194119650073,True
50324,68772,0,68773,4253.0,42293.0,41779.0,0.002196,-0.000366,-0.001952,0.49000000000000005,-2.7825,-3.5525,0.90465625,0.11275,-0.0935,1.00571875,0.8746875000000001,-0.3326875,-0.68621875,0.93015625,0.018306136549857063,0.024010106853646834,True
50325,68773,0,68774,4253.0,42291.0,41778.0,0.002196,-0.001464,-0.000976,0.5425000000000001,-2.7125000000000004,-3.4825000000000004,0.9091250000000001,0.1126875,-0.090625,1.0006875,0.8745625,-0.32934375,-0.68884375,0.9369375,0.018168646657392887,0.024230326703736378,True
50326,68774,0,68775,4254.0,42290.0,41776.0,-0.001586,0.002257,0.000915,0.6300000000000001,-2.0475000000000003,-3.535,0.9107500000000001,0.11290625,-0.08984375,0.9989375,0.8631875,-0.32965625,-0.686625,0.924875,0.018190248783313573,0.02417427453124921,True
50327,68775,0,68776,4253.0,42291.0,41777.0,-0.001464,0.000122,0.001464,0.6825000000000001,-1.9075000000000002,-3.4650000000000003,0.91059375,0.11031250000000001,-0.0925,0.99884375,0.88046875,-0.32940625,-0.68503125,0.93003125,0.018073550397474252,0.024003666189403746,True
50328,68776,0,68777,4254.0,42290.0,41774.0,-0.000183,0.000732,0.003355,0.6825000000000001,-1.9250000000000003,-3.5525,0.9041250000000001,0.11025,-0.09203125,0.998625,0.8805000000000001,-0.32946875000000003,-0.6855,0.9299375,0.018073503968310037,0.024041188146887847,True
50329,68777,0,68778,4252.0,42288.0,41775.0,0.001769,-0.0006709999999999999,0.00122,0.5950000000000001,-1.8375000000000001,-3.43,0.90425,0.10981250000000001,-0.0898125,0.9991875,0.87725,-0.33196875000000003,-0.6818125,0.92975,0.018156412024818172,0.023985272556462378,True
50330,68778,0,68779,4253.0,42290.0,41775.0,-0.000915,0.00061,-0.001098,0.6475000000000001,-1.8200000000000003,-3.2725000000000004,0.90434375,0.11296875,-0.09190625000000001,1.00090625,0.87734375,-0.32953125,-0.6863125,0.92890625,0.018187773346434698,0.024078373390112436,True
50331,68779,0,68780,4251.0,42293.0,41776.0,-0.003172,0.00042699999999999997,0.000732,0.6825000000000001,-1.6275000000000002,-3.2550000000000003,0.9072187500000001,0.113375,-0.09046875,0.9990625000000001,0.87440625,-0.32959375,-0.68578125,0.9358125,0.01820699328364248,0.024115602985017942,True
50332,68780,0,68781,4254.0,42292.0,41775.0,-0.00122,-0.000976,0.000793,0.5950000000000001,-1.8725000000000003,-3.1675000000000004,0.9085625,0.11365625,-0.09021875,1.00121875,0.8738750000000001,-0.32959375,-0.68775,0.93759375,0.018218553279378123,0.024203552369089932,True
50333,68781,0,68782,4254.0,42294.0,41774.0,0.000793,-0.000732,-0.00061,0.5425000000000001,-2.0650000000000004,-3.1850000000000005,0.90728125,0.1129375,-0.089625,0.99903125,0.87353125,-0.32996875000000003,-0.688125,0.94278125,0.01820414380926815,0.024242424242424246,True
50334,68782,0,68783,4253.0,42293.0,41772.0,0.002562,0.0017079999999999999,-0.00061,0.49000000000000005,-1.9425000000000001,-3.22,0.90309375,0.11246875,-0.0918125,0.99284375,0.88753125,-0.33287500000000003,-0.6794375,0.9270625,0.01830214267734495,0.02381030767009986,True
50335,68783,0,68784,4251.0,42291.0,41771.0,0.001769,0.0018909999999999999,0.00061,0.5950000000000001,-1.9075000000000002,-3.22,0.9070312500000001,0.11796875,-0.0900625,0.99934375,0.8710625000000001,-0.329125,-0.68396875,0.94021875,0.018376893949124763,0.02406040357671414,True
50336,68784,0,68785,4251.0,42291.0,41770.0,-0.001037,-0.000183,-0.000793,0.5425000000000001,-1.6975000000000002,-3.2025,0.8931875,0.1165625,-0.0935,1.01028125,0.88715625,-0.33290625,-0.68359375,0.92028125,0.018471642695783618,0.023906314290235795,True
50337,68785,0,68786,4250.0,42292.0,41769.0,0.000183,0.000732,0.00042699999999999997,0.6300000000000001,-1.5750000000000002,-3.2900000000000005,0.90665625,0.11365625,-0.08603125,0.99265625,0.869625,-0.3279375,-0.68315625,0.9213125,0.018151713436455514,0.024191598268556113,True
50338,68786,0,68787,4252.0,42294.0,41767.0,-0.000366,-0.001403,-6.1e-05,0.665,-1.6625,-3.3775000000000004,0.901,0.11346875000000001,-0.09046875,1.0055,0.878,-0.33203125,-0.6886875,0.94471875,0.018309198908331995,0.024230480052858216,True
50339,68787,0,68788,4249.0,42293.0,41767.0,-0.0008539999999999999,-0.001952,0.000732,0.6125,-1.6625,-3.43,0.9175625000000001,0.104875,-0.09828125,1.0075,0.888,-0.3344375,-0.68878125,0.92109375,0.0180531191649694,0.02391774604102825,True
50340,68788,0,68789,4250.0,42293.0,41766.0,-0.001281,0.000488,0.001769,0.5425000000000001,-1.5750000000000002,-3.3950000000000005,0.91621875,0.10784375,-0.090125,1.01565625,0.86921875,-0.32740625,-0.6828125,0.92653125,0.017891344252945175,0.024012154206494905,True
50341,68789,0,68790,4249.0,42293.0,41767.0,-0.002013,0.0026839999999999998,0.002928,0.47250000000000003,-1.435,-3.6225000000000005,0.925,0.10153125,-0.09940625,1.01225,0.87546875,-0.3275,-0.684125,0.92671875,0.017635648956941734,0.023688048492705328,True
50342,68790,0,68791,4249.0,42294.0,41766.0,-0.002257,0.002989,0.001403,0.5075000000000001,-1.2775,-3.7275000000000005,0.90515625,0.11278125,-0.083875,0.98078125,0.86953125,-0.32821875,-0.6835,0.91890625,0.018127097776116468,0.024292543602001337,True
50343,68791,0,68792,4250.0,42293.0,41763.0,-0.0017079999999999999,0.002562,0.002074,0.43750000000000006,-1.3650000000000002,-3.7275000000000005,0.8920625,0.11746875,-0.0859375,0.98403125,0.86975,-0.3278125,-0.685,0.9350625,0.01830338218859587,0.024268280332185543,True
50344,68792,0,68793,4249.0,42293.0,41767.0,-0.000915,0.000488,0.001952,0.2625,-1.7500000000000002,-3.6575,0.89371875,0.11725000000000001,-0.09053125000000001,1.0220625,0.88121875,-0.3316875,-0.68778125,0.93765625,0.018450734253429815,0.024192129456753027,True
50345,68793,0,68794,4250.0,42294.0,41766.0,0.0011589999999999999,-0.001037,-0.0008539999999999999,0.15750000000000003,-1.9775000000000003,-3.8150000000000004,0.9262812500000001,0.104375,-0.09315625,0.9986875000000001,0.878,-0.32775,-0.68353125,0.9276562500000001,0.017762637317466676,0.02391776905907659,True
50346,68794,0,68795,4249.0,42295.0,41768.0,0.003965,-0.0032329999999999998,-0.0042699999999999995,-0.035,-1.9075000000000002,-4.025,0.9069375000000001,0.11390625,-0.0835,0.9883125,0.8726875000000001,-0.32837500000000003,-0.6829375,0.93021875,0.018179646195029465,0.02428550086471677,True
50347,68795,0,68796,4250.0,42293.0,41764.0,0.002989,-0.004331,-0.002745,0.0175,-1.8375000000000001,-3.99,0.8924062500000001,0.11653125,-0.0846875,1.00521875,0.87334375,-0.3293125,-0.68540625,0.92975,0.01832537397018514,0.024334975244735945,True
50348,68796,0,68797,4251.0,42297.0,41767.0,0.005307,-0.004758,-0.004514,0.0175,-1.8025000000000002,-3.9550000000000005,0.9088125,0.1136875,-0.08665625,0.9987812500000001,0.87453125,-0.32940625,-0.68525,0.92240625,0.01821227141537825,0.024249045482626266,True
50349,68797,0,68798,4254.0,42296.0,41765.0,0.0066489999999999995,-0.0034159999999999998,-0.005124,0.08750000000000001,-1.6450000000000002,-4.0075,0.9096875,0.108125,-0.0898125,0.99471875,0.87328125,-0.32859375,-0.67984375,0.9373125,0.01795084230875449,0.023907414324695633,True
50350,68798,0,68799,4251.0,42294.0,41764.0,0.0053679999999999995,-0.00122,-0.002257,0.12250000000000001,-1.1900000000000002,-3.9200000000000004,0.89871875,0.11284375,-0.09009375,0.9919375,0.88103125,-0.33221875,-0.68825,0.937125,0.01829107754507591,0.02422837787206465,True
50351,68799,0,68800,4253.0,42297.0,41765.0,-0.0021349999999999997,-0.0011589999999999999,0.000915,0.14,-0.31500000000000006,-3.4825000000000004,0.9032187500000001,0.11296875,-0.08934375,0.99834375,0.8800625,-0.33296875,-0.68965625,0.93034375,0.018326473213425714,0.02431433203935353,True
50352,68800,0,68801,4254.0,42295.0,41765.0,-0.003843,0.000488,0.001403,0.12250000000000001,0.12250000000000001,-3.3600000000000003,0.9053125,0.1133125,-0.0906875,0.99465625,0.87446875,-0.32975,-0.68675,0.9359375,0.01821072966224478,0.024145037317589393,True
50353,68801,0,68802,4255.0,42298.0,41765.0,-0.00549,0.002745,0.000793,0.10500000000000001,0.28,-3.325,0.90409375,0.11850000000000001,-0.09075,1.00471875,0.8820625,-0.331625,-0.6871875000000001,0.9246562500000001,0.018499586443568812,0.0241597994911328,True
50354,68802,0,68803,4256.0,42300.0,41764.0,-0.005612,0.002074,0.0017079999999999999,0.17500000000000002,0.28,-3.2375000000000003,0.910625,0.10959375,-0.09165625000000001,1.0015,0.87346875,-0.3285625,-0.685,0.9296875,0.01800995229372882,0.024036611302410374,True
50355,68803,0,68804,4258.0,42299.0,41769.0,-0.005063,0.002257,0.002379,0.385,0.4025,-3.1850000000000005,0.9046875,0.11296875,-0.08825,1.0050625,0.87421875,-0.32621875,-0.6832812500000001,0.929875,0.01805408002425367,0.024106651136586638,True
50356,68804,0,68805,4258.0,42302.0,41771.0,-0.002379,0.0040869999999999995,0.002562,0.6475000000000001,0.07,-3.2900000000000005,0.9065625,0.11265625,-0.09028125000000001,1.00134375,0.87446875,-0.329625,-0.68859375,0.93571875,0.01817871216675144,0.02423436936338264,True
50357,68805,0,68806,4260.0,42304.0,41771.0,-0.000122,0.003904,0.003904,0.7350000000000001,-0.10500000000000001,-3.5175000000000005,0.91215625,0.1133125,-0.08978125,0.99784375,0.87453125,-0.3301875,-0.685125,0.93615625,0.018228383977723146,0.024117510038940453,True
50358,68806,0,68807,4262.0,42308.0,41772.0,0.0017079999999999999,0.002379,0.003721,0.6125,-0.17500000000000002,-3.535,0.9038437500000001,0.11125,-0.093375,1.00571875,0.8738125,-0.33215625,-0.68425,0.9299375,0.018223056166672445,0.023937328458429972,True
50359,68807,0,68808,4264.0,42307.0,41773.0,-0.000549,-0.000732,0.002379,0.385,-0.17500000000000002,-3.4825000000000004,0.9042187500000001,0.1131875,-0.089875,0.9947812500000001,0.8729375,-0.33078125,-0.68834375,0.93790625,0.018247204865236295,0.024240943663950725,True
50360,68808,0,68809,4265.0,42309.0,41775.0,-0.000976,-0.000122,0.0017079999999999999,0.525,-0.10500000000000001,-3.43,0.9065,0.1095,-0.092375,1.00409375,0.876625,-0.32937500000000003,-0.68478125,0.921625,0.018038893313124568,0.02399884544247278,True
50361,68809,0,68810,4268.0,42310.0,41777.0,-6.1e-05,0.000976,-0.0011589999999999999,0.29750000000000004,-0.29750000000000004,-3.5525,0.90353125,0.114,-0.09025,0.99771875,0.874375,-0.33096875000000003,-0.68765625,0.9244375,0.018288164132387867,0.0241985810216391,True
50362,68810,0,68811,4270.0,42315.0,41779.0,0.0026839999999999998,-0.001037,0.0013419999999999999,0.12250000000000001,-0.35000000000000003,-3.6750000000000003,0.9097500000000001,0.11025,-0.0903125,1.0008125,0.8758750000000001,-0.32965625,-0.6840625,0.9373750000000001,0.018081071326274904,0.024053982200053173,True
50363,68811,0,68812,4273.0,42313.0,41779.0,-0.000549,-0.0011589999999999999,0.0021349999999999997,0.17500000000000002,-0.14,-3.8325000000000005,0.9086875,0.11328125,-0.08921875,0.99840625,0.86571875,-0.3296875,-0.6853750000000001,0.935,0.01820692312632458,0.024150180015495005,True
50364,68812,0,68813,4274.0,42315.0,41782.0,-0.0040869999999999995,0.000793,0.0008539999999999999,0.10500000000000001,0.1925,-4.0600000000000005,0.9056875,0.11043750000000001,-0.09159375,0.9985,0.8814375,-0.3294375,-0.68425,0.92925,0.018079949443960634,0.024009489856892555,True
50365,68813,0,68814,4276.0,42316.0,41784.0,-0.007137,0.000366,6.1e-05,0.15750000000000003,0.2625,-4.235,0.90009375,0.10896875,-0.093875,1.00275,0.87946875,-0.33109375,-0.68471875,0.9296875,0.018086424906401916,0.02393560793557755,True
50366,68814,0,68815,4277.0,42317.0,41785.0,-0.003538,-0.0028669999999999998,-0.003172,-0.10500000000000001,-0.28,-4.760000000000001,0.8926875,0.11325,-0.08787500000000001,0.99840625,0.87409375,-0.3298125,-0.6878125,0.93571875,0.018210682881341565,0.024300958215718788,True
50367,68815,0,68816,4276.0,42319.0,41785.0,0.0006709999999999999,-0.003477,-0.0037819999999999998,-0.21000000000000002,-0.7000000000000001,-5.022500000000001,0.9113125,0.10981250000000001,-0.0895,1.0000625,0.8745,-0.32871875,-0.6843750000000001,0.93021875,0.01802525050769474,0.024099253070008864,True
50368,68816,0,68817,4278.0,42317.0,41786.0,0.006161,-0.002623,-0.002928,-0.035,-1.12,-5.0575,0.9030625,0.1128125,-0.090875,0.99865625,0.8739375,-0.33146875000000003,-0.68190625,0.92975,0.018259532729605565,0.023945932052958835,True
50369,68817,0,68818,4280.0,42316.0,41785.0,0.00793,-0.0023179999999999997,-0.00122,-0.10500000000000001,-1.33,-5.180000000000001,0.91053125,0.11728125,-0.08975,0.99821875,0.87453125,-0.3301875,-0.686625,0.9225625000000001,0.018391504381131466,0.024178072134202228,True
50370,68818,0,68819,4281.0,42320.0,41784.0,0.008418,0.000793,-0.0035989999999999998,-0.22750000000000004,-1.2775,-5.32,0.9078125,0.113125,-0.092625,1.00446875,0.87403125,-0.33040625,-0.68415625,0.9295625000000001,0.01822950449090837,0.02396400525134417,True
50371,68819,0,68820,4282.0,42319.0,41785.0,-0.001769,0.0048189999999999995,0.0044529999999999995,0.3325,-0.36750000000000005,-5.460000000000001,0.90396875,0.11296875,-0.0916875,1.00625,0.87471875,-0.3336875,-0.6859375,0.9302812500000001,0.018355469141288185,0.024072409646180133,True
50372,68820,0,68821,4283.0,42319.0,41790.0,-0.005856,0.00244,0.008357,0.4025,-0.15750000000000003,-5.3025,0.90471875,0.113,-0.089875,1.00590625,0.86278125,-0.33628125000000003,-0.687,0.92778125,0.018461376468518583,0.024187831652286627,True
50373,68821,0,68822,4283.0,42320.0,41788.0,-0.008235,-0.000915,0.00671,0.29750000000000004,-0.42000000000000004,-5.232500000000001,0.8985625,0.1159375,-0.0910625,1.00459375,0.86946875,-0.3353125,-0.68025,0.92325,0.01854301234060586,0.02387283354098925,True
50374,68822,0,68823,4284.0,42321.0,41781.0,-0.005307,-0.003355,-0.001952,0.07,-1.0675000000000001,-5.215000000000001,0.90390625,0.111125,-0.093,0.99884375,0.8866875000000001,-0.328625,-0.6825,0.944375,0.018075415277271117,0.023883318140382862,True
50375,68823,0,68824,4280.0,42319.0,41778.0,6.1e-05,-0.0015249999999999999,-0.006344,0.052500000000000005,-1.7850000000000001,-5.2675,0.91159375,0.11425,-0.09015625000000001,1.00421875,0.86475,-0.32946875000000003,-0.69053125,0.923625,0.018237913641250388,0.02431600170611963,True
50376,68824,0,68825,4274.0,42316.0,41772.0,0.004392,-0.0050019999999999995,-0.004209,0.31500000000000006,-2.3625000000000003,-5.1275,0.9100312500000001,0.11271875,-0.08971875,1.0039375,0.8675625,-0.33634375,-0.69125,0.924625,0.018452340442470946,0.02436212220928467,True
50377,68825,0,68826,4271.0,42314.0,41765.0,0.006161,-0.0037819999999999998,-0.0017079999999999999,0.36750000000000005,-2.7125000000000004,-4.865,0.90615625,0.1125,-0.08965625,1.00625,0.86521875,-0.334625,-0.69053125,0.9236562500000001,0.01837402466649887,0.02433625238420093,True
50378,68826,0,68827,4266.0,42315.0,41759.0,0.009211,-6.1e-05,0.0011589999999999999,0.5075000000000001,-2.9400000000000004,-4.760000000000001,0.90925,0.11340625,-0.09,1.00446875,0.86721875,-0.33,-0.68925,0.9070312500000001,0.01822467118783395,0.024271697196148124,True
50379,68827,0,68828,4260.0,42311.0,41754.0,0.010309,0.0050019999999999995,0.000488,0.43750000000000006,-2.975,-4.6025,0.9080625,0.1133125,-0.09025,1.00671875,0.86028125,-0.33553125,-0.6908125,0.92815625,0.01844396760395358,0.02432331864332128,True
50380,68828,0,68829,4256.0,42310.0,41751.0,-0.000976,0.002989,0.003538,0.49000000000000005,-2.555,-3.9375000000000004,0.9044375,0.11171875,-0.0868125,0.9993125,0.85440625,-0.3346875,-0.68090625,0.9358125,0.018344441448035854,0.024070986048172364,True
50381,68829,0,68830,4254.0,42306.0,41747.0,-0.005673,-0.0006709999999999999,0.0023179999999999997,0.5950000000000001,-1.7325000000000002,-3.535,0.9058437500000001,0.11,-0.09040625000000001,1.00559375,0.8837812500000001,-0.32415625,-0.69090625,0.9315,0.01784876916337026,0.024320694992716194,True
50382,68830,0,68831,4251.0,42307.0,41743.0,-0.00671,-0.004392,0.001952,0.525,-1.7325000000000002,-3.2900000000000005,0.89771875,0.113,-0.092625,0.9983125,0.8668125,-0.33237500000000003,-0.6811875000000001,0.9305,0.018303803060736982,0.023846603815152738,True
50383,68831,0,68832,4247.0,42305.0,41742.0,-0.0042699999999999995,-0.0048189999999999995,-0.0021349999999999997,0.47250000000000003,-1.8725000000000003,-3.2375000000000003,0.911875,0.1133125,-0.0895625,1.005125,0.8755625,-0.32865625,-0.6870937500000001,0.927125,0.01816659109563439,0.024204195765246773,True
50384,68832,0,68833,4246.0,42306.0,41739.0,-0.003904,-0.002745,-0.0026839999999999998,0.45500000000000007,-1.995,-3.1850000000000005,0.90325,0.11246875,-0.09159375,0.99925,0.8701875,-0.3313125,-0.68665625,0.9186875,0.01823910033624368,0.024104621297183573,True
50385,68833,0,68834,4242.0,42304.0,41739.0,-0.006161,0.0034159999999999998,0.000244,0.77,-1.8200000000000003,-3.3075,0.90390625,0.11246875,-0.08896875,0.998625,0.88015625,-0.3325625,-0.684625,0.93653125,0.018289534856840498,0.024130658253872603,True
50386,68834,0,68835,4240.0,42308.0,41740.0,-0.00488,0.003477,0.004758,0.8925000000000001,-2.0475000000000003,-3.22,0.9115,0.1143125,-0.0905,1.004375,0.8753125,-0.3288125,-0.68796875,0.93215625,0.01821400037506968,0.02420080631380417,True
50387,68835,0,68836,4240.0,42305.0,41736.0,-0.002623,0.002074,0.005795,0.9275000000000001,-2.2925000000000004,-3.3775000000000004,0.9038125,0.12078125,-0.0924375,1.000875,0.8737812500000001,-0.33040625,-0.68621875,0.9305,0.018544182754860496,0.024053147062062713,True
50388,68836,0,68837,4241.0,42305.0,41738.0,0.003843,0.0025009999999999998,0.005795,0.9975,-2.7825,-3.5000000000000004,0.90378125,0.11078125,-0.091375,0.99875,0.87825,-0.33187500000000003,-0.68421875,0.93253125,0.0181924430402507,0.024017116198988473,True
50389,68837,0,68838,4240.0,42305.0,41737.0,0.0075639999999999995,0.001586,0.000976,0.8750000000000001,-3.2550000000000003,-3.6400000000000006,0.90440625,0.11159375,-0.08934375,0.99871875,0.8796875000000001,-0.32946875000000003,-0.6793750000000001,0.937125,0.018128735342813437,0.02390786841238889,True
50390,68838,0,68839,4239.0,42307.0,41736.0,0.0064659999999999995,-0.00122,-0.003355,0.5425000000000001,-3.2900000000000005,-3.3425000000000002,0.90834375,0.112375,-0.0891875,1.0032812500000001,0.874,-0.32828125,-0.68596875,0.9374375,0.018112921561197426,0.02417491717840727,True
50391,68839,0,68840,4238.0,42306.0,41737.0,0.004514,-0.0021349999999999997,-0.003355,0.525,-2.8175000000000003,-3.1500000000000004,0.89815625,0.11425,-0.09184375,0.99890625,0.87409375,-0.32846875000000003,-0.68784375,0.92990625,0.018197559186703852,0.024141436005321443,True
50392,68840,0,68841,4240.0,42305.0,41733.0,0.000976,-0.0034159999999999998,-0.003294,0.42000000000000004,-2.5375,-3.0975,0.90425,0.11043750000000001,-0.0880625,1.00021875,0.88225,-0.33287500000000003,-0.68103125,0.93171875,0.01821866507759564,0.02402528257404155,True
50393,68841,0,68842,4239.0,42308.0,41737.0,-0.00042699999999999997,-0.0025009999999999998,-0.002196,0.49000000000000005,-2.3275,-3.08,0.9110312500000001,0.10940625,-0.090125,1.004,0.87975,-0.3293125,-0.68571875,0.93815625,0.018032517359460938,0.02412705726868901,True
50394,68842,0,68843,4243.0,42308.0,41737.0,-0.000976,-0.000183,-0.0026839999999999998,0.5425000000000001,-2.1875,-3.1325000000000003,0.9059375000000001,0.1124375,-0.091375,1.00459375,0.87434375,-0.332,-0.68584375,0.92925,0.01826555564688476,0.024081362420516818,True
50395,68843,0,68844,4243.0,42309.0,41739.0,-0.003294,-0.000488,0.0017079999999999999,0.6475000000000001,-1.6800000000000002,-3.115,0.90328125,0.1153125,-0.09353125,0.9947812500000001,0.87153125,-0.325625,-0.68471875,0.9269375,0.018126461293389174,0.023949533555046077,True
50396,68844,0,68845,4241.0,42311.0,41738.0,-0.004331,-0.000183,0.002745,0.7175,-1.8200000000000003,-3.08,0.90640625,0.11471875000000001,-0.0869375,0.99540625,0.88246875,-0.3289375,-0.6844375,0.93515625,0.01823574292958745,0.024205534357426617,True
50397,68845,0,68846,4242.0,42311.0,41736.0,-0.0028669999999999998,-0.000244,0.0037819999999999998,0.7175,-1.9775000000000003,-2.9575000000000005,0.91678125,0.11009375,-0.08762500000000001,1.0104375,0.88215625,-0.3290625,-0.68565625,0.93590625,0.018050685265821483,0.024225859905992977,True
50398,68846,0,68847,4241.0,42309.0,41736.0,-6.1e-05,-6.1e-05,0.002074,0.6475000000000001,-2.1,-2.9575000000000005,0.90028125,0.1179375,-0.094375,0.9964375,0.8731875,-0.3310625,-0.68475,0.9300625,0.018453776936375052,0.023916588176910843,True
50399,68847,0,68848,4242.0,42311.0,41736.0,0.0015249999999999999,0.000976,0.000305,0.5950000000000001,-2.3275,-2.975,0.9001875,0.113625,-0.09253125,1.011125,0.8751875,-0.33284375,-0.6870937500000001,0.92953125,0.018348399989212113,0.024083940621807708,True
50400,68848,0,68849,4241.0,42309.0,41736.0,0.003355,0.001952,-0.0015249999999999999,0.47250000000000003,-2.3275,-2.7300000000000004,0.89978125,0.1143125,-0.0935,1.00340625,0.873625,-0.3328125,-0.687,0.92903125,0.018375393308932127,0.02404099323530603,True
50401,68849,0,68850,4242.0,42309.0,41734.0,0.0026839999999999998,0.0008539999999999999,-0.002074,0.5075000000000001,-2.2925000000000004,-2.6075000000000004,0.898375,0.1084375,-0.0919375,0.98903125,0.8739375,-0.3293125,-0.68559375,0.929875,0.017992699136073,0.02404869236738533,True
50402,68850,0,68851,4240.0,42310.0,41733.0,0.0023179999999999997,0.000122,-0.0032329999999999998,0.7350000000000001,-2.205,-2.6425,0.90346875,0.107625,-0.09115625000000001,0.995,0.88084375,-0.33078125,-0.6839375,0.92978125,0.01801858499714225,0.024014857840245298,True
50403,68851,0,68852,4239.0,42310.0,41732.0,0.002013,-0.0008539999999999999,-0.0025009999999999998,0.77,-1.995,-2.765,0.9019375000000001,0.10640625000000001,-0.08584375,0.99528125,0.87775,-0.33078125,-0.6849375,0.92971875,0.01796849412716659,0.024269607731435414,True
50404,68852,0,68853,4239.0,42310.0,41729.0,0.000122,0.00042699999999999997,0.001037,0.8575,-1.7850000000000001,-2.7475,0.90659375,0.10815625,-0.08746875,0.990125,0.87771875,-0.32484375,-0.6845625,0.930125,0.017800730991334734,0.024188954128719114,True
50405,68853,0,68854,4237.0,42310.0,41729.0,-0.0034159999999999998,-0.004148,-6.1e-05,0.8750000000000001,-1.2600000000000002,-2.6250000000000004,0.9000625,0.10671875,-0.09153125000000001,0.99840625,0.8780625,-0.33046875000000003,-0.6850625,0.92925,0.0179687249141059,0.02404414613088381,True
50406,68854,0,68855,4236.0,42312.0,41731.0,-0.005246,-0.000305,0.0011589999999999999,0.8925000000000001,-0.8225000000000001,-2.66,0.90009375,0.11321875,-0.08503125,1.00196875,0.8737812500000001,-0.33059375,-0.686625,0.9299375,0.018240923528633577,0.024369218149504036,True
50407,68855,0,68856,4233.0,42312.0,41733.0,-0.0048189999999999995,0.0017079999999999999,0.0013419999999999999,0.9450000000000001,-0.6475000000000001,-2.9050000000000002,0.90328125,0.11290625,-0.09265625,0.9989687500000001,0.87334375,-0.3300625,-0.6854375,0.93003125,0.018206642502459663,0.024013398587730116,True
50408,68856,0,68857,4233.0,42311.0,41732.0,-0.004575,0.00183,0.0023179999999999997,0.8575,-0.7350000000000001,-2.9050000000000002,0.90409375,0.11221875,-0.092625,1.00040625,0.87521875,-0.33103125,-0.68565625,0.93015625,0.018217476910272763,0.0240233131335125,True
50409,68857,0,68858,4235.0,42315.0,41731.0,-0.0018909999999999999,0.000183,0.002196,0.8575,-1.05,-2.9400000000000004,0.9048125,0.1126875,-0.09128125000000001,1.0050000000000001,0.8749687500000001,-0.33253125,-0.6850625,0.92978125,0.01829726407933823,0.024054273713100788,True
50410,68858,0,68859,4235.0,42314.0,41733.0,0.0011589999999999999,0.003355,0.00042699999999999997,0.8925000000000001,-1.2950000000000002,-3.2375000000000003,0.8946875,0.113375,-0.09009375,1.00475,0.87471875,-0.33375,-0.6835625,0.9286562500000001,0.018374685364976627,0.024043075224656082,True
50411,68859,0,68860,4234.0,42316.0,41731.0,6.1e-05,0.0008539999999999999,-0.00042699999999999997,0.8750000000000001,-1.1375000000000002,-3.3075,0.904625,0.11246875,-0.09128125000000001,0.99909375,0.86846875,-0.32875,-0.68021875,0.92796875,0.0181356933669013,0.023862734198820665,True
50412,68860,0,68861,4235.0,42315.0,41732.0,-0.000549,-0.00061,0.0011589999999999999,0.8750000000000001,-1.33,-3.1850000000000005,0.91040625,0.11009375,-0.08996875,1.00671875,0.879375,-0.32834375,-0.6893125,0.9194687500000001,0.0180216748211641,0.02427543294289786,True
50413,68861,0,68862,4234.0,42315.0,41732.0,0.0018909999999999999,-0.001037,0.0013419999999999999,0.7525000000000001,-1.5750000000000002,-3.2375000000000003,0.90853125,0.1121875,-0.08990625000000001,1.0000625,0.86834375,-0.342,-0.68571875,0.9223750000000001,0.018658594199326268,0.024135918667549435,True
50414,68862,0,68863,4234.0,42314.0,41730.0,0.004148,-0.001769,0.0018909999999999999,0.56,-1.61,-3.2900000000000005,0.91278125,0.1130625,-0.09090625000000001,1.0008125,0.86159375,-0.33315625,-0.69140625,0.92725,0.018337890301427708,0.024320202499604496,True
50415,68863,0,68864,4235.0,42317.0,41730.0,0.002379,0.000244,-0.0017079999999999999,0.36750000000000005,-1.61,-3.2375000000000003,0.9111250000000001,0.11106250000000001,-0.089375,0.999,0.8564375,-0.32665625,-0.685625,0.9549375,0.01799337917639215,0.024153733194926197,True
50416,68864,0,68865,4236.0,42314.0,41733.0,-0.002074,0.00122,-0.003477,0.35000000000000003,-1.1725,-3.3075,0.90371875,0.115625,-0.09265625,1.00696875,0.887125,-0.3324375,-0.6780625,0.9199375000000001,0.018414205317490284,0.023721726533434302,True
50417,68865,0,68866,4237.0,42316.0,41733.0,-0.003965,0.0011589999999999999,-0.001647,0.42000000000000004,-0.8400000000000001,-3.3600000000000003,0.89915625,0.11078125,-0.0913125,0.99871875,0.8719687500000001,-0.3264375,-0.6851875000000001,0.94834375,0.01797298720784743,0.024057949732000213,True
50418,68866,0,68867,4238.0,42317.0,41738.0,-0.004575,0.0006709999999999999,-0.000549,0.45500000000000007,-0.9625000000000001,-3.43,0.9040312500000001,0.117125,-0.09003125000000001,1.0056875,0.899,-0.33221875,-0.68640625,0.91196875,0.018467027385244104,0.0241580323178875,True
50419,68867,0,68868,4239.0,42319.0,41738.0,-0.0044529999999999995,-0.00122,-0.000793,0.4025,-1.0850000000000002,-3.5175000000000005,0.91246875,0.11,-0.09271875,0.9985625,0.8611562500000001,-0.3258125,-0.68290625,0.93103125,0.01791564002230141,0.02391077833470279,True
50420,68868,0,68869,4239.0,42320.0,41738.0,-0.0018909999999999999,6.1e-05,0.0018909999999999999,0.5075000000000001,-1.2950000000000002,-3.8500000000000005,0.90390625,0.1129375,-0.0896875,1.00559375,0.889,-0.335625,-0.6856875,0.9191875,0.018432339420088862,0.02414354471594117,True
50421,68869,0,68870,4240.0,42321.0,41739.0,-0.000488,0.000549,0.001464,0.6475000000000001,-1.5050000000000001,-3.9025000000000003,0.91209375,0.11046875,-0.0879375,0.99925,0.8611875,-0.3266875,-0.6848125,0.94178125,0.017970233308583425,0.024179847426428702,True
50422,68870,0,68871,4241.0,42320.0,41738.0,0.0021349999999999997,-6.1e-05,0.002379,0.6300000000000001,-1.9250000000000003,-3.9200000000000004,0.9034375,0.1125625,-0.0908125,1.00340625,0.8805625,-0.33171875,-0.68284375,0.9352812500000001,0.0182593451192181,0.023985536512582752,True
50423,68871,0,68872,4242.0,42321.0,41740.0,0.003111,-6.1e-05,0.0017079999999999999,0.56,-2.1700000000000004,-4.0425,0.91134375,0.11812500000000001,-0.09025,0.99884375,0.8734375,-0.32996875000000003,-0.68490625,0.93015625,0.018417358222048687,0.024089872733464406,True
50424,68872,0,68873,4244.0,42323.0,41742.0,0.004392,0.000732,0.001403,0.2625,-2.2750000000000004,-4.112500000000001,0.905,0.11225,-0.09125,1.00434375,0.881,-0.3304375,-0.68696875,0.9343125,0.0181948022923961,0.02413089901934599,True
50425,68873,0,68874,4245.0,42323.0,41741.0,0.00244,-0.00042699999999999997,-0.0050019999999999995,0.14,-2.3275,-3.9725000000000006,0.9100625,0.11390625,-0.09040625000000001,0.99853125,0.86821875,-0.32915625,-0.68496875,0.9298125,0.01821117409281302,0.024086013882436048,True
50426,68874,0,68875,4245.0,42324.0,41740.0,0.002257,-0.000488,-0.003294,0.2625,-2.1175,-4.0425,0.904375,0.1136875,-0.08953125,0.9996875000000001,0.8735625,-0.3291875,-0.6890937500000001,0.9349375,0.01820344390867965,0.02428450821529243,True
50427,68875,0,68876,4247.0,42324.0,41743.0,0.001037,-0.00061,-0.003172,0.22750000000000004,-1.995,-4.0075,0.9100312500000001,0.110625,-0.08621875,0.99946875,0.8794062500000001,-0.32378125,-0.685,0.929625,0.017859322345287084,0.02425688677334414,True
50428,68876,0,68877,4249.0,42327.0,41743.0,0.001037,-0.002806,0.000793,0.31500000000000006,-2.0125,-3.9375000000000004,0.904,0.113,-0.0906875,1.001875,0.8729375,-0.325625,-0.68778125,0.935625,0.018031396932247375,0.02418580041493198,True
50429,68877,0,68878,4251.0,42328.0,41743.0,0.000915,-0.00183,0.000732,0.36750000000000005,-1.8375000000000001,-3.8850000000000002,0.90990625,0.1165,-0.0895625,0.999,0.8735,-0.32953125,-0.6858125,0.933,0.01833291588797051,0.024153549736311092,True
50430,68878,0,68879,4252.0,42326.0,41744.0,-0.002379,0.002379,0.000244,0.35000000000000003,-1.3650000000000002,-3.8500000000000005,0.90325,0.112125,-0.08784375,0.9995,0.881,-0.33137500000000003,-0.6824375,0.92959375,0.018227494336016767,0.024089750050010256,True
50431,68879,0,68880,4253.0,42330.0,41746.0,-0.0042699999999999995,0.001952,0.003477,0.36750000000000005,-1.1900000000000002,-3.8325000000000005,0.90440625,0.113125,-0.0861875,1.00228125,0.874375,-0.3306875,-0.68796875,0.93715625,0.018240853243460548,0.024375486541394785,True
50432,68880,0,68881,4253.0,42331.0,41749.0,-0.004575,-0.000976,0.002928,0.1925,-1.3650000000000002,-3.9025000000000003,0.91721875,0.11453125,-0.09240625,0.9915625,0.8795625,-0.3313125,-0.684625,0.928625,0.018323867649967504,0.023991401530304796,True
50433,68881,0,68882,4256.0,42332.0,41751.0,-0.001586,-0.001586,0.0008539999999999999,0.10500000000000001,-1.7325000000000002,-3.7800000000000002,0.9028125,0.11346875000000001,-0.0863125,0.99928125,0.8729375,-0.3296875,-0.6855625,0.9306562500000001,0.018214629760452124,0.0242753228734407,True
50434,68882,0,68883,4256.0,42333.0,41751.0,0.002013,0.000793,-0.0008539999999999999,0.035,-1.9250000000000003,-3.9550000000000005,0.9119375000000001,0.10734375,-0.0926875,1.00628125,0.8827812500000001,-0.330125,-0.688375,0.936,0.01798053852990891,0.02412825874525966,True
50435,68883,0,68884,4255.0,42333.0,41753.0,0.0040869999999999995,0.000305,-0.0032329999999999998,0.07,-2.1,-3.8500000000000005,0.8985625,0.11078125,-0.0971875,1.0144375,0.88184375,-0.3290625,-0.68765625,0.9355625000000001,0.01807894365021258,0.023917570141961126,True
50436,68884,0,68885,4258.0,42334.0,41753.0,0.002623,-0.00061,-0.00183,0.21000000000000002,-1.8375000000000001,-3.8850000000000002,0.90671875,0.114875,-0.08687500000000001,0.99925,0.8736875000000001,-0.32896875000000003,-0.686,0.93178125,0.018243426368000082,0.024269829052904483,True
50437,68885,0,68886,4259.0,42335.0,41753.0,0.002989,-0.0006709999999999999,-6.1e-05,0.3325,-1.6275000000000002,-3.8850000000000002,0.9150312500000001,0.106125,-0.09078125000000001,1.001875,0.8825000000000001,-0.330125,-0.6844375,0.93015625,0.017930446308845518,0.024049818838286267,True
50438,68886,0,68887,4260.0,42334.0,41757.0,0.000793,-0.0023179999999999997,-0.000549,0.31500000000000006,-1.5050000000000001,-3.8850000000000002,0.89734375,0.11453125,-0.091125,0.99690625,0.87340625,-0.329625,-0.687,0.93775,0.01825577870600143,0.02413719771539677,True
50439,68887,0,68888,4261.0,42335.0,41756.0,-0.003172,-0.0017079999999999999,-0.0023179999999999997,0.2625,-1.225,-3.7800000000000002,0.9216875,0.10471875,-0.0828125,0.99225,0.88165625,-0.3325,-0.68503125,0.92015625,0.017968509195520396,0.024396110497125662,True
50440,68888,0,68889,4263.0,42336.0,41756.0,-0.0030499999999999998,-0.003904,0.0,0.4025,-0.8575,-3.5700000000000003,0.9049375000000001,0.1070625,-0.0970625,1.008875,0.875375,-0.33190625,-0.68303125,0.92134375,0.018040869691415978,0.023739740231459618,True
50441,68889,0,68890,4262.0,42336.0,41752.0,-0.000976,6.1e-05,0.000976,0.42000000000000004,-0.77,-3.6400000000000006,0.89934375,0.11496875000000001,-0.09165625000000001,1.0140625,0.8724375,-0.3285,-0.68596875,0.92496875,0.01822836385309411,0.024074910975490884,True
50442,68890,0,68891,4258.0,42335.0,41745.0,0.000488,0.00042699999999999997,-0.00042699999999999997,0.35000000000000003,-0.8400000000000001,-3.6050000000000004,0.91659375,0.10728125000000001,-0.089625,0.99540625,0.87934375,-0.33253125,-0.681625,0.92978125,0.018075082098168476,0.023985454766450753,True
50443,68891,0,68892,4255.0,42331.0,41741.0,0.000549,-0.002379,0.000122,0.29750000000000004,-0.8925000000000001,-3.6225000000000005,0.8969375,0.11515625,-0.0884375,0.99540625,0.8730625,-0.3296875,-0.6859375,0.93590625,0.01828398946760003,0.024204063548325837,True
50444,68892,0,68893,4250.0,42332.0,41735.0,-0.000122,0.0028669999999999998,0.001647,0.2625,-0.77,-3.6575,0.9070312500000001,0.11234375,-0.0935,1.0050937500000001,0.88090625,-0.33390625,-0.686125,0.9353750000000001,0.018338609322126408,0.024006400356475548,True
50445,68893,0,68894,4247.0,42327.0,41727.0,-0.0013419999999999999,0.002745,0.004209,0.5425000000000001,-0.45500000000000007,-3.5875000000000004,0.9084375,0.11134375,-0.08637500000000001,1.0052812500000001,0.87075,-0.32915625,-0.68478125,0.9295,0.018105847793221354,0.024241910185045696,True
50446,68894,0,68895,4242.0,42328.0,41723.0,-0.000183,0.0017079999999999999,0.0034159999999999998,0.49000000000000005,-0.6125,-3.5875000000000004,0.9107500000000001,0.109875,-0.0885,1.00053125,0.8663125,-0.3291875,-0.68525,0.9301875000000001,0.01804673912764247,0.024174355131100556,True
50447,68895,0,68896,4238.0,42328.0,41720.0,-0.000915,0.003172,0.001281,0.42000000000000004,-0.8750000000000001,-3.5875000000000004,0.903625,0.1164375,-0.0885,0.9980625000000001,0.873625,-0.33015625,-0.6845625,0.9294375,0.018355564403742784,0.024147177005871583,True
50448,68896,0,68897,4235.0,42327.0,41715.0,-0.000976,0.004026,0.000732,0.47250000000000003,-0.9450000000000001,-3.6925000000000003,0.90275,0.11303125,-0.09053125000000001,0.99865625,0.87353125,-0.3295625,-0.68821875,0.93478125,0.01819160332209015,0.02420942175101231,True
50449,68897,0,68898,4230.0,42326.0,41716.0,-0.003721,-0.00061,0.000793,0.45500000000000007,-0.8575,-3.5175000000000005,0.90959375,0.10990625,-0.09196875,1.00315625,0.882625,-0.32871875,-0.6845,0.9299375,0.018029103978194495,0.024004182786769024,True
50450,68898,0,68899,4229.0,42326.0,41713.0,-0.003721,-0.000976,0.00183,0.525,-0.8750000000000001,-3.5175000000000005,0.9036875,0.11325,-0.09,1.0033125,0.8734375,-0.3298125,-0.6878125,0.93725,0.018210682881341565,0.02421488335590689,True
50451,68899,0,68900,4228.0,42327.0,41716.0,-0.003721,0.000305,0.001769,0.525,-0.9800000000000001,-3.535,0.9100312500000001,0.1134375,-0.09,1.00334375,0.8726875000000001,-0.3288125,-0.6855,0.93665625,0.018178034788997613,0.02412347329403901,True
50452,68900,0,68901,4226.0,42325.0,41716.0,-0.002745,0.000915,0.00122,0.5425000000000001,-1.1900000000000002,-3.7975000000000003,0.9095625,0.11265625,-0.093625,0.9981875,0.8635625,-0.32475,-0.6885,0.9285,0.017981942260454884,0.024095226522469978,True
50453,68901,0,68902,4225.0,42325.0,41716.0,-0.000366,0.000793,-0.000122,0.47250000000000003,-1.54,-3.8675,0.9031875,0.11131250000000001,-0.092125,0.9911562500000001,0.878125,-0.33228125000000003,-0.68459375,0.9295625000000001,0.018230668363657845,0.02400155967727846,True
50454,68902,0,68903,4224.0,42326.0,41713.0,0.003477,-0.0023179999999999997,-0.00183,0.43750000000000006,-2.1875,-3.8500000000000005,0.90553125,0.11021875,-0.08965625,0.9985937500000001,0.88271875,-0.33037500000000003,-0.6851875000000001,0.93590625,0.018108794048591524,0.024125044624433177,True
50455,68903,0,68904,4224.0,42328.0,41717.0,0.0073809999999999995,-0.002074,-0.001403,0.31500000000000006,-2.4850000000000003,-4.0075,0.9045,0.113,-0.09040625000000001,1.004375,0.8759687500000001,-0.3290625,-0.68103125,0.93603125,0.018170141163474752,0.023930320982839804,True
50456,68904,0,68905,4223.0,42329.0,41717.0,0.007808,-0.003843,-0.0048189999999999995,0.17500000000000002,-2.2925000000000004,-3.8850000000000002,0.9040625,0.11146875,-0.09381250000000001,1.00465625,0.87375,-0.3306875,-0.684125,0.9271875,0.01817278077325189,0.023914661751226748,True
50457,68905,0,68906,4224.0,42325.0,41717.0,0.003965,-0.002196,-0.004697,0.12250000000000001,-1.9425000000000001,-3.8500000000000005,0.9038437500000001,0.11334375000000001,-0.09109375,1.00478125,0.87265625,-0.32975,-0.67978125,0.92925,0.01821201409796648,0.023853027465549355,True
50458,68906,0,68907,4225.0,42327.0,41717.0,0.000305,-0.000976,-0.000976,0.21000000000000002,-1.3650000000000002,-3.8325000000000005,0.898625,0.1128125,-0.09046875,1.00496875,0.8735,-0.32859375,-0.68771875,0.93696875,0.018143516823696398,0.024192190702107708,True
50459,68907,0,68908,4226.0,42327.0,41717.0,-0.004209,0.000549,0.00042699999999999997,0.22750000000000004,-1.1900000000000002,-3.6750000000000003,0.90828125,0.11334375000000001,-0.09109375,1.0053750000000001,0.86928125,-0.32978125,-0.67921875,0.9342812500000001,0.018213275139906983,0.023830778678923942,True
50460,68908,0,68909,4227.0,42329.0,41719.0,-0.002623,0.0018909999999999999,0.000183,0.3325,-1.4000000000000001,-3.9375000000000004,0.9089375000000001,0.11346875000000001,-0.0896875,0.9929687500000001,0.87440625,-0.3294375,-0.68621875,0.93034375,0.018204541309267835,0.024164545248550873,True
50461,68909,0,68910,4228.0,42329.0,41722.0,-0.00122,0.003294,0.0017079999999999999,0.49000000000000005,-1.8025000000000002,-3.99,0.8958125,0.11296875,-0.09078125000000001,1.00421875,0.87415625,-0.32959375,-0.686625,0.9333750000000001,0.018190295512024324,0.02413629850171905,True
50462,68910,0,68911,4229.0,42334.0,41722.0,0.001769,0.0017079999999999999,0.004148,0.5075000000000001,-1.8550000000000002,-3.8325000000000005,0.9076875,0.11259375,-0.0930625,1.00178125,0.8735,-0.3291875,-0.6873750000000001,0.92975,0.018158487619037832,0.0240735396128588,True
50463,68911,0,68912,4230.0,42332.0,41724.0,0.002806,-0.001403,0.001281,0.35000000000000003,-2.0300000000000002,-3.9375000000000004,0.90396875,0.11328125,-0.09153125000000001,1.00246875,0.8735,-0.3301875,-0.68390625,0.92984375,0.018227099565097885,0.023998430151224548,True
50464,68912,0,68913,4230.0,42334.0,41725.0,0.002562,0.000305,-0.002562,0.4025,-1.8550000000000002,-3.7100000000000004,0.90409375,0.11303125,-0.09071875,1.0021875,0.87353125,-0.3296875,-0.6871875000000001,0.9296562500000001,0.018196647614154522,0.02416106532994089,True
50465,68913,0,68914,4231.0,42333.0,41723.0,0.0017079999999999999,0.001037,-0.00183,0.31500000000000006,-1.6275000000000002,-3.7625,0.9040625,0.11321875,-0.0890625,1.00175,0.87346875,-0.3298125,-0.68971875,0.9234687500000001,0.018209398448919407,0.024328193288957575,True
50466,68914,0,68915,4232.0,42333.0,41724.0,-0.001464,-0.001586,-0.001281,0.35000000000000003,-1.5225000000000002,-3.6225000000000005,0.9038437500000001,0.11321875,-0.08946875,1.00178125,0.87346875,-0.32871875,-0.69103125,0.9330625,0.01816525993585256,0.024363603687067543,True
50467,68915,0,68916,4232.0,42333.0,41724.0,-0.003111,-0.002562,-0.000915,0.36750000000000005,-1.4000000000000001,-3.5175000000000005,0.90771875,0.113125,-0.0916875,0.9990625000000001,0.871375,-0.32803125,-0.6885,0.92590625,0.01813366011686622,0.024173704356279236,True
50468,68916,0,68917,4230.0,42336.0,41722.0,-0.002623,-0.000122,0.001037,0.5425000000000001,-1.1025,-3.6400000000000006,0.904875,0.11153125,-0.08884375,0.9995,0.87915625,-0.33565625,-0.6831875000000001,0.92578125,0.018375814295125078,0.024078889730104757,True
50469,68917,0,68918,4230.0,42336.0,41723.0,-0.00122,0.000305,0.002623,0.5950000000000001,-1.4175000000000002,-3.6925000000000003,0.9034375,0.11065625,-0.0883125,0.9878750000000001,0.8801875,-0.33237500000000003,-0.6825625,0.92534375,0.018207480774071583,0.024075701216192603,True
50470,68918,0,68919,4231.0,42337.0,41721.0,6.1e-05,0.0013419999999999999,0.0006709999999999999,0.525,-1.5225000000000002,-3.7275000000000005,0.8995625,0.10140625,-0.09053125000000001,0.9923125,0.87284375,-0.33384375,-0.6819375,0.9256562500000001,0.01788661111132515,0.02396109503153875,True
50471,68919,0,68920,4229.0,42337.0,41721.0,0.000366,0.0018909999999999999,0.001769,0.56,-1.4700000000000002,-3.8325000000000005,0.90646875,0.1046875,-0.092125,0.9825,0.88,-0.33521875,-0.68215625,0.9247500000000001,0.018076938387907443,0.023905174411170016,True
50472,68920,0,68921,4228.0,42337.0,41722.0,0.0013419999999999999,0.0013419999999999999,0.0015249999999999999,0.43750000000000006,-1.5225000000000002,-3.7275000000000005,0.8961250000000001,0.1044375,-0.09153125000000001,0.98784375,0.8739375,-0.334,-0.6851875000000001,0.9260625,0.01801748582230624,0.024049088142433592,True
50473,68921,0,68922,4228.0,42335.0,41720.0,0.001586,0.000732,0.0,0.4025,-1.6975000000000002,-3.6400000000000006,0.906,0.10340625,-0.084875,0.9924375,0.88284375,-0.33403125,-0.68278125,0.931125,0.017976367972322715,0.024223617425609197,True
50474,68922,0,68923,4230.0,42333.0,41720.0,0.0013419999999999999,-0.0006709999999999999,-0.0021349999999999997,0.17500000000000002,-1.8725000000000003,-3.5525,0.9218125,0.1071875,-0.084625,0.9939375,0.88784375,-0.32753125,-0.6791875,0.93278125,0.017869414924705933,0.024091656177902942,True
50475,68923,0,68924,4226.0,42338.0,41719.0,-0.000244,-0.000549,-0.0035989999999999998,0.17500000000000002,-1.6450000000000002,-3.5875000000000004,0.9284687500000001,0.10187500000000001,-0.08878125,0.9871562500000001,0.8861875,-0.334125,-0.68221875,0.917625,0.017917225295752365,0.024043118084754837,True
50476,68924,0,68925,4226.0,42336.0,41723.0,-0.0015249999999999999,-0.0006709999999999999,-0.0025009999999999998,0.24500000000000002,-1.6275000000000002,-3.535,0.88315625,0.10646875,-0.09834375000000001,1.011875,0.874625,-0.33621875,-0.67975,0.92515625,0.01819047998161177,0.023558028343074786,True
50477,68925,0,68926,4227.0,42339.0,41721.0,-0.0006709999999999999,-0.00122,-0.0015249999999999999,0.47250000000000003,-1.54,-3.5000000000000004,0.90659375,0.1169375,-0.08790625,1.02346875,0.8609375,-0.32784375,-0.6845,0.93490625,0.018282806095381965,0.024168759748020015,True
50478,68926,0,68927,4229.0,42337.0,41723.0,0.000915,-0.001281,0.000244,0.5075000000000001,-1.61,-3.6575,0.9148125,0.11684375,-0.085,1.0158125,0.8736875000000001,-0.32365625000000003,-0.68515625,0.93271875,0.018109941839027595,0.02431243472481565,True
50479,68927,0,68928,4228.0,42336.0,41723.0,0.000305,-0.000488,0.0015249999999999999,0.4025,-1.4525000000000001,-3.6750000000000003,0.911375,0.1154375,-0.09406250000000001,1.0144375,0.86403125,-0.3251875,-0.6893125,0.9333750000000001,0.01811394054002667,0.024109622331525027,True
50480,68928,0,68929,4229.0,42339.0,41722.0,-0.0011589999999999999,0.001037,0.003538,0.385,-1.2425000000000002,-3.6225000000000005,0.911375,0.11628125,-0.09190625000000001,1.00365625,0.87353125,-0.32987500000000003,-0.68853125,0.93290625,0.018337794583819275,0.02416607913846637,True
50481,68929,0,68930,4229.0,42339.0,41724.0,-0.0023179999999999997,0.000793,0.001647,0.47250000000000003,-1.2600000000000002,-3.6750000000000003,0.89453125,0.11303125,-0.0895,1.00046875,0.8729687500000001,-0.32937500000000003,-0.6870625,0.92890625,0.018184036786806072,0.024205492249229733,True
50482,68930,0,68931,4230.0,42342.0,41724.0,-0.001769,0.000976,-0.0013419999999999999,0.3325,-1.435,-3.7275000000000005,0.89996875,0.113375,-0.09259375,0.9983125,0.86621875,-0.33265625,-0.68378125,0.92971875,0.018330561424012227,0.02395044316802151,True
50483,68931,0,68932,4232.0,42341.0,41726.0,-0.001403,0.001464,-0.0017079999999999999,0.35000000000000003,-1.4875,-3.7625,0.9033125000000001,0.114125,-0.088625,0.9989687500000001,0.88253125,-0.3295,-0.68440625,0.93353125,0.0182340368688218,0.0241359360223623,True
50484,68932,0,68933,4233.0,42343.0,41728.0,-0.000122,-0.000793,0.0013419999999999999,0.3325,-1.5050000000000001,-3.7975000000000003,0.9041250000000001,0.11340625,-0.0850625,0.9950625000000001,0.8768125,-0.32846875000000003,-0.6821875000000001,0.93540625,0.01816287759582074,0.024192547763442766,True
50485,68933,0,68934,4234.0,42343.0,41731.0,-0.000183,-0.000366,0.000183,0.29750000000000004,-1.4875,-3.7800000000000002,0.9038437500000001,0.11296875,-0.09009375,0.99803125,0.87303125,-0.32309375,-0.68878125,0.9354687500000001,0.01792792086738555,0.02424937439955648,True
50486,68934,0,68935,4234.0,42345.0,41732.0,-0.000366,0.00042699999999999997,-0.0008539999999999999,0.43750000000000006,-1.5925000000000002,-3.7975000000000003,0.9113125,0.10975,-0.0895,1.00059375,0.87328125,-0.32887500000000003,-0.68596875,0.93578125,0.018028988187904292,0.024162258165379875,True
50487,68935,0,68936,4236.0,42349.0,41735.0,0.000244,-0.000305,0.001952,0.49000000000000005,-1.7500000000000002,-3.9725000000000006,0.9098437500000001,0.1135625,-0.090125,0.9949687500000001,0.8735625,-0.3294375,-0.6881875000000001,0.93596875,0.018208394665926823,0.024224641845416964,True
50488,68936,0,68937,4238.0,42349.0,41734.0,0.0035989999999999998,-0.000244,0.001281,0.42000000000000004,-2.1,-4.095000000000001,0.9088437500000001,0.11434375000000001,-0.0899375,1.0049375,0.8738125,-0.3294375,-0.6884375,0.92953125,0.01824050597141837,0.024242117387947296,True
50489,68937,0,68938,4238.0,42349.0,41736.0,0.001769,0.001037,-0.001647,0.31500000000000006,-1.7850000000000001,-4.077500000000001,0.90971875,0.11340625,-0.09403125,1.00296875,0.8745,-0.3301875,-0.68659375,0.928875,0.018232237215598933,0.024003412783507243,True
50490,68938,0,68939,4239.0,42350.0,41737.0,-0.0013419999999999999,-0.0006709999999999999,-0.00122,0.49000000000000005,-1.6450000000000002,-4.025,0.9039375000000001,0.112375,-0.0900625,1.0044375,0.87390625,-0.3323125,-0.68615625,0.9296875,0.018275595465905677,0.024146883944315956,True
50491,68939,0,68940,4242.0,42349.0,41737.0,-0.0008539999999999999,-0.001647,-0.000549,0.56,-1.8025000000000002,-3.8150000000000004,0.9041875,0.11296875,-0.0934375,1.00446875,0.86665625,-0.3296875,-0.68721875,0.92078125,0.018194078736112004,0.02405217274627179,True
50492,68940,0,68941,4242.0,42355.0,41740.0,0.000732,-0.001098,-0.001037,0.43750000000000006,-1.7675,-3.7800000000000002,0.904,0.10996875,-0.0933125,1.002125,0.88003125,-0.3306875,-0.6850625,0.929625,0.018111130234194986,0.023971987107587838,True
50493,68941,0,68942,4243.0,42356.0,41743.0,0.003843,-0.000305,-0.0021349999999999997,0.43750000000000006,-1.8725000000000003,-3.7800000000000002,0.90115625,0.11225,-0.09015625000000001,1.0066875,0.87415625,-0.33309375,-0.6838125,0.9299375,0.018301978144476594,0.02405042778541605,True
50494,68942,0,68943,4244.0,42354.0,41742.0,-0.000366,0.002074,0.0040869999999999995,0.5075000000000001,-1.4000000000000001,-3.8850000000000002,0.9095,0.113,-0.08925,0.99840625,0.87309375,-0.33003125,-0.68584375,0.9360937500000001,0.018209234729199122,0.024167444144986942,True
50495,68943,0,68944,4247.0,42356.0,41748.0,-0.003111,0.002989,0.0026839999999999998,0.47250000000000003,-1.1900000000000002,-3.6925000000000003,0.90475,0.11106250000000001,-0.08821875,0.9891562500000001,0.87996875,-0.32887500000000003,-0.68396875,0.9296875,0.018082936428420963,0.02413509780512909,True
50496,68944,0,68945,4247.0,42359.0,41747.0,-0.0051849999999999995,0.0008539999999999999,0.0017079999999999999,0.56,-1.225,-3.6575,0.90396875,0.11143750000000001,-0.09184375,1.00265625,0.8795625,-0.3291875,-0.6843750000000001,0.92903125,0.018110962398559347,0.024004304342321817,True
50497,68945,0,68946,4248.0,42359.0,41750.0,-0.003355,-0.000976,0.00042699999999999997,0.45500000000000007,-1.3475000000000001,-3.7450000000000006,0.90328125,0.11271875,-0.091875,0.99490625,0.87003125,-0.33187500000000003,-0.68746875,0.93025,0.01827207110015155,0.024125346994110116,True
50498,68946,0,68947,4250.0,42361.0,41753.0,-0.00183,-0.002013,-0.00122,0.4025,-1.54,-3.8325000000000005,0.8985625,0.11328125,-0.08925,0.99053125,0.8737812500000001,-0.33125,-0.684125,0.927875,0.018269971744156177,0.024099497146445336,True
50499,68947,0,68948,4250.0,42360.0,41754.0,0.0046359999999999995,-0.000244,-0.0025009999999999998,0.36750000000000005,-2.1,-3.8675,0.9020312500000001,0.11103125,-0.08940625,0.99240625,0.8764375,-0.3249375,-0.6855,0.9340937500000001,0.017922707920626724,0.024147525875513963,True
50500,68948,0,68949,4252.0,42360.0,41753.0,0.006039,0.0026839999999999998,-0.000793,0.36750000000000005,-2.0125,-3.8325000000000005,0.90609375,0.11403125,-0.09065625000000001,0.9989375,0.8622500000000001,-0.33215625,-0.68453125,0.9309375,0.018337359641112775,0.02405858932403264,True
50501,68949,0,68950,4252.0,42361.0,41755.0,0.003721,0.002074,0.000366,0.4025,-1.6800000000000002,-3.8150000000000004,0.90971875,0.1130625,-0.08696875,0.99834375,0.8737812500000001,-0.32984375,-0.6850625,0.9294687500000001,0.018204237337118123,0.024228974506343662,True
50502,68950,0,68951,4255.0,42360.0,41755.0,0.001586,0.00122,0.0,0.5425000000000001,-1.5050000000000001,-3.6575,0.907625,0.11221875,-0.0899375,0.9985625,0.88265625,-0.3300625,-0.6899375,0.93,0.018178385279528152,0.024301398089808853,True
50503,68951,0,68952,4254.0,42362.0,41758.0,-0.002928,-0.000549,0.0025009999999999998,0.5075000000000001,-1.225,-3.7100000000000004,0.91159375,0.1135625,-0.090625,1.00678125,0.88734375,-0.3298125,-0.689125,0.9286875,0.018223527205563136,0.02424144233544121,True
50504,68952,0,68953,4257.0,42364.0,41756.0,-0.002013,-0.0013419999999999999,0.002074,0.5075000000000001,-1.155,-3.5175000000000005,0.9034375,0.11259375,-0.091875,1.00375,0.8745,-0.3368125,-0.68265625,0.92415625,0.01846610972574983,0.023935075869316126,True
50505,68953,0,68954,4259.0,42363.0,41757.0,0.000122,-0.001464,-0.000122,0.28,-1.2075,-3.5700000000000003,0.90346875,0.11240625,-0.09153125000000001,1.0069062500000001,0.8721875,-0.3341875,-0.67590625,0.915875,0.018352523584360483,0.02368200762636631,True
50506,68954,0,68955,4256.0,42363.0,41754.0,-0.001464,-0.002257,-0.0048189999999999995,0.08750000000000001,-1.1375000000000002,-3.4825000000000004,0.9040625,0.11325,-0.094,0.99784375,0.8748750000000001,-0.331,-0.6824687500000001,0.9284375,0.018258600139739428,0.023841567711900782,True
50507,68955,0,68956,4252.0,42360.0,41745.0,-0.001769,-0.001464,-0.00366,0.12250000000000001,-0.9450000000000001,-3.535,0.8955625,0.11190625,-0.09,0.9988125,0.890125,-0.33265625,-0.6823125,0.930125,0.01827020015539816,0.023997447564931367,True
50508,68956,0,68957,4250.0,42358.0,41742.0,-0.003111,-0.001769,0.00042699999999999997,0.1925,-0.9100000000000001,-3.4825000000000004,0.90275,0.11193750000000001,-0.0920625,0.99565625,0.8884062500000001,-0.32837500000000003,-0.68125,0.9236562500000001,0.018098722171127336,0.023871866295264624,True
50509,68957,0,68958,4244.0,42358.0,41735.0,-0.000488,0.0,0.002928,0.22750000000000004,-1.0675000000000001,-3.6225000000000005,0.88990625,0.10909375,-0.0916875,0.99521875,0.8921875,-0.32590625,-0.6828125,0.9440625,0.017882170371350502,0.02394885104766728,True
50510,68958,0,68959,4240.0,42355.0,41729.0,0.000549,0.0018909999999999999,0.001769,0.3325,-1.0675000000000001,-3.8675,0.89734375,0.112375,-0.0916875,1.0029375,0.87990625,-0.33234375,-0.6816875,0.92415625,0.01827685629338522,0.023904362292894277,True
50511,68959,0,68960,4236.0,42354.0,41729.0,0.000122,0.003172,-0.000793,0.43750000000000006,-1.1375000000000002,-3.7800000000000002,0.90378125,0.1131875,-0.089125,1.00496875,0.885,-0.33603125,-0.68115625,0.92390625,0.018458997910762463,0.02398717645167049,True
50512,68960,0,68961,4232.0,42353.0,41724.0,0.000183,0.003721,0.0008539999999999999,0.5775,-1.1375000000000002,-3.7450000000000006,0.89859375,0.11303125,-0.092,1.00565625,0.88790625,-0.32803125,-0.68125,0.924,0.018129806537468998,0.023874398581919476,True
50513,68961,0,68962,4228.0,42351.0,41720.0,0.000549,0.000366,0.0040869999999999995,0.5950000000000001,-1.2425000000000002,-3.7100000000000004,0.90759375,0.11303125,-0.090875,1.00721875,0.86884375,-0.33509375,-0.6854375,0.924875,0.01841476365793742,0.024085556514848075,True
50514,68962,0,68963,4224.0,42352.0,41720.0,0.000488,-0.0006709999999999999,0.000488,0.385,-1.2775,-3.7450000000000006,0.9068125,0.11340625,-0.0931875,1.00209375,0.865625,-0.336625,-0.68490625,0.9253125,0.018491933454207393,0.023970872889176965,True
50515,68963,0,68964,4221.0,42350.0,41719.0,-0.0013419999999999999,0.0021349999999999997,-0.00183,0.4025,-1.2950000000000002,-3.7275000000000005,0.8990625,0.1133125,-0.09321875,0.9987812500000001,0.878625,-0.32909375,-0.68021875,0.9275,0.01818424699851387,0.02378423003240196,True
50516,68964,0,68965,4218.0,42353.0,41719.0,-0.001769,0.0044529999999999995,-0.0015249999999999999,0.49000000000000005,-1.3125000000000002,-3.8850000000000002,0.90453125,0.1123125,-0.092,0.99875,0.8805000000000001,-0.3253125,-0.6843125,0.9285,0.017990519135160133,0.02399550321687104,True
50517,68965,0,68966,4218.0,42351.0,41717.0,-0.0037819999999999998,0.000976,0.000915,0.45500000000000007,-1.435,-4.0425,0.903625,0.11106250000000001,-0.092125,0.99840625,0.87984375,-0.3314375,-0.6844375,0.9286562500000001,0.018186348422693892,0.023995381705578665,True
