frame_seq,absolute_seq_u64,segment_id,sample_seq,PPG_G,PPG_R,PPG_IR,ACC_X,ACC_Y,ACC_Z,GYRO_X,GYRO_Y,GYRO_Z,Uh1,Uh2,Uh3,Uh4,Uc1,Uc2,Uc3,Uc4,UD1,UD2,parser_valid
46511,44707,0,44708,4311.0,40223.0,40802.0,0.002196,-0.00244,0.0035989999999999998,0.47250000000000003,-2.31,-4.025,0.90259375,0.20146875,0.121125,1.10975,0.8609687500000001,-0.29515625,-0.36753125000000003,1.09,0.020441317392227102,0.020053580520185032,True
46512,44708,0,44709,4312.0,40227.0,40804.0,0.004514,-0.0023179999999999997,0.0028669999999999998,0.45500000000000007,-2.3625000000000003,-4.025,0.8945625,0.199,0.12278125000000001,1.12496875,0.8855000000000001,-0.29121875,-0.3688125,1.09934375,0.020180903850285408,0.020173069574071365,True
46513,44709,0,44710,4312.0,40227.0,40807.0,0.0050019999999999995,0.00061,0.002196,0.5775,-2.1350000000000002,-4.0075,0.89478125,0.19893750000000002,0.1224375,1.1210625,0.854375,-0.2941875,-0.36253125,1.10953125,0.020298065123602098,0.019906336703005772,True
46514,44710,0,44711,4315.0,40227.0,40810.0,0.001647,0.001281,0.00042699999999999997,0.45500000000000007,-1.7500000000000002,-3.8850000000000002,0.896625,0.20153125,0.12196875,1.11978125,0.85671875,-0.29621875000000003,-0.36259375,1.1013125,0.02048672697268994,0.019889610481232115,True
46515,44711,0,44712,4316.0,40228.0,40811.0,-0.001403,0.0017079999999999999,-0.001098,0.24500000000000002,-1.2950000000000002,-3.6925000000000003,0.89984375,0.2013125,0.12096875,1.12009375,0.87046875,-0.28984375,-0.36690625,1.1006875,0.020220642629699914,0.020022032957097292,True
46516,44712,0,44713,4316.0,40230.0,40811.0,-0.002928,0.00061,-0.004026,0.3325,-1.0325000000000002,-3.5525,0.898875,0.20153125,0.12275,1.12396875,0.86821875,-0.29528125,-0.369125,1.0968437500000001,0.02044892976902665,0.020184352125897007,True
46517,44713,0,44714,4320.0,40229.0,40813.0,-0.001586,-0.0011589999999999999,-0.000183,0.43750000000000006,-0.8575,-3.6225000000000005,0.893875,0.2023125,0.12284375,1.1244375,0.8648125,-0.29875,-0.36565625,1.10765625,0.020620916713822726,0.02004871098023473,True
46518,44714,0,44715,4320.0,40232.0,40816.0,-0.0026839999999999998,-0.0042699999999999995,0.00042699999999999997,0.43750000000000006,-0.9275000000000001,-3.6575,0.8941875,0.201625,0.12059375,1.11996875,0.8637812500000001,-0.29675,-0.36565625,1.1010312500000001,0.020512002634097155,0.01995636788974235,True
46519,44715,0,44716,4324.0,40234.0,40817.0,-0.0037819999999999998,-0.005978,0.001952,0.31500000000000006,-0.6475000000000001,-3.5000000000000004,0.8994375,0.20140625,0.1236875,1.12175,0.8706875000000001,-0.2955625,-0.36590625,1.10525,0.02045512426394738,0.02009339381743702,True
46520,44716,0,44717,4323.0,40234.0,40820.0,-0.0050019999999999995,-0.00042699999999999997,-0.000915,0.31500000000000006,-0.31500000000000006,-3.3775000000000004,0.89403125,0.20065625,0.12325,1.12521875,0.86428125,-0.29796875,-0.3660625,1.1044375,0.02052126270843113,0.020081722272525568,True
46521,44717,0,44718,4323.0,40235.0,40821.0,-0.005124,0.00732,0.0034159999999999998,0.49000000000000005,-0.805,-3.4825000000000004,0.8945625,0.1995,0.12309375,1.1263750000000001,0.86371875,-0.29690625,-0.36596875,1.1055,0.020430841889592426,0.020071539326750553,True
46522,44718,0,44719,4326.0,40237.0,40823.0,-0.000549,0.0032329999999999998,0.003172,0.5075000000000001,-1.8200000000000003,-3.8500000000000005,0.88671875,0.19978125,0.1235,1.13165625,0.86490625,-0.29946875,-0.3663125,1.1086562500000001,0.02054571666304433,0.020102036366807657,True
46523,44719,0,44720,4328.0,40237.0,40826.0,0.006405,0.000305,0.002074,0.47250000000000003,-3.0275000000000003,-4.235,0.8943125000000001,0.196875,0.123375,1.131375,0.86471875,-0.29865625,-0.36575,1.1028125,0.020393360229539442,0.020074284600309862,True
46524,44720,0,44721,4330.0,40238.0,40826.0,0.013176,-0.0035989999999999998,0.001647,0.28,-3.6225000000000005,-4.322500000000001,0.89190625,0.19815625,0.1255,1.1205,0.86421875,-0.29615625,-0.36662500000000003,1.1015625,0.020345296388188976,0.020196682962864167,True
46525,44721,0,44722,4331.0,40235.0,40827.0,0.01342,-0.0077469999999999995,0.000976,0.07,-3.5700000000000003,-4.2525,0.896,0.2011875,0.12078125,1.11940625,0.8688750000000001,-0.29559375,-0.36725,1.0996875,0.02044738050495267,0.020028162800480157,True
46526,44722,0,44723,4330.0,40238.0,40829.0,0.00488,0.00042699999999999997,-0.008418,0.17500000000000002,-1.9775000000000003,-3.5700000000000003,0.90071875,0.20115625,0.116625,1.1145,0.8706875000000001,-0.29540625,-0.3675625,1.10121875,0.020438534548069143,0.019870165512040856,True
46527,44723,0,44724,4333.0,40239.0,40832.0,-0.002074,0.0032329999999999998,-0.0059169999999999995,0.2625,-1.0150000000000001,-3.3775000000000004,0.91196875,0.20450000000000002,0.11534375000000001,1.1145625000000001,0.871625,-0.29581250000000003,-0.36721875,1.0884375,0.02059254038118709,0.019803757866293216,True
46528,44724,0,44725,4335.0,40238.0,40835.0,-0.007076,0.002013,-0.0013419999999999999,0.3325,-0.29750000000000004,-3.3950000000000005,0.88490625,0.20134375000000002,0.1228125,1.13078125,0.8641562500000001,-0.29640625,-0.366,1.10815625,0.020486568872711372,0.02006125338586555,True
46529,44725,0,44726,4334.0,40239.0,40833.0,-0.009699,0.002928,0.00244,0.45500000000000007,-0.07,-3.325,0.8896875,0.19884375,0.1248125,1.13353125,0.86453125,-0.29875,-0.35865625,1.10803125,0.020478162456916513,0.019847923671897954,True
46530,44726,0,44727,4338.0,40243.0,40837.0,-0.011346,0.0025009999999999998,0.006954,0.6300000000000001,-0.14,-3.535,0.8871875,0.197375,0.12303125000000001,1.12425,0.865125,-0.29865625,-0.36590625,1.1086875,0.02041393749911582,0.02006646069238652,True
46531,44727,0,44728,4339.0,40242.0,40838.0,-0.005856,-0.000549,0.00488,0.45500000000000007,-1.2775,-3.5700000000000003,0.89015625,0.204125,0.120375,1.11296875,0.86425,-0.29490625,-0.36471875,1.10690625,0.02054057113309503,0.019909679852142762,True
46532,44728,0,44729,4341.0,40244.0,40839.0,0.002074,-0.001586,0.002074,0.3325,-1.995,-3.7100000000000004,0.90090625,0.2035625,0.1153125,1.11534375,0.86434375,-0.2955,-0.36712500000000003,1.1008437500000001,0.020541355395032,0.019798704196740485,True
46533,44729,0,44730,4342.0,40243.0,40836.0,0.008052,-0.00244,-0.002379,0.22750000000000004,-2.6250000000000004,-3.7975000000000003,0.90915625,0.203125,0.11775000000000001,1.1136875,0.86853125,-0.29515625,-0.36834375,1.1001875,0.02050948941725781,0.019947754963855514,True
46534,44730,0,44731,4343.0,40239.0,40829.0,0.012322,-0.003721,-0.004941,0.10500000000000001,-2.8875,-3.8500000000000005,0.8953125000000001,0.200125,0.1253125,1.12459375,0.86953125,-0.29565625,-0.36612500000000003,1.10771875,0.020406168283682396,0.020168882003190905,True
46535,44731,0,44732,4342.0,40232.0,40816.0,0.005978,-0.00122,-0.005978,0.17500000000000002,-2.0475000000000003,-3.7275000000000005,0.89215625,0.198125,0.1240625,1.126625,0.86534375,-0.29784375,-0.3663125,1.10778125,0.020412047879762994,0.02012512151766912,True
46536,44732,0,44733,4342.0,40229.0,40802.0,-0.000183,0.001464,-0.002989,0.3325,-1.3125000000000002,-3.5875000000000004,0.893875,0.19834375,0.1221875,1.12521875,0.85871875,-0.2935,-0.36678125,1.10203125,0.020245899108815114,0.020067022598645443,True
46537,44733,0,44734,4339.0,40228.0,40794.0,-0.0053679999999999995,0.0021349999999999997,0.000549,0.5075000000000001,-0.8400000000000001,-3.5000000000000004,0.88946875,0.19940625,0.122625,1.1105625000000001,0.86584375,-0.29503125,-0.36728125,1.10159375,0.020351383577660555,0.020105084558828243,True
46538,44734,0,44735,4336.0,40224.0,40786.0,-0.008357,0.003111,0.0040869999999999995,0.525,-0.6300000000000001,-3.5525,0.8951250000000001,0.20125,0.12009375,1.1204375,0.8691875,-0.29609375,-0.36675,1.10059375,0.020470111579150452,0.01997983933023485,True
46539,44735,0,44736,4333.0,40223.0,40782.0,-0.008784,0.001952,0.005124,0.56,-0.6300000000000001,-3.6050000000000004,0.89853125,0.201625,0.121875,1.12753125,0.8725625,-0.295375,-0.367875,1.1003125,0.02045656837978422,0.020098182545667195,True
46540,44736,0,44737,4330.0,40221.0,40778.0,-0.004209,0.00122,0.003477,0.6825000000000001,-1.4700000000000002,-3.8150000000000004,0.8940625,0.19984375000000001,0.12275,1.12634375,0.86528125,-0.2980625,-0.366375,1.1015625,0.02049160298274811,0.02007376969286568,True
46541,44737,0,44738,4327.0,40222.0,40777.0,0.001586,0.000793,0.000976,0.47250000000000003,-2.0825,-3.8500000000000005,0.89409375,0.19815625,0.1236875,1.11809375,0.86425,-0.29859375,-0.36546875,1.1088125,0.020443569908238004,0.02007579887007099,True
46542,44738,0,44739,4325.0,40222.0,40774.0,0.007259,-0.002623,-0.002928,0.31500000000000006,-2.5025000000000004,-3.99,0.896375,0.200875,0.12325,1.1084375,0.864125,-0.2978125,-0.3658125,1.09353125,0.02052396692089051,0.020071668038978793,True
46543,44739,0,44740,4324.0,40220.0,40774.0,0.008113,-0.0018909999999999999,-0.0051849999999999995,0.2625,-2.8000000000000003,-4.095000000000001,0.90140625,0.20175,0.12,1.12021875,0.86765625,-0.296125,-0.3633125,1.10096875,0.020491950876940255,0.019837717059205312,True
46544,44740,0,44741,4320.0,40219.0,40776.0,0.009089,-0.000793,-0.003477,0.22750000000000004,-2.6775,-3.99,0.89384375,0.200625,0.1290625,1.1264687500000001,0.86328125,-0.29878125,-0.3655,1.102625,0.02055272833899848,0.020297654470460284,True
46545,44741,0,44742,4319.0,40221.0,40776.0,0.001281,0.000183,0.0,0.36750000000000005,-1.715,-3.7975000000000003,0.8946875,0.19796875,0.1230625,1.123875,0.86365625,-0.2975625,-0.36565625,1.1071875,0.020394278232641647,0.02005768878069927,True
46546,44742,0,44743,4318.0,40224.0,40779.0,-0.001403,0.002562,0.001037,0.4025,-1.33,-3.7275000000000005,0.8934375,0.2003125,0.12346875,1.12078125,0.8575625,-0.29862500000000003,-0.36596875,1.1056875,0.02053356928632793,0.020086929644445185,True
46547,44743,0,44744,4317.0,40227.0,40781.0,-0.005246,0.001952,0.003965,0.42000000000000004,-0.9975,-3.6400000000000006,0.89584375,0.20021875,0.12384375,1.1265625000000001,0.86428125,-0.29646875,-0.36571875,1.1078125,0.020442785538536335,0.020092265901247016,True
46548,44744,0,44745,4317.0,40226.0,40786.0,-0.006893,0.0021349999999999997,0.003904,0.56,-0.7875000000000001,-3.6400000000000006,0.8940625,0.2010625,0.12246875,1.1214375,0.863625,-0.29709375,-0.36740625,1.1007500000000001,0.020502709300366427,0.020103698972885144,True
46549,44745,0,44746,4318.0,40225.0,40788.0,-0.007442,-0.00042699999999999997,0.003538,0.42000000000000004,-0.8750000000000001,-3.7100000000000004,0.8944375,0.20575000000000002,0.1231875,1.1203125,0.8641875,-0.2949375,-0.3663125,1.10603125,0.02060871735109424,0.020089211282995734,True
46550,44746,0,44747,4316.0,40226.0,40793.0,-6.1e-05,-0.001464,-0.0028669999999999998,0.12250000000000001,-1.6450000000000002,-3.8325000000000005,0.8995,0.20096875,0.1289375,1.1210625,0.8670625000000001,-0.29621875000000003,-0.36809375,1.1015,0.020463575221967407,0.02039680473570076,True
46551,44747,0,44748,4317.0,40228.0,40796.0,0.003111,-0.002379,-0.006039,0.14,-2.0300000000000002,-3.9025000000000003,0.9013125000000001,0.2021875,0.12687500000000002,1.12353125,0.87165625,-0.29553125,-0.36893750000000003,1.1015625,0.02048602044871935,0.020346086077819354,True
46552,44748,0,44749,4319.0,40230.0,40799.0,0.0048189999999999995,-0.001647,-0.0042699999999999995,0.12250000000000001,-2.1175,-3.8675,0.890375,0.20103125,0.12325,1.1243125,0.86690625,-0.29596875,-0.366375,1.1075625,0.020456068457858877,0.020094289774330403,True
46553,44749,0,44750,4319.0,40230.0,40801.0,0.004575,-0.000549,-0.001464,0.21000000000000002,-2.1525000000000003,-3.9375000000000004,0.8941250000000001,0.2004375,0.124,1.12384375,0.864125,-0.297375,-0.36578125,1.106125,0.020488324356026114,0.02010119211753163,True
46554,44750,0,44751,4319.0,40232.0,40804.0,0.003843,-0.000915,-0.000793,0.3325,-1.9075000000000002,-4.0075,0.8942187500000001,0.20165625,0.12378125000000001,1.1203750000000001,0.86490625,-0.29896875,-0.36603125000000003,1.10559375,0.020602726195941955,0.020102268398756982,True
46555,44751,0,44752,4321.0,40233.0,40807.0,-0.001769,0.0025009999999999998,0.003843,0.49000000000000005,-1.5050000000000001,-3.7975000000000003,0.8975625,0.20190625,0.121625,1.1203125,0.8701875,-0.29578125,-0.3669375,1.09196875,0.020484523419060666,0.02005022174001144,True
46556,44752,0,44753,4321.0,40232.0,40812.0,-0.002928,0.001281,0.003904,0.45500000000000007,-1.225,-3.7275000000000005,0.898,0.20315625,0.123125,1.12471875,0.87565625,-0.2956875,-0.37143750000000003,1.09778125,0.020532193213301745,0.020292709447278193,True
46557,44753,0,44754,4323.0,40232.0,40812.0,-0.0025009999999999998,0.001281,0.001952,0.42000000000000004,-1.0850000000000002,-3.7275000000000005,0.8941250000000001,0.20053125,0.12334375,1.1244687500000001,0.860375,-0.30015625,-0.36515625,1.11359375,0.020604291381871257,0.020049122401995682,True
46558,44754,0,44755,4324.0,40233.0,40815.0,-0.002745,0.00183,-0.00122,0.36750000000000005,-1.1900000000000002,-3.8675,0.8875937500000001,0.200125,0.123875,1.12109375,0.8550625000000001,-0.29878125,-0.36425,1.11146875,0.020532151175277565,0.020034476743589484,True
46559,44755,0,44756,4324.0,40233.0,40816.0,-0.002196,0.000244,-0.001769,0.24500000000000002,-1.3125000000000002,-3.8500000000000005,0.89978125,0.20615625,0.1195625,1.1199375,0.85365625,-0.2975625,-0.36446875,1.09834375,0.020731246189818423,0.01986627555751652,True
46560,44756,0,44757,4328.0,40234.0,40817.0,0.000976,-0.002989,-0.000549,0.35000000000000003,-1.5575,-3.9375000000000004,0.8905625,0.20278125,0.128625,1.1302812500000001,0.8715625,-0.29684375,-0.36484375,1.1050625,0.020563370499511895,0.02025331067431943,True
46561,44757,0,44758,4327.0,40237.0,40816.0,0.003111,-0.0026839999999999998,-0.0013419999999999999,0.3325,-1.6975000000000002,-3.9025000000000003,0.8855625,0.192875,0.12771875,1.14284375,0.8605625,-0.30171875,-0.36353125000000003,1.1145,0.020352212742154294,0.020163333260649563,True
46562,44758,0,44759,4329.0,40233.0,40817.0,0.0026839999999999998,-0.001281,-0.0006709999999999999,0.43750000000000006,-1.5925000000000002,-3.9025000000000003,0.88134375,0.1936875,0.12834375,1.136625,0.86084375,-0.30109375,-0.36446875,1.11571875,0.0203604518829528,0.020226687684294368,True
46563,44759,0,44760,4330.0,40234.0,40815.0,6.1e-05,-0.000488,0.00122,0.4025,-1.4000000000000001,-3.8500000000000005,0.88309375,0.19618750000000001,0.1196875,1.10921875,0.852375,-0.29578125,-0.3656875,1.0991250000000001,0.020249143048240114,0.01992043113907621,True
46564,44760,0,44761,4330.0,40233.0,40811.0,-0.001647,0.0006709999999999999,0.00183,0.36750000000000005,-1.2775,-3.7450000000000006,0.9081250000000001,0.2053125,0.12015625,1.1284375,0.87121875,-0.29353125,-0.368125,1.1025,0.020534015613724334,0.020037702941855397,True
46565,44761,0,44762,4329.0,40232.0,40811.0,0.00061,0.0015249999999999999,-0.000732,0.31500000000000006,-1.4525000000000001,-3.6575,0.88321875,0.1935,0.12784375,1.14234375,0.8610625000000001,-0.301375,-0.3645625,1.1115,0.02036407404930791,0.020209936049539162,True
46566,44762,0,44763,4330.0,40231.0,40809.0,0.001464,0.000915,0.00042699999999999997,0.31500000000000006,-1.3650000000000002,-3.6750000000000003,0.8990312500000001,0.2001875,0.12078125,1.11403125,0.8598125,-0.29603125,-0.360875,1.0979375,0.02042386037843115,0.019771713864957643,True
46567,44763,0,44764,4331.0,40231.0,40807.0,-0.000976,0.000976,-0.0008539999999999999,0.35000000000000003,-1.1725,-3.6225000000000005,0.91821875,0.20590625,0.1165,1.1161875,0.8730625,-0.2941875,-0.368375,1.09871875,0.020584913572433736,0.01989771578941969,True
46568,44764,0,44765,4329.0,40233.0,40807.0,-0.00042699999999999997,0.000122,0.00042699999999999997,0.35000000000000003,-1.05,-3.6400000000000006,0.9077500000000001,0.2095625,0.11284375,1.0990312500000001,0.8669375,-0.29509375,-0.36865625,1.10171875,0.020771940836820192,0.01975898855727837,True
46569,44765,0,44766,4331.0,40230.0,40806.0,-0.001647,-0.001281,-0.00042699999999999997,0.3325,-1.2075,-3.6050000000000004,0.91425,0.20403125,0.1221875,1.109,0.870375,-0.2951875,-0.36803125000000003,1.10115625,0.020548050925723458,0.020117289943150415,True
46570,44766,0,44767,4331.0,40231.0,40807.0,0.000488,-0.000976,0.000488,0.385,-1.2600000000000002,-3.6925000000000003,0.91253125,0.203375,0.12521875,1.11415625,0.87140625,-0.29546875,-0.36628125,1.1005625,0.020532378079760244,0.020171317689276037,True
46571,44767,0,44768,4329.0,40232.0,40807.0,-0.002257,-0.001647,0.000122,0.35000000000000003,-1.1025,-3.4650000000000003,0.88896875,0.2035625,0.12559375,1.11478125,0.87109375,-0.295875,-0.36893750000000003,1.101375,0.02055647306384314,0.02029350889836703,True
46572,44768,0,44769,4330.0,40230.0,40808.0,-0.000915,0.000732,-0.000366,0.4025,-1.2425000000000002,-3.4650000000000003,0.8944062500000001,0.2014375,0.12034375,1.119625,0.8707812500000001,-0.29621875000000003,-0.3685625,1.10071875,0.020482868347569516,0.020062990995057668,True
46573,44769,0,44770,4331.0,40231.0,40809.0,-0.0013419999999999999,-6.1e-05,0.001281,0.4025,-1.4000000000000001,-3.5875000000000004,0.90140625,0.2015,0.12003125,1.12603125,0.870625,-0.29521875000000003,-0.3680625,1.10059375,0.020445123590418383,0.020030059837543506,True
46574,44770,0,44771,4330.0,40236.0,40810.0,0.000793,-0.0006709999999999999,0.0011589999999999999,0.3325,-1.435,-3.6225000000000005,0.89446875,0.201875,0.122375,1.12403125,0.87003125,-0.29478125,-0.367875,1.10153125,0.020442919196895424,0.020118701363988446,True
46575,44771,0,44772,4331.0,40235.0,40813.0,-0.000183,0.000915,-0.00061,0.29750000000000004,-1.2775,-3.5875000000000004,0.8943125000000001,0.19971875,0.12240625000000001,1.11178125,0.8688125,-0.28700000000000003,-0.3688125,1.10165625,0.02004029933709392,0.020157681052369703,True
46576,44772,0,44773,4332.0,40234.0,40812.0,-0.000244,0.001281,-0.00042699999999999997,0.29750000000000004,-1.1900000000000002,-3.5000000000000004,0.89975,0.2024375,0.11962500000000001,1.1208125,0.87265625,-0.295875,-0.36803125000000003,1.1014375,0.020510168907273356,0.020012131673542564,True
46577,44773,0,44774,4334.0,40235.0,40816.0,-0.0008539999999999999,-0.0008539999999999999,0.000549,0.31500000000000006,-1.2600000000000002,-3.5000000000000004,0.9015,0.2021875,0.11962500000000001,1.1170625,0.864375,-0.29153125,-0.3670625,1.1013125,0.02032472736769116,0.019973170750475156,True
46578,44774,0,44775,4333.0,40237.0,40815.0,0.000549,-0.00061,-0.001403,0.24500000000000002,-1.4000000000000001,-3.6400000000000006,0.89584375,0.20203125,0.12009375,1.121375,0.87009375,-0.29425,-0.36725,1.1019375,0.020427930477376333,0.019999948701638473,True
46579,44775,0,44776,4334.0,40238.0,40821.0,0.000732,-0.000793,-0.000122,0.24500000000000002,-1.4700000000000002,-3.6400000000000006,0.89109375,0.2010625,0.125,1.1204687500000001,0.8648125,-0.29884375,-0.3654375,1.0985,0.020573252585321063,0.020128409350334876,True
46580,44776,0,44777,4335.0,40237.0,40822.0,-0.000366,-0.0008539999999999999,-0.000549,0.31500000000000006,-1.4700000000000002,-3.6225000000000005,0.9005625,0.20165625,0.1198125,1.12128125,0.8643125,-0.29515625,-0.36484375,1.10296875,0.020449034979966425,0.01989162150896207,True
46581,44777,0,44778,4337.0,40240.0,40827.0,-0.0006709999999999999,-0.000488,-0.000305,0.36750000000000005,-1.4175000000000002,-3.6225000000000005,0.9011250000000001,0.20190625,0.12209375,1.12015625,0.864625,-0.296375,-0.3656875,1.1069375000000001,0.02050846062427008,0.02001918681752772,True
46582,44778,0,44779,4339.0,40239.0,40826.0,0.001647,0.0,0.000793,0.5075000000000001,-1.4875,-3.7450000000000006,0.900625,0.20159375000000002,0.12540625,1.121125,0.864125,-0.29834375,-0.35921875000000003,1.1008437500000001,0.020574962028018885,0.019894931975189066,True
46583,44779,0,44780,4339.0,40241.0,40828.0,0.0013419999999999999,0.00042699999999999997,0.00061,0.47250000000000003,-1.4000000000000001,-3.6750000000000003,0.8924062500000001,0.198625,0.12309375,1.1262812500000001,0.872,-0.29584375,-0.36628125,1.101,0.020351989216262557,0.02008410700750653,True
46584,44780,0,44781,4342.0,40241.0,40831.0,-0.000366,0.000122,6.1e-05,0.43750000000000006,-1.3825,-3.7275000000000005,0.893875,0.1995625,0.12296875,1.1233125,0.86603125,-0.2951875,-0.36590625,1.10584375,0.020364115321192727,0.0200638956328579,True
46585,44781,0,44782,4340.0,40240.0,40833.0,-0.000915,0.001403,0.000366,0.29750000000000004,-1.4000000000000001,-3.7450000000000006,0.89384375,0.20090625,0.123625,1.122625,0.86421875,-0.29465625,-0.3660625,1.0941875,0.02039800419073639,0.020097112531004956,True
46586,44782,0,44783,4343.0,40243.0,40837.0,-0.0011589999999999999,-0.000122,0.0021349999999999997,0.21000000000000002,-1.33,-3.7625,0.89434375,0.2026875,0.12084375,1.11996875,0.86490625,-0.29625,-0.36512500000000003,1.1033125,0.020535576477851522,0.019945259874513267,True
46587,44783,0,44784,4345.0,40245.0,40838.0,-0.001464,-0.000488,-0.000793,0.29750000000000004,-1.4000000000000001,-3.8325000000000005,0.9001875,0.20153125,0.1199375,1.1195625,0.8646875,-0.295375,-0.367875,1.1005,0.020452709620658253,0.02001867212467234,True
46588,44784,0,44785,4343.0,40246.0,40842.0,0.000549,0.000366,-0.0006709999999999999,0.2625,-1.5750000000000002,-3.7275000000000005,0.9015,0.20171875,0.12009375,1.11053125,0.8609687500000001,-0.29528125,-0.36746875,1.10128125,0.020456647317058742,0.020008746292123594,True
46589,44785,0,44786,4348.0,40246.0,40843.0,0.0017079999999999999,-0.000122,-0.002623,0.17500000000000002,-1.61,-3.7625,0.898875,0.20209375000000002,0.120625,1.12084375,0.8697812500000001,-0.29509375,-0.36584375,1.10140625,0.0204645228010285,0.019965192052912185,True
46590,44786,0,44787,4347.0,40248.0,40844.0,-0.000915,-0.001403,-0.000488,0.2625,-1.5575,-3.7275000000000005,0.89565625,0.20159375000000002,0.12265625000000001,1.116,0.87071875,-0.29515625,-0.36615625,1.10046875,0.020446462450719988,0.02006112474141259,True
46591,44787,0,44788,4348.0,40248.0,40846.0,0.000305,-0.000915,0.001403,0.36750000000000005,-1.5925000000000002,-3.6750000000000003,0.90028125,0.201375,0.1219375,1.1205625000000001,0.87103125,-0.295125,-0.36546875,1.1046875,0.02043619862009354,0.020003975913658545,True
46592,44788,0,44789,4351.0,40245.0,40849.0,0.001098,0.000244,0.001647,0.45500000000000007,-1.6975000000000002,-3.6575,0.89384375,0.19893750000000002,0.12375,1.1280000000000001,0.8647812500000001,-0.29875,-0.36609375,1.10140625,0.020482020680076138,0.020103499355533752,True
46593,44789,0,44790,4352.0,40248.0,40849.0,0.002562,0.000976,0.002013,0.47250000000000003,-1.6625,-3.5700000000000003,0.8939375,0.19875,0.12346875,1.12653125,0.8669375,-0.29553125,-0.372,1.10153125,0.02034453352404056,0.020329425160019697,True
46594,44790,0,44791,4353.0,40251.0,40853.0,0.00042699999999999997,0.001952,0.0,0.31500000000000006,-1.54,-3.7975000000000003,0.89434375,0.20115625,0.12325,1.12365625,0.8676875000000001,-0.29425,-0.37271875,1.096625,0.02039191372444097,0.020349340386984934,True
46595,44791,0,44792,4355.0,40252.0,40855.0,-0.001769,-0.0008539999999999999,0.0008539999999999999,0.2625,-1.3475000000000001,-3.8500000000000005,0.8939375,0.19928125,0.12340625000000001,1.1263125,0.88146875,-0.29340625,-0.37293750000000003,1.08753125,0.020280708885770184,0.020364543666515373,True
46596,44792,0,44793,4357.0,40250.0,40855.0,-0.002074,-0.00183,0.000732,0.22750000000000004,-1.4000000000000001,-3.8850000000000002,0.8941250000000001,0.20021875,0.1246875,1.12515625,0.8777812500000001,-0.29240625,-0.36596875,1.10825,0.02027897092326949,0.020136948176952742,True
46597,44793,0,44794,4359.0,40251.0,40859.0,-0.000183,-0.002806,-0.002196,0.21000000000000002,-1.4700000000000002,-3.8150000000000004,0.89196875,0.20140625,0.1235,1.12103125,0.8615625,-0.3006875,-0.36140625,1.11490625,0.020661709673851822,0.01990469043633308,True
46598,44794,0,44795,4359.0,40251.0,40859.0,-0.0013419999999999999,-0.000732,-0.0023179999999999997,0.31500000000000006,-1.3650000000000002,-3.6225000000000005,0.89696875,0.20084375000000002,0.11937500000000001,1.12040625,0.85775,-0.302375,-0.36265625,1.10365625,0.020706566745019778,0.01978566068714285,True
46599,44795,0,44796,4361.0,40253.0,40861.0,-0.000366,0.001769,-0.00061,0.45500000000000007,-1.435,-3.5000000000000004,0.90184375,0.20134375000000002,0.12571875,1.1205625000000001,0.8622500000000001,-0.2949375,-0.362875,1.1046562500000001,0.020427352406236898,0.02005484779608318,True
46600,44796,0,44797,4362.0,40255.0,40864.0,0.00183,0.000488,0.00042699999999999997,0.49000000000000005,-1.6450000000000002,-3.6050000000000004,0.90271875,0.20190625,0.12046875,1.1201875000000001,0.85946875,-0.29690625,-0.3635625,1.10146875,0.020529877131990826,0.01986701452219888,True
46601,44797,0,44798,4364.0,40256.0,40866.0,0.005124,0.001952,0.00042699999999999997,0.43750000000000006,-1.6800000000000002,-3.6750000000000003,0.89984375,0.2014375,0.11950000000000001,1.12059375,0.8591562500000001,-0.299,-0.36303125,1.11928125,0.020594983332647435,0.019805879040605837,True
46602,44798,0,44799,4366.0,40254.0,40867.0,0.003111,0.000793,0.0030499999999999998,0.35000000000000003,-1.5225000000000002,-3.6225000000000005,0.9000625,0.20190625,0.120625,1.12009375,0.85253125,-0.30553125000000003,-0.361875,1.1175625,0.020877449448878017,0.019805536314425713,True
46603,44799,0,44800,4367.0,40255.0,40869.0,0.0,0.000122,0.0035989999999999998,0.31500000000000006,-1.225,-3.6925000000000003,0.89453125,0.20084375000000002,0.1235625,1.12390625,0.85665625,-0.2995,-0.369375,1.0960625,0.020590701454762442,0.02022774486419943,True
46604,44800,0,44801,4368.0,40256.0,40871.0,-0.0023179999999999997,0.0006709999999999999,-0.001281,0.22750000000000004,-0.8225000000000001,-3.6575,0.8989375000000001,0.20175,0.12290625000000001,1.11028125,0.8775625,-0.29490625,-0.36584375,1.0994375,0.020442814015798064,0.020058816965860253,True
46605,44801,0,44802,4368.0,40258.0,40869.0,-0.001037,0.0008539999999999999,-0.0032329999999999998,0.17500000000000002,-0.8750000000000001,-3.7800000000000002,0.8999375000000001,0.2019375,0.1244375,1.12540625,0.85840625,-0.29996875,-0.36346875,1.10603125,0.02065460475129212,0.020026140571629398,True
46606,44802,0,44803,4370.0,40258.0,40868.0,0.000244,-0.0021349999999999997,-0.002196,0.052500000000000005,-0.77,-3.8500000000000005,0.8942187500000001,0.19878125,0.12221875,1.12059375,0.8626875,-0.2955,-0.3695,1.10140625,0.020344559692124054,0.020177629824165454,True
46607,44803,0,44804,4371.0,40254.0,40866.0,-0.002074,-0.0040869999999999995,-0.000793,0.14,-0.7000000000000001,-3.8325000000000005,0.9014375,0.20209375000000002,0.1208125,1.11978125,0.8718125,-0.29453125,-0.36590625,1.106625,0.0204418432646236,0.019975401079120544,True
46608,44804,0,44805,4372.0,40250.0,40852.0,-0.003477,-0.000488,-0.000183,0.2625,-0.6825000000000001,-3.8150000000000004,0.89484375,0.19853125,0.1205625,1.12025,0.86428125,-0.29481250000000003,-0.3659375,1.10071875,0.02030654692231109,0.01996639776327096,True
46609,44805,0,44806,4370.0,40246.0,40842.0,-0.003843,-0.0008539999999999999,0.0015249999999999999,0.28,-0.77,-3.7275000000000005,0.8984375,0.20159375000000002,0.1206875,1.11528125,0.864375,-0.29490625,-0.36562500000000003,1.10759375,0.02043638262650221,0.01995895857381044,True
46610,44806,0,44807,4370.0,40242.0,40834.0,-0.002623,-0.001037,0.00061,0.31500000000000006,-0.9625000000000001,-3.7100000000000004,0.8935625,0.19996875,0.1233125,1.1211875,0.86459375,-0.29734375,-0.3659375,1.1008125,0.020467772325935836,0.020079260237780713,True
46611,44807,0,44808,4368.0,40241.0,40824.0,-0.00122,0.0013419999999999999,-6.1e-05,0.43750000000000006,-1.4175000000000002,-3.6225000000000005,0.9003125000000001,0.20203125,0.1216875,1.1209375,0.87165625,-0.295625,-0.36965625,1.1011875,0.020483368919301314,0.020162112463116916,True
46612,44808,0,44809,4365.0,40240.0,40820.0,0.001952,0.0015249999999999999,-0.000793,0.36750000000000005,-1.8025000000000002,-3.7625,0.9013125000000001,0.20171875,0.123375,1.11753125,0.86175,-0.29140625000000003,-0.36578125,1.10746875,0.0203003891551153,0.020075541390654157,True
46613,44809,0,44810,4363.0,40238.0,40816.0,0.002989,0.000915,-0.001403,0.385,-2.0825,-3.9200000000000004,0.89859375,0.2016875,0.12353125000000001,1.12371875,0.86503125,-0.29928125,-0.36515625,1.10671875,0.020616607744313422,0.020056817817451923,True
46614,44810,0,44811,4362.0,40236.0,40814.0,0.004758,0.002989,0.001037,0.4025,-2.2925000000000004,-3.8150000000000004,0.89465625,0.19809375,0.123125,1.13003125,0.86371875,-0.29646875,-0.36612500000000003,1.10415625,0.020355324269087458,0.020079105725674475,True
46615,44811,0,44812,4361.0,40236.0,40811.0,0.002074,0.000915,0.0025009999999999998,0.43750000000000006,-1.9600000000000002,-3.7100000000000004,0.888375,0.2011875,0.12178125000000001,1.11978125,0.8648125,-0.29528125,-0.36921875,1.10165625,0.02043478093096782,0.0201483685233036,True
46616,44812,0,44813,4359.0,40237.0,40811.0,0.001037,0.0026839999999999998,0.000976,0.43750000000000006,-1.54,-3.6750000000000003,0.89609375,0.203,0.1205625,1.11778125,0.8720625,-0.29503125,-0.36893750000000003,1.0920625,0.020499304770394154,0.02008704729124936,True
46617,44813,0,44814,4357.0,40237.0,40810.0,0.0,0.002257,0.000976,0.42000000000000004,-1.0850000000000002,-3.5700000000000003,0.9061250000000001,0.20309375000000002,0.11800000000000001,1.11771875,0.8728125,-0.29621875000000003,-0.368875,1.0972187500000001,0.020551037391363627,0.019979379433806444,True
46618,44814,0,44815,4356.0,40238.0,40813.0,-0.001281,-0.00244,0.0021349999999999997,0.35000000000000003,-0.9625000000000001,-3.5700000000000003,0.90140625,0.20303125,0.1228125,1.1186875,0.864375,-0.2956875,-0.36778125,1.0986562500000001,0.020527048267310815,0.020132885508400564,True
46619,44815,0,44816,4354.0,40237.0,40814.0,-0.0011589999999999999,-0.005063,-0.00042699999999999997,0.24500000000000002,-1.2950000000000002,-3.8150000000000004,0.90115625,0.1995625,0.124875,1.12625,0.86453125,-0.29915625,-0.3659375,1.1063125,0.0205241179927801,0.020143386643752165,True
46620,44816,0,44817,4355.0,40238.0,40818.0,-0.002074,-0.004941,-0.0035989999999999998,0.24500000000000002,-1.3125000000000002,-3.8850000000000002,0.9059375000000001,0.2020625,0.130875,1.1322812500000001,0.8643125,-0.29284375,-0.3651875,1.10715625,0.020372511966615683,0.020359478046290427,True
46621,44817,0,44818,4353.0,40239.0,40822.0,-0.000244,-0.0013419999999999999,-0.003965,0.21000000000000002,-1.33,-3.8325000000000005,0.890375,0.20084375000000002,0.12334375,1.11975,0.865125,-0.29140625000000003,-0.36634375,1.10078125,0.020264368185765286,0.02009688055886514,True
46622,44818,0,44819,4354.0,40241.0,40826.0,-0.000915,0.0015249999999999999,-0.00183,0.29750000000000004,-1.7325000000000002,-3.6925000000000003,0.90840625,0.20575000000000002,0.11996875,1.1171875,0.8699375,-0.29234375,-0.36696875,1.1014375,0.020504145467643484,0.019983507386408084,True
46623,44819,0,44820,4354.0,40243.0,40827.0,0.000976,0.002013,-0.000976,0.35000000000000003,-1.8900000000000001,-3.7450000000000006,0.88675,0.19571875,0.12475,1.13325,0.864625,-0.29621875000000003,-0.3661875,1.1046875,0.02024749221522382,0.020148310030036504,True
46624,44820,0,44821,4353.0,40243.0,40828.0,-0.000305,0.0030499999999999998,0.000732,0.5075000000000001,-1.715,-3.7625,0.889875,0.19875,0.12787500000000002,1.12690625,0.86490625,-0.29634375,-0.36578125,1.0983125,0.020377294423157808,0.020260226624171963,True
46625,44821,0,44822,4356.0,40244.0,40832.0,0.00042699999999999997,0.003172,0.003721,0.4025,-1.7500000000000002,-3.6225000000000005,0.885125,0.19553125000000002,0.12465625,1.12903125,0.8649687500000001,-0.29709375,-0.36653125000000003,1.10525,0.020275058616835605,0.020158285763387022,True
46626,44822,0,44823,4355.0,40245.0,40838.0,-0.000244,-0.000976,0.003843,0.45500000000000007,-1.715,-3.5875000000000004,0.89,0.19959375000000001,0.1215625,1.1186562500000001,0.86459375,-0.29621875000000003,-0.36562500000000003,1.1005625,0.020406982053534566,0.019994869821726307,True
46627,44823,0,44824,4356.0,40246.0,40841.0,-0.000793,-0.0006709999999999999,0.001952,0.31500000000000006,-1.715,-3.6575,0.89928125,0.20253125,0.1221875,1.119625,0.86434375,-0.29509375,-0.3648125,1.1018125,0.02048253055207906,0.019987841072037802,True
46628,44824,0,44825,4356.0,40248.0,40844.0,-0.000366,-0.000488,-0.000122,0.29750000000000004,-1.5925000000000002,-3.7800000000000002,0.90265625,0.2013125,0.12121875,1.12109375,0.8680625000000001,-0.2954375,-0.36828125,1.101375,0.02044622575740816,0.02008758824547792,True
46629,44825,0,44826,4357.0,40249.0,40848.0,-0.000976,-6.1e-05,-0.002928,0.1925,-1.4875,-3.8325000000000005,0.9020312500000001,0.20371875,0.12259375,1.12159375,0.86890625,-0.29531250000000003,-0.368,1.1011250000000001,0.02054022766737411,0.020132704776756404,True
46630,44826,0,44827,4358.0,40252.0,40852.0,0.00061,-0.0011589999999999999,-0.001769,0.21000000000000002,-1.6975000000000002,-3.9375000000000004,0.89628125,0.19909375,0.12321875,1.1265,0.87603125,-0.29434375,-0.370625,1.10071875,0.020310797652231295,0.020263893519349624,True
46631,44827,0,44828,4361.0,40252.0,40855.0,0.002196,-6.1e-05,0.000915,0.3325,-1.8200000000000003,-4.0600000000000005,0.8951875,0.2043125,0.12353125000000001,1.126125,0.8543125,-0.28150000000000003,-0.36075,1.09753125,0.02000751601013117,0.01987957062077317,True
46632,44828,0,44829,4361.0,40252.0,40856.0,0.00244,-0.0006709999999999999,0.001464,0.36750000000000005,-1.9075000000000002,-4.2,0.8980312500000001,0.20225,0.12096875,1.1202812500000001,0.88484375,-0.2926875,-0.36162500000000003,1.1208125,0.020373929397478154,0.019809587825114296,True
46633,44829,0,44830,4362.0,40252.0,40857.0,0.00183,0.00061,-0.000366,0.29750000000000004,-1.8725000000000003,-4.077500000000001,0.8954062500000001,0.19915625,0.12346875,1.1271875,0.84790625,-0.29990625,-0.367,1.0967500000000001,0.020537630675015465,0.020128401116263798,True
46634,44830,0,44831,4364.0,40252.0,40856.0,0.000976,0.000183,-0.00061,0.42000000000000004,-1.7850000000000001,-3.99,0.89459375,0.2038125,0.12259375,1.1268125,0.85759375,-0.29096875,-0.36828125,1.09146875,0.02036893855869787,0.02014401405515623,True
46635,44831,0,44832,4366.0,40253.0,40854.0,0.000122,-0.0011589999999999999,-0.00042699999999999997,0.36750000000000005,-1.435,-3.9025000000000003,0.89478125,0.2000625,0.1223125,1.127875,0.88525,-0.29084375,-0.37046875,1.09059375,0.0202095182469732,0.02022042559193696,True
46636,44832,0,44833,4364.0,40253.0,40854.0,-6.1e-05,-0.00042699999999999997,-0.00122,0.22750000000000004,-1.2950000000000002,-3.8150000000000004,0.8936875,0.2005,0.124125,1.126875,0.8736875000000001,-0.290125,-0.37634375000000003,1.0908437500000001,0.02019853747150334,0.020530919449312412,True
46637,44833,0,44834,4365.0,40252.0,40851.0,-0.001647,-0.001403,-0.0013419999999999999,0.24500000000000002,-1.1725,-3.8150000000000004,0.89403125,0.2015625,0.1253125,1.1206875,0.8901875,-0.29215625,-0.3675625,1.11196875,0.02032420444356396,0.020226684552466012,True
46638,44834,0,44835,4365.0,40248.0,40848.0,-0.002623,0.000488,-0.000915,0.385,-1.155,-3.7625,0.90290625,0.20184375000000002,0.12225,1.11365625,0.8521875,-0.30090625,-0.3625625,1.1055,0.02068852884858975,0.019899897640077886,True
46639,44835,0,44836,4366.0,40248.0,40845.0,-0.003538,0.0011589999999999999,0.003172,0.4025,-1.4175000000000002,-3.8325000000000005,0.89990625,0.20190625,0.1216875,1.1203750000000001,0.86840625,-0.29865625,-0.36462500000000003,1.1201875000000001,0.02060041900465175,0.01995977775155579,True
46640,44836,0,44837,4367.0,40248.0,40845.0,-0.000244,0.00061,0.003111,0.47250000000000003,-1.715,-3.99,0.9001875,0.20109375000000002,0.1203125,1.12034375,0.8532500000000001,-0.30240625,-0.35962500000000003,1.1199375,0.02071811304693337,0.019702171113061058,True
46641,44837,0,44838,4367.0,40247.0,40846.0,0.0025009999999999998,0.000793,0.000366,0.47250000000000003,-2.0825,-3.8850000000000002,0.893875,0.200375,0.122625,1.12615625,0.851875,-0.29871875000000003,-0.36690625,1.0919375,0.020539920443336135,0.0200900042449993,True
46642,44838,0,44839,4366.0,40248.0,40846.0,0.003904,0.000122,-0.000183,0.2625,-2.24,-3.8150000000000004,0.901,0.20234375000000002,0.1208125,1.1204687500000001,0.87,-0.29528125,-0.3554375,1.099875,0.020482372477165705,0.01955415500132157,True
46643,44839,0,44840,4365.0,40250.0,40845.0,0.004575,-0.001281,-0.002928,0.24500000000000002,-2.2225,-3.8850000000000002,0.8992187500000001,0.20178125,0.12090625,1.12140625,0.8578125,-0.2939375,-0.36828125,1.1006875,0.020405039323082148,0.02007476419782376,True
46644,44840,0,44841,4367.0,40248.0,40843.0,0.004697,-0.0028669999999999998,-0.0040869999999999995,0.14,-1.8725000000000003,-3.6925000000000003,0.8999375000000001,0.2015625,0.121,1.120875,0.8709375,-0.29515625,-0.36815625,1.100625,0.020445176186096765,0.02007358476290138,True
46645,44841,0,44842,4366.0,40247.0,40844.0,0.001037,-6.1e-05,-0.00122,0.28,-1.3650000000000002,-3.6750000000000003,0.89646875,0.19971875,0.12371875,1.1204687500000001,0.8612500000000001,-0.29809375,-0.3658125,1.10171875,0.020487718300946964,0.020090906059463436,True
46646,44842,0,44843,4365.0,40248.0,40846.0,-0.003172,-0.000244,0.0015249999999999999,0.47250000000000003,-0.77,-3.4825000000000004,0.90046875,0.20784375,0.122625,1.12375,0.8727812500000001,-0.29478125,-0.36590625,1.096125,0.02068859953204971,0.020049787805450494,True
46647,44843,0,44844,4367.0,40249.0,40848.0,-0.006954,6.1e-05,0.0032329999999999998,0.5425000000000001,-0.5775,-3.4650000000000003,0.8943125000000001,0.20109375000000002,0.120375,1.12128125,0.86446875,-0.29509375,-0.36796875,1.1005625,0.02042336222719865,0.020040396268154275,True
46648,44844,0,44845,4366.0,40250.0,40850.0,-0.006771,0.0008539999999999999,0.002623,0.56,-0.5075000000000001,-3.4475000000000002,0.89825,0.20090625,0.12365625000000001,1.123875,0.8709375,-0.29559375,-0.36640625,1.10896875,0.020435804331803992,0.020112219051588703,True
46649,44845,0,44846,4368.0,40252.0,40852.0,-0.005978,0.001281,0.000488,0.3325,-0.9625000000000001,-3.5700000000000003,0.8945625,0.202125,0.12409375,1.1238125,0.86609375,-0.29475,-0.368125,1.10525,0.020451949495261322,0.020199286978378517,True
46650,44846,0,44847,4369.0,40254.0,40852.0,-0.000732,-0.00042699999999999997,0.00042699999999999997,0.28,-1.5750000000000002,-3.6400000000000006,0.89415625,0.20396875,0.12265625000000001,1.12309375,0.8645625,-0.294625,-0.36696875,1.10253125,0.02052280082528543,0.02009380013671171,True
46651,44847,0,44848,4369.0,40252.0,40857.0,0.0030499999999999998,-0.0017079999999999999,-0.0011589999999999999,0.35000000000000003,-2.0650000000000004,-3.6575,0.89471875,0.2068125,0.12075,1.12596875,0.865125,-0.29584375,-0.36915625,1.0948125,0.020688981011412706,0.020103537642999027,True
46652,44848,0,44849,4371.0,40253.0,40856.0,0.004575,-0.000732,-0.002562,0.35000000000000003,-2.205,-3.6575,0.8951875,0.20234375000000002,0.1168125,1.1226562500000001,0.8618750000000001,-0.29431250000000003,-0.36112500000000003,1.1010625,0.02044331363565032,0.019618859966442435,True
46653,44849,0,44850,4370.0,40255.0,40860.0,0.0051849999999999995,0.000366,-0.001952,0.29750000000000004,-2.2750000000000004,-3.7100000000000004,0.8915625,0.20303125,0.11840625,1.12571875,0.8651562500000001,-0.29909375,-0.3683125,1.10165625,0.02066435090814858,0.01997342860733586,True
46654,44850,0,44851,4370.0,40254.0,40862.0,0.002928,0.00042699999999999997,0.000122,0.42000000000000004,-2.0475000000000003,-3.9025000000000003,0.889625,0.20359375000000002,0.1231875,1.12790625,0.8646875,-0.296875,-0.36903125000000003,1.10246875,0.02059807073954984,0.020198535795303726,True
46655,44851,0,44852,4372.0,40257.0,40864.0,0.000366,0.002013,0.0013419999999999999,0.45500000000000007,-1.995,-3.7450000000000006,0.890375,0.20350000000000001,0.1225,1.13284375,0.865,-0.28984375,-0.36462500000000003,1.10140625,0.020310700845903962,0.019993125278964893,True
46656,44852,0,44853,4373.0,40256.0,40867.0,-0.001037,0.001403,0.00061,0.5425000000000001,-1.7850000000000001,-3.7800000000000002,0.88828125,0.1965,0.11878125,1.113,0.8647812500000001,-0.29821875000000003,-0.36578125,1.1015,0.02036028875573441,0.019887008548104733,True
46657,44853,0,44854,4375.0,40259.0,40870.0,-0.000732,-0.000976,0.001281,0.3325,-1.61,-3.7975000000000003,0.90540625,0.19703125,0.12528125,1.1186562500000001,0.87215625,-0.29496875,-0.36525,1.1068437500000001,0.020251106517681774,0.02013241193913463,True
46658,44854,0,44855,4374.0,40261.0,40872.0,-0.000488,0.000549,-0.001586,0.42000000000000004,-1.7850000000000001,-3.6400000000000006,0.90459375,0.2025625,0.12825,1.1370625,0.87321875,-0.2901875,-0.36265625,1.102,0.02028596938578593,0.020149947729940162,True
46659,44855,0,44856,4376.0,40261.0,40872.0,0.00122,-0.000122,0.001952,0.43750000000000006,-1.9075000000000002,-3.6225000000000005,0.88753125,0.1938125,0.12346875,1.11509375,0.86465625,-0.29665625,-0.36634375,1.10328125,0.0201866769218501,0.020102010585810605,True
46660,44856,0,44857,4378.0,40260.0,40875.0,-0.001403,-0.0006709999999999999,0.001952,0.42000000000000004,-1.9250000000000003,-3.5700000000000003,0.911375,0.20753125,0.12271875,1.1239375,0.87065625,-0.29575,-0.368125,1.1010625,0.02071478550775341,0.02014286080689425,True
46661,44857,0,44858,4379.0,40260.0,40876.0,0.000366,-0.000976,0.001098,0.36750000000000005,-1.8900000000000001,-3.6400000000000006,0.88965625,0.1980625,0.12946875,1.13578125,0.86703125,-0.29103125,-0.36484375,1.10525,0.02013474623478573,0.02028794048802386,True
46662,44858,0,44859,4379.0,40261.0,40876.0,0.0028669999999999998,0.000732,0.000122,0.35000000000000003,-1.8025000000000002,-3.6225000000000005,0.88815625,0.19521875,0.1255,1.1328125,0.8651562500000001,-0.29115625,-0.36559375,1.10671875,0.020022719173773375,0.020155213742739188,True
46663,44859,0,44860,4381.0,40266.0,40879.0,-0.001281,0.0013419999999999999,-0.0034159999999999998,0.22750000000000004,-1.54,-3.6575,0.88875,0.198875,0.12134375,1.1160625,0.864625,-0.2971875,-0.36615625,1.1011875,0.02041645766613934,0.020007259043986474,True
46664,44860,0,44861,4382.0,40262.0,40881.0,-0.0013419999999999999,-0.000183,-0.001952,0.3325,-1.54,-3.6925000000000003,0.8991250000000001,0.20265625,0.12275,1.11890625,0.8709687500000001,-0.29575,-0.36778125,1.102125,0.02051413313027999,0.020130320646242667,True
46665,44861,0,44862,4383.0,40266.0,40883.0,6.1e-05,-0.002379,-0.000976,0.31500000000000006,-1.5750000000000002,-3.8500000000000005,0.89109375,0.20196875,0.12378125000000001,1.1184687500000001,0.86171875,-0.29221875,-0.36562500000000003,1.10696875,0.020343448455073705,0.020085930486084393,True
46666,44862,0,44863,4385.0,40262.0,40887.0,-0.000305,-0.0046359999999999995,-0.000549,0.31500000000000006,-1.5050000000000001,-3.7800000000000002,0.88121875,0.2020625,0.12328125000000001,1.12278125,0.853125,-0.2970625,-0.36721875,1.10146875,0.02054260674515695,0.020129502879765462,True
46667,44863,0,44864,4385.0,40266.0,40888.0,-0.004392,-0.003111,0.0011589999999999999,0.42000000000000004,-1.435,-3.7625,0.9015,0.20159375000000002,0.12221875,1.12103125,0.87075,-0.2955,-0.3665,1.1015,0.0204603218703052,0.02005699423388669,True
46668,44864,0,44865,4387.0,40266.0,40891.0,-0.000976,0.002562,-0.000244,0.3325,-1.5575,-3.5875000000000004,0.89475,0.198625,0.1235625,1.11625,0.86446875,-0.29525,-0.36534375,1.1088437500000001,0.020328047663637955,0.020065641388703988,True
46669,44865,0,44866,4389.0,40267.0,40894.0,0.00061,0.0017079999999999999,0.000488,0.3325,-1.6625,-3.6400000000000006,0.8945625,0.20125,0.12003125,1.12084375,0.86434375,-0.29409375,-0.36843750000000003,1.1015,0.020389472235407012,0.020045140358301596,True
46670,44866,0,44867,4389.0,40268.0,40894.0,0.002623,0.002379,0.0015249999999999999,0.45500000000000007,-1.9425000000000001,-3.6050000000000004,0.90146875,0.20090625,0.1243125,1.12146875,0.871125,-0.2959375,-0.3656875,1.10790625,0.02044966365261682,0.020110247248307688,True
46671,44867,0,44868,4391.0,40269.0,40901.0,0.003477,0.002806,0.0015249999999999999,0.42000000000000004,-2.205,-3.8325000000000005,0.8945625,0.19940625,0.12428125,1.12021875,0.8638750000000001,-0.2950625,-0.3671875,1.1015,0.020352643669881484,0.020169285027252324,True
46672,44868,0,44869,4392.0,40269.0,40900.0,0.00366,0.0011589999999999999,0.0015249999999999999,0.385,-2.1525000000000003,-3.9200000000000004,0.89265625,0.202,0.1211875,1.11921875,0.87190625,-0.29553125,-0.3685,1.0995625,0.020478302980100508,0.020095102283685905,True
46673,44869,0,44870,4392.0,40270.0,40902.0,0.00042699999999999997,0.000183,0.00061,0.36750000000000005,-1.9250000000000003,-4.077500000000001,0.8932187500000001,0.20075,0.12221875,1.11178125,0.87346875,-0.29496875,-0.36512500000000003,1.0935,0.020404173189150533,0.020001692993571758,True
46674,44870,0,44871,4395.0,40269.0,40904.0,0.0013419999999999999,-0.000915,-0.001403,0.1925,-1.9075000000000002,-3.99,0.89925,0.2020625,0.12334375,1.1278125,0.86559375,-0.29734375,-0.3648125,1.10896875,0.020553944296894597,0.020035296803535836,True
46675,44871,0,44872,4396.0,40269.0,40900.0,0.002196,-0.00183,-0.004331,0.0,-1.7325000000000002,-3.99,0.8945000000000001,0.198125,0.12271875,1.1221875000000001,0.8647812500000001,-0.29121875,-0.36671875,1.10090625,0.020144882602895337,0.020086311375018435,True
46676,44872,0,44873,4397.0,40267.0,40894.0,0.0015249999999999999,-0.002623,-0.002928,0.052500000000000005,-1.6625,-4.0075,0.89384375,0.20125,0.12009375,1.121125,0.86975,-0.2961875,-0.36893750000000003,1.10203125,0.020473891222645528,0.020067811737791194,True
46677,44873,0,44874,4396.0,40262.0,40882.0,-0.002013,-0.002379,-0.0008539999999999999,0.15750000000000003,-1.54,-4.0425,0.90259375,0.2015625,0.1208125,1.1283750000000001,0.872125,-0.29484375,-0.3675625,1.10796875,0.02043257635686585,0.020042012819296146,True
46678,44874,0,44875,4396.0,40259.0,40869.0,-0.004148,-0.000244,0.000305,0.35000000000000003,-1.3475000000000001,-3.9725000000000006,0.89175,0.201375,0.11934375,1.121,0.8651875,-0.2944375,-0.36646875,1.10046875,0.020408478278206688,0.019937747442374063,True
46679,44875,0,44876,4393.0,40254.0,40861.0,-0.0050019999999999995,0.000244,0.00061,0.29750000000000004,-1.4175000000000002,-3.9200000000000004,0.8982187500000001,0.1975625,0.1231875,1.12653125,0.865625,-0.2983125,-0.36246875,1.09915625,0.020407795808865325,0.019934607407141362,True
46680,44876,0,44877,4391.0,40252.0,40854.0,-0.003965,0.0023179999999999997,0.0006709999999999999,0.4025,-1.5925000000000002,-4.095000000000001,0.88684375,0.20171875,0.12396875,1.1223125,0.87140625,-0.29515625,-0.359875,1.10190625,0.02045160750921287,0.01986232482720047,True
46681,44877,0,44878,4390.0,40252.0,40846.0,-0.000366,0.0018909999999999999,0.000915,0.42000000000000004,-1.9600000000000002,-3.9200000000000004,0.894375,0.19965625,0.12403125,1.12634375,0.8569375,-0.29746875,-0.36562500000000003,1.106,0.020459950174851034,0.02009619084263178,True
46682,44878,0,44879,4386.0,40249.0,40841.0,0.001769,-0.000122,0.000793,0.43750000000000006,-2.45,-3.9200000000000004,0.89425,0.2020625,0.12190625000000001,1.12153125,0.8651562500000001,-0.29215625,-0.36415625,1.09515625,0.020344787219125516,0.019949900789197245,True
46683,44879,0,44880,4384.0,40250.0,40842.0,0.005978,0.0006709999999999999,0.0018909999999999999,0.525,-2.66,-3.9725000000000006,0.88715625,0.202125,0.12340625000000001,1.1245625000000001,0.86965625,-0.29609375,-0.3661875,1.10590625,0.020506125598893855,0.02009316188673341,True
46684,44880,0,44881,4381.0,40247.0,40836.0,0.004026,-0.000915,0.0006709999999999999,0.525,-2.45,-3.9375000000000004,0.8945625,0.19959375000000001,0.12271875,1.12171875,0.86503125,-0.28703125,-0.36793750000000003,1.10159375,0.02003641346654915,0.02013532125974962,True
46685,44881,0,44882,4379.0,40246.0,40836.0,0.0021349999999999997,0.000366,-6.1e-05,0.42000000000000004,-2.1350000000000002,-3.9200000000000004,0.8980312500000001,0.2015625,0.12446875,1.12496875,0.87403125,-0.29515625,-0.36515625,1.1075625,0.020445176186096765,0.02009529489473313,True
46686,44882,0,44883,4376.0,40247.0,40837.0,0.0017079999999999999,0.001098,-0.002257,0.47250000000000003,-1.9075000000000002,-3.7800000000000002,0.8945000000000001,0.2015,0.1230625,1.12140625,0.8639687500000001,-0.2989375,-0.36659375,1.101375,0.020595036305599786,0.0200953918723252,True
46687,44883,0,44884,4375.0,40247.0,40839.0,0.000305,0.001769,-0.00122,0.4025,-1.7500000000000002,-3.8150000000000004,0.8989375000000001,0.2019375,0.12321875,1.12440625,0.87390625,-0.2956875,-0.3654375,1.11153125,0.02048202998989018,0.02005530374736756,True
46688,44884,0,44885,4373.0,40251.0,40841.0,-0.002989,0.000244,0.002806,0.36750000000000005,-1.5575,-3.8500000000000005,0.892625,0.19928125,0.1241875,1.12128125,0.8568125,-0.29403125,-0.37128125,1.087,0.02030591361818554,0.020330024708897897,True
46689,44885,0,44886,4373.0,40248.0,40841.0,-0.004026,-0.001281,0.000183,0.35000000000000003,-1.61,-3.7800000000000002,0.90465625,0.200625,0.12346875,1.12025,0.87240625,-0.30028125,-0.36453125000000003,1.0971875,0.020613187347368663,0.020029115068651283,True
46690,44886,0,44887,4373.0,40250.0,40846.0,-0.003904,-6.1e-05,-6.1e-05,0.22750000000000004,-1.6450000000000002,-3.7800000000000002,0.9108437500000001,0.2025,0.127,1.1397187500000001,0.8783125,-0.2915,-0.36421875,1.106625,0.02033633163863903,0.02016148168099993,True
46691,44887,0,44888,4371.0,40252.0,40848.0,-0.002745,-0.000976,-0.002562,0.24500000000000002,-1.8375000000000001,-3.7100000000000004,0.90125,0.20459375,0.12040625,1.1384375,0.8628125,-0.29390625,-0.36746875,1.10271875,0.020519549012419522,0.020021570767378125,True
46692,44888,0,44889,4370.0,40250.0,40852.0,-0.000183,-0.000549,-0.004331,0.36750000000000005,-2.205,-3.6400000000000006,0.88628125,0.199,0.1165625,1.1107500000000001,0.86065625,-0.30115625,-0.36465625,1.09878125,0.020581582409273227,0.019750689074466216,True
46693,44889,0,44890,4371.0,40250.0,40855.0,0.002745,-0.001769,0.000244,0.43750000000000006,-2.3800000000000003,-3.6925000000000003,0.9055,0.19671875,0.12878125,1.1355,0.868375,-0.29559375,-0.36312500000000003,1.10796875,0.02026344797603475,0.020190605679690107,True
46694,44890,0,44891,4372.0,40253.0,40857.0,0.002623,-0.001769,0.00061,0.45500000000000007,-2.345,-3.6225000000000005,0.89365625,0.20496875,0.1218125,1.1203750000000001,0.86078125,-0.29375,-0.3708125,1.089,0.020528685361461282,0.020213729025242797,True
46695,44891,0,44892,4373.0,40254.0,40862.0,0.000183,0.000549,0.003172,0.47250000000000003,-2.45,-3.7100000000000004,0.88225,0.1900625,0.12759375,1.1295625,0.8612500000000001,-0.302375,-0.36353125000000003,1.1099375,0.02026293726436202,0.02015820264149927,True
46696,44892,0,44893,4373.0,40255.0,40866.0,0.000732,0.002379,0.002257,0.5425000000000001,-2.24,-3.6925000000000003,0.89971875,0.206125,0.12203125000000001,1.11528125,0.86746875,-0.29381250000000003,-0.36878125,1.0968125,0.02057879964291319,0.02014103598225701,True
46697,44893,0,44894,4375.0,40255.0,40870.0,0.001647,0.0008539999999999999,0.001769,0.42000000000000004,-2.205,-3.7275000000000005,0.88246875,0.192625,0.12809375,1.13053125,0.8640625000000001,-0.30215625,-0.36378125,1.10853125,0.020359561715845687,0.02018877919452671,True
46698,44894,0,44895,4374.0,40256.0,40872.0,6.1e-05,0.0015249999999999999,-0.00061,0.35000000000000003,-1.9250000000000003,-3.7275000000000005,0.91925,0.205625,0.1138125,1.11534375,0.868,-0.28909375,-0.3688125,1.099625,0.020367937770424227,0.01980502743003993,True
46699,44895,0,44896,4374.0,40256.0,40874.0,0.001464,-0.000488,-0.003172,0.28,-1.715,-3.6400000000000006,0.8875000000000001,0.19162500000000002,0.12565625,1.11534375,0.86425,-0.3006875,-0.3649375,1.09953125,0.02025920048558297,0.020135235315091617,True
46700,44896,0,44897,4377.0,40258.0,40878.0,0.000305,-0.001769,-0.002013,0.24500000000000002,-1.54,-3.6400000000000006,0.9031250000000001,0.20509375,0.121375,1.111,0.8668125,-0.29453125,-0.36815625,1.10125,0.020565327845129756,0.020088973699025753,True
46701,44897,0,44898,4378.0,40259.0,40883.0,-0.0013419999999999999,-0.00042699999999999997,-0.000244,0.385,-1.4000000000000001,-3.6750000000000003,0.9130625,0.20221875,0.122875,1.1370625,0.87053125,-0.2950625,-0.35771875000000003,1.10765625,0.020468407932681794,0.01973065519528589,True
46702,44898,0,44899,4380.0,40257.0,40880.0,-0.002013,-0.000793,6.1e-05,0.36750000000000005,-1.2775,-3.7450000000000006,0.88265625,0.1990625,0.12265625000000001,1.11459375,0.864625,-0.29721875000000003,-0.36634375,1.1015625,0.020425434495460516,0.02006866541066507,True
46703,44899,0,44900,4378.0,40260.0,40882.0,-0.001586,0.001037,0.0006709999999999999,0.49000000000000005,-1.2075,-3.5525,0.89546875,0.20215625,0.12165625000000001,1.12615625,0.8719375,-0.29584375,-0.36462500000000003,1.10428125,0.020497333005773877,0.01995849515434775,True
46704,44900,0,44901,4381.0,40261.0,40880.0,-0.0025009999999999998,-0.00042699999999999997,0.0025009999999999998,0.43750000000000006,-1.2600000000000002,-3.6050000000000004,0.894625,0.20309375000000002,0.1231875,1.12590625,0.8651562500000001,-0.29025,-0.365375,1.10115625,0.020310361153137578,0.0200515075183534,True
46705,44901,0,44902,4382.0,40259.0,40879.0,-0.0017079999999999999,-0.000488,0.001037,0.385,-1.2950000000000002,-3.6750000000000003,0.8951250000000001,0.20221875,0.12046875,1.12090625,0.87265625,-0.2949375,-0.36190625,1.09696875,0.020463368139967433,0.019800379947689847,True
46706,44902,0,44903,4381.0,40260.0,40876.0,-0.001769,-0.000305,-0.0008539999999999999,0.49000000000000005,-1.435,-3.6750000000000003,0.8938125,0.20565625,0.12053125,1.12178125,0.8663125,-0.29440625,-0.365,1.1013125,0.02058344191885735,0.019927406115329366,True
46707,44903,0,44904,4382.0,40257.0,40877.0,-0.001403,0.0015249999999999999,-0.0013419999999999999,0.43750000000000006,-1.5225000000000002,-3.6050000000000004,0.90065625,0.200875,0.12403125,1.12590625,0.86559375,-0.29109375,-0.3651875,1.10590625,0.020253050565086222,0.0200785957423886,True
46708,44904,0,44905,4382.0,40259.0,40874.0,0.0006709999999999999,-0.000793,0.000122,0.47250000000000003,-1.7500000000000002,-3.7625,0.89525,0.20034375000000001,0.1234375,1.12559375,0.85421875,-0.29609375,-0.36653125000000003,1.1010312500000001,0.020432811344416216,0.02010826838555447,True
46709,44905,0,44906,4381.0,40258.0,40873.0,0.001464,0.000366,0.000488,0.5075000000000001,-1.9250000000000003,-3.7100000000000004,0.89628125,0.20171875,0.12662500000000002,1.120125,0.8719375,-0.29490625,-0.3655,1.110125,0.02044152773793889,0.02019761548090538,True
46710,44906,0,44907,4381.0,40260.0,40872.0,0.0023179999999999997,0.000793,0.001281,0.47250000000000003,-1.9775000000000003,-3.7625,0.889375,0.19918750000000002,0.12353125000000001,1.12140625,0.8644375,-0.29481250000000003,-0.36821875,1.1007500000000001,0.020333558861588254,0.02017997314637534,True
46711,44907,0,44908,4380.0,40259.0,40871.0,0.001037,-0.000366,0.001769,0.45500000000000007,-1.9075000000000002,-3.8150000000000004,0.9,0.2016875,0.12784375,1.1280625,0.87121875,-0.29521875000000003,-0.36490625,1.1101875,0.02045284115830404,0.020223759325977295,True
46712,44908,0,44909,4382.0,40259.0,40868.0,0.002379,-0.000793,0.0006709999999999999,0.385,-1.8025000000000002,-3.7450000000000006,0.89465625,0.201875,0.1210625,1.12134375,0.866125,-0.29521875000000003,-0.36734375,1.105125,0.020460558726189695,0.02004347519413149,True
46713,44909,0,44910,4382.0,40258.0,40872.0,0.00061,0.000915,-0.002013,0.28,-1.5750000000000002,-3.6925000000000003,0.89128125,0.198,0.12353125000000001,1.12490625,0.8651875,-0.2978125,-0.36653125000000003,1.09421875,0.02040564351214744,0.020112115876156973,True
46714,44910,0,44911,4380.0,40261.0,40871.0,-0.0008539999999999999,-0.00042699999999999997,-0.002013,0.29750000000000004,-1.5575,-3.7100000000000004,0.90153125,0.2019375,0.12246875,1.12078125,0.8718125,-0.295375,-0.36490625,1.107875,0.020469430910204103,0.020003155152710672,True
46715,44911,0,44912,4381.0,40263.0,40874.0,-0.000122,-0.000366,0.00122,0.3325,-1.4175000000000002,-3.7975000000000003,0.8972187500000001,0.19896875,0.128875,1.12878125,0.86525,-0.29771875000000003,-0.36528125,1.1074375,0.02044173385618763,0.020281163386940176,True
46716,44912,0,44913,4381.0,40260.0,40874.0,-0.001647,-0.0011589999999999999,6.1e-05,0.43750000000000006,-1.4175000000000002,-3.8325000000000005,0.89484375,0.2024375,0.1216875,1.1204375,0.8646875,-0.29471875000000003,-0.369,1.10121875,0.02046355239243097,0.020135725717099595,True
46717,44913,0,44914,4382.0,40262.0,40875.0,-0.00183,0.000488,0.000915,0.43750000000000006,-1.435,-3.8325000000000005,0.8995625,0.20040625,0.12625,1.12115625,0.86171875,-0.29715625,-0.36146875,1.1018125,0.020478219544725527,0.020020088074533683,True
46718,44914,0,44915,4380.0,40260.0,40877.0,-0.003538,0.000976,-0.00042699999999999997,0.35000000000000003,-1.5750000000000002,-3.7975000000000003,0.89009375,0.20171875,0.124125,1.1205625000000001,0.87034375,-0.294875,-0.3648125,1.1063125,0.020440267751943568,0.020067361486980455,True
46719,44915,0,44916,4381.0,40263.0,40880.0,-0.001647,0.000549,-0.001586,0.28,-1.6625,-3.8675,0.8945625,0.19959375000000001,0.12415625,1.12115625,0.86475,-0.29603125,-0.36909375,1.10115625,0.020399422230739848,0.020240801937905464,True
46720,44916,0,44917,4381.0,40264.0,40882.0,-6.1e-05,-0.0015249999999999999,-0.001952,0.36750000000000005,-1.8725000000000003,-3.9200000000000004,0.90071875,0.19871875,0.12303125000000001,1.12659375,0.86946875,-0.2955,-0.36615625,1.10190625,0.020341987199275584,0.020076514940677196,True
46721,44917,0,44918,4383.0,40264.0,40883.0,0.002562,-0.00122,-0.000183,0.43750000000000006,-2.205,-3.99,0.9018125,0.201625,0.1229375,1.12375,0.87071875,-0.29503125,-0.36496875,1.106625,0.020442708835783037,0.020024907686368363,True
46722,44918,0,44919,4382.0,40263.0,40886.0,0.001464,0.000183,0.00122,0.4025,-2.24,-3.99,0.895,0.201,0.1210625,1.11090625,0.8656875,-0.29471875000000003,-0.36840625,1.10090625,0.020404383154260637,0.020086202806143715,True
46723,44919,0,44920,4383.0,40264.0,40888.0,0.0025009999999999998,0.001403,0.001281,0.4025,-2.45,-3.9725000000000006,0.89559375,0.19928125,0.11915625,1.121125,0.86484375,-0.2979375,-0.36809375,1.10121875,0.020463413818559706,0.019995408955614347,True
46724,44920,0,44921,4384.0,40265.0,40889.0,0.001586,0.0006709999999999999,0.001769,0.385,-2.45,-4.095000000000001,0.89496875,0.19978125,0.122625,1.115875,0.86275,-0.29196875,-0.37028125,1.102,0.020243316013651633,0.020225710361877747,True
46725,44921,0,44922,4387.0,40266.0,40893.0,0.003355,0.000976,0.000305,0.43750000000000006,-2.345,-4.0075,0.9003125000000001,0.19834375,0.12725,1.1250625,0.857875,-0.30059375,-0.36690625,1.0879375,0.02053190572761211,0.020279810860272834,True
46726,44922,0,44923,4387.0,40266.0,40894.0,0.001281,-0.000732,-0.00061,0.35000000000000003,-2.1875,-4.0425,0.9022187500000001,0.20175,0.12371875,1.127875,0.8768125,-0.299375,-0.362875,1.1085625000000001,0.020622958409424113,0.0199727556784657,True
46727,44923,0,44924,4387.0,40269.0,40898.0,0.000915,-0.001037,0.001037,0.22750000000000004,-2.0300000000000002,-3.9375000000000004,0.8951875,0.20228125,0.12078125,1.12034375,0.8818125,-0.29309375,-0.36253125,1.1161875,0.020391597920705343,0.019838353208885058,True
46728,44924,0,44925,4390.0,40268.0,40897.0,0.000305,-0.00244,6.1e-05,0.28,-1.9075000000000002,-3.9375000000000004,0.89496875,0.1988125,0.123625,1.1202812500000001,0.8578125,-0.29215625,-0.373125,1.09571875,0.0202109991779754,0.020381054952945097,True
46729,44925,0,44926,4390.0,40266.0,40898.0,-6.1e-05,-0.0015249999999999999,-0.000183,0.385,-1.9425000000000001,-3.8500000000000005,0.9014375,0.20415625,0.13090625,1.12421875,0.86190625,-0.3003125,-0.3665,1.095625,0.02075976389192526,0.02041352882030657,True
46730,44926,0,44927,4393.0,40268.0,40905.0,-0.001037,0.000244,6.1e-05,0.4025,-1.6625,-3.7275000000000005,0.90175,0.1983125,0.122375,1.12121875,0.8670625000000001,-0.30112500000000003,-0.3676875,1.095625,0.020552032056129092,0.020111161553594284,True
46731,44927,0,44928,4392.0,40272.0,40906.0,-0.00183,0.001464,-0.001037,0.35000000000000003,-1.4700000000000002,-3.7100000000000004,0.893,0.19878125,0.12415625,1.12040625,0.8569375,-0.301875,-0.3675625,1.0850625,0.02060154823444693,0.020179234176582087,True
46732,44928,0,44929,4394.0,40270.0,40908.0,-0.00183,0.002257,-0.001647,0.36750000000000005,-1.4175000000000002,-3.6750000000000003,0.89415625,0.2010625,0.1265,1.12715625,0.86928125,-0.29771875000000003,-0.3638125,1.0911250000000001,0.02052790449720717,0.020124621300545632,True
46733,44929,0,44930,4396.0,40271.0,40908.0,-0.001098,0.000305,0.00061,0.385,-1.6625,-3.8850000000000002,0.89175,0.20434375,0.11946875,1.1206562500000001,0.88303125,-0.28965625,-0.3635,1.1171875,0.020337875304431284,0.019823455168592363,True
46734,44930,0,44931,4396.0,40272.0,40911.0,-0.002074,-0.0034159999999999998,0.001098,0.3325,-1.8200000000000003,-4.025,0.89475,0.1985,0.1235625,1.12953125,0.8579375,-0.2970625,-0.365875,1.09715625,0.02039598408243795,0.020087006930799737,True
46735,44931,0,44932,4396.0,40274.0,40914.0,-6.1e-05,-0.0042699999999999995,0.000488,0.29750000000000004,-1.8375000000000001,-3.8325000000000005,0.89546875,0.20234375000000002,0.1225,1.12,0.8783125,-0.29365625,-0.36875,1.096125,0.020416852650576217,0.02015901513208515,True
46736,44932,0,44933,4397.0,40274.0,40917.0,0.002196,-0.002013,-0.000488,0.29750000000000004,-1.995,-3.7625,0.901875,0.20825,0.12390625000000001,1.1214375,0.86403125,-0.297375,-0.3639375,1.10009375,0.02080986114755195,0.020023190011877186,True
46737,44933,0,44934,4399.0,40277.0,40917.0,0.004026,0.001647,-0.00244,0.36750000000000005,-1.7325000000000002,-3.4825000000000004,0.9015625,0.2008125,0.1235625,1.11375,0.8708125,-0.2965625,-0.3655,1.100875,0.02047100284248029,0.02007192546838768,True
46738,44934,0,44935,4400.0,40275.0,40920.0,0.0040869999999999995,0.0040869999999999995,-0.001952,0.525,-1.6275000000000002,-3.4475000000000002,0.90065625,0.19734375,0.1235625,1.12203125,0.8705,-0.29621875000000003,-0.3651875,1.102625,0.020314375050644453,0.020059357228422725,True
46739,44935,0,44936,4401.0,40276.0,40919.0,0.000976,0.0030499999999999998,0.000732,0.56,-1.5225000000000002,-3.5700000000000003,0.9006875,0.2025625,0.12125,1.12271875,0.86809375,-0.29434375,-0.36546875,1.109375,0.020453577800388208,0.0199757597522108,True
46740,44936,0,44937,4403.0,40279.0,40924.0,0.000366,0.001769,0.0032329999999999998,0.525,-1.3825,-3.5000000000000004,0.89465625,0.20078125,0.123625,1.1221875000000001,0.8571562500000001,-0.29634375,-0.3654375,1.10209375,0.0204608975373095,0.020071976955061858,True
46741,44937,0,44938,4405.0,40279.0,40924.0,-0.002013,6.1e-05,0.0059169999999999995,0.6125,-1.225,-3.5525,0.8845625,0.20246875,0.121125,1.1204375,0.87184375,-0.29531250000000003,-0.36128125,1.1030625,0.02048877741333848,0.019802170708898982,True
46742,44938,0,44939,4406.0,40279.0,40927.0,-0.0037819999999999998,-0.000976,6.1e-05,0.29750000000000004,-0.8225000000000001,-3.5875000000000004,0.89509375,0.20021875,0.12371875,1.121375,0.85271875,-0.296375,-0.36540625,1.1021875,0.02043900581876926,0.02007456781066394,True
46743,44939,0,44940,4408.0,40280.0,40926.0,-0.0018909999999999999,-0.00061,-0.0035989999999999998,0.1925,-0.7875000000000001,-3.5525,0.89915625,0.2020625,0.123125,1.12121875,0.87328125,-0.29525,-0.36490625,1.10478125,0.020469536226217062,0.020030089383167644,True
46744,44940,0,44941,4409.0,40280.0,40925.0,0.0006709999999999999,-0.001647,-0.005795,0.10500000000000001,-0.7525000000000001,-3.5875000000000004,0.90071875,0.200125,0.1230625,1.12996875,0.861,-0.29684375,-0.36496875,1.10853125,0.02045404560005865,0.02003003800281911,True
46745,44941,0,44942,4410.0,40273.0,40913.0,0.000793,-0.002745,-0.003477,0.21000000000000002,-0.805,-3.5875000000000004,0.8955625,0.20109375000000002,0.12115625000000001,1.12078125,0.8708750000000001,-0.2945625,-0.3676875,1.1021875,0.020401941792530735,0.020061146549092936,True
46746,44942,0,44943,4408.0,40267.0,40901.0,0.000488,-0.002623,-0.003355,0.3325,-0.8750000000000001,-3.6050000000000004,0.8963125000000001,0.19590625,0.12353125000000001,1.12203125,0.865,-0.29896875,-0.36603125000000003,1.1015625,0.020366090639134634,0.020092008213278476,True
46747,44943,0,44944,4408.0,40263.0,40887.0,-0.00488,0.000244,0.002623,0.5075000000000001,-0.5075000000000001,-3.5000000000000004,0.9074375,0.2023125,0.120625,1.12140625,0.87303125,-0.2950625,-0.36790625,1.1058125,0.020472266741441807,0.0200481422157474,True
46748,44944,0,44945,4407.0,40259.0,40877.0,-0.005795,0.0006709999999999999,0.003355,0.5425000000000001,-0.7175,-3.4825000000000004,0.89084375,0.1975,0.12765625,1.12,0.8653125,-0.29875,-0.36590625,1.10159375,0.02042286125829518,0.020256275097504328,True
46749,44945,0,44946,4404.0,40258.0,40871.0,-0.003111,0.000915,0.0040869999999999995,0.45500000000000007,-1.12,-3.6225000000000005,0.90728125,0.20525000000000002,0.1209375,1.1240937500000001,0.86690625,-0.2954375,-0.36765625,1.1038125,0.02060829322377916,0.02005091277500273,True
46750,44946,0,44947,4400.0,40257.0,40862.0,-0.000305,0.003111,0.001952,0.4025,-1.5225000000000002,-3.6925000000000003,0.89084375,0.1985,0.12265625000000001,1.1175,0.85359375,-0.2973125,-0.36640625,1.1014375,0.020406063427796797,0.020071178941293403,True
46751,44947,0,44948,4396.0,40253.0,40857.0,0.002257,0.000976,-0.0008539999999999999,0.42000000000000004,-1.7675,-3.7275000000000005,0.91009375,0.20203125,0.12512500000000001,1.1309375,0.8721875,-0.295125,-0.3641875,1.1030312500000001,0.020463210211925233,0.020083267705931093,True
46752,44948,0,44949,4393.0,40253.0,40856.0,0.0040869999999999995,0.00042699999999999997,-0.002257,0.49000000000000005,-1.8900000000000001,-3.6925000000000003,0.8916875,0.2059375,0.12090625,1.13534375,0.86634375,-0.29490625,-0.36662500000000003,1.10825,0.020615175248926924,0.02000815664869468,True
46753,44949,0,44950,4390.0,40254.0,40854.0,0.00488,-0.000549,-0.0018909999999999999,0.47250000000000003,-1.995,-3.7975000000000003,0.90815625,0.20190625,0.1245625,1.117125,0.86540625,-0.29515625,-0.3655625,1.10109375,0.020459325096952197,0.020115480609158933,True
46754,44950,0,44951,4387.0,40252.0,40853.0,0.003294,6.1e-05,-0.000915,0.4025,-1.9425000000000001,-3.8675,0.898375,0.196625,0.11803125,1.11734375,0.87015625,-0.2959375,-0.3678125,1.10209375,0.020273451065635974,0.019937930415378894,True
46755,44951,0,44952,4384.0,40253.0,40851.0,0.001586,0.001037,-0.000732,0.43750000000000006,-1.8375000000000001,-3.9725000000000006,0.89103125,0.19843750000000002,0.13028125000000002,1.1158125,0.86453125,-0.29646875,-0.36534375,1.10209375,0.020369472415615954,0.020341391653873137,True
46756,44952,0,44953,4382.0,40253.0,40852.0,0.000122,0.0006709999999999999,0.00183,0.49000000000000005,-1.61,-3.7975000000000003,0.9019375000000001,0.201625,0.12584375,1.1274375,0.86853125,-0.294875,-0.36553125000000003,1.1058125,0.020436408913402516,0.020166808388386772,True
46757,44953,0,44954,4379.0,40254.0,40854.0,-0.001647,-0.000366,0.0032329999999999998,0.43750000000000006,-1.4700000000000002,-3.9375000000000004,0.89103125,0.20315625,0.1224375,1.11459375,0.8655,-0.29484375,-0.36540625,1.10234375,0.020498176696444076,0.020021983011262127,True
46758,44954,0,44955,4379.0,40254.0,40856.0,-0.004697,6.1e-05,0.0017079999999999999,0.3325,-1.3825,-3.9375000000000004,0.89396875,0.20315625,0.12265625000000001,1.12153125,0.8609375,-0.29709375,-0.36715625,1.1023125,0.02058888215797414,0.020101340303097535,True
46759,44955,0,44956,4379.0,40254.0,40861.0,-0.004209,0.000488,-0.000244,0.2625,-1.5575,-3.9200000000000004,0.88996875,0.2000625,0.12434375,1.1214375,0.8653125,-0.29712500000000003,-0.3665,1.1016875,0.02046281195820493,0.02014420413272321,True
46760,44956,0,44957,4377.0,40255.0,40861.0,-0.001769,-0.000183,-0.00244,0.21000000000000002,-1.8025000000000002,-3.8850000000000002,0.90078125,0.20203125,0.1236875,1.1223750000000001,0.869125,-0.2991875,-0.36609375,1.10203125,0.020626975696203836,0.02010093431574357,True
46761,44957,0,44958,4377.0,40256.0,40863.0,0.00061,-0.000793,-0.0032329999999999998,0.08750000000000001,-1.995,-3.9550000000000005,0.901875,0.20184375000000002,0.12346875,1.127875,0.881,-0.29684375,-0.3665,1.0974375,0.02052478524088134,0.02010829417437876,True
46762,44958,0,44959,4377.0,40256.0,40868.0,0.0048189999999999995,-0.000366,-0.001952,0.35000000000000003,-2.4675000000000002,-3.8500000000000005,0.89471875,0.20171875,0.12084375,1.12603125,0.8960312500000001,-0.2921875,-0.3585625,1.1056875,0.020331896828970217,0.019681220925906445,True
46763,44959,0,44960,4377.0,40256.0,40870.0,0.003904,-0.0015249999999999999,-0.000732,0.36750000000000005,-2.3975000000000004,-3.9025000000000003,0.8950625,0.2,0.1209375,1.11903125,0.86965625,-0.29109375,-0.36712500000000003,1.1109375000000001,0.02021702913233374,0.02002954800781791,True
46764,44960,0,44961,4377.0,40259.0,40874.0,0.0028669999999999998,6.1e-05,0.002623,0.47250000000000003,-2.2225,-3.8325000000000005,0.88953125,0.19790625,0.12290625000000001,1.1214375,0.852625,-0.29825,-0.37075,1.09290625,0.020419423209490396,0.02025609593467579,True
46765,44961,0,44962,4378.0,40260.0,40875.0,-0.000183,0.001586,0.0035989999999999998,0.5775,-2.1525000000000003,-3.8150000000000004,0.9020625,0.20128125,0.1241875,1.1155,0.8529375,-0.29531250000000003,-0.3611875,1.1113125,0.02043989967200463,0.019924110842297817,True
46766,44962,0,44963,4377.0,40260.0,40879.0,-0.0023179999999999997,0.000122,0.002013,0.47250000000000003,-1.8025000000000002,-3.8150000000000004,0.8941875,0.198875,0.12371875,1.1282812500000001,0.8670625000000001,-0.29059375,-0.36971875,1.0972187500000001,0.020150546958120363,0.020247976805230876,True
46767,44963,0,44964,4379.0,40261.0,40885.0,-0.000244,0.00122,-0.000122,0.28,-1.6275000000000002,-3.9025000000000003,0.89234375,0.19978125,0.12353125000000001,1.124875,0.8900625,-0.29040625000000003,-0.3748125,1.09109375,0.020180292373660896,0.020445029064326135,True
46768,44964,0,44965,4380.0,40262.0,40887.0,0.000305,-0.000366,-0.001586,0.24500000000000002,-1.6975000000000002,-3.8150000000000004,0.8944062500000001,0.19996875,0.12196875,1.1210625,0.884625,-0.29175,-0.3745,1.0908125,0.02024221186205193,0.0203683665305955,True
46769,44965,0,44966,4380.0,40261.0,40886.0,0.0026839999999999998,-0.000793,-0.0017079999999999999,0.1925,-1.7850000000000001,-3.9375000000000004,0.90240625,0.20134375000000002,0.12115625000000001,1.12203125,0.86940625,-0.30090625,-0.35978125,1.11825,0.020667953484245057,0.01974309600994467,True
46770,44966,0,44967,4380.0,40261.0,40887.0,0.002074,-0.001769,-0.0023179999999999997,0.2625,-1.7500000000000002,-4.0600000000000005,0.896625,0.2023125,0.13084375,1.129375,0.85240625,-0.299875,-0.36112500000000003,1.1126875,0.020666258571288947,0.02019482885129484,True
46771,44967,0,44968,4380.0,40261.0,40889.0,0.000793,-0.001098,-0.001952,0.2625,-1.5925000000000002,-3.8850000000000002,0.88465625,0.202125,0.1215625,1.1206562500000001,0.8666875,-0.29071875,-0.37146875,1.10459375,0.020289385220435274,0.02022985381215484,True
46772,44968,0,44969,4382.0,40262.0,40888.0,-0.001037,-0.0008539999999999999,0.001281,0.43750000000000006,-1.435,-3.7975000000000003,0.8953125000000001,0.20184375000000002,0.1209375,1.12096875,0.85196875,-0.294625,-0.366875,1.1030625,0.02043533291828954,0.020019493677379638,True
46773,44969,0,44970,4382.0,40263.0,40889.0,-0.001098,0.0008539999999999999,0.000183,0.385,-1.3475000000000001,-3.7275000000000005,0.88990625,0.19953125,0.120625,1.12321875,0.86071875,-0.29521875000000003,-0.36771875,1.10321875,0.02036408912761899,0.020040601872097687,True
46774,44970,0,44971,4383.0,40261.0,40885.0,-0.002806,0.00122,-0.000915,0.4025,-1.2075,-3.6400000000000006,0.89359375,0.1993125,0.12690625,1.120875,0.8648750000000001,-0.29725,-0.3626875,1.10134375,0.020436983609256193,0.020096048516814905,True
46775,44971,0,44972,4383.0,40262.0,40885.0,-0.0017079999999999999,0.001403,0.001098,0.47250000000000003,-1.155,-3.6750000000000003,0.9001875,0.20171875,0.1236875,1.12653125,0.871,-0.29346875,-0.36490625,1.1090625,0.020383565027122776,0.020053175866416476,True
46776,44972,0,44973,4383.0,40260.0,40883.0,-0.00061,-0.000976,0.00042699999999999997,0.43750000000000006,-1.2600000000000002,-3.7275000000000005,0.89478125,0.20196875,0.12225,1.12603125,0.8648750000000001,-0.29403125,-0.36721875,1.10803125,0.02041653749827954,0.02008718167722773,True
46777,44973,0,44974,4384.0,40258.0,40882.0,0.002928,0.0013419999999999999,0.000244,0.56,-1.435,-3.7450000000000006,0.89565625,0.20253125,0.1215625,1.121625,0.8644375,-0.295375,-0.3659375,1.10125,0.02049386971800188,0.02000743866309269,True
46778,44974,0,44975,4381.0,40257.0,40879.0,0.0008539999999999999,6.1e-05,0.000244,0.45500000000000007,-1.225,-3.7450000000000006,0.8948125,0.20121875,0.12309375,1.1206875,0.86521875,-0.29525,-0.3658125,1.0949375000000001,0.02043480721540219,0.02006525536548391,True
46779,44975,0,44976,4382.0,40257.0,40878.0,-0.00122,-0.00042699999999999997,0.00061,0.43750000000000006,-1.3825,-3.6750000000000003,0.9,0.2011875,0.1240625,1.12165625,0.87075,-0.29531250000000003,-0.3655625,1.10478125,0.02043604090295196,0.02009495984342656,True
46780,44976,0,44977,4381.0,40256.0,40877.0,-0.000488,0.001037,0.000549,0.43750000000000006,-1.4525000000000001,-3.6925000000000003,0.9008125,0.2013125,0.12353125000000001,1.1240937500000001,0.872625,-0.29531250000000003,-0.3645,1.104125,0.02044118592835552,0.020030423361858445,True
46781,44977,0,44978,4382.0,40259.0,40877.0,0.001647,-0.000122,-0.000793,0.43750000000000006,-1.5575,-3.6750000000000003,0.8949375,0.2054375,0.124625,1.1205625000000001,0.866125,-0.29425,-0.3688125,1.1013125,0.02056813855130329,0.020248729805771207,True
46782,44978,0,44979,4382.0,40257.0,40876.0,0.0011589999999999999,-0.000366,-0.0006709999999999999,0.525,-1.2950000000000002,-3.5525,0.89659375,0.20121875,0.1255625,1.13546875,0.8699687500000001,-0.29515625,-0.365875,1.1069375000000001,0.020431027275241334,0.020169088940988164,True
46783,44979,0,44980,4380.0,40259.0,40875.0,-0.001464,-0.000549,0.000488,0.42000000000000004,-1.155,-3.6575,0.8929375,0.197625,0.12221875,1.11134375,0.8631875,-0.29753125,-0.36453125000000003,1.101375,0.02037887079577272,0.019977810982922155,True
46784,44980,0,44981,4379.0,40259.0,40876.0,-0.002196,0.00042699999999999997,0.0011589999999999999,0.47250000000000003,-1.155,-3.6400000000000006,0.9043125,0.194125,0.12553125,1.1240625,0.87215625,-0.29131250000000003,-0.36515625,1.10690625,0.019983996336138694,0.02013890224898517,True
46785,44981,0,44982,4378.0,40260.0,40877.0,-0.001769,0.000915,0.002257,0.385,-1.2075,-3.5175000000000005,0.90146875,0.20340625,0.1271875,1.13446875,0.86590625,-0.29046875,-0.36778125,1.10653125,0.02033204896467879,0.02031242585945325,True
46786,44982,0,44983,4380.0,40256.0,40878.0,-0.0028669999999999998,0.00122,-0.000244,0.385,-1.1725,-3.7100000000000004,0.8911250000000001,0.20421875,0.11937500000000001,1.11575,0.865375,-0.29581250000000003,-0.3663125,1.10190625,0.020580964312265748,0.019932745260490277,True
46787,44983,0,44984,4380.0,40259.0,40879.0,-0.001647,0.0013419999999999999,-0.001037,0.28,-1.3650000000000002,-3.7450000000000006,0.8950312500000001,0.19684375,0.12578125,1.115125,0.8710625000000001,-0.2949375,-0.3649375,1.09528125,0.020242128632765574,0.020140365638122406,True
46788,44984,0,44985,4380.0,40260.0,40881.0,-0.001464,-0.000244,-0.00061,0.28,-1.4700000000000002,-3.7275000000000005,0.91121875,0.201,0.1259375,1.1280937500000001,0.8716875000000001,-0.29459375,-0.359,1.1081875,0.020399342960818186,0.019907939570589925,True
46789,44985,0,44986,4380.0,40261.0,40883.0,0.0013419999999999999,-0.0008539999999999999,-0.000488,0.3325,-1.7850000000000001,-3.8150000000000004,0.91346875,0.2026875,0.12703125,1.13784375,0.85646875,-0.29446875,-0.36834375,1.108375,0.020463762970737938,0.020328628202316786,True
46790,44986,0,44987,4380.0,40259.0,40882.0,0.0035989999999999998,-0.002013,0.000122,0.28,-2.0650000000000004,-3.8850000000000002,0.890375,0.20446875,0.11771875,1.12571875,0.8646875,-0.29640625,-0.3693125,1.0949375000000001,0.020615188717467217,0.01998543249835218,True
46791,44987,0,44988,4380.0,40260.0,40883.0,0.002257,0.00061,-0.00061,0.31500000000000006,-1.9775000000000003,-3.7625,0.8884062500000001,0.19793750000000002,0.11990625,1.11615625,0.86490625,-0.2974375,-0.36609375,1.10209375,0.020387952433255564,0.019945749408437696,True
46792,44988,0,44989,4380.0,40261.0,40886.0,0.00061,-0.000244,0.00042699999999999997,0.29750000000000004,-1.8025000000000002,-3.8150000000000004,0.9072187500000001,0.20265625,0.12662500000000002,1.1333125,0.87190625,-0.295375,-0.3675,1.10621875,0.020499014730169837,0.020278034266953935,True
46793,44989,0,44990,4383.0,40262.0,40888.0,0.000305,6.1e-05,0.000122,0.4025,-1.7325000000000002,-3.8500000000000005,0.88809375,0.20253125,0.11828125,1.117,0.86453125,-0.29721875000000003,-0.3693125,1.1013125,0.020568197748970757,0.02000851480730119,True
46794,44990,0,44991,4381.0,40262.0,40891.0,0.00042699999999999997,0.0018909999999999999,-0.000122,0.5075000000000001,-1.8375000000000001,-3.8150000000000004,0.89659375,0.20109375000000002,0.12440625,1.12484375,0.87128125,-0.295375,-0.3659375,1.10640625,0.020434702078070414,0.02012414872196073,True
46795,44991,0,44992,4383.0,40262.0,40894.0,0.000122,0.000549,0.00122,0.45500000000000007,-1.8900000000000001,-3.9200000000000004,0.8946875,0.2026875,0.120125,1.12096875,0.865625,-0.29484375,-0.3688125,1.102,0.020478882478921066,0.020064067545351255,True
46796,44992,0,44993,4384.0,40265.0,40897.0,0.000793,-0.001098,0.00061,0.43750000000000006,-1.7325000000000002,-3.8675,0.90365625,0.201375,0.121375,1.12140625,0.87115625,-0.29584375,-0.360375,1.1035,0.020465177300129783,0.019775968144989556,True
46797,44993,0,44994,4383.0,40266.0,40899.0,-0.000732,-0.001098,-0.000183,0.29750000000000004,-1.8025000000000002,-3.8150000000000004,0.8956875,0.198125,0.12340625000000001,1.1274375,0.86490625,-0.296875,-0.36562500000000003,1.10184375,0.02037299035369775,0.020070539951263306,True
46798,44994,0,44995,4386.0,40267.0,40902.0,-0.000915,-0.000549,-0.00122,0.29750000000000004,-1.715,-3.7100000000000004,0.895875,0.19996875,0.12290625000000001,1.1218125,0.8630625000000001,-0.29581250000000003,-0.36571875,1.10190625,0.02040603704856547,0.02005378971223658,True
46799,44995,0,44996,4386.0,40267.0,40903.0,-0.00042699999999999997,-0.000366,-0.000183,0.43750000000000006,-1.6625,-3.6400000000000006,0.90128125,0.20759375,0.12003125,1.11546875,0.87253125,-0.29584375,-0.3681875,1.103625,0.0207211367170568,0.020035086729367952,True
46800,44996,0,44997,4387.0,40268.0,40906.0,0.001586,0.0017079999999999999,-0.000244,0.42000000000000004,-1.6975000000000002,-3.6400000000000006,0.89446875,0.20078125,0.12284375,1.1115,0.8646875,-0.29875,-0.3656875,1.102,0.020557899068882144,0.020049967808213907,True
46801,44997,0,44998,4387.0,40266.0,40909.0,-0.00183,0.002806,-0.000366,0.45500000000000007,-1.5575,-3.8150000000000004,0.90215625,0.2005625,0.12328125000000001,1.1270625,0.873,-0.29521875000000003,-0.3654375,1.10771875,0.020406535750990103,0.020057868856243607,True
46802,44998,0,44999,4390.0,40266.0,40912.0,-0.0037819999999999998,0.000793,0.001464,0.36750000000000005,-1.5225000000000002,-4.025,0.90246875,0.20225,0.12428125,1.1253125,0.87246875,-0.2951875,-0.36190625,1.0996875,0.020474733936504914,0.019956874269639716,True
46803,44999,0,45000,4389.0,40267.0,40911.0,-0.0042699999999999995,-0.0025009999999999998,0.0006709999999999999,0.29750000000000004,-1.7500000000000002,-4.1475,0.88909375,0.20159375000000002,0.12109375,1.12234375,0.8657812500000001,-0.294375,-0.36843750000000003,1.1018125,0.0204149623112346,0.020088741840752,True
46804,45000,0,45001,4390.0,40268.0,40914.0,-6.1e-05,-0.0035989999999999998,-0.0008539999999999999,0.28,-1.9075000000000002,-4.0075,0.892,0.20221875,0.124375,1.12271875,0.86525,-0.29478125,-0.359125,1.10128125,0.020457068326145147,0.01984882461911091,True
46805,45001,0,45002,4390.0,40267.0,40915.0,0.00183,-0.00183,-0.000122,0.2625,-2.1175,-3.9025000000000003,0.8952187500000001,0.19975,0.1228125,1.11421875,0.86546875,-0.298375,-0.3663125,1.10196875,0.02050034210106643,0.020073821182421427,True
46806,45002,0,45003,4393.0,40268.0,40916.0,0.0030499999999999998,-0.0008539999999999999,-0.0021349999999999997,0.3325,-2.1700000000000004,-3.6925000000000003,0.9015,0.201625,0.12871875,1.126125,0.87103125,-0.29534375,-0.36578125,1.106,0.020455308437444933,0.02029485510545655,True
46807,45003,0,45004,4394.0,40270.0,40917.0,0.004026,0.002013,-0.00042699999999999997,0.42000000000000004,-1.995,-3.5525,0.90315625,0.20146875,0.123125,1.11478125,0.871375,-0.29528125,-0.36571875,1.1013125,0.020446357253015957,0.02006276748967235,True
46808,45004,0,45005,4396.0,40273.0,40919.0,0.003721,0.003172,0.001098,0.45500000000000007,-2.0475000000000003,-3.535,0.9020312500000001,0.20028125,0.1230625,1.1148437500000001,0.8729687500000001,-0.29828125,-0.3665625,1.10159375,0.0205184265862426,0.02009413514934657,True
46809,45005,0,45006,4396.0,40273.0,40924.0,0.0018909999999999999,0.002745,0.002989,0.5425000000000001,-1.9775000000000003,-3.7275000000000005,0.89509375,0.200125,0.12321875,1.1213125,0.85475,-0.29634375,-0.36615625,1.10171875,0.02043388730042972,0.020084210040309497,True
46810,45006,0,45007,4397.0,40275.0,40927.0,0.000915,0.001586,0.002928,0.43750000000000006,-1.6625,-3.7275000000000005,0.9019375000000001,0.199375,0.12528125,1.121375,0.87175,-0.29815625,-0.365875,1.10203125,0.020476090649882126,0.02015754615830542,True
46811,45007,0,45008,4399.0,40273.0,40928.0,-0.001281,-0.000732,-0.000976,0.24500000000000002,-1.2775,-3.7625,0.899,0.20075,0.1235,1.11996875,0.87184375,-0.29531250000000003,-0.36559375,1.09378125,0.02041803331403949,0.020073130785085016,True
46812,45008,0,45009,4400.0,40276.0,40928.0,-0.000122,-0.001586,-0.002989,0.24500000000000002,-1.2075,-3.7625,0.8875937500000001,0.20196875,0.12375,1.1244687500000001,0.87134375,-0.29465625,-0.36562500000000003,1.10809375,0.02044173808797974,0.020084647941515966,True
46813,45009,0,45010,4400.0,40273.0,40929.0,0.00042699999999999997,-0.002562,-0.0030499999999999998,0.17500000000000002,-1.0150000000000001,-3.7450000000000006,0.89965625,0.202125,0.12375,1.12090625,0.85959375,-0.29471875000000003,-0.36528125,1.10171875,0.02045068951456785,0.02007082311024011,True
46814,45010,0,45011,4399.0,40271.0,40923.0,-0.0015249999999999999,-0.002806,-0.001037,0.22750000000000004,-0.9275000000000001,-3.7625,0.899375,0.19984375000000001,0.12321875,1.1228125,0.869,-0.294875,-0.365875,1.102125,0.020363090981122562,0.0200728990852986,True
46815,45011,0,45012,4401.0,40268.0,40913.0,-0.0035989999999999998,-0.001769,0.000244,0.35000000000000003,-0.9100000000000001,-3.7975000000000003,0.8975625,0.2021875,0.1249375,1.1249375,0.87409375,-0.29515625,-0.36459375,1.11525,0.020470901478561183,0.02009191103381315,True
46816,45012,0,45013,4400.0,40264.0,40902.0,-0.004575,-0.000305,-6.1e-05,0.36750000000000005,-0.8575,-3.5875000000000004,0.89484375,0.20234375000000002,0.12384375,1.125625,0.8721875,-0.29396875,-0.36465625,1.11159375,0.02042945329795075,0.020049533840642633,True
46817,45013,0,45014,4398.0,40260.0,40889.0,-0.004148,0.0023179999999999997,0.000366,0.42000000000000004,-1.05,-3.5875000000000004,0.9009375000000001,0.20525000000000002,0.13053125000000002,1.12140625,0.87796875,-0.29775,-0.36540625,1.09809375,0.020701505283411015,0.020354165036751647,True
46818,45014,0,45015,4395.0,40257.0,40878.0,-6.1e-05,0.002257,0.00042699999999999997,0.42000000000000004,-1.2425000000000002,-3.6925000000000003,0.90659375,0.20221875,0.12334375,1.1340000000000001,0.8740625,-0.2955,-0.36421875,1.1116875,0.0204860467987899,0.020011415305487685,True
46819,45015,0,45016,4392.0,40255.0,40870.0,0.001403,0.0011589999999999999,-0.0011589999999999999,0.47250000000000003,-1.5750000000000002,-3.8325000000000005,0.8979375,0.21021875,0.12396875,1.12253125,0.8669687500000001,-0.29359375,-0.36303125,1.106375,0.020738492014998812,0.019989302439531207,True
46820,45016,0,45017,4388.0,40253.0,40863.0,0.0037819999999999998,-0.000366,-0.000244,0.45500000000000007,-1.995,-3.8150000000000004,0.9284687500000001,0.20340625,0.12821875,1.1415625,0.8669687500000001,-0.29365625,-0.36434375,1.11259375,0.020460588348038388,0.020216530560155144,True
46821,45017,0,45018,4384.0,40252.0,40857.0,0.0034159999999999998,-0.001098,0.00244,0.5950000000000001,-1.8900000000000001,-3.8675,0.89634375,0.2056875,0.1228125,1.1226562500000001,0.859625,-0.29346875,-0.3686875,1.09940625,0.020546931981461066,0.02016932590234907,True
46822,45018,0,45019,4381.0,40249.0,40856.0,0.00122,0.000793,0.000549,0.49000000000000005,-1.6625,-3.7975000000000003,0.8825000000000001,0.19446875,0.12403125,1.1009375000000001,0.86146875,-0.2984375,-0.3645625,1.09271875,0.02028551218571153,0.02005345878876339,True
46823,45019,0,45020,4376.0,40246.0,40851.0,-6.1e-05,0.0028669999999999998,-0.000244,0.49000000000000005,-1.5050000000000001,-3.7450000000000006,0.91803125,0.20503125,0.12578125,1.14365625,0.871,-0.289125,-0.36909375,1.10671875,0.020344753053063873,0.020307484762333437,True
46824,45020,0,45021,4374.0,40246.0,40853.0,-0.000976,0.001952,0.0,0.42000000000000004,-1.54,-3.6925000000000003,0.87628125,0.20275,0.120125,1.110625,0.8546875,-0.2965,-0.36703125000000003,1.09815625,0.020548227110900746,0.019992433423747506,True
46825,45021,0,45022,4371.0,40247.0,40851.0,-0.000122,-0.000549,0.0006709999999999999,0.36750000000000005,-1.5750000000000002,-3.7625,0.9205,0.20215625,0.12990625,1.1437187500000001,0.87828125,-0.293875,-0.3663125,1.10890625,0.020417955143014446,0.020364950584952073,True
46826,45022,0,45023,4368.0,40248.0,40849.0,0.000549,0.000183,-0.001647,0.2625,-1.5050000000000001,-3.7450000000000006,0.8821875,0.19765625,0.11734375,1.111125,0.861,-0.29531250000000003,-0.36665625,1.098625,0.020290693935301307,0.019863209585845414,True
46827,45023,0,45024,4366.0,40246.0,40849.0,-0.0023179999999999997,6.1e-05,-0.000244,0.31500000000000006,-1.4175000000000002,-3.7975000000000003,0.91028125,0.20071875,0.12759375,1.13746875,0.87175,-0.29365625,-0.36603125000000003,1.10625,0.020349962760339953,0.02025873622730415,True
46828,45024,0,45025,4364.0,40245.0,40849.0,-0.0034159999999999998,-0.000793,-0.001769,0.28,-1.4700000000000002,-3.8675,0.88284375,0.19209375,0.1205,1.11103125,0.86346875,-0.29878125,-0.36625,1.1010312500000001,0.020201630483010335,0.019976401785256247,True
46829,45025,0,45026,4361.0,40246.0,40854.0,-0.0025009999999999998,-0.000976,-0.000305,0.28,-1.5750000000000002,-3.8850000000000002,0.9166562500000001,0.20365625,0.1218125,1.1360625,0.87209375,-0.29434375,-0.36821875,1.107875,0.02049859856782507,0.02010944070337517,True
46830,45026,0,45027,4364.0,40247.0,40857.0,-0.000488,-0.000549,-0.001647,0.35000000000000003,-1.7500000000000002,-3.7800000000000002,0.889625,0.2015,0.123875,1.12025,0.8646875,-0.29459375,-0.36878125,1.1005,0.020419923671290037,0.020216696310981903,True
46831,45027,0,45028,4363.0,40248.0,40860.0,0.001952,-0.001037,-0.001098,0.47250000000000003,-1.8200000000000003,-3.7450000000000006,0.8868125,0.2069375,0.1238125,1.12909375,0.8660625000000001,-0.29478125,-0.36734375,1.10859375,0.02065129728220953,0.02015633115529878,True
46832,45028,0,45029,4362.0,40248.0,40862.0,0.0006709999999999999,0.000793,0.001281,0.5075000000000001,-1.6275000000000002,-3.7275000000000005,0.89475,0.20584375,0.124,1.12640625,0.86646875,-0.2949375,-0.36559375,1.1060625,0.02061257617970822,0.020093651524498556,True
46833,45029,0,45030,4361.0,40252.0,40865.0,-0.000305,0.002196,0.0026839999999999998,0.49000000000000005,-1.7675,-3.6400000000000006,0.90190625,0.20203125,0.12421875,1.12665625,0.87375,-0.29481250000000003,-0.36575,1.1084687500000001,0.02045061059845595,0.020108913126006794,True
46834,45030,0,45031,4362.0,40253.0,40868.0,-0.0006709999999999999,0.001281,0.002806,0.49000000000000005,-1.8550000000000002,-3.6925000000000003,0.89690625,0.20190625,0.124,1.1283125,0.87240625,-0.29509375,-0.36525,1.10784375,0.020456805193435405,0.02007982680251588,True
46835,45031,0,45032,4361.0,40255.0,40873.0,0.0017079999999999999,0.0017079999999999999,-0.000122,0.36750000000000005,-1.8725000000000003,-3.8325000000000005,0.9001875,0.2019375,0.12384375,1.12890625,0.86484375,-0.29231250000000003,-0.36515625,1.10709375,0.02034594277510632,0.02006964350987899,True
46836,45032,0,45033,4361.0,40255.0,40874.0,0.001037,-0.001037,0.0,0.42000000000000004,-1.8025000000000002,-3.9375000000000004,0.900625,0.20178125,0.12284375,1.12121875,0.87353125,-0.29446875,-0.36553125000000003,1.09540625,0.020426460241078536,0.020043683636079144,True
46837,45033,0,45034,4361.0,40257.0,40878.0,0.001098,-0.001464,-0.000183,0.4025,-1.8200000000000003,-3.9200000000000004,0.90015625,0.19928125,0.12359375,1.12159375,0.86946875,-0.2961875,-0.36534375,1.1027500000000001,0.020392859990893634,0.020066923948076867,True
46838,45034,0,45035,4363.0,40257.0,40881.0,0.0023179999999999997,-0.00122,-0.001037,0.385,-1.7675,-3.8150000000000004,0.9036875,0.20196875,0.1241875,1.127375,0.8730625,-0.29734375,-0.364875,1.1029375000000001,0.020550085850433757,0.02007244034701594,True
46839,45035,0,45036,4364.0,40258.0,40881.0,0.003111,0.0,-0.00061,0.43750000000000006,-1.6800000000000002,-3.8850000000000002,0.90175,0.20165625,0.123625,1.12671875,0.85940625,-0.29503125,-0.3625625,1.10934375,0.0204439951070242,0.019956336694877643,True
46840,45036,0,45037,4364.0,40260.0,40882.0,-0.000122,-0.00122,-6.1e-05,0.29750000000000004,-1.3650000000000002,-3.8675,0.89453125,0.20178125,0.122375,1.1075625,0.86725,-0.29425,-0.3675,1.106875,0.020417639976537658,0.020103621627167334,True
46841,45037,0,45038,4363.0,40259.0,40884.0,-0.002013,0.000549,-0.000732,0.3325,-0.9100000000000001,-3.6925000000000003,0.89478125,0.1983125,0.12075,1.12128125,0.8646875,-0.289375,-0.36625,1.10165625,0.020078223503074904,0.019986661878623094,True
46842,45038,0,45039,4365.0,40261.0,40883.0,-0.003111,0.002196,-0.001098,0.47250000000000003,-0.8225000000000001,-3.6750000000000003,0.90196875,0.2005625,0.12528125,1.1254375,0.86575,-0.2983125,-0.36525,1.10171875,0.0205312611729724,0.02013241193913463,True
46843,45039,0,45040,4366.0,40259.0,40884.0,-0.001952,-0.000793,-0.001586,0.5075000000000001,-0.9800000000000001,-3.5875000000000004,0.90234375,0.2025625,0.124375,1.12903125,0.873375,-0.29465625,-0.36578125,1.1079375,0.0204661776187922,0.020116582553658113,True
46844,45040,0,45041,4365.0,40259.0,40882.0,-0.001647,-0.000244,0.001647,0.5075000000000001,-0.9975,-3.5700000000000003,0.8954062500000001,0.20225,0.12171875,1.1210625,0.86825,-0.295,-0.36475,1.10721875,0.020467174315702816,0.019966088303799544,True
46845,45041,0,45042,4366.0,40254.0,40878.0,6.1e-05,-0.00042699999999999997,0.0017079999999999999,0.56,-1.2775,-3.6050000000000004,0.89515625,0.20103125,0.12340625000000001,1.1278125,0.8648750000000001,-0.29734375,-0.3654375,1.1068125,0.020511501385825356,0.020062999073995696,True
46846,45042,0,45043,4364.0,40256.0,40877.0,-0.000549,-6.1e-05,0.00183,0.525,-1.2425000000000002,-3.6225000000000005,0.8954375,0.20303125,0.12128125000000001,1.121625,0.86634375,-0.29528125,-0.36612500000000003,1.10178125,0.020510670153283367,0.02000343714891063,True
46847,45043,0,45044,4364.0,40252.0,40876.0,-0.001403,0.000549,-6.1e-05,0.43750000000000006,-1.33,-3.6925000000000003,0.895,0.1988125,0.1255625,1.1131875,0.86559375,-0.2926875,-0.36634375,1.10140625,0.020232425910060383,0.020187938537147166,True
46848,45044,0,45045,4364.0,40250.0,40871.0,0.000488,0.000488,0.00042699999999999997,0.49000000000000005,-1.4525000000000001,-3.6225000000000005,0.90090625,0.20175,0.1224375,1.12440625,0.8713125,-0.295125,-0.36278125,1.105625,0.02045163381542594,0.019916393987242324,True
46849,45045,0,45046,4362.0,40253.0,40875.0,0.000732,-6.1e-05,-0.000976,0.4025,-1.4875,-3.5525,0.89565625,0.20025,0.12396875,1.12075,0.8645625,-0.2941875,-0.36640625,1.10184375,0.02035209039199191,0.02012504408605598,True
46850,45046,0,45047,4362.0,40251.0,40870.0,-0.000732,-0.000976,-0.001952,0.36750000000000005,-1.435,-3.6225000000000005,0.9025,0.20228125,0.123,1.1203750000000001,0.8703125,-0.29490625,-0.36496875,1.10765625,0.020464680739403964,0.020027472844593736,True
46851,45047,0,45048,4360.0,40252.0,40868.0,-0.000122,0.0006709999999999999,0.001037,0.4025,-1.3475000000000001,-3.5525,0.896,0.2008125,0.123625,1.12771875,0.8655,-0.29809375,-0.35984375,1.11315625,0.02053273212018947,0.019846956120151634,True
46852,45048,0,45049,4360.0,40251.0,40871.0,0.000366,-0.000305,0.001281,0.4025,-1.33,-3.6225000000000005,0.8950312500000001,0.1995,0.12375,1.1215,0.8583125,-0.2954375,-0.366,1.102375,0.020371623272888172,0.020099729130755972,True
46853,45049,0,45050,4361.0,40252.0,40871.0,-0.00042699999999999997,-0.000122,-0.00061,0.45500000000000007,-1.3825,-3.6750000000000003,0.90115625,0.2005,0.12321875,1.12203125,0.85346875,-0.30253125000000003,-0.36640625,1.09796875,0.020698718369099926,0.020094264003334507,True
46854,45050,0,45051,4359.0,40251.0,40867.0,-0.001647,0.001952,0.00122,0.43750000000000006,-1.3475000000000001,-3.6400000000000006,0.90271875,0.200125,0.1236875,1.12296875,0.8675625,-0.2979375,-0.36746875,1.0961875,0.020498138988134282,0.02015622775755073,True
46855,45051,0,45052,4359.0,40251.0,40870.0,-0.001037,-0.000976,-0.00061,0.385,-1.435,-3.7450000000000006,0.9000312500000001,0.2020625,0.1243125,1.12859375,0.87365625,-0.30225,-0.36275,1.10828125,0.020751679371251636,0.019992098593139117,True
46856,45052,0,45053,4358.0,40252.0,40873.0,0.0,-0.0018909999999999999,-0.000732,0.31500000000000006,-1.5575,-3.8325000000000005,0.8955000000000001,0.20575000000000002,0.1201875,1.121625,0.88075,-0.28759375,-0.367375,1.1085625000000001,0.02031258242698497,0.020008823272921274,True
46857,45053,0,45054,4358.0,40251.0,40874.0,-0.000793,-0.000366,-0.000976,0.35000000000000003,-1.7500000000000002,-3.7625,0.8951250000000001,0.199625,0.12340625000000001,1.121375,0.85853125,-0.29665625,-0.371375,1.09575,0.020425907371513313,0.02030173718142698,True
46858,45054,0,45055,4358.0,40252.0,40875.0,0.000549,-0.00042699999999999997,0.0013419999999999999,0.3325,-1.7325000000000002,-3.8500000000000005,0.9003125000000001,0.2024375,0.121,1.12840625,0.864625,-0.3000625,-0.36259375,1.1174375,0.020678959159055658,0.019849846652719397,True
46859,45055,0,45056,4358.0,40252.0,40876.0,0.0,-0.000122,0.0008539999999999999,0.28,-1.6625,-3.8850000000000002,0.894875,0.1985,0.123125,1.12025,0.8679375,-0.29321875000000003,-0.3686875,1.10834375,0.020240988032925854,0.020182149736213736,True
46860,45056,0,45057,4358.0,40253.0,40878.0,0.000244,0.0011589999999999999,0.0,0.36750000000000005,-1.7500000000000002,-3.8325000000000005,0.8944375,0.19818750000000002,0.1235,1.12096875,0.85865625,-0.29903125,-0.37328125,1.0952187500000001,0.020462492717688078,0.020382206437633422,True
46861,45057,0,45058,4358.0,40254.0,40879.0,0.002196,0.001464,6.1e-05,0.31500000000000006,-1.8550000000000002,-3.9375000000000004,0.9005625,0.2020625,0.12175,1.1223750000000001,0.8486875,-0.29696875,-0.36053125,1.11528125,0.020538827502916388,0.019797649117360688,True
46862,45058,0,45059,4360.0,40254.0,40881.0,0.002562,-0.000793,-6.1e-05,0.15750000000000003,-2.0300000000000002,-3.9375000000000004,0.89490625,0.19828125,0.123375,1.12134375,0.8582500000000001,-0.2956875,-0.36978125,1.09540625,0.02033154031965549,0.020236383943741804,True
46863,45059,0,45060,4360.0,40254.0,40883.0,0.002013,-0.000976,-0.000488,0.36750000000000005,-2.0125,-3.9375000000000004,0.89996875,0.2013125,0.12659375,1.125875,0.86453125,-0.29809375,-0.36371875000000004,1.09334375,0.0205533098661289,0.020124698738775256,True
46864,45060,0,45061,4361.0,40256.0,40886.0,0.00183,0.0008539999999999999,-0.000122,0.42000000000000004,-1.9075000000000002,-3.9025000000000003,0.8950625,0.19968750000000002,0.123,1.11971875,0.86559375,-0.29303125,-0.36628125,1.1015625,0.020282308326590576,0.020080259477428464,True
46865,45061,0,45062,4360.0,40258.0,40886.0,0.001586,-0.000976,-0.00061,0.31500000000000006,-1.8025000000000002,-3.99,0.90078125,0.2068125,0.1210625,1.1225625000000001,0.8717812500000001,-0.29534375,-0.36440625,1.1070312500000001,0.020668826717053553,0.019925326520115794,True
46866,45062,0,45063,4362.0,40257.0,40889.0,0.001037,-6.1e-05,-0.0006709999999999999,0.42000000000000004,-1.5750000000000002,-3.8325000000000005,0.89571875,0.20009375000000001,0.12265625000000001,1.11684375,0.8630625000000001,-0.29775,-0.36846875,1.10171875,0.020489294276218994,0.020154118218856078,True
46867,45063,0,45064,4363.0,40258.0,40891.0,0.000122,-0.000488,0.000183,0.43750000000000006,-1.5050000000000001,-3.7450000000000006,0.9000312500000001,0.20065625,0.1241875,1.113875,0.86453125,-0.29553125,-0.365875,1.10203125,0.0204229944549988,0.020112657558983622,True
46868,45064,0,45065,4364.0,40259.0,40895.0,-0.0011589999999999999,-0.001464,0.001098,0.49000000000000005,-1.3475000000000001,-3.6225000000000005,0.9005,0.2020625,0.12409375,1.12671875,0.873125,-0.295375,-0.36475,1.10928125,0.020474575922372056,0.020063565191516433,True
46869,45065,0,45066,4364.0,40260.0,40896.0,-0.003111,-0.000732,0.0011589999999999999,0.4025,-1.0850000000000002,-3.6225000000000005,0.89484375,0.20190625,0.12375,1.124625,0.86434375,-0.2940625,-0.3671875,1.1098125,0.02041522491349481,0.02014748316768195,True
46870,45066,0,45067,4366.0,40261.0,40901.0,-0.002623,0.004026,0.000366,0.42000000000000004,-0.9275000000000001,-3.6050000000000004,0.89465625,0.20175,0.12628125,1.1260625,0.86634375,-0.2939375,-0.36740625,1.10365625,0.0204037529939311,0.02026015797229137,True
46871,45067,0,45068,4368.0,40264.0,40899.0,-0.003477,0.001464,-6.1e-05,0.4025,-1.0675000000000001,-3.6925000000000003,0.89534375,0.20303125,0.1229375,1.11303125,0.86553125,-0.294375,-0.3673125,1.0985625,0.020474132386612127,0.020119165788184477,True
46872,45068,0,45069,4367.0,40263.0,40901.0,-0.0015249999999999999,-0.001281,0.0008539999999999999,0.385,-1.2775,-3.9025000000000003,0.89109375,0.19918750000000002,0.12428125,1.12890625,0.86584375,-0.29659375,-0.36353125000000003,1.10228125,0.02040538089829979,0.020022241234016518,True
46873,45069,0,45070,4369.0,40263.0,40904.0,0.000366,-0.003477,-0.000915,0.2625,-1.435,-3.9375000000000004,0.9024375,0.201375,0.121,1.1204687500000001,0.87190625,-0.29471875000000003,-0.3656875,1.101375,0.02041981860769637,0.019974297872777037,True
46874,45070,0,45071,4370.0,40266.0,40905.0,0.00244,-0.0025009999999999998,-0.003538,0.35000000000000003,-1.6800000000000002,-3.7275000000000005,0.89425,0.19543750000000001,0.12421875,1.1285625,0.86521875,-0.2963125,-0.36578125,1.10509375,0.020239696867580214,0.020110169871938744,True
46875,45071,0,45072,4373.0,40264.0,40909.0,0.003843,-0.0013419999999999999,-0.001037,0.35000000000000003,-1.3125000000000002,-3.6225000000000005,0.90871875,0.2029375,0.12121875,1.1266875,0.87109375,-0.29428125,-0.36628125,1.1054375,0.020466493529212763,0.020007156405945203,True
46876,45072,0,45073,4373.0,40266.0,40908.0,0.0026839999999999998,0.001769,0.000732,0.5075000000000001,-1.225,-3.4125000000000005,0.8916875,0.1955625,0.12434375,1.119625,0.865625,-0.29712500000000003,-0.365375,1.1008125,0.020277604860657383,0.020098962154286564,True
46877,45073,0,45074,4376.0,40265.0,40912.0,0.002196,0.0032329999999999998,0.001952,0.5425000000000001,-1.12,-3.3950000000000005,0.9061875,0.203625,0.12184375,1.12490625,0.8715,-0.29478125,-0.36825,1.107625,0.02051495112762129,0.02011197972771947,True
46878,45074,0,45075,4376.0,40266.0,40911.0,-6.1e-05,0.00366,0.001952,0.3325,-0.8400000000000001,-3.2900000000000005,0.8911250000000001,0.2008125,0.12,1.1204687500000001,0.8655625,-0.29753125,-0.3670625,1.1011250000000001,0.020510056963091675,0.01998856037735365,True
46879,45075,0,45076,4377.0,40264.0,40916.0,-0.0028669999999999998,0.000976,0.002562,0.4025,-0.5775,-3.3075,0.8913125000000001,0.1973125,0.12134375,1.1121875,0.865625,-0.29065625,-0.36684375,1.10178125,0.020088742970869714,0.020034909117025056,True
46880,45076,0,45077,4377.0,40266.0,40916.0,-0.002379,-0.000244,-0.0008539999999999999,0.3325,-0.4025,-3.5000000000000004,0.8915937500000001,0.20546875,0.11812500000000001,1.1086562500000001,0.86553125,-0.29571875000000003,-0.3665625,1.1019375,0.020628634417329185,0.019891500904159132,True
46881,45077,0,45078,4376.0,40265.0,40916.0,-0.0032329999999999998,-0.001403,-0.000976,0.28,-0.385,-3.4825000000000004,0.89125,0.20215625,0.11721875,1.11734375,0.8656875,-0.29596875,-0.366375,1.101625,0.020502372435756446,0.019846766291662175,True
46882,45078,0,45079,4378.0,40267.0,40918.0,-0.002623,-0.0015249999999999999,-0.0025009999999999998,0.17500000000000002,-0.3325,-3.5175000000000005,0.883375,0.19546875,0.12253125000000001,1.11853125,0.8649687500000001,-0.29171875,-0.366,1.1015,0.020055703139573028,0.020049710662398423,True
46883,45079,0,45080,4379.0,40269.0,40916.0,-0.001403,-0.001952,-0.003355,0.22750000000000004,-0.56,-3.5700000000000003,0.9023125000000001,0.19490625,0.12525,1.1246875,0.868625,-0.29728125,-0.36440625,1.10215625,0.020256896026175766,0.020097196089069482,True
46884,45080,0,45081,4380.0,40265.0,40910.0,-0.000793,-0.0017079999999999999,-0.002013,0.28,-0.7000000000000001,-3.4650000000000003,0.9035,0.20259375000000002,0.12321875,1.12721875,0.869125,-0.29496875,-0.36571875,1.1056875,0.020480063387609833,0.020066615108573393,True
46885,45081,0,45082,4379.0,40261.0,40897.0,-0.0025009999999999998,-0.0008539999999999999,-0.0008539999999999999,0.42000000000000004,-0.8925000000000001,-3.4825000000000004,0.89253125,0.201375,0.12053125,1.1211875,0.86571875,-0.29421875000000003,-0.36403125000000003,1.10221875,0.020399657840406992,0.019888436976126436,True
46886,45082,0,45083,4376.0,40256.0,40885.0,-0.002623,-0.000122,0.000244,0.5425000000000001,-1.2075,-3.5000000000000004,0.89475,0.20265625,0.12059375,1.1211875,0.86584375,-0.2955,-0.36796875,1.10209375,0.020504054248729187,0.020049373216633005,True
46887,45083,0,45084,4373.0,40249.0,40872.0,-0.00122,0.0021349999999999997,0.002623,0.49000000000000005,-1.435,-3.4475000000000002,0.89384375,0.19928125,0.12371875,1.12325,0.8649687500000001,-0.2956875,-0.36578125,1.100875,0.02037269988758293,0.020089649290436766,True
46888,45084,0,45085,4372.0,40250.0,40865.0,-0.000732,0.000793,0.0035989999999999998,0.5950000000000001,-1.6625,-3.4650000000000003,0.9030625,0.2060625,0.12103125,1.120875,0.88109375,-0.29528125,-0.36453125000000003,1.1275625,0.02063543717980215,0.019929072101479484,True
46889,45085,0,45086,4368.0,40248.0,40855.0,0.0015249999999999999,0.001403,0.002745,0.5775,-1.7675,-3.5525,0.89534375,0.20059375000000002,0.12375,1.1269375,0.8653125,-0.2968125,-0.37078125,1.095,0.02047207838476755,0.020291973610817256,True
46890,45086,0,45087,4364.0,40245.0,40853.0,0.002745,0.0008539999999999999,-0.000244,0.2625,-1.9250000000000003,-3.5175000000000005,0.90184375,0.2023125,0.1216875,1.12284375,0.86865625,-0.2989375,-0.36003125,1.108875,0.02062847398162985,0.019774964369144644,True
46891,45087,0,45088,4359.0,40243.0,40848.0,0.0030499999999999998,0.0,-0.0011589999999999999,0.4025,-2.0300000000000002,-3.535,0.8951250000000001,0.20075,0.121875,1.12178125,0.86746875,-0.29,-0.3648125,1.1041875,0.020203787566899962,0.019975015198659952,True
46892,45088,0,45089,4355.0,40241.0,40845.0,0.004148,0.000366,-0.0015249999999999999,0.31500000000000006,-1.8200000000000003,-3.5525,0.9019375000000001,0.201375,0.1240625,1.12546875,0.852625,-0.3020625,-0.360875,1.0904375,0.020715834304187143,0.019906407302693357,True
46893,45089,0,45090,4351.0,40243.0,40843.0,0.001281,0.000183,-0.000732,0.31500000000000006,-1.5925000000000002,-3.5000000000000004,0.90084375,0.20225,0.12515625,1.1265625000000001,0.87465625,-0.29940625,-0.3604375,1.1046562500000001,0.020644794561595514,0.019933703982122655,True
46894,45090,0,45091,4349.0,40242.0,40843.0,0.00042699999999999997,-0.001098,0.000305,0.4025,-1.61,-3.6050000000000004,0.8954062500000001,0.2025625,0.12228125000000001,1.12140625,0.89109375,-0.29534375,-0.35903125,1.12084375,0.020493896078338056,0.019759098588947376,True
46895,45091,0,45092,4346.0,40243.0,40843.0,-0.00183,-0.000732,6.1e-05,0.31500000000000006,-1.3125000000000002,-3.6750000000000003,0.90040625,0.20184375000000002,0.1234375,1.12321875,0.84696875,-0.30096875,-0.36053125,1.1231875,0.020691047553402578,0.01986692100567388,True
46896,45092,0,45093,4342.0,40242.0,40842.0,-0.004148,-0.000549,-0.000244,0.385,-1.1025,-3.5875000000000004,0.8859375,0.19871875,0.1243125,1.1225,0.8545,-0.2988125,-0.363375,1.12309375,0.0204755376420144,0.020017238990903352,True
46897,45093,0,45094,4342.0,40241.0,40843.0,-0.0062829999999999995,0.000793,-0.000305,0.28,-1.0675000000000001,-3.5700000000000003,0.8946875,0.2060625,0.12625,1.1279375,0.85359375,-0.296875,-0.3665,1.09678125,0.020699678456591642,0.02022243654197361,True
46898,45094,0,45095,4338.0,40243.0,40845.0,-0.003965,-0.000793,-0.001586,0.3325,-1.2775,-3.5875000000000004,0.89496875,0.19925,0.1225,1.1191875,0.8686875000000001,-0.293,-0.3755625,1.09021875,0.02026303873543819,0.0204328618057532,True
46899,45095,0,45096,4339.0,40240.0,40848.0,-0.000549,-0.001586,-0.000305,0.42000000000000004,-1.6450000000000002,-3.6400000000000006,0.8941250000000001,0.20846875,0.12053125,1.12184375,0.8797812500000001,-0.2911875,-0.36490625,1.10346875,0.020569445194888066,0.01992363504374247,True
46900,45096,0,45097,4338.0,40244.0,40848.0,0.003538,0.0011589999999999999,-0.000183,0.43750000000000006,-2.1875,-3.7975000000000003,0.89609375,0.20203125,0.124625,1.12421875,0.86053125,-0.29809375,-0.3624375,1.10471875,0.020582890375916832,0.01999235503426125,True
46901,45097,0,45098,4337.0,40244.0,40851.0,0.001464,0.0023179999999999997,6.1e-05,0.42000000000000004,-2.2225,-3.8500000000000005,0.8837812500000001,0.20028125,0.1233125,1.12559375,0.8660625000000001,-0.29865625,-0.36565625,1.1051875,0.02053354287852852,0.02006794912408731,True
46902,45098,0,45099,4337.0,40243.0,40855.0,-0.000366,0.000915,0.00244,0.5425000000000001,-2.1525000000000003,-3.7100000000000004,0.89584375,0.20225,0.12309375,1.12140625,0.86146875,-0.29409375,-0.36684375,1.1028125,0.020430634503499436,0.020106728020529947,True
46903,45099,0,45100,4337.0,40246.0,40859.0,0.001281,0.002257,0.001098,0.5775,-2.205,-3.7275000000000005,0.88196875,0.20225,0.12234375,1.12134375,0.86634375,-0.295,-0.366875,1.101625,0.020467174315702816,0.020077205222253574,True
46904,45100,0,45101,4337.0,40244.0,40858.0,0.0026839999999999998,0.001037,0.002074,0.56,-2.3625000000000003,-3.8325000000000005,0.89459375,0.20090625,0.12475,1.1222812500000001,0.86571875,-0.29171875,-0.36565625,1.102375,0.02027954485517827,0.020126946098568556,True
46905,45101,0,45102,4338.0,40247.0,40862.0,0.002623,-0.0013419999999999999,-0.0006709999999999999,0.28,-2.2225,-4.0075,0.9010625,0.20159375000000002,0.12390625000000001,1.1261875000000001,0.8735625,-0.29481250000000003,-0.36521875,1.10825,0.02043260263893784,0.02007472229240708,True
46906,45102,0,45103,4337.0,40247.0,40866.0,0.0013419999999999999,-0.001647,-0.0008539999999999999,0.29750000000000004,-2.0300000000000002,-3.99,0.8951250000000001,0.20265625,0.12059375,1.12165625,0.8645,-0.295875,-0.363375,1.10221875,0.020519172493273036,0.019864602092279908,True
46907,45103,0,45104,4339.0,40251.0,40870.0,0.0011589999999999999,-0.002196,-0.001037,0.28,-2.0825,-3.9550000000000005,0.89971875,0.20115625,0.12396875,1.1211875,0.8725625,-0.29703125,-0.365375,1.1018125,0.020504048205477778,0.020083571461551486,True
46908,45104,0,45105,4341.0,40249.0,40873.0,-0.000549,-0.00122,-0.001037,0.31500000000000006,-1.8200000000000003,-3.9725000000000006,0.89759375,0.19934375000000001,0.122125,1.12165625,0.87071875,-0.29834375,-0.36603125000000003,1.10125,0.020482363124029804,0.020034294669961896,True
46909,45105,0,45106,4340.0,40251.0,40876.0,0.0,-0.0011589999999999999,-0.0006709999999999999,0.385,-1.61,-3.9375000000000004,0.8905625,0.19718750000000002,0.11871875,1.11871875,0.86609375,-0.29775,-0.361875,1.1027500000000001,0.020369684435801668,0.019727289053079862,True
46910,45106,0,45107,4341.0,40253.0,40874.0,-0.000976,0.000244,0.001403,0.36750000000000005,-1.3825,-3.7975000000000003,0.89675,0.19403125000000002,0.12484375,1.109375,0.8711875,-0.29634375,-0.3649375,1.10753125,0.020183077957974645,0.020101888215391484,True
46911,45107,0,45108,4341.0,40252.0,40873.0,-0.000488,-0.000793,0.000549,0.29750000000000004,-1.4000000000000001,-3.7450000000000006,0.90846875,0.20434375,0.1244375,1.1189375,0.87284375,-0.29440625,-0.36921875,1.10153125,0.02052941713691809,0.02025736873489225,True
46912,45108,0,45109,4342.0,40251.0,40874.0,-0.00061,0.00042699999999999997,-0.000366,0.22750000000000004,-1.2075,-3.6750000000000003,0.8872187500000001,0.19903125,0.1268125,1.1341875000000001,0.87128125,-0.29484375,-0.36571875,1.10721875,0.020328387582241605,0.02021410716644671,True
46913,45109,0,45110,4342.0,40249.0,40872.0,-0.001403,0.0008539999999999999,0.000976,0.3325,-1.155,-3.7100000000000004,0.88915625,0.19793750000000002,0.12634375,1.12946875,0.8657812500000001,-0.29575,-0.3648125,1.108875,0.020319911918751224,0.020158425187963173,True
46914,45110,0,45111,4342.0,40248.0,40870.0,-0.000305,6.1e-05,-0.0006709999999999999,0.28,-1.1900000000000002,-3.7800000000000002,0.88065625,0.19771875,0.1229375,1.1098125,0.8649375,-0.29571875000000003,-0.3656875,1.10584375,0.020309648176183307,0.02005381543204968,True
46915,45111,0,45112,4341.0,40249.0,40867.0,0.000366,0.000549,-0.0008539999999999999,0.36750000000000005,-1.1900000000000002,-3.6400000000000006,0.89796875,0.2038125,0.1165625,1.10528125,0.86628125,-0.29471875000000003,-0.36596875,1.10253125,0.020520149055028677,0.01980349129356903,True
46916,45112,0,45113,4340.0,40245.0,40865.0,0.00122,-6.1e-05,0.000183,0.3325,-1.1025,-3.7450000000000006,0.91059375,0.20296875,0.11990625,1.1280937500000001,0.874625,-0.294375,-0.36525,1.1016875,0.02047155977463919,0.019911810878197433,True
46917,45113,0,45114,4340.0,40246.0,40862.0,0.00042699999999999997,-0.000488,6.1e-05,0.35000000000000003,-1.0325000000000002,-3.7275000000000005,0.88875,0.1968125,0.12821875,1.1163750000000001,0.8594375,-0.29771875000000003,-0.3655625,1.10153125,0.02035299095722721,0.020265538708576912,True
46918,45114,0,45115,4339.0,40245.0,40860.0,-0.0006709999999999999,0.000305,-6.1e-05,0.385,-0.9975,-3.6925000000000003,0.90140625,0.1945,0.12509375,1.11584375,0.8745625,-0.2879375,-0.36628125,1.10278125,0.019863255165244065,0.020166187649171947,True
46919,45115,0,45116,4338.0,40247.0,40859.0,-0.000183,0.001098,-0.00061,0.385,-1.0150000000000001,-3.4825000000000004,0.9083125,0.1998125,0.12575,1.1285625,0.86034375,-0.2945,-0.3648125,1.107875,0.02034668340570911,0.020134056028545264,True
46920,45116,0,45117,4337.0,40244.0,40858.0,-0.001098,-0.000183,0.000122,0.385,-1.05,-3.4475000000000002,0.9071250000000001,0.20125,0.12571875,1.1216875,0.8666875,-0.295125,-0.36578125,1.107125,0.02043105355498274,0.02017173161644468,True
46921,45117,0,45118,4337.0,40245.0,40859.0,-0.001952,0.0006709999999999999,0.000244,0.35000000000000003,-1.2425000000000002,-3.5875000000000004,0.90078125,0.2014375,0.128875,1.12915625,0.873,-0.29515625,-0.36515625,1.1084375,0.02044003112760388,0.02027613715795482,True
46922,45118,0,45119,4336.0,40245.0,40858.0,-0.0006709999999999999,-0.000122,0.00061,0.42000000000000004,-1.4175000000000002,-3.7275000000000005,0.8998125,0.202625,0.1245625,1.12778125,0.8668750000000001,-0.2941875,-0.36546875,1.1095625,0.020449850401459198,0.02011171034827721,True
46923,45119,0,45120,4335.0,40245.0,40859.0,0.000183,-0.000549,0.001403,0.43750000000000006,-1.3475000000000001,-3.7100000000000004,0.89509375,0.2024375,0.12125,1.1206875,0.86134375,-0.28971875,-0.3685625,1.10209375,0.020261916371510067,0.020100180304029013,True
46924,45120,0,45121,4335.0,40246.0,40857.0,-0.001281,0.000549,0.000488,0.36750000000000005,-1.3825,-3.6400000000000006,0.901375,0.1995,0.12403125,1.12859375,0.8694375,-0.293,-0.36490625,1.1086875,0.02027332976577615,0.020067284272846316,True
46925,45121,0,45122,4335.0,40247.0,40861.0,0.0,-0.00042699999999999997,0.000305,0.35000000000000003,-1.5225000000000002,-3.7275000000000005,0.90165625,0.201875,0.12465625,1.12875,0.87115625,-0.2945,-0.36503125000000003,1.10809375,0.020431579164008316,0.02009796314133601,True
46926,45122,0,45123,4334.0,40245.0,40864.0,-0.001281,0.00042699999999999997,-0.001769,0.31500000000000006,-1.5225000000000002,-3.7100000000000004,0.8991250000000001,0.20171875,0.1213125,1.1284687500000001,0.8689375,-0.2945625,-0.3644375,1.10753125,0.02042766771371166,0.019936844427457027,True
46927,45123,0,45124,4335.0,40246.0,40865.0,-0.001037,0.0008539999999999999,-0.001647,0.29750000000000004,-1.7325000000000002,-3.7625,0.8954062500000001,0.201,0.12090625,1.1220625,0.8651562500000001,-0.29709375,-0.36865625,1.10221875,0.020500136976258736,0.02008984389527018,True
46928,45124,0,45125,4336.0,40246.0,40867.0,0.000549,-0.000549,6.1e-05,0.36750000000000005,-2.0475000000000003,-3.7450000000000006,0.8950312500000001,0.2008125,0.124375,1.12684375,0.866,-0.2979375,-0.36465625,1.1095,0.020526433570750607,0.020071337965213445,True
46929,45125,0,45126,4333.0,40247.0,40868.0,0.0028669999999999998,-0.002562,-0.000915,0.43750000000000006,-2.1175,-3.9375000000000004,0.8965,0.20315625,0.1221875,1.120875,0.8660625000000001,-0.29234375,-0.36825,1.10378125,0.020397373143544457,0.020126086198229254,True
46930,45126,0,45127,4334.0,40246.0,40868.0,0.002562,0.000732,-0.000549,0.47250000000000003,-2.0475000000000003,-3.8150000000000004,0.89475,0.20565625,0.12365625000000001,1.1214375,0.8657812500000001,-0.29762500000000003,-0.36578125,1.10196875,0.02071318698844023,0.020087084217749022,True
46931,45127,0,45128,4335.0,40248.0,40870.0,-0.000549,0.0008539999999999999,0.000488,0.45500000000000007,-1.9075000000000002,-3.8150000000000004,0.8914375,0.2016875,0.1236875,1.1269375,0.87134375,-0.2944375,-0.3645625,1.10871875,0.020421341304979794,0.02003935018328361,True
46932,45128,0,45129,4335.0,40249.0,40874.0,-0.00183,0.000915,-0.000244,0.43750000000000006,-1.7325000000000002,-3.7800000000000002,0.89525,0.19768750000000002,0.1244375,1.12821875,0.8653125,-0.2985,-0.3646875,1.1000625,0.020420499207770025,0.020075160003591264,True
46933,45129,0,45130,4335.0,40248.0,40874.0,-0.000732,0.002623,0.000244,0.45500000000000007,-1.8025000000000002,-3.6925000000000003,0.90196875,0.2019375,0.12128125000000001,1.12734375,0.87290625,-0.295375,-0.36609375,1.1043125,0.020469430910204103,0.02000218028382165,True
46934,45130,0,45131,4336.0,40249.0,40874.0,0.001464,-0.002379,0.001952,0.49000000000000005,-2.24,-3.9550000000000005,0.89525,0.19853125,0.1248125,1.12771875,0.8655625,-0.29728125,-0.36512500000000003,1.1067500000000001,0.02040608967309871,0.020108146377250273,True
46935,45131,0,45132,4336.0,40251.0,40877.0,0.002013,-0.0008539999999999999,0.0008539999999999999,0.43750000000000006,-2.2575000000000003,-3.9550000000000005,0.89709375,0.20165625,0.12284375,1.1238125,0.8679375,-0.29340625,-0.36825,1.0956875,0.02037847203909497,0.020153016732838838,True
46936,45132,0,45133,4336.0,40250.0,40877.0,0.00183,-6.1e-05,0.0,0.4025,-2.0825,-3.8325000000000005,0.89584375,0.2005,0.12415625,1.12134375,0.866,-0.29540625,-0.365375,1.102125,0.020411523268930726,0.020091266807919023,True
46937,45133,0,45134,4339.0,40251.0,40881.0,-0.000183,6.1e-05,-0.000122,0.43750000000000006,-1.9075000000000002,-3.7975000000000003,0.9003125000000001,0.20221875,0.12334375,1.127125,0.87215625,-0.2914375,-0.36512500000000003,1.10728125,0.020322232885558955,0.020047865545528704,True
46938,45134,0,45135,4340.0,40255.0,40883.0,-0.00122,0.0013419999999999999,6.1e-05,0.31500000000000006,-1.9075000000000002,-3.7800000000000002,0.89525,0.19940625,0.124375,1.121125,0.86503125,-0.2949375,-0.36540625,1.10165625,0.020347603281547853,0.020101501488406334,True
46939,45135,0,45136,4339.0,40253.0,40884.0,-0.000183,0.00244,-0.00244,0.24500000000000002,-2.0475000000000003,-3.9025000000000003,0.898375,0.199625,0.12328125000000001,1.1248125,0.868125,-0.29740625,-0.36546875,1.1070312500000001,0.02045614436726142,0.020059125683760958,True
46940,45136,0,45137,4340.0,40253.0,40887.0,0.0008539999999999999,-0.001037,0.001464,0.36750000000000005,-2.1175,-3.9725000000000006,0.89584375,0.2025625,0.1240625,1.12071875,0.8700625000000001,-0.29428125,-0.36890625,1.10340625,0.020451057797809927,0.020229416328441087,True
46941,45137,0,45138,4340.0,40254.0,40885.0,0.0006709999999999999,-0.003965,0.001647,0.42000000000000004,-2.1700000000000004,-4.077500000000001,0.896,0.19975,0.12453125,1.12203125,0.86559375,-0.2983125,-0.36584375,1.1019375,0.020497822636860067,0.020125508684672576,True
46942,45138,0,45139,4341.0,40255.0,40890.0,0.00042699999999999997,-0.002074,0.001281,0.45500000000000007,-1.9600000000000002,-4.077500000000001,0.8990312500000001,0.20265625,0.12284375,1.1216875,0.8825000000000001,-0.2954375,-0.369375,1.10771875,0.020501534495931593,0.020198250878407837,True
46943,45139,0,45140,4343.0,40254.0,40890.0,-0.000915,-0.00183,0.001098,0.28,-1.9250000000000003,-3.8850000000000002,0.8954062500000001,0.20515625,0.12446875,1.12590625,0.86334375,-0.3,-0.36328125,1.10409375,0.02078832304526749,0.020019881353214686,True
46944,45140,0,45141,4344.0,40258.0,40891.0,0.000976,0.00183,-0.00183,0.22750000000000004,-1.7850000000000001,-3.7975000000000003,0.8985,0.2016875,0.12553125,1.1255,0.88125,-0.29334375,-0.36265625,1.1155625,0.020377238106631577,0.02003835275556211,True
46945,45141,0,45142,4346.0,40256.0,40894.0,0.001647,0.00183,-0.00366,0.17500000000000002,-1.7675,-3.7450000000000006,0.90415625,0.2085625,0.12459375,1.1187500000000001,0.86734375,-0.29346875,-0.36275,1.10128125,0.020665276546808494,0.02000364285640989,True
46946,45142,0,45143,4347.0,40259.0,40897.0,-0.0006709999999999999,0.002013,-0.001647,0.22750000000000004,-1.8725000000000003,-3.9200000000000004,0.9136875,0.19078125,0.13025,1.11615625,0.87903125,-0.2919375,-0.3633125,1.11040625,0.019871562323919203,0.02025843160695,True
46947,45143,0,45144,4346.0,40259.0,40897.0,-0.001769,0.0008539999999999999,0.0023179999999999997,0.35000000000000003,-1.9250000000000003,-3.99,0.91996875,0.20484375,0.12415625,1.1202812500000001,0.8705,-0.28903125,-0.3693125,1.100375,0.02033325227822744,0.020249596700768643,True
46948,45144,0,45145,4347.0,40256.0,40897.0,-0.0006709999999999999,-0.001098,0.0028669999999999998,0.4025,-1.8725000000000003,-4.0425,0.8825000000000001,0.197125,0.11734375,1.1105625000000001,0.8613125,-0.2978125,-0.3664375,1.099625,0.02036963203992129,0.01985441039544661,True
46949,45145,0,45146,4348.0,40256.0,40901.0,0.000793,0.000122,6.1e-05,0.22750000000000004,-1.9250000000000003,-4.0600000000000005,0.9058437500000001,0.19509375,0.12840625,1.137125,0.8768125,-0.2954375,-0.36375,1.11378125,0.020190262060520624,0.020200348878969782,True
46950,45146,0,45147,4349.0,40260.0,40902.0,0.0026839999999999998,-0.0025009999999999998,-0.0017079999999999999,0.1925,-1.9775000000000003,-3.9550000000000005,0.8845937500000001,0.20009375000000001,0.11425,1.1144375,0.8606875,-0.29709375,-0.37,1.09775,0.02046283827669719,0.019870742716454656,True
46951,45147,0,45148,4350.0,40259.0,40900.0,0.005307,-0.0034159999999999998,-0.0032329999999999998,0.12250000000000001,-2.1175,-3.8675,0.88975,0.19275,0.12734375,1.11478125,0.871625,-0.29025,-0.3628125,1.10609375,0.01988452156729552,0.020119033875912313,True
46952,45148,0,45149,4351.0,40257.0,40896.0,0.0057339999999999995,-0.0006709999999999999,-0.004697,0.3325,-1.9250000000000003,-3.7450000000000006,0.92034375,0.202625,0.12946875,1.1451875,0.86528125,-0.29325,-0.36465625,1.11103125,0.020412048614327025,0.020280401041980638,True
46953,45149,0,45150,4351.0,40251.0,40884.0,0.0042699999999999995,-0.001037,-0.0026839999999999998,0.35000000000000003,-1.6450000000000002,-3.6225000000000005,0.88653125,0.20571875,0.112,1.10834375,0.8629687500000001,-0.296125,-0.36825,1.1003125,0.020655299970674338,0.019708021708575708,True
46954,45150,0,45151,4348.0,40246.0,40873.0,-0.003965,-6.1e-05,0.003538,0.49000000000000005,-0.665,-3.5875000000000004,0.8829375,0.20234375000000002,0.11937500000000001,1.11184375,0.86503125,-0.2975,-0.365375,1.102375,0.02057181808828069,0.019895035475546753,True
46955,45151,0,45152,4347.0,40243.0,40865.0,-0.0059169999999999995,0.003721,0.0025009999999999998,0.525,-0.47250000000000003,-3.4650000000000003,0.9031875,0.19353125000000002,0.128625,1.11934375,0.8723125,-0.290125,-0.366,1.0950625,0.01991164104754504,0.02029980300418616,True
46956,45152,0,45153,4342.0,40239.0,40853.0,-0.006893,0.004026,0.002745,0.6825000000000001,-0.4025,-3.4825000000000004,0.89884375,0.201875,0.1255,1.1191875,0.87271875,-0.29503125,-0.3649375,1.1066562500000001,0.02045299900571233,0.020128822411303128,True
46957,45153,0,45154,4339.0,40237.0,40844.0,-0.007076,0.002074,0.001464,0.7175,-0.42000000000000004,-3.5000000000000004,0.89096875,0.19925,0.12346875,1.1214375,0.8661875,-0.294875,-0.36884375,1.10315625,0.020338651670362577,0.02020253833339959,True
