frame_seq,absolute_seq_u64,segment_id,sample_seq,PPG_G,PPG_R,PPG_IR,ACC_X,ACC_Y,ACC_Z,GYRO_X,GYRO_Y,GYRO_Z,Uh1,Uh2,Uh3,Uh4,Uc1,Uc2,Uc3,Uc4,UD1,UD2,parser_valid
56640,120372,0,120373,4819.0,41177.0,39414.0,-0.004026,0.002074,0.006771,0.47250000000000003,-0.8750000000000001,-3.7275000000000005,1.013375,0.343875,0.28165625,1.21315625,0.9704375000000001,-0.1789375,-0.225875,1.2006875000000001,0.021622641606977147,0.020949965687513866,True
56641,120373,0,120374,4816.0,41176.0,39409.0,-0.008539999999999999,-0.006771,0.0071979999999999995,0.29750000000000004,-1.0850000000000002,-3.6050000000000004,0.99040625,0.34003125,0.2821875,1.21275,0.9700625,-0.17609375,-0.22528125000000002,1.20071875,0.02134856876951017,0.02094789921169646,True
56642,120374,0,120375,4811.0,41174.0,39408.0,-0.007442,-0.006771,-0.011346,-0.052500000000000005,-1.0675000000000001,-3.3425000000000002,1.00425,0.3473125,0.2813125,1.21896875,0.97059375,-0.177375,-0.22325,1.2008125,0.021701590846814427,0.02082967809852105,True
56643,120375,0,120376,4805.0,41174.0,39407.0,0.003538,0.010369999999999999,-0.013297999999999999,0.7000000000000001,-2.0475000000000003,-3.4475000000000002,1.0118125,0.34778125,0.27978125,1.23053125,0.9770625000000001,-0.17434375,-0.22328125000000001,1.20165625,0.021598311226132042,0.020767727328435324,True
56644,120376,0,120377,4803.0,41178.0,39410.0,0.018361,0.022753,0.006771,1.2950000000000002,-3.2900000000000005,-3.4475000000000002,0.9957812500000001,0.34715625,0.275375,1.2148125,0.9735,-0.17559375,-0.22303125000000001,1.206875,0.021623047003757664,0.020575717582827294,True
56645,120377,0,120378,4799.0,41177.0,39410.0,0.029523999999999998,0.02196,0.015738,1.2775,-4.760000000000001,-3.8500000000000005,0.99446875,0.339125,0.277375,1.21334375,0.9699375,-0.17571875,-0.225875,1.20071875,0.021295902526165846,0.020773243484497463,True
56646,120378,0,120379,4796.0,41175.0,39405.0,0.029523999999999998,0.007503,0.00488,0.45500000000000007,-4.515000000000001,-4.375,1.0069375,0.345375,0.28078125,1.2295,0.9703125,-0.1779375,-0.2228125,1.20065625,0.021644215930329044,0.020790061022022112,True
56647,120379,0,120380,4792.0,41174.0,39402.0,-0.011224,-0.019215,-0.007808,-0.47250000000000003,-0.3325,-4.0075,0.99521875,0.3441875,0.2794375,1.2138125,0.9742500000000001,-0.17546875,-0.22353125000000001,1.20503125,0.021495188174996602,0.02076364279052006,True
56648,120380,0,120381,4790.0,41171.0,39402.0,-0.034831,-0.017629,-0.006405,-0.22750000000000004,1.6800000000000002,-3.7450000000000006,1.00696875,0.34246875,0.2816875,1.2270625,0.9703437500000001,-0.1743125,-0.22315625,1.19571875,0.021377288392379307,0.020841369505677033,True
56649,120381,0,120382,4788.0,41172.0,39404.0,-0.043248999999999996,-0.012931999999999999,-0.001037,0.08750000000000001,2.1525000000000003,-3.2900000000000005,0.9958125,0.3395,0.28196875,1.215,0.9743437500000001,-0.17525000000000002,-0.22390625,1.2009375,0.02129243751357277,0.020883295814439505,True
56650,120382,0,120383,4786.0,41174.0,39402.0,-0.031537,-0.004331,0.005673,0.49000000000000005,0.8925000000000001,-3.1325000000000003,1.00028125,0.346625,0.28025,1.2204375,0.97371875,-0.17534375,-0.219,1.20178125,0.02159095462706709,0.020613980758908294,True
56651,120383,0,120384,4783.0,41175.0,39402.0,-0.005429,0.0060999999999999995,0.008296,0.7525000000000001,-1.4875,-3.3425000000000002,1.0046875,0.3468125,0.28021875,1.22259375,0.97575,-0.1769375,-0.22278125000000001,1.2010625,0.021663206930158132,0.02076557579448066,True
56652,120384,0,120385,4784.0,41174.0,39399.0,0.0366,0.011101999999999999,-0.008539999999999999,0.7350000000000001,-5.1625000000000005,-3.7275000000000005,0.99275,0.34690625,0.28190625,1.222625,0.9743125,-0.17575000000000002,-0.22275,1.2010625,0.021619029399294748,0.02083397838808558,True
56653,120385,0,120386,4781.0,41177.0,39402.0,0.034404,0.009821,-0.0053679999999999995,0.5775,-4.760000000000001,-3.7450000000000006,1.0066875,0.34865625,0.2809375,1.2241875,0.9710625,-0.17490625,-0.2231875,1.20509375,0.021657271163150842,0.020811670635831888,True
56654,120386,0,120387,4781.0,41175.0,39403.0,0.020374,0.0053679999999999995,-0.000122,0.56,-2.9225000000000003,-3.8850000000000002,0.99934375,0.34575,0.27953125,1.223625,0.9648125000000001,-0.1748125,-0.2255625,1.222625,0.02153325904802778,0.020849619074892484,True
56655,120387,0,120388,4780.0,41175.0,39401.0,-0.001037,-0.0013419999999999999,0.001769,0.31500000000000006,-0.8225000000000001,-4.0075,1.00009375,0.3461875,0.28003125,1.2233125,0.9780625000000001,-0.17421875,-0.22103125,1.22715625,0.02152732443525191,0.02068708366824802,True
56656,120388,0,120389,4780.0,41174.0,39402.0,-0.01647,-0.005978,0.003965,0.12250000000000001,0.7000000000000001,-3.8500000000000005,1.00834375,0.352125,0.28,1.20871875,0.9898125,-0.17159375000000002,-0.2214375,1.2130625,0.021666703297129507,0.02070221885055336,True
56657,120389,0,120390,4782.0,41174.0,39400.0,-0.021899,-0.006039,0.0021349999999999997,0.28,0.3325,-3.43,1.00646875,0.3433125,0.280375,1.20990625,0.9943125,-0.18215625,-0.21925,1.19178125,0.021729606928662538,0.020629251525129805,True
56658,120390,0,120391,4779.0,41175.0,39401.0,-0.013663999999999999,-0.0053679999999999995,-0.000183,0.22750000000000004,-0.7000000000000001,-3.5000000000000004,1.00790625,0.35100000000000003,0.2815625,1.2241875,0.9919687500000001,-0.17021875,-0.22303125000000001,1.22125,0.021564502803682738,0.020831156298822016,True
56659,120391,0,120392,4780.0,41175.0,39400.0,-0.0032329999999999998,-0.0037819999999999998,-0.004941,0.35000000000000003,-1.6625,-3.4650000000000003,0.999375,0.34640625,0.27753125,1.2175625,0.97440625,-0.17228125,-0.2336875,1.20515625,0.021457945761738973,0.02109537601324603,True
56660,120392,0,120393,4780.0,41174.0,39401.0,0.003843,0.001647,-0.004758,0.42000000000000004,-2.415,-3.5175000000000005,0.9999687500000001,0.34259375000000003,0.2779375,1.21703125,0.9578125000000001,-0.18271875,-0.22362500000000002,1.189125,0.021722640263514625,0.02070550960064813,True
56661,120393,0,120394,4781.0,41176.0,39402.0,0.01098,0.005246,0.0015249999999999999,0.42000000000000004,-2.7300000000000004,-3.5875000000000004,0.99890625,0.3434375,0.27865625,1.216875,0.9626875,-0.1845,-0.22490625,1.18446875,0.02182958092993446,0.02078697414979676,True
56662,120394,0,120395,4782.0,41174.0,39404.0,0.013237,0.004209,0.00042699999999999997,0.47250000000000003,-2.555,-3.9550000000000005,0.996,0.342875,0.2800625,1.2169375,0.96421875,-0.18884375,-0.2254375,1.18975,0.021981982913093976,0.02086649621910853,True
56663,120395,0,120396,4781.0,41173.0,39404.0,0.010431,0.003111,-0.001281,0.35000000000000003,-2.1,-3.9375000000000004,1.00590625,0.34684375,0.28059375000000003,1.2221250000000001,0.9899375,-0.17571875,-0.2193125,1.21409375,0.02161517948664918,0.02064081092310114,True
56664,120396,0,120397,4782.0,41174.0,39404.0,0.004392,0.000122,-0.000244,0.28,-1.4525000000000001,-3.99,0.9891562500000001,0.34640625,0.27918750000000003,1.22140625,0.9795,-0.1726875,-0.22684375,1.2180625,0.021474391293893162,0.020887213176499726,True
56665,120397,0,120398,4781.0,41173.0,39403.0,-0.003843,-0.00366,-0.001952,0.24500000000000002,-0.77,-3.9200000000000004,0.99890625,0.34646875,0.27815625,1.22134375,0.977125,-0.172125,-0.22275,1.211875,0.021454206032775352,0.020679165247546212,True
56666,120398,0,120399,4781.0,41172.0,39401.0,-0.010187,-0.0062829999999999995,0.001464,0.14,-0.31500000000000006,-3.8850000000000002,0.99903125,0.34596875,0.28021875,1.22275,0.96359375,-0.1724375,-0.21975,1.19909375,0.021446171905501875,0.020643018610844454,True
56667,120399,0,120400,4780.0,41171.0,39402.0,-0.011041,-0.00122,0.002623,0.35000000000000003,-0.6475000000000001,-3.5000000000000004,1.00340625,0.351375,0.280375,1.21746875,0.97371875,-0.1780625,-0.22262500000000002,1.20134375,0.021897432848475763,0.020765709744505395,True
56668,120400,0,120401,4781.0,41170.0,39402.0,-0.003843,0.000976,0.0011589999999999999,0.385,-1.12,-3.535,1.0012812500000001,0.34465625,0.27975,1.2111875,0.97103125,-0.17675,-0.22584375,1.19425,0.02156643262638692,0.020870016137208847,True
56669,120401,0,120402,4781.0,41174.0,39403.0,0.002989,0.001098,-0.0011589999999999999,0.4025,-1.8375000000000001,-3.5175000000000005,0.9979375,0.34371875,0.27903125,1.22128125,0.9712500000000001,-0.17653125,-0.22340625,1.202875,0.02151880245434299,0.020741818669700922,True
56670,120402,0,120403,4780.0,41172.0,39402.0,0.006344,0.0037819999999999998,-0.0018909999999999999,0.49000000000000005,-2.2575000000000003,-3.6925000000000003,1.003625,0.346125,0.27965625,1.22109375,0.97896875,-0.17778125,-0.22403125000000002,1.19975,0.02166891347815466,0.020792885164396414,True
56671,120403,0,120404,4778.0,41167.0,39400.0,0.007625,0.003721,-6.1e-05,0.47250000000000003,-2.1,-3.6750000000000003,1.0030000000000001,0.3461875,0.28021875,1.2175625,0.97778125,-0.179125,-0.22278125000000001,1.200625,0.0217258689055125,0.02076557579448066,True
56672,120404,0,120405,4779.0,41168.0,39402.0,0.0023179999999999997,0.0008539999999999999,-6.1e-05,0.3325,-1.54,-3.6925000000000003,1.00515625,0.34403125,0.27953125,1.21725,0.9711875,-0.17578125,-0.22425,1.20815625,0.02150137340442721,0.020796567489189552,True
56673,120405,0,120406,4778.0,41168.0,39401.0,-0.0011589999999999999,-0.002623,0.001769,0.2625,-1.2775,-3.6400000000000006,1.0000625,0.3434375,0.281,1.2171875,0.9702500000000001,-0.176125,-0.22421875,1.20503125,0.021490726905159536,0.020855935756442096,True
56674,120406,0,120407,4776.0,41166.0,39400.0,-0.003294,-0.002562,0.0013419999999999999,0.22750000000000004,-1.2600000000000002,-3.6575,0.9999375,0.342875,0.277625,1.21671875,0.9705,-0.17550000000000002,-0.2256875,1.20684375,0.021442162519906518,0.020775984169695907,True
56675,120407,0,120408,4776.0,41168.0,39400.0,-0.003965,-0.003111,-0.001403,0.15750000000000003,-1.2950000000000002,-3.6750000000000003,0.99909375,0.34440625,0.2763125,1.22509375,0.97684375,-0.17153125,-0.22325,1.2088125,0.02134484136167418,0.020623264838533228,True
56676,120408,0,120409,4776.0,41167.0,39402.0,-0.0037819999999999998,-0.002806,-0.002562,0.28,-1.33,-3.6400000000000006,0.9991875,0.34496875,0.27678125,1.22128125,0.97665625,-0.1751875,-0.21778125,1.19625,0.021516120609198996,0.020421462019771113,True
56677,120409,0,120410,4776.0,41168.0,39402.0,0.000549,0.0008539999999999999,0.000305,0.385,-1.6975000000000002,-3.5700000000000003,0.98853125,0.34650000000000003,0.2739375,1.2255,0.97865625,-0.1744375,-0.22265625,1.20175,0.02154910533078588,0.02050120948234156,True
56678,120410,0,120411,4777.0,41168.0,39399.0,0.000366,0.001769,-0.000122,0.4025,-1.8550000000000002,-3.5875000000000004,0.99184375,0.34053125,0.2801875,1.2164062500000001,0.97928125,-0.17484375,-0.2231875,1.20790625,0.021318648646901802,0.020780708566946443,True
56679,120411,0,120412,4775.0,41168.0,39403.0,0.00122,0.0035989999999999998,0.000732,0.45500000000000007,-1.7500000000000002,-3.6225000000000005,0.9907812500000001,0.347625,0.27478125000000003,1.211875,0.97890625,-0.176875,-0.22284375,1.2065000000000001,0.02169428431093762,0.020543624238999605,True
56680,120412,0,120413,4777.0,41170.0,39401.0,0.002196,0.001952,0.000549,0.525,-1.7325000000000002,-3.6750000000000003,0.999625,0.33815625,0.28384375,1.21146875,0.97078125,-0.17590625000000001,-0.22659375,1.205125,0.02126342213127998,0.02106930529596221,True
56681,120413,0,120414,4774.0,41171.0,39399.0,0.001403,0.000488,-6.1e-05,0.47250000000000003,-1.7850000000000001,-3.7275000000000005,1.01484375,0.34359375000000003,0.28300000000000003,1.21134375,0.97021875,-0.1771875,-0.22396875,1.2011875,0.021540191554538755,0.020928393494563106,True
56682,120414,0,120415,4778.0,41170.0,39402.0,-0.000732,-0.0013419999999999999,0.0006709999999999999,0.31500000000000006,-1.5750000000000002,-3.7975000000000003,1.00009375,0.34025,0.2765,1.21121875,0.9706250000000001,-0.17534375,-0.21925,1.20728125,0.02132725620499191,0.020469254828287417,True
56683,120415,0,120416,4775.0,41172.0,39403.0,-0.00244,-0.002196,0.00042699999999999997,0.28,-1.5050000000000001,-3.7275000000000005,0.99346875,0.34609375000000003,0.2774375,1.2311875,0.97628125,-0.1755625,-0.2226875,1.200125,0.021577832987340007,0.020646965783627437,True
56684,120416,0,120417,4775.0,41172.0,39403.0,-0.002623,-0.001464,-0.00042699999999999997,0.28,-1.5050000000000001,-3.6925000000000003,0.99753125,0.3475625,0.28134375,1.23109375,0.9765,-0.17725,-0.2225,1.2015625,0.02170687319691032,0.020800650221901126,True
56685,120417,0,120418,4777.0,41172.0,39402.0,-0.000488,-0.0011589999999999999,0.000488,0.2625,-1.715,-3.8150000000000004,1.012,0.347125,0.28196875,1.2280625,0.9710625,-0.17959375,-0.2239375,1.201375,0.02178360626923271,0.02088455892028288,True
56686,120418,0,120419,4779.0,41174.0,39402.0,0.000549,-0.0013419999999999999,-0.00122,0.28,-1.9600000000000002,-3.7625,0.99934375,0.34775,0.2816875,1.2245,0.9707187500000001,-0.1785,-0.22421875,1.20121875,0.02176520462394276,0.020884316444673784,True
56687,120419,0,120420,4776.0,41176.0,39403.0,0.002562,0.001586,-0.0018909999999999999,0.385,-1.9425000000000001,-3.7975000000000003,1.00871875,0.34559375000000003,0.28334375,1.221875,0.95946875,-0.17671875,-0.224875,1.20159375,0.021603944910845278,0.020979210419042407,True
56688,120420,0,120421,4779.0,41175.0,39403.0,0.0018909999999999999,0.00183,0.0,0.3325,-1.8025000000000002,-3.8150000000000004,1.00153125,0.346625,0.28721875,1.221625,0.9723125,-0.17778125,-0.2185,1.20128125,0.021689593622243562,0.02088150587360902,True
56689,120421,0,120422,4778.0,41178.0,39405.0,0.0006709999999999999,0.0011589999999999999,0.001037,0.36750000000000005,-1.5750000000000002,-3.8500000000000005,1.00796875,0.34590625,0.280375,1.21709375,0.97778125,-0.1755625,-0.2235625,1.20134375,0.02157007722157447,0.020803608057237657,True
56690,120422,0,120423,4781.0,41180.0,39406.0,-0.000976,0.000549,0.0008539999999999999,0.4025,-1.3125000000000002,-3.8325000000000005,1.0053750000000001,0.344875,0.28,1.22378125,0.9695312500000001,-0.17828125,-0.2220625,1.2008125,0.021637445796524515,0.02072748759524504,True
56691,120423,0,120424,4781.0,41177.0,39405.0,-0.001952,0.000549,0.00042699999999999997,0.29750000000000004,-1.2425000000000002,-3.6925000000000003,0.99871875,0.3455625,0.2769375,1.21740625,0.97075,-0.1751875,-0.22415625,1.2073125,0.021540680915091148,0.020685704997465082,True
56692,120424,0,120425,4782.0,41180.0,39408.0,-0.001403,-0.001586,-6.1e-05,0.28,-1.5050000000000001,-3.7100000000000004,0.986625,0.3425,0.2783125,1.2170625,0.96946875,-0.17565625,-0.22668750000000001,1.2065625,0.02143297557848094,0.02084478119429245,True
56693,120425,0,120426,4781.0,41179.0,39409.0,-0.000793,-0.001586,0.000122,0.22750000000000004,-1.6275000000000002,-3.6575,0.9955625,0.34171875,0.278875,1.2171875,0.970125,-0.1755625,-0.224875,1.20603125,0.02139686511947757,0.020794740942935718,True
56694,120426,0,120427,4782.0,41182.0,39413.0,0.000122,-0.0023179999999999997,0.0,0.31500000000000006,-1.61,-3.5700000000000003,0.99890625,0.34390625,0.28059375000000003,1.21703125,0.970875,-0.17653125,-0.22278125000000001,1.200875,0.021526557909336146,0.020781057088562035,True
56695,120427,0,120428,4782.0,41183.0,39411.0,0.002013,-0.00042699999999999997,-0.000549,0.35000000000000003,-1.7850000000000001,-3.5700000000000003,1.00578125,0.34725,0.28034375,1.211375,0.97021875,-0.1761875,-0.22228125,1.200625,0.02165095302971157,0.020750522826994255,True
56696,120428,0,120429,4782.0,41181.0,39415.0,0.002806,0.001403,-0.001098,0.42000000000000004,-1.8725000000000003,-3.5700000000000003,1.00821875,0.3450625,0.28025,1.21146875,0.9710625,-0.17928125,-0.22396875,1.1936875,0.02168566321631252,0.02081486957004103,True
56697,120429,0,120430,4784.0,41180.0,39413.0,0.000488,0.001586,0.0008539999999999999,0.36750000000000005,-1.225,-3.5700000000000003,0.9996875000000001,0.34340625,0.28015625,1.21303125,0.9703437500000001,-0.1753125,-0.22325,1.201875,0.021456547872959243,0.020781945032148866,True
56698,120430,0,120431,4784.0,41180.0,39416.0,-0.002745,0.002745,0.001281,0.4025,-0.8750000000000001,-3.6050000000000004,1.00603125,0.3460625,0.277,1.21696875,0.9783125,-0.17509375,-0.22315625,1.2060625,0.0215575689339364,0.020647856325494332,True
56699,120431,0,120432,4786.0,41180.0,39418.0,-0.007442,0.001098,0.004209,0.45500000000000007,-0.7175,-3.6750000000000003,1.00596875,0.3459375,0.279125,1.2181875,0.97103125,-0.17815625000000002,-0.22334375,1.20825,0.02167633232993107,0.02074316226470592,True
56700,120432,0,120433,4788.0,41181.0,39417.0,-0.0068319999999999995,-0.000183,0.000976,0.31500000000000006,-0.8925000000000001,-3.99,1.004375,0.35146875,0.2798125,1.2179375000000001,0.96984375,-0.17884375,-0.22290625,1.1965937500000001,0.021932913975673464,0.020753857725061376,True
56701,120433,0,120434,4788.0,41180.0,39419.0,0.0013419999999999999,-0.0025009999999999998,-0.0015249999999999999,0.15750000000000003,-1.3825,-3.9025000000000003,0.999,0.34625,0.278875,1.22278125,0.977625,-0.17484375,-0.2231875,1.2088125,0.021555206535719594,0.020726524946396915,True
56702,120434,0,120435,4790.0,41177.0,39421.0,0.007137,-0.000976,-0.001464,0.24500000000000002,-2.45,-3.7975000000000003,0.98565625,0.344125,0.27871875,1.22096875,0.96809375,-0.17534375,-0.218375,1.20765625,0.02148754348115526,0.02052547910419258,True
56703,120435,0,120436,4791.0,41179.0,39421.0,0.008235,6.1e-05,-0.002928,0.35000000000000003,-2.4850000000000003,-3.6400000000000006,1.00025,0.34609375000000003,0.28028125,1.22475,0.978375,-0.1710625,-0.22278125000000001,1.20153125,0.02139567716561901,0.02076815601016089,True
56704,120436,0,120437,4790.0,41180.0,39421.0,0.005246,0.000305,-0.0018909999999999999,0.35000000000000003,-2.1350000000000002,-3.6750000000000003,1.00540625,0.34625,0.28428125,1.2105625,0.9768125,-0.17678125,-0.22365625,1.2065000000000001,0.021633617998673832,0.02096865538207098,True
56705,120437,0,120438,4791.0,41180.0,39422.0,0.0023179999999999997,0.000244,0.000732,0.3325,-1.6625,-3.7100000000000004,1.00015625,0.3453125,0.27678125,1.22,0.9768125,-0.174875,-0.22359375,1.20740625,0.02151769140481595,0.02065651385851862,True
56706,120438,0,120439,4792.0,41178.0,39422.0,-0.005856,0.001952,0.001952,0.525,-0.8225000000000001,-3.7275000000000005,0.99884375,0.3435,0.2804375,1.21728125,0.97121875,-0.17553125,-0.22415625,1.19475,0.021469280018407044,0.020830188873967488,True
56707,120439,0,120440,4793.0,41177.0,39421.0,-0.008052,0.0013419999999999999,0.001769,0.4025,-0.9625000000000001,-3.6925000000000003,1.0035,0.34634375,0.27796875,1.21875,0.970875,-0.17684375,-0.2195625,1.207125,0.021640024868837565,0.02054253663748055,True
56708,120440,0,120441,4794.0,41177.0,39423.0,-0.0035989999999999998,-0.000488,-0.001952,0.42000000000000004,-1.4875,-3.8150000000000004,0.9993125,0.344375,0.28103125,1.216875,0.97109375,-0.1756875,-0.22434375,1.202,0.021511797751356605,0.020862278260892,True
56709,120441,0,120442,4795.0,41179.0,39425.0,0.0006709999999999999,-0.001647,-0.003538,0.36750000000000005,-2.0125,-3.7975000000000003,1.003125,0.3520625,0.2806875,1.22028125,0.9709375,-0.17821875,-0.2181875,1.20028125,0.02193218844957303,0.02059918811017546,True
56710,120442,0,120443,4794.0,41180.0,39425.0,0.004514,-0.0025009999999999998,-0.001647,0.29750000000000004,-2.3275,-3.7100000000000004,0.99890625,0.346375,0.28021875,1.217875,0.98428125,-0.1744375,-0.22634375,1.2022187500000001,0.021543934579656716,0.02090957286940998,True
56711,120443,0,120444,4796.0,41180.0,39426.0,0.005978,-0.00122,0.00042699999999999997,0.4025,-2.2750000000000004,-3.6225000000000005,1.0029375,0.34628125,0.27946875,1.222,0.9685625,-0.18071875,-0.2210625,1.1984062500000001,0.02179422396201519,0.02066512358819932,True
56712,120444,0,120445,4795.0,41179.0,39426.0,0.002745,0.00042699999999999997,0.0011589999999999999,0.385,-1.8725000000000003,-3.7100000000000004,1.00278125,0.35053125,0.2770625,1.2135625,0.9729375,-0.17359375,-0.22265625,1.21478125,0.021681716232200682,0.020630220932107726,True
56713,120445,0,120446,4794.0,41179.0,39422.0,-0.001037,0.00122,0.000976,0.3325,-1.0850000000000002,-3.7100000000000004,1.000125,0.33884375,0.28603125,1.21384375,0.95915625,-0.17453125,-0.2248125,1.19809375,0.02123619253217164,0.02108762451721763,True
56714,120446,0,120447,4791.0,41177.0,39422.0,-0.0048189999999999995,0.001769,0.001464,0.385,-0.8225000000000001,-3.7100000000000004,1.0180625,0.346875,0.28346875,1.22284375,0.96590625,-0.17578125,-0.22553125000000002,1.19725,0.021619001454192925,0.02101089114402806,True
56715,120447,0,120448,4786.0,41176.0,39420.0,-0.005063,0.00244,0.002379,0.385,-0.9275000000000001,-3.5875000000000004,1.0115625,0.34884375,0.27465625,1.23340625,0.9699375,-0.17953125,-0.22078125,1.19915625,0.021852160595545046,0.020455058607987714,True
56716,120448,0,120449,4783.0,41177.0,39418.0,0.000122,-0.000488,0.000183,0.31500000000000006,-1.5225000000000002,-3.5875000000000004,0.9821875,0.343625,0.27271875,1.20665625,0.9755625,-0.172875,-0.2215,1.2156875,0.021366924703826083,0.020404134756311545,True
56717,120449,0,120450,4780.0,41180.0,39416.0,0.0023179999999999997,-0.0008539999999999999,-0.001403,0.31500000000000006,-1.8375000000000001,-3.5875000000000004,1.0096875,0.34271875,0.28503125,1.23359375,0.96621875,-0.1780625,-0.22640625,1.19809375,0.021539412018642932,0.02111074563525079,True
56718,120450,0,120451,4775.0,41175.0,39416.0,0.0023179999999999997,-0.000732,-0.00122,0.29750000000000004,-1.8375000000000001,-3.7625,0.999625,0.34678125,0.2699375,1.2298125,0.97609375,-0.175875,-0.2178125,1.207875,0.021618917619320915,0.020140134456817685,True
56719,120451,0,120452,4773.0,41175.0,39415.0,0.000793,-0.000183,-0.0006709999999999999,0.28,-1.5575,-3.7275000000000005,0.976625,0.34178125,0.27221875,1.20646875,0.98040625,-0.173875,-0.22315625,1.21228125,0.021331137436592186,0.020450472881707975,True
56720,120452,0,120453,4769.0,41174.0,39412.0,-0.000915,0.000793,0.000122,0.385,-1.3650000000000002,-3.7100000000000004,0.9941562500000001,0.33896875,0.28590625000000003,1.209875,0.96646875,-0.1746875,-0.22390625,1.20465625,0.021247689344484802,0.02104584185302484,True
56721,120453,0,120454,4765.0,41172.0,39412.0,-0.001464,0.000488,-0.000366,0.36750000000000005,-1.6625,-3.5875000000000004,1.018375,0.34071875,0.28603125,1.23834375,0.96540625,-0.1775625,-0.22303125000000001,1.19384375,0.021436455804839716,0.021015639815929313,True
56722,120454,0,120455,4763.0,41175.0,39412.0,0.00061,-0.00042699999999999997,0.000488,0.43750000000000006,-1.6625,-3.6050000000000004,0.9853437500000001,0.3486875,0.2774375,1.2355,0.97565625,-0.1758125,-0.22246875,1.20146875,0.02169523775054096,0.020638121372331217,True
56723,120455,0,120456,4760.0,41172.0,39413.0,0.0017079999999999999,-0.0006709999999999999,-6.1e-05,0.385,-1.8200000000000003,-3.5700000000000003,0.9865,0.34565625,0.27028125000000003,1.2228125,0.9765625,-0.17496875,-0.22303125000000001,1.20696875,0.02153570519093225,0.02036543217521548,True
56724,120456,0,120457,4759.0,41174.0,39409.0,0.00122,-0.000183,-0.000488,0.28,-1.8025000000000002,-3.535,0.9872500000000001,0.33565625,0.2820625,1.21715625,0.9768125,-0.16965625,-0.22646875,1.20159375,0.020906896431346644,0.02099072940624085,True
56725,120457,0,120458,4758.0,41173.0,39408.0,0.000915,-0.002074,-0.000549,0.22750000000000004,-1.8200000000000003,-3.535,0.9970625000000001,0.34740625,0.28215625,1.21340625,0.97184375,-0.1788125,-0.22225,1.2020625,0.021763630864832594,0.020824087357697984,True
56726,120458,0,120459,4756.0,41174.0,39410.0,0.001586,-0.001037,-0.001952,0.22750000000000004,-1.6975000000000002,-3.4825000000000004,0.99721875,0.34953125,0.27959375000000003,1.211625,0.9763437500000001,-0.1710625,-0.22375,1.20765625,0.021537892676418337,0.020778935961607927,True
56727,120459,0,120460,4756.0,41174.0,39409.0,-0.000122,-0.000793,-0.002013,0.42000000000000004,-1.4700000000000002,-3.43,0.99928125,0.341875,0.28800000000000003,1.22296875,0.97090625,-0.17803125,-0.2220625,1.201125,0.021503249980289442,0.021057765002464184,True
56728,120460,0,120461,4755.0,41173.0,39409.0,-0.000183,0.0008539999999999999,0.000976,0.36750000000000005,-1.2950000000000002,-3.4475000000000002,1.00546875,0.346375,0.28015625,1.2242187500000001,0.9795,-0.17503125,-0.21878125,1.2051875,0.021567965915245714,0.020601263740304854,True
56729,120461,0,120462,4755.0,41175.0,39410.0,-0.001647,0.0006709999999999999,0.001586,0.45500000000000007,-1.2600000000000002,-3.4825000000000004,0.9999687500000001,0.345875,0.27728125,1.21809375,0.97665625,-0.17603125,-0.2255625,1.20609375,0.021587755434424333,0.020756741974515557,True
56730,120462,0,120463,4754.0,41176.0,39409.0,-0.002257,0.001098,0.001769,0.43750000000000006,-1.2775,-3.5175000000000005,1.0,0.342625,0.2808125,1.218875,0.9709375,-0.17890625000000002,-0.22503125000000002,1.201625,0.021569679149568644,0.02088103601517542,True
56731,120463,0,120464,4755.0,41177.0,39410.0,-0.00183,0.002745,0.000366,0.525,-1.5225000000000002,-3.3950000000000005,1.00421875,0.34565625,0.27790625,1.2170625,0.9795625,-0.17590625000000001,-0.22275,1.2073125,0.021573648350824492,0.020668844371510255,True
56732,120464,0,120465,4754.0,41176.0,39412.0,-0.0021349999999999997,0.001403,0.00042699999999999997,0.47250000000000003,-1.6450000000000002,-3.43,0.9994375,0.34296875,0.28125,1.2176875,0.97046875,-0.179,-0.225125,1.20125,0.021587689730758097,0.020902884918034482,True
56733,120465,0,120466,4756.0,41178.0,39411.0,0.0,-0.0017079999999999999,-0.000305,0.36750000000000005,-1.9250000000000003,-3.4825000000000004,1.0041875,0.343375,0.28021875,1.2174375,0.9784375000000001,-0.17875,-0.2235,1.201625,0.02159437522618001,0.02079463124651681,True
56734,120466,0,120467,4756.0,41177.0,39414.0,0.0013419999999999999,-0.0023179999999999997,-0.000793,0.36750000000000005,-2.1,-3.5875000000000004,1.0046875,0.3463125,0.28084375,1.2179375000000001,0.975375,-0.177875,-0.2225625,1.20134375,0.021680461992627558,0.02078253487838044,True
56735,120467,0,120468,4757.0,41180.0,39413.0,0.004148,-0.002562,-0.0018909999999999999,0.24500000000000002,-2.24,-3.5875000000000004,1.0065,0.34678125,0.2809375,1.22034375,0.9765625,-0.17046875,-0.22290625,1.20053125,0.02140008145270248,0.020800301367636265,True
56736,120468,0,120469,4758.0,41177.0,39412.0,0.002196,-0.000793,-0.00183,0.385,-1.9600000000000002,-3.7275000000000005,1.0065625,0.34590625,0.28009375000000003,1.223625,0.97840625,-0.17596875,-0.22296875,1.2073125,0.021586518637438268,0.020767995252439896,True
56737,120469,0,120470,4757.0,41177.0,39411.0,0.0013419999999999999,0.000183,-0.002562,0.385,-1.5925000000000002,-3.7625,0.99809375,0.34600000000000003,0.280375,1.224875,0.9775,-0.171,-0.22321875,1.20759375,0.021389268131231643,0.020789712349850283,True
56738,120470,0,120471,4758.0,41175.0,39413.0,0.000793,-0.000976,0.0042699999999999995,0.36750000000000005,-1.2775,-3.7450000000000006,1.00596875,0.34525,0.280375,1.21659375,0.97721875,-0.1760625,-0.22040625,1.20234375,0.021563168113087068,0.020676005382857687,True
56739,120471,0,120472,4758.0,41179.0,39414.0,-0.004331,0.000366,0.00183,0.3325,-1.2425000000000002,-3.7625,1.0019375,0.34625,0.27828125,1.22425,0.978125,-0.17515625,-0.22271875,1.2078125,0.021567854395977276,0.020683062259474902,True
56740,120472,0,120473,4759.0,41176.0,39413.0,-0.004514,0.0015249999999999999,0.000305,0.47250000000000003,-1.1025,-3.4650000000000003,0.99909375,0.3443125,0.2795625,1.2171875,0.96890625,-0.17503125,-0.22059375,1.20509375,0.02148265061704936,0.020650040835600902,True
56741,120473,0,120474,4758.0,41177.0,39414.0,0.0026839999999999998,0.0026839999999999998,-0.000793,0.45500000000000007,-1.5750000000000002,-3.9025000000000003,0.9991875,0.34246875,0.2811875,1.21721875,0.9699375,-0.17615625000000001,-0.22403125000000002,1.20165625,0.021451921249888515,0.020856097186549,True
56742,120474,0,120475,4758.0,41175.0,39415.0,0.001586,-0.002074,0.000793,0.24500000000000002,-1.3475000000000001,-3.6575,1.006125,0.34550000000000003,0.27996875,1.2184375,0.97115625,-0.1775625,-0.22312500000000002,1.20525,0.02163421147189672,0.02076915137910571,True
56743,120475,0,120476,4758.0,41171.0,39413.0,-0.002623,-0.002562,0.000366,0.21000000000000002,-1.0325000000000002,-3.4475000000000002,1.00003125,0.34278125,0.27853125,1.21675,0.9703125,-0.1750625,-0.22553125000000002,1.2016875,0.02142057543801593,0.020807077244178084,True
56744,120476,0,120477,4758.0,41171.0,39413.0,-0.004392,0.000793,0.001281,0.42000000000000004,-0.8750000000000001,-3.5000000000000004,1.0055,0.3443125,0.28346875,1.224625,0.9716875,-0.176125,-0.22240625,1.201,0.021526919636624977,0.02088458903623582,True
56745,120477,0,120478,4757.0,41173.0,39415.0,-0.0035989999999999998,0.001769,-0.000244,0.47250000000000003,-1.0675000000000001,-3.43,0.9995937500000001,0.34634375,0.27965625,1.21778125,0.97709375,-0.17640625000000001,-0.22365625,1.201625,0.021622320314873104,0.02077772631866835,True
56746,120478,0,120479,4757.0,41173.0,39414.0,0.002623,-0.001403,0.000183,0.24500000000000002,-1.7325000000000002,-3.535,0.997,0.3438125,0.2808125,1.2178437500000001,0.97075,-0.18053125,-0.21990625,1.20175,0.021684542187219314,0.020673851699983356,True
56747,120479,0,120480,4757.0,41171.0,39415.0,0.0035989999999999998,-0.001769,-0.00042699999999999997,0.24500000000000002,-1.715,-3.5525,1.0063125,0.3460625,0.28025,1.212,0.97859375,-0.17384375,-0.22284375,1.21925,0.02150697486823956,0.020769392528488733,True
56748,120480,0,120481,4755.0,41173.0,39413.0,0.001037,-0.001037,-0.000915,0.2625,-1.4175000000000002,-3.5525,0.9908125,0.34659375000000003,0.27840625,1.2175625,0.962125,-0.17400000000000002,-0.23025,1.20478125,0.02153527550260611,0.020992612540109985,True
56749,120481,0,120482,4757.0,41173.0,39413.0,-0.000793,0.000549,-0.0006709999999999999,0.385,-1.1725,-3.5000000000000004,1.00003125,0.342625,0.2816875,1.22134375,0.9640625,-0.179375,-0.21921875000000002,1.1986875000000001,0.021588647349238762,0.02068218034489655,True
56750,120482,0,120483,4757.0,41169.0,39415.0,-0.001647,0.001098,6.1e-05,0.36750000000000005,-1.1725,-3.4650000000000003,1.00428125,0.34809375,0.27796875,1.2201875,0.9804375000000001,-0.1743125,-0.227875,1.211125,0.02160997339634788,0.02087858510083942,True
56751,120483,0,120484,4755.0,41171.0,39414.0,-0.00061,0.000549,0.001037,0.385,-1.2600000000000002,-3.5525,0.99253125,0.345375,0.28084375,1.21790625,0.96340625,-0.17550000000000002,-0.225625,1.197,0.021545572997456103,0.02090632336627022,True
56752,120484,0,120485,4757.0,41172.0,39415.0,0.0013419999999999999,-0.000244,-0.000244,0.36750000000000005,-1.4000000000000001,-3.6575,1.0010625,0.34471875,0.2809375,1.225125,0.9677187500000001,-0.18125,-0.2205,1.20753125,0.021751098475058156,0.020703020168865216,True
56753,120485,0,120486,4755.0,41173.0,39414.0,-0.001037,0.000244,-0.000549,0.4025,-1.435,-3.6050000000000004,0.989125,0.3454375,0.2785,1.2175,0.96465625,-0.17350000000000002,-0.22959375,1.1958125,0.021467205824559955,0.02096996570567759,True
56754,120486,0,120487,4756.0,41172.0,39413.0,-0.002074,-0.00042699999999999997,0.000122,0.31500000000000006,-1.435,-3.6575,1.00025,0.3446875,0.28059375000000003,1.2185625,0.9654375000000001,-0.18134375,-0.21784375,1.20178125,0.02175359878418667,0.02058141530457269,True
56755,120487,0,120488,4757.0,41172.0,39414.0,-0.00183,-0.000183,0.000183,0.35000000000000003,-1.5575,-3.5875000000000004,1.005875,0.346625,0.28109375000000003,1.222,0.9868125,-0.1730625,-0.22046875,1.20665625,0.02149862062367977,0.020708207804607418,True
56756,120488,0,120489,4755.0,41176.0,39412.0,0.0018909999999999999,-0.000183,-0.000549,0.29750000000000004,-1.7850000000000001,-3.6750000000000003,1.0068125,0.34871875,0.2805,1.218875,0.97971875,-0.17309375,-0.21796875000000002,1.197875,0.021586500486724006,0.02058259943869157,True
56757,120489,0,120490,4758.0,41176.0,39415.0,0.002928,-0.000183,-0.000183,0.29750000000000004,-1.9075000000000002,-3.7100000000000004,1.00525,0.34328125,0.28084375,1.21725,0.98421875,-0.17821875,-0.21959375,1.1965625,0.0215689999909526,0.020662505951405563,True
56758,120490,0,120491,4758.0,41180.0,39415.0,0.001098,-0.001037,-0.001769,0.31500000000000006,-1.8550000000000002,-3.7100000000000004,1.0053750000000001,0.34440625,0.28125,1.21746875,0.97190625,-0.17675,-0.22175,1.199,0.021556092113290664,0.020766459896580554,True
56759,120491,0,120492,4759.0,41182.0,39415.0,0.0008539999999999999,0.000183,0.000305,0.29750000000000004,-1.6450000000000002,-3.6750000000000003,1.0069062500000001,0.34425,0.28015625,1.21740625,0.96909375,-0.17771875,-0.21703125,1.20140625,0.02158883372733418,0.020530489260528164,True
56760,120492,0,120493,4759.0,41182.0,39415.0,0.000915,0.000732,0.000122,0.2625,-1.54,-3.7450000000000006,1.00684375,0.3443125,0.28034375,1.21771875,0.971,-0.1779375,-0.2228125,1.19178125,0.02160027090813681,0.020771999535561775,True
56761,120493,0,120494,4760.0,41182.0,39417.0,-0.000488,6.1e-05,0.0,0.35000000000000003,-1.5050000000000001,-3.7100000000000004,1.00321875,0.34403125,0.28103125,1.2229375,0.97121875,-0.17728125,-0.22287500000000002,1.2015625,0.021562081137638255,0.020802908407858277,True
56762,120494,0,120495,4761.0,41182.0,39414.0,-0.000793,-0.000122,-0.000305,0.35000000000000003,-1.4700000000000002,-3.7100000000000004,1.00665625,0.34590625,0.27965625,1.22315625,0.97603125,-0.1748125,-0.22321875,1.2085000000000001,0.021539722386678284,0.020760040405447766,True
56763,120495,0,120496,4762.0,41185.0,39416.0,-0.0008539999999999999,-0.000366,0.00042699999999999997,0.36750000000000005,-1.3125000000000002,-3.7450000000000006,0.9998125,0.34575,0.27928125,1.2173125,0.977375,-0.17546875,-0.223,1.2059375,0.02155981980700995,0.02073571605498906,True
56764,120496,0,120497,4762.0,41184.0,39415.0,-0.002257,0.000915,0.000488,0.31500000000000006,-1.3650000000000002,-3.7450000000000006,0.9937812500000001,0.344125,0.2784375,1.21775,0.97184375,-0.17521875,-0.22312500000000002,1.202,0.02148248400027404,0.020705936992027246,True
56765,120497,0,120498,4764.0,41186.0,39417.0,0.000915,-0.0006709999999999999,0.0,0.29750000000000004,-1.5575,-3.7975000000000003,0.99984375,0.34334375,0.2819375,1.2178125,0.9701875,-0.17659375,-0.22265625,1.2008125,0.02150582110021185,0.020831478793742943,True
56766,120498,0,120499,4765.0,41187.0,39417.0,0.001281,-0.000305,0.00042699999999999997,0.31500000000000006,-1.5750000000000002,-3.6750000000000003,1.00471875,0.34600000000000003,0.28103125,1.224375,0.9696250000000001,-0.17796875,-0.2168125,1.2016875,0.021671330433827286,0.0205577736541504,True
56767,120499,0,120500,4766.0,41188.0,39418.0,0.001647,-0.000488,-0.000549,0.29750000000000004,-1.5750000000000002,-3.7275000000000005,0.9991875,0.34584375,0.27759375000000003,1.2146875,0.9773437500000001,-0.1754375,-0.22287500000000002,1.2105937500000001,0.02156243294459511,0.02066099709468839,True
56768,120500,0,120501,4767.0,41188.0,39422.0,0.0011589999999999999,-0.000549,-0.000915,0.43750000000000006,-1.4525000000000001,-3.7275000000000005,0.99590625,0.33953125,0.28678125,1.2190625,0.97096875,-0.17509375,-0.2219375,1.1941875,0.021287404521440585,0.02100239710386504,True
56769,120501,0,120502,4767.0,41190.0,39422.0,-0.000305,-0.000366,0.000549,0.3325,-1.33,-3.8500000000000005,1.01384375,0.34575,0.28125,1.23046875,0.9715,-0.17296875,-0.22162500000000002,1.20134375,0.021458628245651458,0.020761406387886858,True
56770,120502,0,120503,4770.0,41187.0,39423.0,0.000183,0.000305,0.000244,0.24500000000000002,-1.4700000000000002,-3.7975000000000003,1.00340625,0.34746875,0.27996875,1.2264375,0.97821875,-0.174875,-0.2215,1.1934375,0.021606885247596935,0.02070345560762133,True
56771,120503,0,120504,4771.0,41186.0,39423.0,0.002196,0.000122,-0.000793,0.28,-1.3825,-3.6575,0.9958125,0.34653125,0.28321875,1.21540625,0.96828125,-0.1753125,-0.22434375,1.202125,0.021585811972440895,0.02095257998475191,True
56772,120504,0,120505,4772.0,41187.0,39426.0,0.000915,0.0015249999999999999,0.000244,0.28,-1.2075,-3.6225000000000005,1.00075,0.3465625,0.27859375000000003,1.22103125,0.97184375,-0.17065625,-0.22265625,1.2065000000000001,0.02139862255498338,0.020693436542493147,True
56773,120505,0,120506,4772.0,41187.0,39426.0,-0.001586,0.0018909999999999999,-0.000732,0.3325,-1.0675000000000001,-3.7800000000000002,0.9956875000000001,0.341875,0.27940625,1.2141250000000001,0.97028125,-0.17528125,-0.22159375,1.20678125,0.02139194347532151,0.020684022908277866,True
56774,120506,0,120507,4772.0,41184.0,39424.0,-0.003904,0.0017079999999999999,0.001098,0.385,-0.8925000000000001,-3.9725000000000006,1.000125,0.34,0.28271875,1.2149375,0.9711875,-0.17596875,-0.2255625,1.2024062500000001,0.02134221612112235,0.02098119496709313,True
56775,120507,0,120508,4773.0,41185.0,39425.0,-0.004026,-0.00183,0.000793,0.22750000000000004,-1.12,-3.9025000000000003,1.00084375,0.33990625,0.2845625,1.2056875,0.95775,-0.1755625,-0.22265625,1.20209375,0.02132189271707742,0.020939848411546527,True
56776,120508,0,120509,4775.0,41188.0,39429.0,0.00042699999999999997,-0.0017079999999999999,-0.000122,0.10500000000000001,-1.7325000000000002,-3.8150000000000004,1.0150000000000001,0.3410625,0.28325,1.2125625,0.97115625,-0.1770625,-0.2224375,1.20184375,0.021430436389863323,0.020876821335590195,True
56777,120509,0,120510,4775.0,41186.0,39428.0,0.004697,-6.1e-05,-0.000793,0.21000000000000002,-2.2225,-3.7450000000000006,0.9936875000000001,0.34284375,0.28265625,1.2141875,0.9708125,-0.17515625,-0.22278125000000001,1.20178125,0.021426955616884586,0.02086620420600958,True
56778,120510,0,120511,4775.0,41183.0,39427.0,0.008113,0.00122,-0.0023179999999999997,0.29750000000000004,-2.2925000000000004,-3.6400000000000006,0.99284375,0.34146875,0.28321875,1.21540625,0.97128125,-0.17521875,-0.2198125,1.20103125,0.021372609089628195,0.02076941140646733,True
56779,120511,0,120512,4778.0,41183.0,39427.0,0.007625,0.00042699999999999997,-0.002562,0.31500000000000006,-1.9250000000000003,-3.5525,1.0039375,0.3476875,0.28159375000000003,1.2223125000000001,0.970875,-0.17690625000000001,-0.22112500000000002,1.20153125,0.021698133937215397,0.020755383988150845,True
56780,120512,0,120513,4777.0,41188.0,39431.0,-0.004697,-0.001037,0.001403,0.31500000000000006,-0.8400000000000001,-3.6925000000000003,0.9984375,0.34509375000000003,0.2795,1.217875,0.97528125,-0.17496875,-0.2248125,1.19590625,0.021512437322178547,0.02081801458731621,True
56781,120513,0,120514,4778.0,41184.0,39431.0,-0.0066489999999999995,0.001037,0.001403,0.4025,-0.36750000000000005,-3.6925000000000003,1.00825,0.345625,0.28175,1.2235,0.96490625,-0.17721875,-0.22187500000000002,1.20140625,0.021625471292060838,0.020792155850857953,True
56782,120514,0,120515,4779.0,41186.0,39429.0,-0.006771,0.002074,6.1e-05,0.42000000000000004,-0.5425000000000001,-3.6925000000000003,1.00140625,0.34609375000000003,0.27734375,1.217875,0.9765,-0.17515625,-0.22509375,1.200375,0.021561391149229902,0.020740373811762854,True
56783,120515,0,120516,4780.0,41188.0,39431.0,-0.0040869999999999995,0.0008539999999999999,-0.001464,0.4025,-1.0325000000000002,-3.7275000000000005,1.00096875,0.3435,0.28150000000000003,1.224,0.9716875,-0.18306250000000002,-0.21921875000000002,1.21303125,0.021774020556742973,0.020674438559253695,True
56784,120516,0,120517,4780.0,41189.0,39432.0,-0.000732,-0.000305,-0.003111,0.31500000000000006,-1.3475000000000001,-3.7625,0.9995625,0.3458125,0.27771875,1.217625,0.96690625,-0.17496875,-0.23284375000000002,1.19625,0.02154216848780828,0.021069029506699973,True
56785,120517,0,120518,4784.0,41189.0,39434.0,0.006161,-0.002806,-0.00061,0.10500000000000001,-1.7675,-3.7625,1.000125,0.34509375000000003,0.28515625,1.21115625,0.9573125,-0.18471875000000001,-0.23075,1.1910625000000001,0.021906911776677165,0.021291385945544403,True
56786,120518,0,120519,4781.0,41188.0,39433.0,0.004758,-0.001586,0.00122,0.17500000000000002,-1.6800000000000002,-3.7625,1.00759375,0.34496875,0.281,1.2202187500000001,0.98390625,-0.17971875,-0.2175625,1.20978125,0.021699487302762773,0.020586815869681353,True
56787,120519,0,120520,4783.0,41188.0,39432.0,0.0023179999999999997,0.000244,0.0017079999999999999,0.35000000000000003,-1.0675000000000001,-3.7625,0.9905625,0.3465625,0.27796875,1.22271875,0.97765625,-0.17134375000000002,-0.2256875,1.2104062500000001,0.021426456690063003,0.02079017365348249,True
56788,120520,0,120521,4781.0,41188.0,39432.0,-0.001037,0.001464,0.0028669999999999998,0.42000000000000004,-0.7525000000000001,-3.6225000000000005,0.9989375,0.34571875,0.28053125,1.21765625,0.95821875,-0.17421875,-0.2278125,1.1907812500000001,0.021507933943056588,0.02098182615537412,True
56789,120521,0,120522,4779.0,41188.0,39429.0,-0.004575,0.001464,0.000976,0.29750000000000004,-0.47250000000000003,-3.7625,1.0041875,0.34659375000000003,0.28109375000000003,1.2237500000000001,0.978,-0.18071875,-0.217375,1.21175,0.021807147481916766,0.020583104073005436,True
56790,120522,0,120523,4775.0,41188.0,39427.0,-0.0026839999999999998,0.000915,0.001281,0.36750000000000005,-1.0150000000000001,-3.5700000000000003,1.00334375,0.34628125,0.28046875,1.22346875,0.984375,-0.1713125,-0.21853125,1.22096875,0.021413555842282044,0.020604057068902556,True
56791,120523,0,120524,4772.0,41187.0,39426.0,-0.000183,-0.001037,0.001098,0.45500000000000007,-1.5050000000000001,-3.5525,1.00615625,0.34571875,0.2795625,1.22428125,0.9838125,-0.17103125,-0.22478125000000002,1.20884375,0.021378897518077557,0.020819331443911387,True
56792,120524,0,120525,4769.0,41186.0,39421.0,0.003721,-0.000366,0.000122,0.31500000000000006,-1.6450000000000002,-3.6925000000000003,0.9996875000000001,0.3460625,0.28096875,1.21725,0.9637187500000001,-0.172625,-0.2249375,1.21625,0.021457640616192902,0.020883696810363287,True
56793,120525,0,120526,4766.0,41185.0,39423.0,0.003355,-0.000793,-0.0006709999999999999,0.35000000000000003,-1.6975000000000002,-3.7625,0.99984375,0.3445625,0.28084375,1.217875,0.9725625,-0.17415625,-0.2268125,1.2088125,0.02145757413973859,0.020954314563667836,True
56794,120526,0,120527,4763.0,41185.0,39420.0,0.002379,0.000122,-0.0017079999999999999,0.31500000000000006,-1.4000000000000001,-3.6575,0.9988750000000001,0.34271875,0.28159375000000003,1.22228125,0.957375,-0.1794375,-0.217875,1.19553125,0.021595053648373747,0.020623970930562653,True
56795,120527,0,120528,4760.0,41184.0,39418.0,-0.003355,0.0006709999999999999,0.000122,0.36750000000000005,-1.0325000000000002,-3.6050000000000004,1.0038125,0.34565625,0.27778125,1.2175,0.97459375,-0.1721875,-0.22396875,1.20103125,0.021423123165828492,0.020712956046890538,True
56796,120528,0,120529,4757.0,41184.0,39417.0,-0.002745,0.000915,0.000915,0.47250000000000003,-0.9975,-3.6750000000000003,0.99834375,0.34550000000000003,0.2816875,1.22078125,0.9696875,-0.1783125,-0.22275,1.2084062500000001,0.021664559923278353,0.020824947621554117,True
56797,120529,0,120530,4754.0,41185.0,39415.0,-0.001464,-0.0006709999999999999,0.000305,0.3325,-1.435,-3.7100000000000004,0.9988750000000001,0.342625,0.28103125,1.2214375,0.9699375,-0.1705625,-0.22375,1.20128125,0.021231922095317393,0.02083827854894473,True
56798,120530,0,120531,4753.0,41180.0,39414.0,0.001037,0.000305,0.000488,0.24500000000000002,-1.8025000000000002,-3.7975000000000003,0.99884375,0.34203125,0.27984375,1.2178125,0.9786875,-0.17534375,-0.2245,1.2045625,0.021400936646454097,0.020819573159404733,True
56799,120531,0,120532,4751.0,41184.0,39413.0,0.00244,0.000366,-0.0011589999999999999,0.2625,-1.7675,-3.7100000000000004,1.0046875,0.34603125,0.28084375,1.221875,0.97065625,-0.1785,-0.22209375,1.2025937500000001,0.021694118741857435,0.020763584898601098,True
56800,120532,0,120533,4750.0,41182.0,39414.0,0.0023179999999999997,-0.001586,-0.001098,0.35000000000000003,-1.5750000000000002,-3.6575,0.99353125,0.34521875,0.28209375000000003,1.2111875,0.97871875,-0.1745625,-0.2245625,1.20196875,0.021501164705669443,0.02091498040470287,True
56801,120533,0,120534,4749.0,41184.0,39414.0,0.002806,-0.002196,-0.002013,0.31500000000000006,-1.4000000000000001,-3.6050000000000004,1.00428125,0.34584375,0.2810625,1.2180312500000001,0.97640625,-0.17421875,-0.2208125,1.2073125,0.02151310474097534,0.02072081603373132,True
56802,120534,0,120535,4747.0,41182.0,39414.0,-0.000366,-0.000366,0.0,0.28,-1.2950000000000002,-3.6400000000000006,0.99946875,0.3439375,0.28203125,1.21890625,0.9715,-0.17590625000000001,-0.22475,1.2014375,0.021502554842178875,0.0209199785343502,True
56803,120535,0,120536,4747.0,41182.0,39414.0,-0.00042699999999999997,-0.000183,0.000366,0.385,-1.0675000000000001,-3.5525,1.0059375,0.3456875,0.280875,1.2265625,0.97009375,-0.17853125,-0.22134375,1.1965625,0.021681166013754454,0.02073455358974458,True
56804,120536,0,120537,4748.0,41182.0,39414.0,-0.001647,0.000976,0.001098,0.47250000000000003,-0.8225000000000001,-3.43,0.99534375,0.34559375000000003,0.27675,1.217375,0.97596875,-0.17475000000000002,-0.22121875,1.2086875,0.02152426602136527,0.020559194611129962,True
56805,120537,0,120538,4749.0,41183.0,39415.0,-0.003294,0.0026839999999999998,0.000976,0.56,-0.8225000000000001,-3.5875000000000004,1.01540625,0.34925,0.27490625,1.215625,0.97040625,-0.1776875,-0.22165625,1.19790625,0.0217943713599574,0.020500765714565865,True
56806,120538,0,120539,4750.0,41180.0,39416.0,-0.003355,0.001281,0.0011589999999999999,0.43750000000000006,-1.05,-3.4650000000000003,0.985375,0.342875,0.2833125,1.2298437500000001,0.9723437500000001,-0.1704375,-0.22346875,1.20146875,0.02123720350531512,0.020921085053105783,True
56807,120539,0,120540,4750.0,41182.0,39414.0,-0.001037,0.000488,0.000732,0.43750000000000006,-1.33,-3.4475000000000002,0.993375,0.3413125,0.28421875,1.23053125,0.9759375,-0.1746875,-0.22403125000000002,1.2000625,0.021344639925541954,0.02098123118958576,True
56808,120540,0,120541,4751.0,41183.0,39413.0,0.000122,-0.001403,0.0,0.45500000000000007,-1.4875,-3.4650000000000003,0.98478125,0.34034375,0.28334375,1.20471875,0.97621875,-0.17478125,-0.22528125000000002,1.204875,0.021308362407622617,0.020995628275729514,True
56809,120541,0,120542,4750.0,41181.0,39413.0,0.001769,-0.00183,-0.00122,0.3325,-1.5575,-3.6400000000000006,1.01303125,0.34778125,0.28434375,1.23215625,0.9702500000000001,-0.17909375,-0.2213125,1.20228125,0.021790518927120667,0.02087650080894667,True
56810,120542,0,120543,4752.0,41180.0,39412.0,0.0026839999999999998,-0.002013,-0.0025009999999999998,0.28,-1.5225000000000002,-3.6225000000000005,0.9931562500000001,0.34228125,0.277375,1.21340625,0.97428125,-0.174375,-0.223,1.2086875,0.021372062359419842,0.020657020187425174,True
56811,120543,0,120544,4754.0,41180.0,39410.0,0.0008539999999999999,-0.001403,-0.000915,0.22750000000000004,-1.3475000000000001,-3.6400000000000006,0.99765625,0.33815625,0.283625,1.21609375,0.97075,-0.17259375,-0.2233125,1.20128125,0.021129300615495596,0.020927670400156875,True
56812,120544,0,120545,4753.0,41180.0,39412.0,0.0,-0.0011589999999999999,-0.000305,0.28,-1.0150000000000001,-3.6925000000000003,1.01659375,0.34800000000000003,0.27903125,1.2336875,0.9712500000000001,-0.17653125,-0.22115625,1.20175,0.021695885343353382,0.02065085146379005,True
56813,120545,0,120546,4754.0,41178.0,39409.0,0.000549,0.000793,0.000732,0.385,-0.8225000000000001,-3.6925000000000003,0.98621875,0.3456875,0.2765,1.21228125,0.9701875,-0.17065625,-0.22228125,1.21,0.02136242163470427,0.020591836287096207,True
56814,120546,0,120547,4755.0,41179.0,39410.0,0.000244,0.000915,0.000305,0.35000000000000003,-0.7000000000000001,-3.6750000000000003,0.999,0.33918750000000003,0.2784375,1.21303125,0.97096875,-0.1710625,-0.2251875,1.20275,0.021109953275740362,0.0207893127762169,True
56815,120547,0,120548,4755.0,41178.0,39410.0,-0.0006709999999999999,0.001769,0.002013,0.3325,-0.6300000000000001,-3.6925000000000003,1.0063125,0.343,0.28328125,1.22928125,0.9710625,-0.1764375,-0.22521875,1.2022187500000001,0.021485278796762344,0.02099052253140129,True
56816,120548,0,120549,4755.0,41177.0,39410.0,-0.001037,0.001037,0.001647,0.43750000000000006,-0.665,-3.6050000000000004,0.9996875000000001,0.34640625,0.27928125,1.21409375,0.97459375,-0.17196875,-0.22146875,1.208625,0.02144529497623151,0.020673808230559927,True
56817,120549,0,120550,4755.0,41178.0,39409.0,-0.00122,0.001403,0.0,0.45500000000000007,-0.665,-3.6750000000000003,1.0072812500000001,0.34484375,0.281375,1.21990625,0.97090625,-0.17665625000000001,-0.22112500000000002,1.19890625,0.02157039396215099,0.020746352615743487,True
56818,120550,0,120551,4755.0,41176.0,39409.0,-0.000915,-0.000488,0.000183,0.28,-0.6475000000000001,-3.6400000000000006,0.99984375,0.3449375,0.27928125,1.2061250000000001,0.9783437500000001,-0.17175,-0.22290625,1.20184375,0.021375676150878608,0.020731926004956568,True
56819,120551,0,120552,4755.0,41176.0,39409.0,-0.002074,-0.000366,0.0008539999999999999,0.28,-0.5950000000000001,-3.5700000000000003,1.00078125,0.3425625,0.2814375,1.2194375,0.97,-0.1709375,-0.22284375,1.20209375,0.02124452144233131,0.02081841649992066,True
56820,120552,0,120553,4756.0,41176.0,39407.0,-0.001769,-0.000366,-0.000183,0.29750000000000004,-0.6125,-3.7275000000000005,0.99728125,0.34575,0.279875,1.226,0.97478125,-0.17371875,-0.2221875,1.2015625,0.021488987911717144,0.020727380629846085,True
56821,120553,0,120554,4755.0,41176.0,39407.0,-0.001098,0.0008539999999999999,-0.000366,0.31500000000000006,-0.8400000000000001,-3.6925000000000003,1.00090625,0.34478125,0.2790625,1.217375,0.97659375,-0.17509375,-0.22203125,1.2068125,0.02150457017359033,0.02068751975538798,True
56822,120554,0,120555,4755.0,41174.0,39407.0,-0.00042699999999999997,-0.0008539999999999999,0.000549,0.35000000000000003,-0.8925000000000001,-3.6400000000000006,0.999375,0.341625,0.27921875,1.21871875,0.96675,-0.175875,-0.22509375,1.20665625,0.021405636817695327,0.02081777289303576,True
56823,120555,0,120556,4755.0,41176.0,39408.0,0.001098,-0.00042699999999999997,0.000366,0.2625,-1.0325000000000002,-3.6225000000000005,0.9991875,0.34590625,0.278875,1.2178437500000001,0.9685312500000001,-0.17465625,-0.22209375,1.2090625,0.021533398225672806,0.020682305797780177,True
56824,120556,0,120557,4755.0,41178.0,39408.0,0.002074,-0.000183,0.001098,0.29750000000000004,-1.1375000000000002,-3.6400000000000006,1.000625,0.341625,0.27971875,1.21875,0.97215625,-0.17540625,-0.22375,1.205875,0.02138666232340977,0.02078409618659374,True
56825,120557,0,120558,4756.0,41178.0,39408.0,0.0008539999999999999,6.1e-05,-0.00042699999999999997,0.22750000000000004,-1.1900000000000002,-3.6050000000000004,0.99590625,0.34275,0.27871875,1.21890625,0.97065625,-0.1758125,-0.22471875,1.20946875,0.02144964104101982,0.020781975022929833,True
56826,120558,0,120559,4755.0,41175.0,39405.0,0.000183,0.000732,0.000732,0.4025,-1.155,-3.6225000000000005,1.00028125,0.343,0.2816875,1.2175,0.97075,-0.172125,-0.22140625,1.20109375,0.02131070396169141,0.02077062515724082,True
56827,120559,0,120560,4755.0,41177.0,39406.0,0.000305,0.000305,-0.000915,0.385,-1.0850000000000002,-3.6575,1.00071875,0.34346875,0.2805,1.21996875,0.9707187500000001,-0.1743125,-0.22509375,1.2088125,0.021418654615307054,0.020870662265238916,True
56828,120560,0,120561,4755.0,41177.0,39406.0,-0.000366,-0.000122,-0.000549,0.29750000000000004,-0.9450000000000001,-3.6750000000000003,0.9985625,0.3456875,0.27984375,1.22440625,0.97659375,-0.17453125,-0.222,1.20946875,0.021519290058623162,0.02071851003220213,True
56829,120561,0,120562,4755.0,41177.0,39407.0,-0.0015249999999999999,0.000183,0.000366,0.36750000000000005,-0.8225000000000001,-3.6750000000000003,1.0000625,0.34603125,0.27815625,1.21834375,0.9755,-0.17525000000000002,-0.21934375,1.2081250000000001,0.021562600179936095,0.020541431887476307,True
56830,120562,0,120563,4755.0,41179.0,39406.0,-0.002745,0.000793,0.000915,0.45500000000000007,-0.665,-3.8325000000000005,1.0006875,0.34459375000000003,0.2813125,1.22353125,0.97103125,-0.17734375,-0.22209375,1.20146875,0.02158787604614341,0.020782937065463223,True
56831,120563,0,120564,4757.0,41179.0,39404.0,-0.0028669999999999998,0.001098,0.0013419999999999999,0.47250000000000003,-0.7875000000000001,-3.8150000000000004,0.9987812500000001,0.34375,0.2818125,1.21834375,0.9765,-0.1749375,-0.22425,1.20246875,0.021455588044436515,0.020890739651382398,True
56832,120564,0,120565,4757.0,41180.0,39404.0,-0.001586,0.000305,0.0006709999999999999,0.42000000000000004,-1.1725,-3.8850000000000002,1.00734375,0.34625,0.28140625,1.2145000000000001,0.97096875,-0.1765,-0.2206875,1.201875,0.0216222364692987,0.020729954506865256,True
56833,120565,0,120566,4759.0,41182.0,39407.0,0.000488,-0.000305,0.000366,0.29750000000000004,-1.2600000000000002,-3.8850000000000002,1.0045625,0.34515625,0.2808125,1.22309375,0.977875,-0.1709375,-0.22137500000000002,1.20175,0.021351830064514462,0.020733236655639906,True
56834,120566,0,120567,4758.0,41182.0,39405.0,0.002928,-0.000488,-0.000488,0.2625,-1.5925000000000002,-3.8150000000000004,1.0031875000000001,0.34596875,0.28175,1.21796875,0.9774375000000001,-0.176125,-0.22178125,1.20175,0.021595427306898854,0.020788365843242847,True
56835,120567,0,120568,4759.0,41180.0,39405.0,0.002562,-0.000976,-0.0013419999999999999,0.31500000000000006,-1.6975000000000002,-3.8150000000000004,1.0012812500000001,0.3428125,0.28084375,1.219,0.9597187500000001,-0.1751875,-0.22390625,1.20234375,0.02142692791938015,0.020836854089129414,True
56836,120568,0,120569,4760.0,41179.0,39404.0,0.0017079999999999999,-0.001403,-0.000915,0.3325,-1.6625,-3.7450000000000006,1.00021875,0.34253125,0.28115625,1.22209375,0.9710625,-0.17500000000000002,-0.22215625,1.20884375,0.02140770423991727,0.020779013016233847,True
56837,120569,0,120570,4761.0,41181.0,39406.0,0.000732,-0.000183,0.000122,0.42000000000000004,-1.5225000000000002,-3.7625,1.00003125,0.3445625,0.279625,1.2185,0.970875,-0.17478125,-0.22446875,1.20828125,0.021482872776770214,0.020809279873268634,True
56838,120570,0,120571,4761.0,41182.0,39406.0,-0.000915,-0.000183,0.000183,0.45500000000000007,-1.3825,-3.6925000000000003,1.00040625,0.34425,0.28240625,1.21846875,0.9714375000000001,-0.17790625000000002,-0.22790625,1.19378125,0.02159642131956732,0.021063004567305525,True
56839,120571,0,120572,4762.0,41182.0,39406.0,-0.000183,0.0013419999999999999,-0.000183,0.42000000000000004,-1.1900000000000002,-3.6575,0.99965625,0.3445625,0.28059375000000003,1.2181250000000001,0.97009375,-0.1749375,-0.226,1.20053125,0.021489197231637103,0.02091115949805994,True
56840,120572,0,120573,4764.0,41184.0,39407.0,6.1e-05,-0.000366,-6.1e-05,0.4025,-1.33,-3.7100000000000004,0.99925,0.34334375,0.2818125,1.22709375,0.9664375000000001,-0.181625,-0.21978125,1.1990625,0.021709407452973072,0.020710085893116813,True
56841,120573,0,120574,4763.0,41184.0,39410.0,-0.000488,0.000183,0.00061,0.3325,-1.33,-3.7100000000000004,0.9998750000000001,0.34653125,0.2768125,1.2235625,0.98321875,-0.1739375,-0.2240625,1.2155625,0.021530160322454712,0.020676754776371636,True
56842,120574,0,120575,4765.0,41185.0,39408.0,0.0008539999999999999,-0.000549,-0.000122,0.29750000000000004,-1.3825,-3.6400000000000006,0.99509375,0.3458125,0.28275,1.24271875,0.9744375000000001,-0.17378125,-0.22112500000000002,1.1983125000000001,0.021494103244605146,0.020803121242303983,True
56843,120575,0,120576,4765.0,41185.0,39411.0,0.0,-0.000305,0.000366,0.36750000000000005,-1.2775,-3.535,0.99184375,0.3444375,0.2754375,1.22415625,0.98575,-0.1731875,-0.2199375,1.2130625,0.021413187648505187,0.020453190682263322,True
56844,120576,0,120577,4767.0,41183.0,39408.0,-0.0017079999999999999,0.0023179999999999997,-0.00042699999999999997,0.5425000000000001,-1.2775,-3.3775000000000004,0.986625,0.3336875,0.28571875,1.20828125,0.98190625,-0.1733125,-0.2273125,1.2045937500000001,0.020973542620606918,0.021175739158026712,True
56845,120577,0,120578,4768.0,41181.0,39410.0,-0.0006709999999999999,0.0006709999999999999,-6.1e-05,0.42000000000000004,-1.4700000000000002,-3.5000000000000004,1.0225,0.34003125,0.2851875,1.21428125,0.96709375,-0.180375,-0.22290625,1.1985937500000001,0.021521843643864082,0.020975755128474726,True
56846,120578,0,120579,4770.0,41185.0,39411.0,-0.0023179999999999997,-0.001098,0.001769,0.35000000000000003,-1.6275000000000002,-3.5000000000000004,1.0112812500000001,0.340875,0.28584375,1.21915625,0.9666250000000001,-0.1756875,-0.2236875,1.1985000000000001,0.0213670242056198,0.021034421369578848,True
56847,120579,0,120580,4770.0,41182.0,39408.0,-0.001281,-0.002013,0.000793,0.22750000000000004,-1.7325000000000002,-3.4475000000000002,1.02184375,0.34996875,0.28603125,1.23253125,0.96,-0.180125,-0.22334375,1.1930625,0.021922705114220873,0.021028269476628305,True
56848,120580,0,120581,4772.0,41182.0,39411.0,0.0013419999999999999,-0.00122,-0.000549,0.3325,-2.0125,-3.5000000000000004,1.014625,0.34900000000000003,0.27125,1.22015625,0.97396875,-0.1775625,-0.21975,1.21259375,0.021778973790265253,0.020272711320306773,True
56849,120581,0,120582,4770.0,41181.0,39413.0,0.00244,0.001098,-0.0008539999999999999,0.36750000000000005,-1.9425000000000001,-3.4475000000000002,0.98778125,0.3444375,0.26887500000000003,1.2280625,0.977375,-0.1731875,-0.21984375,1.20975,0.021413187648505187,0.02017844355416207,True
56850,120582,0,120583,4774.0,41183.0,39412.0,0.0025009999999999998,0.00122,-0.000915,0.4025,-1.8725000000000003,-3.3075,0.98721875,0.34471875,0.273625,1.229125,0.9740625,-0.173875,-0.22121875,1.20425,0.021452652915595866,0.020430175504690493,True
56851,120583,0,120584,4774.0,41182.0,39413.0,-0.000122,0.000549,0.000488,0.45500000000000007,-1.6625,-3.3600000000000003,0.98665625,0.34503125,0.273625,1.2233125,0.96965625,-0.17465625,-0.22084375,1.202125,0.02149720329528988,0.02041500928306843,True
56852,120584,0,120585,4775.0,41181.0,39415.0,-0.002989,-0.000366,0.001281,0.43750000000000006,-1.5225000000000002,-3.3075,0.98690625,0.345375,0.27928125,1.2202187500000001,0.9789375,-0.17325000000000002,-0.22203125,1.20759375,0.021454500325773323,0.020696550789892985,True
56853,120585,0,120586,4777.0,41183.0,39417.0,-0.002562,0.000976,0.001769,0.4025,-1.4000000000000001,-3.43,0.9859687500000001,0.34465625,0.27609375,1.21890625,0.975125,-0.17490625,-0.22140625,1.20903125,0.02149181033535549,0.020539682744473188,True
56854,120586,0,120587,4776.0,41182.0,39417.0,-0.002928,-0.000244,-0.000732,0.47250000000000003,-1.54,-3.5700000000000003,0.9936875000000001,0.345375,0.281375,1.21834375,0.977,-0.1755625,-0.22546875,1.2060625,0.021548102551905462,0.02092193778500158,True
56855,120587,0,120588,4779.0,41186.0,39418.0,-0.001769,-0.000732,-0.0008539999999999999,0.45500000000000007,-1.8550000000000002,-3.6400000000000006,1.00084375,0.34346875,0.28165625,1.2181250000000001,0.9673437500000001,-0.17725,-0.2239375,1.195625,0.021537550796720057,0.020871658457672294,True
56856,120588,0,120589,4779.0,41185.0,39422.0,-0.000915,-0.00061,-0.002196,0.385,-2.1525000000000003,-3.7625,1.0065625,0.34315625,0.28146875,1.22534375,0.9705625,-0.1780625,-0.22112500000000002,1.20228125,0.021557506934230156,0.020750223203918065,True
56857,120589,0,120590,4778.0,41188.0,39422.0,0.003477,-0.000793,-0.0023179999999999997,0.28,-2.45,-3.7450000000000006,1.0064375,0.34559375000000003,0.28134375,1.22578125,0.97590625,-0.17521875,-0.22159375,1.2085937500000001,0.021543238362631157,0.020764013515832336,True
56858,120590,0,120591,4782.0,41185.0,39421.0,0.0060999999999999995,-0.0018909999999999999,-0.000793,0.31500000000000006,-2.45,-3.7800000000000002,0.999375,0.34509375000000003,0.28021875,1.2226875,0.9779375,-0.175375,-0.22171875,1.2084062500000001,0.021528880110442964,0.02072262109805895,True
56859,120591,0,120592,4782.0,41187.0,39422.0,0.003111,-0.000549,0.0011589999999999999,0.35000000000000003,-2.2750000000000004,-3.7975000000000003,1.00021875,0.34628125,0.28003125,1.22265625,0.97365625,-0.17509375,-0.2241875,1.20884375,0.02156661750277597,0.020814681606968245,True
56860,120592,0,120593,4781.0,41185.0,39418.0,0.000549,0.000366,0.00122,0.36750000000000005,-1.9075000000000002,-3.8500000000000005,0.99990625,0.34459375000000003,0.2778125,1.21953125,0.9703437500000001,-0.17540625,-0.2223125,1.2085937500000001,0.02150946274170677,0.020647285431562325,True
56861,120593,0,120594,4778.0,41185.0,39417.0,-0.001647,0.0011589999999999999,0.0008539999999999999,0.42000000000000004,-1.61,-3.8500000000000005,0.9968750000000001,0.34484375,0.2833125,1.21765625,0.9716250000000001,-0.1755625,-0.22446875,1.208375,0.02152612788223645,0.020961501993722775,True
56862,120594,0,120595,4776.0,41184.0,39415.0,-0.004026,0.000732,0.000976,0.49000000000000005,-1.4875,-3.7975000000000003,0.99728125,0.34528125,0.27825,1.22528125,0.97128125,-0.17440625,-0.21721875000000002,1.2081875,0.021497425608953683,0.02045935807554284,True
56863,120595,0,120596,4775.0,41182.0,39413.0,-0.0017079999999999999,0.000366,0.00122,0.3325,-1.6625,-3.6750000000000003,0.994,0.34575,0.2811875,1.22440625,0.979875,-0.17503125,-0.22209375,1.20890625,0.02154211279458015,0.02077777648763332,True
56864,120596,0,120597,4771.0,41182.0,39411.0,0.000976,0.000183,0.000305,0.3325,-1.8900000000000001,-3.8850000000000002,0.9998125,0.34575,0.2788125,1.2248125,0.97940625,-0.17496875,-0.22203125,1.208875,0.02153958316905787,0.02067719857309655,True
56865,120597,0,120598,4769.0,41183.0,39410.0,0.00244,-0.000244,0.000183,0.42000000000000004,-1.8900000000000001,-3.9025000000000003,0.9995937500000001,0.345375,0.27940625,1.2261875,0.97765625,-0.174625,-0.222,1.20884375,0.02151015786180758,0.020700447939889358,True
56866,120598,0,120599,4767.0,41182.0,39409.0,0.000915,0.0006709999999999999,0.0,0.4025,-1.8550000000000002,-3.9550000000000005,0.99821875,0.3458125,0.27815625,1.2260625,0.97659375,-0.17515625,-0.2223125,1.2101250000000001,0.021549757305084634,0.020661476892431307,True
56867,120599,0,120600,4761.0,41178.0,39409.0,-0.000976,-0.000183,0.000366,0.4025,-1.6450000000000002,-3.9725000000000006,1.0001875,0.34525,0.2780625,1.22334375,0.971375,-0.1745625,-0.2213125,1.208625,0.0215024573867676,0.02061717340874901,True
56868,120600,0,120601,4761.0,41179.0,39405.0,-0.0008539999999999999,0.0011589999999999999,0.000122,0.4025,-1.6450000000000002,-3.9200000000000004,0.999625,0.345125,0.280375,1.21834375,0.97040625,-0.1754375,-0.22459375,1.20684375,0.021532702355438242,0.02084529281321797,True
56869,120601,0,120602,4759.0,41178.0,39406.0,-0.000549,0.0,-0.0011589999999999999,0.1925,-1.7500000000000002,-3.9375000000000004,0.99971875,0.34284375,0.282125,1.21859375,0.97028125,-0.1763125,-0.2220625,1.2022187500000001,0.021473756595427856,0.020815217531537623,True
56870,120602,0,120603,4757.0,41179.0,39408.0,0.0021349999999999997,-0.001464,-0.000244,0.17500000000000002,-2.0125,-3.7800000000000002,1.0048125,0.343375,0.28171875,1.2205,0.96109375,-0.17521875,-0.2206875,1.2026875000000001,0.021451460496091684,0.02074285670049622,True
56871,120603,0,120604,4755.0,41178.0,39406.0,0.0017079999999999999,-0.001464,0.0,0.22750000000000004,-2.1700000000000004,-3.7975000000000003,1.00575,0.34553125,0.28250000000000003,1.2185,0.97496875,-0.17450000000000002,-0.215875,1.20034375,0.021511561769633297,0.020580507621549914,True
56872,120604,0,120605,4754.0,41178.0,39403.0,0.003172,-0.002013,-0.0013419999999999999,0.35000000000000003,-2.2925000000000004,-3.8850000000000002,1.00015625,0.34828125,0.2805,1.22034375,0.9711875,-0.175125,-0.22359375,1.20746875,0.021650611940993065,0.020810031542078684,True
56873,120605,0,120606,4756.0,41177.0,39406.0,0.002806,-0.000915,-0.001281,0.31500000000000006,-1.995,-3.8675,1.00015625,0.3455625,0.279875,1.220625,0.97090625,-0.175125,-0.2233125,1.20903125,0.021538151302216636,0.020772860854600297,True
56874,120606,0,120607,4753.0,41178.0,39400.0,-0.000244,0.000305,0.000305,0.5075000000000001,-1.3650000000000002,-3.8325000000000005,0.9995937500000001,0.34450000000000003,0.28003125,1.21896875,0.9710625,-0.175375,-0.2240625,1.206375,0.021504319995036277,0.020809628855605868,True
56875,120607,0,120608,4753.0,41176.0,39400.0,-0.00122,0.001037,-0.001281,0.42000000000000004,-1.0325000000000002,-3.7975000000000003,0.9997812500000001,0.34603125,0.2785,1.2241875,0.97128125,-0.17578125,-0.22534375,1.21909375,0.021584100824042655,0.02079820848775366,True
56876,120608,0,120609,4752.0,41175.0,39403.0,-0.0032329999999999998,0.001464,0.000244,0.49000000000000005,-0.805,-3.7450000000000006,0.99965625,0.34534375,0.278875,1.21878125,0.96809375,-0.1759375,-0.2249375,1.19490625,0.021561986996367775,0.02079726727881135,True
56877,120609,0,120610,4752.0,41177.0,39399.0,-0.0037819999999999998,0.002196,0.002013,0.5075000000000001,-0.56,-3.6750000000000003,1.00140625,0.3425625,0.27884375,1.218375,0.9716875,-0.1809375,-0.2250625,1.1965937500000001,0.021649284689644478,0.020801029925103392,True
56878,120610,0,120611,4752.0,41174.0,39399.0,-0.002806,0.002562,0.0017079999999999999,0.5075000000000001,-0.5950000000000001,-3.5700000000000003,1.000375,0.345375,0.28078125,1.225125,0.9655,-0.17403125,-0.22359375,1.21828125,0.021486124702515225,0.020821642123188266,True
56879,120611,0,120612,4753.0,41173.0,39399.0,-0.0011589999999999999,0.00061,-0.000122,0.525,-0.8750000000000001,-3.5700000000000003,1.0055625,0.34609375000000003,0.28171875,1.22040625,0.98121875,-0.1720625,-0.2166875,1.20559375,0.021436162098290128,0.020581107552385108,True
56880,120612,0,120613,4755.0,41174.0,39397.0,0.0015249999999999999,-0.000488,-0.0011589999999999999,0.47250000000000003,-1.0675000000000001,-3.535,1.0078125,0.34253125,0.281375,1.22371875,0.989375,-0.17965625000000002,-0.2238125,1.20115625,0.021596150689693946,0.02085499547191426,True
56881,120613,0,120614,4757.0,41171.0,39398.0,0.0006709999999999999,-0.001464,-0.001403,0.21000000000000002,-1.12,-3.535,0.9995937500000001,0.3454375,0.2828125,1.220875,0.961875,-0.17228125,-0.22134375,1.20846875,0.021417868865810916,0.02081454502292013,True
56882,120614,0,120615,4756.0,41174.0,39399.0,0.00061,-0.0023179999999999997,-0.0006709999999999999,0.17500000000000002,-1.1725,-3.535,1.00803125,0.3458125,0.28178125,1.22571875,0.98853125,-0.178625,-0.2184375,1.1976875,0.02169012919469159,0.020654460057549128,True
56883,120615,0,120616,4757.0,41171.0,39399.0,0.002806,-0.002989,-0.000366,0.29750000000000004,-1.2950000000000002,-3.6225000000000005,1.005875,0.34603125,0.27984375,1.22609375,0.98646875,-0.17334375,-0.22325,1.21921875,0.02148544303061094,0.020769044203399627,True
56884,120616,0,120617,4757.0,41172.0,39401.0,0.001464,-0.000244,-0.0008539999999999999,0.29750000000000004,-0.9100000000000001,-3.6575,1.00303125,0.34650000000000003,0.28228125,1.22371875,0.97975,-0.166375,-0.22087500000000002,1.20775,0.021222669928775,0.02077366114973138,True
56885,120617,0,120618,4760.0,41172.0,39402.0,-0.00042699999999999997,0.000244,0.00042699999999999997,0.29750000000000004,-0.6300000000000001,-3.6575,0.99453125,0.34553125,0.2784375,1.22609375,0.978875,-0.17353125,-0.22262500000000002,1.2141250000000001,0.021472349018102185,0.02068572254245772,True
56886,120618,0,120619,4759.0,41171.0,39400.0,-0.0015249999999999999,0.002379,0.0011589999999999999,0.3325,-0.35000000000000003,-3.6575,0.9997812500000001,0.3450625,0.2804375,1.21915625,0.968375,-0.1729375,-0.22609375,1.2036875,0.021428922322742117,0.020908498713293387,True
56887,120619,0,120620,4759.0,41173.0,39400.0,-0.002623,0.002379,0.0018909999999999999,0.43750000000000006,-0.31500000000000006,-3.5875000000000004,1.0000625,0.34475,0.2795,1.22321875,0.9666875,-0.17525000000000002,-0.22615625,1.20753125,0.021509601762132763,0.02087232678522826,True
56888,120620,0,120621,4760.0,41173.0,39399.0,-0.002013,0.0015249999999999999,0.002013,0.43750000000000006,-0.36750000000000005,-3.6400000000000006,1.00015625,0.34546875,0.2783125,1.22209375,0.97090625,-0.1749375,-0.22103125,1.209,0.02152668440197622,0.020616122610386377,True
56889,120621,0,120622,4759.0,41174.0,39399.0,0.000183,0.000488,0.00061,0.36750000000000005,-0.6475000000000001,-3.7275000000000005,0.9998125,0.34475,0.28178125,1.22475,0.9712500000000001,-0.17525000000000002,-0.2220625,1.2093125,0.021509601762132763,0.020801025924196172,True
56890,120622,0,120623,4760.0,41177.0,39400.0,-0.0006709999999999999,-0.0006709999999999999,-0.000122,0.36750000000000005,-0.6825000000000001,-3.6750000000000003,0.99334375,0.345375,0.28196875,1.223375,0.976875,-0.17484375,-0.22109375,1.20953125,0.02151901188606441,0.020769602941650804,True
56891,120623,0,120624,4758.0,41175.0,39399.0,-0.0017079999999999999,-0.000976,0.001281,0.3325,-0.7350000000000001,-3.6925000000000003,1.0069375,0.34484375,0.28196875,1.21846875,0.977875,-0.1764375,-0.2201875,1.202375,0.02156154106658601,0.02073296294671542,True
56892,120624,0,120625,4759.0,41174.0,39397.0,-0.0017079999999999999,-0.0011589999999999999,-6.1e-05,0.35000000000000003,-1.0150000000000001,-3.5700000000000003,1.00415625,0.34475,0.2825625,1.21925,0.97096875,-0.1768125,-0.2239375,1.2022187500000001,0.02157283967851428,0.020909069799242997,True
56893,120625,0,120626,4760.0,41177.0,39396.0,-6.1e-05,0.000915,-0.0015249999999999999,0.24500000000000002,-1.1725,-3.535,0.99971875,0.34496875,0.2826875,1.21990625,0.96396875,-0.17590625000000001,-0.22396875,1.20203125,0.021545210947366243,0.02091549304859469,True
56894,120626,0,120627,4759.0,41179.0,39396.0,0.0013419999999999999,-6.1e-05,0.0025009999999999998,0.43750000000000006,-1.5575,-3.5175000000000005,1.0001875,0.3433125,0.28003125,1.21853125,0.9681875,-0.17528125,-0.2235625,1.2040625,0.02145140503794552,0.020789417328685656,True
56895,120627,0,120628,4758.0,41180.0,39397.0,0.001769,-0.00061,0.0006709999999999999,0.4025,-1.4875,-3.5000000000000004,1.0001875,0.3459375,0.284625,1.21434375,0.9641875,-0.1759375,-0.22471875,1.20934375,0.02158654654033582,0.02102578590308711,True
56896,120628,0,120629,4759.0,41183.0,39397.0,0.00122,-0.00042699999999999997,-0.0021349999999999997,0.28,-1.4175000000000002,-3.5175000000000005,1.000375,0.3434375,0.28209375000000003,1.21778125,0.9706250000000001,-0.179125,-0.22125,1.2028125,0.02161213443414516,0.020781080662641272,True
56897,120629,0,120630,4760.0,41186.0,39396.0,-0.00042699999999999997,0.000793,-0.0006709999999999999,0.31500000000000006,-1.2600000000000002,-3.535,0.9933125,0.3465625,0.28571875,1.23234375,0.9696875,-0.17909375,-0.22112500000000002,1.1945625,0.02174011381216469,0.020925689867832317,True
56898,120630,0,120631,4760.0,41187.0,39395.0,-0.0011589999999999999,0.00042699999999999997,0.0013419999999999999,0.49000000000000005,-1.3475000000000001,-3.535,0.9989687500000001,0.34978125,0.28150000000000003,1.229,0.9771875,-0.1746875,-0.2201875,1.20309375,0.021694954691761786,0.02071360925674089,True
56899,120631,0,120632,4760.0,41189.0,39396.0,-0.000732,-0.002074,0.000122,0.24500000000000002,-1.4700000000000002,-3.6400000000000006,1.0021875,0.34621875,0.2804375,1.2276875,0.97765625,-0.17596875,-0.22090625,1.20359375,0.021599444696502598,0.020698802300182305,True
56900,120632,0,120633,4760.0,41188.0,39397.0,0.000244,-0.000549,-0.000488,0.2625,-1.4525000000000001,-3.5525,0.99584375,0.346625,0.27634375,1.216,0.97765625,-0.17496875,-0.22237500000000002,1.2084062500000001,0.021575777631563643,0.02058917632973645,True
56901,120633,0,120634,4761.0,41192.0,39397.0,0.000549,-0.000122,0.000122,0.47250000000000003,-1.5925000000000002,-3.535,0.9960625000000001,0.341,0.2839375,1.21815625,0.97140625,-0.1755625,-0.22396875,1.2028125,0.02136713468404303,0.020967094832468357,True
56902,120634,0,120635,4761.0,41194.0,39395.0,0.000488,6.1e-05,-6.1e-05,0.4025,-1.7500000000000002,-3.5700000000000003,1.012125,0.34650000000000003,0.2778125,1.20846875,0.97,-0.17809375,-0.22234375,1.20778125,0.021697068239715962,0.02064854892499823,True
56903,120635,0,120636,4761.0,41195.0,39398.0,0.000305,-0.00061,-0.000732,0.28,-1.6975000000000002,-3.5525,1.01103125,0.3465625,0.2803125,1.21353125,0.97115625,-0.1778125,-0.22175,1.205125,0.021688273080949734,0.020727755013572515,True
56904,120636,0,120637,4762.0,41195.0,39397.0,-0.000244,0.000488,0.00122,0.2625,-1.6625,-3.5875000000000004,0.99609375,0.34171875,0.277625,1.21553125,0.9706250000000001,-0.17528125,-0.217875,1.2065937500000001,0.021385480261992815,0.02046009404210733,True
56905,120637,0,120638,4761.0,41197.0,39399.0,-0.00122,0.000549,0.00042699999999999997,0.35000000000000003,-1.6450000000000002,-3.6050000000000004,0.9983125,0.3395,0.27934375,1.21578125,0.966125,-0.1743125,-0.2218125,1.20540625,0.021254482418062562,0.020690286905655803,True
56906,120638,0,120639,4763.0,41198.0,39397.0,-0.00042699999999999997,0.000549,-0.001098,0.385,-1.7675,-3.7100000000000004,1.00559375,0.34275,0.2895,1.2173125,0.9705625,-0.1759375,-0.22162500000000002,1.20334375,0.021454700567454726,0.02110201111609977,True
56907,120639,0,120640,4763.0,41198.0,39399.0,0.000183,-0.00042699999999999997,0.001098,0.45500000000000007,-1.9425000000000001,-3.7100000000000004,1.01140625,0.34271875,0.2830625,1.2284375,0.970875,-0.17503125,-0.22259375,1.20315625,0.021416725159352175,0.02087539654996691,True
56908,120640,0,120641,4765.0,41196.0,39398.0,0.0008539999999999999,-0.000122,-0.001769,0.4025,-2.0475000000000003,-3.7625,1.00296875,0.34625,0.281875,1.2235625,0.97565625,-0.175375,-0.22134375,1.20309375,0.021576707703603357,0.020775839490738413,True
56909,120641,0,120642,4765.0,41199.0,39400.0,0.000793,-0.0008539999999999999,-0.001098,0.35000000000000003,-1.9600000000000002,-3.6225000000000005,1.0034375,0.34615625,0.28196875,1.2235625,0.97503125,-0.16821875,-0.22134375,1.203375,0.021283115868851527,0.020779710043956585,True
56910,120642,0,120643,4765.0,41202.0,39400.0,-0.000244,-0.000122,0.0,0.36750000000000005,-1.9600000000000002,-3.5700000000000003,1.0078125,0.34290625,0.2814375,1.21815625,0.9753125,-0.1760625,-0.2203125,1.20271875,0.02146622304603986,0.020716082833365592,True
56911,120643,0,120644,4767.0,41202.0,39401.0,0.000366,-0.0011589999999999999,0.000976,0.36750000000000005,-2.1700000000000004,-3.5525,1.0058125,0.34275,0.2815625,1.21775,0.971125,-0.1778125,-0.21971875000000002,1.19271875,0.021530587186082282,0.020697236626663968,True
56912,120644,0,120645,4767.0,41202.0,39402.0,0.000915,-0.001403,0.000793,0.21000000000000002,-2.0300000000000002,-3.6225000000000005,1.0049375,0.34565625,0.2879375,1.22590625,0.976375,-0.17609375,-0.22040625,1.20315625,0.021581236629676783,0.020988242094411608,True
56913,120645,0,120646,4767.0,41203.0,39404.0,0.001464,0.000915,-0.001098,0.385,-1.61,-3.535,1.00634375,0.34534375,0.28084375,1.22353125,0.9961875,-0.17453125,-0.21753125,1.2295,0.021505070548162128,0.0205791001095539,True
56914,120646,0,120647,4769.0,41201.0,39403.0,-6.1e-05,0.001281,-0.000122,0.525,-1.4175000000000002,-3.4475000000000002,1.00696875,0.34546875,0.28315625,1.2248125,0.9823437500000001,-0.17125,-0.2205,1.22334375,0.021377411180638156,0.02079462645279825,True
56915,120647,0,120648,4771.0,41205.0,39406.0,-0.003172,0.00042699999999999997,0.00061,0.43750000000000006,-1.3475000000000001,-3.6750000000000003,1.00203125,0.34550000000000003,0.27868750000000003,1.22396875,0.9783125,-0.1714375,-0.2275625,1.21475,0.021386295291705347,0.0208956224960724,True
56916,120648,0,120649,4770.0,41205.0,39405.0,-0.0040869999999999995,-0.000488,0.000732,0.36750000000000005,-1.155,-3.7100000000000004,1.00003125,0.3459375,0.2788125,1.21809375,0.9578125000000001,-0.17115625,-0.22818750000000002,1.1971875,0.021393008454032896,0.020926039143456355,True
56917,120649,0,120650,4771.0,41205.0,39407.0,-0.003294,-0.001586,0.001403,0.28,-1.2775,-3.7450000000000006,0.99940625,0.3466875,0.2824375,1.21896875,0.95940625,-0.1883125,-0.21759375,1.1919375,0.02211812006315033,0.02064743736152565,True
56918,120650,0,120651,4773.0,41207.0,39409.0,0.0023179999999999997,0.0008539999999999999,-0.0011589999999999999,0.31500000000000006,-1.9250000000000003,-3.7100000000000004,1.0035625,0.34525,0.28325,1.2195625,0.99446875,-0.17984375,-0.21559375,1.19328125,0.021716176309038392,0.020600104013555318,True
56919,120651,0,120652,4772.0,41206.0,39409.0,0.006039,0.001281,-0.001464,0.4025,-2.0825,-3.6925000000000003,1.00459375,0.34875,0.2815625,1.2265,0.99721875,-0.17840625000000002,-0.21965625,1.2263125,0.021802770809180198,0.02069470948829012,True
56920,120652,0,120653,4774.0,41205.0,39407.0,0.004941,0.00042699999999999997,-0.000732,0.4025,-2.0825,-3.6750000000000003,0.9998125,0.34853125,0.2789375,1.20775,0.9718125,-0.17200000000000001,-0.22796875,1.21459375,0.021534471702796622,0.020922358586086588,True
56921,120653,0,120654,4776.0,41206.0,39407.0,0.002623,0.00042699999999999997,-0.000549,0.35000000000000003,-1.61,-3.7800000000000002,1.00065625,0.34415625,0.27896875,1.21928125,0.95803125,-0.1760625,-0.22515625,1.2093125,0.021517927081798366,0.020809979295799173,True
56922,120654,0,120655,4775.0,41208.0,39409.0,-0.001769,-0.000366,-0.000305,0.24500000000000002,-1.0850000000000002,-3.7450000000000006,1.0000625,0.34171875,0.2789375,1.2175625,0.96140625,-0.17903125,-0.22684375,1.1929375,0.021537256584669828,0.020876894044441926,True
56923,120655,0,120656,4778.0,41209.0,39411.0,-0.006588,0.002745,0.001769,0.5075000000000001,-0.56,-3.6925000000000003,1.00275,0.34346875,0.2813125,1.2161875,0.9665312500000001,-0.18634375,-0.22115625,1.198125,0.021905439924130743,0.020745035654522067,True
56924,120656,0,120657,4777.0,41211.0,39413.0,-0.00671,0.002806,0.000732,0.525,-0.7000000000000001,-3.7625,1.00465625,0.34309375000000003,0.28500000000000003,1.21915625,0.96265625,-0.18271875,-0.2208125,1.20378125,0.021743316185240752,0.020883382834494094,True
56925,120657,0,120658,4780.0,41213.0,39412.0,-0.00366,0.000732,-0.0015249999999999999,0.42000000000000004,-1.33,-3.8325000000000005,1.00065625,0.34296875,0.283125,1.21628125,0.96740625,-0.17421875,-0.2251875,1.2056875,0.021394176388844003,0.020982809730574842,True
56926,120658,0,120659,4779.0,41214.0,39414.0,-0.000488,-0.001464,-0.0013419999999999999,0.31500000000000006,-2.0300000000000002,-3.6925000000000003,1.00715625,0.3460625,0.2813125,1.2190625,0.97175,-0.1775,-0.22246875,1.2031875,0.021654947782028745,0.02079809680836104,True
56927,120659,0,120660,4781.0,41213.0,39413.0,0.005673,-0.002257,-0.000549,0.2625,-2.555,-3.6225000000000005,1.0054375,0.34584375,0.2854375,1.22171875,0.970375,-0.1786875,-0.22062500000000002,1.20234375,0.021693950509100217,0.020893866281320162,True
56928,120660,0,120661,4780.0,41217.0,39415.0,0.006893,-0.0025009999999999998,-0.000244,0.10500000000000001,-2.6775,-3.8850000000000002,1.0030000000000001,0.34490625,0.28190625,1.223,0.976625,-0.17490625,-0.2205625,1.20275,0.0215021516370927,0.020745544204433735,True
56929,120661,0,120662,4779.0,41216.0,39412.0,0.004758,-0.0013419999999999999,-0.000366,0.1925,-2.1525000000000003,-4.0425,1.00021875,0.34550000000000003,0.2859375,1.22275,0.9704375000000001,-0.1746875,-0.22084375,1.2021875,0.021517858297030727,0.020923352432757423,True
56930,120662,0,120663,4780.0,41215.0,39410.0,-0.000183,-0.000366,-0.000488,0.28,-1.8375000000000001,-3.9725000000000006,1.00040625,0.34565625,0.28140625,1.223875,0.9786875,-0.17478125,-0.22040625,1.204,0.02152811620580848,0.020718583116251403,True
56931,120663,0,120664,4774.0,41216.0,39409.0,-0.003477,0.000976,0.00042699999999999997,0.3325,-1.4700000000000002,-3.99,0.9963125,0.34603125,0.27946875,1.22321875,0.9785312500000001,-0.174625,-0.22125,1.2096875,0.021537304094686065,0.020672704753057748,True
56932,120664,0,120665,4773.0,41216.0,39408.0,-0.004026,0.0013419999999999999,0.002379,0.385,-1.2775,-3.8675,0.9998750000000001,0.34575,0.27918750000000003,1.21171875,0.9783125,-0.17450000000000002,-0.22090625,1.2084062500000001,0.021520610560714803,0.020647193991760734,True
56933,120665,0,120666,4770.0,41212.0,39408.0,-0.000732,0.000732,6.1e-05,0.4025,-1.8200000000000003,-3.9725000000000006,1.00046875,0.3420625,0.282625,1.2193125,0.9755,-0.1748125,-0.2238125,1.2094375,0.021380724255875817,0.020906597588633086,True
56934,120666,0,120667,4766.0,41212.0,39405.0,0.0008539999999999999,0.00042699999999999997,-0.00061,0.29750000000000004,-1.8900000000000001,-4.0425,1.00234375,0.33959375,0.28196875,1.21684375,0.9703125,-0.1746875,-0.224375,1.207125,0.021273542832766713,0.020902242059908666,True
56935,120667,0,120668,4763.0,41209.0,39404.0,0.001586,-0.0006709999999999999,-0.000183,0.31500000000000006,-1.8025000000000002,-3.99,1.02,0.34709375000000003,0.28334375,1.2203125000000001,0.971375,-0.1759375,-0.22415625,1.20203125,0.02163437302069465,0.020950162092848952,True
56936,120668,0,120669,4760.0,41210.0,39402.0,0.0015249999999999999,-0.0006709999999999999,0.000244,0.31500000000000006,-1.8375000000000001,-3.9550000000000005,1.01175,0.3466875,0.27890625,1.21503125,0.97065625,-0.1780625,-0.22053125,1.20575,0.021703558752898422,0.020620418885320693,True
56937,120669,0,120670,4759.0,41209.0,39403.0,-0.000793,-0.00061,0.00042699999999999997,0.35000000000000003,-1.7850000000000001,-3.99,0.9931562500000001,0.33809375,0.27928125,1.21296875,0.9775,-0.1749375,-0.22215625,1.20984375,0.021221616395078583,0.02070160454852156,True
56938,120670,0,120671,4755.0,41206.0,39402.0,0.001769,0.000366,-0.0011589999999999999,0.2625,-1.9075000000000002,-4.025,0.9960625000000001,0.3395,0.2795,1.21034375,0.9733437500000001,-0.17471875,-0.2219375,1.20978125,0.021270929987551562,0.020701791506150157,True
56939,120671,0,120672,4753.0,41205.0,39400.0,0.000488,0.000793,-0.000915,0.45500000000000007,-1.9600000000000002,-4.095000000000001,1.00140625,0.33968750000000003,0.28534375,1.21353125,0.9712500000000001,-0.17478125,-0.2221875,1.20546875,0.021281216350199656,0.020953155036059396,True
56940,120672,0,120673,4751.0,41204.0,39401.0,0.000366,-6.1e-05,0.000305,0.47250000000000003,-2.0125,-3.99,1.0118125,0.34171875,0.28453125,1.213875,0.9704375000000001,-0.17434375,-0.22337500000000002,1.2084375,0.021347528823817605,0.020967608766325915,True
56941,120673,0,120674,4751.0,41204.0,39400.0,-0.000915,-0.00061,0.000549,0.42000000000000004,-1.9075000000000002,-4.077500000000001,0.99721875,0.33603125,0.27478125000000003,1.2240625,0.971,-0.17565625,-0.22187500000000002,1.20828125,0.021165402697186354,0.020504451038575667,True
56942,120674,0,120675,4750.0,41203.0,39398.0,-0.000549,-0.000793,0.000488,0.35000000000000003,-1.8025000000000002,-4.1825,0.99653125,0.34709375000000003,0.2865625,1.21915625,0.9784375000000001,-0.1785625,-0.22253125,1.195625,0.021740591484708822,0.021017363740628882,True
56943,120675,0,120676,4749.0,41204.0,39397.0,0.001281,0.000305,-0.000915,0.28,-1.715,-4.077500000000001,0.99884375,0.34715625,0.2836875,1.23215625,0.97209375,-0.173625,-0.22353125000000001,1.191125,0.021543365961869596,0.020939092024413245,True
56944,120676,0,120677,4748.0,41204.0,39399.0,0.001037,-0.00122,0.0,0.28,-1.6450000000000002,-4.0600000000000005,1.0073750000000001,0.3468125,0.28015625,1.2305,0.9745625,-0.177625,-0.22053125,1.2030625,0.02169102631048335,0.020672027992779885,True
56945,120677,0,120678,4747.0,41201.0,39396.0,0.000305,-0.000366,0.001037,0.3325,-1.54,-4.0425,0.9930625000000001,0.34500000000000003,0.28165625,1.2179375000000001,0.9784375000000001,-0.1749375,-0.22140625,1.209375,0.021507294486283576,0.020769334976163904,True
56946,120678,0,120679,4747.0,41202.0,39397.0,-0.000366,-6.1e-05,0.000488,0.22750000000000004,-1.4000000000000001,-4.0425,0.995375,0.3404375,0.27990625,1.218,0.9729375,-0.174875,-0.2248125,1.209375,0.021316035760267634,0.02083478458295601,True
56947,120679,0,120680,4747.0,41203.0,39398.0,-0.000793,0.000305,-0.0013419999999999999,0.24500000000000002,-1.4525000000000001,-3.9025000000000003,0.9999375,0.341875,0.2816875,1.21953125,0.97078125,-0.1778125,-0.2230625,1.2031875,0.02149439698070286,0.02083757988900041,True
56948,120680,0,120681,4747.0,41206.0,39396.0,-0.000549,0.00244,0.000732,0.47250000000000003,-1.5575,-3.6925000000000003,1.0086875,0.3425,0.28190625,1.21875,0.9712500000000001,-0.17725,-0.22353125000000001,1.20340625,0.02149748213713305,0.020865558154325663,True
56949,120681,0,120682,4748.0,41204.0,39398.0,-0.000305,0.0008539999999999999,0.0,0.43750000000000006,-1.6275000000000002,-3.6400000000000006,1.0070937500000001,0.35053125,0.2821875,1.21965625,0.9716875,-0.177375,-0.2235,1.197875,0.021834721511330323,0.020875905628831504,True
56950,120682,0,120683,4749.0,41205.0,39397.0,0.000305,-0.000305,-0.000244,0.49000000000000005,-1.6800000000000002,-3.5875000000000004,1.00634375,0.34303125,0.2820625,1.22096875,0.9705,-0.1751875,-0.22387500000000002,1.200375,0.021435976453129887,0.020885902854105715,True
56951,120683,0,120684,4749.0,41205.0,39399.0,0.000915,-0.000488,-0.000549,0.35000000000000003,-1.6975000000000002,-3.5525,1.00715625,0.34603125,0.2814375,1.2198125,0.9719375,-0.17778125,-0.22237500000000002,1.20365625,0.02166503595113799,0.020799467434551733,True
56952,120684,0,120685,4749.0,41207.0,39401.0,0.000549,-0.0018909999999999999,-0.000122,0.2625,-1.9600000000000002,-3.5525,1.006375,0.3455625,0.28171875,1.22690625,0.9716875,-0.1755625,-0.221,1.2054375,0.021555858317670998,0.020755491102762067,True
56953,120685,0,120686,4750.0,41207.0,39402.0,0.000976,-0.000488,-0.000793,0.35000000000000003,-1.6800000000000002,-3.5175000000000005,0.9945625,0.3414375,0.28071875,1.2194375,0.97596875,-0.17484375,-0.22259375,1.20359375,0.021356135962616096,0.02077863771298233,True
56954,120686,0,120687,4750.0,41206.0,39403.0,0.000793,-0.000732,0.00061,0.31500000000000006,-1.4175000000000002,-3.5175000000000005,1.00721875,0.34584375,0.2819375,1.224375,0.9711875,-0.1763125,-0.22028125,1.20275,0.02159784499807404,0.020735463177166867,True
56955,120687,0,120688,4752.0,41207.0,39404.0,-0.0008539999999999999,0.000183,6.1e-05,0.42000000000000004,-1.2425000000000002,-3.4475000000000002,1.004375,0.345625,0.2799375,1.2189375,0.9706250000000001,-0.17009375000000002,-0.22165625,1.20903125,0.021337060391004897,0.020708482724008607,True
56956,120688,0,120689,4751.0,41206.0,39403.0,-0.000915,0.00042699999999999997,6.1e-05,0.29750000000000004,-1.225,-3.325,0.999625,0.34765625,0.28025,1.22196875,0.97065625,-0.175375,-0.22262500000000002,1.2100312500000001,0.021634876397987626,0.020760549279857154,True
56957,120689,0,120690,4752.0,41207.0,39406.0,-0.0017079999999999999,0.000488,0.000976,0.29750000000000004,-1.1025,-3.3775000000000004,1.00078125,0.34478125,0.2780625,1.22471875,0.97478125,-0.171875,-0.2215,1.20353125,0.021374272786037495,0.02062475486654419,True
56958,120690,0,120691,4753.0,41209.0,39406.0,-0.000244,0.001647,0.0035989999999999998,0.49000000000000005,-1.0850000000000002,-3.3600000000000003,0.9995,0.34503125,0.2803125,1.21878125,0.9732500000000001,-0.1700625,-0.22128125,1.20878125,0.021311229542745287,0.02070880333797371,True
56959,120691,0,120692,4752.0,41208.0,39406.0,-0.000183,-0.000366,0.000305,0.385,-1.1725,-3.3950000000000005,0.9993125,0.345125,0.2808125,1.22609375,0.97321875,-0.17509375,-0.22112500000000002,1.2095625,0.021518789353195372,0.020723129086696015,True
56960,120692,0,120693,4750.0,41206.0,39406.0,0.0006709999999999999,-0.001098,-0.004758,0.22750000000000004,-1.1900000000000002,-3.3425000000000002,1.004875,0.34546875,0.28925,1.216625,0.9781562500000001,-0.17565625,-0.21428125,1.20253125,0.02155577472690116,0.02079480471880618,True
56961,120693,0,120694,4750.0,41205.0,39407.0,-0.00061,0.0,-0.0018909999999999999,0.31500000000000006,-1.2950000000000002,-3.3600000000000003,1.00034375,0.34540625,0.27865625,1.2245,0.97140625,-0.175125,-0.22112500000000002,1.2078125,0.02153168804711454,0.020634105558680695,True
56962,120694,0,120695,4750.0,41206.0,39405.0,0.001647,-0.001037,0.003294,0.35000000000000003,-1.4875,-3.3600000000000003,1.004625,0.34778125,0.2815625,1.22371875,0.97784375,-0.17790625000000002,-0.216375,1.2026875000000001,0.021742474082097164,0.020562016404189316,True
56963,120695,0,120696,4750.0,41205.0,39405.0,0.003294,-0.00122,-0.001586,0.28,-1.4875,-3.3075,1.0015,0.346375,0.280875,1.2240625,0.97671875,-0.1743125,-0.2209375,1.20675,0.021538875200690814,0.020718128685151018,True
56964,120696,0,120697,4751.0,41206.0,39406.0,0.001769,0.000793,-0.0057339999999999995,0.3325,-1.1025,-3.3425000000000002,1.000125,0.34546875,0.279875,1.2221250000000001,0.97565625,-0.17446875,-0.2209375,1.20678125,0.021507711518996667,0.02067684209168204,True
56965,120697,0,120698,4750.0,41206.0,39408.0,-0.001769,0.001098,-0.001281,0.5775,-0.8575,-3.1850000000000005,1.00015625,0.34421875,0.28109375000000003,1.2197500000000001,0.9707187500000001,-0.17175,-0.2231875,1.2086875,0.021345941026197943,0.020818121066849687,True
56966,120698,0,120699,4751.0,41206.0,39408.0,-0.0048189999999999995,0.001647,0.0032329999999999998,0.525,-0.6825000000000001,-3.0275000000000003,1.00415625,0.3454375,0.28175,1.2219375000000001,0.9716250000000001,-0.17725,-0.2206875,1.20253125,0.021618980653300104,0.020744146919859312,True
56967,120699,0,120700,4749.0,41205.0,39408.0,-0.000793,-0.00042699999999999997,0.000549,0.31500000000000006,-0.9100000000000001,-3.2725000000000004,1.00034375,0.3444375,0.2813125,1.21928125,0.97790625,-0.174875,-0.22484375,1.203375,0.021481496801948306,0.0208940976141487,True
56968,120700,0,120701,4750.0,41208.0,39409.0,0.000488,0.000976,0.000244,0.47250000000000003,-0.9625000000000001,-3.2725000000000004,1.0035625,0.345875,0.28196875,1.22465625,0.9716250000000001,-0.1788125,-0.22037500000000002,1.2089375,0.021700300624772205,0.02074054386028292,True
56969,120701,0,120702,4750.0,41206.0,39407.0,0.000122,0.002745,0.00042699999999999997,0.5425000000000001,-1.33,-3.2725000000000004,1.0010625,0.34521875,0.27984375,1.219375,0.973375,-0.16753125,-0.22212500000000002,1.19971875,0.021216482341364515,0.020723563684028553,True
56970,120702,0,120703,4751.0,41208.0,39411.0,-0.000183,0.0011589999999999999,0.000183,0.4025,-1.54,-3.3775000000000004,1.0023125,0.3461875,0.27940625,1.20828125,0.9733125,-0.17721875,-0.21934375,1.21471875,0.02164873699544121,0.02059304352538454,True
56971,120703,0,120704,4751.0,41208.0,39412.0,-0.001647,-0.0017079999999999999,-0.000366,0.2625,-1.4875,-3.4475000000000002,1.00134375,0.34115625,0.28175,1.23834375,0.968125,-0.1768125,-0.22175,1.19934375,0.02142419518702062,0.02078710250085151,True
56972,120704,0,120705,4751.0,41210.0,39413.0,0.000305,-0.0021349999999999997,-0.000976,0.29750000000000004,-1.61,-3.3775000000000004,1.0015,0.34459375000000003,0.27418750000000003,1.21103125,0.9851562500000001,-0.17350000000000002,-0.21984375,1.21034375,0.021432301900841833,0.020397788486971557,True
56973,120705,0,120706,4751.0,41210.0,39412.0,0.001586,0.000122,-0.00244,0.36750000000000005,-1.8200000000000003,-3.325,1.0278125,0.34821875,0.28453125,1.24284375,0.966375,-0.18046875,-0.21965625,1.198625,0.0218642370198055,0.02081728554673438,True
56974,120706,0,120707,4752.0,41215.0,39411.0,0.0035989999999999998,0.0,0.00042699999999999997,0.43750000000000006,-1.8725000000000003,-3.2900000000000005,1.0070937500000001,0.34900000000000003,0.274875,1.2223125000000001,0.9819687500000001,-0.1766875,-0.2195,1.20746875,0.02174357012307828,0.02041227110386259,True
56975,120707,0,120708,4753.0,41214.0,39413.0,0.002806,0.000915,0.000732,0.4025,-1.8375000000000001,-3.4125000000000005,0.978625,0.3323125,0.28871875,1.21490625,0.97390625,-0.1741875,-0.2268125,1.2081875,0.020952100251559642,0.021279367642771826,True
56976,120708,0,120709,4753.0,41217.0,39415.0,0.00122,-0.000732,-0.00061,0.29750000000000004,-1.5575,-3.4825000000000004,1.0168125000000001,0.34853125,0.28300000000000003,1.2375625000000001,0.96684375,-0.17940625000000002,-0.218,1.1987812500000001,0.02183417965443217,0.02068709224543728,True
56977,120709,0,120710,4755.0,41216.0,39416.0,-0.001464,0.00042699999999999997,0.000793,0.28,-1.2950000000000002,-3.5000000000000004,0.9957812500000001,0.348375,0.276125,1.23140625,0.9819687500000001,-0.177625,-0.21959375,1.19953125,0.021755652178408757,0.02046767402942091,True
56978,120710,0,120711,4756.0,41216.0,39415.0,-0.003721,0.001647,0.0025009999999999998,0.42000000000000004,-1.3650000000000002,-3.3950000000000005,0.987625,0.34425,0.276,1.22609375,0.97928125,-0.173125,-0.21971875000000002,1.21340625,0.021402900948884352,0.020467568394038436,True
56979,120711,0,120712,4755.0,41216.0,39418.0,-0.001037,0.000366,0.001037,0.45500000000000007,-1.715,-3.4125000000000005,0.9891875,0.33865625,0.28240625,1.20834375,0.977625,-0.17384375,-0.22112500000000002,1.2084375,0.02120060033895106,0.020788929085663856,True
56980,120712,0,120713,4757.0,41214.0,39420.0,0.0023179999999999997,-0.000732,0.00042699999999999997,0.31500000000000006,-1.8725000000000003,-3.5700000000000003,0.99771875,0.333125,0.2821875,1.20753125,0.96209375,-0.17421875,-0.22284375,1.20909375,0.020986976052742138,0.020849379008193458,True
56981,120713,0,120714,4758.0,41215.0,39419.0,0.002745,-0.0013419999999999999,-0.003111,0.1925,-2.0650000000000004,-3.6225000000000005,0.99275,0.33615625,0.27784375,1.2096875,0.97303125,-0.17546875,-0.2208125,1.2100312500000001,0.02116298158644804,0.020587924125171277,True
56982,120714,0,120715,4758.0,41218.0,39424.0,-0.0021349999999999997,-0.001098,-0.000305,0.36750000000000005,-1.7675,-3.4650000000000003,0.9887812500000001,0.33653125,0.281875,1.20903125,0.9718125,-0.174625,-0.22209375,1.21159375,0.021144330056826113,0.02080615966569777,True
56983,120715,0,120716,4761.0,41217.0,39424.0,-0.0023179999999999997,0.001464,-0.000305,0.4025,-1.5750000000000002,-3.535,0.99640625,0.34459375000000003,0.2861875,1.2126875,0.97109375,-0.17484375,-0.2229375,1.2101875,0.021486695234586572,0.021018301351766275,True
56984,120716,0,120717,4762.0,41216.0,39423.0,-0.0011589999999999999,0.002013,0.000122,0.5075000000000001,-1.4875,-3.5000000000000004,0.99675,0.34490625,0.28246875,1.21946875,0.9711875,-0.17521875,-0.2215625,1.2035,0.021514800150464,0.02080919635139145,True
56985,120717,0,120718,4761.0,41217.0,39425.0,-0.000366,0.003294,0.00183,0.385,-1.6275000000000002,-3.6925000000000003,1.00653125,0.34284375,0.28209375000000003,1.21996875,0.971375,-0.17696875,-0.21625,1.19465625,0.02150031732162453,0.020578898466938524,True
56986,120718,0,120719,4762.0,41217.0,39426.0,-0.0021349999999999997,0.00183,0.0015249999999999999,0.28,-1.7850000000000001,-3.7975000000000003,1.00384375,0.34396875,0.28715625,1.2118125,0.9799375,-0.17821875,-0.22,1.2030625,0.02159743467454566,0.02093956440957886,True
56987,120719,0,120720,4764.0,41221.0,39426.0,-0.000732,-0.002074,-0.000183,0.24500000000000002,-2.0475000000000003,-3.8150000000000004,1.0048125,0.34325,0.28234375,1.22028125,0.9711875,-0.17546875,-0.22121875,1.20371875,0.021456409195788603,0.02079013881165662,True
56988,120720,0,120721,4765.0,41220.0,39428.0,0.0017079999999999999,-0.001586,-0.001769,0.14,-2.3975000000000004,-3.8675,1.00221875,0.34209375000000003,0.28315625,1.21959375,0.97109375,-0.178875,-0.2239375,1.2020625,0.02154644291762954,0.02093358067820312,True
56989,120721,0,120722,4765.0,41222.0,39429.0,0.0051849999999999995,-0.0008539999999999999,-0.00042699999999999997,0.24500000000000002,-2.8350000000000004,-3.7975000000000003,1.00515625,0.3428125,0.282375,1.2200312500000001,0.9714375000000001,-0.17728125,-0.22034375,1.20309375,0.021511672243958366,0.020756053472610187,True
56990,120722,0,120723,4767.0,41224.0,39430.0,0.006954,-0.0011589999999999999,-0.001281,0.28,-2.8175000000000003,-3.7100000000000004,0.99359375,0.34334375,0.28259375000000003,1.219875,0.973375,-0.1783125,-0.22003125,1.2039375,0.021575378761441687,0.020752450515521118,True
56991,120723,0,120724,4768.0,41224.0,39432.0,0.006039,-0.000488,-0.0025009999999999998,0.1925,-2.5025000000000004,-3.6575,1.00046875,0.34725,0.28028125,1.2200312500000001,0.9712500000000001,-0.1761875,-0.22287500000000002,1.20965625,0.02165095302971157,0.0207719459395303,True
56992,120724,0,120725,4769.0,41225.0,39433.0,-0.00244,0.000976,0.0013419999999999999,0.45500000000000007,-1.5575,-3.7975000000000003,0.9988125,0.34428125,0.27959375000000003,1.22746875,0.9713437500000001,-0.17515625,-0.22175,1.20875,0.0214864174869604,0.020698081269933014,True
56993,120725,0,120726,4769.0,41227.0,39433.0,-0.0064659999999999995,0.001952,0.002257,0.43750000000000006,-1.1025,-3.6750000000000003,0.99703125,0.3445625,0.28159375000000003,1.22509375,0.9782500000000001,-0.17490625,-0.2206875,1.20796875,0.021487932347204038,0.020737695823043835,True
56994,120726,0,120727,4771.0,41225.0,39432.0,-0.0077469999999999995,0.002623,0.000915,0.5775,-1.0850000000000002,-3.6050000000000004,1.00784375,0.34546875,0.2821875,1.2241875,0.97890625,-0.17415625,-0.22034375,1.20978125,0.02149506252157198,0.020748312046562096,True
56995,120727,0,120728,4772.0,41228.0,39436.0,-0.006771,0.001403,-0.0006709999999999999,0.56,-1.3825,-3.6400000000000006,0.9999375,0.34378125,0.2798125,1.2264375,0.97140625,-0.17500000000000002,-0.21846875000000002,1.20921875,0.021459410548086866,0.020574432477280382,True
56996,120728,0,120729,4772.0,41229.0,39437.0,-0.001586,-0.00061,-0.003294,0.43750000000000006,-1.7675,-3.5875000000000004,1.005625,0.345875,0.28428125,1.21990625,0.978375,-0.1779375,-0.22037500000000002,1.20296875,0.021664895940772453,0.020836021325020774,True
56997,120729,0,120730,4775.0,41230.0,39435.0,0.005612,-0.001769,0.0017079999999999999,0.29750000000000004,-2.8000000000000003,-3.7100000000000004,1.00203125,0.34978125,0.28290625,1.2198125,0.97078125,-0.1766875,-0.22278125000000001,1.20275,0.02177588431004041,0.020876525068730497,True
56998,120730,0,120731,4773.0,41230.0,39434.0,0.00732,-0.0017079999999999999,0.001037,0.15750000000000003,-2.66,-3.8675,1.008125,0.34503125,0.28290625,1.21965625,0.96278125,-0.1759375,-0.22253125,1.20315625,0.021549060920595116,0.020866419565461394,True
56999,120731,0,120732,4772.0,41232.0,39433.0,0.004331,-0.0013419999999999999,-0.0006709999999999999,0.17500000000000002,-2.2225,-3.9200000000000004,0.9997812500000001,0.34259375000000003,0.2810625,1.21959375,0.97090625,-0.1753125,-0.22275,1.1985937500000001,0.021422939207094014,0.02079914543146422,True
57000,120732,0,120733,4767.0,41231.0,39432.0,-0.00061,-0.000488,-0.000488,0.24500000000000002,-1.6800000000000002,-3.8325000000000005,1.00096875,0.34178125,0.2801875,1.2195625,0.9713437500000001,-0.17571875,-0.2216875,1.20325,0.02140577516438885,0.02072006750149014,True
57001,120733,0,120734,4766.0,41228.0,39427.0,-0.0032329999999999998,0.0006709999999999999,0.0011589999999999999,0.42000000000000004,-1.33,-3.7800000000000002,1.0070625,0.34546875,0.28234375,1.22053125,0.9706250000000001,-0.1764375,-0.2205625,1.2013125,0.02158739268347539,0.020763607368738855,True
57002,120734,0,120735,4760.0,41229.0,39428.0,-0.00244,0.001281,0.002623,0.35000000000000003,-1.4525000000000001,-3.7275000000000005,0.99621875,0.34465625,0.28153125,1.21921875,0.97528125,-0.17359375,-0.22103125,1.209,0.021438682446626292,0.02074901331874546,True
57003,120735,0,120736,4757.0,41228.0,39426.0,0.000549,0.000976,0.000183,0.28,-1.6975000000000002,-3.7800000000000002,1.00075,0.34275,0.2824375,1.22034375,0.97115625,-0.17496875,-0.2215,1.2044375,0.021415487869038092,0.020805379518196648,True
57004,120736,0,120737,4754.0,41223.0,39425.0,0.002379,0.000549,0.000366,0.2625,-1.9250000000000003,-3.9025000000000003,1.0031875000000001,0.342625,0.28284375,1.219125,0.97159375,-0.1766875,-0.22087500000000002,1.1986875000000001,0.021479886357467295,0.02079688491848457,True
57005,120737,0,120738,4751.0,41226.0,39423.0,0.00183,-0.000488,-0.000305,0.4025,-2.0475000000000003,-3.8500000000000005,1.00259375,0.34550000000000003,0.2816875,1.220375,0.98478125,-0.17475000000000002,-0.21415625,1.20940625,0.021520388008149004,0.020477432493647182,True
57006,120738,0,120739,4746.0,41224.0,39420.0,0.000183,-0.0011589999999999999,-0.000488,0.36750000000000005,-2.0650000000000004,-3.8500000000000005,0.99865625,0.34434375,0.2829375,1.219125,0.96846875,-0.18240625,-0.21684375,1.19875,0.0217823650200236,0.020637753423172665,True
57007,120739,0,120740,4744.0,41224.0,39420.0,0.000122,-0.0008539999999999999,-0.0008539999999999999,0.35000000000000003,-1.7850000000000001,-3.7625,1.0080625,0.34525,0.27959375000000003,1.22078125,0.9875625,-0.17228125,-0.21646875000000002,1.2090625,0.021410112047244197,0.020484510153859655,True
57008,120740,0,120741,4740.0,41221.0,39418.0,0.0006709999999999999,-0.00122,-0.000305,0.3325,-1.715,-3.7800000000000002,0.9997812500000001,0.34396875,0.28565625,1.2195,0.96490625,-0.1834375,-0.2201875,1.18525,0.02180857249925698,0.02088521197451506,True
57009,120741,0,120742,4737.0,41222.0,39419.0,0.00061,-6.1e-05,-0.000122,0.35000000000000003,-1.7850000000000001,-3.8850000000000002,1.008125,0.34534375,0.2805,1.22303125,0.98609375,-0.17815625000000002,-0.2201875,1.21290625,0.021651775039711725,0.020672321384795227,True
57010,120742,0,120743,4736.0,41222.0,39418.0,-0.00042699999999999997,-0.000366,-0.000549,0.24500000000000002,-1.6975000000000002,-3.8500000000000005,1.00125,0.34365625,0.28303125,1.211125,0.9639062500000001,-0.18465625,-0.22137500000000002,1.18940625,0.021844945594378665,0.02082483963028524,True
57011,120743,0,120744,4735.0,41221.0,39417.0,-0.0008539999999999999,0.001037,0.000305,0.3325,-1.4700000000000002,-3.8325000000000005,1.0065,0.345125,0.281875,1.21971875,0.9813125,-0.1799375,-0.21775,1.19796875,0.021714799717741203,0.020630529260563017,True
57012,120744,0,120745,4733.0,41222.0,39416.0,-0.001098,0.000732,0.000976,0.31500000000000006,-1.61,-3.99,1.00859375,0.34321875,0.28250000000000003,1.21978125,0.98840625,-0.178125,-0.21778125,1.19584375,0.02156262117099651,0.02065760049756829,True
57013,120745,0,120746,4733.0,41222.0,39415.0,-0.0006709999999999999,-0.001037,-0.00122,0.22750000000000004,-1.6275000000000002,-3.9725000000000006,1.00703125,0.34318750000000003,0.28234375,1.2191875,0.98846875,-0.17765625000000002,-0.2170625,1.199125,0.021542358970382005,0.02062208205474962,True
57014,120746,0,120747,4733.0,41223.0,39414.0,0.000915,-0.000549,-0.001037,0.28,-1.8025000000000002,-3.9550000000000005,1.0079375,0.3435,0.2825625,1.21996875,0.9887812500000001,-0.17828125,-0.21678125,1.19696875,0.0215805765763437,0.020619740701502184,True
57015,120747,0,120748,4730.0,41223.0,39414.0,0.002074,-0.000122,-0.001769,0.385,-1.9600000000000002,-3.9550000000000005,1.00034375,0.342375,0.28565625,1.22121875,0.97240625,-0.1804375,-0.22590625,1.20846875,0.02162130027630807,0.021116341106950334,True
57016,120748,0,120749,4731.0,41222.0,39411.0,0.001952,-0.000915,-0.000122,0.28,-1.8025000000000002,-3.8675,1.00071875,0.3453125,0.2799375,1.22609375,0.96375,-0.1733125,-0.2210625,1.2080625,0.021454444855251012,0.02068447657901052,True
57017,120749,0,120750,4731.0,41223.0,39412.0,0.000732,0.0008539999999999999,0.000244,0.4025,-1.3825,-3.7275000000000005,1.00053125,0.345375,0.28175,1.225875,0.9733125,-0.1739375,-0.21815625,1.204875,0.0214823298852328,0.02064179637952414,True
57018,120750,0,120751,4730.0,41226.0,39413.0,-0.002074,0.0025009999999999998,0.0011589999999999999,0.47250000000000003,-1.2600000000000002,-3.7100000000000004,1.00584375,0.345375,0.2821875,1.22703125,0.97928125,-0.17434375,-0.21990625,1.20953125,0.02149877388088353,0.020730623183151255,True
57019,120751,0,120752,4731.0,41224.0,39411.0,-0.003904,0.002074,0.001281,0.45500000000000007,-1.2075,-3.6400000000000006,1.00096875,0.34571875,0.28034375,1.221375,0.9785625,-0.174625,-0.2208125,1.21071875,0.02152437731712488,0.02069114114152859,True
57020,120752,0,120753,4732.0,41224.0,39410.0,-0.003477,0.001464,-0.000244,0.35000000000000003,-1.1900000000000002,-3.6050000000000004,1.00025,0.34584375,0.27921875,1.22525,0.9765,-0.17475000000000002,-0.21440625,1.21,0.021534607389941982,0.02038559173838921,True
57021,120753,0,120754,4733.0,41224.0,39412.0,-0.004026,-0.000366,0.000793,0.42000000000000004,-1.4525000000000001,-3.7100000000000004,1.00090625,0.3454375,0.28034375,1.2223125000000001,0.972375,-0.17440625,-0.2186875,1.20846875,0.02150388905622036,0.020605214465069587,True
57022,120754,0,120755,4734.0,41224.0,39411.0,0.0018909999999999999,-0.001098,-0.000976,0.3325,-1.9425000000000001,-3.8500000000000005,0.99725,0.3463125,0.28221875,1.219875,0.97865625,-0.17415625,-0.21990625,1.2034375,0.021529965497761688,0.020731913444132347,True
57023,120755,0,120756,4734.0,41225.0,39410.0,0.003843,-0.002013,-0.0023179999999999997,0.35000000000000003,-1.9600000000000002,-3.8675,0.9983125,0.3455625,0.28165625,1.219625,0.9781562500000001,-0.1765,-0.21987500000000001,1.202,0.02159379976423386,0.02070742520347442,True
57024,120756,0,120757,4734.0,41227.0,39412.0,0.002928,-0.001403,-0.00122,0.24500000000000002,-1.995,-3.8850000000000002,0.9975625,0.3448125,0.28275,1.21503125,0.96459375,-0.1770625,-0.22221875,1.2035,0.021585542081466683,0.020847336704033357,True
57025,120757,0,120758,4736.0,41227.0,39411.0,0.0018909999999999999,-0.0008539999999999999,0.000915,0.22750000000000004,-1.7850000000000001,-3.9200000000000004,0.9996875000000001,0.34246875,0.27953125,1.22884375,0.9716250000000001,-0.1745625,-0.2238125,1.21175,0.0213874087690315,0.020778882349753985,True
57026,120758,0,120759,4735.0,41227.0,39413.0,0.000305,-0.000305,0.000122,0.31500000000000006,-1.61,-3.8500000000000005,0.9967812500000001,0.34409375000000003,0.28196875,1.22596875,0.979375,-0.17534375,-0.22109375,1.20253125,0.02148625084183136,0.020769602941650804,True
57027,120759,0,120760,4736.0,41227.0,39412.0,0.000915,0.001098,0.000305,0.2625,-1.1025,-3.9025000000000003,1.01346875,0.34575,0.2873125,1.21725,0.9735312500000001,-0.1780625,-0.21937500000000001,1.1945000000000001,0.02166478393378295,0.020920750432246914,True
57028,120760,0,120761,4736.0,41226.0,39412.0,-0.001037,0.001098,-6.1e-05,0.24500000000000002,-1.0850000000000002,-3.7275000000000005,1.0055625,0.339125,0.279,1.2166875,0.96875,-0.17584375,-0.2234375,1.2122187500000001,0.021300962867118134,0.02074179191124299,True
57029,120761,0,120762,4736.0,41227.0,39412.0,-0.000366,0.0015249999999999999,0.00061,0.28,-0.8925000000000001,-3.7275000000000005,0.9964375,0.346875,0.28150000000000003,1.2290625,0.97478125,-0.17396875,-0.22028125,1.20359375,0.02154564504432066,0.020717399803109226,True
57030,120762,0,120763,4734.0,41227.0,39410.0,-0.0013419999999999999,0.001037,0.0018909999999999999,0.35000000000000003,-0.9625000000000001,-3.7450000000000006,1.0151875000000001,0.34584375,0.28425,1.21671875,0.97440625,-0.17815625000000002,-0.22084375,1.20384375,0.021672454863054334,0.020853681036607157,True
57031,120763,0,120764,4734.0,41229.0,39411.0,-0.001464,-0.000366,0.000915,0.3325,-1.1375000000000002,-3.6400000000000006,0.99609375,0.34028125,0.27903125,1.22240625,0.97096875,-0.17471875,-0.2209375,1.210625,0.02130324680612882,0.020642006528442593,True
57032,120764,0,120765,4735.0,41225.0,39409.0,-0.0026839999999999998,-0.000244,0.000244,0.31500000000000006,-1.12,-3.5525,0.9988125,0.3469375,0.28400000000000003,1.2100312500000001,0.97684375,-0.17803125,-0.21912500000000001,1.2045625,0.02171263427414091,0.02077387188843528,True
57033,120765,0,120766,4735.0,41227.0,39410.0,-0.001647,-0.001586,-0.0006709999999999999,0.31500000000000006,-1.2425000000000002,-3.6225000000000005,0.9975,0.34290625,0.2775,1.22753125,0.9716250000000001,-0.17496875,-0.2199375,1.20915625,0.021421951165914124,0.02053834779714027,True
57034,120766,0,120767,4732.0,41227.0,39410.0,0.000244,-0.000732,-0.001281,0.2625,-1.4175000000000002,-3.6925000000000003,0.995625,0.3508125,0.28090625,1.22515625,0.9742500000000001,-0.17403125,-0.22062500000000002,1.200125,0.02171105615659366,0.020706783990916834,True
57035,120767,0,120768,4731.0,41228.0,39410.0,0.001281,-0.000244,-0.000305,0.22750000000000004,-1.715,-3.6925000000000003,1.01525,0.3403125,0.2760625,1.2228125,0.97115625,-0.174625,-0.22178125,1.2086875,0.021300744065316426,0.02055355652260298,True
57036,120768,0,120769,4733.0,41227.0,39410.0,0.001464,0.0008539999999999999,0.001098,0.42000000000000004,-1.54,-3.7100000000000004,1.00353125,0.346625,0.283625,1.21628125,0.9765,-0.1755625,-0.21965625,1.20403125,0.021599807657009015,0.020779867592051394,True
57037,120769,0,120770,4733.0,41227.0,39411.0,0.001098,0.0013419999999999999,0.000366,0.45500000000000007,-1.4000000000000001,-3.6750000000000003,1.00209375,0.34275,0.28240625,1.22178125,0.97246875,-0.17475000000000002,-0.22040625,1.19653125,0.02140663295380511,0.020759870615299856,True
57038,120770,0,120771,4733.0,41227.0,39410.0,-0.000549,0.000976,0.0008539999999999999,0.36750000000000005,-1.3825,-3.5700000000000003,0.99715625,0.34400000000000003,0.2794375,1.224625,0.9710625,-0.1750625,-0.2205,1.2075625,0.021470988958146437,0.020641089160009084,True
57039,120771,0,120772,4732.0,41226.0,39409.0,-0.001098,-0.000122,-6.1e-05,0.42000000000000004,-1.2775,-3.6575,1.00028125,0.34584375,0.28153125,1.227625,0.9761875,-0.17450000000000002,-0.22071875,1.20615625,0.021524488614035452,0.020736378849203225,True
57040,120772,0,120773,4732.0,41226.0,39412.0,-0.001281,0.000488,-0.000915,0.31500000000000006,-1.3825,-3.6925000000000003,1.007875,0.351625,0.2834375,1.2079375,0.97821875,-0.17734375,-0.21915625,1.200625,0.02187869583481436,0.020751909967961824,True
57041,120773,0,120774,4733.0,41229.0,39411.0,0.000122,-0.001037,-6.1e-05,0.3325,-1.6275000000000002,-3.5875000000000004,1.00103125,0.34465625,0.28250000000000003,1.22578125,0.97146875,-0.17453125,-0.225,1.226625,0.021476631527240057,0.020949432404540766,True
57042,120774,0,120775,4732.0,41227.0,39414.0,-0.00061,-0.0008539999999999999,-0.000183,0.3325,-1.715,-3.6575,1.0013750000000001,0.3451875,0.2826875,1.22128125,0.9756875,-0.16940625,-0.21971875000000002,1.20759375,0.021291120877245377,0.020743686381576993,True
57043,120775,0,120776,4733.0,41229.0,39414.0,0.0006709999999999999,-0.001464,-0.000183,0.3325,-1.7325000000000002,-3.7450000000000006,1.00734375,0.34421875,0.28253125,1.2235,0.99521875,-0.170375,-0.21528125,1.207375,0.02129026752791382,0.020557783114742885,True
57044,120776,0,120777,4733.0,41229.0,39416.0,0.001037,0.000488,0.0008539999999999999,0.35000000000000003,-1.7675,-3.7975000000000003,1.0073750000000001,0.345375,0.28259375000000003,1.2197500000000001,0.9921562500000001,-0.17021875,-0.21531250000000002,1.2073125,0.021331778389469477,0.020561628102053198,True
57045,120777,0,120778,4736.0,41228.0,39415.0,0.002196,0.000122,0.0006709999999999999,0.36750000000000005,-1.6450000000000002,-3.8150000000000004,1.004875,0.34540625,0.2816875,1.2269375,0.99365625,-0.17071875,-0.2235625,1.21578125,0.021353316189656135,0.020857790838981673,True
57046,120778,0,120779,4736.0,41226.0,39414.0,-0.0008539999999999999,-0.001037,-0.002196,0.2625,-1.3650000000000002,-3.7975000000000003,0.99990625,0.3420625,0.2818125,1.22040625,0.95896875,-0.17940625000000002,-0.22053125,1.193,0.021566648271191525,0.02074041006016332,True
57047,120779,0,120780,4737.0,41225.0,39417.0,-0.0026839999999999998,-0.000244,-0.003538,0.42000000000000004,-1.5575,-3.7975000000000003,1.0003125,0.34303125,0.28028125,1.22025,0.9598125000000001,-0.18696875000000002,-0.22321875,1.1936875,0.021912625987909298,0.020785842096232562,True
57048,120780,0,120781,4736.0,41226.0,39417.0,-0.000488,0.001586,0.0035989999999999998,0.42000000000000004,-1.6625,-3.7450000000000006,1.0006875,0.34121875,0.281625,1.21009375,0.96065625,-0.18031250000000001,-0.2285,1.18775,0.02156842472569368,0.021054749571785297,True
57049,120781,0,120782,4737.0,41226.0,39419.0,0.001769,0.00122,0.004514,0.4025,-1.8550000000000002,-3.7100000000000004,1.0001875,0.3435,0.2805,1.22090625,0.9599375,-0.1819375,-0.22793750000000002,1.19425,0.021728511208003908,0.020985587402972298,True
57050,120782,0,120783,4738.0,41224.0,39419.0,0.002562,-0.000915,-0.000305,0.28,-1.995,-3.9025000000000003,0.9998750000000001,0.34503125,0.280375,1.22846875,0.95875,-0.17359375,-0.22287500000000002,1.22240625,0.02145419524145019,0.020775816248071295,True
57051,120783,0,120784,4739.0,41225.0,39420.0,-0.001037,0.001586,-0.00122,0.43750000000000006,-1.5225000000000002,-3.5875000000000004,1.0063125,0.34525,0.28215625,1.22628125,0.99103125,-0.17034375000000002,-0.21559375,1.20625,0.021331668069470466,0.020554936836929716,True
57052,120784,0,120785,4741.0,41226.0,39421.0,-0.0034159999999999998,0.0021349999999999997,0.0028669999999999998,0.45500000000000007,-1.4175000000000002,-3.6925000000000003,1.0078125,0.34575,0.28250000000000003,1.2106875,0.99046875,-0.17428125,-0.21434375,1.19834375,0.021511756425022975,0.02051857176596,True
57053,120785,0,120786,4741.0,41225.0,39420.0,-0.003294,-0.000732,0.0032329999999999998,0.42000000000000004,-1.4875,-3.6925000000000003,1.00665625,0.34484375,0.2885,1.22596875,0.9843125,-0.17296875,-0.21590625,1.20146875,0.0214211380221968,0.020829542565643188,True
57054,120786,0,120787,4742.0,41226.0,39422.0,-0.0017079999999999999,6.1e-05,-0.000122,0.2625,-1.5050000000000001,-3.6750000000000003,1.00521875,0.34575,0.28250000000000003,1.22246875,0.97478125,-0.17615625000000001,-0.21984375,1.19728125,0.02158764381744927,0.020740998793602874,True
57055,120787,0,120788,4743.0,41227.0,39424.0,0.0,0.000915,-0.001769,0.29750000000000004,-1.5750000000000002,-3.5700000000000003,0.9928750000000001,0.34325,0.2829375,1.21028125,0.97115625,-0.17796875,-0.22340625,1.2044375,0.021557590523397466,0.020903077988876976,True
57056,120788,0,120789,4743.0,41224.0,39421.0,-0.0021349999999999997,0.000305,0.000976,0.35000000000000003,-2.1525000000000003,-3.6925000000000003,1.0049062500000001,0.34271875,0.283375,1.2199375000000001,0.97090625,-0.17540625,-0.22184375,1.20453125,0.02143190458278235,0.02085798072246255,True
57057,120789,0,120790,4745.0,41227.0,39423.0,-0.001647,-0.003843,-0.000122,0.2625,-2.2225,-3.7800000000000002,1.0006875,0.34325,0.28684375,1.22065625,0.9714375000000001,-0.175375,-0.22212500000000002,1.1993125,0.021452614488916926,0.02101255566966152,True
57058,120790,0,120791,4745.0,41228.0,39424.0,0.0025009999999999998,-0.004148,-0.0017079999999999999,0.12250000000000001,-2.3975000000000004,-3.8500000000000005,1.000875,0.34334375,0.2806875,1.22559375,0.970875,-0.17503125,-0.2195,1.20025,0.021442578280017735,0.02065226367183468,True
57059,120791,0,120792,4746.0,41231.0,39425.0,0.004758,-0.0034159999999999998,-0.003477,0.17500000000000002,-2.555,-3.7975000000000003,1.0015,0.34525,0.2828125,1.2209375,0.977625,-0.17646875,-0.21971875000000002,1.2027812500000001,0.021579609305018954,0.020748847465456226,True
57060,120792,0,120793,4747.0,41228.0,39425.0,0.007137,0.000366,-0.0032329999999999998,0.29750000000000004,-2.7300000000000004,-3.7450000000000006,1.00590625,0.34309375000000003,0.2865625,1.2202187500000001,0.9713125,-0.1775625,-0.21909375,1.20478125,0.02153468737801836,0.020878413338649388,True
57061,120793,0,120794,4749.0,41233.0,39428.0,0.003721,0.001098,0.0018909999999999999,0.36750000000000005,-2.0300000000000002,-3.5875000000000004,0.99790625,0.34600000000000003,0.2790625,1.2209375,0.97190625,-0.174625,-0.22034375,1.21275,0.021536011416929943,0.02061928827909389,True
57062,120794,0,120795,4751.0,41231.0,39431.0,-0.000305,-0.000305,0.0018909999999999999,0.3325,-1.3825,-3.5525,0.9955,0.34900000000000003,0.27803125,1.22065625,0.97846875,-0.1745625,-0.22040625,1.20853125,0.021657579118546613,0.02057923780696288,True
57063,120795,0,120796,4750.0,41233.0,39429.0,-0.00488,0.001037,0.000976,0.42000000000000004,-0.9275000000000001,-3.5525,1.0010625,0.34425,0.27684375,1.23090625,0.972,-0.17359375,-0.2159375,1.20871875,0.0214218769189004,0.02034945993728304,True
57064,120796,0,120797,4751.0,41234.0,39431.0,-0.0073809999999999995,0.003172,-0.000305,0.5075000000000001,-0.7000000000000001,-3.5525,0.9958125,0.345875,0.279375,1.2306875,0.97765625,-0.17621875,-0.21925,1.19953125,0.02159534356463415,0.02058796205497693,True
57065,120797,0,120798,4752.0,41236.0,39430.0,-0.007686,0.003538,0.0008539999999999999,0.6125,-0.6125,-3.4825000000000004,1.003125,0.3468125,0.28284375,1.22425,0.9791875,-0.175875,-0.21984375,1.204625,0.021620210230239856,0.020755191701019953,True
57066,120798,0,120799,4752.0,41236.0,39430.0,-0.005124,-0.002562,-6.1e-05,0.45500000000000007,-1.5750000000000002,-3.5700000000000003,1.01009375,0.34734375,0.284625,1.22771875,0.973,-0.17646875,-0.21890625,1.20303125,0.021666212109657246,0.02079083360752511,True
57067,120799,0,120800,4755.0,41238.0,39432.0,0.0025009999999999998,-0.0030499999999999998,0.000549,0.4025,-2.0475000000000003,-3.6750000000000003,1.0160625,0.3479375,0.28521875,1.2263125,0.9718125,-0.177875,-0.2206875,1.20390625,0.0217476722003071,0.020887361269162984,True
57068,120800,0,120801,4754.0,41238.0,39433.0,0.008296,-0.0006709999999999999,6.1e-05,0.29750000000000004,-2.5900000000000003,-3.9200000000000004,1.0093125,0.3473125,0.2843125,1.225125,0.96065625,-0.1778125,-0.21909375,1.20484375,0.021719293256989236,0.020785511431450653,True
57069,120801,0,120802,4753.0,41241.0,39430.0,0.011285,-0.0025009999999999998,0.0,0.24500000000000002,-2.8000000000000003,-4.0600000000000005,1.003625,0.34715625,0.28040625,1.2310625,0.97696875,-0.176125,-0.21465625,1.204,0.02164454601388767,0.020444746144186954,True
57070,120802,0,120803,4753.0,41240.0,39430.0,0.0059169999999999995,-0.0042699999999999995,-0.0011589999999999999,0.21000000000000002,-2.2225,-4.112500000000001,0.9933125,0.35253125,0.27490625,1.22746875,0.980625,-0.17434375,-0.2200625,1.20684375,0.021794800531038203,0.020436311838584232,True
57071,120803,0,120804,4750.0,41240.0,39427.0,-0.004026,0.00244,0.00042699999999999997,0.36750000000000005,-1.0675000000000001,-3.9375000000000004,0.994375,0.3444375,0.2839375,1.228875,0.97684375,-0.17396875,-0.22009375,1.2074375,0.021444813442145282,0.020810458258445016,True
57072,120804,0,120805,4746.0,41239.0,39425.0,-0.004026,0.00366,0.0026839999999999998,0.4025,-1.12,-3.9025000000000003,0.992,0.34353125,0.28034375,1.2281875,0.979375,-0.1743125,-0.22103125,1.20540625,0.02142124000424004,0.020699985678768323,True
57073,120805,0,120806,4741.0,41239.0,39423.0,-0.0011589999999999999,0.0028669999999999998,0.002379,0.35000000000000003,-1.4700000000000002,-4.0075,0.9941875,0.34940625000000003,0.2826875,1.2260312500000001,0.9786875,-0.17415625,-0.2191875,1.2038125,0.021657943077123945,0.020722206308531197,True
57074,120806,0,120807,4738.0,41237.0,39420.0,0.002623,0.000732,0.000366,0.14,-1.715,-3.9375000000000004,1.00990625,0.34478125,0.28271875,1.2235625,0.972125,-0.174875,-0.2216875,1.21025,0.021495716110217732,0.02082457095526478,True
57075,120807,0,120808,4734.0,41235.0,39417.0,0.004026,-0.000976,-0.0013419999999999999,0.17500000000000002,-1.7675,-3.9375000000000004,0.99915625,0.34578125,0.2866875,1.220875,0.97871875,-0.17771875,-0.21887500000000001,1.2034375,0.021652166832323665,0.020874730969130482,True
57076,120808,0,120809,4731.0,41236.0,39417.0,-0.00244,-0.000244,-0.000122,0.4025,-1.1375000000000002,-3.9025000000000003,0.9999687500000001,0.34503125,0.280125,1.2264375,0.97090625,-0.17450000000000002,-0.21987500000000001,1.20721875,0.021490878818589836,0.020644202333827074,True
57077,120809,0,120810,4725.0,41233.0,39416.0,-0.005795,-0.000366,0.000244,0.31500000000000006,-1.0325000000000002,-3.9375000000000004,0.9965625,0.3419375,0.28890625000000003,1.21996875,0.9791562500000001,-0.178125,-0.22275,1.2116875,0.02150962905518935,0.021122962917092404,True
57078,120810,0,120811,4723.0,41233.0,39414.0,-0.0034159999999999998,0.000183,-0.000549,0.29750000000000004,-1.12,-3.9550000000000005,1.0003125,0.34665625,0.28209375000000003,1.2197500000000001,0.9766875,-0.1743125,-0.22,1.20334375,0.021550509450889245,0.02073054293971924,True
57079,120811,0,120812,4720.0,41232.0,39414.0,-0.000976,0.000122,-0.000549,0.385,-1.2950000000000002,-3.8500000000000005,1.00175,0.34196875,0.27928125,1.2262187500000001,0.97165625,-0.174875,-0.2204375,1.2064062500000001,0.021379376315286018,0.020632110794860745,True
57080,120812,0,120813,4718.0,41233.0,39413.0,0.0011589999999999999,0.000549,-0.000183,0.29750000000000004,-1.5750000000000002,-3.9200000000000004,1.00584375,0.34490625,0.28640625000000003,1.22025,0.980625,-0.17821875,-0.21659375,1.212,0.021636209243081652,0.020770881536549705,True
57081,120813,0,120814,4715.0,41230.0,39412.0,0.001037,0.00061,0.000549,0.24500000000000002,-1.435,-3.8850000000000002,0.99946875,0.3446875,0.28225,1.220625,0.9740625,-0.17190625,-0.2188125,1.20403125,0.021371659506581115,0.02068897886715131,True
57082,120814,0,120815,4715.0,41232.0,39411.0,-0.000732,-0.000549,0.000122,0.385,-1.3650000000000002,-4.0075,0.99725,0.34178125,0.27996875,1.2216875,0.97046875,-0.17528125,-0.22137500000000002,1.21065625,0.02138806554732429,0.020698401721619852,True
57083,120815,0,120816,4715.0,41232.0,39411.0,-0.0013419999999999999,-0.000244,-0.000976,0.35000000000000003,-1.5050000000000001,-3.9200000000000004,0.99375,0.34475,0.28290625,1.22853125,0.97771875,-0.1746875,-0.21765625,1.20959375,0.021486834111092437,0.020669320549960322,True
57084,120816,0,120817,4711.0,41232.0,39411.0,0.0015249999999999999,-6.1e-05,-0.00122,0.2625,-1.6275000000000002,-3.8325000000000005,1.0061875,0.344625,0.28265625,1.2258125,0.9771562500000001,-0.1778125,-0.21984375,1.204375,0.021608137626181027,0.020747450115156087,True
