frame_seq,absolute_seq_u64,segment_id,sample_seq,PPG_G,PPG_R,PPG_IR,ACC_X,ACC_Y,ACC_Z,GYRO_X,GYRO_Y,GYRO_Z,Uh1,Uh2,Uh3,Uh4,Uc1,Uc2,Uc3,Uc4,UD1,UD2,parser_valid
1022,64754,0,64755,4297.0,40405.0,40629.0,-0.002989,0.0026839999999999998,0.004941,0.6475000000000001,-1.435,-3.8150000000000004,0.94928125,0.21106250000000001,0.15106250000000002,1.1688125,0.9211875,-0.25565625000000003,-0.338875,1.154125,0.019241645956291124,0.02012983344546533,True
1023,64755,0,64756,4298.0,40405.0,40632.0,0.0062829999999999995,-0.001098,0.002257,0.5075000000000001,-2.7125000000000004,-4.077500000000001,0.9430937500000001,0.212,0.1523125,1.17440625,0.9184375,-0.25959375,-0.33968750000000003,1.1515625,0.019439474331675484,0.020213899623813987,True
1024,64756,0,64757,4299.0,40406.0,40634.0,0.008723,-0.0030499999999999998,-0.001952,0.36750000000000005,-2.5900000000000003,-4.095000000000001,0.949375,0.2090625,0.15090625,1.168625,0.92115625,-0.26159375,-0.34025,1.1475312500000001,0.019399230522520804,0.02017876767905013,True
1025,64757,0,64758,4299.0,40405.0,40635.0,0.008723,-0.00244,-0.004514,0.15750000000000003,-2.5025000000000004,-4.112500000000001,0.9432812500000001,0.21128125,0.1504375,1.17509375,0.9012187500000001,-0.25856250000000003,-0.34215625,1.1520000000000001,0.019368161242035675,0.02023624139706194,True
1026,64758,0,64759,4301.0,40408.0,40637.0,0.004697,-0.000793,-0.003904,0.10500000000000001,-2.1175,-3.9375000000000004,0.94284375,0.21115625000000002,0.1525,1.1704375,0.91478125,-0.26028125,-0.3400625,1.15146875,0.019432482877749,0.020236698241838946,True
1027,64759,0,64760,4303.0,40407.0,40638.0,0.0023179999999999997,-0.00061,-0.0044529999999999995,0.15750000000000003,-1.6975000000000002,-3.7975000000000003,0.9475625,0.2105,0.1526875,1.1672500000000001,0.91778125,-0.2571875,-0.339875,1.14721875,0.019280367932185048,0.020236854133392223,True
1028,64760,0,64761,4303.0,40408.0,40641.0,-0.004575,0.002745,0.0023179999999999997,0.5075000000000001,-0.7000000000000001,-3.5175000000000005,0.94659375,0.21615625,0.15184375,1.16809375,0.92121875,-0.261,-0.34090625,1.14675,0.0196676249948477,0.020243699841701664,True
1029,64761,0,64762,4305.0,40407.0,40641.0,-0.008845,0.0021349999999999997,0.0059169999999999995,0.6125,-0.525,-3.4825000000000004,0.9440937500000001,0.21209375,0.15156250000000002,1.17146875,0.9130625,-0.259375,-0.3425625,1.15425,0.019434496972819786,0.020298807900770516,True
1030,64762,0,64763,4306.0,40409.0,40644.0,-0.008357,0.001281,0.0044529999999999995,0.6300000000000001,-0.7000000000000001,-3.4825000000000004,0.9460000000000001,0.2106875,0.15203125,1.168625,0.9158437500000001,-0.26046875,-0.33975,1.14584375,0.01942073975796531,0.020204860362164772,True
1031,64763,0,64764,4307.0,40409.0,40644.0,-0.0059169999999999995,0.002379,0.00122,0.385,-1.1025,-3.6575,0.9440000000000001,0.21109375,0.1538125,1.17034375,0.91490625,-0.259625,-0.3435625,1.15246875,0.019403381132231022,0.02043147957493896,True
1032,64764,0,64765,4311.0,40409.0,40646.0,-0.0011589999999999999,0.000366,-0.002074,0.15750000000000003,-1.5050000000000001,-3.7975000000000003,0.949125,0.209875,0.153375,1.16796875,0.92390625,-0.26175,-0.340375,1.1420000000000001,0.019439034694529452,0.02028522567955506,True
1033,64765,0,64766,4311.0,40409.0,40646.0,0.006344,-0.003111,-0.0018909999999999999,0.17500000000000002,-1.7325000000000002,-3.8500000000000005,0.944375,0.21271875,0.15528125,1.1748125,0.912125,-0.25909375,-0.3328125,1.15840625,0.01944889223242315,0.020059076606947925,True
1034,64766,0,64767,4313.0,40406.0,40643.0,0.0077469999999999995,-0.0044529999999999995,-0.0028669999999999998,0.21000000000000002,-1.8900000000000001,-3.9200000000000004,0.93096875,0.21225,0.1519375,1.16346875,0.91571875,-0.25346875,-0.33853125,1.15109375,0.01920215020789552,0.020151945282236374,True
1035,64767,0,64768,4312.0,40407.0,40635.0,0.006222,-0.000915,-0.003721,0.22750000000000004,-1.5575,-3.8850000000000002,0.96028125,0.19690625,0.1478125,1.1616250000000001,0.92853125,-0.26646875000000003,-0.33859375,1.139,0.019095279365688507,0.01998497756264164,True
1036,64768,0,64769,4312.0,40402.0,40623.0,-0.0008539999999999999,0.002196,-0.001281,0.31500000000000006,-1.1025,-3.8500000000000005,0.9313125,0.2159375,0.1565625,1.179125,0.917625,-0.2640625,-0.3454375,1.160625,0.019782342713632557,0.02061988000831778,True
1037,64769,0,64770,4308.0,40397.0,40614.0,-0.008296,0.000976,0.002562,0.385,-0.7000000000000001,-3.8325000000000005,0.96646875,0.20400000000000001,0.15540625,1.15778125,0.9237500000000001,-0.26003125,-0.33840625,1.146875,0.019127397043233404,0.020289434522854182,True
1038,64770,0,64771,4307.0,40395.0,40607.0,-0.004697,0.00061,0.002806,0.665,-1.0850000000000002,-3.8850000000000002,0.96178125,0.20528125,0.1566875,1.1575,0.9290625,-0.26103125,-0.3384375,1.1537187500000001,0.019220638034502347,0.020343335516094654,True
1039,64771,0,64772,4305.0,40392.0,40598.0,-0.00122,0.000549,0.001647,0.45500000000000007,-1.4525000000000001,-3.8500000000000005,0.96384375,0.20671875,0.1571875,1.16828125,0.9293750000000001,-0.26075,-0.33521875,1.15490625,0.019268520140556248,0.02023430547547472,True
1040,64772,0,64773,4302.0,40392.0,40593.0,0.0013419999999999999,-0.00042699999999999997,6.1e-05,0.31500000000000006,-1.4700000000000002,-3.9025000000000003,0.96521875,0.20646875,0.156,1.1488125,0.9180625,-0.260875,-0.33818750000000003,1.1513125,0.01926326853421404,0.020305024768175528,True
1041,64773,0,64774,4297.0,40389.0,40587.0,0.000793,-0.000305,0.000366,0.3325,-1.6975000000000002,-3.9025000000000003,0.95421875,0.20609375,0.15978125,1.1811875,0.923875,-0.262125,-0.337625,1.1514375000000001,0.019298340520461418,0.02043774813688682,True
1042,64774,0,64775,4293.0,40387.0,40583.0,0.003721,-0.000366,0.000183,0.385,-2.2575000000000003,-4.025,0.96065625,0.20884375,0.15825,1.1573437500000001,0.9150312500000001,-0.25959375,-0.339125,1.14665625,0.019309371163727752,0.02043520463451336,True
1043,64775,0,64776,4289.0,40385.0,40582.0,0.005063,-6.1e-05,-0.000793,0.36750000000000005,-2.1175,-3.8500000000000005,0.92021875,0.21481250000000002,0.15775,1.1575312500000001,0.90609375,-0.260875,-0.342625,1.14796875,0.01960718646792418,0.020555507058092542,True
1044,64776,0,64777,4286.0,40386.0,40580.0,0.003904,0.000915,-0.000732,0.29750000000000004,-1.8900000000000001,-3.7275000000000005,0.93340625,0.21265625,0.1520625,1.16653125,0.92203125,-0.26265625,-0.34190625,1.15496875,0.019590291149593316,0.020292936178734976,True
1045,64777,0,64778,4285.0,40386.0,40582.0,0.001952,-6.1e-05,-0.000488,0.21000000000000002,-1.7500000000000002,-3.7975000000000003,0.93875,0.21025,0.1569375,1.1670625000000001,0.91596875,-0.26253125,-0.3408125,1.1504375,0.019486064546542316,0.020449194126120483,True
1046,64778,0,64779,4283.0,40388.0,40582.0,6.1e-05,-0.00061,0.000793,0.28,-1.4700000000000002,-3.8500000000000005,0.9436875,0.2116875,0.152,1.17184375,0.92171875,-0.2605,-0.3404375,1.14978125,0.01946322211001422,0.020231250978952207,True
1047,64779,0,64780,4282.0,40388.0,40583.0,-0.000976,0.000549,0.000244,0.28,-1.2600000000000002,-3.7275000000000005,0.95025,0.21221875,0.1535,1.1679375,0.922,-0.2608125,-0.33546875,1.1454375,0.01949774971468907,0.020092842879798647,True
1048,64780,0,64781,4280.0,40388.0,40587.0,-0.003355,0.000732,-0.001464,0.1925,-1.2425000000000002,-3.7100000000000004,0.94315625,0.21181250000000001,0.15365625,1.1735625,0.915125,-0.2599375,-0.339125,1.15284375,0.019445639544619604,0.02024646531048261,True
1049,64781,0,64782,4280.0,40388.0,40587.0,-0.004758,-0.00061,-0.001403,0.14,-1.1900000000000002,-3.6750000000000003,0.9497187500000001,0.20934375,0.1519375,1.16875,0.911875,-0.26146875,-0.34025,1.14490625,0.019405770724412554,0.02022113577305081,True
1050,64782,0,64783,4280.0,40389.0,40591.0,-0.0018909999999999999,-0.00244,0.000183,0.21000000000000002,-1.2950000000000002,-3.6575,0.9432812500000001,0.21159375,0.15003125,1.17421875,0.91596875,-0.25959375,-0.33884375,1.1541875,0.01942272837936538,0.020086204793520645,True
1051,64783,0,64784,4278.0,40391.0,40593.0,-0.000183,-0.000915,-0.0023179999999999997,0.17500000000000002,-1.5225000000000002,-3.6225000000000005,0.9435625,0.2125,0.15303125,1.1685,0.9211875,-0.260375,-0.33909375,1.14671875,0.019491660784303623,0.020219528510588034,True
1052,64784,0,64785,4279.0,40392.0,40594.0,0.000244,0.001037,-0.000305,0.36750000000000005,-1.8550000000000002,-3.6400000000000006,0.9500625,0.2090625,0.149625,1.1675625,0.91621875,-0.26075,-0.3358125,1.14315625,0.01936512679946003,0.01994745398371228,True
1053,64785,0,64786,4279.0,40394.0,40598.0,0.001098,-0.000732,0.0,0.36750000000000005,-1.8550000000000002,-3.6750000000000003,0.94303125,0.21128125,0.15278125,1.168625,0.91421875,-0.25906250000000003,-0.3394375,1.1473125,0.019388372901879454,0.020223094720245693,True
1054,64786,0,64787,4280.0,40394.0,40601.0,0.0032329999999999998,0.0008539999999999999,0.00042699999999999997,0.56,-2.0300000000000002,-3.7275000000000005,0.94359375,0.2119375,0.16025,1.17459375,0.9085,-0.2593125,-0.33921875,1.1515,0.01942552988671876,0.02052114963632512,True
1055,64787,0,64788,4282.0,40395.0,40603.0,0.003294,0.000244,0.002257,0.5425000000000001,-2.0125,-3.7275000000000005,0.94884375,0.2091875,0.149,1.1685,0.9218437500000001,-0.26365625,-0.342375,1.13584375,0.019487736931650602,0.02018599253359625,True
1056,64788,0,64789,4283.0,40397.0,40608.0,0.002074,-0.000244,0.0025009999999999998,0.49000000000000005,-1.6625,-3.8675,0.9434375,0.21181250000000001,0.15271875000000001,1.16928125,0.9120625,-0.25996875,-0.339875,1.1465,0.019446902626368803,0.020238138034809134,True
1057,64789,0,64790,4281.0,40397.0,40610.0,0.002196,0.002806,-6.1e-05,0.4025,-1.435,-3.6925000000000003,0.95203125,0.209125,0.14953125,1.17415625,0.922625,-0.2631875,-0.34278125,1.153125,0.019466218113345576,0.020224168099115623,True
1058,64790,0,64791,4283.0,40395.0,40610.0,0.0018909999999999999,-0.00183,0.000244,0.36750000000000005,-1.3475000000000001,-3.8325000000000005,0.9500625,0.216,0.15153125,1.1601875,0.91671875,-0.26365625,-0.34046875,1.1465625,0.019768506652825663,0.020213250823281702,True
1059,64791,0,64792,4285.0,40398.0,40615.0,-0.0008539999999999999,-0.002257,0.0006709999999999999,0.31500000000000006,-1.0850000000000002,-3.7275000000000005,0.94321875,0.21209375,0.150875,1.174625,0.915,-0.26,-0.34025,1.15059375,0.019459758862324813,0.02017748379741375,True
1060,64792,0,64793,4285.0,40400.0,40616.0,-0.0035989999999999998,0.00061,-0.0011589999999999999,0.35000000000000003,-0.9275000000000001,-3.6225000000000005,0.94840625,0.211125,0.1525,1.16809375,0.92034375,-0.26140625,-0.3395,1.14640625,0.01947666368267503,0.02021405534213932,True
1061,64793,0,64794,4286.0,40400.0,40618.0,-0.005856,0.0008539999999999999,-0.00244,0.22750000000000004,-0.7525000000000001,-3.6575,0.9433125,0.20884375,0.14909375,1.1752500000000001,0.91540625,-0.2618125,-0.34090625,1.15059375,0.019399055614661927,0.020130721303772327,True
1062,64794,0,64795,4288.0,40399.0,40617.0,-0.0011589999999999999,-0.00122,-0.0006709999999999999,0.36750000000000005,-1.12,-3.6750000000000003,0.9497187500000001,0.2093125,0.1519375,1.1671875,0.92109375,-0.26206250000000003,-0.34028125,1.14728125,0.019428480163217784,0.02022239369152729,True
1063,64795,0,64796,4287.0,40396.0,40615.0,0.00122,0.0,-0.0008539999999999999,0.28,-1.3650000000000002,-3.6750000000000003,0.949125,0.20890625000000002,0.14934375,1.1651562500000001,0.919375,-0.26071875,-0.34159375000000003,1.14546875,0.01935742320082747,0.020168667057801012,True
1064,64796,0,64797,4290.0,40396.0,40614.0,-6.1e-05,0.000305,-0.000122,0.31500000000000006,-1.6450000000000002,-3.6400000000000006,0.94378125,0.21156250000000001,0.15056250000000002,1.1744375,0.9146562500000001,-0.2535,-0.33953125,1.1521875,0.019175067516028616,0.020135710296392828,True
1065,64797,0,64798,4288.0,40396.0,40612.0,-0.000305,0.000366,0.001403,0.31500000000000006,-1.715,-3.7100000000000004,0.94325,0.21115625000000002,0.1525625,1.1678125,0.91909375,-0.260625,-0.33965625,1.146125,0.01944637658757761,0.02022291296739246,True
1066,64798,0,64799,4287.0,40395.0,40608.0,0.001769,0.000305,0.000976,0.2625,-1.715,-3.6575,0.9430625,0.20790625000000001,0.149375,1.17484375,0.915375,-0.25940625,-0.34425,1.1651875,0.019263146640285146,0.020276862092691292,True
1067,64799,0,64800,4289.0,40394.0,40606.0,0.004941,0.00042699999999999997,-0.0011589999999999999,0.31500000000000006,-1.7325000000000002,-3.6750000000000003,0.94459375,0.2111875,0.15415625,1.16809375,0.9277500000000001,-0.26096875,-0.33903125,1.1404375,0.01946155798086175,0.020263234593611856,True
1068,64800,0,64801,4287.0,40393.0,40606.0,0.00183,0.000915,-0.001952,0.2625,-1.4000000000000001,-3.6750000000000003,0.95146875,0.2081875,0.14921875,1.16103125,0.8954062500000001,-0.26490625,-0.3439375,1.15915625,0.01949703597144539,0.020257867076761926,True
1069,64801,0,64802,4287.0,40393.0,40603.0,-0.001281,-0.0011589999999999999,0.001769,0.2625,-1.1900000000000002,-3.5700000000000003,0.9325625000000001,0.211125,0.1495,1.17375,0.91434375,-0.25865625000000003,-0.33553125,1.16178125,0.019365509991922988,0.019930990822318705,True
1070,64802,0,64803,4286.0,40393.0,40602.0,-0.002379,-0.001098,0.000549,0.24500000000000002,-1.155,-3.5875000000000004,0.93690625,0.21203125,0.14984375,1.16990625,0.91509375,-0.25759375,-0.33121875,1.15990625,0.01935991693322838,0.019771409929886886,True
1071,64803,0,64804,4285.0,40393.0,40604.0,-0.001952,-0.000122,-0.000488,0.29750000000000004,-1.1375000000000002,-3.6225000000000005,0.94346875,0.21106250000000001,0.1496875,1.1749375,0.91228125,-0.2576875,-0.336375,1.15978125,0.019323771072572354,0.019972674648545644,True
1072,64804,0,64805,4287.0,40394.0,40603.0,-0.002745,6.1e-05,-0.00061,0.36750000000000005,-1.0150000000000001,-3.535,0.9439375,0.21128125,0.15246875000000001,1.16928125,0.93290625,-0.26234375,-0.33803125,1.14165625,0.019520991248011644,0.02015364328205471,True
1073,64805,0,64806,4287.0,40395.0,40604.0,-0.00488,0.00042699999999999997,-0.0006709999999999999,0.4025,-1.0675000000000001,-3.4825000000000004,0.949875,0.211875,0.1526875,1.169,0.9294375,-0.2693125,-0.33925,1.14103125,0.019826993451091783,0.020211695101533533,True
1074,64806,0,64807,4286.0,40394.0,40604.0,-0.002196,0.000183,-0.00042699999999999997,0.4025,-1.2775,-3.5875000000000004,0.94965625,0.2091875,0.151375,1.16834375,0.9090625,-0.26528125,-0.34834375,1.1440000000000001,0.01955339998377311,0.020523726588179123,True
1075,64807,0,64808,4285.0,40393.0,40604.0,0.0008539999999999999,0.000793,-6.1e-05,0.45500000000000007,-1.5225000000000002,-3.5875000000000004,0.94384375,0.2086875,0.15040625,1.17403125,0.90834375,-0.25796875,-0.33534375,1.1574375000000001,0.019237235186890904,0.019960679618507546,True
1076,64808,0,64809,4286.0,40397.0,40606.0,0.0013419999999999999,-0.000915,0.000183,0.47250000000000003,-1.6625,-3.6750000000000003,0.9431875000000001,0.21171875,0.1583125,1.174625,0.929125,-0.2584375,-0.33665625,1.133875,0.019381143158952428,0.020338404130600313,True
1077,64809,0,64810,4283.0,40396.0,40607.0,6.1e-05,-0.000244,0.002013,0.42000000000000004,-1.7675,-3.7625,0.94984375,0.20996875,0.152125,1.168125,0.92178125,-0.2648125,-0.341,1.144875,0.019566656449539845,0.020259027977486545,True
1078,64810,0,64811,4287.0,40395.0,40611.0,0.00042699999999999997,0.000549,0.000244,0.4025,-1.7325000000000002,-3.8150000000000004,0.94346875,0.21196875,0.15221875,1.1725625,0.91603125,-0.25325000000000003,-0.3395625,1.1524375,0.019181707606197106,0.02020501601045623,True
1079,64811,0,64812,4286.0,40395.0,40612.0,0.00122,0.000793,-0.00061,0.36750000000000005,-1.9600000000000002,-3.8325000000000005,0.9479062500000001,0.21109375,0.15271875000000001,1.16796875,0.9221875,-0.26046875,-0.3369375,1.14275,0.019437485106300757,0.020119879504148785,True
1080,64812,0,64813,4288.0,40396.0,40614.0,0.003965,0.001037,-0.001586,0.29750000000000004,-1.9775000000000003,-3.8850000000000002,0.94378125,0.21021875,0.14946875,1.1653437500000001,0.9149375000000001,-0.26146875,-0.3404375,1.1475312500000001,0.019441836141927724,0.020127257367498017,True
1081,64813,0,64814,4288.0,40397.0,40615.0,0.0015249999999999999,-0.0008539999999999999,-0.000305,0.24500000000000002,-2.0300000000000002,-3.9725000000000006,0.94346875,0.21531250000000002,0.1525625,1.1745625,0.9146562500000001,-0.2599375,-0.34253125,1.1520000000000001,0.01958991032025536,0.020338630560451678,True
1082,64814,0,64815,4291.0,40397.0,40617.0,0.000488,0.00122,0.000793,0.35000000000000003,-2.0825,-3.9200000000000004,0.9441875000000001,0.21231250000000002,0.15446875000000002,1.1691562500000001,0.915125,-0.25971875,-0.3394375,1.15034375,0.01945740817790808,0.020292426642973982,True
1083,64815,0,64816,4290.0,40398.0,40619.0,0.00122,6.1e-05,0.000488,0.4025,-2.0125,-3.8850000000000002,0.94734375,0.208625,0.14975,1.1609375,0.92228125,-0.26265625,-0.34240625,1.1530625,0.019424140751283157,0.020218060817220978,True
1084,64816,0,64817,4291.0,40398.0,40620.0,0.0017079999999999999,-0.000549,0.000122,0.35000000000000003,-1.9775000000000003,-3.8500000000000005,0.94384375,0.2116875,0.153,1.1684375,0.916125,-0.260625,-0.34003125,1.14734375,0.01946827420975346,0.020255982621221986,True
1085,64817,0,64818,4293.0,40398.0,40621.0,0.000305,0.000122,0.0008539999999999999,0.3325,-1.9250000000000003,-3.9025000000000003,0.9490937500000001,0.20778125,0.15925,1.1655,0.9186562500000001,-0.259625,-0.34059375000000003,1.14909375,0.019266837389283635,0.020535396758758196,True
1086,64818,0,64819,4295.0,40399.0,40623.0,-0.000366,0.000305,-0.000366,0.47250000000000003,-1.8900000000000001,-3.7975000000000003,0.94525,0.21234375,0.1511875,1.1679375,0.91796875,-0.25890625,-0.33925,1.13890625,0.019425855194934852,0.020150066251014308,True
1087,64819,0,64820,4296.0,40402.0,40629.0,-6.1e-05,-0.000183,0.000244,0.29750000000000004,-1.7500000000000002,-3.8500000000000005,0.94284375,0.21109375,0.1491875,1.177625,0.90665625,-0.2625,-0.34268750000000003,1.1446875,0.01951957753735188,0.020206273444540585,True
1088,64820,0,64821,4297.0,40403.0,40628.0,0.000793,-0.001586,-0.0013419999999999999,0.31500000000000006,-1.8375000000000001,-3.7975000000000003,0.95453125,0.20790625000000001,0.14903125,1.16878125,0.9240625,-0.26371875,-0.3410625,1.14678125,0.019437457417775254,0.02013444359711085,True
1089,64821,0,64822,4300.0,40403.0,40630.0,0.001281,0.0,-0.000732,0.36750000000000005,-1.7325000000000002,-3.7975000000000003,0.94096875,0.21228125,0.15359375,1.16471875,0.9147500000000001,-0.256625,-0.34009375000000003,1.14628125,0.019331059040571388,0.02028289229576201,True
1090,64822,0,64823,4299.0,40402.0,40631.0,-0.00061,0.000549,0.00061,0.35000000000000003,-1.4175000000000002,-3.6050000000000004,0.92596875,0.21165625000000002,0.154,1.16478125,0.91534375,-0.25728125,-0.338875,1.1466875,0.019331824336249557,0.020250525137254696,True
1091,64823,0,64824,4301.0,40402.0,40635.0,-0.003111,6.1e-05,0.0011589999999999999,0.29750000000000004,-1.3650000000000002,-3.5525,0.94684375,0.2086875,0.1466875,1.17703125,0.9115625,-0.262875,-0.34021875,1.14940625,0.019435557410240955,0.020004185459508248,True
1092,64824,0,64825,4301.0,40406.0,40635.0,0.000244,0.001281,0.001098,0.2625,-1.435,-3.6050000000000004,0.9400000000000001,0.2121875,0.15446875000000002,1.16940625,0.916,-0.26034375,-0.33971875,1.15115625,0.01947751667780882,0.02030374734712167,True
1093,64825,0,64826,4303.0,40405.0,40637.0,0.000244,0.002074,0.000793,0.36750000000000005,-1.4875,-3.6050000000000004,0.95740625,0.22109375,0.1535,1.16384375,0.92134375,-0.256,-0.33996875,1.1436875,0.01966910249010554,0.02027400918499536,True
1094,64826,0,64827,4304.0,40405.0,40641.0,0.00042699999999999997,0.000732,-0.000976,0.35000000000000003,-1.435,-3.8150000000000004,0.94365625,0.2106875,0.151,1.16484375,0.91978125,-0.26196875000000003,-0.339875,1.14659375,0.019481364223585523,0.020167523456878885,True
1095,64827,0,64828,4306.0,40407.0,40643.0,0.000732,-0.00183,-0.000305,0.24500000000000002,-1.5925000000000002,-3.8325000000000005,0.93121875,0.21331250000000002,0.15428125,1.17475,0.91521875,-0.26090625,-0.339875,1.15025,0.019546621429279872,0.020302333105654814,True
1096,64828,0,64829,4306.0,40407.0,40644.0,0.001403,-0.002623,0.00042699999999999997,0.3325,-1.4875,-3.7625,0.9506875,0.20884375,0.1514375,1.1753437500000001,0.918375,-0.26115625,-0.34118750000000003,1.1495,0.01937253093615437,0.020238330607329658,True
1097,64829,0,64830,4306.0,40406.0,40644.0,-0.002745,0.000183,-0.000976,0.385,-1.0850000000000002,-3.6750000000000003,0.95234375,0.21309375,0.15221875,1.16571875,0.91646875,-0.260125,-0.33915625,1.14728125,0.019506030987062106,0.020188662045341036,True
1098,64830,0,64831,4308.0,40407.0,40646.0,-0.0026839999999999998,0.001647,-0.0006709999999999999,0.36750000000000005,-1.1025,-3.535,0.94303125,0.21246875,0.15059375,1.17240625,0.91559375,-0.25990625,-0.34021875,1.14853125,0.01947142726489308,0.020164670870100543,True
1099,64831,0,64832,4310.0,40408.0,40648.0,0.000976,0.000488,-0.000549,0.2625,-1.1900000000000002,-3.5175000000000005,0.94921875,0.20759375,0.15121875,1.1689375,0.9198125,-0.26215625,-0.3388125,1.14521875,0.01936142835614621,0.020133737009560348,True
1100,64832,0,64833,4309.0,40409.0,40649.0,0.003111,6.1e-05,-0.000244,0.42000000000000004,-1.33,-3.5525,0.9380937500000001,0.21131250000000001,0.15275,1.17303125,0.9156875,-0.2575,-0.34015625,1.14775,0.019326496959703184,0.02025074304935902,True
1101,64833,0,64834,4312.0,40409.0,40649.0,0.001464,0.002623,-0.000305,0.47250000000000003,-1.2950000000000002,-3.4125000000000005,0.9480937500000001,0.2109375,0.15228125,1.1688125,0.9379375,-0.262625,-0.34209375000000003,1.14265625,0.019518188984085603,0.020309469065289423,True
1102,64834,0,64835,4313.0,40409.0,40651.0,0.0023179999999999997,-0.001464,0.0026839999999999998,0.5775,-1.1375000000000002,-3.4650000000000003,0.9480625,0.20875,0.14921875,1.16059375,0.91234375,-0.25621875,-0.340875,1.16196875,0.01916905329689938,0.020134598694582673,True
1103,64835,0,64836,4315.0,40410.0,40654.0,-0.004392,0.000122,0.00488,0.5075000000000001,-0.8225000000000001,-3.6400000000000006,0.944125,0.209625,0.14984375,1.17059375,0.90025,-0.2519375,-0.33915625,1.16578125,0.019031984557934804,0.020091082656162332,True
1104,64836,0,64837,4317.0,40410.0,40653.0,-0.007137,-0.000305,0.0021349999999999997,0.4025,-0.3325,-3.4825000000000004,0.94371875,0.21146875,0.15303125,1.17278125,0.924875,-0.25840625,-0.3348125,1.1416250000000001,0.019369574206879316,0.02004715466782413,True
1105,64837,0,64838,4316.0,40410.0,40655.0,-0.005673,0.0021349999999999997,-0.0028669999999999998,0.28,-0.35000000000000003,-3.2900000000000005,0.94221875,0.2104375,0.15178125,1.16940625,0.9315,-0.2693125,-0.34546875,1.14734375,0.019767762271799005,0.020424745364576315,True
1106,64838,0,64839,4318.0,40408.0,40652.0,0.003294,-0.005063,-0.005246,0.07,-1.1375000000000002,-3.5875000000000004,0.9429062500000001,0.20890625000000002,0.15,1.1676250000000001,0.90278125,-0.2553125,-0.34190625,1.16528125,0.019138848448149247,0.02020820575627679,True
1107,64839,0,64840,4318.0,40406.0,40645.0,0.001586,-0.002806,-0.002623,0.31500000000000006,-1.2600000000000002,-3.535,0.9440625,0.212125,0.15253125,1.16803125,0.92734375,-0.2593125,-0.33365625,1.12825,0.019433258877389867,0.019980043073058534,True
1108,64840,0,64841,4317.0,40404.0,40634.0,0.000732,-0.000915,0.0017079999999999999,0.47250000000000003,-1.1900000000000002,-3.535,0.9461875000000001,0.2095625,0.1496875,1.164625,0.90315625,-0.257625,-0.3408125,1.1595,0.01925940812424959,0.02015134046983847,True
1109,64841,0,64842,4316.0,40398.0,40620.0,0.00042699999999999997,-0.001098,0.002379,0.5425000000000001,-0.9800000000000001,-3.4825000000000004,0.9507187500000001,0.20825,0.14946875,1.174,0.9380000000000001,-0.2704375,-0.34553125,1.1600625,0.01972306844489309,0.02033227350501953,True
1110,64842,0,64843,4314.0,40395.0,40611.0,-0.000244,0.002013,0.003721,0.5425000000000001,-0.9625000000000001,-3.4825000000000004,0.9520937500000001,0.209875,0.15203125,1.16821875,0.9351875000000001,-0.26634375,-0.34290625,1.15084375,0.019624660183922435,0.020331898538203507,True
1111,64843,0,64844,4309.0,40395.0,40607.0,-0.0018909999999999999,0.001769,0.0013419999999999999,0.5075000000000001,-1.155,-3.4825000000000004,0.94953125,0.20821875,0.15296875000000001,1.1749687500000001,0.921125,-0.26734375,-0.34425,1.16009375,0.019596808983265837,0.02042448422111998,True
1112,64844,0,64845,4306.0,40391.0,40599.0,-0.000244,0.00122,-0.000366,0.47250000000000003,-1.4000000000000001,-3.4825000000000004,0.94878125,0.2108125,0.1491875,1.173,0.9290625,-0.2603125,-0.34065625,1.14496875,0.019419576726392128,0.020124508762987853,True
1113,64845,0,64846,4302.0,40391.0,40596.0,0.000793,-0.0008539999999999999,-0.001098,0.47250000000000003,-1.5750000000000002,-3.5175000000000005,0.9440937500000001,0.2115,0.152375,1.1678125,0.91215625,-0.25996875,-0.3349375,1.13903125,0.019434021323708424,0.020025220940057892,True
1114,64846,0,64847,4300.0,40390.0,40591.0,0.002623,-0.000976,-0.001647,0.42000000000000004,-1.5925000000000002,-3.5000000000000004,0.945375,0.207875,0.14940625,1.1728750000000001,0.9233750000000001,-0.26334375,-0.34365625,1.1483125,0.01942101446755458,0.0202542500163672,True
1115,64847,0,64848,4297.0,40386.0,40590.0,0.0015249999999999999,-0.001586,-0.002623,0.43750000000000006,-1.54,-3.43,0.9455,0.211125,0.152875,1.168875,0.91525,-0.2518125,-0.339625,1.1383125,0.01908877944689701,0.02023449416332421,True
1116,64848,0,64849,4292.0,40388.0,40587.0,-0.0013419999999999999,0.000244,0.000183,0.45500000000000007,-1.4175000000000002,-3.5525,0.9435,0.211125,0.152375,1.1712500000000001,0.9146562500000001,-0.25940625,-0.33934375,1.14565625,0.01939582713406269,0.020202629744279773,True
1117,64849,0,64850,4291.0,40387.0,40587.0,-0.000122,-0.000122,0.001647,0.385,-1.5225000000000002,-3.5000000000000004,0.94721875,0.21106250000000001,0.15271875000000001,1.1685,0.9214687500000001,-0.26128125,-0.342875,1.1545,0.019469035667685524,0.02035888324612438,True
1118,64850,0,64851,4289.0,40387.0,40588.0,-0.0013419999999999999,0.00183,0.0028669999999999998,0.35000000000000003,-1.6975000000000002,-3.4825000000000004,0.943875,0.21175,0.1530625,1.1686875,0.91609375,-0.2586875,-0.34125,1.15225,0.0193925372096079,0.020307605402351974,True
1119,64851,0,64852,4285.0,40389.0,40587.0,-0.000305,0.001586,6.1e-05,0.5775,-1.8025000000000002,-3.5525,0.9439375,0.21975,0.15190625,1.17571875,0.9200625,-0.262125,-0.34125,1.1535625,0.019861203418909103,0.020260103733374415,True
1120,64852,0,64853,4287.0,40387.0,40589.0,0.0015249999999999999,-6.1e-05,-0.0011589999999999999,0.42000000000000004,-1.9425000000000001,-3.6750000000000003,0.9509375,0.207875,0.147875,1.18,0.92215625,-0.2626875,-0.34146875,1.152375,0.019394492056990804,0.020103295944292596,True
1121,64853,0,64854,4284.0,40388.0,40591.0,0.001037,-0.000793,-0.000122,0.22750000000000004,-2.0300000000000002,-3.6225000000000005,0.95825,0.2061875,0.1454375,1.1845,0.92,-0.2640625,-0.34240625,1.149875,0.019380513877261894,0.020040900845617923,True
1122,64854,0,64855,4284.0,40388.0,40593.0,0.004758,-0.000549,-0.002379,0.28,-2.1700000000000004,-3.5875000000000004,0.964375,0.20178125,0.146875,1.18575,0.91771875,-0.260875,-0.340125,1.1461875,0.01907005621190497,0.0200081141736125,True
1123,64855,0,64856,4284.0,40388.0,40595.0,0.006039,0.0,-0.004026,0.43750000000000006,-2.0475000000000003,-3.4125000000000005,0.95865625,0.20365625,0.14953125,1.17965625,0.91553125,-0.259875,-0.33918750000000003,1.14625,0.019106910072702356,0.020079501421319014,True
1124,64856,0,64857,4284.0,40388.0,40598.0,0.003721,0.000122,-0.000305,0.385,-1.7500000000000002,-3.3950000000000005,0.95884375,0.2035625,0.151375,1.18128125,0.91471875,-0.26075,-0.3399375,1.146375,0.019138423173232486,0.02018544624446961,True
1125,64857,0,64858,4285.0,40392.0,40601.0,-0.0018909999999999999,-0.002379,0.0018909999999999999,0.3325,-1.4525000000000001,-3.2900000000000005,0.95446875,0.20803125,0.15609375,1.16465625,0.9064375,-0.26278125,-0.33918750000000003,1.15409375,0.01940472096536748,0.020349128334707145,True
1126,64858,0,64859,4284.0,40393.0,40607.0,-0.004392,0.00244,0.002257,0.5425000000000001,-1.1725,-3.2025,0.9365,0.213625,0.15546875000000002,1.16025,0.921625,-0.2621875,-0.34384375,1.1449375,0.019611277837169466,0.020510832435818607,True
1127,64859,0,64860,4284.0,40392.0,40607.0,-0.006405,0.0023179999999999997,0.0006709999999999999,0.43750000000000006,-1.1025,-3.22,0.936875,0.21284375,0.15325,1.16053125,0.922,-0.25940625,-0.3364375,1.1474375,0.01946667594141963,0.0201215769563643,True
1128,64860,0,64861,4285.0,40393.0,40606.0,-0.005673,6.1e-05,0.0,0.3325,-1.2425000000000002,-3.3600000000000003,0.956875,0.20565625,0.14856250000000001,1.18284375,0.9150312500000001,-0.2598125,-0.33678125000000003,1.14625,0.019186823888272014,0.01994280776140025,True
1129,64861,0,64862,4288.0,40395.0,40612.0,-0.0017079999999999999,-0.0011589999999999999,-0.000976,0.35000000000000003,-1.4875,-3.4475000000000002,0.9565,0.20634375,0.144375,1.18065625,0.91596875,-0.25956250000000003,-0.33940625,1.1461875,0.01920505573832999,0.019876460626478926,True
1130,64862,0,64863,4288.0,40395.0,40611.0,0.001281,-0.0011589999999999999,-0.0013419999999999999,0.35000000000000003,-1.8025000000000002,-3.43,0.9509062500000001,0.20971875,0.1543125,1.162,0.9158125,-0.26021875,-0.33953125,1.145,0.019370703324758768,0.020289780642344952,True
1131,64863,0,64864,4289.0,40396.0,40615.0,0.005673,-0.0013419999999999999,-0.0008539999999999999,0.29750000000000004,-1.9250000000000003,-3.535,0.93803125,0.2135,0.15271875000000001,1.16796875,0.9176562500000001,-0.25440625,-0.34303125,1.15375,0.019291597789576894,0.020365171243823633,True
1132,64864,0,64865,4290.0,40395.0,40616.0,0.004697,0.000366,-0.000549,0.385,-1.7325000000000002,-3.4125000000000005,0.94515625,0.20825,0.15009375,1.168,0.923625,-0.261,-0.34171875,1.1431875,0.019341741890276577,0.020204510004043982,True
1133,64865,0,64866,4291.0,40396.0,40617.0,0.001952,-0.000488,0.000244,0.43750000000000006,-1.4175000000000002,-3.535,0.9509375,0.21181250000000001,0.153,1.16728125,0.91528125,-0.25753125,-0.33340625,1.14621875,0.019348372477104404,0.019989238045947638,True
1134,64866,0,64867,4292.0,40396.0,40616.0,-0.0015249999999999999,0.000915,0.001281,0.29750000000000004,-1.2425000000000002,-3.5525,0.943875,0.212375,0.15228125,1.1680625,0.9161875,-0.26059375,-0.34018750000000003,1.14515625,0.019495349325487965,0.020232742660671783,True
1135,64867,0,64868,4292.0,40395.0,40617.0,-0.001647,0.001647,0.000976,0.43750000000000006,-1.1725,-3.4650000000000003,0.94346875,0.2095,0.1511875,1.1715312500000001,0.91525,-0.26021875,-0.33978125000000003,1.14196875,0.0193616865058152,0.020171452855600337,True
1136,64868,0,64869,4291.0,40394.0,40617.0,0.000793,0.0011589999999999999,-0.001769,0.28,-1.1900000000000002,-3.5000000000000004,0.9429375,0.211125,0.15271875000000001,1.1635,0.91571875,-0.26040625,-0.3399375,1.1376875,0.019436247074386896,0.020240653863634613,True
1137,64869,0,64870,4292.0,40394.0,40613.0,-0.000183,0.00122,-0.0021349999999999997,0.45500000000000007,-0.9975,-3.4475000000000002,0.94359375,0.2115,0.15203125,1.16728125,0.9159375000000001,-0.2601875,-0.3393125,1.1466875,0.01944286292098938,0.020187248509997972,True
1138,64870,0,64871,4292.0,40393.0,40613.0,-0.0015249999999999999,0.0013419999999999999,0.0008539999999999999,0.56,-0.9275000000000001,-3.3600000000000003,0.943625,0.21065625000000002,0.15253125,1.1619375,0.915125,-0.259125,-0.33996875,1.14665625,0.019365135799415685,0.02023420839437191,True
1139,64871,0,64872,4294.0,40392.0,40612.0,-0.002806,-0.000305,0.0021349999999999997,0.4025,-0.9800000000000001,-3.3075,0.9451875000000001,0.21103125,0.15396875000000002,1.1713437500000001,0.9159375000000001,-0.259875,-0.3395,1.1456250000000001,0.0194109099902617,0.02027439963844779,True
1140,64872,0,64873,4291.0,40391.0,40606.0,-0.00244,-0.0008539999999999999,0.001952,0.42000000000000004,-0.77,-3.3425000000000002,0.94671875,0.21090625000000002,0.15153125,1.16578125,0.9158437500000001,-0.26021875,-0.34046875,1.14165625,0.0194196517704524,0.020213250823281702,True
1141,64873,0,64874,4290.0,40391.0,40607.0,-0.004758,-0.001403,0.001098,0.29750000000000004,-0.8750000000000001,-3.4825000000000004,0.9391875000000001,0.21065625000000002,0.1520625,1.1678125,0.9154375,-0.26025,-0.33965625,1.14596875,0.019410609948372338,0.020202370360099066,True
1142,64874,0,64875,4290.0,40390.0,40606.0,-0.0013419999999999999,-0.001952,-0.001037,0.24500000000000002,-1.0850000000000002,-3.4650000000000003,0.93775,0.2103125,0.148,1.1739375,0.91571875,-0.25259375,-0.34028125,1.1481875,0.019086876017127035,0.020060624813034975,True
1143,64875,0,64876,4289.0,40389.0,40607.0,-0.000488,-0.0006709999999999999,-0.00244,0.24500000000000002,-1.3475000000000001,-3.5175000000000005,0.95303125,0.2085625,0.1496875,1.174,0.9166875,-0.261625,-0.342125,1.15271875,0.01937988490053737,0.020204172807427454,True
1144,64876,0,64877,4289.0,40391.0,40608.0,0.002257,0.001037,-0.001464,0.15750000000000003,-1.715,-3.6225000000000005,0.95034375,0.21153125,0.15181250000000002,1.1680625,0.92215625,-0.2615,-0.33915625,1.14678125,0.01949719720544896,0.02017197083403415,True
1145,64877,0,64878,4288.0,40390.0,40605.0,0.00488,0.000976,-0.00061,0.1925,-1.8200000000000003,-3.6225000000000005,0.94503125,0.210125,0.1550625,1.17459375,0.9156875,-0.26006250000000003,-0.33996875,1.1456250000000001,0.01938113308652853,0.02033820400858156,True
1146,64878,0,64879,4288.0,40390.0,40605.0,0.001952,0.001586,-0.000549,0.42000000000000004,-1.6450000000000002,-3.6575,0.9494375,0.20940625000000002,0.15353125,1.167125,0.9200625,-0.2635,-0.3425625,1.15221875,0.019490438312691906,0.020379684759975456,True
1147,64879,0,64880,4287.0,40389.0,40606.0,0.0008539999999999999,0.00183,0.0011589999999999999,0.28,-1.6625,-3.5700000000000003,0.943875,0.21196875,0.15259375,1.16865625,0.9201875,-0.2594375,-0.33890625,1.1460937500000001,0.019431870586447027,0.020194005225686755,True
1148,64880,0,64881,4288.0,40389.0,40607.0,0.00042699999999999997,0.000549,0.002074,0.28,-1.5050000000000001,-3.6225000000000005,0.94334375,0.211625,0.155,1.1668125,0.9150625,-0.25971875,-0.33840625,1.1515625,0.01942906902001904,0.02027274279719939,True
1149,64881,0,64882,4287.0,40392.0,40610.0,-0.000305,-0.0013419999999999999,0.00042699999999999997,0.24500000000000002,-1.5750000000000002,-3.5525,0.94378125,0.21159375,0.1514375,1.166125,0.91159375,-0.261,-0.3399375,1.153125,0.01947956597007543,0.020188014040709842,True
1150,64882,0,64883,4288.0,40393.0,40611.0,-0.0026839999999999998,-0.000793,0.0,0.1925,-1.5925000000000002,-3.6050000000000004,0.9433125,0.21140625000000002,0.15203125,1.16815625,0.91953125,-0.259875,-0.3348125,1.14675,0.019426367613188444,0.0200060612753848,True
1151,64883,0,64884,4289.0,40392.0,40610.0,-0.00366,-0.00122,-0.001647,0.2625,-1.1900000000000002,-3.535,0.9420937500000001,0.2121875,0.15290625,1.168125,0.91590625,-0.2601875,-0.34121875,1.15340625,0.01947120153131545,0.02029992849063895,True
1152,64884,0,64885,4289.0,40391.0,40612.0,-0.001769,-0.001281,-0.0008539999999999999,0.22750000000000004,-1.4525000000000001,-3.6925000000000003,0.94446875,0.2105,0.15096875,1.1675312500000001,0.91896875,-0.2635,-0.34318750000000003,1.15696875,0.01953551631050755,0.02029957046504284,True
1153,64885,0,64886,4289.0,40391.0,40614.0,0.000976,-0.001281,0.000244,0.42000000000000004,-1.8550000000000002,-3.7975000000000003,0.94803125,0.2096875,0.151625,1.1731562500000001,0.9267500000000001,-0.26403125,-0.3393125,1.1513125,0.019523497357843207,0.020170557405842917,True
1154,64886,0,64887,4289.0,40392.0,40613.0,0.001281,0.001037,0.001464,0.4025,-1.9075000000000002,-3.8325000000000005,0.9486875,0.20921875,0.150375,1.17409375,0.92734375,-0.26609375,-0.3389375,1.16021875,0.019587516017076298,0.020104102736612887,True
1155,64887,0,64888,4291.0,40391.0,40617.0,0.000915,0.001037,-0.000244,0.3325,-2.0125,-3.8325000000000005,0.94765625,0.21171875,0.15578125,1.16784375,0.93,-0.26253125,-0.343625,1.1539062500000001,0.019546600274857967,0.0205148678555474,True
1156,64888,0,64889,4291.0,40392.0,40619.0,0.00183,0.0013419999999999999,0.000366,0.36750000000000005,-2.1700000000000004,-3.8150000000000004,0.935,0.21196875,0.15309375,1.15628125,0.92053125,-0.2621875,-0.3425,1.1560625,0.01954301317636755,0.020359196877888466,True
1157,64889,0,64890,4291.0,40393.0,40618.0,0.00488,0.000305,0.00061,0.4025,-2.2575000000000003,-3.9025000000000003,0.9391875000000001,0.21621875000000002,0.155,1.14275,0.92471875,-0.2625,-0.341375,1.15309375,0.019730808861411646,0.020392233388623282,True
1158,64890,0,64891,4293.0,40392.0,40622.0,0.0034159999999999998,-0.0018909999999999999,0.00042699999999999997,0.385,-2.0650000000000004,-3.8850000000000002,0.93690625,0.21578125,0.15740625,1.17790625,0.92521875,-0.26315625,-0.34196875,1.15921875,0.019739290925928073,0.020514979915090065,True
1159,64891,0,64892,4294.0,40394.0,40622.0,0.0006709999999999999,-0.001586,-0.000976,0.4025,-1.8200000000000003,-3.8675,0.9588125000000001,0.2081875,0.15290625,1.17940625,0.9296875,-0.2660625,-0.33215625,1.15075,0.019543755811228126,0.019935039665874246,True
1160,64892,0,64893,4294.0,40395.0,40625.0,-0.002806,0.000549,-0.000915,0.24500000000000002,-1.5925000000000002,-3.6925000000000003,0.9586875,0.20446875,0.14484375,1.1868125,0.93021875,-0.2651875,-0.34218750000000003,1.154375,0.019355146132705548,0.020007702676680145,True
1161,64893,0,64894,4296.0,40395.0,40627.0,-0.004392,-0.0006709999999999999,0.001281,0.385,-1.5050000000000001,-3.6575,0.96546875,0.20515625,0.1474375,1.17846875,0.92521875,-0.26034375,-0.34068750000000003,1.144375,0.019187691847935995,0.02005387070517215,True
1162,64894,0,64895,4298.0,40397.0,40632.0,-0.000915,6.1e-05,6.1e-05,0.29750000000000004,-1.6975000000000002,-3.7975000000000003,0.9501875000000001,0.20734375,0.14996875,1.16384375,0.911375,-0.2588125,-0.33728125000000003,1.14321875,0.019215955026652683,0.020020724377337755,True
1163,64895,0,64896,4299.0,40398.0,40631.0,-0.000915,0.0026839999999999998,0.000793,0.47250000000000003,-1.8550000000000002,-3.8500000000000005,0.93290625,0.21303125,0.15687500000000001,1.15778125,0.9113125,-0.25859375,-0.337,1.14996875,0.01944156387878007,0.020293175001027244,True
1164,64896,0,64897,4300.0,40397.0,40633.0,0.0008539999999999999,0.000915,-0.000549,0.43750000000000006,-2.1350000000000002,-3.9375000000000004,0.9215625000000001,0.21475,0.15628125,1.15784375,0.9196875,-0.2621875,-0.33875,1.1508125,0.01965764628601605,0.020339222433362437,True
1165,64897,0,64898,4300.0,40398.0,40634.0,0.00183,-0.001769,-0.000122,0.42000000000000004,-2.2575000000000003,-4.077500000000001,0.931625,0.20746875,0.14725,1.17440625,0.9204375,-0.26309375,-0.34246875,1.1459375,0.019394167324601794,0.02011787526686257,True
1166,64898,0,64899,4302.0,40397.0,40634.0,0.0028669999999999998,-0.00061,-0.001037,0.24500000000000002,-2.205,-3.9375000000000004,0.93278125,0.214375,0.15740625,1.15728125,0.908375,-0.25990625,-0.342,1.1508125,0.019550003413554,0.020516237367512943,True
1167,64899,0,64900,4304.0,40399.0,40638.0,0.002745,0.000549,-0.001647,0.31500000000000006,-1.9775000000000003,-3.9025000000000003,0.9429062500000001,0.2136875,0.15521875000000002,1.16984375,0.9223750000000001,-0.2614375,-0.34259375000000003,1.15315625,0.0195835469353372,0.020450265288595226,True
1168,64900,0,64901,4304.0,40401.0,40638.0,0.00122,0.000488,-0.0006709999999999999,0.385,-1.9425000000000001,-3.7800000000000002,0.946875,0.21121875,0.152625,1.16828125,0.92415625,-0.25953125,-0.3403125,1.147,0.019404744269327135,0.020251896930246892,True
1169,64901,0,64902,4305.0,40402.0,40638.0,0.0023179999999999997,-0.00122,0.00183,0.29750000000000004,-1.995,-3.7450000000000006,0.94321875,0.21740625,0.1519375,1.17015625,0.91540625,-0.2591875,-0.3415,1.14665625,0.0196459073495351,0.020271449992810633,True
1170,64902,0,64903,4307.0,40403.0,40642.0,-0.0017079999999999999,0.0021349999999999997,0.0008539999999999999,0.31500000000000006,-1.4175000000000002,-3.7800000000000002,0.9436875,0.2079375,0.15259375,1.1753125,0.91853125,-0.26153125,-0.340375,1.15409375,0.019350334699092826,0.020253128803479813,True
1171,64903,0,64904,4307.0,40399.0,40639.0,-0.0057339999999999995,0.0023179999999999997,0.0006709999999999999,0.31500000000000006,-1.2075,-3.7625,0.95165625,0.21109375,0.1526875,1.16596875,0.9224375,-0.2603125,-0.33975,1.146875,0.019431169734520113,0.020231822430386508,True
1172,64904,0,64905,4309.0,40400.0,40641.0,-0.004758,0.001952,0.0008539999999999999,0.29750000000000004,-1.3650000000000002,-3.8150000000000004,0.9503125,0.208625,0.1521875,1.1694375000000001,0.9110312500000001,-0.26321875,-0.34203125,1.14075,0.019446873675818464,0.0203031022729461,True
1173,64905,0,64906,4309.0,40403.0,40641.0,-0.0013419999999999999,-0.001586,0.000366,0.28,-1.4700000000000002,-3.9025000000000003,0.944125,0.211625,0.15215625,1.16859375,0.9156875,-0.25956250000000003,-0.34034375,1.1465,0.01942275339878862,0.020233896655629607,True
1174,64906,0,64907,4309.0,40404.0,40645.0,0.001098,-0.0018909999999999999,-0.00183,0.24500000000000002,-1.6800000000000002,-3.8325000000000005,0.9433125,0.2085625,0.15,1.17575,0.9155625000000001,-0.2584375,-0.34103125,1.1526875,0.019251033789789634,0.020172984659390717,True
1175,64907,0,64908,4311.0,40404.0,40643.0,0.004331,-0.0013419999999999999,-0.001403,0.2625,-1.4700000000000002,-3.9725000000000006,0.9513125,0.2135,0.1519375,1.16796875,0.92209375,-0.262875,-0.3409375,1.1455625,0.019633905709855074,0.02024880923341593,True
1176,64908,0,64909,4311.0,40403.0,40639.0,0.002806,-0.0021349999999999997,-0.0028669999999999998,0.17500000000000002,-1.3475000000000001,-3.99,0.9440937500000001,0.21228125,0.1496875,1.17509375,0.9155625000000001,-0.259125,-0.34190625,1.154875,0.019432120902959198,0.020195367813480098,True
1177,64909,0,64910,4312.0,40399.0,40634.0,0.0026839999999999998,0.0008539999999999999,-0.001464,0.3325,-1.2075,-4.0075,0.94403125,0.21178125,0.1605625,1.17378125,0.91134375,-0.26009375,-0.339,1.1460937500000001,0.01945066679719653,0.020525185915608694,True
1178,64910,0,64911,4310.0,40396.0,40627.0,-0.00244,-0.000366,0.001403,0.35000000000000003,-1.0675000000000001,-3.8850000000000002,0.9491875000000001,0.21,0.149875,1.17159375,0.92078125,-0.26125,-0.3423125,1.1529375,0.019423978566644337,0.020219422456268277,True
1179,64911,0,64912,4308.0,40392.0,40616.0,-0.004941,0.0,0.002623,0.42000000000000004,-0.9625000000000001,-3.8675,0.94403125,0.21509375,0.152125,1.1686875,0.919625,-0.26028125,-0.34021875,1.14634375,0.019594785200604384,0.020227581151052724,True
1180,64912,0,64913,4306.0,40391.0,40608.0,-0.0026839999999999998,0.001098,0.000122,0.5950000000000001,-1.1725,-3.9375000000000004,0.94378125,0.21356250000000002,0.152625,1.167875,0.915,-0.260125,-0.3390625,1.137625,0.019525352816607503,0.020201579251460485,True
1181,64913,0,64914,4303.0,40391.0,40601.0,-0.000793,-0.000183,0.001647,0.6125,-1.3650000000000002,-4.025,0.94934375,0.208875,0.15046875,1.1729375,0.9095625,-0.26303125,-0.34190625,1.1503125,0.019449599892841087,0.020227462670471832,True
1182,64914,0,64915,4300.0,40387.0,40594.0,-0.000915,-0.001098,0.00122,0.49000000000000005,-1.6800000000000002,-4.130000000000001,0.95140625,0.2083125,0.14921875,1.1675312500000001,0.91890625,-0.26259375,-0.3425625,1.1466875,0.01940873489669669,0.020202525925526533,True
1183,64915,0,64916,4298.0,40383.0,40590.0,0.0013419999999999999,0.0006709999999999999,0.0,0.4025,-1.8725000000000003,-4.112500000000001,0.94353125,0.21275,0.1533125,1.16825,0.9163125,-0.2555,-0.33953125,1.1471875,0.01930489991960586,0.02024869521675772,True
1184,64916,0,64917,4292.0,40384.0,40588.0,0.001586,0.000732,0.000915,0.36750000000000005,-1.9425000000000001,-4.112500000000001,0.938875,0.20821875,0.150125,1.1736875,0.915375,-0.26175,-0.340375,1.15246875,0.01937076880274506,0.02015170267508204,True
1185,64917,0,64918,4290.0,40381.0,40586.0,0.0046359999999999995,0.001037,-0.002562,0.35000000000000003,-1.9250000000000003,-4.235,0.9413750000000001,0.21156250000000001,0.15775,1.17603125,0.91578125,-0.2596875,-0.3399375,1.14703125,0.019425229611881856,0.020447361460973347,True
1186,64918,0,64919,4287.0,40382.0,40584.0,0.00549,0.0021349999999999997,-0.002379,0.4025,-1.9075000000000002,-4.2,0.9513125,0.2086875,0.15221875,1.167875,0.9220625,-0.26315625,-0.341125,1.1459375,0.01944692376944982,0.020267910788839875,True
1187,64919,0,64920,4284.0,40381.0,40583.0,0.000976,0.000366,0.0008539999999999999,0.6300000000000001,-1.5575,-4.2175,0.9440000000000001,0.21184375,0.1530625,1.1680625,0.9157500000000001,-0.26021875,-0.34028125,1.14715625,0.01945829528021053,0.020268613371096523,True
1188,64920,0,64921,4283.0,40382.0,40584.0,-0.003294,-0.000305,0.003843,0.45500000000000007,-1.2075,-4.2875000000000005,0.94834375,0.20815625000000001,0.1491875,1.1730625000000001,0.9135,-0.26384375,-0.34721875,1.1593125,0.019452812376439737,0.020388622417088196,True
1189,64921,0,64922,4280.0,40380.0,40586.0,-0.005307,-0.001281,0.004331,0.45500000000000007,-1.1725,-4.1475,0.9471875000000001,0.2100625,0.15321875000000001,1.16809375,0.9334375,-0.26815625,-0.34240625,1.14475,0.01970560701330576,0.02036055905524952,True
1190,64922,0,64923,4279.0,40382.0,40587.0,-0.0017079999999999999,-0.0011589999999999999,-0.002989,0.22750000000000004,-1.4175000000000002,-4.305000000000001,0.9423125,0.21228125,0.15321875000000001,1.16790625,0.9126875,-0.25896875,-0.3378125,1.14003125,0.01942580514680782,0.020175652598194684,True
1191,64923,0,64924,4278.0,40382.0,40589.0,-0.000366,-0.000183,-0.0028669999999999998,0.12250000000000001,-1.5750000000000002,-4.1825,0.93984375,0.2116875,0.1525,1.1678125,0.9088125,-0.25771875,-0.3385,1.1409375,0.019350799423379417,0.02017379871397169,True
1192,64924,0,64925,4278.0,40384.0,40590.0,0.001586,-0.00122,-0.00488,0.28,-1.7500000000000002,-4.165,0.93684375,0.21084375,0.15246875000000001,1.1683125,0.90678125,-0.2575,-0.3368125,1.1415,0.019307173039266205,0.020104574089149924,True
1193,64925,0,64926,4278.0,40385.0,40595.0,0.00042699999999999997,-0.000183,-0.0053679999999999995,0.49000000000000005,-1.9425000000000001,-4.1475,0.94715625,0.208875,0.151875,1.1733125,0.9096875,-0.256,-0.3430625,1.15325,0.019165361147757257,0.020331768034527294,True
1194,64926,0,64927,4278.0,40385.0,40596.0,0.002745,-0.000183,0.000183,0.77,-2.0475000000000003,-3.9725000000000006,0.9489062500000001,0.2091875,0.15015625,1.174125,0.911375,-0.2529375,-0.34175,1.16453125,0.019054392895705933,0.0202083354730042,True
1195,64927,0,64928,4278.0,40386.0,40600.0,0.003721,-0.000793,0.004514,0.665,-2.0475000000000003,-3.9375000000000004,0.9511875000000001,0.20859375,0.15156250000000002,1.16865625,0.9319375,-0.26687500000000003,-0.34840625000000003,1.1600625,0.019593324233136734,0.020533941518246192,True
1196,64928,0,64929,4279.0,40388.0,40600.0,0.003904,0.001403,0.001464,0.665,-2.0125,-3.7800000000000002,0.94396875,0.21131250000000001,0.1554375,1.1650625000000001,0.9306875,-0.26234375,-0.33846875,1.14125,0.019522279252184777,0.020293234347374463,True
1197,64929,0,64930,4279.0,40389.0,40602.0,0.004148,0.0030499999999999998,0.001403,0.6475000000000001,-1.715,-3.6225000000000005,0.94415625,0.2103125,0.1528125,1.1678125,0.90865625,-0.2579375,-0.339125,1.13740625,0.019302960113571074,0.02021179890402798,True
1198,64930,0,64931,4279.0,40388.0,40606.0,0.0,0.001769,0.00042699999999999997,0.47250000000000003,-1.4175000000000002,-3.6750000000000003,0.94384375,0.21156250000000001,0.15021875,1.1723125,0.9094375,-0.257625,-0.33890625,1.14915625,0.019341856426587516,0.02009642483420963,True
1199,64931,0,64932,4280.0,40389.0,40608.0,-0.001281,0.000122,-0.000915,0.5775,-1.2775,-3.6050000000000004,0.94915625,0.2111875,0.15028125,1.17171875,0.91840625,-0.261125,-0.340125,1.15140625,0.019467872986104313,0.020148057990663566,True
1200,64932,0,64933,4280.0,40389.0,40610.0,-0.0032329999999999998,-0.0023179999999999997,0.000915,0.45500000000000007,-0.9275000000000001,-3.5700000000000003,0.9508125000000001,0.20821875,0.15053125,1.1751875,0.92040625,-0.26171875,-0.34218750000000003,1.15465625,0.019369505715665754,0.02024135053597792,True
1201,64933,0,64934,4282.0,40394.0,40613.0,-0.004148,-0.002745,0.001403,0.45500000000000007,-0.8750000000000001,-3.7100000000000004,0.9507187500000001,0.20878125,0.1541875,1.1736875,0.9243750000000001,-0.260625,-0.343875,1.15375,0.019348481335497335,0.020459458488018032,True
1202,64934,0,64935,4284.0,40392.0,40613.0,-0.002257,-0.000244,0.0011589999999999999,0.5775,-0.8750000000000001,-3.6050000000000004,0.95046875,0.20840625000000002,0.1501875,1.16240625,0.92040625,-0.2638125,-0.34290625,1.150375,0.01946185291367546,0.02025615778724038,True
1203,64935,0,64936,4284.0,40389.0,40613.0,-0.001769,0.0015249999999999999,0.000488,0.43750000000000006,-0.9800000000000001,-3.5525,0.9435625,0.21075,0.152,1.16853125,0.9155625000000001,-0.26071875,-0.34,1.1470625,0.01943342053705643,0.020213640098603124,True
1204,64936,0,64937,4285.0,40393.0,40613.0,6.1e-05,0.0013419999999999999,-0.000793,0.36750000000000005,-1.0325000000000002,-3.5000000000000004,0.9450625,0.21496875000000001,0.1531875,1.1689687500000001,0.90528125,-0.2585,-0.3338125,1.1370625,0.019517643300286495,0.02001330453253061,True
1205,64937,0,64938,4286.0,40389.0,40612.0,0.002013,-6.1e-05,-0.0008539999999999999,0.21000000000000002,-0.9800000000000001,-3.6050000000000004,0.9440625,0.21215625,0.1533125,1.1678125,0.91515625,-0.259625,-0.33978125000000003,1.14653125,0.019447178181855655,0.020258758488225937,True
1206,64938,0,64939,4284.0,40389.0,40613.0,0.0011589999999999999,-0.000488,0.000549,0.2625,-0.8750000000000001,-3.6400000000000006,0.94421875,0.21190625000000002,0.15359375,1.168375,0.9153125,-0.25984375,-0.33896875,1.14615625,0.019445714690557312,0.02023760764309293,True
1207,64939,0,64940,4286.0,40388.0,40609.0,-0.0030499999999999998,0.000549,0.001098,0.3325,-0.7875000000000001,-3.7625,0.94503125,0.21184375,0.1531875,1.16640625,0.91534375,-0.2599375,-0.34009375000000003,1.1476875,0.01944692767654492,0.020266201727345442,True
1208,64940,0,64941,4289.0,40389.0,40606.0,-0.002806,0.000244,-0.00122,0.385,-0.77,-3.8675,0.94453125,0.21140625000000002,0.1530625,1.15796875,0.9158437500000001,-0.26040625,-0.33971875,1.14696875,0.019447840037715776,0.020245971412467534,True
1209,64941,0,64942,4286.0,40388.0,40606.0,-0.004209,0.00061,0.0,0.4025,-0.9275000000000001,-3.8500000000000005,0.94025,0.21,0.14940625,1.17053125,0.916125,-0.26,-0.339875,1.147125,0.019373454245671884,0.020102044484616294,True
1210,64942,0,64943,4286.0,40388.0,40603.0,-0.002745,-0.000122,-0.000305,0.47250000000000003,-1.7500000000000002,-3.99,0.946875,0.21034375,0.1516875,1.1715,0.9156875,-0.25996875,-0.34015625,1.1475312500000001,0.01938636050386504,0.020207090905589403,True
1211,64943,0,64944,4287.0,40386.0,40603.0,0.0018909999999999999,-0.00061,0.0008539999999999999,0.525,-2.1350000000000002,-4.112500000000001,0.94459375,0.21040625000000002,0.1535,1.15671875,0.91540625,-0.25990625,-0.33978125000000003,1.14703125,0.019386410448309133,0.020266461926398784,True
1212,64944,0,64945,4285.0,40385.0,40602.0,0.0025009999999999998,-0.000732,-0.000305,0.5075000000000001,-2.3800000000000003,-4.0600000000000005,0.9400625,0.21278125,0.15421875000000002,1.1651562500000001,0.91559375,-0.25940625,-0.34025,1.1465625,0.019464099621152104,0.020314859132506857,True
1213,64945,0,64946,4285.0,40385.0,40600.0,0.003904,0.0,0.000976,0.47250000000000003,-2.5725000000000002,-4.112500000000001,0.9403750000000001,0.21306250000000002,0.15446875000000002,1.1735625,0.91515625,-0.25809375,-0.3420625,1.1553125,0.019422641154563106,0.020398076374999036,True
1214,64946,0,64947,4284.0,40386.0,40601.0,0.004331,0.00061,0.0,0.385,-2.5900000000000003,-4.165,0.9533125,0.20778125,0.149625,1.18053125,0.9166562500000001,-0.262625,-0.34209375000000003,1.1526875,0.019388102070571508,0.0202003473920562,True
1215,64947,0,64948,4284.0,40386.0,40603.0,0.006527,0.000549,-0.000488,0.22750000000000004,-2.24,-3.99,0.9565,0.20471875,0.152625,1.16146875,0.91978125,-0.260625,-0.339875,1.1456250000000001,0.01918102893062318,0.020234286330558394,True
1216,64948,0,64949,4282.0,40387.0,40607.0,0.003843,6.1e-05,0.00122,0.28,-1.8550000000000002,-4.095000000000001,0.94203125,0.212,0.15221875,1.16178125,0.9156562500000001,-0.2594375,-0.340375,1.14628125,0.019433158744921433,0.020237722302963695,True
1217,64949,0,64950,4282.0,40389.0,40604.0,-0.000915,-0.00122,0.001281,0.31500000000000006,-1.54,-4.112500000000001,0.939125,0.21271875,0.1536875,1.1651562500000001,0.91528125,-0.26015625,-0.33959375,1.14821875,0.019491836537532604,0.0202666180490379,True
1218,64950,0,64951,4282.0,40390.0,40607.0,-0.0044529999999999995,0.000244,-0.0008539999999999999,0.2625,-1.3125000000000002,-4.0075,0.94021875,0.2104375,0.15134375,1.17646875,0.91434375,-0.25971875,-0.34078125,1.14725,0.019380119565483418,0.020218126729190336,True
1219,64951,0,64952,4283.0,40390.0,40606.0,-0.005307,0.0013419999999999999,0.00042699999999999997,0.2625,-1.3475000000000001,-4.112500000000001,0.94159375,0.21309375,0.1544375,1.17390625,0.9160625,-0.26021875,-0.33953125,1.1500000000000001,0.01950981995988804,0.020294916320543355,True
1220,64952,0,64953,4283.0,40390.0,40609.0,-0.002989,-0.000793,-0.002928,0.15750000000000003,-1.6450000000000002,-4.2175,0.9503125,0.21156250000000001,0.15396875000000002,1.1749375,0.91834375,-0.25946875,-0.33590625,1.1515625,0.019416387673369805,0.020129720872835793,True
1221,64953,0,64954,4282.0,40387.0,40610.0,0.000488,-0.001586,-0.002806,0.10500000000000001,-1.9425000000000001,-4.095000000000001,0.9500625,0.2105,0.15296875000000001,1.1633437500000001,0.91934375,-0.2596875,-0.339125,1.14621875,0.019381432675091136,0.020218218608926985,True
1222,64954,0,64955,4283.0,40390.0,40610.0,0.0017079999999999999,-0.0008539999999999999,-0.002074,0.28,-2.0125,-4.077500000000001,0.9441875000000001,0.21231250000000002,0.15021875,1.1729687500000001,0.916125,-0.26103125,-0.34475,1.15325,0.019510454651427894,0.020331642345885664,True
1223,64955,0,64956,4284.0,40391.0,40613.0,0.0035989999999999998,-0.0025009999999999998,-0.00122,0.43750000000000006,-2.1,-4.112500000000001,0.94353125,0.21175,0.152875,1.1641875,0.91625,-0.2586875,-0.3354375,1.13778125,0.0193925372096079,0.02006590183554333,True
1224,64956,0,64957,4283.0,40390.0,40615.0,0.002806,0.000488,0.001281,0.385,-2.1700000000000004,-4.130000000000001,0.95046875,0.20946875,0.15103125,1.170625,0.9101250000000001,-0.25815625000000003,-0.343625,1.16675,0.019277021517247424,0.02031974490241285,True
1225,64957,0,64958,4285.0,40389.0,40615.0,-0.000549,0.000976,0.00244,0.43750000000000006,-2.1,-4.095000000000001,0.944375,0.21253125,0.15559375,1.1715312500000001,0.9095625,-0.2584375,-0.33571875,1.136125,0.019414636659925027,0.020188945518611404,True
1226,64958,0,64959,4284.0,40391.0,40617.0,-0.00042699999999999997,0.000488,0.000915,0.525,-2.0300000000000002,-4.165,0.9490937500000001,0.208125,0.15081250000000002,1.1735625,0.8959375,-0.2575625,-0.337,1.138375,0.019197621360348964,0.020044068701976416,True
1227,64959,0,64960,4287.0,40392.0,40620.0,-0.000366,0.000244,0.002379,0.43750000000000006,-2.0825,-4.1475,0.9516875,0.21431250000000002,0.1519375,1.17540625,0.9148437500000001,-0.25846875,-0.3428125,1.15521875,0.019489327824947732,0.020324274362298934,True
1228,64960,0,64961,4288.0,40393.0,40620.0,6.1e-05,-6.1e-05,0.0026839999999999998,0.36750000000000005,-2.2575000000000003,-4.235,0.9506875,0.20875,0.15,1.17028125,0.92225,-0.2638125,-0.34471875,1.1655,0.01947602010195224,0.020321399276793863,True
1229,64961,0,64962,4287.0,40393.0,40624.0,-0.001647,0.00061,-0.000122,0.47250000000000003,-2.3275,-4.2700000000000005,0.9517187500000001,0.20859375,0.15090625,1.169125,0.9379375,-0.26746875000000003,-0.34890625000000003,1.1583125,0.019617311756093228,0.02052710273177055,True
1230,64962,0,64963,4288.0,40396.0,40626.0,0.000488,0.00122,-0.000366,0.29750000000000004,-2.2750000000000004,-4.322500000000001,0.94521875,0.2101875,0.14903125,1.16975,0.9282812500000001,-0.26775,-0.34890625000000003,1.171625,0.019694347436412525,0.020450097219459295,True
1231,64963,0,64964,4289.0,40396.0,40625.0,0.0011589999999999999,6.1e-05,-0.0026839999999999998,0.28,-2.66,-4.340000000000001,0.9515,0.2085,0.154625,1.1723125,0.9292812500000001,-0.2684375,-0.35100000000000003,1.167375,0.0196525837314413,0.020764034331238964,True
1232,64964,0,64965,4289.0,40395.0,40627.0,0.0040869999999999995,0.00122,-0.003172,0.29750000000000004,-2.5900000000000003,-4.3925,0.9495,0.20790625000000001,0.1491875,1.1759375,0.9267500000000001,-0.26215625,-0.349875,1.16634375,0.019374308497415598,0.020495485089759187,True
1233,64965,0,64966,4289.0,40395.0,40629.0,0.00366,-0.003965,-0.003965,0.42000000000000004,-2.6075000000000004,-4.357500000000001,0.9510000000000001,0.211,0.15246875000000001,1.17309375,0.93334375,-0.26353125,-0.34034375,1.1499375,0.019557386149223435,0.02024673542254308,True
1234,64966,0,64967,4291.0,40395.0,40630.0,-0.0037819999999999998,-0.004026,0.001098,0.56,-2.1175,-4.375,0.9464375,0.211875,0.15221875,1.1604375,0.90909375,-0.2596875,-0.33065625,1.14290625,0.01943811106387912,0.019846361521794136,True
1235,64967,0,64968,4291.0,40399.0,40632.0,-0.003965,-0.00244,0.0028669999999999998,0.77,-1.7675,-4.165,0.9448125,0.211125,0.152125,1.1689375,0.9116562500000001,-0.2604375,-0.33940625,1.14715625,0.01943751014382985,0.02019487431005019,True
1236,64968,0,64969,4293.0,40398.0,40633.0,-0.004514,0.00244,0.0018909999999999999,0.665,-1.8550000000000002,-4.550000000000001,0.9444375,0.21325,0.14975,1.1743125,0.9064375,-0.260125,-0.3405625,1.1466875,0.01951247159691057,0.02014384425175055,True
1237,64969,0,64970,4293.0,40398.0,40634.0,-0.00042699999999999997,0.00042699999999999997,0.000366,0.49000000000000005,-2.0300000000000002,-4.2525,0.943125,0.2081875,0.1549375,1.17390625,0.9176875,-0.25959375,-0.34003125,1.15046875,0.019282320009996048,0.020335583998069028,True
1238,64970,0,64971,4296.0,40398.0,40637.0,0.00671,0.002196,0.000732,0.5075000000000001,-2.205,-4.2875000000000005,0.94928125,0.20953125,0.15059375,1.1709687500000001,0.91328125,-0.2561875,-0.34196875,1.15453125,0.019199997938670287,0.02023511348070398,True
1239,64971,0,64972,4295.0,40398.0,40637.0,0.017263,0.0017079999999999999,-0.000915,0.5425000000000001,-2.2225,-4.532500000000001,0.94959375,0.20921875,0.15146875,1.17159375,0.923125,-0.26021875,-0.3350625,1.1539062500000001,0.019350093452887764,0.019993014195052918,True
1240,64972,0,64973,4296.0,40399.0,40637.0,0.011041,-0.002013,0.002806,0.6825000000000001,-1.5225000000000002,-4.655,0.94871875,0.2091875,0.15278125,1.16846875,0.9221875,-0.2613125,-0.34046875,1.14675,0.01939301511408338,0.02026460562720264,True
1241,64973,0,64974,4297.0,40398.0,40642.0,-0.006771,0.001647,-0.00488,0.77,-0.15750000000000003,-4.7075000000000005,0.9435,0.2114375,0.15365625,1.16840625,0.91540625,-0.259625,-0.33959375,1.1493125,0.019417550765933107,0.02026533413278519,True
1242,64974,0,64975,4298.0,40399.0,40641.0,-0.011712,0.009577,0.001769,0.805,1.3125000000000002,-4.445,0.9434375,0.20809375,0.14946875,1.17359375,0.9204375,-0.2626875,-0.343,1.14634375,0.019403507958465033,0.020230405044571336,True
1243,64975,0,64976,4300.0,40399.0,40644.0,-0.022203999999999998,-0.0051849999999999995,0.00488,0.6475000000000001,1.7675,-3.9725000000000006,0.94334375,0.2159375,0.1525625,1.1597187500000001,0.9159375000000001,-0.25975,-0.33915625,1.14975,0.01960809571409433,0.02020278537798532,True
1244,64976,0,64977,4299.0,40401.0,40643.0,-0.0064659999999999995,-0.00061,-0.000488,0.6125,0.08750000000000001,-4.655,0.9314375,0.21228125,0.15375,1.16390625,0.922875,-0.26109375,-0.343125,1.1526875,0.019511692460279124,0.020411307093892012,True
1245,64977,0,64978,4301.0,40396.0,40638.0,-0.011833999999999999,-0.000915,-0.000488,0.7525000000000001,-0.6475000000000001,-4.4275,0.93071875,0.21431250000000002,0.15534375,1.162125,0.92303125,-0.26156250000000003,-0.34275,1.1495312500000001,0.01961435913288767,0.02046168777151308,True
1246,64978,0,64979,4300.0,40395.0,40630.0,-0.001037,0.003111,-0.0028669999999999998,0.45500000000000007,-1.3475000000000001,-4.777500000000001,0.94478125,0.209375,0.14975,1.1795,0.922875,-0.25828125,-0.34278125,1.148625,0.019278210404951916,0.02023315433605188,True
1247,64979,0,64980,4297.0,40391.0,40621.0,0.003294,-0.003843,-0.00244,0.24500000000000002,-2.415,-4.4625,0.9586875,0.20378125,0.1480625,1.1721875,0.9063125,-0.25846875,-0.339875,1.146125,0.019055201083126902,0.02004683672368901,True
1248,64980,0,64981,4295.0,40389.0,40610.0,0.002562,0.0028669999999999998,0.002379,0.15750000000000003,-3.1500000000000004,-4.340000000000001,0.96025,0.2076875,0.15371875000000002,1.16103125,0.9146875,-0.25909375,-0.3395,1.14396875,0.019241495779288954,0.020264128268863372,True
1249,64981,0,64982,4293.0,40386.0,40599.0,0.012139,-0.0023179999999999997,-0.000488,-0.052500000000000005,-4.095000000000001,-4.2875000000000005,0.9380000000000001,0.2131875,0.16228125000000002,1.15715625,0.91803125,-0.25946875,-0.34146875,1.1526875,0.019483371827752824,0.02069513574442791,True
1250,64982,0,64983,4288.0,40385.0,40592.0,0.013542,0.00671,0.001037,0.15750000000000003,-4.2175,-4.445,0.93821875,0.21378125,0.156125,1.17184375,0.921125,-0.26203125,-0.34353125,1.1536250000000001,0.01961140413583467,0.020525216529545195,True
1251,64983,0,64984,4284.0,40384.0,40586.0,0.012688,0.000488,-0.001586,0.12250000000000001,-3.6750000000000003,-4.1825,0.94884375,0.20215625,0.151625,1.16246875,0.9220625,-0.26003125,-0.33640625,1.14725,0.019051397553331673,0.020053546320135087,True
1252,64984,0,64985,4281.0,40380.0,40582.0,-0.000793,-0.002257,-0.005795,0.21000000000000002,-3.1675000000000004,-3.8675,0.93090625,0.21181250000000001,0.15121875,1.1793437500000001,0.91628125,-0.26265625,-0.34209375000000003,1.15315625,0.019555515484830727,0.020265820395996136,True
1253,64985,0,64986,4275.0,40379.0,40580.0,-0.0030499999999999998,0.005795,0.003355,0.56,-2.7475,-3.9725000000000006,0.9573125,0.20853125,0.1534375,1.1630625,0.9139375000000001,-0.2601875,-0.337125,1.147375,0.019320491649126786,0.02015696184327442,True
1254,64986,0,64987,4274.0,40379.0,40576.0,-0.007442,-0.002928,-0.003294,0.36750000000000005,-2.5375,-4.2525,0.939125,0.2108125,0.15371875000000002,1.16825,0.92096875,-0.26321875,-0.34365625,1.1465,0.019537030716503763,0.020431400891145923,True
1255,64987,0,64988,4270.0,40378.0,40575.0,-0.007991,0.004575,-0.002806,0.5075000000000001,-2.5900000000000003,-4.0075,0.94278125,0.21090625000000002,0.152375,1.1731875,0.91603125,-0.25915625000000003,-0.34296875,1.1553437500000001,0.019376704414441455,0.02034853493372701,True
1256,64988,0,64989,4267.0,40376.0,40576.0,-0.00244,-0.00122,0.007259,0.6125,-2.8175000000000003,-3.7800000000000002,0.95096875,0.21106250000000001,0.15325,1.16975,0.92209375,-0.26284375,-0.34071875,1.13815625,0.01953218076508447,0.02029392620133701,True
1257,64989,0,64990,4264.0,40377.0,40579.0,0.002745,0.000793,-0.001769,0.42000000000000004,-3.535,-4.077500000000001,0.944875,0.2114375,0.15284375,1.16809375,0.9157500000000001,-0.2593125,-0.34,1.14603125,0.01940491924492914,0.0202483052588332,True
1258,64990,0,64991,4262.0,40380.0,40580.0,0.01159,6.1e-05,-0.000122,0.42000000000000004,-4.1475,-4.235,0.94334375,0.20884375,0.1511875,1.17528125,0.91953125,-0.2626875,-0.34225,1.1525,0.019434419620662387,0.020270825416713736,True
1259,64991,0,64992,4262.0,40378.0,40580.0,0.015493999999999999,0.003172,-0.002013,0.29750000000000004,-3.2725000000000004,-3.9725000000000006,0.94946875,0.21146875,0.1554375,1.16884375,0.915875,-0.259375,-0.33984375,1.14721875,0.019408733736957364,0.02034857968223399,True
1260,64992,0,64993,4260.0,40378.0,40582.0,0.0048189999999999995,-0.000793,-0.003294,0.14,-2.0300000000000002,-3.5875000000000004,0.9443125,0.20990625000000002,0.15121875,1.169125,0.9214687500000001,-0.26296875000000003,-0.34318750000000003,1.14671875,0.01948957709472383,0.020309840278722745,True
1261,64993,0,64994,4259.0,40379.0,40586.0,-0.00366,-0.0021349999999999997,0.0057339999999999995,0.6825000000000001,-0.665,-2.9925,0.9460937500000001,0.21171875,0.15131250000000002,1.1686875,0.91525,-0.26,-0.339375,1.146625,0.01944430131904369,0.020160234188429244,True
1262,64994,0,64995,4259.0,40381.0,40586.0,-0.017934,0.000915,-0.0032329999999999998,-0.08750000000000001,0.1925,-3.3950000000000005,0.94434375,0.21153125,0.15271875000000001,1.16640625,0.91509375,-0.25803125,-0.34228125,1.1500000000000001,0.019356991305714475,0.02033498811866698,True
1263,64995,0,64996,4258.0,40380.0,40591.0,-0.009943,6.1e-05,-0.000122,0.665,0.10500000000000001,-3.0625000000000004,0.94453125,0.21153125,0.1535625,1.16771875,0.9205,-0.2625,-0.342375,1.14128125,0.019537609479649665,0.020373422889097714,True
1264,64996,0,64997,4257.0,40379.0,40592.0,-0.006954,0.000122,-0.010248,0.385,0.7175,-2.345,0.94459375,0.2119375,0.15440625,1.1686875,0.9161875,-0.26009375,-0.338625,1.1480000000000001,0.019457107415341297,0.020257152982142583,True
1265,64997,0,64998,4257.0,40380.0,40592.0,0.0064659999999999995,0.026718,-0.003477,0.8925000000000001,1.1900000000000002,-1.7500000000000002,0.9438125,0.21106250000000001,0.1519375,1.16834375,0.918125,-0.26006250000000003,-0.3394375,1.1475312500000001,0.01941977684517507,0.02018842875888155,True
1266,64998,0,64999,4258.0,40381.0,40596.0,-0.03782,-0.016531,-0.010919,0.7875000000000001,1.8550000000000002,0.6475000000000001,0.9353125,0.21175,0.15303125,1.16840625,0.91496875,-0.2589375,-0.33959375,1.14728125,0.01940264284039645,0.020239655807730975,True
1267,64999,0,65000,4258.0,40383.0,40597.0,-0.018543999999999998,0.013542,0.016958,-0.17500000000000002,1.5750000000000002,-2.975,0.9361875000000001,0.21231250000000002,0.1586875,1.1694375000000001,0.915625,-0.2595,-0.33925,1.151875,0.019448566540942725,0.020458210503610425,True
1268,65000,0,65001,4257.0,40383.0,40598.0,-0.0040869999999999995,-0.008113,0.007137,2.0300000000000002,-2.0300000000000002,-0.9100000000000001,0.94425,0.20740625000000001,0.15228125,1.17015625,0.92290625,-0.26021875,-0.34071875,1.13821875,0.01927538266735538,0.020254126637078044,True
1269,65001,0,65002,4257.0,40380.0,40599.0,0.009577,-0.016714,-0.002196,-0.665,-5.1625000000000005,-4.445,0.94334375,0.21209375,0.1524375,1.168125,0.9165,-0.2598125,-0.33971875,1.1468125,0.019452180432144726,0.020220293219287918,True
1270,65002,0,65003,4257.0,40380.0,40598.0,0.038308,-0.016958,-0.012383,-0.35000000000000003,-7.2975,-1.54,0.94134375,0.2115,0.15334375,1.1685,0.9159375000000001,-0.25928125,-0.33621875,1.14640625,0.019406232408472533,0.020116621445145418,True
1271,65003,0,65004,4259.0,40381.0,40599.0,0.028304,0.017811999999999998,-0.010919,-0.385,-5.1275,-2.6775,0.9449375,0.21234375,0.1536875,1.16840625,0.9160625,-0.2591875,-0.33909375,1.1450625,0.019437223526138293,0.020246491305782495,True
1272,65004,0,65005,4259.0,40381.0,40599.0,0.002989,0.009333,-0.02257,-0.49000000000000005,-3.325,-2.66,0.94775,0.21415625,0.15275,1.17221875,0.92096875,-0.262,-0.341625,1.1531875,0.01962559764240376,0.020309860167511413,True
1273,65005,0,65006,4261.0,40381.0,40596.0,0.000183,0.009943,-0.014884,-0.15750000000000003,-2.6425,-1.715,0.94828125,0.210625,0.15271875000000001,1.1683125,0.92096875,-0.2598125,-0.34009375000000003,1.1471875,0.019391637919707747,0.02024694337917248,True
1274,65006,0,65007,4259.0,40380.0,40598.0,-0.007076,-0.0035989999999999998,0.005124,0.56,-1.8725000000000003,-2.6075000000000004,0.93765625,0.2114375,0.15278125,1.16871875,0.915125,-0.2594375,-0.34059375000000003,1.1465625,0.019409971892382086,0.020269637013271297,True
1275,65007,0,65008,4259.0,40379.0,40593.0,-0.009943,-0.006344,0.017995,0.8225000000000001,-1.3125000000000002,-2.5200000000000005,0.9444375,0.21221875,0.1533125,1.1685625,0.91596875,-0.25925,-0.33918750000000003,1.1456875,0.019434597112441644,0.02023485788093789,True
1276,65008,0,65009,4258.0,40378.0,40593.0,-0.015189,6.1e-05,0.01464,0.9625000000000001,-1.0325000000000002,-2.3975000000000004,0.9445625,0.21131250000000001,0.1530625,1.1685,0.912625,-0.25434375,-0.3383125,1.14321875,0.019198880612879908,0.020189361937069383,True
1277,65009,0,65010,4258.0,40379.0,40590.0,-0.008967,0.0048189999999999995,0.010187,0.7875000000000001,-1.0150000000000001,-2.5725000000000002,0.95140625,0.20750000000000002,0.1484375,1.1721875,0.91459375,-0.2665,-0.33778125000000003,1.1596250000000001,0.019533101188881793,0.019977940676083612,True
1278,65010,0,65011,4258.0,40380.0,40591.0,-0.006405,0.00793,0.0,0.36750000000000005,-1.61,-2.8175000000000003,0.954875,0.213,0.15375,1.17103125,0.9294687500000001,-0.26184375,-0.34450000000000003,1.15884375,0.019571626744154594,0.020466635174269342,True
1279,65011,0,65012,4257.0,40376.0,40586.0,0.002196,0.0015249999999999999,-0.003843,-0.22750000000000004,-2.87,-3.5525,0.9380937500000001,0.20721875,0.15528125,1.166375,0.9308125,-0.26503125,-0.3393125,1.15875,0.019462163272507636,0.020320777343238436,True
1280,65012,0,65013,4254.0,40377.0,40585.0,0.012139,-0.002745,-0.001464,-0.24500000000000002,-3.0975,-3.9200000000000004,0.93196875,0.216,0.1535625,1.182125,0.9285,-0.263625,-0.34471875,1.15878125,0.01976724417724062,0.020467734916839,True
1281,65013,0,65014,4254.0,40372.0,40584.0,0.0064659999999999995,-0.0068319999999999995,-0.002623,-0.42000000000000004,-3.3425000000000002,-4.130000000000001,0.96365625,0.2045625,0.14665625000000002,1.15728125,0.9263125,-0.26059375,-0.33921875,1.14284375,0.019173325055162758,0.019962637461401676,True
1282,65014,0,65015,4254.0,40374.0,40585.0,0.006161,-0.003721,-0.0051849999999999995,-0.22750000000000004,-3.0100000000000002,-4.1475,0.9332812500000001,0.21540625,0.15887500000000002,1.16459375,0.9119375000000001,-0.2575,-0.33625,1.1515625,0.019495259198186128,0.020345164107041964,True
1283,65015,0,65016,4251.0,40371.0,40581.0,0.002806,-0.0011589999999999999,-0.006771,-0.15750000000000003,-2.5725000000000002,-3.8675,0.9530000000000001,0.20965625000000002,0.144125,1.189125,0.92875,-0.2665625,-0.3443125,1.14046875,0.019624483278173413,0.020063721249059713,True
1284,65016,0,65017,4250.0,40372.0,40580.0,0.002806,-0.002379,-0.002257,0.15750000000000003,-2.0475000000000003,-4.025,0.9703437500000001,0.204625,0.14859375,1.170125,0.90690625,-0.2594375,-0.33815625,1.14340625,0.01912915334496111,0.019999460723324102,True
1285,65017,0,65018,4250.0,40373.0,40580.0,0.001647,0.000366,0.003965,0.43750000000000006,-1.6975000000000002,-4.130000000000001,0.9450937500000001,0.21246875,0.1559375,1.1605,0.904625,-0.25796875,-0.33778125000000003,1.14478125,0.019393111799601938,0.020286103524740987,True
1286,65018,0,65019,4250.0,40372.0,40580.0,-0.001037,-0.001037,0.006527,0.36750000000000005,-1.3125000000000002,-4.112500000000001,0.932,0.21578125,0.1574375,1.1615312500000001,0.91296875,-0.26315625,-0.34059375000000003,1.15253125,0.019739290925928073,0.020460932675481675,True
1287,65019,0,65020,4249.0,40372.0,40582.0,-0.0073809999999999995,-0.0006709999999999999,0.0046359999999999995,0.17500000000000002,-0.665,-4.0600000000000005,0.9570625,0.2030625,0.1455625,1.1750625000000001,0.90734375,-0.26115625,-0.3400625,1.14646875,0.019134238501101943,0.019951674322939802,True
1288,65020,0,65021,4248.0,40370.0,40582.0,-0.011224,0.00061,0.004697,0.0,-0.5425000000000001,-4.165,0.9403750000000001,0.21406250000000002,0.15840625,1.16140625,0.91525,-0.25965625000000003,-0.33975,1.15196875,0.019527018236295088,0.020466777596318778,True
1289,65021,0,65022,4250.0,40372.0,40582.0,-0.000915,0.0,-0.003843,-0.22750000000000004,-1.2075,-4.0600000000000005,0.9381875000000001,0.209125,0.1559375,1.174625,0.92315625,-0.2624375,-0.34021875,1.1539375,0.019435907871993487,0.0203842149117908,True
1290,65022,0,65023,4250.0,40374.0,40583.0,0.0073809999999999995,-0.000549,-0.00793,-0.36750000000000005,-1.8025000000000002,-4.2525,0.94375,0.21131250000000001,0.153125,1.16871875,0.91828125,-0.25925,-0.3400625,1.1470625,0.019397240227954284,0.0202623760723704,True
1291,65023,0,65024,4248.0,40372.0,40584.0,0.008296,-0.000732,-0.01342,-0.1925,-1.8200000000000003,-4.130000000000001,0.9478125000000001,0.2106875,0.149125,1.166375,0.9158437500000001,-0.26156250000000003,-0.34178125,1.153,0.01946494583768049,0.020167227901614636,True
1292,65024,0,65025,4248.0,40372.0,40585.0,0.01098,0.000122,-0.009882,0.24500000000000002,-1.5925000000000002,-3.8150000000000004,0.943875,0.21184375,0.152875,1.1714375000000001,0.91625,-0.25909375,-0.33921875,1.152625,0.019412823284051986,0.02021814073222872,True
1293,65025,0,65026,4250.0,40375.0,40586.0,0.013786,-0.00366,0.005978,0.6300000000000001,-1.2600000000000002,-3.7450000000000006,0.9500625,0.20759375,0.150375,1.16825,0.92321875,-0.26328125,-0.33996875,1.14690625,0.01940689699584635,0.020145619537822946,True
1294,65026,0,65027,4250.0,40373.0,40586.0,0.0077469999999999995,6.1e-05,0.004575,1.1375000000000002,0.22750000000000004,-3.8150000000000004,0.94440625,0.2111875,0.15609375,1.16784375,0.9153125,-0.26,-0.33428125000000003,1.1454375,0.01942240313272877,0.020151612244557256,True
1295,65027,0,65028,4250.0,40376.0,40587.0,0.00042699999999999997,0.004575,0.0075639999999999995,1.225,1.2950000000000002,-3.6750000000000003,0.94421875,0.21728125,0.15221875,1.16825,0.9156562500000001,-0.25946875,-0.3393125,1.1468125,0.019652120370525425,0.020194952096531077,True
1296,65028,0,65029,4250.0,40376.0,40590.0,-0.011346,0.002806,0.010492,1.2600000000000002,2.6425,-3.4125000000000005,0.94475,0.20734375,0.149625,1.1708125,0.91571875,-0.25940625,-0.3430625,1.15275,0.01923995975787742,0.020239339236794877,True
1297,65029,0,65030,4252.0,40377.0,40591.0,-0.019642,-0.000183,0.004148,0.8400000000000001,3.6925000000000003,-3.3075,0.94384375,0.2111875,0.15278125,1.16859375,0.9158125,-0.25921875,-0.3395625,1.1375,0.019390824364449083,0.020228126532676995,True
1298,65030,0,65031,4250.0,40378.0,40591.0,-0.016226,0.003538,-0.0048189999999999995,0.56,3.115,-3.0100000000000002,0.94453125,0.21078125,0.15321875000000001,1.1689687500000001,0.915125,-0.25903125,-0.33978125000000003,1.1353125,0.019366498816806625,0.020254906769139516,True
1299,65031,0,65032,4251.0,40378.0,40592.0,-0.007625,-0.001281,-0.0032329999999999998,0.5775,2.4675000000000002,-3.1850000000000005,0.9440000000000001,0.2116875,0.1525,1.1723125,0.9156875,-0.258625,-0.33934375,1.149,0.019387434366127512,0.02020776546204127,True
1300,65032,0,65033,4252.0,40379.0,40593.0,-0.005063,-0.005795,-0.002562,0.5075000000000001,1.8550000000000002,-3.2375000000000003,0.9390000000000001,0.20984375,0.15234375,1.1683125,0.923125,-0.26290625,-0.3408125,1.1469375,0.01948447540162259,0.020260467887010757,True
1301,65033,0,65034,4252.0,40377.0,40593.0,-0.004697,-0.001464,-0.0013419999999999999,0.43750000000000006,1.2075,-3.2025,0.947875,0.21125,0.152875,1.1681875,0.9087500000000001,-0.26056250000000003,-0.34196875,1.15259375,0.019447714784024486,0.020328830222493818,True
1302,65034,0,65035,4254.0,40376.0,40597.0,-0.003904,0.0013419999999999999,-0.001403,0.665,0.28,-3.1500000000000004,0.94359375,0.211375,0.15309375,1.1739375,0.90471875,-0.259125,-0.33928125000000003,1.1475312500000001,0.019394763825983007,0.02022964420939916,True
1303,65035,0,65036,4254.0,40378.0,40597.0,0.005978,-0.000915,0.000915,0.8400000000000001,-1.5925000000000002,-3.3600000000000003,0.95125,0.21025,0.1520625,1.168875,0.9160625,-0.256875,-0.3403125,1.14690625,0.01925742701811342,0.020228787120132496,True
1304,65036,0,65037,4252.0,40378.0,40598.0,0.009028,-0.0013419999999999999,0.000366,0.9975,-1.995,-3.5175000000000005,0.943625,0.21153125,0.15081250000000002,1.1754375000000001,0.9161875,-0.258875,-0.33815625,1.15209375,0.01939109913382216,0.020090624161392668,True
1305,65037,0,65038,4255.0,40375.0,40598.0,0.0030499999999999998,0.000549,0.000488,0.8750000000000001,-2.0825,-3.4825000000000004,0.9524375,0.20796875,0.15540625,1.1750625000000001,0.9185,-0.2605,-0.34090625,1.15015625,0.019309937965004843,0.02039005840220103,True
1306,65038,0,65039,4254.0,40378.0,40598.0,0.00061,0.000549,0.002745,0.9625000000000001,-2.2750000000000004,-3.3600000000000003,0.95178125,0.211125,0.14934375,1.17590625,0.91825,-0.25921875,-0.3395,1.15065625,0.019388248024269125,0.020084379301136015,True
1307,65039,0,65040,4255.0,40376.0,40600.0,-0.0017079999999999999,0.0018909999999999999,0.00244,0.9100000000000001,-2.4850000000000003,-3.6050000000000004,0.95278125,0.21078125,0.15215625,1.1763125,0.92215625,-0.26028125,-0.3345,1.1514375000000001,0.019417025513667533,0.019998613080194787,True
1308,65040,0,65041,4255.0,40376.0,40599.0,0.0006709999999999999,0.0040869999999999995,0.001281,0.8750000000000001,-3.2900000000000005,-3.6750000000000003,0.95084375,0.21065625000000002,0.14928125,1.17428125,0.92071875,-0.25925,-0.3415625,1.15225,0.019370188690911713,0.02016484151335807,True
1309,65041,0,65042,4255.0,40378.0,40602.0,0.003355,0.003172,0.002806,0.77,-3.4125000000000005,-3.7975000000000003,0.9475,0.20965625000000002,0.1514375,1.17409375,0.9198437500000001,-0.25678125,-0.34240625,1.160875,0.01922915885635074,0.02028738428437,True
1310,65042,0,65043,4255.0,40376.0,40602.0,0.0050019999999999995,0.000549,-0.00366,0.7875000000000001,-3.9725000000000006,-3.9550000000000005,0.9505,0.20815625000000001,0.15006250000000002,1.17490625,0.9323125,-0.2651875,-0.34159375000000003,1.160375,0.019507112813366888,0.02019819470530766,True
1311,65043,0,65044,4256.0,40379.0,40603.0,0.014335,0.002196,-0.005429,0.8225000000000001,-4.4275,-4.2875000000000005,0.9508125000000001,0.20896875,0.15003125,1.1731875,0.9194375,-0.26490625,-0.3425,1.15484375,0.019529232675275638,0.020233388107219884,True
1312,65044,0,65045,4257.0,40376.0,40599.0,0.010248,-0.0055509999999999995,0.002074,0.8400000000000001,-3.4650000000000003,-3.8325000000000005,0.94078125,0.20975,0.15103125,1.16978125,0.9241875,-0.26,-0.33565625,1.1341875000000001,0.019363149216817806,0.0199989470183283,True
1313,65045,0,65046,4257.0,40371.0,40592.0,-0.00549,-0.0018909999999999999,0.000549,0.6300000000000001,-1.435,-4.165,0.94646875,0.21628125,0.15106250000000002,1.17559375,0.9087500000000001,-0.25575000000000003,-0.33815625,1.147375,0.019460591818434805,0.020100896098076453,True
1314,65046,0,65047,4254.0,40369.0,40582.0,-0.0023179999999999997,-0.000366,-0.002074,0.6300000000000001,-1.4525000000000001,-4.130000000000001,0.9509062500000001,0.209,0.15171875,1.17378125,0.9243750000000001,-0.26215625,-0.34484375,1.15775,0.01941938899185846,0.020397029658487748,True
1315,65047,0,65048,4252.0,40366.0,40572.0,-0.000244,0.000244,-0.001769,0.5775,-1.4525000000000001,-4.1475,0.95140625,0.2091875,0.15459375,1.1751875,0.92971875,-0.26390625,-0.34128125,1.1591875,0.019497839512135434,0.020371770693048456,True
1316,65048,0,65049,4246.0,40364.0,40562.0,-0.0046359999999999995,-0.0018909999999999999,0.0032329999999999998,0.5425000000000001,-1.225,-4.235,0.951375,0.21053125,0.154,1.1698125,0.93365625,-0.26340625,-0.33668750000000003,1.1416250000000001,0.01953301589713934,0.0201624604827588,True
1317,65049,0,65050,4244.0,40361.0,40555.0,-0.009211,-0.001464,0.001403,0.6300000000000001,-1.2600000000000002,-4.235,0.94678125,0.21146875,0.1529375,1.167875,0.91071875,-0.257375,-0.33571875,1.14146875,0.01932788481853457,0.020079795259796876,True
1318,65050,0,65051,4240.0,40356.0,40547.0,-0.002257,0.0015249999999999999,-0.002745,0.5425000000000001,-2.4675000000000002,-4.2525,0.9433125,0.21178125,0.15590625,1.16759375,0.90846875,-0.2593125,-0.33868750000000003,1.16409375,0.0194190890611595,0.020321299166193744,True
1319,65051,0,65052,4234.0,40356.0,40541.0,-0.009394,-0.005673,0.002013,0.385,-2.66,-4.0075,0.9501875000000001,0.2076875,0.15084375,1.17290625,0.9305625000000001,-0.2665625,-0.3435625,1.157,0.019543353122223224,0.020309527416129007,True
1320,65052,0,65053,4230.0,40354.0,40537.0,-0.002074,-0.000305,-0.0017079999999999999,0.45500000000000007,-3.3775000000000004,-4.130000000000001,0.9398125,0.2149375,0.15056250000000002,1.17378125,0.9285625000000001,-0.26184375,-0.33984375,1.15346875,0.0196514846486059,0.020148290804044296,True
1321,65053,0,65054,4224.0,40350.0,40533.0,0.006222,-0.002074,-0.00732,0.665,-4.375,-3.9200000000000004,0.94840625,0.21028125,0.15225,1.1755,0.915,-0.26034375,-0.34018750000000003,1.15021875,0.019398941946154408,0.020231458775738686,True
1322,65054,0,65055,4220.0,40351.0,40531.0,0.008723,0.001403,-0.005673,0.805,-5.0925,-3.6925000000000003,0.94546875,0.21103125,0.15259375,1.16746875,0.918375,-0.26021875,-0.33934375,1.14734375,0.019424804238420152,0.020211617250362388,True
1323,65055,0,65056,4218.0,40349.0,40527.0,0.0057339999999999995,0.000305,-0.0008539999999999999,1.2950000000000002,-5.0575,-3.5175000000000005,0.9445,0.20975,0.152125,1.1721875,0.91534375,-0.25975,-0.33490625,1.14940625,0.01935304362163666,0.020013689183618698,True
1324,65056,0,65057,4213.0,40346.0,40527.0,0.005429,0.0050019999999999995,-0.000183,1.4700000000000002,-4.760000000000001,-3.6050000000000004,0.94471875,0.21106250000000001,0.152375,1.1684375,0.9165,-0.25975,-0.33921875,1.1468125,0.019407145580642833,0.020197597755679815,True
1325,65057,0,65058,4210.0,40349.0,40530.0,0.00122,0.003172,0.002379,1.6800000000000002,-4.567500000000001,-3.7100000000000004,0.944375,0.21128125,0.153125,1.16853125,0.916125,-0.25959375,-0.340125,1.1468125,0.01940984687758838,0.020264891819577757,True
1326,65058,0,65059,4211.0,40351.0,40530.0,-0.00122,0.001952,0.009637999999999999,1.8025000000000002,-4.48,-4.0425,0.9439375,0.21171875,0.1575,1.1718125,0.9150312500000001,-0.25846875,-0.34075,1.1537187500000001,0.019382406401888003,0.020469788317944188,True
1327,65059,0,65060,4210.0,40351.0,40532.0,-0.003538,0.001952,0.009516,1.8550000000000002,-4.2700000000000005,-4.2,0.9473125,0.2095625,0.1536875,1.16890625,0.92321875,-0.2621875,-0.34015625,1.14271875,0.019443836216334574,0.020289259646802803,True
1328,65060,0,65061,4208.0,40351.0,40534.0,-0.007503,0.000549,0.0044529999999999995,1.4000000000000001,-4.567500000000001,-4.2525,0.9440625,0.21025,0.15115625,1.1681875,0.91571875,-0.26134375,-0.34165625,1.14725,0.019438072138935007,0.020245643720319974,True
1329,65061,0,65062,4207.0,40351.0,40535.0,0.000183,0.003172,-0.003721,1.2075,-5.197500000000001,-4.550000000000001,0.9448125,0.21171875,0.15059375,1.17584375,0.91615625,-0.25940625,-0.33968750000000003,1.152125,0.019420302176604176,0.020143284501906607,True
1330,65062,0,65063,4209.0,40352.0,40538.0,0.0044529999999999995,0.001647,-0.009211,1.2950000000000002,-5.705000000000001,-4.7075000000000005,0.9458125000000001,0.21165625000000002,0.153375,1.17665625,0.91925,-0.26015625,-0.33725,1.1520625,0.019448040446977746,0.020159426393696903,True
1331,65063,0,65064,4209.0,40355.0,40536.0,0.005795,0.0008539999999999999,-0.005429,1.4175000000000002,-6.142500000000001,-4.812500000000001,0.95925,0.20534375,0.151125,1.16796875,0.92234375,-0.26290625,-0.340625,1.1464375,0.019299007100602384,0.02020285017332135,True
1332,65064,0,65065,4210.0,40353.0,40542.0,0.004331,-0.001769,0.000122,1.435,-6.2475000000000005,-5.0925,0.9276875,0.21284375,0.15446875000000002,1.17903125,0.91696875,-0.2591875,-0.34234375,1.15440625,0.019457834274128102,0.02040939463768767,True
1333,65065,0,65066,4211.0,40355.0,40544.0,0.0068319999999999995,0.000122,0.0042699999999999995,1.435,-6.0200000000000005,-5.390000000000001,0.9539375,0.21303125,0.150375,1.1700625,0.92478125,-0.26321875,-0.33978125000000003,1.14728125,0.019628475714913135,0.020138071290184665,True
1334,65066,0,65067,4210.0,40355.0,40546.0,0.006039,0.00183,0.0060999999999999995,1.4525000000000001,-5.7225,-5.652500000000001,0.9413750000000001,0.21253125,0.1570625,1.16540625,0.91640625,-0.25878125,-0.3395,1.15128125,0.019428531678606073,0.020401507837054994,True
1335,65067,0,65068,4213.0,40359.0,40550.0,0.004026,0.00042699999999999997,0.005673,1.1725,-5.53,-5.635000000000001,0.9520000000000001,0.20575000000000002,0.14790625000000002,1.1729687500000001,0.9245,-0.26115625,-0.3398125,1.14659375,0.01924501228172091,0.020037900867149246,True
1336,65068,0,65069,4212.0,40361.0,40555.0,0.00183,0.0021349999999999997,0.006344,0.9800000000000001,-5.3025,-5.7225,0.9395625,0.21275,0.15471875000000002,1.16521875,0.91590625,-0.2593125,-0.3343125,1.15021875,0.019459022179626896,0.020096365985272854,True
1337,65069,0,65070,4212.0,40362.0,40555.0,0.0008539999999999999,0.0051849999999999995,0.0023179999999999997,0.805,-4.952500000000001,-6.0025,0.9449375,0.2080625,0.14775,1.17928125,0.922,-0.263125,-0.3415625,1.14625,0.019419901599649673,0.02010193470530086,True
1338,65070,0,65071,4216.0,40361.0,40558.0,0.006344,-0.002013,-0.001098,0.0175,-4.1825,-6.107500000000001,0.9413750000000001,0.2115,0.1550625,1.18153125,0.91559375,-0.25971875,-0.3415,1.1509375,0.019423916445857396,0.020399831563379416,True
1339,65071,0,65072,4215.0,40361.0,40562.0,0.0064659999999999995,-0.001647,-0.0046359999999999995,-0.17500000000000002,-3.5175000000000005,-6.055000000000001,0.951125,0.21171875,0.15453125,1.1751562500000001,0.916375,-0.25984375,-0.33884375,1.151125,0.01943798586913817,0.020271094431098438,True
1340,65072,0,65073,4215.0,40363.0,40561.0,0.006161,-0.002379,-0.005063,-0.28,-2.765,-5.8100000000000005,0.958375,0.20959375,0.15371875000000002,1.165375,0.92021875,-0.259875,-0.33921875,1.14684375,0.019351655769042502,0.020252807005155003,True
1341,65073,0,65074,4218.0,40362.0,40563.0,0.001952,-0.003904,-0.0050019999999999995,-0.3325,-1.7675,-5.5825000000000005,0.94684375,0.20984375,0.153,1.16603125,0.92071875,-0.2609375,-0.33965625,1.14759375,0.019404907580343914,0.020240887748774184,True
1342,65074,0,65075,4219.0,40364.0,40565.0,0.000366,-0.002623,-0.0032329999999999998,-0.45500000000000007,-0.7350000000000001,-5.53,0.9430937500000001,0.21490625,0.15190625,1.17509375,0.9156875,-0.25909375,-0.34068750000000003,1.15259375,0.019539064603351062,0.020237462479233588,True
1343,65075,0,65076,4220.0,40365.0,40566.0,-0.0037819999999999998,-0.0011589999999999999,-0.004331,-0.525,0.525,-5.215000000000001,0.9505625,0.2104375,0.15259375,1.168625,0.919875,-0.25946875,-0.3404375,1.1475312500000001,0.019370014028027717,0.02025564454213282,True
1344,65076,0,65077,4220.0,40366.0,40565.0,-0.0040869999999999995,0.002013,-0.004209,-0.665,1.0675000000000001,-5.0575,0.9440625,0.21171875,0.15090625,1.1749375,0.916625,-0.25921875,-0.338375,1.15990625,0.01941272325597872,0.02010328339505,True
1345,65077,0,65078,4222.0,40365.0,40566.0,-0.009089,-0.003538,-0.003172,-0.47250000000000003,1.12,-4.515000000000001,0.948125,0.2108125,0.15259375,1.1671562500000001,0.93371875,-0.26009375,-0.34500000000000003,1.14403125,0.019410734964698972,0.02043925857465599,True
1346,65078,0,65079,4222.0,40365.0,40564.0,-0.0057339999999999995,-0.0006709999999999999,0.001281,-0.31500000000000006,1.1900000000000002,-4.6025,0.94415625,0.2116875,0.1528125,1.168375,0.91190625,-0.244125,-0.33690625,1.13815625,0.018800946621088614,0.020122473455310288,True
1347,65079,0,65080,4223.0,40365.0,40564.0,-0.003355,-0.001647,0.0011589999999999999,-0.24500000000000002,0.9800000000000001,-4.62,0.94396875,0.21134375,0.153125,1.164625,0.90253125,-0.255625,-0.3345625,1.13659375,0.01925197763405396,0.020040939712805603,True
1348,65080,0,65081,4222.0,40365.0,40565.0,-0.002806,0.000915,-0.000488,0.15750000000000003,0.6125,-3.7100000000000004,0.94775,0.20703125,0.15140625,1.16640625,0.918125,-0.26306250000000003,-0.343125,1.1533437500000001,0.019374872813355693,0.020315027343449123,True
1349,65081,0,65082,4222.0,40365.0,40568.0,-0.0008539999999999999,0.000183,-0.000366,0.36750000000000005,0.052500000000000005,-3.325,0.9439375,0.2094375,0.15,1.17509375,0.9041250000000001,-0.254,-0.34234375,1.16471875,0.019107672961161046,0.020225815355187395,True
1350,65082,0,65083,4223.0,40365.0,40568.0,-0.000305,-0.00061,6.1e-05,0.4025,-0.42000000000000004,-3.2025,0.9378125,0.21134375,0.15334375,1.1689375,0.94159375,-0.26390625,-0.3389375,1.13109375,0.019586706077056325,0.020226078069348754,True
1351,65083,0,65084,4223.0,40365.0,40568.0,0.0,0.001464,0.003294,0.5950000000000001,-0.7350000000000001,-3.0625000000000004,0.9499375,0.2084375,0.1556875,1.16840625,0.9113125,-0.266125,-0.34684375,1.1456250000000001,0.019556583508903873,0.020640509100897316,True
1352,65084,0,65085,4222.0,40365.0,40567.0,-0.0006709999999999999,0.0026839999999999998,0.0,0.6125,-0.9275000000000001,-2.87,0.9440000000000001,0.21609375,0.152375,1.174625,0.907375,-0.25596875,-0.33225,1.1569375,0.019461704657745323,0.019916982605389967,True
1353,65085,0,65086,4224.0,40368.0,40567.0,-0.0026839999999999998,-0.001952,0.00122,0.56,-1.2775,-2.555,0.9521875,0.2101875,0.1523125,1.16684375,0.931875,-0.27040625,-0.34268750000000003,1.137875,0.019801635994453122,0.020334648752320383,True
1354,65086,0,65087,4225.0,40367.0,40569.0,-0.0013419999999999999,0.0011589999999999999,0.000488,0.49000000000000005,-1.715,-2.3800000000000003,0.94446875,0.210125,0.15209375,1.17521875,0.90053125,-0.2565,-0.34078125,1.1645625,0.019237111702018018,0.020248939215950595,True
1355,65087,0,65088,4226.0,40367.0,40569.0,0.0013419999999999999,0.003904,0.002013,0.665,-2.0650000000000004,-2.2575000000000003,0.9507187500000001,0.2151875,0.15346875000000001,1.159875,0.93475,-0.2693125,-0.33965625,1.136875,0.019963482690331668,0.020260146443111745,True
1356,65088,0,65089,4224.0,40370.0,40571.0,0.000244,0.000366,-0.005612,0.5950000000000001,-2.3625000000000003,-2.205,0.9453125,0.2105,0.15034375,1.1733125,0.90840625,-0.259125,-0.33587500000000003,1.14625,0.019358694924074958,0.019979505565343347,True
1357,65089,0,65090,4226.0,40368.0,40574.0,0.000488,-0.001037,0.002806,0.5950000000000001,-2.3625000000000003,-2.2750000000000004,0.94403125,0.21356250000000002,0.15762500000000002,1.1619375,0.91109375,-0.2596875,-0.33918750000000003,1.150875,0.019507670904664376,0.02041204128116438,True
1358,65090,0,65091,4226.0,40371.0,40577.0,-0.000305,-0.00061,0.0032329999999999998,0.7350000000000001,-2.555,-2.5375,0.94746875,0.2085,0.1541875,1.17353125,0.92225,-0.261625,-0.34125,1.15240625,0.019377308815876928,0.020353823242438247,True
1359,65091,0,65092,4227.0,40374.0,40577.0,-0.001037,-0.00061,-0.001952,0.7875000000000001,-2.4325,-2.5025000000000004,0.9484375,0.20984375,0.15071875,1.173,0.92371875,-0.26256250000000003,-0.33959375,1.15453125,0.019470583537909484,0.020144646005030388,True
1360,65092,0,65093,4229.0,40373.0,40578.0,0.001281,0.004331,-0.0023179999999999997,0.7000000000000001,-2.3275,-2.6775,0.9469375,0.21053125,0.15275,1.1720625,0.9201875,-0.26256250000000003,-0.3405,1.154125,0.019498919374241693,0.02026457961011483,True
1361,65093,0,65094,4229.0,40373.0,40582.0,0.002562,0.0023179999999999997,-0.000732,0.7525000000000001,-2.2750000000000004,-3.0450000000000004,0.94846875,0.2145,0.15121875,1.173,0.92478125,-0.26340625,-0.341875,1.1495,0.019696585264074373,0.02025701594474542,True
1362,65094,0,65095,4230.0,40376.0,40582.0,0.000732,0.001769,0.000976,0.77,-2.1525000000000003,-3.3950000000000005,0.94896875,0.21021875,0.15071875,1.1712500000000001,0.91628125,-0.26028125,-0.34015625,1.14671875,0.019393839467545335,0.02016729042156416,True
1363,65095,0,65096,4232.0,40374.0,40585.0,-0.00061,0.000305,0.002379,0.9625000000000001,-1.9600000000000002,-3.8150000000000004,0.9440937500000001,0.21371875,0.1531875,1.1695,0.9158125,-0.25921875,-0.33534375,1.1471875,0.019495166141737356,0.020074968121212587,True
1364,65096,0,65097,4233.0,40376.0,40585.0,-0.000366,-0.0035989999999999998,0.0073809999999999995,1.0150000000000001,-1.6800000000000002,-4.1475,0.9360625,0.2116875,0.14878125,1.17409375,0.91709375,-0.25978125,-0.34253125,1.14671875,0.019434171526175652,0.02018329544097843,True
1365,65097,0,65098,4235.0,40378.0,40591.0,-0.0017079999999999999,-0.002379,0.001647,0.6825000000000001,-1.5050000000000001,-4.2700000000000005,0.94134375,0.2155,0.15340625,1.16771875,0.915625,-0.25815625000000003,-0.34103125,1.155,0.019525649233956107,0.020312923266141404,True
1366,65098,0,65099,4236.0,40380.0,40590.0,0.00122,0.001769,0.003904,0.6125,-1.4875,-4.375,0.94175,0.21190625000000002,0.1489375,1.180625,0.924125,-0.26234375,-0.34059375000000003,1.15415625,0.019546751331474314,0.02011172180218488,True
1367,65099,0,65100,4237.0,40381.0,40594.0,0.003843,0.0008539999999999999,-0.002196,0.22750000000000004,-1.8900000000000001,-4.340000000000001,0.96140625,0.2025625,0.146375,1.16721875,0.91709375,-0.25906250000000003,-0.33940625,1.14478125,0.019028971131922354,0.019958631899658606,True
1368,65100,0,65101,4241.0,40381.0,40595.0,0.006588,0.004148,-0.000488,0.08750000000000001,-2.0650000000000004,-4.4625,0.93815625,0.21284375,0.1571875,1.18240625,0.90940625,-0.260875,-0.34225,1.149125,0.019526037292554373,0.020517310437613612,True
1369,65101,0,65102,4241.0,40382.0,40598.0,0.0018909999999999999,-0.000366,-0.0013419999999999999,-0.035,-2.0650000000000004,-4.41,0.9433125,0.2129375,0.1551875,1.1734375000000001,0.91653125,-0.25975,-0.3388125,1.15384375,0.019484434093508793,0.0202967996076226,True
1370,65102,0,65103,4243.0,40384.0,40599.0,-0.000183,-0.001464,-0.0006709999999999999,0.10500000000000001,-1.8725000000000003,-4.2,0.95925,0.20584375,0.15090625,1.1578125000000001,0.92140625,-0.25984375,-0.33984375,1.14678125,0.019195816131338438,0.0201624137377628,True
1371,65103,0,65104,4244.0,40383.0,40600.0,-0.000244,0.000488,-0.000549,0.14,-1.5225000000000002,-4.0600000000000005,0.93865625,0.207375,0.15425,1.1791875,0.9211875,-0.26215625,-0.337875,1.147125,0.019352412257257635,0.020220541029157227,True
1372,65104,0,65105,4245.0,40386.0,40603.0,-0.000366,-0.002623,-0.002257,-0.14,-1.2075,-3.6575,0.94715625,0.21246875,0.155875,1.1749687500000001,0.91603125,-0.25765625000000003,-0.34084375,1.1491875,0.019380479101314664,0.02040680081190694,True
1373,65105,0,65106,4247.0,40386.0,40604.0,0.0023179999999999997,0.0018909999999999999,-0.006405,0.052500000000000005,-1.1725,-3.4475000000000002,0.9611875,0.20209375000000002,0.1449375,1.1749687500000001,0.9217500000000001,-0.26059375,-0.33975,1.14709375,0.01907156538573999,0.01991341324376791,True
1374,65106,0,65107,4249.0,40386.0,40603.0,-0.0013419999999999999,0.000732,-0.0018909999999999999,0.2625,-0.9100000000000001,-3.22,0.93803125,0.21659375,0.15534375,1.16378125,0.9166875,-0.25853125,-0.333625,1.15315625,0.01958589310719296,0.02009436530726515,True
1375,65107,0,65108,4250.0,40388.0,40607.0,-0.00549,-0.001586,0.002013,0.22750000000000004,-0.665,-3.3075,0.94503125,0.20828125,0.1486875,1.1774375,0.92234375,-0.2606875,-0.34290625,1.14796875,0.01933039820079295,0.020194538193236484,True
1376,65108,0,65109,4251.0,40387.0,40609.0,-0.005246,-0.001464,0.003477,0.22750000000000004,-0.7350000000000001,-3.2900000000000005,0.95446875,0.21071875,0.1541875,1.15515625,0.91621875,-0.259125,-0.33634375,1.14696875,0.019367712149551974,0.02015632483823705,True
1377,65109,0,65110,4252.0,40387.0,40612.0,-0.001098,0.001037,-0.000488,0.17500000000000002,-0.6825000000000001,-3.3950000000000005,0.9356875,0.2106875,0.15090625,1.1750625000000001,0.91753125,-0.261,-0.34053125,1.15275,0.019442211780223408,0.02019008931861337,True
1378,65110,0,65111,4254.0,40388.0,40615.0,-0.002074,0.0008539999999999999,0.00042699999999999997,0.10500000000000001,-0.525,-3.4650000000000003,0.95078125,0.20800000000000002,0.15078125,1.173625,0.9223750000000001,-0.26306250000000003,-0.34171875,1.1480625,0.019414799759923135,0.020232753695751254,True
1379,65111,0,65112,4257.0,40390.0,40613.0,-0.000488,0.00061,0.001037,0.07,-0.6825000000000001,-3.43,0.9442812500000001,0.21115625000000002,0.15678125,1.16521875,0.9138125,-0.2596875,-0.339125,1.1461875,0.019408483724285403,0.020374859408462714,True
1380,65112,0,65113,4257.0,40388.0,40613.0,0.00042699999999999997,-0.002379,-0.001952,-0.035,-0.8400000000000001,-3.5700000000000003,0.94375,0.21103125,0.15275,1.16790625,0.9158437500000001,-0.2555625,-0.33896875,1.146625,0.01923656686997055,0.020202941014088774,True
1381,65113,0,65114,4257.0,40387.0,40604.0,0.00183,-0.00042699999999999997,-0.00488,0.1925,-0.9800000000000001,-3.6050000000000004,0.9469062500000001,0.21071875,0.152375,1.1685625,0.91628125,-0.258875,-0.33896875,1.1458125000000001,0.019357606236892685,0.02018753362342026,True
1382,65114,0,65115,4256.0,40381.0,40595.0,-0.002196,-0.001586,0.000793,0.525,-0.8575,-3.6750000000000003,0.9435625,0.21156250000000001,0.15225,1.16634375,0.90578125,-0.259625,-0.34,1.15278125,0.019422703360006593,0.020223911257189812,True
1383,65115,0,65116,4256.0,40379.0,40584.0,-0.0030499999999999998,-0.0025009999999999998,0.002806,0.525,-0.805,-3.6750000000000003,0.94359375,0.21106250000000001,0.15203125,1.1759375,0.9225,-0.263,-0.34159375000000003,1.1534375000000001,0.019538494827515147,0.02027907478326065,True
1384,65116,0,65117,4252.0,40376.0,40577.0,-0.002013,0.001098,0.00366,0.5775,-1.155,-3.7275000000000005,0.95034375,0.2071875,0.15181250000000002,1.1683125,0.92303125,-0.26,-0.34021875,1.14696875,0.019257522671063478,0.020214742318205338,True
1385,65117,0,65118,4249.0,40375.0,40568.0,-0.001037,0.00061,0.0025009999999999998,0.49000000000000005,-1.2775,-3.7625,0.9429375,0.2108125,0.15415625,1.1680625,0.9161875,-0.25946875,-0.339,1.150375,0.019385471909808414,0.0202619766629689,True
1386,65118,0,65119,4245.0,40371.0,40565.0,-0.0011589999999999999,0.000244,0.001464,0.3325,-1.3825,-3.7800000000000002,0.9469062500000001,0.209125,0.14978125,1.17559375,0.92309375,-0.26325,-0.34090625,1.15128125,0.01946874388220869,0.020158965938254662,True
1387,65119,0,65120,4242.0,40372.0,40560.0,0.00042699999999999997,0.0015249999999999999,-0.00183,0.1925,-2.0300000000000002,-3.8500000000000005,0.9446875,0.2114375,0.153,1.162875,0.91596875,-0.25921875,-0.34021875,1.14515625,0.01940112972516891,0.020263529883025398,True
1388,65120,0,65121,4238.0,40370.0,40555.0,0.00061,0.000793,-0.0025009999999999998,0.12250000000000001,-2.4850000000000003,-3.8500000000000005,0.9450000000000001,0.21253125,0.15184375,1.176625,0.90965625,-0.2609375,-0.33928125000000003,1.1553125,0.019515682359760415,0.02017828689990589,True
1389,65121,0,65122,4235.0,40369.0,40551.0,0.002013,-0.00042699999999999997,-0.001464,0.15750000000000003,-2.6950000000000003,-3.9375000000000004,0.9500937500000001,0.2073125,0.1504375,1.16975,0.92425,-0.257875,-0.3375,1.14634375,0.019176762185475853,0.020048793014894713,True
1390,65122,0,65123,4232.0,40367.0,40549.0,0.0025009999999999998,-0.001037,-0.000488,0.3325,-2.8525000000000005,-4.0425,0.9445,0.21178125,0.1521875,1.1679375,0.9085625,-0.2596875,-0.339125,1.1475,0.01943424662827994,0.02018612008443196,True
1391,65123,0,65124,4229.0,40368.0,40550.0,0.003111,-0.000305,0.000183,0.35000000000000003,-2.8875,-3.9025000000000003,0.945125,0.20796875,0.15131250000000002,1.17425,0.9191875,-0.26046875,-0.34259375000000003,1.14021875,0.019308674734489623,0.020289795535859856,True
1392,65124,0,65125,4227.0,40367.0,40551.0,0.003477,0.000122,0.00042699999999999997,0.42000000000000004,-3.08,-3.9025000000000003,0.946875,0.21140625000000002,0.15296875000000001,1.16834375,0.914875,-0.2599375,-0.33678125000000003,1.1415625,0.01942889382959045,0.020123860874165518,True
1393,65125,0,65126,4225.0,40367.0,40553.0,0.001769,0.0,-0.000244,0.5075000000000001,-2.8525000000000005,-3.8675,0.9480000000000001,0.21003125,0.15109375,1.171875,0.92178125,-0.2619375,-0.33984375,1.14634375,0.019453052749806153,0.020170117156154712,True
1394,65126,0,65127,4223.0,40366.0,40552.0,0.0,-0.001037,0.004209,0.43750000000000006,-2.5200000000000005,-3.9375000000000004,0.94384375,0.211125,0.15265625,1.1681875,0.9161875,-0.25940625,-0.33928125000000003,1.1369375,0.01939582713406269,0.020211669151076514,True
1395,65127,0,65128,4224.0,40367.0,40551.0,0.000244,-0.0026839999999999998,-0.002196,0.24500000000000002,-2.3275,-3.7625,0.944875,0.21184375,0.15334375,1.16815625,0.9129375000000001,-0.26106250000000003,-0.34203125,1.1520000000000001,0.019492396509839582,0.020350602417372216,True
1396,65128,0,65129,4224.0,40368.0,40556.0,0.004575,0.0026839999999999998,-0.006527,0.17500000000000002,-2.0825,-3.6400000000000006,0.94471875,0.21140625000000002,0.154125,1.16865625,0.9158437500000001,-0.25925,-0.33946875,1.1519375,0.01940110473324608,0.02027956136059872,True
1397,65129,0,65130,4222.0,40371.0,40558.0,0.001403,-6.1e-05,0.000549,0.35000000000000003,-1.8200000000000003,-3.5875000000000004,0.94784375,0.21131250000000001,0.15128125,1.1695312500000001,0.92896875,-0.26484375,-0.3439375,1.14565625,0.01962329759490003,0.02034259042934201,True
1398,65130,0,65131,4223.0,40372.0,40561.0,0.0015249999999999999,-0.0034159999999999998,0.005856,0.49000000000000005,-1.4875,-3.5525,0.944625,0.21156250000000001,0.1535,1.16903125,0.913125,-0.25875,-0.33853125,1.1434375,0.01938733446694492,0.020216143897343847,True
1399,65131,0,65132,4224.0,40370.0,40564.0,-0.0037819999999999998,-0.00061,0.00549,0.5775,-1.0675000000000001,-3.4125000000000005,0.93540625,0.2106875,0.1539375,1.16246875,0.91121875,-0.25915625000000003,-0.3305625,1.15559375,0.019367687200580193,0.01991322642047425,True
1400,65132,0,65133,4226.0,40370.0,40567.0,-0.006161,0.003294,0.002806,0.45500000000000007,-0.56,-3.3425000000000002,0.94659375,0.20650000000000002,0.14196875,1.19121875,0.9251875,-0.26346875000000003,-0.34465625,1.15621875,0.019369396636661856,0.019988986289342245,True
1401,65133,0,65134,4226.0,40371.0,40569.0,-0.006771,0.001952,0.000549,0.24500000000000002,-0.47250000000000003,-3.2725000000000004,0.9648125000000001,0.20346875,0.1453125,1.16728125,0.92853125,-0.26396875000000003,-0.34040625,1.14396875,0.01926467614660112,0.01995524417346157,True
1402,65134,0,65135,4225.0,40374.0,40571.0,0.000366,-0.00061,-0.003355,0.12250000000000001,-1.0325000000000002,-3.6400000000000006,0.9304687500000001,0.214125,0.159,1.16625,0.912125,-0.25809375,-0.3434375,1.15871875,0.01946644096880036,0.020639546078897033,True
1403,65135,0,65136,4227.0,40375.0,40574.0,0.003111,6.1e-05,-0.0060999999999999995,0.12250000000000001,-1.1025,-3.6750000000000003,0.96225,0.2048125,0.14884375,1.18925,0.9270625,-0.2604375,-0.33978125000000003,1.1439062500000001,0.019177312857610256,0.020075159878439747,True
1404,65136,0,65137,4228.0,40374.0,40576.0,0.005124,0.000366,-0.0026839999999999998,0.1925,-1.1025,-3.6050000000000004,0.96859375,0.2060625,0.14946875,1.1539375,0.9056875,-0.25921875,-0.337125,1.13678125,0.01917956446969258,0.019993887938694485,True
1405,65137,0,65138,4231.0,40375.0,40580.0,0.005429,-0.001586,0.000488,0.29750000000000004,-0.9975,-3.6225000000000005,0.93034375,0.21403125,0.1584375,1.16871875,0.9115,-0.25790625,-0.34140625,1.16021875,0.019454997275372848,0.020534711300831277,True
1406,65138,0,65139,4231.0,40376.0,40580.0,0.002623,-0.002806,0.00122,0.385,-0.7350000000000001,-3.6750000000000003,0.95053125,0.20450000000000002,0.144375,1.18803125,0.9286875,-0.26471875,-0.34425,1.1539375,0.01933748974527059,0.020071474783573122,True
1407,65139,0,65140,4233.0,40377.0,40582.0,-0.006161,0.0026839999999999998,0.002074,0.49000000000000005,0.21000000000000002,-3.43,0.96975,0.2028125,0.1478125,1.1949375,0.91809375,-0.261375,-0.34015625,1.1464375,0.019132777923757414,0.020047888969488437,True
1408,65140,0,65141,4233.0,40378.0,40580.0,-0.0075639999999999995,0.00183,-0.0006709999999999999,0.4025,0.2625,-3.3075,0.9629062500000001,0.21184375,0.1574375,1.162,0.9148437500000001,-0.25478125,-0.33865625,1.15184375,0.01923847488832743,0.020382955612021515,True
1409,65141,0,65142,4234.0,40376.0,40579.0,-0.008235,0.000244,0.000244,0.35000000000000003,0.052500000000000005,-3.3775000000000004,0.9550937500000001,0.2036875,0.152125,1.158125,0.9224375,-0.2601875,-0.3413125,1.14746875,0.01912083325819308,0.020271606142848706,True
1410,65142,0,65143,4234.0,40377.0,40578.0,-0.004758,0.000183,-0.00061,0.36750000000000005,-0.36750000000000005,-3.6225000000000005,0.9314375,0.21506250000000002,0.15434375,1.16471875,0.90909375,-0.2614375,-0.342625,1.15434375,0.019640221235860407,0.02041557761334285,True
1411,65143,0,65144,4236.0,40375.0,40579.0,-0.003172,-0.000183,0.001769,0.385,-0.8925000000000001,-3.5700000000000003,0.94634375,0.20565625,0.150375,1.1753125,0.92115625,-0.26,-0.34084375,1.1479375,0.019194404369332233,0.020180843155858146,True
1412,65144,0,65145,4235.0,40375.0,40575.0,-0.000122,-0.000549,-0.000732,0.08750000000000001,-1.715,-3.9375000000000004,0.942875,0.21106250000000001,0.1555625,1.16784375,0.915375,-0.26,-0.339875,1.146375,0.019417250618301733,0.020354973063748272,True
1413,65145,0,65146,4235.0,40376.0,40576.0,0.0017079999999999999,0.00122,-0.001586,0.12250000000000001,-2.2575000000000003,-3.8500000000000005,0.9418125,0.21165625000000002,0.15321875000000001,1.1734375000000001,0.91546875,-0.2589375,-0.33868750000000003,1.1534375000000001,0.01939877828532268,0.02021087825709583,True
1414,65146,0,65147,4235.0,40375.0,40574.0,0.005612,0.000366,0.000976,0.24500000000000002,-2.66,-3.9200000000000004,0.95084375,0.21384375,0.15203125,1.16909375,0.92353125,-0.262875,-0.34078125,1.1446875,0.0196480734455418,0.020246371508720575,True
1415,65147,0,65148,4235.0,40376.0,40572.0,0.008601,-0.002074,-0.00042699999999999997,0.21000000000000002,-2.7475,-3.9550000000000005,0.94396875,0.21134375,0.15125,1.17303125,0.916,-0.25915625000000003,-0.33959375,1.15434375,0.01939473884216398,0.020166472581326467,True
1416,65148,0,65149,4234.0,40376.0,40575.0,0.009455,6.1e-05,-0.0023179999999999997,0.29750000000000004,-2.6775,-3.8675,0.952375,0.2089375,0.15215625,1.1685625,0.9253125,-0.26346875000000003,-0.33640625,1.143875,0.01946985630403732,0.020075375755202147,True
1417,65149,0,65150,4236.0,40376.0,40573.0,0.0028669999999999998,-0.000366,0.0025009999999999998,0.47250000000000003,-1.995,-3.6925000000000003,0.944125,0.21556250000000002,0.1525,1.17521875,0.9161875,-0.25906250000000003,-0.33928125000000003,1.1555,0.01956485334089065,0.02020524948738986,True
1418,65150,0,65151,4236.0,40379.0,40575.0,0.000488,-0.0023179999999999997,0.0023179999999999997,0.31500000000000006,-1.7675,-3.7100000000000004,0.94325,0.20759375,0.1491875,1.16971875,0.9234375,-0.25759375,-0.341125,1.15146875,0.019176984526752573,0.02014337874687386,True
1419,65151,0,65152,4236.0,40380.0,40576.0,-0.0013419999999999999,0.000488,0.000915,0.28,-1.2425000000000002,-3.6750000000000003,0.94325,0.21109375,0.15321875000000001,1.16840625,0.90725,-0.25984375,-0.33487500000000003,1.1410625,0.01941222313107437,0.02005737650183122,True
1420,65152,0,65153,4237.0,40380.0,40575.0,-0.00732,0.000305,0.000976,0.17500000000000002,-0.7875000000000001,-3.5700000000000003,0.94659375,0.2080625,0.14934375,1.1625625,0.91803125,-0.26225,-0.34034375,1.1521875,0.019384537707755875,0.020118347753408372,True
1421,65153,0,65154,4237.0,40378.0,40576.0,-0.006405,6.1e-05,-0.001952,0.1925,-0.6125,-3.7625,0.95003125,0.209375,0.15221875,1.168875,0.92103125,-0.25821875,-0.33925,1.14690625,0.019275683627842627,0.020192436085746276,True
1422,65154,0,65155,4237.0,40380.0,40579.0,-0.00488,0.0,-0.002989,0.08750000000000001,-1.3125000000000002,-3.7275000000000005,0.944125,0.211,0.15465625,1.17396875,0.9160625,-0.2598125,-0.33934375,1.153875,0.019407095582457613,0.020296356593427052,True
1423,65155,0,65156,4238.0,40380.0,40580.0,-0.000976,-0.000122,-0.003538,0.28,-1.6450000000000002,-3.8675,0.939125,0.20815625000000001,0.15046875,1.17075,0.92259375,-0.25496875,-0.3405625,1.15309375,0.019094025837489485,0.020173373150271283,True
1424,65156,0,65157,4239.0,40379.0,40580.0,-0.0023179999999999997,-0.000488,-0.0021349999999999997,0.45500000000000007,-1.9600000000000002,-3.9025000000000003,0.94584375,0.21121875,0.155125,1.16784375,0.91734375,-0.25903125,-0.33971875,1.147375,0.01938453333745551,0.020330709449960266,True
1425,65157,0,65158,4240.0,40381.0,40581.0,6.1e-05,-0.0011589999999999999,0.003111,0.5425000000000001,-2.0475000000000003,-3.8675,0.944875,0.2179375,0.153,1.16909375,0.91621875,-0.26,-0.3394375,1.146625,0.019700638911788953,0.02023208219171047,True
1426,65158,0,65159,4240.0,40380.0,40582.0,0.005063,0.00061,0.001769,0.47250000000000003,-2.7125000000000004,-3.9200000000000004,0.95003125,0.20821875,0.1521875,1.1658125,0.91890625,-0.2611875,-0.34159375000000003,1.1468125,0.019348032737474208,0.020285493837066442,True
1427,65159,0,65160,4241.0,40381.0,40586.0,0.004697,0.002623,0.000366,0.42000000000000004,-2.8525000000000005,-3.9375000000000004,0.94415625,0.21096875,0.1530625,1.16871875,0.9160625,-0.2595,-0.33921875,1.14734375,0.0193931758692471,0.020225844348434562,True
1428,65160,0,65161,4242.0,40381.0,40586.0,0.002989,0.0017079999999999999,0.000976,0.36750000000000005,-2.6775,-3.9025000000000003,0.94459375,0.21225,0.15265625,1.1690625000000001,0.915875,-0.2591875,-0.338875,1.1471875,0.019433359010890206,0.0201953151080319,True
1429,65161,0,65162,4243.0,40381.0,40590.0,0.0044529999999999995,0.000183,0.001098,0.1925,-2.5025000000000004,-4.0075,0.9438125,0.208375,0.14965625,1.17271875,0.91640625,-0.26096875,-0.34168750000000003,1.150875,0.0193456310354466,0.02018527885546144,True
1430,65162,0,65163,4244.0,40383.0,40590.0,0.006161,-0.001952,-0.001037,0.17500000000000002,-2.3625000000000003,-3.9200000000000004,0.94021875,0.2115,0.15284375,1.1674375000000001,0.9159375000000001,-0.259625,-0.3395,1.14440625,0.019420127062969854,0.0202281784753179,True
1431,65163,0,65164,4245.0,40382.0,40591.0,0.000305,0.0008539999999999999,-0.001098,0.4025,-1.6275000000000002,-3.8675,0.94759375,0.21225,0.1504375,1.1694375000000001,0.91628125,-0.2634375,-0.34275,1.1499062500000001,0.019605115721958194,0.020260139055776363,True
1432,65164,0,65165,4246.0,40382.0,40593.0,-0.005307,-0.0025009999999999998,0.001037,0.28,-1.12,-3.8325000000000005,0.94415625,0.2108125,0.15321875000000001,1.16859375,0.91328125,-0.258875,-0.34046875,1.1449375,0.01936147080192301,0.02028257980857497,True
1433,65165,0,65166,4247.0,40385.0,40594.0,-0.009455,-0.001769,0.002257,0.43750000000000006,-1.0150000000000001,-3.7800000000000002,0.94640625,0.21303125,0.15106250000000002,1.17184375,0.9138125,-0.2598125,-0.342125,1.15928125,0.019490824589019393,0.020260659248114123,True
1434,65166,0,65167,4249.0,40386.0,40598.0,-0.0048189999999999995,0.000976,0.00042699999999999997,0.42000000000000004,-1.05,-3.7100000000000004,0.9444375,0.21175,0.15787500000000002,1.16928125,0.9138437500000001,-0.25871875,-0.3369375,1.1411875,0.01939380042484725,0.020331748807753645,True
1435,65167,0,65168,4250.0,40388.0,40598.0,-0.003843,0.000244,0.000183,0.3325,-1.12,-3.7450000000000006,0.9444375,0.212,0.15296875000000001,1.16459375,0.91009375,-0.25721875,-0.33728125000000003,1.141375,0.01934346863240453,0.020143992049235164,True
1436,65168,0,65169,4251.0,40388.0,40602.0,0.00061,0.000915,0.00244,0.31500000000000006,-1.5750000000000002,-3.7100000000000004,0.94471875,0.21121875,0.15259375,1.16971875,0.90921875,-0.25178125,-0.336125,1.1414375,0.019091381174320958,0.02008202826045642,True
1437,65169,0,65170,4252.0,40388.0,40603.0,0.004575,-0.000305,-0.000244,0.2625,-1.995,-3.6925000000000003,0.94678125,0.2093125,0.150625,1.17625,0.9100625,-0.25721875,-0.338625,1.1555625,0.019232676870673808,0.020101792932016496,True
1438,65170,0,65171,4255.0,40388.0,40602.0,0.007076,0.000732,-0.00061,0.22750000000000004,-1.9775000000000003,-3.7100000000000004,0.9519375,0.21603125,0.15071875,1.169375,0.9245,-0.2675,-0.34553125,1.16290625,0.01992505408468116,0.020383617630032207,True
1439,65171,0,65172,4255.0,40388.0,40606.0,0.005063,0.0017079999999999999,-0.000732,0.10500000000000001,-1.8025000000000002,-3.6925000000000003,0.94453125,0.21128125,0.15812500000000002,1.1683125,0.91821875,-0.26109375,-0.3395,1.141,0.019470474203167363,0.020445161157788782,True
1440,65172,0,65173,4256.0,40390.0,40608.0,0.001586,6.1e-05,0.001586,0.17500000000000002,-1.4000000000000001,-3.6225000000000005,0.9434375,0.21281250000000002,0.15396875000000002,1.1730625000000001,0.9090625,-0.25359375,-0.3374375,1.133625,0.019230397557063066,0.020191371831976973,True
1441,65173,0,65174,4257.0,40391.0,40610.0,-0.001586,0.001647,-0.0060999999999999995,0.31500000000000006,-0.7175,-3.7275000000000005,0.9519062500000001,0.20778125,0.151,1.17490625,0.9243125,-0.263875,-0.34496875,1.15840625,0.019438620170933125,0.020372535906418035,True
1442,65174,0,65175,4259.0,40391.0,40613.0,-0.001586,0.0008539999999999999,-0.005246,0.2625,-0.665,-3.4825000000000004,0.9393750000000001,0.2101875,0.152875,1.1683125,0.9219375,-0.26259375,-0.34125,1.14578125,0.01948601435079463,0.020299902429004264,True
1443,65175,0,65176,4260.0,40391.0,40612.0,-0.002623,-0.0032329999999999998,0.001098,0.4025,-0.49000000000000005,-3.6225000000000005,0.94465625,0.2119375,0.153,1.1693437500000001,0.9106562500000001,-0.258375,-0.33696875,1.14496875,0.0193876341675813,0.02013269421648906,True
1444,65176,0,65177,4262.0,40390.0,40613.0,-0.001403,-0.003965,0.0028669999999999998,0.5075000000000001,-0.5425000000000001,-3.6925000000000003,0.94578125,0.21059375,0.15103125,1.1754375000000001,0.9171875,-0.260375,-0.34103125,1.154375,0.01941308615386201,0.020215351393544592,True
1445,65177,0,65178,4263.0,40389.0,40605.0,-0.002806,-0.00122,0.0042699999999999995,0.6125,-0.42000000000000004,-3.6225000000000005,0.95046875,0.20709375,0.1509375,1.16984375,0.924,-0.2626875,-0.3335,1.1451875,0.01936229240886856,0.019908254053054433,True
1446,65178,0,65179,4261.0,40386.0,40596.0,-0.0053679999999999995,0.002013,0.000244,0.4025,-0.56,-3.4650000000000003,0.9443125,0.21106250000000001,0.1530625,1.16859375,0.9155625000000001,-0.26006250000000003,-0.33971875,1.1469375,0.01941977684517507,0.020245971412467534,True
1447,65179,0,65180,4260.0,40382.0,40588.0,0.001098,0.00122,-0.002562,0.5075000000000001,-1.1725,-3.43,0.9405625,0.21178125,0.1525,1.1744375,0.91590625,-0.25628125,-0.33903125,1.1523125,0.01929654818790494,0.020195185459569182,True
1448,65180,0,65181,4259.0,40380.0,40576.0,0.0042699999999999995,0.001098,-0.001281,0.49000000000000005,-1.4875,-3.5000000000000004,0.94953125,0.210625,0.1523125,1.16959375,0.921875,-0.2631875,-0.3394375,1.147125,0.019528040163725398,0.020203835852821168,True
1449,65181,0,65182,4256.0,40377.0,40572.0,0.0021349999999999997,-0.0018909999999999999,-0.000549,0.43750000000000006,-1.54,-3.5525,0.9439062500000001,0.2109375,0.15328125,1.17284375,0.91534375,-0.255,-0.34103125,1.15446875,0.01920995670995671,0.020307787904425785,True
1450,65182,0,65183,4251.0,40375.0,40566.0,-0.000793,-0.0030499999999999998,0.0030499999999999998,0.36750000000000005,-1.5050000000000001,-3.535,0.9510000000000001,0.20996875,0.15134375,1.17346875,0.92540625,-0.26146875,-0.3435625,1.15546875,0.019431531736923392,0.02033006672708647,True
1451,65183,0,65184,4248.0,40376.0,40559.0,-0.0008539999999999999,-0.002074,-0.00042699999999999997,0.3325,-2.1175,-4.130000000000001,0.9491875000000001,0.216,0.15190625,1.168625,0.922875,-0.2611875,-0.33803125,1.149125,0.019668761061262974,0.02013053130581382,True
1452,65184,0,65185,4245.0,40372.0,40554.0,0.009943,0.001098,-0.000488,0.49000000000000005,-2.2750000000000004,-3.8500000000000005,0.94440625,0.21084375,0.15325,1.16859375,0.91628125,-0.25978125,-0.3390625,1.14759375,0.01939939174018727,0.020227258136996853,True
1453,65185,0,65186,4240.0,40370.0,40551.0,-0.004331,-0.000244,0.002074,0.4025,-1.5750000000000002,-3.535,0.94484375,0.21496875000000001,0.14734375,1.1805,0.91578125,-0.260125,-0.34009375000000003,1.1549375,0.019583318305243687,0.020026114320122534,True
1454,65186,0,65187,4239.0,40371.0,40550.0,-0.006954,0.00244,0.001098,0.4025,-1.2075,-3.6225000000000005,0.9543125,0.21,0.1541875,1.16509375,0.91671875,-0.25975,-0.33971875,1.1476250000000001,0.019363348756685456,0.02029219216019084,True
1455,65187,0,65188,4237.0,40369.0,40550.0,0.000366,0.000305,-0.0025009999999999998,0.22750000000000004,-1.5750000000000002,-3.7100000000000004,0.94078125,0.2085625,0.1483125,1.16765625,0.9161875,-0.2618125,-0.34303125,1.14703125,0.019387463323278092,0.020184164615900085,True
1456,65188,0,65189,4233.0,40371.0,40550.0,0.002013,0.000549,0.0028669999999999998,0.4025,-2.3275,-3.9725000000000006,0.94075,0.213625,0.155625,1.175875,0.9163125,-0.2599375,-0.34284375,1.154,0.01952035119628812,0.02047701390680783,True
1457,65189,0,65190,4233.0,40371.0,40549.0,0.0026839999999999998,-0.0035989999999999998,0.002806,0.2625,-2.1875,-4.0600000000000005,0.9586250000000001,0.2045625,0.151875,1.164375,0.9225625000000001,-0.2609375,-0.33921875,1.1470625,0.01918722225800219,0.020177054779130902,True
1458,65190,0,65191,4229.0,40368.0,40552.0,0.000976,-0.000793,-0.000183,0.22750000000000004,-2.0650000000000004,-4.025,0.94084375,0.2086875,0.15015625,1.1715625,0.915375,-0.25946875,-0.341,1.14665625,0.019297877246384466,0.020178145926625857,True
1459,65191,0,65192,4229.0,40370.0,40552.0,-0.000549,0.00183,0.000183,0.22750000000000004,-2.0125,-3.8675,0.93984375,0.211625,0.1519375,1.1745625,0.91625,-0.25856250000000003,-0.341375,1.14884375,0.019382331496353093,0.020266418803374913,True
1460,65192,0,65193,4228.0,40373.0,40554.0,-0.000793,-0.000915,0.0006709999999999999,0.1925,-2.0125,-3.99,0.93765625,0.212875,0.1526875,1.18071875,0.91590625,-0.258875,-0.3405,1.14834375,0.019446491232590134,0.020262011873215423,True
1461,65193,0,65194,4229.0,40373.0,40555.0,0.0011589999999999999,0.000976,-0.0026839999999999998,0.14,-2.7125000000000004,-4.077500000000001,0.9433750000000001,0.21253125,0.154125,1.1768750000000001,0.916375,-0.2594375,-0.33828125000000003,1.150875,0.019455057438986373,0.020231759381118992,True
1462,65194,0,65195,4226.0,40374.0,40557.0,0.002379,-0.00061,-0.002257,0.28,-2.6950000000000003,-3.9025000000000003,0.9464375,0.20809375,0.148,1.17503125,0.9123125,-0.26290625,-0.340625,1.14625,0.01941234884011473,0.020074463987674925,True
1463,65195,0,65196,4228.0,40372.0,40558.0,0.001403,-0.000305,-0.00061,0.31500000000000006,-2.5375,-3.9375000000000004,0.94928125,0.21115625000000002,0.15409375,1.16609375,0.91640625,-0.25971875,-0.3393125,1.14703125,0.019409746866912873,0.020271987961862113,True
1464,65196,0,65197,4226.0,40375.0,40562.0,0.001769,-0.000244,0.002379,0.5425000000000001,-2.6075000000000004,-3.9025000000000003,0.9408125,0.21203125,0.153875,1.1738125,0.91690625,-0.25959375,-0.339625,1.1519062500000001,0.019440762481853186,0.020275579430660908,True
1465,65197,0,65198,4227.0,40375.0,40562.0,0.003294,0.0011589999999999999,0.001464,0.525,-2.415,-3.99,0.9495,0.20928125,0.14975,1.174,0.92128125,-0.262,-0.338,1.1480625,0.019424666144588244,0.020040677130413347,True
1466,65198,0,65199,4230.0,40377.0,40568.0,0.00244,-0.000793,0.002196,0.42000000000000004,-1.8550000000000002,-3.7975000000000003,0.9450625,0.2109375,0.1521875,1.16578125,0.9164375,-0.259625,-0.33990625,1.1475625,0.019396940389639163,0.020217569654772193,True
1467,65199,0,65200,4230.0,40377.0,40569.0,-0.000915,0.001281,0.003172,0.525,-1.6625,-3.8150000000000004,0.9433125,0.2115,0.15384375,1.1690625000000001,0.9088125,-0.2591875,-0.3405,1.146875,0.019402442888905493,0.020309515005854442,True
1468,65200,0,65201,4230.0,40378.0,40572.0,-0.001952,-0.002013,-0.000488,0.385,-1.4525000000000001,-3.9375000000000004,0.9450000000000001,0.21165625000000002,0.1535625,1.17471875,0.90371875,-0.255,-0.33546875,1.1384375,0.019239589775304062,0.020095411147566244,True
1469,65201,0,65202,4231.0,40377.0,40575.0,-0.000915,-0.000183,-0.00244,0.31500000000000006,-1.435,-3.8500000000000005,0.95253125,0.2079375,0.15290625,1.16909375,0.92721875,-0.26790625,-0.34278125,1.1589375,0.01960794413403505,0.020362812897560745,True
1470,65202,0,65203,4232.0,40379.0,40575.0,-0.002074,-0.000305,-0.0018909999999999999,0.29750000000000004,-0.8925000000000001,-3.8325000000000005,0.9446875,0.21640625,0.1576875,1.169125,0.91471875,-0.254625,-0.33565625,1.13621875,0.019420265207151212,0.020272465428171883,True
1471,65203,0,65204,4233.0,40378.0,40575.0,-0.0042699999999999995,0.001464,0.000183,0.42000000000000004,-0.5950000000000001,-3.6225000000000005,0.9469375,0.2126875,0.154125,1.1664375,0.9030312500000001,-0.25590625,-0.33446875,1.1343750000000001,0.019318748397619653,0.02007825833469243,True
1472,65204,0,65205,4235.0,40380.0,40576.0,-0.0015249999999999999,-0.0015249999999999999,0.00042699999999999997,0.42000000000000004,-0.6125,-3.7275000000000005,0.944125,0.2121875,0.150625,1.1703125,0.9035625,-0.25521875,-0.3351875,1.1588125,0.019270337440267366,0.019963376078363893,True
1473,65205,0,65206,4233.0,40376.0,40571.0,0.0008539999999999999,-0.000793,0.0032329999999999998,0.28,-0.21000000000000002,-3.9375000000000004,0.9517187500000001,0.21134375,0.15303125,1.1615312500000001,0.93871875,-0.27159375,-0.34118750000000003,1.1455625,0.019897230687622232,0.020303806048903736,True
