frame_seq,absolute_seq_u64,segment_id,sample_seq,PPG_G,PPG_R,PPG_IR,ACC_X,ACC_Y,ACC_Z,GYRO_X,GYRO_Y,GYRO_Z,Uh1,Uh2,Uh3,Uh4,Uc1,Uc2,Uc3,Uc4,UD1,UD2,parser_valid
20533,84265,0,84266,4202.0,40505.0,41239.0,-0.000976,-0.000732,-0.001586,0.4025,-1.435,-3.8850000000000002,0.9605,0.26840625,0.17646875,1.2174375,0.9535625,-0.21365625,-0.31575000000000003,1.1733437500000001,0.01990870337890421,0.020242795307568142,True
20534,84266,0,84267,4200.0,40503.0,41237.0,-0.004514,0.000122,0.00061,0.31500000000000006,-0.9100000000000001,-3.7975000000000003,1.00175,0.25921875,0.1745625,1.1895,0.94503125,-0.22087500000000002,-0.31959375,1.1874375,0.019821486630850454,0.020319264173563757,True
20535,84267,0,84268,4198.0,40504.0,41234.0,-0.00671,0.001586,0.000915,0.43750000000000006,-0.77,-3.7100000000000004,0.9635625,0.26778125,0.17784375,1.18703125,0.95540625,-0.21853125,-0.3168125,1.1734375000000001,0.020080181369380112,0.02034215010705042,True
20536,84268,0,84269,4195.0,40502.0,41233.0,-0.006039,0.001464,0.0006709999999999999,0.42000000000000004,-1.1025,-3.6925000000000003,0.9760625,0.26206250000000003,0.17559375,1.20584375,0.94415625,-0.21815625,-0.3154375,1.1755,0.019828873223988717,0.02019421817929453,True
20537,84269,0,84270,4193.0,40502.0,41233.0,-0.002928,0.000366,0.00122,0.4025,-1.6625,-3.7450000000000006,0.981125,0.26409375,0.1683125,1.2241875,0.94434375,-0.21875,-0.3171875,1.1758125,0.019936774193548387,0.01996530231960419,True
20538,84270,0,84271,4191.0,40501.0,41234.0,0.000732,-0.002196,0.00042699999999999997,0.2625,-2.1175,-3.7450000000000006,0.9858750000000001,0.27403125,0.18356250000000002,1.18965625,0.94928125,-0.22178125,-0.32,1.1670625000000001,0.020469696050945882,0.02070569490131579,True
20539,84271,0,84272,4191.0,40501.0,41236.0,0.0048189999999999995,-0.006161,-0.001464,0.21000000000000002,-2.66,-3.9375000000000004,0.96578125,0.2656875,0.17875,1.19875,0.94778125,-0.21821875000000002,-0.31665625000000003,1.17709375,0.0199810834560242,0.020373123874710367,True
20540,84272,0,84273,4189.0,40504.0,41236.0,0.003538,0.001037,-0.000976,0.15750000000000003,-2.415,-3.8850000000000002,0.9772500000000001,0.2643125,0.1794375,1.20253125,0.9490937500000001,-0.2195,-0.3181875,1.1733125,0.01997615557711761,0.02046307933105623,True
20541,84273,0,84274,4189.0,40504.0,41236.0,-0.000183,0.0030499999999999998,0.000244,0.2625,-2.345,-3.8675,0.9728125,0.26540625,0.17981250000000001,1.2009375,0.94659375,-0.21912500000000001,-0.3181875,1.1775625,0.02000614184038441,0.02047849988820096,True
20542,84274,0,84275,4191.0,40504.0,41240.0,0.002745,0.003843,0.00042699999999999997,0.36750000000000005,-2.4675000000000002,-3.99,0.9655625,0.2666875,0.180125,1.1994375,0.9476875,-0.21915625,-0.31784375,1.1768750000000001,0.020060308665790123,0.020477504301753723,True
20543,84275,0,84276,4188.0,40503.0,41240.0,0.005429,0.001647,0.001403,0.42000000000000004,-2.5900000000000003,-3.9550000000000005,0.9760625,0.27065625,0.179875,1.203375,0.94765625,-0.21887500000000001,-0.31715625000000003,1.177375,0.020212798901683086,0.02043953021850571,True
20544,84276,0,84277,4189.0,40506.0,41245.0,0.006405,0.0008539999999999999,6.1e-05,0.42000000000000004,-2.5725000000000002,-4.0425,0.98303125,0.26503125,0.179125,1.20303125,0.9539062500000001,-0.2216875,-0.3178125,1.18490625,0.020094336944938288,0.02043512343061285,True
20545,84277,0,84278,4190.0,40504.0,41247.0,0.000305,-0.002196,-0.001586,0.29750000000000004,-1.5925000000000002,-3.6575,0.98284375,0.2699375,0.1789375,1.19884375,0.95540625,-0.2156875,-0.32071875,1.1808750000000001,0.020054148782684775,0.02054446890061586,True
20546,84278,0,84279,4190.0,40508.0,41246.0,-0.003843,-0.0006709999999999999,-0.0006709999999999999,0.24500000000000002,-1.1375000000000002,-3.6575,0.97628125,0.26671875,0.17996875,1.20071875,0.9489062500000001,-0.21134375,-0.31721875,1.17771875,0.019745393107311524,0.02044590317303454,True
20547,84279,0,84280,4191.0,40508.0,41250.0,-0.007137,-0.001098,0.0,0.3325,-0.7525000000000001,-3.5700000000000003,0.9743125,0.267625,0.17971875,1.199375,0.94871875,-0.21146875,-0.31728125,1.1769687500000001,0.019787884615632828,0.020438140057289503,True
20548,84280,0,84281,4193.0,40510.0,41251.0,-0.008173999999999999,-0.000793,0.002074,0.4025,-0.6475000000000001,-3.5700000000000003,0.98209375,0.2624375,0.1775625,1.20715625,0.94821875,-0.2195,-0.320375,1.18490625,0.01989873861970726,0.02047408808457929,True
20549,84281,0,84282,4193.0,40512.0,41255.0,-0.006039,-0.000122,0.0026839999999999998,0.49000000000000005,-0.7875000000000001,-3.6400000000000006,0.9824375000000001,0.26409375,0.18021875,1.20053125,0.9540000000000001,-0.22225,-0.31853125,1.1695,0.020078388671572626,0.02050905109657887,True
20550,84282,0,84283,4193.0,40511.0,41259.0,-0.000183,0.002074,0.001037,0.47250000000000003,-1.5050000000000001,-3.7625,0.97628125,0.2666875,0.17690625000000001,1.20165625,0.94734375,-0.21971875000000002,-0.3185,1.18503125,0.02008306764503614,0.020371579250364952,True
20551,84283,0,84284,4195.0,40511.0,41261.0,0.002257,0.0015249999999999999,-0.000244,0.42000000000000004,-1.8375000000000001,-3.7275000000000005,0.9759375,0.26687500000000003,0.17940625000000002,1.2055625,0.94596875,-0.21671875000000002,-0.31834375,1.17778125,0.019969416789795278,0.020468088004554175,True
20552,84284,0,84285,4197.0,40514.0,41261.0,0.007625,-0.0006709999999999999,-0.000366,0.22750000000000004,-2.0125,-3.8325000000000005,0.98453125,0.26371875,0.18090625,1.20071875,0.95540625,-0.22,-0.31796875,1.17775,0.019971872419488026,0.02051466572429081,True
20553,84285,0,84286,4196.0,40516.0,41263.0,0.0073809999999999995,-0.001037,-0.002745,0.21000000000000002,-2.1175,-3.7800000000000002,0.97665625,0.266,0.18171875,1.2070625,0.94828125,-0.21978125,-0.31715625000000003,1.18234375,0.020057210467167207,0.020515351173104383,True
20554,84286,0,84287,4197.0,40514.0,41259.0,0.0066489999999999995,-0.00042699999999999997,-0.002623,0.385,-1.9075000000000002,-3.7450000000000006,0.982625,0.267625,0.1846875,1.2004062500000001,0.95540625,-0.22078125,-0.317,1.17759375,0.020164760374936298,0.02063114282189415,True
20555,84287,0,84288,4198.0,40512.0,41261.0,-0.002562,-0.0013419999999999999,-0.00042699999999999997,0.42000000000000004,-0.9100000000000001,-3.535,0.96778125,0.2649375,0.17696875,1.20809375,0.9479062500000001,-0.21912500000000001,-0.3180625,1.18153125,0.019986787301357917,0.02035652511379145,True
20556,84288,0,84289,4198.0,40513.0,41261.0,-0.005673,0.001464,0.0006709999999999999,0.525,-0.43750000000000006,-3.4475000000000002,0.98446875,0.26446875000000003,0.18134375,1.20103125,0.9540937500000001,-0.2205,-0.3189375,1.17675,0.02002306930079891,0.02057167382415453,True
20557,84289,0,84290,4200.0,40511.0,41259.0,-0.009394,0.001647,0.001952,0.45500000000000007,-0.4025,-3.5700000000000003,0.9673125,0.26584375,0.18340625,1.208875,0.94771875,-0.21887500000000001,-0.3171875,1.1788125,0.020014090249856772,0.020586005268907023,True
20558,84290,0,84291,4200.0,40511.0,41258.0,-0.0070149999999999995,0.001403,0.003355,0.43750000000000006,-0.525,-3.6050000000000004,0.98259375,0.26265625,0.1779375,1.19,0.95125,-0.22040625,-0.3151875,1.17671875,0.019944442509092924,0.020280534542454178,True
20559,84291,0,84292,4199.0,40512.0,41258.0,-0.003843,0.0,0.002928,0.385,-1.0150000000000001,-3.6750000000000003,0.9762500000000001,0.266625,0.179875,1.2005937500000001,0.947375,-0.2190625,-0.31715625000000003,1.17684375,0.02005393478793822,0.02043953021850571,True
20560,84292,0,84293,4198.0,40510.0,41255.0,0.004026,-0.0006709999999999999,-0.000244,0.24500000000000002,-1.8550000000000002,-3.8500000000000005,0.9760625,0.2655,0.17815625000000002,1.20596875,0.947625,-0.21928125,-0.3165,1.1880625,0.020016335125552086,0.02034241153126478,True
20561,84293,0,84294,4198.0,40509.0,41256.0,0.003355,-0.000366,-0.00183,0.2625,-1.9250000000000003,-3.8850000000000002,0.981375,0.263625,0.17775,1.20146875,0.9627187500000001,-0.22390625,-0.31753125,1.1767812500000001,0.020126037682299897,0.020367250479013985,True
20562,84294,0,84295,4199.0,40510.0,41255.0,0.0035989999999999998,-0.000976,-0.003172,0.21000000000000002,-2.1,-3.9200000000000004,0.97578125,0.26615625,0.18106250000000002,1.2015625,0.9470937500000001,-0.217875,-0.31559375,1.17146875,0.019986528545547454,0.020425421443800853,True
20563,84295,0,84296,4199.0,40510.0,41254.0,0.003355,-0.000305,-0.0026839999999999998,0.31500000000000006,-2.0125,-3.8325000000000005,0.97628125,0.266625,0.17990625000000002,1.20771875,0.9374687500000001,-0.2145,-0.322875,1.19175,0.019869293192095645,0.02067112748801283,True
20564,84296,0,84297,4198.0,40510.0,41253.0,0.002379,0.001647,-0.0023179999999999997,0.385,-1.6975000000000002,-3.7625,0.9833125,0.269125,0.1770625,1.20415625,0.9615625,-0.22371875,-0.317,1.17209375,0.020345503309643572,0.020317576181272362,True
20565,84297,0,84298,4199.0,40509.0,41254.0,-0.0013419999999999999,0.0,0.001464,0.49000000000000005,-1.3475000000000001,-3.7800000000000002,0.97628125,0.26728125,0.1840625,1.1903125,0.94121875,-0.21759375,-0.31575000000000003,1.17359375,0.020021601031275045,0.020555092892466816,True
20566,84298,0,84299,4197.0,40510.0,41253.0,-0.0026839999999999998,0.0008539999999999999,0.002623,0.525,-1.155,-3.8325000000000005,0.96315625,0.26384375,0.17678125,1.206875,0.94675,-0.22784375,-0.32109375,1.1845625,0.020294315295805058,0.020470913237608815,True
20567,84299,0,84300,4196.0,40511.0,41254.0,-0.003477,0.000915,0.002745,0.45500000000000007,-1.1375000000000002,-3.7800000000000002,0.98003125,0.2668125,0.18128125,1.20053125,0.9420625,-0.2124375,-0.31396875,1.1725625,0.019793546188813085,0.02036894943364604,True
20568,84300,0,84301,4196.0,40511.0,41253.0,-0.0028669999999999998,0.00042699999999999997,0.002196,0.42000000000000004,-1.3125000000000002,-3.8325000000000005,0.9809687500000001,0.26653125,0.17853125,1.20384375,0.942125,-0.22340625,-0.321625,1.193,0.020225788848337548,0.020564261228433543,True
20569,84301,0,84302,4198.0,40508.0,41255.0,-0.00042699999999999997,-0.0015249999999999999,-0.000488,0.45500000000000007,-1.5225000000000002,-3.9375000000000004,0.9812500000000001,0.26265625,0.17778125,1.206,0.96415625,-0.22184375,-0.3165625,1.195625,0.020002606118702256,0.020329507922840658,True
20570,84302,0,84303,4198.0,40510.0,41257.0,0.00042699999999999997,-0.0018909999999999999,-0.002379,0.2625,-1.8200000000000003,-4.0425,0.97,0.2643125,0.17859375,1.201125,0.965375,-0.22884375,-0.32071875,1.181625,0.020354097582555918,0.020530334861094512,True
20571,84303,0,84304,4198.0,40511.0,41259.0,-0.000244,-0.000976,-0.0017079999999999999,0.21000000000000002,-1.715,-3.99,0.97665625,0.26678125,0.180375,1.2018125,0.9490625,-0.21890625,-0.31509375,1.1711562500000001,0.020054064167327953,0.02037700348163371,True
20572,84304,0,84305,4197.0,40511.0,41260.0,-0.000488,-0.000549,-0.000976,0.2625,-1.6275000000000002,-3.9725000000000006,0.97646875,0.2663125,0.17975,1.1999375,0.94084375,-0.2181875,-0.3171875,1.1734375000000001,0.02000562593711854,0.020435648653858513,True
20573,84305,0,84306,4199.0,40513.0,41260.0,0.000732,0.001037,-0.000305,0.1925,-1.7500000000000002,-4.0075,0.97784375,0.27184375,0.18003125,1.1924375,0.9471875000000001,-0.22040625,-0.31634375,1.1705625,0.02032377140660058,0.020413225158490367,True
20574,84306,0,84307,4198.0,40513.0,41262.0,0.001464,0.00061,0.000305,0.29750000000000004,-1.8725000000000003,-3.9025000000000003,0.97696875,0.26675,0.17790625000000002,1.204875,0.948625,-0.21909375,-0.318875,1.18425,0.020060360433593848,0.020427805562551724,True
20575,84307,0,84308,4200.0,40513.0,41264.0,0.002623,0.000732,0.0021349999999999997,0.4025,-1.8725000000000003,-4.0425,0.98259375,0.26528125,0.17890625000000002,1.2075625,0.94721875,-0.22009375,-0.31846875,1.183375,0.020040178415907245,0.02045256241719578,True
20576,84308,0,84309,4200.0,40514.0,41266.0,0.000305,0.000183,0.001586,0.36750000000000005,-1.7500000000000002,-3.9550000000000005,0.982375,0.2655,0.18003125,1.19,0.95521875,-0.22037500000000002,-0.31803125,1.17728125,0.020060589483028236,0.02048120157753313,True
20577,84309,0,84310,4202.0,40517.0,41268.0,-0.000549,0.00061,0.000488,0.31500000000000006,-1.5750000000000002,-3.9375000000000004,0.977375,0.26696875000000003,0.18409375,1.2011875,0.94853125,-0.21925,-0.3171875,1.17796875,0.020075714565892834,0.02061427745293324,True
20578,84310,0,84311,4200.0,40517.0,41268.0,0.00042699999999999997,-0.00061,-0.000366,0.3325,-1.6625,-3.8150000000000004,0.9806875,0.26559375,0.1776875,1.20109375,0.9500625,-0.2224375,-0.32009375,1.1760625,0.020147900061668028,0.020467900128880053,True
20579,84311,0,84312,4203.0,40516.0,41270.0,0.000122,-0.003355,-0.001403,0.29750000000000004,-1.715,-3.9025000000000003,0.9769375,0.26553125,0.1801875,1.20034375,0.94946875,-0.21978125,-0.3178125,1.178,0.020037856452563955,0.020478815682948456,True
20580,84312,0,84313,4203.0,40519.0,41271.0,0.000122,-0.001403,-0.0008539999999999999,0.31500000000000006,-1.7325000000000002,-3.7275000000000005,0.97675,0.26625,0.18825,1.2005625,0.94840625,-0.214875,-0.3174375,1.17684375,0.019868985489291193,0.020795262658740255,True
20581,84313,0,84314,4204.0,40515.0,41275.0,-0.002013,0.00183,-0.0015249999999999999,0.36750000000000005,-1.4875,-3.7275000000000005,0.9773125,0.263,0.17671875,1.2081250000000001,0.9496875,-0.22190625,-0.3161875,1.1755,0.02001932651357694,0.02027070444328495,True
20582,84314,0,84315,4206.0,40517.0,41274.0,-0.000793,0.0026839999999999998,-0.000244,0.385,-1.225,-3.6225000000000005,0.96809375,0.26678125,0.17990625000000002,1.20128125,0.9430000000000001,-0.21821875000000002,-0.31740625,1.17709375,0.020026245737003266,0.020450885875215413,True
20583,84315,0,84316,4207.0,40521.0,41279.0,-0.000976,0.002379,0.0,0.525,-1.4000000000000001,-3.6925000000000003,0.993625,0.2634375,0.18259375,1.20509375,0.95284375,-0.2225625,-0.32046875,1.184,0.02006393832196738,0.020684737007793073,True
20584,84316,0,84317,4208.0,40521.0,41277.0,-0.000366,-0.000976,0.001281,0.49000000000000005,-1.4700000000000002,-3.7450000000000006,0.97378125,0.26803125,0.18246875,1.19725,0.94759375,-0.2213125,-0.3170625,1.1793437500000001,0.02020302368007514,0.020542417489776987,True
20585,84317,0,84318,4208.0,40519.0,41279.0,-0.001464,-0.001769,0.0015249999999999999,0.43750000000000006,-1.3475000000000001,-3.7625,0.9731875,0.26815625,0.18215625,1.1908750000000001,0.9490625,-0.21990625,-0.31765625000000003,1.178,0.02015129600264245,0.02055348158809507,True
20586,84318,0,84319,4210.0,40520.0,41282.0,-0.001586,-0.0032329999999999998,0.0,0.385,-1.5050000000000001,-3.7450000000000006,0.9666250000000001,0.26765625,0.17928125,1.19596875,0.94478125,-0.21990625,-0.3179375,1.17453125,0.020130651826945036,0.020446583925960004,True
20587,84319,0,84320,4211.0,40520.0,41281.0,-0.000976,-0.0026839999999999998,0.00042699999999999997,0.385,-1.7675,-3.7275000000000005,0.97221875,0.268,0.1764375,1.213,0.94834375,-0.2185625,-0.31734375,1.18365625,0.020090478119830606,0.0203057231528423,True
20588,84320,0,84321,4210.0,40521.0,41283.0,0.003111,-0.001464,-0.00122,0.42000000000000004,-1.9075000000000002,-3.7100000000000004,0.9897812500000001,0.26553125,0.1811875,1.19375,0.95384375,-0.22009375,-0.31303125,1.16790625,0.02005050042384745,0.020327319325927323,True
20589,84321,0,84322,4212.0,40522.0,41284.0,0.00549,0.003965,-0.000915,0.385,-1.7675,-3.6050000000000004,0.9714375000000001,0.26609375,0.179,1.21278125,0.9520625,-0.2216875,-0.31909375,1.1816875,0.020138202592201723,0.02048159175339336,True
20590,84322,0,84323,4214.0,40520.0,41285.0,0.002074,0.0053679999999999995,0.00122,0.47250000000000003,-1.4525000000000001,-3.6750000000000003,0.9773125,0.267,0.181875,1.2078125,0.94784375,-0.21937500000000001,-0.317375,1.1811875,0.02008206239838972,0.020530587697068458,True
20591,84323,0,84324,4213.0,40520.0,41287.0,-0.001098,0.0028669999999999998,0.003538,0.49000000000000005,-1.2075,-3.5700000000000003,0.98975,0.26309375,0.17521875,1.20475,0.95384375,-0.214875,-0.317375,1.1766875,0.019738642053696336,0.02025686366229908,True
20592,84324,0,84325,4215.0,40523.0,41287.0,-0.003721,0.002379,0.003172,0.45500000000000007,-1.0325000000000002,-3.6925000000000003,0.97565625,0.271125,0.18165625,1.1974375,0.94771875,-0.2191875,-0.31703125,1.17809375,0.020244795577886335,0.020507745985645347,True
20593,84325,0,84326,4213.0,40522.0,41289.0,-0.002257,0.000793,0.000366,0.3325,-0.9275000000000001,-3.6225000000000005,0.97971875,0.26346875000000003,0.1795625,1.1975,0.9524375,-0.2208125,-0.318,1.17196875,0.019994426281116705,0.02046066699564109,True
20594,84326,0,84327,4215.0,40521.0,41289.0,-0.001769,-0.0046359999999999995,-0.002562,0.22750000000000004,-0.8575,-3.6925000000000003,0.9751875,0.266125,0.18206250000000002,1.2078125,0.9483125,-0.22090625,-0.31984375,1.17978125,0.0201078871687553,0.02063772510873965,True
20595,84327,0,84328,4217.0,40521.0,41290.0,0.001464,-0.0050019999999999995,-0.002928,0.1925,-0.9275000000000001,-3.6575,0.97971875,0.26837500000000003,0.17975,1.20103125,0.9475625,-0.21965625,-0.3178125,1.1753437500000001,0.0201502137339377,0.02046082475551615,True
20596,84328,0,84329,4217.0,40521.0,41285.0,0.000549,-0.004697,-0.00183,0.28,-0.8750000000000001,-3.6925000000000003,0.9773437500000001,0.26709375,0.18034375,1.20046875,0.9484375,-0.21871875000000002,-0.31721875,1.178125,0.020059380721781577,0.02046132434450383,True
20597,84329,0,84330,4216.0,40518.0,41278.0,-0.0017079999999999999,-0.002928,-0.000366,0.1925,-0.5775,-3.7450000000000006,0.9775312500000001,0.26603125,0.18265625,1.20696875,0.9488125000000001,-0.2181875,-0.31478125,1.1831562500000001,0.01999401276416743,0.020458234638652158,True
20598,84330,0,84331,4216.0,40514.0,41271.0,-0.004331,-0.000366,-0.00042699999999999997,0.3325,-0.36750000000000005,-3.7450000000000006,0.981375,0.2629375,0.18025,1.20046875,0.9590625,-0.2250625,-0.32746875000000003,1.18084375,0.020144426871963696,0.020870184038361984,True
20599,84331,0,84332,4214.0,40510.0,41263.0,-0.003355,0.002989,0.000976,0.43750000000000006,-0.7875000000000001,-3.7975000000000003,0.9772500000000001,0.26596875000000003,0.17784375,1.2069375,0.94046875,-0.21625,-0.31084375000000003,1.19521875,0.019913023279822435,0.020101626460414402,True
20600,84332,0,84333,4212.0,40509.0,41255.0,-6.1e-05,0.002989,0.0026839999999999998,0.49000000000000005,-1.225,-3.9200000000000004,0.97684375,0.26653125,0.17981250000000001,1.200625,0.97228125,-0.2238125,-0.31790625,1.16803125,0.020242220335878174,0.020467171181729513,True
20601,84333,0,84334,4209.0,40506.0,41248.0,0.002196,0.000488,0.003172,0.43750000000000006,-1.715,-4.0075,0.97775,0.26496875000000003,0.1765,1.20771875,0.9349375,-0.21440625,-0.31934375,1.19528125,0.01979709909261145,0.020388862261137286,True
20602,84334,0,84335,4208.0,40504.0,41241.0,0.004392,0.001037,0.0011589999999999999,0.4025,-2.1,-4.0425,0.98409375,0.26440625,0.18465625,1.20503125,0.9640625,-0.22996875,-0.32603125,1.19946875,0.020403451820382557,0.020993457368842276,True
20603,84335,0,84336,4203.0,40502.0,41240.0,0.004941,0.000549,-0.0008539999999999999,0.21000000000000002,-2.1700000000000004,-4.112500000000001,0.978125,0.266,0.17981250000000001,1.2008125,0.9731875,-0.228625,-0.32103125,1.17259375,0.020414901794881053,0.02059303098013165,True
20604,84336,0,84337,4201.0,40503.0,41236.0,0.002989,0.000549,-0.001586,0.36750000000000005,-1.8900000000000001,-4.025,0.9768125,0.26671875,0.17715625000000002,1.20921875,0.9366875,-0.21659375,-0.3126875,1.1908750000000001,0.019957905929689223,0.020147659529618025,True
20605,84337,0,84338,4199.0,40503.0,41234.0,0.001647,0.0006709999999999999,-0.000366,0.31500000000000006,-1.6625,-3.9725000000000006,0.97775,0.2674375,0.18031250000000001,1.20784375,0.9691875,-0.21984375,-0.30871875,1.18196875,0.020119091395872445,0.02011752470499911,True
20606,84338,0,84339,4197.0,40502.0,41235.0,6.1e-05,0.000793,0.0006709999999999999,0.3325,-1.61,-4.0075,0.983125,0.26671875,0.18306250000000002,1.19584375,0.9554375,-0.23190625,-0.32,1.1673437500000001,0.020577209025806623,0.02068513569078947,True
20607,84339,0,84340,4195.0,40504.0,41237.0,-0.002013,0.000549,0.001037,0.4025,-1.3475000000000001,-3.9375000000000004,0.97728125,0.26640625,0.17815625000000002,1.1954375,0.93440625,-0.22362500000000002,-0.318125,1.19125,0.020229476389268742,0.02040787478475417,True
20608,84340,0,84341,4194.0,40504.0,41233.0,-0.0032329999999999998,0.0,0.000549,0.36750000000000005,-1.2950000000000002,-3.9200000000000004,0.98475,0.26534375,0.1804375,1.19975,0.96021875,-0.227,-0.315125,1.17,0.02032210962975193,0.020380832917782657,True
20609,84341,0,84342,4193.0,40504.0,41238.0,-0.000732,-0.0011589999999999999,0.000305,0.36750000000000005,-1.9075000000000002,-4.0075,0.96590625,0.2680625,0.178,1.20675,0.93971875,-0.22071875,-0.31703125,1.18221875,0.02018029502117892,0.020357388404474742,True
20610,84342,0,84343,4192.0,40506.0,41241.0,0.001098,-0.002196,-0.0008539999999999999,0.35000000000000003,-1.9775000000000003,-3.9375000000000004,0.978375,0.26659375,0.1806875,1.201375,0.9469375,-0.21940625,-0.317375,1.1789375,0.02006655303533711,0.020481754301194106,True
20611,84343,0,84344,4191.0,40506.0,41243.0,0.001403,-0.001403,-0.002806,0.31500000000000006,-2.0650000000000004,-3.7975000000000003,0.9768125,0.2665,0.18096875,1.2004375,0.95359375,-0.22215625,-0.31984375,1.18409375,0.0201739368269495,0.020592751546769292,True
20612,84344,0,84345,4192.0,40506.0,41246.0,0.001403,0.000305,-0.001952,0.2625,-2.0650000000000004,-3.8850000000000002,0.9773437500000001,0.26628125,0.18,1.2036875,0.9530625,-0.2211875,-0.32,1.18446875,0.020125716379512774,0.02055921052631579,True
20613,84345,0,84346,4192.0,40508.0,41244.0,0.00244,-0.001586,-0.001586,0.3325,-1.9425000000000001,-3.7975000000000003,0.9819375,0.2653125,0.17996875,1.20515625,0.95546875,-0.22312500000000002,-0.31946875,1.1847812500000001,0.020164099388497562,0.02053653001774556,True
20614,84346,0,84347,4193.0,40506.0,41246.0,0.002806,0.000488,0.000488,0.42000000000000004,-1.9250000000000003,-3.7100000000000004,0.98046875,0.266125,0.179,1.20046875,0.953875,-0.22090625,-0.3184375,1.17709375,0.0201078871687553,0.020455158765854096,True
20615,84347,0,84348,4193.0,40510.0,41248.0,0.002257,0.000549,0.00042699999999999997,0.5075000000000001,-1.4700000000000002,-3.6750000000000003,0.977,0.2668125,0.18071875,1.20090625,0.944375,-0.21962500000000001,-0.3175625,1.17840625,0.02008443565909877,0.020490591933299235,True
20616,84348,0,84349,4192.0,40508.0,41250.0,-0.001037,0.000976,0.001952,0.5075000000000001,-1.1725,-3.4825000000000004,0.9775,0.26737500000000003,0.18046875,1.2013125,0.9520625,-0.22225,-0.32065625000000003,1.1832500000000001,0.020213852965764948,0.02060491274777999,True
20617,84349,0,84350,4191.0,40507.0,41253.0,-0.002928,0.0006709999999999999,0.001281,0.385,-1.0850000000000002,-3.3775000000000004,0.9776875,0.26571875,0.1771875,1.20884375,0.95646875,-0.2214375,-0.32090625,1.1810625000000001,0.020112606859109827,0.020480065375853337,True
20618,84350,0,84351,4193.0,40510.0,41254.0,-0.003111,0.000488,-0.000976,0.35000000000000003,-0.9800000000000001,-3.3950000000000005,0.9875,0.26256250000000003,0.17459375,1.21396875,0.948125,-0.2196875,-0.31765625000000003,1.177375,0.019911487297265915,0.02024249355856406,True
20619,84351,0,84352,4193.0,40509.0,41258.0,-0.000732,-0.000366,-0.000305,0.35000000000000003,-1.05,-3.3425000000000002,0.9969687500000001,0.2614375,0.175625,1.21553125,0.9493125,-0.22128125,-0.320625,1.18321875,0.019929529945902427,0.02040449207205818,True
20620,84352,0,84353,4193.0,40511.0,41258.0,0.000244,-0.001952,-0.001098,0.4025,-1.0150000000000001,-3.2900000000000005,0.98690625,0.2616875,0.18206250000000002,1.2160625,0.9509375,-0.2198125,-0.31828125,1.17571875,0.019880418149397318,0.020574799051639395,True
20621,84353,0,84354,4197.0,40510.0,41258.0,-0.0015249999999999999,0.00061,-0.000366,0.5075000000000001,-0.9450000000000001,-3.2550000000000003,0.9897812500000001,0.26340625,0.18075,1.1951875,0.94771875,-0.21909375,-0.317375,1.17759375,0.019922297877062393,0.020484324479924338,True
20622,84354,0,84355,4195.0,40513.0,41261.0,-0.002745,-0.000488,0.000122,0.6475000000000001,-0.8575,-3.0975,0.9705,0.27303125,0.18696875000000002,1.194375,0.95484375,-0.22065625,-0.3128125,1.1816875,0.020382911796619878,0.02055629105024357,True
20623,84355,0,84356,4198.0,40510.0,41262.0,-0.003172,-0.000122,0.001586,0.49000000000000005,-1.0150000000000001,-3.0975,0.96965625,0.26825,0.18271875,1.19540625,0.95334375,-0.2226875,-0.31990625,1.1815,0.02026767261064653,0.020667226050676078,True
20624,84356,0,84357,4197.0,40510.0,41261.0,0.002379,-0.000488,-6.1e-05,0.7350000000000001,-1.1725,-3.08,0.97,0.26790625,0.18306250000000002,1.2118125,0.95378125,-0.22165625,-0.3188125,1.18390625,0.020211768136210752,0.020637315247198033,True
20625,84357,0,84358,4197.0,40508.0,41259.0,0.001403,0.00061,0.001037,0.5775,-1.1900000000000002,-3.1500000000000004,0.99359375,0.26046875,0.178375,1.19965625,0.9503125,-0.2194375,-0.31796875,1.1769687500000001,0.019814921382876872,0.02041057602724323,True
20626,84358,0,84359,4199.0,40509.0,41259.0,0.000488,-0.000183,0.00061,0.6300000000000001,-1.0675000000000001,-3.115,0.97046875,0.26865625,0.18225,1.194625,0.94825,-0.21934375,-0.31778125,1.17596875,0.020149183439373743,0.0205623714128936,True
20627,84359,0,84360,4198.0,40507.0,41255.0,0.0011589999999999999,0.00061,0.000488,0.5775,-0.9275000000000001,-3.1500000000000004,0.96990625,0.267625,0.182625,1.19475,0.95328125,-0.21865625,-0.31803125,1.17671875,0.020078787401757687,0.02058786111642981,True
20628,84360,0,84361,4196.0,40511.0,41257.0,-0.0017079999999999999,0.001647,-0.000366,0.49000000000000005,-0.8400000000000001,-3.2025,0.9701875,0.26796875000000003,0.18303125,1.19565625,0.9474375,-0.2196875,-0.31665625000000003,1.17996875,0.020134704463053044,0.02054918632161854,True
20629,84361,0,84362,4197.0,40508.0,41252.0,-0.002745,0.0006709999999999999,0.000305,0.5775,-0.8400000000000001,-3.325,0.9704375000000001,0.26815625,0.182875,1.19665625,0.95303125,-0.22009375,-0.3165625,1.17875,0.020158881507219596,0.020538984488453087,True
20630,84362,0,84363,4198.0,40509.0,41252.0,-0.001952,0.001281,0.00042699999999999997,0.56,-0.9800000000000001,-3.3600000000000003,0.97159375,0.267,0.17846875,1.206,0.93765625,-0.2221875,-0.32109375,1.185375,0.020195843170646745,0.020540297452699884,True
20631,84363,0,84364,4196.0,40508.0,41250.0,-6.1e-05,0.000305,0.0,0.5075000000000001,-1.2600000000000002,-3.4125000000000005,0.9831875,0.26356250000000003,0.17965625000000002,1.20065625,0.9495,-0.2195,-0.31803125,1.1770625000000001,0.019945188794153475,0.020465780921307106,True
20632,84364,0,84365,4197.0,40507.0,41248.0,-0.000305,-0.0015249999999999999,-0.000366,0.42000000000000004,-1.3650000000000002,-3.5525,0.97690625,0.267125,0.18031250000000001,1.20090625,0.94840625,-0.21959375,-0.3131875,1.17778125,0.020096074072258125,0.020297626545264787,True
20633,84365,0,84366,4196.0,40505.0,41250.0,0.000976,-0.0025009999999999998,-0.000793,0.43750000000000006,-1.4875,-3.5875000000000004,0.97628125,0.26421875,0.17690625000000001,1.2064375,0.95425,-0.2201875,-0.3178125,1.18290625,0.020000103219679863,0.02034388372720614,True
20634,84366,0,84367,4195.0,40507.0,41249.0,0.001037,0.0,-0.000183,0.49000000000000005,-1.7325000000000002,-3.535,0.975875,0.2634375,0.1786875,1.20715625,0.95103125,-0.22028125,-0.317625,1.1759375,0.019971640502729503,0.02040957947167949,True
20635,84367,0,84368,4195.0,40505.0,41251.0,-0.000183,-0.000183,-0.00122,0.36750000000000005,-1.8200000000000003,-3.5175000000000005,0.9832500000000001,0.26328125,0.17803125,1.20103125,0.94753125,-0.22375,-0.31884375,1.18215625,0.020105526600959805,0.020431686847776222,True
20636,84368,0,84369,4196.0,40507.0,41253.0,0.000549,-0.001464,0.000488,0.28,-1.8900000000000001,-3.6225000000000005,0.9770625000000001,0.2664375,0.17775,1.19521875,0.93753125,-0.21909375,-0.3171875,1.1790625000000001,0.020047457390927354,0.020353402300327703,True
20637,84369,0,84370,4194.0,40508.0,41254.0,0.000549,-0.000305,-0.001098,0.4025,-2.0125,-3.7100000000000004,0.98228125,0.27137500000000003,0.18203125,1.2005937500000001,0.9546875,-0.22015625,-0.317125,1.17665625,0.02029430549193918,0.020526943460627025,True
20638,84370,0,84371,4194.0,40504.0,41253.0,0.0017079999999999999,0.001037,-0.003538,0.36750000000000005,-2.0300000000000002,-3.7800000000000002,0.97228125,0.26875,0.17690625000000001,1.2055625,0.94871875,-0.2198125,-0.31821875,1.1676875,0.020172018259844084,0.02036024945289219,True
20639,84371,0,84372,4195.0,40507.0,41254.0,0.0011589999999999999,0.004026,0.000793,0.5775,-1.8725000000000003,-3.7450000000000006,0.983375,0.263625,0.17634375,1.20825,0.95165625,-0.21921875000000002,-0.3179375,1.17765625,0.019936388327967847,0.020325788319835926,True
20640,84372,0,84373,4193.0,40508.0,41253.0,-0.000793,0.002745,0.003904,0.525,-1.4525000000000001,-3.6400000000000006,0.98353125,0.265,0.1785,1.2001875,0.9495625,-0.2213125,-0.32196875,1.1709687500000001,0.020077875631223537,0.02057681905376184,True
20641,84373,0,84374,4195.0,40506.0,41256.0,-0.0046359999999999995,0.001464,0.0048189999999999995,0.42000000000000004,-1.0850000000000002,-3.6050000000000004,0.9828125,0.26409375,0.18140625,1.20053125,0.9557187500000001,-0.22115625,-0.31853125,1.1816875,0.02003413854365437,0.020557882170618342,True
20642,84374,0,84375,4193.0,40509.0,41255.0,-0.005795,-0.002379,0.00122,0.28,-1.1375000000000002,-3.6400000000000006,0.97671875,0.2663125,0.18109375,1.2008125,0.9544375,-0.21984375,-0.3168125,1.17775,0.02007264188068926,0.02047580249261699,True
20643,84375,0,84376,4194.0,40510.0,41260.0,0.000305,-0.0051849999999999995,-0.001281,0.22750000000000004,-1.4000000000000001,-3.9725000000000006,0.976125,0.26615625,0.17953125,1.20109375,0.95259375,-0.2203125,-0.317375,1.17075,0.020085155796400234,0.020434205994684873,True
20644,84376,0,84377,4196.0,40511.0,41262.0,0.004026,-0.004575,-0.000549,0.15750000000000003,-2.2225,-4.112500000000001,0.9725625,0.2666875,0.1793125,1.2016875,0.9402812500000001,-0.21909375,-0.31721875,1.1765,0.02005777982506055,0.02041891612296328,True
20645,84377,0,84378,4196.0,40507.0,41259.0,0.003538,-0.002196,-0.002623,0.17500000000000002,-2.31,-4.095000000000001,0.984,0.2656875,0.17790625000000002,1.20153125,0.95034375,-0.2218125,-0.31996875,1.18371875,0.020126487231292046,0.020471860186909163,True
20646,84378,0,84379,4199.0,40509.0,41261.0,0.002928,0.0018909999999999999,-0.003355,0.17500000000000002,-2.3275,-4.1825,0.97675,0.2665625,0.18025,1.20071875,0.9539375,-0.21915625,-0.3174375,1.17709375,0.02005514746204257,0.020466280626813577,True
20647,84379,0,84380,4198.0,40511.0,41263.0,0.001586,0.004148,-0.002989,0.17500000000000002,-2.31,-4.2700000000000005,0.97778125,0.26475,0.178375,1.2046875000000001,0.9486875,-0.22025,-0.317875,1.1771875,0.020024566220414736,0.020406799525040736,True
20648,84380,0,84381,4200.0,40510.0,41265.0,0.003904,0.001647,0.001586,0.36750000000000005,-2.5025000000000004,-4.2,0.97971875,0.2636875,0.17790625000000002,1.202,0.94775,-0.21937500000000001,-0.31834375,1.17759375,0.01994529173440686,0.020406406172295347,True
20649,84381,0,84382,4200.0,40512.0,41265.0,0.0035989999999999998,-0.001281,0.002562,0.4025,-2.1350000000000002,-4.077500000000001,0.97646875,0.266625,0.181,1.200875,0.94865625,-0.21909375,-0.3171875,1.1778125,0.02005519921652725,0.020487052624815268,True
20650,84382,0,84383,4198.0,40513.0,41268.0,0.0,-0.001403,0.001037,0.47250000000000003,-1.6450000000000002,-3.8325000000000005,0.9765312500000001,0.26640625,0.18096875,1.20446875,0.94121875,-0.21884375,-0.31728125,1.19109375,0.020036051473349133,0.020489543830069408,True
20651,84383,0,84384,4200.0,40511.0,41266.0,-0.0034159999999999998,0.00042699999999999997,-0.0006709999999999999,0.385,-1.1900000000000002,-3.6750000000000003,0.96759375,0.26471875,0.18096875,1.201125,0.95946875,-0.22434375,-0.31865625000000003,1.168875,0.020188885405822397,0.02054492628473253,True
20652,84384,0,84385,4201.0,40513.0,41271.0,-0.006161,0.0017079999999999999,0.001098,0.31500000000000006,-0.8575,-3.6050000000000004,0.97671875,0.267125,0.18059375,1.20075,0.93865625,-0.21778125,-0.31621875,1.16671875,0.0200227363933267,0.020431322201359944,True
20653,84385,0,84386,4201.0,40512.0,41271.0,-0.0050019999999999995,0.00061,0.00183,0.4025,-1.225,-3.7975000000000003,0.9765312500000001,0.26884375,0.1811875,1.19953125,0.94440625,-0.21853125,-0.31646875,1.17384375,0.020124052733379527,0.020465810850927937,True
20654,84386,0,84387,4203.0,40513.0,41274.0,-0.0023179999999999997,-0.002257,0.000549,0.385,-1.6275000000000002,-3.9550000000000005,0.97928125,0.255375,0.173875,1.19265625,0.9440000000000001,-0.2188125,-0.32171875,1.18871875,0.019579304311472746,0.020376592423181444,True
20655,84387,0,84388,4203.0,40516.0,41274.0,-0.001403,-0.001647,-0.000122,0.29750000000000004,-2.0125,-4.0425,0.9692500000000001,0.2704375,0.17896875,1.21875,0.9523125,-0.2231875,-0.3158125,1.173125,0.020378201671435683,0.02034812737596163,True
20656,84388,0,84389,4205.0,40514.0,41273.0,0.001464,-0.002745,0.0011589999999999999,0.24500000000000002,-2.45,-4.095000000000001,0.9910625000000001,0.26687500000000003,0.17728125,1.18928125,0.937125,-0.222,-0.322125,1.18871875,0.020183098010073487,0.02053300235896329,True
20657,84389,0,84390,4206.0,40516.0,41275.0,0.0066489999999999995,-0.0035989999999999998,-0.00122,0.24500000000000002,-2.8875,-4.0600000000000005,0.97628125,0.25371875,0.17915625000000002,1.194375,0.94325,-0.218125,-0.3178125,1.1899375,0.01948308343441121,0.020436408496858016,True
20658,84390,0,84391,4206.0,40516.0,41276.0,0.009637999999999999,0.002013,-0.004697,0.2625,-2.5375,-3.9375000000000004,0.964375,0.26253125,0.17196875,1.193625,0.95603125,-0.2179375,-0.31834375,1.1908125,0.019839375256460217,0.020162248919604157,True
20659,84391,0,84392,4208.0,40514.0,41275.0,0.005856,0.0023179999999999997,-0.002074,0.24500000000000002,-1.9250000000000003,-3.7100000000000004,0.963125,0.26653125,0.16840625,1.21296875,0.94496875,-0.217375,-0.3166875,1.1828125,0.01998177961071338,0.019949006212297626,True
20660,84392,0,84393,4208.0,40516.0,41278.0,-0.000183,0.0044529999999999995,-0.000305,0.385,-1.12,-3.5525,0.9647187500000001,0.2709375,0.1834375,1.19484375,0.962125,-0.22278125000000001,-0.31509375,1.1734375000000001,0.020382413765966695,0.02050295405503012,True
20661,84393,0,84394,4208.0,40517.0,41279.0,-0.006222,0.005612,0.0017079999999999999,0.5775,-0.7000000000000001,-3.3950000000000005,0.99121875,0.258625,0.1720625,1.22190625,0.94446875,-0.2186875,-0.31678125,1.18540625,0.019708437957259243,0.020103143790874873,True
20662,84394,0,84395,4210.0,40517.0,41282.0,-0.008113,0.002562,0.0048189999999999995,0.5775,-0.47250000000000003,-3.43,0.99353125,0.26434375,0.18075,1.2005000000000001,0.954125,-0.22371875,-0.31184375000000003,1.1831562500000001,0.02014812444930653,0.020261472353366866,True
20663,84395,0,84396,4210.0,40515.0,41284.0,-0.005429,-0.00122,0.002623,0.47250000000000003,-0.7875000000000001,-3.4475000000000002,0.9646250000000001,0.2684375,0.18381250000000002,1.191875,0.9550625,-0.21378125,-0.31709375,1.17709375,0.0199150535400166,0.020598935676678056,True
20664,84396,0,84397,4210.0,40516.0,41285.0,-0.00042699999999999997,-0.003843,-0.000488,0.28,-1.155,-3.5700000000000003,0.9654375000000001,0.26646875000000003,0.18159375,1.20978125,0.94025,-0.2190625,-0.31653125,1.177625,0.02004748325828054,0.02048503525765008,True
20665,84397,0,84398,4211.0,40517.0,41283.0,0.002745,-0.0048189999999999995,-0.0017079999999999999,0.2625,-1.3475000000000001,-3.7625,0.9875,0.26737500000000003,0.183875,1.20446875,0.946375,-0.22087500000000002,-0.3213125,1.18353125,0.02015823127777176,0.020771391346581316,True
20666,84398,0,84399,4212.0,40514.0,41277.0,0.0026839999999999998,-0.005063,-0.0046359999999999995,0.07,-1.3125000000000002,-3.7800000000000002,0.97890625,0.26809375,0.17796875,1.1936875,0.95503125,-0.21321875,-0.3181875,1.18253125,0.01987808828596983,0.020402682148906042,True
20667,84399,0,84400,4213.0,40512.0,41268.0,0.00122,-0.0011589999999999999,-0.005856,0.08750000000000001,-1.3650000000000002,-3.7100000000000004,0.97259375,0.2669375,0.18015625,1.20196875,0.94959375,-0.21909375,-0.318125,1.1768750000000001,0.020068102259193744,0.020490117967565346,True
20668,84400,0,84401,4209.0,40508.0,41257.0,-0.001769,0.001281,-0.0011589999999999999,0.42000000000000004,-1.0675000000000001,-3.6750000000000003,0.97665625,0.26559375,0.18006250000000001,1.20034375,0.94365625,-0.2191875,-0.31784375,1.177625,0.02001641260674001,0.020474934172566184,True
20669,84401,0,84402,4209.0,40506.0,41250.0,-0.00122,0.000732,0.002623,0.6125,-1.0325000000000002,-3.5875000000000004,0.96759375,0.26671875,0.18040625,1.2005000000000001,0.94871875,-0.21471875,-0.31775000000000003,1.1773125,0.01988201907156159,0.0204852936640931,True
20670,84402,0,84403,4204.0,40501.0,41243.0,-0.001952,0.003172,0.004575,0.6825000000000001,-1.12,-3.5525,0.97621875,0.2669375,0.17978125,1.20071875,0.9485625,-0.219,-0.3175,1.17084375,0.020064309013584376,0.02044952194921353,True
20671,84403,0,84404,4203.0,40504.0,41235.0,-0.0008539999999999999,0.003477,0.00549,0.7350000000000001,-1.2425000000000002,-3.5875000000000004,0.9823437500000001,0.26478125,0.1788125,1.20721875,0.9509375,-0.2229375,-0.31984375,1.183875,0.02013458318174664,0.02050408938174202,True
20672,84404,0,84405,4200.0,40501.0,41233.0,-6.1e-05,0.001586,0.004758,0.665,-1.3825,-3.6400000000000006,0.98271875,0.27315625,0.18046875,1.201125,0.9566875,-0.2215,-0.31734375,1.1771562500000001,0.020422197221476788,0.02047149989397999,True
20673,84405,0,84406,4196.0,40500.0,41228.0,0.002806,-0.00042699999999999997,-0.001647,0.35000000000000003,-1.7325000000000002,-3.7450000000000006,0.97696875,0.267125,0.1809375,1.1923125,0.9481875000000001,-0.21884375,-0.31784375,1.17675,0.020065728777824084,0.020510915981191792,True
20674,84406,0,84407,4193.0,40500.0,41224.0,0.003111,0.000488,-0.002379,0.36750000000000005,-1.8900000000000001,-3.8325000000000005,0.98209375,0.2654375,0.17925,1.2059375,0.95625,-0.2204375,-0.31759375,1.18528125,0.020060537717371953,0.020431452022262687,True
20675,84407,0,84408,4190.0,40500.0,41223.0,0.000915,-0.00061,-0.0030499999999999998,0.2625,-1.8375000000000001,-3.8675,0.97678125,0.27078125000000003,0.18034375,1.2013125,0.9535625,-0.21890625,-0.31809375,1.16909375,0.0202192243921007,0.02049656955533367,True
20676,84408,0,84409,4186.0,40497.0,41224.0,-0.000793,-0.001647,-0.00366,0.17500000000000002,-1.715,-3.8150000000000004,0.98390625,0.27215625,0.17809375,1.20084375,0.94459375,-0.2203125,-0.3185625,1.1703125,0.020332881749564546,0.02042292795883803,True
20677,84409,0,84410,4189.0,40499.0,41223.0,-0.000244,-0.00122,-0.001586,0.2625,-1.6275000000000002,-3.7100000000000004,0.96640625,0.26715625,0.1805,1.19875,0.94896875,-0.2168125,-0.3169375,1.1766875,0.019984824592419004,0.02045642055049078,True
20678,84410,0,84411,4185.0,40497.0,41225.0,-0.002257,-0.000976,0.000976,0.35000000000000003,-1.5750000000000002,-3.6925000000000003,0.97565625,0.2671875,0.1806875,1.19265625,0.9481875000000001,-0.21946875000000002,-0.31721875,1.17684375,0.020093597222275984,0.02047546041835068,True
20679,84411,0,84412,4185.0,40501.0,41226.0,-0.0030499999999999998,0.000488,0.000915,0.42000000000000004,-1.5925000000000002,-3.6750000000000003,0.97640625,0.26959375,0.18131250000000002,1.201125,0.94828125,-0.21934375,-0.31675000000000003,1.177125,0.020187892167804918,0.02048228073241696,True
20680,84412,0,84413,4183.0,40496.0,41228.0,-0.003904,0.000732,0.001281,0.28,-1.6275000000000002,-3.7450000000000006,0.9775625,0.2663125,0.17971875,1.203125,0.94553125,-0.2191875,-0.31715625000000003,1.1768750000000001,0.02004608948999631,0.020433104713878707,True
20681,84413,0,84414,4183.0,40503.0,41230.0,-0.002074,0.000244,0.000305,0.2625,-1.8200000000000003,-3.6575,0.98221875,0.26446875000000003,0.1790625,1.20478125,0.95365625,-0.22153125,-0.31546875,1.18075,0.020064792559306092,0.02033813351840071,True
20682,84414,0,84415,4182.0,40501.0,41235.0,0.0017079999999999999,0.000793,-0.0025009999999999998,0.24500000000000002,-2.1875,-3.6750000000000003,0.9821875,0.262875,0.17821875,1.20684375,0.95421875,-0.2204375,-0.31809375,1.18159375,0.0199547386375659,0.020409186061304666,True
20683,84415,0,84416,4182.0,40500.0,41234.0,0.005673,-0.000915,-0.000305,0.47250000000000003,-2.3275,-3.7625,0.97865625,0.26659375,0.18059375,1.2005000000000001,0.9535,-0.21878125,-0.3169375,1.17759375,0.020041264462884564,0.020460275887948468,True
20684,84416,0,84417,4182.0,40502.0,41236.0,0.003904,-0.0025009999999999998,0.00061,0.56,-2.1350000000000002,-3.7450000000000006,0.97675,0.26603125,0.17815625000000002,1.2069375,0.94871875,-0.21959375,-0.3200625,1.184,0.020050914355241815,0.0204859156920341,True
20685,84417,0,84418,4182.0,40500.0,41236.0,0.0015249999999999999,-0.00042699999999999997,0.001647,0.47250000000000003,-1.9425000000000001,-3.7275000000000005,0.97675,0.26746875000000003,0.180875,1.20234375,0.9550937500000001,-0.21821875000000002,-0.31784375,1.177375,0.02005463345647582,0.02050834585200425,True
20686,84418,0,84419,4181.0,40502.0,41238.0,-6.1e-05,0.002074,0.0021349999999999997,0.36750000000000005,-1.6625,-3.7450000000000006,0.98521875,0.264375,0.17784375,1.19465625,0.9514375,-0.225625,-0.32071875,1.1676875,0.02022651634374758,0.020499496956684307,True
20687,84419,0,84420,4183.0,40501.0,41240.0,-0.001769,0.0013419999999999999,0.000183,0.385,-1.5050000000000001,-3.6925000000000003,0.9768125,0.26621875,0.18509375,1.2027812500000001,0.9450625,-0.21859375,-0.31884375,1.18903125,0.020018193665765585,0.020722099503599958,True
20688,84420,0,84421,4184.0,40504.0,41240.0,-0.0030499999999999998,-0.000183,0.00042699999999999997,0.31500000000000006,-1.33,-3.7625,0.975375,0.2689375,0.17828125,1.20728125,0.9635625,-0.22678125000000002,-0.32378125,1.1871562500000001,0.020461601765608052,0.020640808056929884,True
20689,84421,0,84422,4183.0,40502.0,41243.0,-0.0018909999999999999,-0.0008539999999999999,-0.000732,0.24500000000000002,-1.435,-3.6750000000000003,0.9803125,0.26696875000000003,0.180875,1.1981875,0.9515625,-0.21746875000000002,-0.31515625,1.1719375,0.02000363890218709,0.02040008482363752,True
20690,84422,0,84423,4185.0,40503.0,41243.0,0.000488,-0.000366,-0.001037,0.2625,-1.54,-3.7100000000000004,0.97065625,0.266125,0.17978125,1.20015625,0.9420000000000001,-0.2215625,-0.31996875,1.177875,0.02013443600098053,0.020548957325448865,True
20691,84423,0,84424,4183.0,40504.0,41245.0,0.000732,-6.1e-05,-0.002196,0.24500000000000002,-1.5925000000000002,-3.7800000000000002,0.97690625,0.26615625,0.18059375,1.20025,0.9460937500000001,-0.21965625,-0.3195,1.178,0.020058604258679353,0.02056348814737145,True
20692,84424,0,84425,4184.0,40506.0,41249.0,0.000183,0.000122,-0.0018909999999999999,0.4025,-1.5575,-3.6925000000000003,0.97675,0.2668125,0.18056250000000001,1.20121875,0.94846875,-0.219,-0.3165,1.17171875,0.02005914777653908,0.020441366973042996,True
20693,84425,0,84426,4186.0,40505.0,41247.0,0.0006709999999999999,-0.00061,0.000122,0.47250000000000003,-1.6625,-3.7275000000000005,0.9772500000000001,0.2674375,0.18128125,1.2013125,0.941625,-0.2169375,-0.315,1.172375,0.02000149688621858,0.020410497635204604,True
20694,84426,0,84427,4185.0,40504.0,41245.0,0.001952,-0.0006709999999999999,0.0015249999999999999,0.42000000000000004,-1.6275000000000002,-3.7275000000000005,0.97690625,0.26671875,0.18178125,1.2008125,0.9409375,-0.21753125,-0.31603125,1.1739375,0.019995844952197594,0.020472604878725837,True
20695,84427,0,84428,4186.0,40505.0,41246.0,0.002013,-0.000976,0.0017079999999999999,0.47250000000000003,-1.4000000000000001,-3.7100000000000004,0.9771562500000001,0.26715625,0.1804375,1.20140625,0.9390000000000001,-0.21975,-0.3106875,1.1736875,0.02010368604135055,0.020202020202020204,True
20696,84428,0,84429,4186.0,40503.0,41245.0,-0.000549,-0.000549,0.0011589999999999999,0.45500000000000007,-1.2600000000000002,-3.6400000000000006,0.9791875,0.26378125,0.17609375,1.208375,0.9510937500000001,-0.22237500000000002,-0.3223125,1.18628125,0.020070544279823927,0.020491729559021166,True
20697,84429,0,84430,4185.0,40503.0,41241.0,-0.00244,0.000549,0.001586,0.45500000000000007,-1.05,-3.6925000000000003,0.9842500000000001,0.2664375,0.17771875,1.2041250000000001,0.955875,-0.22128125,-0.3186875,1.1724375,0.0201359599835372,0.02041254282329176,True
20698,84430,0,84431,4185.0,40503.0,41240.0,-0.001098,0.0018909999999999999,-0.000976,0.3325,-1.0850000000000002,-3.6400000000000006,0.97896875,0.266625,0.18434375,1.202875,0.95534375,-0.22040625,-0.3175625,1.18159375,0.020108302270941472,0.020639661150248918,True
20699,84431,0,84432,4185.0,40501.0,41239.0,-0.000915,0.001037,-0.00244,0.3325,-1.2950000000000002,-3.6050000000000004,0.9762500000000001,0.2670625,0.18046875,1.20034375,0.95421875,-0.21871875000000002,-0.3100625,1.17690625,0.020058090397535998,0.02017811554371775,True
20700,84432,0,84433,4184.0,40502.0,41238.0,-6.1e-05,0.000732,-0.001403,0.43750000000000006,-1.3125000000000002,-3.6575,0.9774375000000001,0.2644375,0.17784375,1.20571875,0.948375,-0.21975,-0.3196875,1.1839375,0.019991432611814738,0.020457962299063256,True
20701,84433,0,84434,4184.0,40500.0,41234.0,-0.00042699999999999997,-0.0017079999999999999,0.000305,0.43750000000000006,-1.4525000000000001,-3.6225000000000005,0.97971875,0.27359375,0.180875,1.20171875,0.95375,-0.2189375,-0.31771875,1.1775,0.02033661674877356,0.020503310985945176,True
20702,84434,0,84435,4182.0,40499.0,41236.0,0.00042699999999999997,-0.001464,0.00042699999999999997,0.4025,-1.5225000000000002,-3.6750000000000003,0.97209375,0.2703125,0.18084375,1.2009375,0.947875,-0.21937500000000001,-0.31675000000000003,1.1771562500000001,0.02021883306237259,0.020463003896491104,True
20703,84435,0,84436,4183.0,40498.0,41234.0,0.0015249999999999999,-6.1e-05,0.0013419999999999999,0.36750000000000005,-1.5225000000000002,-3.6050000000000004,0.9781875,0.265375,0.18003125,1.20675,0.94878125,-0.2115,-0.320125,1.18490625,0.019696218739028975,0.020565529576842222,True
20704,84436,0,84437,4183.0,40499.0,41234.0,0.0,0.000976,0.0021349999999999997,0.43750000000000006,-1.4175000000000002,-3.6050000000000004,0.983,0.26459375,0.1795625,1.20125,0.9569062500000001,-0.222,-0.32015625000000003,1.1831875,0.020088917100156884,0.02054751395768685,True
20705,84437,0,84438,4183.0,40501.0,41234.0,-0.001586,0.00122,0.000549,0.43750000000000006,-1.4000000000000001,-3.7625,0.9765312500000001,0.26659375,0.18153125,1.191125,0.95084375,-0.22028125,-0.31696875,1.1769687500000001,0.020101954844145342,0.020500088030092158,True
20706,84438,0,84439,4181.0,40501.0,41234.0,-0.000183,0.0023179999999999997,-0.000244,0.47250000000000003,-1.435,-3.6400000000000006,0.977,0.26678125,0.1789375,1.20159375,0.94846875,-0.21925,-0.31528125,1.1688125,0.020067972790239173,0.02032543834959754,True
20707,84439,0,84440,4184.0,40500.0,41235.0,0.000366,-0.000549,-0.000122,0.47250000000000003,-1.5575,-3.7625,0.9763125,0.267625,0.18131250000000002,1.1990625,0.94815625,-0.21834375,-0.31740625,1.1771875,0.02006614304498011,0.020508714822330198,True
20708,84440,0,84441,4185.0,40500.0,41236.0,-0.000366,0.0,-0.00122,0.385,-1.6275000000000002,-3.7625,0.9716250000000001,0.26725,0.182125,1.1973125,0.94165625,-0.21878125,-0.31690625,1.1773125,0.02006836120211458,0.020521987660334057,True
20709,84441,0,84442,4185.0,40500.0,41235.0,0.0006709999999999999,-0.001281,0.000305,0.29750000000000004,-1.6450000000000002,-3.7625,0.9650625,0.2616875,0.1770625,1.2135625,0.94621875,-0.21953125,-0.3180625,1.18434375,0.01986903648269411,0.020360380272893865,True
20710,84442,0,84443,4183.0,40499.0,41238.0,0.001098,-0.002013,0.000732,0.29750000000000004,-1.6275000000000002,-3.7625,0.9865,0.26815625,0.18153125,1.1975,0.9546875,-0.2198125,-0.3189375,1.1760625,0.020147503206310948,0.020579383864940647,True
20711,84443,0,84444,4184.0,40502.0,41238.0,-0.000122,-0.0006709999999999999,-0.000793,0.2625,-1.6800000000000002,-3.8150000000000004,0.975875,0.2655625,0.17625,1.211125,0.94634375,-0.21971875000000002,-0.3178125,1.18328125,0.020036617890123107,0.02031689733605767,True
20712,84444,0,84445,4184.0,40503.0,41240.0,-0.000915,0.000366,-0.001037,0.28,-1.7675,-3.7450000000000006,0.9785625,0.26775,0.18271875,1.19775,0.9561875,-0.22187500000000002,-0.318375,1.17753125,0.020214165914075603,0.020605560610032537,True
20713,84445,0,84446,4184.0,40501.0,41240.0,0.001281,-0.0006709999999999999,0.0023179999999999997,0.42000000000000004,-1.8025000000000002,-3.7450000000000006,0.97265625,0.26740625,0.18140625,1.19803125,0.9483125,-0.21859375,-0.3176875,1.17771875,0.02006722624016929,0.020523898499805952,True
20714,84446,0,84447,4186.0,40502.0,41244.0,0.000915,-0.001586,0.00183,0.42000000000000004,-1.7325000000000002,-3.7975000000000003,0.9823125,0.25956250000000003,0.1775,1.21275,0.94884375,-0.21915625,-0.31709375,1.1795,0.01976612005217977,0.02033934462254561,True
20715,84447,0,84448,4184.0,40503.0,41246.0,0.0006709999999999999,0.000732,0.000976,0.36750000000000005,-1.7675,-3.7975000000000003,0.9901875,0.2626875,0.17634375,1.20759375,0.95259375,-0.2218125,-0.31959375,1.1815,0.020002631925253325,0.020392507584547956,True
20716,84448,0,84449,4186.0,40504.0,41243.0,0.0,0.001464,-0.0006709999999999999,0.35000000000000003,-1.7675,-3.7450000000000006,0.97475,0.26887500000000003,0.18206250000000002,1.19809375,0.95153125,-0.2204375,-0.31721875,1.177875,0.02020246331223373,0.020532004713738082,True
20717,84449,0,84450,4186.0,40503.0,41247.0,0.000305,-0.000305,-0.0021349999999999997,0.22750000000000004,-1.6625,-3.8150000000000004,0.97190625,0.26725,0.1811875,1.1996875,0.94859375,-0.21928125,-0.31828125,1.1778125,0.02008859160508737,0.020538817890347415,True
20718,84450,0,84451,4186.0,40504.0,41245.0,0.001037,-0.001037,-0.000183,0.385,-1.6625,-3.7975000000000003,0.9746875,0.26646875000000003,0.180375,1.201,0.94759375,-0.2185,-0.31684375,1.17803125,0.02002472283584863,0.02044750359511604,True
20719,84451,0,84452,4185.0,40506.0,41248.0,-0.00061,-0.0021349999999999997,0.0006709999999999999,0.43750000000000006,-1.6275000000000002,-3.7100000000000004,0.9765,0.2653125,0.1780625,1.20653125,0.94896875,-0.2198125,-0.318375,1.18028125,0.020030089002546988,0.02041409016844259,True
20720,84452,0,84453,4187.0,40503.0,41248.0,-0.0023179999999999997,0.0,0.0017079999999999999,0.49000000000000005,-1.5750000000000002,-3.6750000000000003,0.9773125,0.26578125,0.179125,1.206,0.95834375,-0.2230625,-0.32178125,1.187875,0.02018092262281039,0.020594965675057208,True
20721,84453,0,84454,4189.0,40505.0,41250.0,-0.001098,0.00244,0.002196,0.43750000000000006,-1.5050000000000001,-3.6925000000000003,0.98278125,0.2679375,0.18075,1.20178125,0.951625,-0.21015625000000002,-0.3151875,1.17403125,0.019747652392784535,0.020396202990414943,True
20722,84454,0,84455,4188.0,40505.0,41252.0,0.000305,0.0030499999999999998,0.0006709999999999999,0.45500000000000007,-1.8725000000000003,-3.9550000000000005,0.97696875,0.2669375,0.17981250000000001,1.2001875,0.9405,-0.2175625,-0.31634375,1.17075,0.020006142236651602,0.020404229151432356,True
20723,84455,0,84456,4188.0,40504.0,41252.0,0.0023179999999999997,-0.001037,-0.001403,0.35000000000000003,-1.9600000000000002,-4.0075,0.9793125,0.26528125,0.17903125,1.20146875,0.965,-0.22728125000000002,-0.31703125,1.16721875,0.020330902791661776,0.020399796953010044,True
20724,84456,0,84457,4191.0,40506.0,41253.0,0.000915,-0.002562,-0.00183,0.2625,-2.0125,-3.99,0.97696875,0.267125,0.18231250000000002,1.2064062500000001,0.9370937500000001,-0.22059375,-0.32259375,1.19771875,0.020136531541469747,0.02075873384186257,True
20725,84457,0,84458,4190.0,40505.0,41255.0,0.001769,-0.004331,-0.0017079999999999999,0.36750000000000005,-1.9425000000000001,-3.8850000000000002,0.98409375,0.26665625,0.18065625,1.19940625,0.9665,-0.21871875000000002,-0.30575,1.165875,0.02004131618234346,0.02001198276128077,True
20726,84458,0,84459,4190.0,40507.0,41256.0,0.001952,-0.0026839999999999998,-0.000793,0.45500000000000007,-1.9250000000000003,-3.9200000000000004,0.9768125,0.26653125,0.179125,1.1979375,0.94184375,-0.22325,-0.32871875,1.19928125,0.02021946889868205,0.020874249697181445,True
20727,84459,0,84460,4192.0,40506.0,41256.0,0.001037,0.001098,-0.001037,0.36750000000000005,-1.435,-3.6925000000000003,0.98471875,0.26346875000000003,0.18090625,1.201875,0.96425,-0.2229375,-0.31196875,1.16703125,0.020080399001979013,0.020272936555168944,True
20728,84460,0,84461,4192.0,40509.0,41258.0,0.001098,0.003294,-0.000122,0.36750000000000005,-1.3125000000000002,-3.6050000000000004,0.97478125,0.26715625,0.18109375,1.1948125,0.93565625,-0.2119375,-0.31371875,1.1711875,0.019787501516555624,0.020351164915897533,True
20729,84461,0,84462,4194.0,40510.0,41260.0,-0.0021349999999999997,0.004331,0.003477,0.43750000000000006,-1.2775,-3.5525,0.9805,0.26253125,0.17853125,1.2075625,0.956125,-0.2285,-0.32203125,1.19421875,0.020266679736673752,0.020580620707820203,True
20730,84462,0,84463,4194.0,40509.0,41262.0,-0.003294,0.00366,0.0048189999999999995,0.42000000000000004,-1.1025,-3.6225000000000005,0.9775,0.26737500000000003,0.18409375,1.20471875,0.9575312500000001,-0.21553125,-0.3153125,1.17946875,0.019942005195529213,0.02053875515685846,True
20731,84463,0,84464,4195.0,40511.0,41261.0,-0.002074,0.0011589999999999999,0.004209,0.35000000000000003,-1.2075,-3.6750000000000003,0.9856875,0.26659375,0.1805,1.201,0.96275,-0.21928125,-0.31196875,1.17190625,0.02006149542526164,0.02025622667847498,True
20732,84464,0,84465,4196.0,40510.0,41262.0,0.001769,-0.001281,-0.0042699999999999995,0.21000000000000002,-1.6275000000000002,-3.7975000000000003,0.98340625,0.26578125,0.18184375,1.20096875,0.94978125,-0.2220625,-0.3169375,1.17775,0.020140471109757894,0.020511680387384306,True
20733,84465,0,84466,4196.0,40511.0,41264.0,0.004209,-0.002562,-0.0066489999999999995,0.22750000000000004,-1.61,-3.7100000000000004,0.97703125,0.26659375,0.177375,1.207875,0.94871875,-0.21912500000000001,-0.31784375,1.17671875,0.020055173339251525,0.020364418617501805,True
20734,84466,0,84467,4197.0,40508.0,41259.0,0.0042699999999999995,-0.005246,-0.003965,0.3325,-1.715,-3.8325000000000005,0.9775,0.26521875,0.18321875,1.2023125000000001,0.946625,-0.22084375,-0.3193125,1.18578125,0.02006794251335691,0.02066387567493941,True
20735,84467,0,84468,4198.0,40504.0,41255.0,0.003965,-0.004392,-0.002196,0.31500000000000006,-1.2775,-3.8500000000000005,0.98053125,0.266625,0.18065625,1.2008125,0.9551875,-0.2206875,-0.317375,1.17740625,0.020119680748120795,0.020480469211828993,True
20736,84468,0,84469,4197.0,40502.0,41244.0,-0.000976,-0.002074,-0.000122,0.4025,-0.665,-3.7275000000000005,0.979875,0.2650625,0.17940625000000002,1.20415625,0.948125,-0.2114375,-0.31909375,1.1807812500000001,0.01968078103582243,0.020498296734433208,True
20737,84469,0,84470,4196.0,40500.0,41235.0,-0.009211,0.0023179999999999997,0.0051849999999999995,0.5075000000000001,-0.14,-3.6050000000000004,0.9770625000000001,0.2670625,0.17796875,1.2055,0.95615625,-0.21859375,-0.31703125,1.179125,0.020053032600210324,0.020356103296943373,True
20738,84470,0,84471,4192.0,40498.0,41228.0,-0.007991,0.003294,0.002928,0.5775,-0.4025,-3.5525,0.97884375,0.266625,0.18053125,1.201625,0.95521875,-0.222,-0.31696875,1.17803125,0.020172776814466185,0.02045896448339187,True
20739,84471,0,84472,4189.0,40494.0,41220.0,-0.003904,0.0028669999999999998,0.001464,0.49000000000000005,-0.9800000000000001,-3.7450000000000006,0.9770625000000001,0.2675625,0.18025,1.2031875,0.94903125,-0.21896875000000002,-0.31784375,1.17653125,0.02008885081037978,0.020482644560128813,True
20740,84472,0,84473,4186.0,40491.0,41214.0,0.0,0.0025009999999999998,0.000549,0.43750000000000006,-1.4875,-3.7800000000000002,0.98528125,0.26465625,0.18175,1.201375,0.94859375,-0.2225,-0.32015625000000003,1.183375,0.020111724636185362,0.020637459925858824,True
20741,84473,0,84474,4184.0,40489.0,41211.0,0.004209,-0.000183,-0.0006709999999999999,0.43750000000000006,-1.9250000000000003,-3.8150000000000004,0.9659375,0.27096875,0.17815625000000002,1.215,0.943125,-0.21621875000000002,-0.31753125,1.177625,0.02011823171195957,0.020383956533416608,True
20742,84474,0,84475,4179.0,40485.0,41202.0,0.005063,-0.001037,0.000244,0.31500000000000006,-2.205,-3.9200000000000004,0.9960625000000001,0.2656875,0.17834375,1.209625,0.9500000000000001,-0.2206875,-0.320125,1.1845625,0.020080974167227914,0.020496142597951284,True
20743,84475,0,84476,4178.0,40487.0,41203.0,0.003172,-6.1e-05,-0.001952,0.2625,-2.0300000000000002,-3.8150000000000004,0.97296875,0.269,0.18459375,1.1950625,0.95434375,-0.22212500000000002,-0.31996875,1.18128125,0.020275884134856047,0.020746839981034104,True
20744,84476,0,84477,4175.0,40487.0,41199.0,0.0017079999999999999,0.001037,-0.0006709999999999999,0.29750000000000004,-1.8550000000000002,-3.7275000000000005,0.9726875,0.26496875000000003,0.17271875,1.2175625,0.9481875000000001,-0.21878125,-0.31740625,1.17675,0.01997416777526739,0.02015531570107318,True
20745,84477,0,84478,4172.0,40486.0,41201.0,0.001098,0.0021349999999999997,-0.001403,0.4025,-1.6450000000000002,-3.7275000000000005,0.99190625,0.2645,0.17878125,1.19559375,0.9481875000000001,-0.22034375,-0.3203125,1.18509375,0.020018037522692055,0.020521683263732732,True
20746,84478,0,84479,4169.0,40485.0,41203.0,-0.000183,0.0,-0.001281,0.36750000000000005,-1.4175000000000002,-3.8325000000000005,0.9697187500000001,0.26590625,0.17259375,1.2149375,0.953375,-0.21865625,-0.3164375,1.17690625,0.0200078193851073,0.020111138812994298,True
20747,84479,0,84480,4170.0,40488.0,41204.0,-0.0035989999999999998,-0.000732,0.0023179999999999997,0.24500000000000002,-1.1900000000000002,-3.6750000000000003,0.98934375,0.2656875,0.18356250000000002,1.195875,0.9490937500000001,-0.2223125,-0.3189375,1.182625,0.020146713902729145,0.02066290930679023,True
20748,84480,0,84481,4169.0,40489.0,41204.0,-0.003538,-0.002989,-0.001281,0.2625,-1.3125000000000002,-3.6750000000000003,0.9763125,0.26396875000000003,0.17621875,1.21703125,0.9485625,-0.218625,-0.3160625,1.1766875,0.019926554459635922,0.020245105472976966,True
20749,84481,0,84482,4167.0,40489.0,41205.0,-0.0013419999999999999,-0.001647,-0.000793,0.2625,-1.5925000000000002,-3.6750000000000003,0.9941562500000001,0.26025,0.17834375,1.2075625,0.94840625,-0.2194375,-0.31840625,1.1830625000000001,0.01980588938120466,0.020426914284319107,True
20750,84482,0,84483,4168.0,40487.0,41206.0,-0.001769,-0.000183,0.0008539999999999999,0.4025,-1.8375000000000001,-3.6925000000000003,0.9733437500000001,0.2686875,0.18246875,1.1869375,0.95628125,-0.222,-0.31996875,1.17415625,0.020257926678226408,0.020659463224022442,True
20751,84483,0,84484,4169.0,40489.0,41205.0,0.001586,-0.000915,0.000366,0.2625,-1.9250000000000003,-3.6750000000000003,0.9705625,0.26575,0.17875,1.2115625,0.94821875,-0.2185625,-0.31759375,1.17759375,0.0199975741747678,0.020410890777382115,True
20752,84484,0,84485,4167.0,40490.0,41212.0,0.003843,0.0028669999999999998,-0.00244,0.24500000000000002,-2.1700000000000004,-3.7625,0.9829375,0.26409375,0.18031250000000001,1.2040625,0.9375625,-0.22040625,-0.312125,1.18234375,0.02000379328897508,0.020254811128192204,True
20753,84485,0,84486,4168.0,40491.0,41212.0,0.00183,0.002196,-0.001586,0.36750000000000005,-2.0825,-3.6400000000000006,0.97990625,0.26687500000000003,0.18128125,1.2014375,0.95596875,-0.22,-0.3195,1.177625,0.020102188274153596,0.020591757643043645,True
20754,84486,0,84487,4166.0,40488.0,41212.0,-0.000366,0.002074,0.000366,0.385,-1.7675,-3.5700000000000003,0.9765312500000001,0.26709375,0.18021875,1.2024375,0.9485625,-0.2198125,-0.31771875,1.1771562500000001,0.02010363416314639,0.02047632449075841,True
20755,84487,0,84488,4167.0,40492.0,41217.0,0.001586,0.00042699999999999997,0.002928,0.4025,-1.4875,-3.6050000000000004,0.9725625,0.26646875000000003,0.1774375,1.200625,0.94765625,-0.21878125,-0.31746875,1.18371875,0.020036103179221706,0.020351881813356912,True
20756,84488,0,84489,4167.0,40491.0,41217.0,0.0,-0.000305,0.002928,0.385,-1.3825,-3.535,0.98428125,0.26759375,0.1806875,1.2009375,0.9560000000000001,-0.22087500000000002,-0.31984375,1.181625,0.020167262743397998,0.020581186916548342,True
20757,84489,0,84490,4168.0,40495.0,41220.0,-0.0026839999999999998,-0.00061,0.000549,0.28,-1.12,-3.6400000000000006,0.977125,0.2684375,0.18015625,1.2055625,0.9508125000000001,-0.2194375,-0.3173125,1.177875,0.02014394430093597,0.020457390182406054,True
20758,84490,0,84491,4169.0,40493.0,41221.0,-0.002013,-0.0015249999999999999,-0.002013,0.1925,-1.1900000000000002,-3.6750000000000003,0.9855625,0.26409375,0.1794375,1.1971875,0.94625,-0.22184375,-0.31615625,1.1821875,0.020061953376278384,0.02038125371891374,True
20759,84491,0,84492,4169.0,40494.0,41222.0,-0.0013419999999999999,-0.001037,-0.001769,0.15750000000000003,-1.2775,-3.6400000000000006,0.9768125,0.26587500000000003,0.18484375,1.202,0.94884375,-0.21909375,-0.3181875,1.18159375,0.020024231914127673,0.020685392363226085,True
20760,84492,0,84493,4170.0,40496.0,41226.0,0.00042699999999999997,-0.00042699999999999997,-0.0006709999999999999,0.24500000000000002,-1.3650000000000002,-3.6050000000000004,0.9759375,0.26687500000000003,0.18,1.20128125,0.9504375,-0.21690625,-0.31684375,1.175625,0.019977004701003047,0.02043208218583055,True
20761,84493,0,84494,4170.0,40493.0,41227.0,0.000793,-0.000549,-0.002379,0.21000000000000002,-1.3650000000000002,-3.5700000000000003,0.976625,0.26565625,0.17934375,1.20753125,0.9479375,-0.21896875000000002,-0.31815625000000003,1.184,0.02001014184388012,0.020457965434776744,True
20762,84494,0,84495,4171.0,40494.0,41225.0,0.000366,0.001098,0.000183,0.4025,-1.2075,-3.6050000000000004,0.9845,0.26803125,0.18128125,1.20175,0.95528125,-0.2229375,-0.31909375,1.18153125,0.02026875353164743,0.020575396646924805,True
20763,84495,0,84496,4172.0,40493.0,41225.0,0.000488,0.000122,0.001281,0.49000000000000005,-1.2775,-3.5175000000000005,0.97709375,0.2669375,0.18031250000000001,1.1945625,0.94346875,-0.21887500000000001,-0.31746875,1.17140625,0.020059251307090027,0.02047010957914771,True
20764,84496,0,84497,4171.0,40493.0,41223.0,0.000732,-0.000244,0.0018909999999999999,0.5425000000000001,-1.3650000000000002,-3.4825000000000004,0.9752500000000001,0.26678125,0.18081250000000001,1.2044062500000001,0.9415625,-0.21559375,-0.3175625,1.17821875,0.01992001538264987,0.020494447171668623,True
20765,84497,0,84498,4170.0,40494.0,41221.0,0.001037,0.000915,0.002196,0.47250000000000003,-1.2600000000000002,-3.4825000000000004,0.981875,0.264875,0.178125,1.20653125,0.9480000000000001,-0.21946875000000002,-0.317875,1.1780625,0.01999811618493903,0.020396519021501674,True
20766,84498,0,84499,4170.0,40494.0,41219.0,-0.000122,6.1e-05,0.0021349999999999997,0.47250000000000003,-1.0325000000000002,-3.535,0.9821562500000001,0.26565625,0.1795,1.2058125,0.9505,-0.2208125,-0.3208125,1.18403125,0.020084741170429358,0.020571372769721406,True
20767,84499,0,84500,4170.0,40493.0,41220.0,-0.004331,6.1e-05,0.000183,0.28,-0.9100000000000001,-3.4650000000000003,0.98190625,0.26578125,0.17996875,1.20675,0.9550937500000001,-0.22137500000000002,-0.31865625000000003,1.18284375,0.020112658756986344,0.020503805591643248,True
20768,84500,0,84501,4169.0,40491.0,41216.0,-0.0023179999999999997,0.00042699999999999997,-0.0028669999999999998,0.24500000000000002,-1.0150000000000001,-3.4650000000000003,0.97578125,0.26634375,0.17765625000000002,1.2056875,0.95421875,-0.21946875000000002,-0.32053125,1.1809687500000001,0.020058759546490876,0.02048423592720657,True
20769,84501,0,84502,4170.0,40493.0,41217.0,-0.001037,0.0,-0.0026839999999999998,0.28,-1.2600000000000002,-3.5000000000000004,0.98328125,0.265125,0.1789375,1.20546875,0.95275,-0.22259375,-0.32015625000000003,1.178625,0.02013486891757824,0.02052181510963771,True
20770,84502,0,84503,4169.0,40492.0,41215.0,0.001281,-6.1e-05,-0.0008539999999999999,0.3325,-1.5050000000000001,-3.6225000000000005,0.9822500000000001,0.26534375,0.1796875,1.2044375,0.94921875,-0.21915625,-0.31265625,1.181875,0.02000482572550396,0.02025051252883979,True
20771,84503,0,84504,4168.0,40490.0,41217.0,0.001098,-0.000793,0.000915,0.2625,-1.5575,-3.6400000000000006,0.980375,0.26778125,0.17928125,1.20428125,0.9516875,-0.21921875000000002,-0.31859375,1.1743125,0.02010799790971788,0.020473017688368594,True
20772,84504,0,84505,4169.0,40490.0,41213.0,0.000488,0.0,6.1e-05,0.4025,-1.6975000000000002,-3.5700000000000003,0.98046875,0.26503125,0.17871875,1.20296875,0.9500625,-0.2195625,-0.31775000000000003,1.17796875,0.02000836100982419,0.02041589990850305,True
20773,84505,0,84506,4167.0,40490.0,41214.0,0.001098,0.0013419999999999999,0.00122,0.47250000000000003,-1.6800000000000002,-3.6400000000000006,0.9811875,0.264875,0.18,1.20384375,0.94853125,-0.21884375,-0.32278125,1.1913125,0.019972825911641633,0.020671207163037737,True
20774,84506,0,84507,4167.0,40488.0,41215.0,0.001464,0.00042699999999999997,0.000244,0.49000000000000005,-1.6800000000000002,-3.6575,0.97646875,0.2665,0.18025,1.201,0.95609375,-0.21715625,-0.315625,1.17346875,0.019971636843198717,0.02039326564708906,True
20775,84507,0,84508,4166.0,40491.0,41215.0,0.000732,-0.0008539999999999999,0.000305,0.36750000000000005,-1.6275000000000002,-3.6050000000000004,0.97746875,0.26740625,0.1796875,1.20634375,0.94396875,-0.21825,-0.315875,1.17709375,0.020053317229775065,0.02038020429040699,True
20776,84508,0,84509,4166.0,40492.0,41216.0,-0.002074,-0.000305,0.001098,0.28,-1.3650000000000002,-3.7625,0.9921875,0.25940625,0.17371875,1.20834375,0.951625,-0.21946875000000002,-0.32175,1.18846875,0.01977231643448001,0.02037142680933732,True
20777,84509,0,84510,4168.0,40491.0,41217.0,-0.003111,-0.000488,0.000488,0.29750000000000004,-1.5050000000000001,-3.6750000000000003,0.97403125,0.2701875,0.182125,1.1949687500000001,0.9615625,-0.2201875,-0.3200625,1.174625,0.020246540205355552,0.020649104006208868,True
20778,84510,0,84511,4167.0,40492.0,41217.0,-0.001403,0.000549,-0.000366,0.24500000000000002,-1.6275000000000002,-3.7275000000000005,0.9759375,0.259625,0.176875,1.2145000000000001,0.94421875,-0.218375,-0.3154375,1.1699375,0.019737079799945288,0.020246911041596514,True
20779,84511,0,84512,4167.0,40491.0,41219.0,0.0006709999999999999,-0.000183,-0.001464,0.10500000000000001,-1.6975000000000002,-3.8325000000000005,0.965875,0.27025,0.1894375,1.19575,0.96078125,-0.2208125,-0.3123125,1.171,0.020274402437985922,0.02063769129324905,True
20780,84512,0,84513,4166.0,40493.0,41219.0,0.0021349999999999997,-0.000244,-0.002623,0.15750000000000003,-1.715,-3.7800000000000002,0.9809375,0.25778125,0.17478125,1.22290625,0.9438125,-0.21853125,-0.31853125,1.180125,0.019667274414091482,0.02028545617860865,True
20781,84513,0,84514,4166.0,40491.0,41221.0,-0.000305,0.000122,-0.000732,0.14,-1.8025000000000002,-3.7800000000000002,1.0010625,0.254625,0.17096875,1.21815625,0.94853125,-0.21490625,-0.3179375,1.179,0.019390174182483153,0.02010475806182165,True
20782,84514,0,84515,4168.0,40493.0,41223.0,-0.000793,-0.0008539999999999999,0.0006709999999999999,0.2625,-1.8725000000000003,-3.8500000000000005,0.9752500000000001,0.2710625,0.186125,1.189,0.9616250000000001,-0.22325,-0.31815625000000003,1.1793125,0.020406530915546013,0.020736820868152782,True
20783,84515,0,84516,4169.0,40494.0,41224.0,-0.0006709999999999999,-0.001098,0.003904,0.36750000000000005,-1.9250000000000003,-3.8850000000000002,0.96375,0.27003125,0.18146875,1.20390625,0.95234375,-0.2196875,-0.31471875,1.1744375,0.02021986245693715,0.020406878035552026,True
20784,84516,0,84517,4170.0,40494.0,41228.0,0.000549,-0.001037,0.000366,0.22750000000000004,-2.0125,-4.025,0.98728125,0.2525,0.17340625,1.220625,0.9450000000000001,-0.2181875,-0.3175,1.18109375,0.019435290109963848,0.020187365066310272,True
20785,84517,0,84518,4168.0,40494.0,41228.0,0.001403,6.1e-05,-0.0030499999999999998,0.14,-2.1875,-3.9025000000000003,0.99715625,0.2565,0.17278125,1.2185625,0.9534375,-0.22025,-0.315,1.18153125,0.01968394215584067,0.020060919185687847,True
20786,84518,0,84519,4170.0,40497.0,41229.0,0.004148,-0.000976,0.002196,0.35000000000000003,-2.3275,-3.99,0.9958125,0.2618125,0.17450000000000002,1.20871875,0.95084375,-0.2206875,-0.3209375,1.18409375,0.019920986966203997,0.0203708224652113,True
20787,84519,0,84520,4172.0,40495.0,41229.0,0.0032329999999999998,-0.0035989999999999998,-0.000122,0.35000000000000003,-2.3625000000000003,-3.9725000000000006,0.9736250000000001,0.2688125,0.1839375,1.20334375,0.94525,-0.22287500000000002,-0.313,1.18503125,0.020298478194681682,0.020439168346152267,True
20788,84520,0,84521,4171.0,40497.0,41231.0,0.001952,-0.0008539999999999999,-0.0018909999999999999,0.22750000000000004,-2.0650000000000004,-3.9200000000000004,0.9785312500000001,0.26540625,0.1799375,1.199,0.9526875,-0.2213125,-0.31946875,1.1798125,0.02009464805014179,0.020535245039018383,True
20789,84521,0,84522,4173.0,40498.0,41233.0,-0.0008539999999999999,0.001586,-0.002257,0.31500000000000006,-1.715,-3.6750000000000003,0.97721875,0.26753125,0.18084375,1.2014375,0.9475625,-0.21840625,-0.317,1.17065625,0.02006480091975499,0.02047307439240038,True
20790,84522,0,84523,4175.0,40499.0,41234.0,-0.0040869999999999995,0.0017079999999999999,-0.001037,0.29750000000000004,-1.1900000000000002,-3.5700000000000003,0.9763125,0.26778125,0.18009375,1.20109375,0.94834375,-0.21928125,-0.31690625,1.1776875,0.020110526607803443,0.020438455241402267,True
20791,84523,0,84524,4175.0,40498.0,41236.0,-0.002806,0.0028669999999999998,-0.000122,0.49000000000000005,-1.2075,-3.6925000000000003,0.9792500000000001,0.2635,0.18153125,1.200625,0.9491875000000001,-0.22090625,-0.31815625000000003,1.17784375,0.019999509721069997,0.02054791880038192,True
20792,84524,0,84525,4175.0,40499.0,41237.0,-0.003965,-0.001647,0.00183,0.5775,-1.2600000000000002,-3.7100000000000004,0.97690625,0.26737500000000003,0.17971875,1.19578125,0.94875,-0.21887500000000001,-0.317625,1.17721875,0.020077315729983333,0.020451986984748715,True
20793,84525,0,84526,4176.0,40501.0,41236.0,-0.003172,-0.003843,0.004148,0.5950000000000001,-1.4175000000000002,-3.7800000000000002,0.9772500000000001,0.263875,0.17734375,1.2059375,0.94921875,-0.22046875,-0.32146875,1.18528125,0.01999729051486669,0.020509143799138364,True
20794,84526,0,84527,4176.0,40501.0,41239.0,-0.001403,-0.0046359999999999995,0.001586,0.42000000000000004,-1.9075000000000002,-3.7450000000000006,0.9834375000000001,0.264375,0.179625,1.2001875,0.9566875,-0.22012500000000002,-0.31959375,1.1773125,0.020004025577902675,0.020527429657413585,True
20795,84527,0,84528,4177.0,40503.0,41239.0,0.003538,-0.001586,-0.002562,0.385,-2.2925000000000004,-3.6225000000000005,0.9769375,0.26665625,0.18353125,1.20115625,0.94803125,-0.21878125,-0.31715625000000003,1.17071875,0.020043845104715994,0.02058988702677765,True
20796,84528,0,84529,4178.0,40504.0,41241.0,0.0062829999999999995,0.002257,-0.002257,0.3325,-2.24,-3.5525,0.9724375000000001,0.2669375,0.177,1.20353125,0.9485625,-0.21721875000000002,-0.31953125,1.18615625,0.019992231766911714,0.020416974525362203,True
20797,84529,0,84530,4180.0,40504.0,41241.0,0.005673,0.0026839999999999998,-0.002074,0.36750000000000005,-1.9775000000000003,-3.5175000000000005,0.9830625000000001,0.2673125,0.18090625,1.2019375,0.9490937500000001,-0.2195625,-0.31696875,1.1771562500000001,0.020102551398275673,0.020474385813404477,True
20798,84530,0,84531,4179.0,40503.0,41240.0,0.00244,0.004392,0.001037,0.49000000000000005,-1.54,-3.5175000000000005,0.97678125,0.26315625,0.17840625000000002,1.201375,0.94596875,-0.22028125,-0.318875,1.18128125,0.01996002833369245,0.020448365724154594,True
20799,84531,0,84532,4182.0,40503.0,41248.0,-0.0030499999999999998,0.002745,0.004392,0.5950000000000001,-1.1725,-3.6400000000000006,0.97646875,0.26634375,0.18053125,1.20778125,0.9481875000000001,-0.21887500000000001,-0.31596875,1.181125,0.020034735304591978,0.02041868062525784,True
20800,84532,0,84533,4181.0,40504.0,41247.0,-0.0073809999999999995,0.001281,0.004758,0.56,-0.9275000000000001,-3.5700000000000003,0.9823125,0.26334375,0.17765625000000002,1.20625,0.9557187500000001,-0.2205,-0.31709375,1.1831875,0.01997662104415681,0.020345770143687502,True
20801,84533,0,84534,4181.0,40504.0,41247.0,-0.003294,-0.0008539999999999999,-0.002623,0.24500000000000002,-1.05,-3.4825000000000004,0.98375,0.26453125,0.17715625000000002,1.20921875,0.9550625,-0.213375,-0.31965625000000003,1.18184375,0.01973728362939904,0.020428434304041614,True
20802,84534,0,84535,4184.0,40505.0,41248.0,0.000366,-0.002623,-0.003294,0.22750000000000004,-1.4175000000000002,-3.5875000000000004,0.9849687500000001,0.26471875,0.1794375,1.20075,0.95396875,-0.21912500000000001,-0.31946875,1.1775625,0.019977755183145554,0.020514685379383547,True
20803,84535,0,84536,4185.0,40503.0,41246.0,0.00244,-0.004148,-0.002623,0.21000000000000002,-1.5225000000000002,-3.8325000000000005,0.97696875,0.267,0.18040625,1.20146875,0.9485,-0.21887500000000001,-0.31684375,1.1778125,0.02006183193893193,0.020448788712556495,True
20804,84536,0,84537,4184.0,40503.0,41240.0,0.001952,-0.0053679999999999995,-0.002562,0.24500000000000002,-1.5925000000000002,-3.7975000000000003,0.97690625,0.26628125,0.18006250000000001,1.197,0.94803125,-0.2175625,-0.3176875,1.16871875,0.019979044133776883,0.02046864036722242,True
20805,84537,0,84538,4182.0,40496.0,41229.0,0.001586,-0.003172,-0.000183,0.29750000000000004,-1.5225000000000002,-3.6400000000000006,0.98278125,0.26359375,0.1773125,1.20790625,0.951625,-0.22184375,-0.317875,1.18175,0.020041310851904078,0.020363107384999718,True
20806,84538,0,84539,4182.0,40496.0,41222.0,-0.000793,0.00244,0.002074,0.5425000000000001,-1.225,-3.6225000000000005,0.98075,0.2671875,0.18075,1.20140625,0.95496875,-0.21887500000000001,-0.31725000000000003,1.1773125,0.020069573834457632,0.020479289393331893,True
20807,84539,0,84540,4180.0,40495.0,41216.0,-0.003172,0.002074,0.00122,0.5775,-1.2425000000000002,-3.6575,0.97690625,0.267,0.180625,1.20825,0.9466875,-0.2196875,-0.3181875,1.17403125,0.020094706011380206,0.020511911095347873,True
20808,84540,0,84541,4177.0,40489.0,41205.0,-0.001281,0.0028669999999999998,0.0011589999999999999,0.49000000000000005,-1.3650000000000002,-3.8150000000000004,0.98459375,0.2641875,0.18090625,1.20184375,0.96234375,-0.2241875,-0.31778125,1.17565625,0.020160634902615413,0.02050711349334142,True
20809,84541,0,84542,4172.0,40489.0,41204.0,-0.001098,0.002379,0.001647,0.47250000000000003,-1.4700000000000002,-3.8500000000000005,0.9765625,0.2665,0.17828125,1.2064062500000001,0.94296875,-0.22028125,-0.3236875,1.19084375,0.020098084121132988,0.020637033344553538,True
20810,84542,0,84543,4169.0,40488.0,41199.0,6.1e-05,0.0013419999999999999,0.001403,0.49000000000000005,-1.6275000000000002,-3.6400000000000006,0.98509375,0.26359375,0.17903125,1.206375,0.95684375,-0.2206875,-0.321125,1.18671875,0.019994529469900473,0.02056468399385308,True
20811,84543,0,84544,4167.0,40486.0,41194.0,0.002013,-0.00122,-6.1e-05,0.385,-1.8025000000000002,-3.6400000000000006,0.984125,0.26425,0.17728125,1.20596875,0.96059375,-0.22409375,-0.320625,1.19025,0.02015942288862715,0.020472592706807492,True
20812,84544,0,84545,4164.0,40485.0,41192.0,0.000793,-0.0006709999999999999,-0.002013,0.35000000000000003,-1.8900000000000001,-3.7450000000000006,0.97828125,0.2665625,0.18490625,1.206875,0.95903125,-0.2219375,-0.3215,1.1929375,0.02016766825527479,0.020821341200172684,True
20813,84545,0,84546,4161.0,40483.0,41193.0,0.000366,0.000732,-0.002257,0.29750000000000004,-1.9075000000000002,-3.7800000000000002,0.983,0.26421875,0.17996875,1.2090625,0.962875,-0.22640625,-0.3181875,1.185875,0.02025166237769995,0.0204849251203446,True
20814,84546,0,84547,4161.0,40484.0,41194.0,0.001037,0.000122,0.0,0.31500000000000006,-1.9075000000000002,-3.6400000000000006,0.98246875,0.263375,0.177125,1.20775,0.952375,-0.22403125000000002,-0.31403125,1.18990625,0.020120773663549498,0.020200527216152196,True
20815,84547,0,84548,4158.0,40484.0,41193.0,0.0011589999999999999,-0.001037,-0.00042699999999999997,0.4025,-1.9775000000000003,-3.7100000000000004,0.9783437500000001,0.26434375,0.17775,1.20703125,0.9557187500000001,-0.2218125,-0.321125,1.18928125,0.0200710103754622,0.020512003453787602,True
20816,84548,0,84549,4157.0,40484.0,41192.0,0.0,-0.0006709999999999999,-0.001281,0.36750000000000005,-1.8025000000000002,-3.7100000000000004,0.9849375,0.2626875,0.17696875,1.1990625,0.96334375,-0.2254375,-0.3229375,1.17746875,0.020149274909895848,0.020552873188117184,True
20817,84549,0,84550,4155.0,40484.0,41194.0,-0.002623,-6.1e-05,-0.000976,0.35000000000000003,-1.6450000000000002,-3.6400000000000006,0.974875,0.2671875,0.18015625,1.201125,0.95909375,-0.21912500000000001,-0.31959375,1.17928125,0.02007968908868508,0.020549274183496592,True
20818,84550,0,84551,4155.0,40483.0,41196.0,-0.002928,-0.000183,0.00061,0.385,-1.715,-3.6750000000000003,0.97665625,0.266,0.1790625,1.206,0.94721875,-0.2196875,-0.32184375,1.18559375,0.020053417287072762,0.020594912752040027,True
20819,84551,0,84552,4155.0,40486.0,41199.0,0.000549,-0.000122,0.0028669999999999998,0.47250000000000003,-1.8725000000000003,-3.6575,0.984625,0.26415625,0.17709375,1.2098125,0.95634375,-0.22112500000000002,-0.31590625,1.182,0.020035454587679143,0.020274794405411065,True
20820,84552,0,84553,4153.0,40487.0,41202.0,0.001952,0.00061,-0.0008539999999999999,0.385,-1.9775000000000003,-3.6750000000000003,0.98521875,0.2634375,0.17853125,1.206875,0.95275,-0.2233125,-0.318125,1.1744375,0.020094279013243958,0.020423295381531266,True
20821,84553,0,84554,4155.0,40487.0,41201.0,-0.001037,0.001281,-0.0006709999999999999,0.36750000000000005,-1.6975000000000002,-3.6750000000000003,0.9738125,0.26803125,0.181125,1.20046875,0.9540625,-0.22078125,-0.3188125,1.17746875,0.02018153316173482,0.02055764441623126,True
20822,84554,0,84555,4155.0,40487.0,41204.0,-0.000549,-0.00061,0.000976,0.43750000000000006,-1.6625,-3.5700000000000003,0.9769375,0.2674375,0.18084375,1.201375,0.9486875,-0.21871875000000002,-0.31684375,1.17809375,0.020073574288482953,0.020466780356722898,True
20823,84555,0,84556,4156.0,40488.0,41205.0,-0.00061,0.000305,0.0011589999999999999,0.525,-1.8025000000000002,-3.6750000000000003,0.97721875,0.26675,0.18146875,1.2013125,0.9493125,-0.21946875000000002,-0.31725000000000003,1.17775,0.020075533242239263,0.020508846600664137,True
20824,84556,0,84557,4154.0,40491.0,41206.0,0.0021349999999999997,-0.00061,0.000122,0.47250000000000003,-1.8375000000000001,-3.7100000000000004,0.97721875,0.26871875,0.1790625,1.20403125,0.94825,-0.2188125,-0.31884375,1.1844375,0.02013027063155966,0.020474092235573494,True
20825,84557,0,84558,4156.0,40490.0,41209.0,0.000122,-0.000366,0.002074,0.56,-1.7325000000000002,-3.7625,0.9820625000000001,0.26778125,0.180625,1.20034375,0.9570625,-0.22171875,-0.31634375,1.17825,0.02020913565433915,0.020437642891933533,True
20826,84558,0,84559,4156.0,40490.0,41212.0,-0.000732,-0.0006709999999999999,-6.1e-05,0.31500000000000006,-1.5225000000000002,-3.7275000000000005,0.97165625,0.2675625,0.18065625,1.19990625,0.94853125,-0.21937500000000001,-0.31665625000000003,1.1773125,0.02010528760548115,0.020451516643041744,True
20827,84559,0,84560,4158.0,40489.0,41213.0,-0.00122,-0.000488,-0.0023179999999999997,0.36750000000000005,-1.6275000000000002,-3.7100000000000004,0.9775,0.2670625,0.18031250000000001,1.2004062500000001,0.94896875,-0.21828125,-0.31625000000000003,1.16775,0.020040387878475067,0.020421014753508458,True
20828,84560,0,84561,4159.0,40490.0,41214.0,0.000549,-0.000549,-0.001464,0.28,-1.7675,-3.6925000000000003,0.9792500000000001,0.26446875000000003,0.177375,1.2136875,0.947375,-0.21503125,-0.3178125,1.1833125,0.019801750204224908,0.020363159720883612,True
20829,84561,0,84562,4160.0,40491.0,41215.0,0.001403,-0.000305,-0.00183,0.2625,-1.7850000000000001,-3.5525,0.99375,0.27009375,0.1740625,1.2035,0.95659375,-0.2218125,-0.313,1.17903125,0.020308399712036414,0.020033007033274382,True
20830,84562,0,84563,4163.0,40490.0,41214.0,0.0018909999999999999,0.00061,-0.000732,0.36750000000000005,-1.7325000000000002,-3.5700000000000003,0.986625,0.2685,0.18253125,1.19775,0.94584375,-0.22,-0.3125,1.17703125,0.020169281585466558,0.020361182519280208,True
20831,84563,0,84564,4162.0,40490.0,41214.0,-6.1e-05,6.1e-05,0.000122,0.4025,-1.3650000000000002,-3.6400000000000006,0.9728125,0.26640625,0.1773125,1.21146875,0.94859375,-0.21875,-0.31771875,1.1767812500000001,0.02003225806451613,0.02035681286921702,True
20832,84564,0,84565,4162.0,40491.0,41213.0,-0.002257,-0.0013419999999999999,0.0026839999999999998,0.47250000000000003,-1.1375000000000002,-3.4825000000000004,0.9883125,0.260625,0.17971875,1.1974375,0.95584375,-0.22275,-0.319625,1.17271875,0.01995541381552466,0.020532543162158134,True
20833,84565,0,84566,4162.0,40489.0,41212.0,-0.002562,-0.000183,0.001098,0.31500000000000006,-1.225,-3.5525,0.97484375,0.269,0.1824375,1.1980625,0.95415625,-0.22128125,-0.3176875,1.1775625,0.02024175537782503,0.02056630590388169,True
20834,84566,0,84567,4162.0,40490.0,41213.0,-0.0017079999999999999,-0.000183,-0.00244,0.36750000000000005,-1.225,-3.5875000000000004,0.9733125,0.26725,0.18165625,1.21146875,0.9486875,-0.21903125,-0.31703125,1.1773437500000001,0.020078476508014746,0.020507745985645347,True
20835,84567,0,84568,4161.0,40489.0,41209.0,-0.00183,0.001403,0.001647,0.42000000000000004,-1.1900000000000002,-3.6575,0.98971875,0.26684375,0.17509375,1.21009375,0.94959375,-0.2200625,-0.31959375,1.1832500000000001,0.02010342665300719,0.02034110869964676,True
20836,84568,0,84569,4160.0,40487.0,41207.0,-0.0021349999999999997,-0.000732,0.002623,0.5425000000000001,-1.3475000000000001,-3.6750000000000003,0.98271875,0.268125,0.1814375,1.2000625,0.954375,-0.22015625,-0.3175625,1.167,0.02016011973498313,0.020520148760797878,True
20837,84569,0,84570,4159.0,40489.0,41206.0,-0.00061,0.000549,0.0018909999999999999,0.47250000000000003,-1.5575,-3.6225000000000005,0.99,0.26309375,0.18331250000000002,1.19153125,0.94846875,-0.22162500000000002,-0.31884375,1.1771562500000001,0.02001181795193345,0.02064885383376831,True
20838,84570,0,84571,4160.0,40488.0,41206.0,-6.1e-05,0.000976,0.000488,0.43750000000000006,-1.8200000000000003,-3.6050000000000004,0.97240625,0.26165625,0.1799375,1.19771875,0.9490937500000001,-0.21996875000000002,-0.3174375,1.1728750000000001,0.019885450925695353,0.020453429766191442,True
20839,84571,0,84572,4160.0,40488.0,41206.0,0.00183,0.000488,-0.000793,0.42000000000000004,-1.8900000000000001,-3.7275000000000005,0.973125,0.2675625,0.18065625,1.20071875,0.9489375,-0.21875,-0.3176875,1.1775625,0.02008,0.020493056751387233,True
20840,84572,0,84573,4160.0,40487.0,41203.0,0.0030499999999999998,-0.000183,-0.001281,0.4025,-1.9075000000000002,-3.7625,0.983625,0.2629375,0.1783125,1.20521875,0.94959375,-0.22012500000000002,-0.31825000000000003,1.1809687500000001,0.01994467410882479,0.020419335272891758,True
20841,84573,0,84574,4158.0,40485.0,41203.0,0.0028669999999999998,-0.0006709999999999999,-0.000366,0.4025,-1.9075000000000002,-3.8325000000000005,0.97775,0.26728125,0.1809375,1.20115625,0.951625,-0.21871875000000002,-0.31703125,1.17575,0.020067122667255057,0.020478188512423775,True
20842,84574,0,84575,4157.0,40487.0,41203.0,0.000305,-0.000305,-0.000122,0.42000000000000004,-1.6625,-3.7975000000000003,0.9853437500000001,0.26778125,0.1821875,1.202125,0.95075,-0.2221875,-0.31640625,1.18021875,0.020228096657248652,0.020504417670682732,True
20843,84575,0,84576,4158.0,40486.0,41204.0,0.000122,-0.000183,0.00244,0.43750000000000006,-1.54,-3.7800000000000002,0.97690625,0.26696875000000003,0.17725,1.207125,0.962875,-0.21734375,-0.3179375,1.19865625,0.019998580562742355,0.02036305504938484,True
20844,84576,0,84577,4157.0,40487.0,41204.0,-0.0013419999999999999,-0.0017079999999999999,0.004148,0.35000000000000003,-1.5575,-3.7800000000000002,0.9769375,0.2669375,0.178125,1.20484375,0.9494375,-0.21896875000000002,-0.323125,1.1805,0.0200630445918553,0.02060796053138731,True
20845,84577,0,84578,4157.0,40489.0,41205.0,-0.001586,0.000793,-0.0077469999999999995,0.1925,-1.61,-3.6750000000000003,0.9771562500000001,0.27209375,0.17959375,1.2059375,0.9301875000000001,-0.22087500000000002,-0.322125,1.17584375,0.020353052893423547,0.020628080400047284,True
20846,84578,0,84579,4157.0,40489.0,41208.0,-0.001281,0.00244,-0.0034159999999999998,0.28,-1.8025000000000002,-3.7800000000000002,0.9774375000000001,0.26675,0.18021875,1.2053125,0.93590625,-0.21509375,-0.31746875,1.19534375,0.01989848790075405,0.020466254325915402,True
20847,84579,0,84580,4157.0,40487.0,41211.0,0.000244,-0.001647,0.0018909999999999999,0.47250000000000003,-1.9775000000000003,-3.9375000000000004,0.985,0.2644375,0.17953125,1.1946875000000001,0.9615,-0.22365625,-0.310875,1.16721875,0.020149466495174524,0.020172299433895327,True
20848,84580,0,84581,4159.0,40491.0,41211.0,0.002013,-0.0035989999999999998,0.0060999999999999995,0.525,-2.0650000000000004,-3.9550000000000005,0.977125,0.26946875,0.17896875,1.20478125,0.93571875,-0.21865625,-0.32415625,1.18596875,0.020154916728709917,0.02068417069965171,True
20849,84581,0,84582,4160.0,40490.0,41211.0,0.000793,-0.000549,0.0048189999999999995,0.4025,-1.8900000000000001,-3.99,0.98490625,0.26753125,0.179875,1.19340625,0.95878125,-0.21406250000000002,-0.31209375,1.17575,0.019889010776279283,0.020235556635265117,True
20850,84582,0,84583,4160.0,40490.0,41213.0,-0.004026,0.003538,-0.002074,0.35000000000000003,-1.6975000000000002,-3.8325000000000005,0.9760625,0.26496875000000003,0.18075,1.20071875,0.96059375,-0.224625,-0.31009375,1.1684375,0.020210581175147194,0.02019094434796246,True
20851,84583,0,84584,4159.0,40494.0,41216.0,-0.0006709999999999999,0.002928,-0.002257,0.35000000000000003,-1.995,-3.8850000000000002,0.976625,0.2661875,0.18103125,1.2001875,0.944375,-0.22371875,-0.3295625,1.19828125,0.020224237866037807,0.02098655699213662,True
20852,84584,0,84585,4160.0,40491.0,41218.0,0.0046359999999999995,-0.000549,-0.00183,0.385,-2.2575000000000003,-3.9375000000000004,0.98353125,0.26759375,0.1799375,1.2016875,0.96215625,-0.21609375,-0.311375,1.1670625000000001,0.019973803578456996,0.02020916134936835,True
20853,84585,0,84586,4163.0,40492.0,41220.0,0.006344,-0.002013,-0.000915,0.29750000000000004,-2.3625000000000003,-3.9200000000000004,0.9775312500000001,0.26653125,0.18025,1.20671875,0.937875,-0.21828125,-0.31559375,1.1861875,0.02001845197003813,0.02039200667267276,True
20854,84586,0,84587,4163.0,40492.0,41222.0,0.0025009999999999998,-0.002745,0.001037,0.36750000000000005,-2.1,-3.9725000000000006,0.97490625,0.26596875000000003,0.17815625000000002,1.205125,0.96465625,-0.221,-0.31871875,1.1716875,0.020105228933570043,0.020431791868146837,True
20855,84587,0,84588,4164.0,40492.0,41220.0,-0.0011589999999999999,-0.0006709999999999999,0.0013419999999999999,0.385,-1.7325000000000002,-3.7625,0.977,0.2713125,0.18125,1.2013125,0.9460000000000001,-0.21853125,-0.31634375,1.18146875,0.020225989137966405,0.020463345769242133,True
20856,84588,0,84589,4163.0,40495.0,41224.0,-0.000549,0.001037,0.00183,0.4025,-1.7675,-3.7100000000000004,0.9765,0.2674375,0.18059375,1.2005937500000001,0.95653125,-0.2195625,-0.31678125,1.17659375,0.020107712515451095,0.020453981753855686,True
20857,84589,0,84590,4164.0,40497.0,41226.0,0.0,0.000488,0.0,0.42000000000000004,-1.6625,-3.5875000000000004,0.9773125,0.26340625,0.178125,1.20546875,0.9483125,-0.21534375,-0.3176875,1.18371875,0.019770522563818654,0.02038896585047406,True
20858,84590,0,84591,4167.0,40496.0,41227.0,0.000549,0.003111,-0.002013,0.3325,-1.54,-3.5700000000000003,0.97890625,0.26690625,0.17996875,1.201,0.95525,-0.22109375,-0.31740625,1.178,0.020147727639260714,0.020453456050642735,True
20859,84591,0,84592,4166.0,40496.0,41228.0,-0.0008539999999999999,0.0044529999999999995,-0.000366,0.31500000000000006,-1.5050000000000001,-3.7275000000000005,0.98009375,0.26459375,0.18465625,1.2020625,0.9366875,-0.2199375,-0.3154375,1.1843125,0.020005470699501187,0.02056692379069881,True
20860,84592,0,84593,4167.0,40497.0,41228.0,-0.000122,-0.004148,0.00122,0.31500000000000006,-1.7500000000000002,-3.9200000000000004,0.97340625,0.26625,0.18034375,1.20146875,0.9479062500000001,-0.2195625,-0.31646875,1.17103125,0.02005868190228457,0.02043111214493264,True
20861,84593,0,84594,4168.0,40496.0,41229.0,0.0,-0.003843,-0.0028669999999999998,0.21000000000000002,-1.8200000000000003,-3.8500000000000005,0.97740625,0.265,0.17865625000000002,1.19684375,0.94796875,-0.21921875000000002,-0.31765625000000003,1.1772500000000001,0.01999316142268214,0.020409553243849316,True
20862,84594,0,84595,4169.0,40495.0,41231.0,-0.0008539999999999999,-0.0028669999999999998,-0.004209,0.21000000000000002,-1.8025000000000002,-3.7975000000000003,0.98165625,0.265,0.17946875,1.20953125,0.948375,-0.21934375,-0.31465625,1.18584375,0.019998219398492167,0.02032210510892993,True
20863,84595,0,84596,4169.0,40496.0,41234.0,-0.001037,-0.001647,-0.002196,0.29750000000000004,-1.8200000000000003,-3.6750000000000003,0.98378125,0.26990625,0.18071875,1.20125,0.94828125,-0.22159375,-0.318625,1.18271875,0.02029181089704306,0.020533387475648805,True
20864,84596,0,84597,4172.0,40497.0,41233.0,0.000366,-0.00122,0.000549,0.385,-1.8725000000000003,-3.6225000000000005,0.9733437500000001,0.2668125,0.181375,1.19759375,0.9454375,-0.22084375,-0.319125,1.17821875,0.02013374327638772,0.020580510195165325,True
20865,84597,0,84598,4172.0,40498.0,41235.0,0.0046359999999999995,0.004209,0.000122,0.49000000000000005,-1.9075000000000002,-3.5525,0.975125,0.26475,0.17884375,1.2085000000000001,0.9556250000000001,-0.22078125,-0.32059375,1.1838125,0.02004606065297749,0.020535580057538683,True
20866,84598,0,84599,4173.0,40498.0,41237.0,0.000488,0.005429,0.004514,0.56,-1.4700000000000002,-3.5175000000000005,0.9854375,0.27009375,0.183125,1.19621875,0.95659375,-0.22,-0.320125,1.18525,0.020235084640792735,0.02069273903814228,True
20867,84599,0,84600,4174.0,40500.0,41238.0,-0.0030499999999999998,-0.0023179999999999997,0.012993,0.49000000000000005,-1.3650000000000002,-3.6400000000000006,0.96609375,0.2695625,0.18765625,1.20303125,0.9560000000000001,-0.22090625,-0.31990625,1.18534375,0.020249810016914626,0.02087024903724701,True
20868,84600,0,84601,4174.0,40500.0,41239.0,-0.0035989999999999998,0.001464,-0.001281,0.21000000000000002,-1.4525000000000001,-3.8850000000000002,0.98784375,0.26371875,0.17521875,1.21528125,0.9554375,-0.2225625,-0.31975000000000003,1.1772500000000001,0.020075549397385185,0.02035254268649966,True
20869,84601,0,84602,4175.0,40501.0,41242.0,0.00244,0.005978,-0.008357,0.1925,-1.4525000000000001,-3.5875000000000004,0.98865625,0.2628125,0.1773125,1.21575,0.9496875,-0.21909375,-0.317625,1.1771875,0.019897782095996058,0.02035303612092053,True
20870,84602,0,84603,4176.0,40501.0,41240.0,0.001952,-0.00488,-0.00488,0.10500000000000001,-1.5925000000000002,-3.7450000000000006,0.99140625,0.26371875,0.17846875,1.2004062500000001,0.9446875,-0.218375,-0.3175625,1.17765625,0.019906114675324004,0.020398066212433914,True
20871,84603,0,84604,4177.0,40500.0,41239.0,0.005307,-0.007808,-0.0008539999999999999,0.36750000000000005,-1.3825,-3.6925000000000003,0.96828125,0.26875,0.182375,1.19525,0.94875,-0.218375,-0.31196875,1.18546875,0.020113859827507005,0.020333349186293277,True
20872,84604,0,84605,4176.0,40496.0,41230.0,0.002196,-0.0044529999999999995,0.001647,0.525,-1.0325000000000002,-3.6925000000000003,0.97028125,0.273375,0.18603125,1.20253125,0.95603125,-0.21696875000000002,-0.31815625000000003,1.18353125,0.020247940816292293,0.02073296572391256,True
20873,84605,0,84606,4177.0,40493.0,41220.0,-0.004148,-0.002623,0.00366,0.47250000000000003,-0.525,-3.4475000000000002,0.98553125,0.262125,0.17981250000000001,1.2086875,0.95375,-0.2223125,-0.3209375,1.184,0.019999638762814242,0.020589255656777213,True
20874,84606,0,84607,4174.0,40493.0,41212.0,-0.007686,0.000366,0.001952,0.4025,-0.29750000000000004,-3.5525,0.9880625000000001,0.26259375,0.1730625,1.20359375,0.9490000000000001,-0.2211875,-0.31759375,1.17665625,0.01997347363749197,0.02017700661686562,True
20875,84607,0,84608,4170.0,40492.0,41206.0,-0.003538,0.004148,-0.000122,0.43750000000000006,-0.8750000000000001,-3.5700000000000003,0.9760625,0.26828125,0.18228125,1.1975625,0.94075,-0.2188125,-0.3173125,1.18340625,0.020112206162048615,0.02054477648383225,True
20876,84608,0,84609,4170.0,40487.0,41202.0,-0.000305,0.0008539999999999999,0.000244,0.56,-1.3475000000000001,-3.6925000000000003,0.98028125,0.2658125,0.180375,1.207375,0.9554375,-0.2210625,-0.32128125,1.172125,0.020101306455899696,0.020626226260181093,True
20877,84609,0,84610,4167.0,40488.0,41195.0,0.001647,-0.000183,0.001586,0.5075000000000001,-1.6450000000000002,-3.8150000000000004,0.9803125,0.2661875,0.1806875,1.20125,0.94846875,-0.2156875,-0.3171875,1.17828125,0.019899290490926595,0.02047420163207608,True
20878,84610,0,84611,4163.0,40485.0,41193.0,0.002806,-0.000488,0.0015249999999999999,0.5075000000000001,-1.9250000000000003,-3.8500000000000005,0.9771875,0.2665625,0.1806875,1.200625,0.9430625,-0.2184375,-0.3169375,1.1775625,0.020026064852449708,0.02046413122540616,True
20879,84611,0,84612,4161.0,40484.0,41191.0,0.00183,0.0,0.001647,0.5950000000000001,-1.9425000000000001,-3.7450000000000006,0.977,0.26709375,0.18006250000000001,1.19959375,0.948375,-0.21846875000000002,-0.31821875,1.18040625,0.020049265088239735,0.0204900389754081,True
20880,84612,0,84613,4158.0,40484.0,41193.0,0.0023179999999999997,0.000976,-0.000244,0.43750000000000006,-2.0475000000000003,-3.7975000000000003,0.9755312500000001,0.26575,0.17753125,1.2066875000000001,0.9519375,-0.22128125,-0.32106250000000003,1.1849687500000001,0.020107575853362425,0.020500492114602316,True
20881,84613,0,84614,4156.0,40483.0,41192.0,0.000488,0.000793,-0.00061,0.35000000000000003,-1.995,-3.8325000000000005,0.97728125,0.26959375,0.18109375,1.201,0.95421875,-0.22109375,-0.3183125,1.1783125,0.020258684643421607,0.020536221417501728,True
20882,84614,0,84615,4155.0,40484.0,41193.0,0.001952,0.001647,-0.001281,0.31500000000000006,-1.9250000000000003,-3.8325000000000005,0.97703125,0.26659375,0.18081250000000001,1.19909375,0.9490000000000001,-0.21765625,-0.31684375,1.17703125,0.019995741743175498,0.02046549523928244,True
20883,84615,0,84616,4154.0,40483.0,41192.0,0.000122,-0.000549,-0.001037,0.2625,-1.7675,-3.8325000000000005,0.977,0.26684375,0.18084375,1.2001875,0.94234375,-0.217375,-0.31090625,1.17740625,0.019994683569131668,0.020227547049999423,True
20884,84616,0,84617,4152.0,40484.0,41195.0,-0.00042699999999999997,-0.0013419999999999999,-0.0018909999999999999,0.15750000000000003,-1.6975000000000002,-3.7800000000000002,0.97671875,0.266625,0.18,1.2018125,0.9490937500000001,-0.21896875000000002,-0.3169375,1.1755625,0.020050141482593063,0.02043585875071645,True
20885,84617,0,84618,4152.0,40486.0,41196.0,-0.001769,-0.0008539999999999999,6.1e-05,0.35000000000000003,-1.6450000000000002,-3.9375000000000004,0.97684375,0.26746875000000003,0.1864375,1.19559375,0.94884375,-0.21965625,-0.318375,1.1830625000000001,0.020112795779254712,0.020758479956000348,True
20886,84618,0,84619,4151.0,40487.0,41198.0,-0.001403,-0.001464,0.002562,0.385,-1.715,-3.8675,0.9773125,0.2671875,0.18159375,1.2008125,0.9480937500000001,-0.21940625,-0.319125,1.1847812500000001,0.020091068500079357,0.02058950517339748,True
20887,84619,0,84620,4152.0,40485.0,41201.0,0.0006709999999999999,-0.001647,0.00061,0.29750000000000004,-1.8025000000000002,-3.7800000000000002,0.977625,0.26715625,0.18121875,1.20175,0.95515625,-0.21675,-0.31909375,1.18346875,0.019982295312129,0.020572826649841756,True
20888,84620,0,84621,4152.0,40486.0,41204.0,0.001098,0.00061,-0.000915,0.36750000000000005,-1.9425000000000001,-3.7800000000000002,0.98271875,0.2641875,0.17853125,1.2075,0.95528125,-0.2199375,-0.32003125,1.1827812500000001,0.019988697328389062,0.020500076454465905,True
20889,84621,0,84622,4152.0,40486.0,41204.0,0.0013419999999999999,0.0021349999999999997,0.0,0.42000000000000004,-1.8025000000000002,-3.8325000000000005,0.98453125,0.2643125,0.17846875,1.1987812500000001,0.95359375,-0.22140625,-0.3191875,1.18428125,0.02005328447847655,0.02046352288702079,True
20890,84622,0,84623,4153.0,40488.0,41207.0,0.000366,0.001037,-0.0018909999999999999,0.36750000000000005,-1.7675,-3.7100000000000004,0.980125,0.26878125,0.18146875,1.20121875,0.9565625,-0.216625,-0.3170625,1.17784375,0.020044339374293486,0.020501294101621034,True
20891,84623,0,84624,4153.0,40490.0,41211.0,0.001037,0.00122,0.000366,0.49000000000000005,-1.7500000000000002,-3.7975000000000003,0.9749375,0.26587500000000003,0.17875,1.2055,0.9489062500000001,-0.21965625,-0.31865625000000003,1.176125,0.020046991789984633,0.020453689746940687,True
20892,84624,0,84625,4155.0,40491.0,41211.0,-0.000366,0.0,0.0,0.3325,-1.61,-3.7450000000000006,0.98440625,0.26425,0.17846875,1.20540625,0.94925,-0.21971875000000002,-0.31746875,1.18265625,0.01998242650939124,0.020394289598912305,True
20893,84625,0,84626,4154.0,40492.0,41212.0,-0.000183,-0.001464,0.0017079999999999999,0.3325,-1.5925000000000002,-3.7800000000000002,0.98178125,0.26471875,0.17965625000000002,1.20590625,0.95453125,-0.22196875,-0.319875,1.17890625,0.020092813471241887,0.020540041838208463,True
20894,84626,0,84627,4155.0,40492.0,41215.0,-0.000183,0.000732,-0.000122,0.43750000000000006,-1.5575,-3.7450000000000006,0.982125,0.26565625,0.18090625,1.20128125,0.95196875,-0.21925,-0.318125,1.17809375,0.020021522136317187,0.020520959161119536,True
20895,84627,0,84628,4156.0,40491.0,41216.0,0.000488,-0.001647,0.000793,0.5075000000000001,-1.6450000000000002,-3.6750000000000003,0.976375,0.2678125,0.18003125,1.200125,0.9490625,-0.21809375,-0.31678125,1.17778125,0.02006376946988241,0.020430849580472334,True
20896,84628,0,84629,4155.0,40493.0,41219.0,0.000183,-0.00061,0.000915,0.35000000000000003,-1.4525000000000001,-3.7100000000000004,0.97746875,0.2666875,0.18115625,1.201375,0.94853125,-0.2189375,-0.31696875,1.1771875,0.020051457666134198,0.02048466670007955,True
20897,84629,0,84630,4159.0,40491.0,41216.0,0.000244,-0.000122,-0.000732,0.29750000000000004,-1.3650000000000002,-3.7100000000000004,0.977625,0.2665,0.18103125,1.20128125,0.9364375,-0.2108125,-0.31621875,1.17703125,0.019714848479372597,0.020449314307965746,True
20898,84630,0,84631,4157.0,40492.0,41219.0,0.0,-0.000122,-0.001586,0.22750000000000004,-1.2950000000000002,-3.6225000000000005,0.97675,0.2666875,0.18078125,1.2014375,0.94321875,-0.21903125,-0.3158125,1.16840625,0.020055250971279043,0.02042266734866458,True
20899,84631,0,84632,4159.0,40492.0,41219.0,0.000305,-0.000366,-0.0011589999999999999,0.22750000000000004,-1.1375000000000002,-3.6400000000000006,0.9826875,0.2664375,0.17740625000000002,1.212375,0.9479375,-0.22259375,-0.32353125,1.18834375,0.020189053866289608,0.0205947686974933,True
20900,84632,0,84633,4158.0,40491.0,41217.0,-0.001586,0.000549,-0.000976,0.45500000000000007,-1.0150000000000001,-3.5000000000000004,0.9803125,0.26196875000000003,0.18228125,1.18971875,0.96134375,-0.2240625,-0.32090625,1.18984375,0.02006398596436911,0.02068950452863984,True
20901,84633,0,84634,4160.0,40489.0,41214.0,-0.002379,0.000793,0.000549,0.49000000000000005,-0.9275000000000001,-3.3950000000000005,0.97428125,0.268625,0.1848125,1.1939375,0.9610625,-0.22328125000000001,-0.31975000000000003,1.17953125,0.020307168336246767,0.02074702659361219,True
20902,84634,0,84635,4159.0,40490.0,41212.0,-0.0018909999999999999,0.00061,0.001464,0.525,-0.9275000000000001,-3.5000000000000004,0.96559375,0.26790625,0.1735625,1.21809375,0.94496875,-0.21709375,-0.316,1.1741875,0.020027176052039686,0.020133348412567857,True
20903,84635,0,84636,4159.0,40492.0,41214.0,-0.001464,0.001037,0.001098,0.56,-1.12,-3.5000000000000004,0.9917812500000001,0.2635,0.18675,1.19040625,0.9521875,-0.2255625,-0.32275,1.18815625,0.020187869734706883,0.020947466877717362,True
20904,84636,0,84637,4159.0,40488.0,41212.0,-0.00122,0.0,0.001281,0.5775,-1.2950000000000002,-3.6050000000000004,0.964125,0.27409375,0.18315625,1.19403125,0.94996875,-0.217125,-0.31525000000000003,1.17490625,0.020283941632212744,0.020497681496180385,True
20905,84637,0,84638,4159.0,40491.0,41213.0,-0.000183,-0.000122,0.000549,0.29750000000000004,-1.4000000000000001,-3.6575,0.97671875,0.25853125,0.175625,1.2195625,0.94540625,-0.216375,-0.316625,1.17478125,0.019610955396916343,0.020243352027676537,True
20906,84638,0,84639,4158.0,40489.0,41211.0,6.1e-05,-0.00042699999999999997,6.1e-05,0.29750000000000004,-1.4875,-3.7975000000000003,0.99990625,0.25625,0.17371875,1.21471875,0.94875,-0.22053125,-0.315375,1.1735,0.019685003812622812,0.02011458799216545,True
20907,84639,0,84640,4159.0,40490.0,41212.0,0.000732,-0.000244,-0.001281,0.3325,-1.6975000000000002,-3.7625,0.98471875,0.26115625,0.17515625,1.21575,0.9443125,-0.2181875,-0.3156875,1.17440625,0.01979271776634812,0.020186299482587117,True
20908,84640,0,84641,4159.0,40488.0,41213.0,0.001647,0.000305,-0.0028669999999999998,0.36750000000000005,-1.8025000000000002,-3.7275000000000005,1.00071875,0.26425,0.1804375,1.18371875,0.94765625,-0.2236875,-0.31959375,1.18184375,0.020142990203287588,0.02056083893259936,True
20909,84641,0,84642,4158.0,40488.0,41212.0,0.000488,-6.1e-05,-0.000366,0.43750000000000006,-1.7850000000000001,-3.7975000000000003,0.96525,0.27596875,0.1885625,1.1938125,0.9540937500000001,-0.22025,-0.32003125,1.17990625,0.02048776333852871,0.020912545085648274,True
20910,84642,0,84643,4159.0,40490.0,41212.0,0.00061,0.00122,0.00122,0.4025,-1.7500000000000002,-3.7625,0.96875,0.26196875000000003,0.17328125,1.21475,0.94853125,-0.21859375,-0.3170625,1.1775,0.019842708662636533,0.020164596361094193,True
20911,84643,0,84644,4159.0,40490.0,41215.0,0.000366,0.0,0.002989,0.49000000000000005,-1.6975000000000002,-3.7975000000000003,0.9843125,0.26809375,0.18603125,1.193375,0.9565625,-0.22128125,-0.317875,1.1766875,0.020204339933503724,0.02072163994592455,True
20912,84644,0,84645,4158.0,40491.0,41214.0,0.00061,0.000732,0.001281,0.56,-1.61,-3.8325000000000005,0.97346875,0.265,0.178625,1.205375,0.9481875000000001,-0.21928125,-0.318,1.1833125,0.01999569041711343,0.020422115305534994,True
20913,84645,0,84646,4159.0,40491.0,41216.0,-0.0011589999999999999,-0.0013419999999999999,0.0011589999999999999,0.42000000000000004,-1.5575,-3.8325000000000005,0.98403125,0.267,0.18071875,1.200875,0.95434375,-0.2210625,-0.31715625000000003,1.177125,0.020150334032621404,0.020474227943491546,True
20914,84646,0,84647,4159.0,40491.0,41216.0,-0.00122,-0.000122,-0.0013419999999999999,0.35000000000000003,-1.7675,-3.8675,0.978,0.2670625,0.1806875,1.20140625,0.94853125,-0.21396875,-0.31721875,1.17853125,0.01986585738861995,0.02047546041835068,True
20915,84647,0,84648,4160.0,40493.0,41219.0,0.0008539999999999999,-0.00061,-0.002562,0.28,-1.7850000000000001,-3.8500000000000005,0.9823437500000001,0.26340625,0.18540625,1.2022187500000001,0.9514375,-0.22228125,-0.3204375,1.18321875,0.02005126994386625,0.020799122137502662,True
20916,84648,0,84649,4160.0,40492.0,41219.0,-0.000122,-0.000549,-0.00183,0.3325,-1.6450000000000002,-4.0075,0.97659375,0.26790625,0.17953125,1.1959375,0.94859375,-0.21853125,-0.3173125,1.17821875,0.02008534270632122,0.02043168832904541,True
20917,84649,0,84650,4158.0,40494.0,41220.0,-0.0006709999999999999,-0.000366,0.000366,0.385,-1.7500000000000002,-3.9025000000000003,0.9796875,0.26356250000000003,0.1788125,1.20109375,0.9529062500000001,-0.22121875,-0.319875,1.18003125,0.020014733981955392,0.020505347992125784,True
20918,84650,0,84651,4162.0,40494.0,41224.0,-0.0018909999999999999,0.000183,-0.000549,0.385,-1.8025000000000002,-3.9550000000000005,0.976875,0.26478125,0.1815,1.2083125000000001,0.94884375,-0.21896875000000002,-0.31815625000000003,1.1854375,0.01997401313794585,0.020546633752301844,True
20919,84651,0,84652,4162.0,40494.0,41223.0,0.000976,0.00122,-0.000549,0.4025,-2.0475000000000003,-3.8675,0.9765,0.26378125,0.17940625000000002,1.20015625,0.95665625,-0.22225,-0.3191875,1.1819375,0.020065487310220977,0.020502072694657255,True
20920,84652,0,84653,4163.0,40495.0,41224.0,0.003294,-0.000976,0.002562,0.47250000000000003,-2.0300000000000002,-3.8325000000000005,0.98209375,0.270625,0.18065625,1.2005937500000001,0.95621875,-0.22171875,-0.31609375,1.177625,0.02032654061760171,0.020428856917036685,True
20921,84653,0,84654,4162.0,40495.0,41226.0,0.00244,-0.0006709999999999999,0.0008539999999999999,0.3325,-2.0475000000000003,-3.9025000000000003,0.9733125,0.26684375,0.18081250000000001,1.2008125,0.9490937500000001,-0.21815625,-0.31775000000000003,1.1783125,0.02002629741890446,0.020501999568216633,True
20922,84654,0,84655,4163.0,40498.0,41229.0,0.002074,-6.1e-05,-0.00061,0.1925,-1.9250000000000003,-3.8675,0.9775,0.267125,0.18609375,1.20109375,0.9489062500000001,-0.21884375,-0.31740625,1.1705625,0.020065728777824084,0.02070533324252047,True
20923,84655,0,84656,4166.0,40496.0,41230.0,0.0017079999999999999,6.1e-05,-0.00122,0.15750000000000003,-1.6800000000000002,-3.8500000000000005,0.98028125,0.2670625,0.1770625,1.2080312500000001,0.94975,-0.21809375,-0.318,1.1825,0.020032800888798274,0.020357862488691505,True
20924,84656,0,84657,4167.0,40497.0,41228.0,-0.000915,-0.000976,0.00061,0.36750000000000005,-1.5925000000000002,-3.7975000000000003,0.97746875,0.26725,0.1799375,1.20190625,0.9413125,-0.21984375,-0.317625,1.17709375,0.02011134981000858,0.02046098251782401,True
20925,84657,0,84658,4167.0,40499.0,41231.0,-0.001464,-0.0006709999999999999,0.0006709999999999999,0.42000000000000004,-1.6450000000000002,-3.7100000000000004,0.9765312500000001,0.26637500000000003,0.1799375,1.2068125,0.9490625,-0.21925,-0.3175625,1.17825,0.020051198942989568,0.020458464946887668,True
20926,84658,0,84659,4166.0,40497.0,41233.0,-0.000976,0.000549,-0.0013419999999999999,0.3325,-1.4000000000000001,-3.6050000000000004,0.9834375000000001,0.26434375,0.17634375,1.2078125,0.9525,-0.2206875,-0.31871875,1.1772500000000001,0.02002549473461478,0.020357260803470577,True
20927,84659,0,84660,4169.0,40500.0,41236.0,-0.000732,0.0026839999999999998,-0.000122,0.3325,-1.2950000000000002,-3.5875000000000004,0.9843125,0.26328125,0.17821875,1.209125,0.95115625,-0.21853125,-0.31825000000000003,1.1835,0.01989437323950023,0.020415480143513617,True
20928,84660,0,84661,4170.0,40501.0,41237.0,-0.002379,0.0046359999999999995,0.00122,0.31500000000000006,-1.4175000000000002,-3.6225000000000005,0.9834375000000001,0.26621875,0.18115625,1.200375,0.953125,-0.22090625,-0.317125,1.1774375,0.020111757791886918,0.02049096058847417,True
20929,84661,0,84662,4171.0,40501.0,41238.0,-0.00061,-0.001952,0.000549,0.4025,-1.6800000000000002,-3.8675,0.9768125,0.2670625,0.17978125,1.2082187500000001,0.94859375,-0.21884375,-0.31678125,1.1796875,0.020063148142652348,0.020420568614524178,True
20930,84662,0,84663,4171.0,40503.0,41241.0,0.00061,-0.0032329999999999998,0.000793,0.31500000000000006,-1.7325000000000002,-3.7975000000000003,0.98003125,0.2675625,0.180625,1.2015625,0.95465625,-0.21846875000000002,-0.31740625,1.1709375,0.020068620151717894,0.02048044289262964,True
20931,84663,0,84664,4172.0,40503.0,41242.0,0.00122,-0.0037819999999999998,-0.0006709999999999999,0.35000000000000003,-1.7675,-3.7275000000000005,0.97671875,0.26646875000000003,0.179625,1.207375,0.94875,-0.2189375,-0.31715625000000003,1.178375,0.0200424254779963,0.020429249411102503,True
20932,84664,0,84665,4173.0,40503.0,41242.0,0.00244,-0.002379,-0.001647,0.31500000000000006,-1.8025000000000002,-3.7975000000000003,0.982125,0.266,0.1783125,1.20159375,0.9559375,-0.2214375,-0.31990625,1.1778125,0.02012421847382097,0.020486047309495697,True
20933,84665,0,84666,4174.0,40502.0,41244.0,0.002623,0.00042699999999999997,-0.0025009999999999998,0.3325,-1.8900000000000001,-3.6225000000000005,0.9770625000000001,0.26659375,0.1789375,1.2093125,0.94846875,-0.21878125,-0.313875,1.19721875,0.020041264462884564,0.020268776573047282,True
20934,84666,0,84667,4176.0,40503.0,41244.0,0.002745,0.0026839999999999998,0.0006709999999999999,0.6125,-1.54,-3.5525,0.98440625,0.265125,0.18065625,1.20353125,0.96946875,-0.22212500000000002,-0.3149375,1.1734375000000001,0.02011590642852351,0.02038227529887749,True
20935,84667,0,84668,4176.0,40503.0,41245.0,-0.000366,0.004941,0.0035989999999999998,0.6125,-1.2950000000000002,-3.6050000000000004,0.98140625,0.26725,0.18131250000000002,1.2019375,0.94265625,-0.216625,-0.307,1.17240625,0.019981108019800447,0.02008937754556301,True
20936,84668,0,84669,4176.0,40506.0,41250.0,-0.002074,0.002379,0.004148,0.6125,-1.0150000000000001,-3.5875000000000004,0.9821562500000001,0.26496875000000003,0.180875,1.20140625,0.9656875,-0.22121875,-0.314125,1.17265625,0.02007279257985315,0.02035853644743539,True
20937,84669,0,84670,4178.0,40506.0,41252.0,-0.003111,0.001037,0.003904,0.5075000000000001,-1.0850000000000002,-3.5175000000000005,0.97146875,0.26609375,0.17834375,1.20684375,0.9390937500000001,-0.22240625,-0.32459375,1.19140625,0.02016727797222871,0.020676090428026164,True
20938,84670,0,84671,4179.0,40505.0,41251.0,-0.004209,0.000366,0.0013419999999999999,0.3325,-1.225,-3.6400000000000006,0.97990625,0.26721875,0.18159375,1.2013125,0.9635,-0.2165,-0.31459375,1.1712500000000001,0.01997475894534718,0.02040698294619872,True
20939,84671,0,84672,4179.0,40505.0,41251.0,0.000976,-0.004026,-0.0040869999999999995,0.15750000000000003,-1.4000000000000001,-3.6750000000000003,0.97775,0.26684375,0.18031250000000001,1.20109375,0.9419375,-0.21765625,-0.3150625,1.18340625,0.020006064790022773,0.020373174035641487,True
20940,84672,0,84673,4179.0,40503.0,41243.0,0.002562,-0.002806,-0.0034159999999999998,0.1925,-1.3650000000000002,-3.7275000000000005,0.98428125,0.26446875000000003,0.17890625000000002,1.201,0.96615625,-0.226,-0.32115625000000003,1.1709687500000001,0.020245552299182696,0.020560802901794607,True
20941,84673,0,84674,4179.0,40502.0,41236.0,0.0025009999999999998,-0.002562,-0.004758,0.3325,-1.2775,-3.6925000000000003,0.97296875,0.26621875,0.18034375,1.2003125000000001,0.9419062500000001,-0.2170625,-0.31534375000000003,1.1572500000000001,0.0199562292082287,0.020385790351000077,True
20942,84674,0,84675,4178.0,40498.0,41226.0,-0.001037,-0.002745,-0.000549,0.35000000000000003,-0.9625000000000001,-3.6925000000000003,0.97859375,0.26687500000000003,0.178625,1.2084062500000001,0.9549375,-0.2238125,-0.32384375,1.1927812500000001,0.020256410917975858,0.020657456739336274,True
20943,84675,0,84676,4175.0,40493.0,41215.0,-0.003721,0.0006709999999999999,0.001403,0.4025,-0.7175,-3.7625,0.983875,0.2671875,0.18081250000000001,1.2019375,0.95784375,-0.22096875,-0.31390625,1.17165625,0.02015428263991299,0.020347152157008913,True
20944,84676,0,84677,4173.0,40491.0,41211.0,-0.0013419999999999999,0.002257,0.003355,0.6125,-1.3125000000000002,-3.7275000000000005,0.9775625,0.26821875,0.179125,1.2056875,0.9423750000000001,-0.22012500000000002,-0.31834375,1.18525,0.020162726245219628,0.020456522661005644,True
20945,84677,0,84678,4170.0,40489.0,41208.0,0.000488,0.002562,0.002623,0.5425000000000001,-1.4875,-3.7800000000000002,0.9829375,0.26446875000000003,0.18065625,1.20203125,0.9519375,-0.22037500000000002,-0.31925000000000003,1.1775,0.020018011694699196,0.020555989596718647,True
20946,84678,0,84679,4166.0,40488.0,41202.0,0.001281,0.000122,0.001647,0.4025,-1.6275000000000002,-3.7100000000000004,0.9765,0.2665,0.17784375,1.2058125,0.94446875,-0.21840625,-0.3179375,1.18328125,0.020022219670214673,0.02038747118253758,True
20947,84679,0,84680,4163.0,40489.0,41200.0,0.001037,0.000366,-0.000305,0.45500000000000007,-1.7325000000000002,-3.8150000000000004,0.979625,0.2674375,0.18156250000000002,1.1927812500000001,0.95803125,-0.21878125,-0.3164375,1.17703125,0.02007610312760887,0.02047997368035511,True
20948,84680,0,84681,4162.0,40486.0,41197.0,0.0013419999999999999,0.0008539999999999999,-0.001586,0.35000000000000003,-1.7850000000000001,-3.9025000000000003,0.983625,0.26421875,0.1791875,1.198375,0.952625,-0.22278125000000001,-0.3155625,1.18415625,0.02010504058034211,0.020347051399695157,True
20949,84681,0,84682,4160.0,40486.0,41197.0,-0.000793,0.000732,-0.000305,0.21000000000000002,-1.7850000000000001,-3.8500000000000005,0.97721875,0.26737500000000003,0.180875,1.2015,0.9489375,-0.21871875000000002,-0.317,1.1780625,0.020070993639991794,0.020474359501583255,True
20950,84682,0,84683,4157.0,40486.0,41196.0,-0.000488,0.000122,0.0,0.17500000000000002,-1.8375000000000001,-3.9025000000000003,0.977625,0.26459375,0.179,1.207875,0.94875,-0.21990625,-0.31990625,1.1741875,0.02000420625079835,0.02051431633294228,True
20951,84683,0,84684,4156.0,40487.0,41195.0,0.002074,0.00042699999999999997,-0.0006709999999999999,0.22750000000000004,-1.9250000000000003,-3.7100000000000004,0.97890625,0.26709375,0.18040625,1.20203125,0.9430000000000001,-0.22037500000000002,-0.3164375,1.1780625,0.020126391519536754,0.02043242354066051,True
20952,84684,0,84685,4157.0,40486.0,41198.0,0.001403,-0.000305,-0.00061,0.3325,-2.0475000000000003,-3.7275000000000005,0.97746875,0.26665625,0.181,1.2073125,0.9485,-0.219,-0.31784375,1.17859375,0.02005269623023246,0.020513486110379335,True
20953,84685,0,84686,4156.0,40486.0,41201.0,0.0028669999999999998,-0.00061,6.1e-05,0.21000000000000002,-1.9075000000000002,-3.8150000000000004,0.98378125,0.26296875000000003,0.17878125,1.19909375,0.9520625,-0.22237500000000002,-0.31834375,1.1853125,0.020037000913411672,0.020442387241112997,True
20954,84686,0,84687,4156.0,40488.0,41203.0,0.000976,-0.00042699999999999997,-0.000976,0.385,-1.7500000000000002,-3.6050000000000004,0.97884375,0.26796875000000003,0.18171875,1.19790625,0.9555625,-0.22125,-0.31596875,1.17825,0.020197915053929916,0.020467516845283,True
20955,84687,0,84688,4157.0,40491.0,41206.0,-0.000915,-0.0008539999999999999,0.0006709999999999999,0.5075000000000001,-1.6450000000000002,-3.7275000000000005,0.974375,0.2675625,0.179875,1.20709375,0.94903125,-0.2195,-0.3175625,1.17803125,0.020110344969962217,0.02045589478797474,True
20956,84688,0,84689,4156.0,40491.0,41207.0,-0.000793,-0.0015249999999999999,0.0006709999999999999,0.42000000000000004,-1.5225000000000002,-3.7975000000000003,0.98809375,0.2644375,0.18031250000000001,1.2049375,0.95478125,-0.2224375,-0.31909375,1.18709375,0.02010016539417224,0.02053556169213748,True
20957,84689,0,84690,4157.0,40491.0,41210.0,-0.000366,-0.00042699999999999997,-0.000732,0.4025,-1.4525000000000001,-3.6400000000000006,0.9726875,0.26778125,0.18134375,1.2023125000000001,0.9556250000000001,-0.21775,-0.31665625000000003,1.17796875,0.020048569747396022,0.020479789444735025,True
20958,84690,0,84691,4156.0,40492.0,41210.0,-0.00042699999999999997,0.00042699999999999997,-0.000915,0.3325,-1.2950000000000002,-3.6750000000000003,0.98940625,0.26090625,0.17646875,1.21425,0.948625,-0.22128125,-0.31875000000000003,1.18375,0.019907596754403734,0.02036365972757646,True
20959,84691,0,84692,4158.0,40492.0,41214.0,-0.001586,0.0011589999999999999,-0.000976,0.35000000000000003,-1.2600000000000002,-3.5700000000000003,0.99040625,0.26246875000000003,0.1765625,1.2140312500000001,0.956125,-0.2211875,-0.31971875,1.18521875,0.01996831286657601,0.020406537390569125,True
20960,84692,0,84693,4156.0,40493.0,41215.0,-0.000732,0.001037,0.000305,0.36750000000000005,-1.3125000000000002,-3.6750000000000003,0.9886875,0.26025,0.18221875,1.19134375,0.9520000000000001,-0.22184375,-0.31890625,1.18425,0.01990326397015091,0.020606395487050327,True
20961,84693,0,84694,4158.0,40495.0,41219.0,-0.000122,-0.000305,0.00244,0.49000000000000005,-1.3475000000000001,-3.6575,0.97321875,0.27187500000000003,0.179625,1.21478125,0.950625,-0.21912500000000001,-0.3176875,1.17771875,0.020273234478950006,0.0204506493473115,True
20962,84694,0,84695,4161.0,40494.0,41219.0,-0.0008539999999999999,-0.000183,0.001037,0.49000000000000005,-1.3475000000000001,-3.6400000000000006,0.98459375,0.2683125,0.1814375,1.201125,0.9546250000000001,-0.21978125,-0.3173125,1.17778125,0.020152690272543232,0.02051007898179538,True
20963,84695,0,84696,4162.0,40495.0,41219.0,0.000793,0.0008539999999999999,-0.001281,0.4025,-1.3650000000000002,-3.7275000000000005,0.99021875,0.26775,0.1764375,1.2079375,0.94846875,-0.21903125,-0.31990625,1.18146875,0.020099121429557592,0.02040894997282319,True
20964,84696,0,84697,4162.0,40495.0,41221.0,0.0006709999999999999,-0.00122,-0.0008539999999999999,0.36750000000000005,-1.5225000000000002,-3.6225000000000005,0.9802500000000001,0.26803125,0.18178125,1.20565625,0.9525625,-0.21984375,-0.31790625,1.18134375,0.02014360641777468,0.020548130043062406,True
20965,84697,0,84698,4161.0,40493.0,41220.0,0.001403,-0.000793,-0.001586,0.42000000000000004,-1.54,-3.7275000000000005,0.978625,0.26771875,0.1829375,1.2004062500000001,0.95228125,-0.21965625,-0.318,1.1781875,0.020123117973650018,0.02059945308002303,True
20966,84698,0,84699,4162.0,40495.0,41222.0,0.00122,-0.001952,0.0006709999999999999,0.42000000000000004,-1.3650000000000002,-3.7800000000000002,0.9765625,0.2675,0.181125,1.20109375,0.9490625,-0.21840625,-0.31721875,1.17815625,0.020063510578859828,0.020493451785064853,True
20967,84699,0,84700,4162.0,40496.0,41224.0,0.0017079999999999999,-0.0008539999999999999,0.0006709999999999999,0.4025,-1.3475000000000001,-3.6750000000000003,0.97703125,0.26559375,0.17934375,1.2010625,0.9491875000000001,-0.21909375,-0.31746875,1.1775625,0.02001261917572783,0.02043027196241385,True
20968,84700,0,84701,4163.0,40494.0,41222.0,-0.001769,0.0015249999999999999,0.00061,0.35000000000000003,-1.0850000000000002,-3.6050000000000004,0.9849687500000001,0.2649375,0.18065625,1.2005000000000001,0.9559062500000001,-0.22234375,-0.31809375,1.17771875,0.020117014894564033,0.02050942006916147,True
20969,84701,0,84702,4162.0,40494.0,41221.0,-0.00366,-0.000305,0.00061,0.35000000000000003,-0.8925000000000001,-3.5175000000000005,0.97728125,0.26625,0.179875,1.2061250000000001,0.9500625,-0.21546875000000001,-0.32196875,1.1968125,0.019893017763697018,0.02063335230623549,True
20970,84702,0,84703,4163.0,40494.0,41221.0,-0.002074,0.000915,0.00061,0.35000000000000003,-1.0325000000000002,-3.5875000000000004,0.9805,0.264125,0.178625,1.20321875,0.98246875,-0.22165625,-0.31809375,1.17021875,0.02005565783718857,0.020425891729280797,True
20971,84703,0,84704,4162.0,40494.0,41217.0,-0.000122,0.000976,6.1e-05,0.3325,-1.33,-3.6050000000000004,0.977625,0.26725,0.18140625,1.20109375,0.93603125,-0.21571875000000001,-0.31459375,1.1788125,0.019944431754684133,0.020399271528030363,True
20972,84704,0,84705,4163.0,40494.0,41218.0,0.000549,0.000732,0.000549,0.4025,-1.3125000000000002,-3.6400000000000006,0.983,0.26346875000000003,0.17821875,1.20471875,0.96665625,-0.22621875,-0.31175,1.16659375,0.02021312137289275,0.020153578002406247,True
20973,84705,0,84706,4163.0,40493.0,41214.0,-0.001403,-0.000183,-0.00061,0.5950000000000001,-1.2775,-3.6575,0.97784375,0.26687500000000003,0.18071875,1.20140625,0.9362812500000001,-0.21609375,-0.3163125,1.1845,0.019944122903802357,0.020440239448312737,True
20974,84706,0,84707,4161.0,40491.0,41214.0,-0.000122,0.000183,0.0,0.47250000000000003,-1.4000000000000001,-3.7275000000000005,0.98065625,0.2665,0.18496875000000002,1.2034375,0.9620625,-0.22868750000000002,-0.32837500000000003,1.20009375,0.020438065413159505,0.021100618105401613,True
20975,84707,0,84708,4159.0,40491.0,41213.0,0.001403,-0.00061,0.001098,0.4025,-1.4700000000000002,-3.7975000000000003,0.9795312500000001,0.2661875,0.178375,1.2075,0.97409375,-0.22534375,-0.3251875,1.1994375,0.020289959765792797,0.020701279280992184,True
20976,84708,0,84709,4160.0,40491.0,41211.0,0.000915,-0.00183,0.000488,0.43750000000000006,-1.5925000000000002,-3.8675,0.9832500000000001,0.26375,0.17921875,1.2084375,0.97296875,-0.23359375000000002,-0.325625,1.19578125,0.020522905316096584,0.02075357776007811,True
20977,84709,0,84710,4160.0,40490.0,41214.0,0.0,-0.0008539999999999999,-0.000305,0.36750000000000005,-1.8025000000000002,-3.6225000000000005,0.98328125,0.264875,0.18140625,1.2015,0.9696875,-0.22478125000000002,-0.31571875,1.16684375,0.020213030819421746,0.020444594096154366,True
20978,84710,0,84711,4159.0,40490.0,41215.0,-0.00042699999999999997,6.1e-05,6.1e-05,0.385,-1.6800000000000002,-3.7625,0.97690625,0.2674375,0.181375,1.20146875,0.927125,-0.21546875000000001,-0.316625,1.1744375,0.01994205666574181,0.02047981576390638,True
20979,84711,0,84712,4159.0,40491.0,41216.0,0.000549,0.00061,0.000488,0.42000000000000004,-1.9250000000000003,-3.7975000000000003,0.9763125,0.26671875,0.180625,1.20125,0.943125,-0.2178125,-0.316625,1.1884375,0.020007226086171077,0.020448972667876403,True
20980,84712,0,84713,4159.0,40491.0,41215.0,0.0013419999999999999,0.001037,-0.000793,0.3325,-1.9425000000000001,-3.8150000000000004,0.9765312500000001,0.26528125,0.178375,1.20053125,0.9649375,-0.21987500000000001,-0.314375,1.178,0.020031327577041586,0.02026578927075033,True
