frame_seq,absolute_seq_u64,segment_id,sample_seq,PPG_G,PPG_R,PPG_IR,ACC_X,ACC_Y,ACC_Z,GYRO_X,GYRO_Y,GYRO_Z,Uh1,Uh2,Uh3,Uh4,Uc1,Uc2,Uc3,Uc4,UD1,UD2,parser_valid
65137,22693,0,22694,4344.0,44213.0,42738.0,-0.0035989999999999998,-0.001281,0.003172,0.5075000000000001,-1.54,-4.077500000000001,0.9012187500000001,0.00096875,-0.22196875,0.904875,0.85121875,-0.49865625,-0.859375,0.815125,0.020393975689993203,0.025640477686989314,True
65138,22694,0,22695,4346.0,44209.0,42740.0,-0.0035989999999999998,-0.0028669999999999998,0.001281,0.43750000000000006,-1.4875,-4.095000000000001,0.90309375,0.00075,-0.2246875,0.897625,0.8515625,-0.497875,-0.8594375,0.81390625,0.02035380619747631,0.025533562454902688,True
65139,22695,0,22696,4346.0,44211.0,42740.0,-0.004758,-0.0018909999999999999,-0.004026,0.42000000000000004,-1.5050000000000001,-4.095000000000001,0.9023125000000001,0.00303125,-0.22740625,0.8943125000000001,0.85071875,-0.50040625,-0.8619687500000001,0.78778125,0.020548128666233855,0.0255234211892411,True
65140,22696,0,22697,4345.0,44209.0,42735.0,-0.0018909999999999999,-0.003843,-0.003172,0.36750000000000005,-1.4700000000000002,-4.235,0.89528125,-0.00128125,-0.22296875,0.9050625,0.8875937500000001,-0.48281250000000003,-0.8648125,0.81625,0.019668134533154635,0.025813335612323643,True
65141,22697,0,22698,4341.0,44209.0,42730.0,0.0,-0.002623,-0.000488,0.35000000000000003,-1.6625,-4.235,0.90178125,0.00084375,-0.2196875,0.9118125,0.85075,-0.4915625,-0.8725937500000001,0.7825,0.020105138249141924,0.02625002669856255,True
65142,22698,0,22699,4338.0,44206.0,42722.0,0.0032329999999999998,-0.0006709999999999999,-0.000793,0.35000000000000003,-1.8200000000000003,-4.357500000000001,0.8954375,-0.0032187500000000003,-0.22290625,0.9050625,0.876625,-0.49221875,-0.8648750000000001,0.812625,0.01996552476488068,0.025818297900150316,True
65143,22699,0,22700,4333.0,44204.0,42717.0,0.004148,0.002013,0.00183,0.49000000000000005,-1.9250000000000003,-4.357500000000001,0.9006875,-0.00021875,-0.22615625,0.90565625,0.85146875,-0.49521875,-0.85865625,0.794375,0.020208025290649835,0.02544385318494438,True
65144,22700,0,22701,4325.0,44203.0,42711.0,0.0026839999999999998,0.004331,0.002806,0.5775,-1.7850000000000001,-4.235,0.8975625,0.0033125,-0.22378125000000001,0.9111250000000001,0.86884375,-0.48521875000000003,-0.867,0.7931875,0.01995208844111307,0.02586635903003981,True
65145,22701,0,22702,4322.0,44201.0,42705.0,0.000793,0.0015249999999999999,0.0035989999999999998,0.47250000000000003,-1.7325000000000002,-3.99,0.8949375,-0.0009375,-0.2229375,0.913,0.8643125,-0.48846875,-0.8615,0.79890625,0.019908604942887664,0.025684793757416086,True
65146,22702,0,22703,4317.0,44196.0,42701.0,0.0013419999999999999,0.000976,0.0011589999999999999,0.28,-1.7500000000000002,-3.9725000000000006,0.89359375,-0.00209375,-0.22215625,0.9076875,0.86384375,-0.49196875,-0.8634375,0.79659375,0.020001454558445816,0.02579213956235939,True
65147,22703,0,22704,4313.0,44194.0,42695.0,0.0,0.0,-0.0034159999999999998,0.17500000000000002,-2.0125,-3.9025000000000003,0.8975625,0.00621875,-0.2248125,0.905375,0.8633125,-0.489375,-0.86671875,0.794125,0.020237092616696015,0.025813870195479652,True
65148,22704,0,22705,4310.0,44194.0,42694.0,-0.00244,-0.0011589999999999999,-0.005124,0.22750000000000004,-1.8550000000000002,-3.8850000000000002,0.893375,0.00278125,-0.22596875,0.9054375,0.86153125,-0.4885625,-0.8661562500000001,0.79303125,0.020064213650760433,0.025745334082343353,True
65149,22705,0,22706,4307.0,44193.0,42694.0,-0.0025009999999999998,-0.001647,-0.002562,0.28,-1.7500000000000002,-3.8850000000000002,0.90040625,0.00103125,-0.224875,0.9048125,0.8653125,-0.48846875,-0.8668125,0.7943125,0.019988999924709462,0.02581502957003436,True
65150,22706,0,22707,4307.0,44194.0,42692.0,-0.000305,-0.0017079999999999999,0.001403,0.22750000000000004,-1.9250000000000003,-3.99,0.89546875,0.001,-0.2224375,0.90509375,0.86871875,-0.48821875000000003,-0.8678750000000001,0.7945,0.019977718877572506,0.025954670433239676,True
65151,22707,0,22708,4305.0,44194.0,42690.0,0.001281,0.000793,0.001098,0.42000000000000004,-1.9075000000000002,-3.9200000000000004,0.8993125000000001,0.00128125,-0.22478125000000002,0.89571875,0.8731875,-0.489,-0.867,0.79415625,0.020020468373555474,0.025826145091888845,True
65152,22708,0,22709,4303.0,44193.0,42688.0,0.000244,0.002074,0.00122,0.45500000000000007,-1.6975000000000002,-4.130000000000001,0.9002187500000001,0.00140625,-0.22696875,0.90546875,0.87234375,-0.4888125,-0.8645625,0.79403125,0.020018069475602376,0.025642669160175244,True
65153,22709,0,22710,4306.0,44191.0,42692.0,-0.0017079999999999999,0.002623,0.002989,0.43750000000000006,-1.6450000000000002,-3.9550000000000005,0.90109375,0.00071875,-0.22728125000000002,0.90490625,0.86428125,-0.48621875000000003,-0.8631875,0.793375,0.019886185979613533,0.02557621584119092,True
65154,22710,0,22711,4307.0,44193.0,42692.0,-0.0006709999999999999,0.000488,0.001037,0.31500000000000006,-1.9600000000000002,-3.8675,0.895375,-0.0040625,-0.22028125,0.9237500000000001,0.8646875,-0.49140625,-0.86421875,0.8003125,0.01989856135761906,0.02589815937812243,True
65155,22711,0,22712,4307.0,44196.0,42694.0,0.004697,-0.000366,-0.0028669999999999998,0.3325,-2.31,-3.8850000000000002,0.89375,-0.00828125,-0.22275,0.9085,0.86375,-0.49178125,-0.86003125,0.80025,0.01974131628339609,0.025634772683562096,True
65156,22712,0,22713,4308.0,44197.0,42695.0,0.002074,-0.00183,-0.001403,0.4025,-2.24,-3.7975000000000003,0.8884062500000001,-0.004,-0.21778125,0.91940625,0.86403125,-0.4928125,-0.864,0.80071875,0.01995738545746839,0.02599013634169884,True
65157,22713,0,22714,4307.0,44197.0,42697.0,6.1e-05,-0.0021349999999999997,-0.0025009999999999998,0.4025,-1.9425000000000001,-3.7975000000000003,0.88825,-0.008,-0.22162500000000002,0.92090625,0.8636875,-0.4914375,-0.8624375,0.8016562500000001,0.019739041450711092,0.02577432321348219,True
65158,22714,0,22715,4310.0,44197.0,42698.0,0.0006709999999999999,-0.0006709999999999999,0.001098,0.4025,-1.8725000000000003,-3.7975000000000003,0.88803125,-0.00559375,-0.2184375,0.905625,0.8639375,-0.49178125,-0.8641875,0.7925625000000001,0.019851046971114034,0.02597108793520802,True
65159,22715,0,22716,4310.0,44196.0,42701.0,0.000549,-0.001647,-0.00122,0.4025,-1.7500000000000002,-3.7275000000000005,0.8984375,0.00246875,-0.22984375,0.89965625,0.8694375,-0.4811875,-0.86740625,0.793625,0.019756241399646157,0.025638480088770822,True
65160,22716,0,22717,4312.0,44199.0,42701.0,-0.0017079999999999999,-0.00122,-0.001952,0.14,-1.435,-3.6925000000000003,0.8969375,0.00365625,-0.227875,0.90009375,0.8713125,-0.48834375,-0.8598750000000001,0.7949375,0.02009119134486178,0.02542249307367797,True
65161,22717,0,22718,4314.0,44198.0,42704.0,-0.002196,-0.002074,-0.002074,0.21000000000000002,-1.4175000000000002,-3.5175000000000005,0.891375,-0.0038125,-0.22184375,0.9219375,0.8646875,-0.49146875,-0.8646875,0.80109375,0.01991127012339756,0.02585368305955987,True
65162,22718,0,22719,4314.0,44201.0,42704.0,-0.002928,-0.0018909999999999999,-0.0011589999999999999,0.29750000000000004,-1.4000000000000001,-3.5175000000000005,0.88865625,-0.0041875,-0.22037500000000002,0.89996875,0.8641562500000001,-0.4891875,-0.860125,0.7938437500000001,0.01980465868865596,0.025733981627204208,True
65163,22719,0,22720,4314.0,44202.0,42707.0,-0.0011589999999999999,-0.000122,-0.000549,0.31500000000000006,-1.2600000000000002,-3.5700000000000003,0.9116875,0.0023125,-0.23321875,0.9036875,0.86971875,-0.489,-0.86846875,0.78196875,0.02006257911715464,0.025544395450564278,True
65164,22720,0,22721,4316.0,44201.0,42704.0,0.0017079999999999999,0.0044529999999999995,0.0037819999999999998,0.4025,-1.0150000000000001,-3.7100000000000004,0.8896875,-0.00096875,-0.22165625,0.9101875,0.86428125,-0.4905625,-0.86509375,0.80171875,0.019991119027992926,0.02587713951410298,True
65165,22721,0,22722,4316.0,44200.0,42706.0,0.000244,0.003721,0.007259,0.43750000000000006,-1.1375000000000002,-3.7450000000000006,0.88853125,0.0005,-0.2220625,0.90428125,0.86359375,-0.48821875000000003,-0.8619687500000001,0.796,0.019957300895966555,0.02573835790860288,True
65166,22722,0,22723,4316.0,44201.0,42708.0,0.001647,0.0025009999999999998,0.0060999999999999995,0.42000000000000004,-1.2950000000000002,-3.6575,0.8989375000000001,0.00025,-0.22228125,0.9111250000000001,0.87209375,-0.48912500000000003,-0.86403125,0.80196875,0.019983359960798926,0.025810376183467838,True
65167,22723,0,22724,4314.0,44201.0,42707.0,-0.0011589999999999999,0.0023179999999999997,0.002379,0.36750000000000005,-1.1900000000000002,-3.7450000000000006,0.89565625,0.000375,-0.22621875,0.9052187500000001,0.8631875,-0.48975,-0.8665,0.7938437500000001,0.020013475025265674,0.025748748316007482,True
65168,22724,0,22725,4312.0,44200.0,42703.0,-0.0028669999999999998,0.000244,-0.001403,0.22750000000000004,-1.3475000000000001,-3.7275000000000005,0.89496875,-0.00103125,-0.22328125000000001,0.904875,0.86834375,-0.49078125,-0.8629687500000001,0.79909375,0.019997320420311215,0.025728524474777376,True
65169,22725,0,22726,4312.0,44200.0,42704.0,-0.001098,-0.0057339999999999995,-0.0048189999999999995,-0.035,-1.9775000000000003,-3.6050000000000004,0.9022187500000001,0.000875,-0.22328125000000001,0.9098125,0.8729687500000001,-0.48875,-0.86621875,0.7985,0.019993874738400287,0.025855861177124087,True
65170,22726,0,22727,4312.0,44201.0,42703.0,0.0021349999999999997,-0.00366,-0.004514,-0.08750000000000001,-2.0475000000000003,-3.7100000000000004,0.8950312500000001,0.00028125000000000003,-0.22625,0.90459375,0.8640625000000001,-0.49134375,-0.8668750000000001,0.792875,0.020073418797202584,0.025762183627818132,True
65171,22727,0,22728,4311.0,44202.0,42702.0,0.001037,0.000122,-0.0026839999999999998,0.21000000000000002,-1.8200000000000003,-3.8325000000000005,0.89546875,-0.0016250000000000001,-0.22325,0.9051250000000001,0.866625,-0.4916875,-0.858,0.7936562500000001,0.02000933990358974,0.02553503902164293,True
65172,22728,0,22729,4310.0,44200.0,42702.0,-0.001464,0.002623,0.0006709999999999999,0.35000000000000003,-1.5750000000000002,-4.0075,0.89565625,-0.0021875,-0.22103125,0.91121875,0.86921875,-0.4869375,-0.8639375,0.7985625000000001,0.019796268929097402,0.025856976595118937,True
65173,22729,0,22730,4311.0,44200.0,42703.0,-0.003965,0.0035989999999999998,0.002623,0.56,-1.5225000000000002,-4.0075,0.90128125,0.0005625000000000001,-0.2254375,0.906375,0.8636875,-0.4886875,-0.8655625,0.7955,0.01997861257366284,0.025743435323451865,True
65174,22730,0,22731,4311.0,44199.0,42706.0,0.0006709999999999999,0.001952,0.006527,0.525,-2.0475000000000003,-4.2700000000000005,0.90353125,0.001,-0.22509375,0.9123125,0.87134375,-0.48903125000000003,-0.86690625,0.7985,0.02001023417371808,0.02580990548432216,True
65175,22731,0,22732,4311.0,44201.0,42705.0,0.003111,-0.002379,0.002379,0.29750000000000004,-2.5725000000000002,-4.165,0.89496875,-0.00084375,-0.22315625,0.9056875,0.86334375,-0.49234375,-0.86421875,0.80203125,0.02006749558216535,0.02578253137352245,True
65176,22732,0,22733,4309.0,44200.0,42702.0,0.003843,-0.004209,-0.003904,0.14,-2.8875,-4.130000000000001,0.89559375,-0.00265625,-0.22403125000000002,0.91246875,0.863375,-0.48996875,-0.864125,0.7991875,0.0198984533208112,0.02574366682921679,True
65177,22733,0,22734,4310.0,44199.0,42705.0,0.0037819999999999998,-0.0025009999999999998,-0.0066489999999999995,0.15750000000000003,-2.8875,-4.025,0.89546875,0.0061875,-0.22390625,0.9080625,0.8626875,-0.4910625,-0.8651875,0.7979375,0.02030332493741339,0.02579032432391672,True
65178,22734,0,22735,4312.0,44200.0,42705.0,0.003172,-0.002379,-0.006405,0.035,-2.7300000000000004,-3.8675,0.8959375,0.00028125000000000003,-0.224625,0.91090625,0.86425,-0.4886875,-0.8661562500000001,0.791,0.019967127678851716,0.025799373395315173,True
65179,22735,0,22736,4311.0,44201.0,42704.0,0.001098,-0.00061,-0.0025009999999999998,0.17500000000000002,-2.1350000000000002,-3.6925000000000003,0.89509375,-0.00234375,-0.22196875,0.91078125,0.86359375,-0.48834375,-0.865,0.79925,0.019846176816265906,0.025860898853810578,True
65180,22736,0,22737,4313.0,44201.0,42706.0,0.001098,0.0011589999999999999,0.001403,0.3325,-1.6975000000000002,-3.7625,0.8886875,-0.0014375,-0.22387500000000002,0.905,0.864375,-0.49190625,-0.86340625,0.7955,0.020025748302053867,0.025721787415994138,True
65181,22737,0,22738,4313.0,44204.0,42706.0,-0.003294,0.003843,0.004209,0.3325,-1.3650000000000002,-3.7800000000000002,0.89996875,0.00115625,-0.22665625,0.9060312500000001,0.86471875,-0.48790625,-0.86625,0.79353125,0.019971593120583758,0.025721359272105764,True
65182,22738,0,22739,4314.0,44204.0,42708.0,-0.0070149999999999995,0.0034159999999999998,0.0055509999999999995,0.5950000000000001,-1.2425000000000002,-3.7625,0.89975,0.00084375,-0.22428125000000002,0.9043125,0.868375,-0.48131250000000003,-0.8660625000000001,0.79371875,0.019694869300818735,0.025809524527656922,True
65183,22739,0,22740,4314.0,44204.0,42712.0,-0.006161,0.000732,0.004941,0.47250000000000003,-1.4175000000000002,-3.7625,0.8986875,0.00028125000000000003,-0.22403125000000002,0.905,0.869125,-0.48996875,-0.86653125,0.794125,0.02001840039097641,0.025837942314531702,True
65184,22740,0,22741,4316.0,44207.0,42716.0,0.001281,-0.002928,-0.000244,0.22750000000000004,-2.5900000000000003,-3.6925000000000003,0.8861875,-0.0015937500000000001,-0.22415625,0.9093125,0.868625,-0.489,-0.8591875,0.7936875,0.019903068724733554,0.02554513296140511,True
65185,22741,0,22742,4318.0,44207.0,42715.0,0.010003999999999999,-0.001769,-0.003843,0.24500000000000002,-2.975,-3.7450000000000006,0.89496875,-0.00115625,-0.22425,0.90840625,0.86365625,-0.49196875,-0.864125,0.800875,0.020039732412283105,0.02573486901308612,True
65186,22742,0,22743,4318.0,44207.0,42716.0,0.0073809999999999995,0.0008539999999999999,-0.005612,0.36750000000000005,-3.0625000000000004,-3.9550000000000005,0.8964062500000001,0.00096875,-0.225,0.9055625,0.86390625,-0.48928125,-0.8680625000000001,0.79453125,0.020018962377672884,0.025858970717964058,True
65187,22743,0,22744,4319.0,44209.0,42717.0,0.0037819999999999998,0.0040869999999999995,-0.0008539999999999999,0.43750000000000006,-2.6775,-4.130000000000001,0.89559375,-0.0001875,-0.224625,0.9088437500000001,0.87571875,-0.4890625,-0.86603125,0.80209375,0.01996299368340458,0.0257944761490638,True
65188,22744,0,22745,4320.0,44209.0,42720.0,-0.002196,0.0025009999999999998,-0.000549,0.5775,-2.4325,-4.025,0.8954375,0.000875,-0.22475,0.9055625,0.86090625,-0.49621875,-0.8646875,0.78971875,0.02029267272117253,0.025736800432340043,True
65189,22745,0,22746,4321.0,44210.0,42720.0,-0.003111,0.0018909999999999999,0.0018909999999999999,0.8575,-2.24,-4.2,0.90015625,0.0011250000000000001,-0.2254375,0.916375,0.8785000000000001,-0.483375,-0.8685625,0.79403125,0.019788938412289972,0.025860964018326348,True
65190,22746,0,22747,4323.0,44208.0,42719.0,-0.002623,0.000488,0.0044529999999999995,0.7350000000000001,-2.3625000000000003,-4.1475,0.89628125,-0.007125,-0.22375,0.9334687500000001,0.859375,-0.49478125,-0.8631875,0.8046875,0.01990857746484264,0.02571824308528422,True
65191,22747,0,22748,4324.0,44208.0,42723.0,-0.004148,-0.0017079999999999999,0.0013419999999999999,0.6125,-2.7300000000000004,-4.1825,0.888625,-0.01328125,-0.21978125,0.9072187500000001,0.86003125,-0.48746875,-0.86178125,0.797625,0.019364496381439996,0.025822767626515097,True
65192,22748,0,22749,4326.0,44209.0,42723.0,0.0008539999999999999,-0.0044529999999999995,-0.000915,0.4025,-3.1675000000000004,-4.077500000000001,0.90371875,0.00415625,-0.23221875,0.90925,0.86840625,-0.4880625,-0.8663125,0.79553125,0.02010035501992042,0.025500111848107757,True
65193,22749,0,22750,4326.0,44210.0,42724.0,0.00183,-0.003477,-0.006771,0.31500000000000006,-3.6400000000000006,-4.130000000000001,0.88296875,-0.01215625,-0.22590625,0.89390625,0.8591875,-0.48565625,-0.86165625,0.782625,0.01933785213537007,0.025571506323115542,True
65194,22750,0,22751,4327.0,44209.0,42723.0,0.0040869999999999995,-0.00042699999999999997,-0.004331,0.49000000000000005,-3.325,-3.99,0.90640625,-0.0095,-0.2174375,0.8990625,0.87821875,-0.4928125,-0.8624375,0.794375,0.01973282978424793,0.025942749981774718,True
65195,22751,0,22752,4328.0,44210.0,42725.0,0.001586,-0.001281,0.0013419999999999999,0.45500000000000007,-2.9925,-3.9025000000000003,0.91909375,0.00596875,-0.22162500000000002,0.9258125,0.8700625000000001,-0.48778125,-0.85940625,0.8023125,0.020163117064760615,0.025655530288459724,True
65196,22752,0,22753,4331.0,44211.0,42726.0,0.0023179999999999997,-0.00244,0.000488,0.4025,-2.6425,-3.9375000000000004,0.882625,0.00103125,-0.23390625,0.8875000000000001,0.85978125,-0.49034375,-0.8639687500000001,0.7915625000000001,0.020064030338488,0.02534038336096284,True
65197,22753,0,22754,4329.0,44210.0,42729.0,0.0023179999999999997,0.001769,-0.001464,0.42000000000000004,-2.5375,-3.8500000000000005,0.8924375,-0.01371875,-0.23215625,0.89978125,0.85521875,-0.49343750000000003,-0.86153125,0.7899375000000001,0.019585603286594627,0.025315214645115637,True
65198,22754,0,22755,4330.0,44208.0,42724.0,0.003355,0.005795,0.004209,0.7525000000000001,-2.1350000000000002,-3.99,0.88171875,-0.00453125,-0.22821875,0.90965625,0.8606875,-0.49221875,-0.86365625,0.79228125,0.01991193631650869,0.025556880838875015,True
65199,22755,0,22756,4328.0,44206.0,42717.0,-0.002989,-0.0040869999999999995,0.0015249999999999999,0.36750000000000005,-1.1900000000000002,-3.8500000000000005,0.883,-0.00375,-0.232625,0.89303125,0.86246875,-0.49259375,-0.8659687500000001,0.793875,0.019958839598194864,0.02547030266013666,True
65200,22756,0,22757,4324.0,44204.0,42713.0,-0.0057339999999999995,-0.0040869999999999995,-0.0018909999999999999,0.385,-1.1725,-3.8850000000000002,0.8934375,-0.0066875,-0.2224375,0.89534375,0.86928125,-0.48934375,-0.8637812500000001,0.79321875,0.01970882743642324,0.025794296674002477,True
65201,22757,0,22758,4318.0,44203.0,42704.0,-0.003965,-0.000549,-0.0025009999999999998,0.525,-1.5050000000000001,-4.0075,0.912125,0.0005,-0.2221875,0.904,0.8707812500000001,-0.48815625,-0.865375,0.79628125,0.019954799577857153,0.025866792678574124,True
65202,22758,0,22759,4313.0,44200.0,42697.0,0.000732,6.1e-05,-0.001586,0.47250000000000003,-1.5225000000000002,-4.130000000000001,0.8894062500000001,-0.0001875,-0.21925,0.91225,0.860125,-0.4908125,-0.86440625,0.8016562500000001,0.020033022587551963,0.025946979932408402,True
65203,22759,0,22760,4307.0,44199.0,42688.0,0.003843,-0.000793,-0.0015249999999999999,0.24500000000000002,-1.6450000000000002,-4.025,0.89565625,-0.0020625,-0.2235625,0.9045625,0.8643125,-0.49212500000000003,-0.86459375,0.79234375,0.020008982479062146,0.025780885722293374,True
65204,22760,0,22761,4301.0,44195.0,42683.0,0.0017079999999999999,0.003843,0.0028669999999999998,0.5425000000000001,-1.05,-3.7800000000000002,0.89725,0.00178125,-0.22625,0.90546875,0.8639375,-0.4891875,-0.8650625000000001,0.7955625000000001,0.02004838870215682,0.025691168079710235,True
65205,22761,0,22762,4297.0,44194.0,42678.0,0.000793,0.005673,0.0051849999999999995,0.56,-0.8225000000000001,-3.7800000000000002,0.90315625,0.00146875,-0.22690625,0.9040312500000001,0.86771875,-0.48903125000000003,-0.86634375,0.794,0.02002937539638282,0.025714978704901078,True
65206,22762,0,22763,4295.0,44191.0,42675.0,-0.002806,0.002196,0.00366,0.43750000000000006,-0.9275000000000001,-3.5700000000000003,0.90290625,0.00053125,-0.22709375,0.90534375,0.8725937500000001,-0.489375,-0.8668750000000001,0.7931875,0.020004849041676237,0.025728252946942472,True
65207,22763,0,22764,4292.0,44189.0,42671.0,-0.0021349999999999997,-0.000183,-0.000244,0.45500000000000007,-1.0150000000000001,-3.4125000000000005,0.897875,0.00140625,-0.2265625,0.90465625,0.8714375,-0.48859375,-0.8676875000000001,0.7926875,0.020009315561453994,0.025781448315208243,True
65208,22764,0,22765,4289.0,44190.0,42668.0,-0.0021349999999999997,-0.0006709999999999999,-0.001098,0.5425000000000001,-0.8400000000000001,-3.535,0.89165625,0.000875,-0.22775,0.9060312500000001,0.86959375,-0.48875,-0.8663125,0.79359375,0.019993874738400287,0.025679822852704842,True
65209,22765,0,22766,4287.0,44189.0,42665.0,-0.002013,-0.002989,0.000183,0.4025,-1.0850000000000002,-3.6050000000000004,0.9024375,0.00103125,-0.22503125000000002,0.90434375,0.86628125,-0.4886875,-0.86721875,0.79215625,0.019997754065014712,0.025824661231968294,True
65210,22766,0,22767,4285.0,44190.0,42665.0,-0.0030499999999999998,-0.002928,-0.000488,0.42000000000000004,-1.12,-3.6750000000000003,0.89165625,0.00071875,-0.22709375,0.90475,0.8725937500000001,-0.4886875,-0.86675,0.79278125,0.019984993070780128,0.02572335548473363,True
65211,22767,0,22768,4285.0,44191.0,42667.0,-0.003111,-0.00042699999999999997,-0.000244,0.47250000000000003,-0.9275000000000001,-3.7800000000000002,0.89284375,0.00096875,-0.22718750000000001,0.90465625,0.86484375,-0.48859375,-0.8648750000000001,0.7931875,0.019991450101131267,0.0256461172638109,True
65212,22768,0,22769,4284.0,44190.0,42667.0,-0.0050019999999999995,0.000976,0.000976,0.4025,-0.8575,-3.7450000000000006,0.9023125000000001,0.00146875,-0.2261875,0.90453125,0.8596875,-0.48978125,-0.864375,0.79321875,0.020059387014737015,0.025666742075761004,True
65213,22769,0,22770,4287.0,44191.0,42667.0,-0.0026839999999999998,0.000122,0.00122,0.35000000000000003,-1.1025,-3.5000000000000004,0.8990625,0.0005625000000000001,-0.22459375,0.9106562500000001,0.871375,-0.4896875,-0.86390625,0.7951875,0.020018630290811187,0.025712472270924845,True
65214,22770,0,22771,4287.0,44193.0,42671.0,0.005856,-0.000244,-0.000366,0.14,-1.7675,-3.4825000000000004,0.89559375,-0.00109375,-0.22087500000000002,0.9049375000000001,0.8641562500000001,-0.49184375,-0.865125,0.798625,0.020037282819918366,0.025909783280799917,True
65215,22771,0,22772,4289.0,44193.0,42670.0,0.0059169999999999995,0.001647,-0.00061,0.12250000000000001,-1.7500000000000002,-3.5000000000000004,0.90196875,0.0005625000000000001,-0.2273125,0.90340625,0.860375,-0.48928125,-0.86628125,0.7941875,0.02000237348738032,0.025696192509686182,True
65216,22772,0,22773,4287.0,44192.0,42673.0,0.003477,0.000915,-0.0030499999999999998,0.08750000000000001,-1.6275000000000002,-3.4475000000000002,0.90115625,0.00103125,-0.22646875,0.90496875,0.86884375,-0.48890625,-0.86709375,0.79328125,0.020006508048925214,0.0257619570039221,True
65217,22773,0,22774,4289.0,44195.0,42675.0,0.001403,0.0018909999999999999,-0.0023179999999999997,0.21000000000000002,-1.4525000000000001,-3.5700000000000003,0.9025,0.00128125,-0.2273125,0.90540625,0.86846875,-0.48890625,-0.86621875,0.7934687500000001,0.02001671675312163,0.025693743645683966,True
65218,22774,0,22775,4290.0,44195.0,42680.0,0.000976,0.0006709999999999999,0.0013419999999999999,0.1925,-1.2600000000000002,-3.7275000000000005,0.889375,0.000375,-0.228125,0.9050312500000001,0.8680625000000001,-0.48934375,-0.86434375,0.79278125,0.01999721817780438,0.025587594685663077,True
65219,22775,0,22776,4292.0,44197.0,42681.0,0.000366,-0.002745,0.000122,0.14,-1.54,-3.6575,0.90209375,0.00096875,-0.2255625,0.9058437500000001,0.863125,-0.48859375,-0.8671875,0.794625,0.019991450101131267,0.025802073515551367,True
65220,22776,0,22777,4295.0,44194.0,42681.0,-0.000244,-0.0032329999999999998,-0.002379,0.21000000000000002,-1.4000000000000001,-3.6925000000000003,0.9,0.0009375,-0.2225625,0.90496875,0.8698750000000001,-0.48259375,-0.8674375,0.79303125,0.019750000957312785,0.02593250711899849,True
65221,22777,0,22778,4295.0,44196.0,42683.0,-0.002989,-0.00061,-0.0032329999999999998,0.43750000000000006,-0.9100000000000001,-3.7275000000000005,0.89396875,0.00053125,-0.2231875,0.9074375,0.8646875,-0.49062500000000003,-0.86371875,0.80171875,0.020054867934158477,0.025761683376506177,True
65222,22778,0,22779,4294.0,44197.0,42683.0,-0.007686,0.0018909999999999999,-0.0006709999999999999,0.6125,-0.7000000000000001,-3.6575,0.8949375,-0.00284375,-0.2230625,0.9095625,0.86465625,-0.49315625,-0.8593437500000001,0.7947500000000001,0.020018346961715075,0.025595255305160665,True
65223,22779,0,22780,4295.0,44198.0,42683.0,-0.002806,0.00244,0.00488,0.77,-0.7175,-3.7100000000000004,0.89453125,-0.001375,-0.22390625,0.9067500000000001,0.8636875,-0.48809375,-0.86603125,0.80796875,0.019875730425117307,0.025823381043165065,True
65224,22780,0,22781,4295.0,44195.0,42682.0,6.1e-05,0.003538,0.00732,0.56,-1.3825,-3.8150000000000004,0.89625,0.0056875,-0.22609375,0.90509375,0.86234375,-0.49646875,-0.86328125,0.8071875000000001,0.020499128063100933,0.02562765121759623,True
65225,22781,0,22782,4293.0,44197.0,42678.0,0.001586,0.00122,0.004331,0.45500000000000007,-1.7325000000000002,-3.7625,0.9002187500000001,0.000625,-0.22709375,0.904875,0.8561875,-0.49515625,-0.86175,0.80875,0.020239970912616652,0.02552741661387473,True
65226,22782,0,22783,4293.0,44195.0,42678.0,0.000183,-0.000915,0.0018909999999999999,0.28,-1.8375000000000001,-3.7975000000000003,0.90271875,0.00121875,-0.2275625,0.9053125,0.85703125,-0.4951875,-0.86059375,0.7984375,0.02026546030725423,0.02546323938864091,True
65227,22783,0,22784,4293.0,44195.0,42678.0,-0.00042699999999999997,0.001403,-0.002806,0.24500000000000002,-2.1525000000000003,-3.7450000000000006,0.90146875,0.00121875,-0.22865625,0.9051875,0.864125,-0.488,-0.865625,0.7903125,0.019977897337471413,0.02561643835616438,True
65228,22784,0,22785,4290.0,44192.0,42676.0,0.001098,-0.00488,-0.005612,0.1925,-2.6075000000000004,-3.7800000000000002,0.90046875,0.0018437500000000001,-0.22734375,0.90565625,0.86465625,-0.49125,-0.8608125,0.7995,0.020133466033787576,0.025480613314629197,True
65229,22785,0,22786,4291.0,44194.0,42672.0,0.0015249999999999999,-0.003538,-0.006893,0.1925,-2.8525000000000005,-3.7450000000000006,0.9030312500000001,0.00115625,-0.22771875,0.8969375,0.84478125,-0.49384375,-0.86128125,0.80559375,0.020209159699567367,0.0254839038112728,True
65230,22786,0,22787,4289.0,44191.0,42673.0,0.004697,-0.0006709999999999999,-0.00183,0.31500000000000006,-2.9400000000000004,-3.7275000000000005,0.89565625,0.00128125,-0.22509375,0.90575,0.8535,-0.49159375,-0.85990625,0.7938437500000001,0.020124251815992988,0.02553559509099114,True
65231,22787,0,22788,4290.0,44193.0,42670.0,0.004575,-0.002806,-0.000366,0.14,-2.6775,-3.9375000000000004,0.88715625,0.00125,-0.223,0.91128125,0.86003125,-0.49175,-0.85890625,0.80396875,0.020129227188747233,0.0255806206276674,True
65232,22788,0,22789,4289.0,44192.0,42673.0,0.0023179999999999997,-0.0015249999999999999,-0.001281,0.35000000000000003,-2.345,-3.8325000000000005,0.8949375,-0.00146875,-0.21996875000000002,0.9071875,0.864,-0.4870625,-0.8665625,0.78834375,0.019830624845262677,0.026002538549507997,True
65233,22789,0,22790,4289.0,44193.0,42671.0,0.004148,0.005673,0.002074,0.45500000000000007,-2.2225,-3.7625,0.89559375,-0.0015,-0.22365625,0.912375,0.86209375,-0.48634375,-0.86575,0.78940625,0.019800577617881395,0.025822416375938795,True
65234,22790,0,22791,4290.0,44194.0,42671.0,0.002257,0.000549,0.0011589999999999999,0.31500000000000006,-1.8900000000000001,-3.7800000000000002,0.89615625,0.0064062500000000005,-0.2235,0.9095,0.86409375,-0.4893125,-0.86471875,0.78790625,0.020242248531885082,0.025788296921717642,True
65235,22791,0,22792,4289.0,44194.0,42673.0,-0.00183,-0.003172,-0.0017079999999999999,0.24500000000000002,-1.7850000000000001,-3.5875000000000004,0.89496875,-0.00284375,-0.2235,0.9050625,0.86134375,-0.4904375,-0.8638125,0.801625,0.019909556536097,0.025752788314342377,True
65236,22792,0,22793,4289.0,44195.0,42674.0,-0.0017079999999999999,0.0021349999999999997,-0.0011589999999999999,0.5075000000000001,-1.61,-3.6750000000000003,0.89665625,0.0053125,-0.22453125000000002,0.89878125,0.86403125,-0.49262500000000004,-0.86184375,0.8,0.020330099366646082,0.025634160781016088,True
65237,22793,0,22794,4291.0,44194.0,42677.0,0.001098,0.003172,-0.0008539999999999999,0.56,-1.4525000000000001,-3.7975000000000003,0.89759375,0.00015625,-0.22175,0.90525,0.8637812500000001,-0.49165625,-0.8645,0.80121875,0.02008081833991934,0.025850107583100405,True
65238,22794,0,22795,4291.0,44197.0,42678.0,-0.002074,-0.0042699999999999995,0.002013,0.5950000000000001,-1.3650000000000002,-3.6925000000000003,0.90009375,0.00725,-0.22409375,0.90546875,0.8643125,-0.4895,-0.86453125,0.7951875,0.020284203434124827,0.025757071129181252,True
65239,22795,0,22796,4293.0,44197.0,42678.0,-0.002562,-0.00244,0.003111,0.7000000000000001,-1.0850000000000002,-3.7450000000000006,0.9011875,0.00103125,-0.2260625,0.90559375,0.8634375,-0.48909375,-0.8671875,0.79453125,0.020014011339231367,0.025781966698083567,True
65240,22796,0,22797,4295.0,44194.0,42681.0,-0.004148,0.000305,0.0028669999999999998,0.525,-1.05,-3.7975000000000003,0.9010312500000001,0.0013125,-0.2246875,0.91115625,0.87328125,-0.48934375,-0.86725,0.793625,0.020035500134624882,0.025839708854014817,True
65241,22797,0,22798,4295.0,44198.0,42681.0,-0.0055509999999999995,0.0011589999999999999,0.00183,0.4025,-1.0150000000000001,-3.6750000000000003,0.8952187500000001,-0.0015,-0.2234375,0.90478125,0.8651562500000001,-0.49062500000000003,-0.864375,0.79571875,0.01997192803368636,0.025777342080788274,True
65242,22798,0,22799,4296.0,44197.0,42679.0,-0.005124,0.000793,-0.000976,0.24500000000000002,-1.1725,-3.6575,0.89959375,0.00071875,-0.22378125000000001,0.9051875,0.8638125,-0.49246875,-0.86475,0.799875,0.020136291895850637,0.025778210116731516,True
65243,22799,0,22800,4300.0,44198.0,42683.0,0.001952,0.0025009999999999998,-0.001464,0.28,-1.6625,-3.6925000000000003,0.89565625,0.00203125,-0.22396875,0.90446875,0.85771875,-0.48812500000000003,-0.864375,0.8008125,0.020016079222071922,0.025755976170726193,True
65244,22800,0,22801,4300.0,44199.0,42686.0,0.0071979999999999995,0.00244,0.000488,0.3325,-1.9600000000000002,-3.6925000000000003,0.898625,0.0011250000000000001,-0.22528125000000002,0.8971250000000001,0.8601562500000001,-0.4899375,-0.8648750000000001,0.795875,0.02005160282667116,0.025722781634735747,True
65245,22801,0,22802,4301.0,44198.0,42686.0,0.00732,0.00042699999999999997,0.001037,0.36750000000000005,-2.0475000000000003,-3.8850000000000002,0.90134375,0.00096875,-0.22084375,0.9031250000000001,0.8648125,-0.49303125000000003,-0.86065625,0.7945625000000001,0.02016900215239794,0.025735945727498644,True
65246,22802,0,22803,4303.0,44199.0,42686.0,0.002989,-0.000976,0.001586,0.4025,-1.8725000000000003,-3.99,0.90940625,0.00265625,-0.23025,0.9021875,0.867,-0.48978125,-0.86746875,0.7858125,0.020107876627113604,0.025624592370303068,True
65247,22803,0,22804,4305.0,44198.0,42685.0,-0.002745,-0.001403,0.000244,0.43750000000000006,-1.5575,-4.077500000000001,0.9038437500000001,0.0043125,-0.225,0.910375,0.8720625,-0.4880625,-0.869125,0.7941875,0.02010673567988484,0.02590058958648525,True
65248,22804,0,22805,4304.0,44198.0,42686.0,-0.00042699999999999997,0.0006709999999999999,-0.001464,0.3325,-2.0300000000000002,-4.077500000000001,0.89203125,-0.00515625,-0.2225,0.90615625,0.8680625000000001,-0.49012500000000003,-0.8648750000000001,0.79634375,0.01980262452723292,0.025834636208708066,True
65249,22805,0,22806,4304.0,44200.0,42685.0,0.0032329999999999998,-0.001403,0.000366,0.22750000000000004,-2.1175,-3.9200000000000004,0.9065,0.00596875,-0.2248125,0.9175,0.8554375000000001,-0.4888125,-0.868,0.7988125,0.020204379040429175,0.025864062248672996,True
65250,22806,0,22807,4305.0,44201.0,42689.0,0.0015249999999999999,-0.004575,0.000549,0.17500000000000002,-1.5050000000000001,-3.7450000000000006,0.892625,-0.000625,-0.2230625,0.90225,0.8638125,-0.48462500000000003,-0.8639375,0.7810625,0.019767507160105578,0.02577528197213334,True
65251,22807,0,22808,4308.0,44202.0,42692.0,-0.003111,-0.00244,-0.0006709999999999999,0.24500000000000002,-1.1375000000000002,-3.4475000000000002,0.908875,0.0023125,-0.22553125000000002,0.91090625,0.85965625,-0.48853125000000003,-0.86665625,0.7945625000000001,0.020043821533804726,0.025782517502730185,True
65252,22808,0,22809,4310.0,44204.0,42691.0,-0.004392,0.002257,-0.000549,0.5425000000000001,-1.1025,-3.4825000000000004,0.89434375,-0.00190625,-0.2185625,0.91709375,0.86740625,-0.48825,-0.86459375,0.79803125,0.019860290139148366,0.025981974871397206,True
65253,22809,0,22810,4311.0,44205.0,42696.0,0.000244,-0.00042699999999999997,0.0015249999999999999,0.24500000000000002,-1.8550000000000002,-3.7450000000000006,0.891375,-0.00465625,-0.2223125,0.91690625,0.863625,-0.49203125000000003,-0.86146875,0.798,0.019899329501304637,0.025708708380312407,True
65254,22810,0,22811,4310.0,44202.0,42695.0,0.001464,-0.001281,0.001586,0.21000000000000002,-2.0650000000000004,-3.8325000000000005,0.8911250000000001,-0.00209375,-0.21984375,0.91228125,0.8638125,-0.4905,-0.86403125,0.79734375,0.019942681856229966,0.025908409361414392,True
65255,22811,0,22812,4312.0,44206.0,42699.0,0.0011589999999999999,-0.0006709999999999999,-0.001403,0.4025,-2.205,-3.8850000000000002,0.890625,-0.0008125000000000001,-0.22221875,0.90340625,0.8638750000000001,-0.49078125,-0.864625,0.79653125,0.020006252352607168,0.025836152767234572,True
65256,22812,0,22813,4313.0,44205.0,42697.0,0.002928,0.0035989999999999998,-0.005673,0.5425000000000001,-2.4325,-3.99,0.89953125,0.00075,-0.22546875,0.90459375,0.86584375,-0.48875,-0.8665,0.7945625000000001,0.019988770353733858,0.025778909376068207,True
65257,22813,0,22814,4312.0,44204.0,42693.0,0.0059169999999999995,0.000732,-0.00042699999999999997,0.8225000000000001,-2.5200000000000005,-3.9725000000000006,0.88584375,-0.00121875,-0.22409375,0.9110312500000001,0.86803125,-0.4885,-0.866,0.797625,0.01989837066378096,0.025814616343601705,True
65258,22814,0,22815,4309.0,44201.0,42687.0,0.001403,-0.0062829999999999995,0.005246,1.8900000000000001,-3.1325000000000003,-4.025,0.891,-0.0027187500000000002,-0.2240625,0.9118437500000001,0.85709375,-0.4915625,-0.86534375,0.8040625,0.01995967999183392,0.0257901622614809,True
65259,22815,0,22816,4306.0,44194.0,42671.0,0.002806,0.010675,-0.002074,1.8900000000000001,-2.9050000000000002,-4.0425,0.8950312500000001,0.00034375,-0.2239375,0.9093125,0.86465625,-0.49565625,-0.86503125,0.8109375,0.020248487933447384,0.025782945677978987,True
65260,22816,0,22817,4302.0,44190.0,42664.0,0.000915,0.007076,0.0008539999999999999,0.8225000000000001,-1.5575,-4.130000000000001,0.8961250000000001,0.0004375,-0.221,0.9059375000000001,0.8564375,-0.49884375000000003,-0.85565625,0.81384375,0.020379788331847296,0.02553367505635664,True
65261,22817,0,22818,4295.0,44191.0,42656.0,-0.009089,-0.010431,-0.0018909999999999999,0.17500000000000002,-0.7525000000000001,-3.8675,0.89678125,0.0009375,-0.225625,0.90653125,0.855875,-0.494,-0.8601562500000001,0.8125625,0.02020647913774802,0.025524025014927253,True
65262,22818,0,22819,4289.0,44183.0,42649.0,-0.011041,-0.008905999999999999,0.0,0.10500000000000001,-0.7875000000000001,-3.4650000000000003,0.89553125,-0.0025625,-0.22371875,0.9119375000000001,0.84975,-0.49284375,-0.8661562500000001,0.7950625,0.020017326489497573,0.025835818513365937,True
65263,22819,0,22820,4283.0,44184.0,42643.0,0.0055509999999999995,0.0057339999999999995,0.000488,0.21000000000000002,-1.7325000000000002,-3.9725000000000006,0.89675,0.00071875,-0.226625,0.90528125,0.85059375,-0.49959375,-0.8610625000000001,0.8159375,0.02042125698512858,0.025519323641135617,True
65264,22820,0,22821,4279.0,44181.0,42636.0,0.006893,-0.0006709999999999999,-0.002623,0.0175,-1.9250000000000003,-3.8150000000000004,0.9006875,0.00128125,-0.22840625,0.90596875,0.8511562500000001,-0.4933125,-0.86209375,0.7876562500000001,0.020193011868035408,0.025488098724589514,True
65265,22821,0,22822,4273.0,44178.0,42632.0,0.004026,-0.001769,-0.002989,0.0,-1.8025000000000002,-3.7625,0.89671875,-0.00175,-0.225125,0.90990625,0.876,-0.485375,-0.877,0.7841875,0.019751586406171032,0.026203923302649035,True
65266,22822,0,22823,4272.0,44179.0,42631.0,0.0048189999999999995,0.002074,-0.000122,0.22750000000000004,-1.4525000000000001,-3.8850000000000002,0.8951875,0.00075,-0.22646875,0.90546875,0.85390625,-0.49865625,-0.8515625,0.81725,0.02038504662883296,0.02515309651053128,True
65267,22823,0,22824,4270.0,44177.0,42628.0,0.003477,0.0028669999999999998,0.00122,0.28,-1.33,-3.8850000000000002,0.900875,0.0001875,-0.22840625,0.90359375,0.84690625,-0.489,-0.86603125,0.78853125,0.019975805463677568,0.025642411271400618,True
65268,22824,0,22825,4268.0,44176.0,42627.0,-0.0025009999999999998,-0.0046359999999999995,0.001952,0.17500000000000002,-0.5425000000000001,-3.6750000000000003,0.8966875,-0.001,-0.22471875,0.91125,0.885625,-0.48534375,-0.87490625,0.784125,0.01978096590945349,0.026138289465915076,True
65269,22825,0,22826,4267.0,44176.0,42626.0,-0.008418,-0.001952,0.003111,0.2625,-0.035,-3.6575,0.8901875,-0.0023125,-0.22121875,0.9141875,0.8725937500000001,-0.49359375,-0.86859375,0.800125,0.02005754055588515,0.026031829805414713,True
65270,22826,0,22827,4266.0,44177.0,42626.0,-0.012505,0.001586,0.0055509999999999995,0.3325,0.14,-3.6400000000000006,0.88709375,-0.0035,-0.22459375,0.9060312500000001,0.85421875,-0.49015625,-0.8609375,0.80071875,0.019871504494790637,0.025596128464584252,True
65271,22827,0,22828,4267.0,44178.0,42628.0,-0.00976,0.0032329999999999998,0.00061,0.12250000000000001,-0.22750000000000004,-3.7275000000000005,0.90046875,0.00075,-0.2263125,0.896625,0.85371875,-0.49159375,-0.8628125,0.7914375,0.020102560700036107,0.025600482648533828,True
65272,22828,0,22829,4268.0,44179.0,42628.0,-0.0050019999999999995,0.000732,-0.0048189999999999995,-0.0175,-0.805,-3.8850000000000002,0.90240625,0.0008125000000000001,-0.22743750000000001,0.90559375,0.8651875,-0.48846875,-0.86746875,0.7936562500000001,0.019980067148951484,0.025737691939393712,True
65273,22829,0,22830,4268.0,44180.0,42630.0,0.008173999999999999,0.0025009999999999998,0.0008539999999999999,0.08750000000000001,-1.9775000000000003,-4.1475,0.90059375,0.00240625,-0.227625,0.9051250000000001,0.8730625,-0.48959375,-0.8639375,0.78778125,0.02009016584850453,0.025591783280504148,True
65274,22830,0,22831,4269.0,44178.0,42630.0,0.010797,6.1e-05,0.001403,0.07,-2.0650000000000004,-4.2525,0.895875,-0.00075,-0.22490625,0.9095625,0.87146875,-0.48896875,-0.866125,0.80028125,0.019936272326698118,0.025786838520276082,True
65275,22831,0,22832,4270.0,44180.0,42633.0,0.011224,-0.0008539999999999999,0.000915,0.0,-2.0650000000000004,-4.2,0.89484375,-0.0011250000000000001,-0.2176875,0.91025,0.863625,-0.488375,-0.8654375,0.79246875,0.01989719611856646,0.026050215283764864,True
65276,22832,0,22833,4272.0,44181.0,42633.0,0.0064659999999999995,-0.0008539999999999999,-0.0026839999999999998,0.08750000000000001,-1.8200000000000003,-4.2,0.89528125,-0.0009375,-0.2245,0.90928125,0.8635625,-0.49259375,-0.86575,0.7991875,0.020073670229393326,0.02578848415993887,True
65277,22833,0,22834,4274.0,44181.0,42636.0,0.002928,0.000732,-0.001647,0.15750000000000003,-1.3125000000000002,-4.025,0.8950312500000001,-0.0006875,-0.22446875,0.9100312500000001,0.8644375,-0.49175,-0.8655625,0.8023750000000001,0.0200501189175947,0.025782394828188584,True
65278,22834,0,22835,4273.0,44182.0,42635.0,-0.008601,-0.004697,0.000549,0.14,-0.24500000000000002,-3.9550000000000005,0.8954375,-0.00140625,-0.22396875,0.896,0.86390625,-0.4920625,-0.86590625,0.79678125,0.0200332760868955,0.02581597041129358,True
65279,22835,0,22836,4275.0,44184.0,42638.0,-0.010431,-0.0062829999999999995,0.000732,0.17500000000000002,-0.24500000000000002,-3.7450000000000006,0.8966875,0.00025,-0.226,0.90565625,0.86453125,-0.48596875,-0.86646875,0.7885,0.01985703547056924,0.025756320949270294,True
65280,22836,0,22837,4277.0,44184.0,42642.0,-0.0077469999999999995,-0.001769,0.0011589999999999999,0.10500000000000001,-0.5775,-3.8500000000000005,0.90025,0.0005,-0.22890625,0.906,0.86775,-0.48921875000000004,-0.86784375,0.793875,0.01999732024934442,0.025693321319826937,True
65281,22837,0,22838,4279.0,44184.0,42641.0,-0.002562,-6.1e-05,-0.002074,0.07,-0.8925000000000001,-4.077500000000001,0.9001875,0.00025,-0.22434375,0.9044375,0.87059375,-0.48862500000000003,-0.8699687500000001,0.7946562500000001,0.019963350331021035,0.02596002457783547,True
65282,22838,0,22839,4282.0,44184.0,42645.0,-0.000793,0.003172,-0.003965,0.052500000000000005,-1.1025,-3.8850000000000002,0.883375,-0.0035625,-0.22390625,0.91596875,0.8646875,-0.48953125000000003,-0.86553125,0.7994687500000001,0.019843938417563628,0.025803792147010732,True
65283,22839,0,22840,4279.0,44188.0,42645.0,0.007625,0.006039,0.0034159999999999998,0.28,-1.435,-3.99,0.88784375,-0.0053750000000000004,-0.22128125,0.9002187500000001,0.85946875,-0.490375,-0.86553125,0.7936562500000001,0.019803698391715113,0.025909359969938307,True
65284,22840,0,22841,4281.0,44186.0,42643.0,0.009577,0.003538,0.0025009999999999998,0.28,-1.61,-3.99,0.9098437500000001,0.0036875000000000002,-0.226125,0.91628125,0.86246875,-0.48862500000000003,-0.8671562500000001,0.79790625,0.020103721625856906,0.02577822906469251,True
65285,22841,0,22842,4280.0,44187.0,42640.0,0.008357,0.002806,-0.00061,0.22750000000000004,-1.5225000000000002,-3.8325000000000005,0.88928125,-0.002,-0.22115625,0.90790625,0.864,-0.48996875,-0.86665625,0.7936562500000001,0.01992525000669917,0.02595845591423254,True
65286,22842,0,22843,4278.0,44185.0,42641.0,0.0060999999999999995,0.001464,-0.000305,0.3325,-1.12,-3.8150000000000004,0.89725,0.00096875,-0.22540625,0.88965625,0.866375,-0.4895625,-0.86571875,0.7855625,0.020030216954672015,0.025750814060019882,True
65287,22843,0,22844,4279.0,44185.0,42639.0,-0.006161,-0.005429,0.000549,0.45500000000000007,-0.6125,-3.7450000000000006,0.91059375,0.0030625,-0.22625,0.91559375,0.86871875,-0.48928125,-0.86684375,0.802875,0.020104458966103793,0.025760959309522345,True
65288,22844,0,22845,4277.0,44183.0,42635.0,-0.010248,-0.005673,0.000183,0.5075000000000001,0.0175,-3.4125000000000005,0.8813125,-0.0053750000000000004,-0.22175,0.92503125,0.86428125,-0.4923125,-0.86528125,0.7993125,0.019881238245674022,0.025880714701346882,True
65289,22845,0,22846,4278.0,44185.0,42639.0,-0.012139,-0.004331,0.001647,0.56,0.07,-3.5000000000000004,0.88675,-0.00853125,-0.2215,0.9216562500000001,0.86409375,-0.49162500000000003,-0.864,0.7995,0.0197248549248978,0.025840572715572715,True
65290,22846,0,22847,4276.0,44186.0,42636.0,-0.011773,-0.001098,0.002013,0.45500000000000007,-0.052500000000000005,-3.5700000000000003,0.889625,-0.0046875,-0.22240625,0.915,0.8638750000000001,-0.49271875,-0.86509375,0.8019375,0.01992556461295257,0.025846976748277895,True
65291,22847,0,22848,4275.0,44184.0,42635.0,-0.009882,-0.000915,-0.000976,0.49000000000000005,-0.49000000000000005,-3.5000000000000004,0.88853125,-0.00725,-0.22165625,0.90365625,0.86409375,-0.49253125000000003,-0.8651562500000001,0.787625,0.019813438025112252,0.02587958802792563,True
65292,22848,0,22849,4274.0,44184.0,42637.0,0.007503,0.003965,-0.0008539999999999999,0.31500000000000006,-2.345,-3.6400000000000006,0.8950312500000001,0.00090625,-0.22278125000000001,0.90390625,0.85865625,-0.4896875,-0.8673125,0.7938125,0.020032666811285363,0.025918814105866887,True
65293,22849,0,22850,4272.0,44183.0,42635.0,0.01464,0.0042699999999999995,-0.0008539999999999999,0.2625,-2.8875,-3.6575,0.897875,0.00190625,-0.226875,0.90559375,0.8685,-0.48934375,-0.865125,0.79415625,0.020059745373944535,0.025668481457463012,True
65294,22850,0,22851,4275.0,44182.0,42634.0,0.015799,0.001586,-0.003965,0.29750000000000004,-2.8875,-3.4825000000000004,0.8946875,-0.0009375,-0.22225,0.91146875,0.863125,-0.4940625,-0.8664375,0.801875,0.020132430053201672,0.02590590228294664,True
65295,22851,0,22852,4275.0,44183.0,42635.0,0.010553,0.000305,-0.002257,0.385,-2.24,-3.4650000000000003,0.8946875,-0.000625,-0.22453125000000002,0.91153125,0.86453125,-0.49284375,-0.866125,0.79953125,0.020096431227998996,0.025801919277732253,True
65296,22852,0,22853,4275.0,44183.0,42638.0,0.004392,0.001952,0.000305,0.6300000000000001,-1.6800000000000002,-3.6750000000000003,0.89625,-0.00078125,-0.22475,0.9107500000000001,0.8634375,-0.49175,-0.8657812500000001,0.80115625,0.020046291098022806,0.025779654520205354,True
65297,22853,0,22854,4278.0,44186.0,42636.0,-0.003965,-0.005063,0.0,0.5950000000000001,-0.805,-3.2375000000000003,0.894625,0.0054687500000000005,-0.22378125000000001,0.9056875,0.8647812500000001,-0.49171875000000004,-0.8665,0.79878125,0.020300229031496617,0.025846771761204836,True
65298,22854,0,22855,4278.0,44188.0,42640.0,-0.007076,-0.003355,-0.00061,0.5775,-0.4025,-3.2900000000000005,0.8994062500000001,0.00028125000000000003,-0.22375,0.9044375,0.8643125,-0.48978125,-0.8658125,0.7945625000000001,0.020010897402360422,0.02582109472594149,True
65299,22855,0,22856,4279.0,44187.0,42643.0,-0.007503,-0.002989,0.00122,0.47250000000000003,-0.15750000000000003,-3.1850000000000005,0.90184375,0.0013437500000000001,-0.227875,0.90525,0.87146875,-0.485,-0.86903125,0.7941875,0.019862926281396773,0.025781311847440785,True
65300,22856,0,22857,4278.0,44189.0,42646.0,-0.007259,-0.004026,0.002013,0.45500000000000007,0.15750000000000003,-3.1850000000000005,0.89559375,-0.0001875,-0.22478125000000002,0.91096875,0.871625,-0.48878125,-0.86765625,0.7937500000000001,0.019951738104565738,0.0258518532481323,True
65301,22857,0,22858,4281.0,44189.0,42649.0,-0.006527,-0.002257,0.001037,0.24500000000000002,0.07,-3.1675000000000004,0.89196875,-0.00265625,-0.225125,0.9147500000000001,0.86328125,-0.48784375,-0.86609375,0.7998125,0.019813402313137513,0.025776817076465817,True
65302,22858,0,22859,4282.0,44191.0,42649.0,-0.002562,0.005307,-0.0008539999999999999,0.21000000000000002,-0.49000000000000005,-3.3075,0.8884062500000001,0.00125,-0.22709375,0.9041875,0.86384375,-0.48875,-0.86725,0.78634375,0.020009187892399572,0.025742945038152592,True
65303,22859,0,22860,4285.0,44194.0,42652.0,0.002562,0.0044529999999999995,0.000732,0.14,-0.8400000000000001,-3.5000000000000004,0.90171875,0.00096875,-0.2245,0.9141875,0.87090625,-0.4914375,-0.86525,0.80003125,0.020105240862240123,0.025768894340495268,True
65304,22860,0,22861,4285.0,44191.0,42656.0,0.0060999999999999995,0.00061,0.000793,-0.07,-1.0675000000000001,-3.5000000000000004,0.8960312500000001,-0.000375,-0.225125,0.89746875,0.864125,-0.4903125,-0.8614375,0.7945,0.020005359261953067,0.025594356722132415,True
65305,22861,0,22862,4287.0,44196.0,42656.0,0.006588,0.001464,0.000793,0.12250000000000001,-0.9975,-3.6750000000000003,0.8971250000000001,0.00075,-0.22546875,0.9118437500000001,0.871,-0.4891875,-0.86984375,0.7946562500000001,0.020006278280976043,0.025909893382422236,True
65306,22862,0,22863,4289.0,44194.0,42660.0,0.001281,0.004331,0.004514,0.15750000000000003,-0.6475000000000001,-3.8325000000000005,0.8943125000000001,-0.00203125,-0.22540625,0.914875,0.8639375,-0.49212500000000003,-0.86625,0.7959375,0.020010258399383477,0.025771628210928463,True
65307,22863,0,22864,4289.0,44196.0,42665.0,-0.005612,-0.00042699999999999997,-0.001952,0.21000000000000002,-0.7350000000000001,-4.0600000000000005,0.8953125000000001,-0.003,-0.224375,0.90709375,0.86428125,-0.4916875,-0.865625,0.8013125,0.01995319840660224,0.02578861379917054,True
65308,22864,0,22865,4291.0,44200.0,42666.0,-0.0026839999999999998,-0.001769,-0.003172,0.17500000000000002,-1.1375000000000002,-4.095000000000001,0.8992187500000001,-0.00025,-0.21828125,0.90546875,0.8639687500000001,-0.48928125,-0.86546875,0.795125,0.019969195706795194,0.026027560811617518,True
65309,22865,0,22866,4292.0,44200.0,42669.0,0.001952,0.000122,0.000976,0.14,-1.3650000000000002,-4.2525,0.8984375,0.00053125,-0.22459375,0.9054375,0.864375,-0.4898125,-0.865125,0.7958125,0.020022356234862964,0.02576022642154423,True
65310,22866,0,22867,4295.0,44200.0,42667.0,0.003111,-0.003538,-0.001464,-0.0175,-1.225,-4.0600000000000005,0.8986875,0.001875,-0.2275,0.9058125,0.8649687500000001,-0.489875,-0.8675625,0.79403125,0.020079726825882126,0.025738851566171797,True
65311,22867,0,22868,4296.0,44198.0,42668.0,0.001281,-0.0040869999999999995,-0.0006709999999999999,-0.08750000000000001,-1.2775,-3.9725000000000006,0.89853125,-0.000875,-0.22446875,0.9090625,0.8618750000000001,-0.48925,-0.867,0.80171875,0.01994242371652868,0.025838711947561023,True
65312,22868,0,22869,4297.0,44203.0,42670.0,0.0025009999999999998,-0.001586,-0.001952,-0.07,-1.2950000000000002,-4.165,0.89609375,-0.00115625,-0.2248125,0.9071250000000001,0.8641875,-0.490375,-0.86628125,0.7954687500000001,0.01997595994344717,0.025796730260983437,True
65313,22869,0,22870,4297.0,44202.0,42670.0,0.0032329999999999998,-0.0028669999999999998,-0.002196,0.035,-1.4700000000000002,-4.2700000000000005,0.89571875,-0.00121875,-0.2246875,0.9083125,0.86375,-0.492875,-0.86665625,0.8063750000000001,0.02007343972481793,0.025816448482091355,True
65314,22870,0,22871,4299.0,44204.0,42675.0,0.0026839999999999998,0.0032329999999999998,-0.00183,0.07,-1.3650000000000002,-4.3925,0.8960625,-0.00059375,-0.22421875,0.90225,0.8643125,-0.4920625,-0.8611562500000001,0.8068125,0.020066450099904817,0.025619785885863618,True
65315,22871,0,22872,4301.0,44205.0,42676.0,0.0017079999999999999,0.007686,-0.000549,0.15750000000000003,-1.0675000000000001,-4.48,0.90025,0.0005,-0.22678125000000002,0.90596875,0.8616875,-0.49090625,-0.8635,0.79728125,0.02006484549749971,0.02560857280752911,True
65316,22872,0,22873,4300.0,44203.0,42676.0,-0.001037,0.008601,0.001769,0.36750000000000005,-0.6825000000000001,-4.4625,0.90296875,0.0010625,-0.22584375,0.9169375000000001,0.8615,-0.4896875,-0.8695,0.79003125,0.020039047047864536,0.025881350650395065,True
65317,22873,0,22874,4302.0,44202.0,42677.0,-0.002928,0.001464,0.002989,0.47250000000000003,-0.22750000000000004,-4.4625,0.89609375,-0.0001875,-0.23278125,0.9040312500000001,0.85928125,-0.4961875,-0.866,0.78925,0.02024804880351279,0.025465243706265583,True
65318,22874,0,22875,4303.0,44204.0,42677.0,-0.000488,-0.001647,0.002257,0.4025,-0.49000000000000005,-4.2175,0.9289375,0.007,-0.227125,0.9254375,0.87228125,-0.48803125,-0.8670625000000001,0.80196875,0.020215232696585195,0.0257343423655287,True
65319,22875,0,22876,4303.0,44203.0,42671.0,-0.000793,-0.00732,0.00488,0.1925,-0.4025,-4.2525,0.88296875,-0.00665625,-0.22634375,0.8940625,0.85309375,-0.49365625,-0.86384375,0.79025,0.019882699219313165,0.02563963988874407,True
65320,22876,0,22877,4300.0,44199.0,42665.0,-0.0070149999999999995,-0.012199999999999999,-0.001098,-0.035,-0.10500000000000001,-4.077500000000001,0.9001875,-0.00078125,-0.22253125,0.920875,0.873375,-0.4923125,-0.8664375,0.80709375,0.020068797097048306,0.025894591856995997,True
65321,22877,0,22878,4295.0,44197.0,42659.0,-0.010431,-0.008173999999999999,-0.00549,0.10500000000000001,-0.29750000000000004,-3.8150000000000004,0.882625,-0.010781250000000001,-0.21990625,0.927,0.860625,-0.49675,-0.8638125,0.8065,0.01983809076714258,0.02589732568165079,True
65322,22878,0,22879,4289.0,44195.0,42654.0,0.000549,0.001647,-0.004941,-0.0175,-1.4875,-4.2,0.88265625,-0.00875,-0.21853125,0.919375,0.86,-0.49490625,-0.86340625,0.8024375,0.01984723864783112,0.025936711708597855,True
65323,22879,0,22880,4284.0,44195.0,42646.0,0.006161,0.002623,-0.003111,-0.10500000000000001,-2.0125,-4.2525,0.886125,0.0045000000000000005,-0.234,0.895,0.8593125,-0.4894375,-0.8678125,0.79078125,0.020169409771049255,0.02548726390791309,True
65324,22880,0,22881,4276.0,44191.0,42640.0,0.009821,0.0073809999999999995,-0.00042699999999999997,0.12250000000000001,-2.2575000000000003,-4.095000000000001,0.90328125,0.0026875000000000002,-0.22475,0.9207500000000001,0.8749375,-0.4881875,-0.8673125,0.79896875,0.02004537902202848,0.025839643910052605,True
65325,22881,0,22882,4274.0,44187.0,42637.0,0.012322,0.010553,0.00549,0.29750000000000004,-2.1,-4.235,0.877375,-0.010937500000000001,-0.22878125,0.8964375,0.86071875,-0.49253125000000003,-0.86328125,0.79328125,0.01966288192446422,0.025519560094265516,True
65326,22882,0,22883,4271.0,44186.0,42629.0,0.011467999999999999,0.0077469999999999995,0.005307,0.385,-1.9600000000000002,-4.112500000000001,0.9023125000000001,0.00390625,-0.2295625,0.9085,0.87009375,-0.48975,-0.8689687500000001,0.7937500000000001,0.020157668003960842,0.02571100781973519,True
65327,22883,0,22884,4264.0,44184.0,42627.0,0.0023179999999999997,-0.000976,0.002074,0.1925,-0.9625000000000001,-3.6750000000000003,0.88465625,-0.01015625,-0.21996875000000002,0.9176875,0.864625,-0.49078125,-0.8658125,0.798625,0.019624731244537168,0.025973160941352706,True
65328,22884,0,22885,4266.0,44181.0,42625.0,-0.007808,-0.003172,6.1e-05,0.12250000000000001,-0.15750000000000003,-3.6225000000000005,0.8825625,-0.00046875,-0.22290625,0.902,0.86171875,-0.4920625,-0.86771875,0.7881875,0.020071553794213944,0.025929700527918348,True
65329,22885,0,22886,4262.0,44182.0,42624.0,-0.015799,-0.005124,-0.000305,0.15750000000000003,0.28,-3.5175000000000005,0.88946875,-0.00021875,-0.22265625,0.91271875,0.85784375,-0.4885625,-0.8655,0.7995625000000001,0.019941707480788225,0.02585283826989202,True
65330,22886,0,22887,4262.0,44182.0,42623.0,-0.019215,-0.00732,-0.001647,0.052500000000000005,0.22750000000000004,-3.5175000000000005,0.902,0.000625,-0.22596875,0.9123125,0.86375,-0.48990625,-0.8684375,0.793125,0.02002993580263297,0.025834705135777025,True
65331,22887,0,22888,4261.0,44184.0,42626.0,-0.015921,-0.010003999999999999,-0.0051849999999999995,0.10500000000000001,-0.3325,-3.535,0.8955000000000001,-0.0011250000000000001,-0.22362500000000002,0.9059375000000001,0.86375,-0.49165625,-0.8656875,0.79990625,0.020028504605522548,0.025821224528780874,True
65332,22888,0,22889,4261.0,44184.0,42628.0,0.001586,-0.000488,-0.0021349999999999997,0.0175,-1.4700000000000002,-3.9375000000000004,0.90275,0.00121875,-0.2206875,0.91046875,0.86484375,-0.48546875,-0.86665625,0.7937500000000001,0.019876584964296427,0.025977306458322077,True
65333,22889,0,22890,4262.0,44187.0,42629.0,0.003538,0.0017079999999999999,-0.0015249999999999999,0.14,-1.9425000000000001,-3.9550000000000005,0.8896875,-0.00334375,-0.2268125,0.90534375,0.86446875,-0.4895,-0.865625,0.7945,0.019851620082075992,0.02569058690461229,True
65334,22890,0,22891,4262.0,44187.0,42630.0,0.0075639999999999995,0.005612,0.001952,0.45500000000000007,-2.345,-3.9200000000000004,0.8984375,-0.00296875,-0.2234375,0.89671875,0.87365625,-0.48771875000000003,-0.8647812500000001,0.8000625,0.019795637353928693,0.025793259291191233,True
65335,22891,0,22892,4264.0,44187.0,42630.0,0.014701,0.0070149999999999995,0.0034159999999999998,0.3325,-2.7825,-4.165,0.90378125,-0.0014375,-0.224375,0.9067500000000001,0.86440625,-0.4845,-0.86628125,0.7998125,0.01972931854846944,0.025814324367460454,True
65336,22892,0,22893,4264.0,44192.0,42635.0,0.015311,0.005063,0.0006709999999999999,0.24500000000000002,-2.9225000000000003,-4.095000000000001,0.90296875,0.00140625,-0.2248125,0.91053125,0.86440625,-0.48921875000000004,-0.8680625000000001,0.7975,0.020034326329826265,0.025866510509212372,True
65337,22893,0,22894,4267.0,44192.0,42635.0,0.0062829999999999995,0.000488,-0.0011589999999999999,0.45500000000000007,-1.8900000000000001,-3.8325000000000005,0.89490625,0.0010625,-0.22668750000000001,0.90665625,0.859,-0.49234375,-0.86421875,0.7943125,0.020145326026628222,0.025640510020046376,True
65338,22894,0,22895,4268.0,44191.0,42638.0,-0.003904,-0.000976,0.000732,0.36750000000000005,-1.05,-3.7100000000000004,0.8950312500000001,-0.0029375,-0.2238125,0.905,0.87065625,-0.49121875000000004,-0.86525,0.8003750000000001,0.019936992723157153,0.025796543368757602,True
65339,22895,0,22896,4269.0,44193.0,42642.0,-0.009821,-0.004941,-0.000549,0.35000000000000003,-0.7000000000000001,-3.535,0.9008125,0.0004375,-0.22434375,0.91128125,0.8675625,-0.48509375,-0.8673125,0.793625,0.01982966677430018,0.025855980617125397,True
65340,22896,0,22897,4274.0,44195.0,42644.0,-0.012627,-0.004697,-0.004026,0.31500000000000006,-0.665,-3.5875000000000004,0.8949375,0.00040625000000000004,-0.22784375,0.9059375000000001,0.86465625,-0.493375,-0.865125,0.7940625,0.02015978810596743,0.025629521267236745,True
65341,22897,0,22898,4273.0,44198.0,42647.0,-0.009637999999999999,-0.0035989999999999998,-0.001769,0.4025,-0.56,-3.7100000000000004,0.8915625,-0.00284375,-0.22425,0.91121875,0.8715,-0.48396875,-0.86690625,0.79728125,0.01965061322013001,0.025843836122557463,True
65342,22898,0,22899,4274.0,44198.0,42649.0,-0.004758,-0.000305,0.001952,0.49000000000000005,-1.0850000000000002,-3.7450000000000006,0.8954062500000001,-3.125e-05,-0.22725,0.905875,0.8561875,-0.49128125,-0.8647812500000001,0.7931875,0.020058158451795986,0.025639929971231906,True
65343,22899,0,22900,4276.0,44198.0,42654.0,-0.000183,0.002196,0.0037819999999999998,0.47250000000000003,-1.6625,-3.7800000000000002,0.90409375,0.00071875,-0.22384375,0.91209375,0.870625,-0.48928125,-0.86234375,0.796625,0.020008753829800538,0.025681408254199685,True
65344,22900,0,22901,4275.0,44198.0,42648.0,0.005978,0.0032329999999999998,0.002623,0.42000000000000004,-2.205,-3.9025000000000003,0.8928125,0.00075,-0.22693750000000001,0.90525,0.86390625,-0.49090625,-0.86509375,0.78828125,0.02007505336802308,0.025664743371418015,True
65345,22901,0,22902,4275.0,44197.0,42648.0,0.010431,0.0042699999999999995,-0.00122,0.31500000000000006,-2.5725000000000002,-3.9725000000000006,0.89528125,-0.0030625,-0.21840625,0.9049375000000001,0.86965625,-0.48903125000000003,-0.86484375,0.792125,0.019844343577290344,0.025998051968454457,True
65346,22902,0,22903,4273.0,44195.0,42648.0,0.010003999999999999,0.00183,-0.002623,0.1925,-2.555,-3.8500000000000005,0.9035,0.001,-0.2244375,0.91246875,0.86875,-0.48871875000000004,-0.86728125,0.7936562500000001,0.019997728545924846,0.025850986424179358,True
65347,22903,0,22904,4272.0,44194.0,42646.0,0.000305,-0.000488,0.000183,0.385,-1.6975000000000002,-3.8150000000000004,0.89515625,-0.002875,-0.22337500000000002,0.9053125,0.86525,-0.48971875000000004,-0.865,0.7931875,0.019879515766182493,0.02580434345465514,True
65348,22904,0,22905,4272.0,44195.0,42643.0,-0.0035989999999999998,-0.0013419999999999999,6.1e-05,0.35000000000000003,-1.1900000000000002,-3.8325000000000005,0.8943125000000001,-0.00334375,-0.224,0.90540625,0.87128125,-0.48340625000000004,-0.865375,0.8025,0.019607667948572313,0.025793900152320245,True
65349,22905,0,22906,4271.0,44195.0,42646.0,-0.00671,-0.00122,-0.000976,0.45500000000000007,-1.0150000000000001,-3.7450000000000006,0.9010312500000001,0.00071875,-0.224,0.91115625,0.8644375,-0.48871875000000004,-0.86975,0.7997500000000001,0.019986243665769572,0.025965279104132533,True
65350,22906,0,22907,4270.0,44197.0,42642.0,-0.008357,-0.000732,0.001037,0.45500000000000007,-0.8225000000000001,-3.7975000000000003,0.9018125,0.0034375,-0.22528125000000002,0.9028125,0.85440625,-0.49021875000000004,-0.86428125,0.79296875,0.02015728218025819,0.025699516248835867,True
65351,22907,0,22908,4269.0,44196.0,42645.0,-0.0059169999999999995,-0.000488,0.002074,0.385,-0.8400000000000001,-3.9200000000000004,0.903375,0.000375,-0.2280625,0.9058437500000001,0.86340625,-0.4881875,-0.8708750000000001,0.78890625,0.01995094573659239,0.025845994561912274,True
65352,22908,0,22909,4270.0,44197.0,42643.0,0.0008539999999999999,0.0017079999999999999,0.0025009999999999998,0.4025,-1.8200000000000003,-4.0075,0.8954375,-0.0024375,-0.22287500000000002,0.90834375,0.88053125,-0.48631250000000004,-0.8673125,0.788875,0.019761039968758057,0.025915044096542397,True
65353,22909,0,22910,4267.0,44198.0,42643.0,0.006954,0.003294,0.000244,0.35000000000000003,-2.3800000000000003,-4.1825,0.88815625,-0.00190625,-0.2248125,0.9144375,0.855125,-0.48812500000000003,-0.8668750000000001,0.789875,0.0198552870013527,0.025819991454495192,True
65354,22910,0,22911,4269.0,44194.0,42645.0,0.009516,0.001464,-0.0017079999999999999,0.15750000000000003,-2.765,-4.2175,0.89196875,-0.00153125,-0.2241875,0.91171875,0.87471875,-0.4869375,-0.86746875,0.78909375,0.01982306893216026,0.025868384774787343,True
65355,22911,0,22912,4269.0,44195.0,42644.0,0.008173999999999999,0.0006709999999999999,-0.0032329999999999998,0.17500000000000002,-2.7475,-4.095000000000001,0.8960312500000001,0.001,-0.22609375,0.9060312500000001,0.85809375,-0.4975625,-0.86159375,0.7891875,0.020351514563948965,0.025561514937070356,True
65356,22912,0,22913,4269.0,44195.0,42643.0,0.003904,6.1e-05,-0.001098,0.3325,-2.3625000000000003,-3.8325000000000005,0.90084375,0.0004375,-0.224625,0.91028125,0.8683125,-0.48715625,-0.8659375,0.788375,0.019912224393144873,0.02579080318206382,True
65357,22913,0,22914,4270.0,44193.0,42647.0,-0.001098,-0.0025009999999999998,-0.0032329999999999998,0.29750000000000004,-2.0650000000000004,-3.7975000000000003,0.8950625,-0.00128125,-0.2243125,0.91040625,0.88228125,-0.48678125,-0.8708750000000001,0.8064375,0.019827024019336965,0.02599677333427151,True
65358,22914,0,22915,4271.0,44196.0,42648.0,-0.0055509999999999995,-0.0013419999999999999,-0.0025009999999999998,0.5075000000000001,-1.4875,-3.8675,0.8954375,-0.00109375,-0.2231875,0.9115625,0.85721875,-0.4920625,-0.86390625,0.8059375,0.020046035322668316,0.02576903015792219,True
65359,22915,0,22916,4271.0,44197.0,42649.0,-0.009882,-0.000488,0.0018909999999999999,0.665,-1.0325000000000002,-3.8150000000000004,0.8949375,-0.000875,-0.22296875,0.90090625,0.8625625,-0.4953125,-0.8624375,0.80284375,0.02018498437200995,0.025720275817686825,True
65360,22916,0,22917,4272.0,44198.0,42651.0,-0.010065,-0.001586,0.0037819999999999998,0.77,-1.0675000000000001,-3.8500000000000005,0.89590625,-0.00296875,-0.2235,0.91334375,0.85971875,-0.49209375,-0.8641562500000001,0.801875,0.019970730350483,0.025766257401153517,True
65361,22917,0,22918,4273.0,44199.0,42654.0,-0.0017079999999999999,0.001037,0.0013419999999999999,0.6475000000000001,-2.1350000000000002,-4.235,0.88990625,0.0,-0.22421875,0.9059375000000001,0.848375,-0.48934375,-0.86240625,0.8025625000000001,0.019981905395076174,0.02566877451775208,True
65362,22918,0,22919,4274.0,44199.0,42654.0,0.005856,0.002623,0.0017079999999999999,0.6475000000000001,-2.8000000000000003,-4.130000000000001,0.8954375,0.00084375,-0.22087500000000002,0.91178125,0.8639375,-0.4875,-0.8668125,0.7924375,0.019942572741194486,0.025975886535517967,True
65363,22919,0,22920,4277.0,44200.0,42656.0,0.009333,0.000793,6.1e-05,0.47250000000000003,-3.1850000000000005,-4.2700000000000005,0.88771875,-0.00203125,-0.22284375,0.90575,0.86703125,-0.49103125000000003,-0.86465625,0.80175,0.019966492836025435,0.025812241019821058,True
65364,22920,0,22921,4277.0,44201.0,42658.0,0.009577,-0.000793,-0.0032329999999999998,0.28,-3.2025,-4.0600000000000005,0.90053125,0.00140625,-0.2244375,0.91140625,0.8637812500000001,-0.4894375,-0.8671875,0.79396875,0.02004307979715745,0.02584731385485391,True
65365,22921,0,22922,4278.0,44202.0,42659.0,0.0070149999999999995,0.000183,-0.003721,0.47250000000000003,-2.9575000000000005,-3.9725000000000006,0.8936875,-0.0022500000000000003,-0.2225625,0.9051875,0.864,-0.49071875000000004,-0.86021875,0.80053125,0.01994505571625986,0.02564966368206233,True
65366,22922,0,22923,4280.0,44204.0,42661.0,0.0006709999999999999,0.002928,0.000915,0.5950000000000001,-2.2925000000000004,-3.99,0.90190625,0.00140625,-0.2245625,0.9115,0.8713125,-0.48884375,-0.8686875000000001,0.794625,0.020019320021999815,0.025901045240123752,True
65367,22923,0,22924,4284.0,44203.0,42663.0,-0.0023179999999999997,-0.0017079999999999999,0.002623,0.5950000000000001,-2.0650000000000004,-3.8675,0.8978125,0.0006875,-0.225875,0.90553125,0.8639375,-0.49228125,-0.867625,0.7944375,0.020127514663420745,0.025806646191584442,True
65368,22924,0,22925,4282.0,44203.0,42665.0,-0.0075639999999999995,-0.0017079999999999999,0.00122,0.6825000000000001,-1.6800000000000002,-3.9200000000000004,0.89734375,-0.0020625,-0.2238125,0.91046875,0.87165625,-0.488875,-0.8679375,0.7939375,0.01987892461372766,0.025901826397947157,True
65369,22925,0,22926,4283.0,44205.0,42667.0,-0.008479,-0.0015249999999999999,0.000976,0.5950000000000001,-1.54,-3.9025000000000003,0.896375,-0.00109375,-0.22096875,0.905875,0.8667812500000001,-0.4914375,-0.8637812500000001,0.8001875,0.020021027757149822,0.025853368541842364,True
65370,22926,0,22927,4286.0,44208.0,42668.0,-0.00671,-0.00042699999999999997,-0.000366,0.49000000000000005,-1.7675,-3.9200000000000004,0.9015625,0.0025625,-0.2165625,0.90659375,0.86409375,-0.4891875,-0.86409375,0.7970625,0.02008029053638468,0.026042825309086522,True
65371,22927,0,22928,4288.0,44206.0,42670.0,0.003477,-0.001037,-0.003355,0.385,-2.9925,-3.8500000000000005,0.89575,0.00025,-0.2258125,0.9065625,0.86446875,-0.49243750000000003,-0.86446875,0.79578125,0.020115903123157912,0.025685497503339982,True
65372,22928,0,22929,4292.0,44207.0,42671.0,0.010065,0.000915,-0.00183,0.43750000000000006,-3.3425000000000002,-3.8675,0.9095,0.0011250000000000001,-0.22337500000000002,0.91703125,0.86434375,-0.48884375,-0.86421875,0.79403125,0.02000783520046756,0.02577373359056375,True
65373,22929,0,22930,4291.0,44210.0,42672.0,0.012931999999999999,0.000122,0.000915,0.43750000000000006,-3.2900000000000005,-3.8325000000000005,0.8932187500000001,0.0013437500000000001,-0.22671875,0.90240625,0.8639687500000001,-0.49365625,-0.8593125,0.78140625,0.020209314401560607,0.0254469527264682,True
65374,22930,0,22931,4294.0,44209.0,42674.0,0.009028,0.001037,0.0006709999999999999,0.5075000000000001,-2.5900000000000003,-3.7100000000000004,0.90834375,0.0013125,-0.22668750000000001,0.9020625,0.8728125,-0.48890625,-0.868,0.793625,0.020017992841146182,0.025788664146694548,True
65375,22931,0,22932,4297.0,44208.0,42674.0,0.000183,0.0018909999999999999,0.000183,0.525,-1.8725000000000003,-3.7450000000000006,0.90921875,0.0018437500000000001,-0.2261875,0.9118437500000001,0.8729687500000001,-0.4888125,-0.866125,0.788625,0.020035934776339193,0.025735312598967473,True
65376,22932,0,22933,4295.0,44208.0,42673.0,-0.008113,0.0011589999999999999,0.002562,0.5950000000000001,-1.1375000000000002,-3.8150000000000004,0.8921875,-0.0025625,-0.22240625,0.9164375,0.85959375,-0.49053125000000003,-0.86484375,0.8013125,0.019924792362354327,0.025837182266628966,True
65377,22933,0,22934,4295.0,44210.0,42677.0,-0.005673,-0.00061,0.0008539999999999999,0.56,-1.4700000000000002,-3.8500000000000005,0.8915000000000001,-0.0054375000000000005,-0.21684375,0.918125,0.86471875,-0.49134375,-0.86484375,0.799,0.019839917930187072,0.026060891695730042,True
65378,22934,0,22935,4295.0,44206.0,42676.0,-0.003904,-0.004758,-0.002013,0.5950000000000001,-1.54,-3.9375000000000004,0.8915000000000001,-0.00675,-0.222,0.9204375,0.86475,-0.48978125,-0.8646875,0.8003125,0.01972378785539377,0.025847399047343754,True
65379,22935,0,22936,4295.0,44206.0,42670.0,-0.003172,-0.002745,-0.002196,0.7350000000000001,-1.435,-4.095000000000001,0.888375,-0.00459375,-0.22278125000000001,0.91528125,0.86421875,-0.49153125000000003,-0.86575,0.7993750000000001,0.01988187243294557,0.02585760534067945,True
65380,22936,0,22937,4291.0,44206.0,42665.0,-0.004575,-0.0008539999999999999,0.000488,0.7875000000000001,-1.54,-4.2525,0.8914062500000001,-0.002,-0.22718750000000001,0.89303125,0.864125,-0.48921875000000004,-0.86425,0.79396875,0.01989523451008416,0.025621625426063527,True
65381,22937,0,22938,4287.0,44203.0,42657.0,0.003477,0.002196,0.003721,0.5775,-2.0650000000000004,-4.165,0.907375,0.00209375,-0.22809375,0.9079375000000001,0.8690625000000001,-0.48921875000000004,-0.86728125,0.79378125,0.020062399908122835,0.025703955875755417,True
65382,22938,0,22939,4281.0,44200.0,42650.0,0.00671,0.0025009999999999998,0.002379,0.56,-2.4850000000000003,-4.095000000000001,0.88665625,-0.00284375,-0.22362500000000002,0.90825,0.8659687500000001,-0.48840625,-0.8649687500000001,0.79290625,0.019828260567181663,0.025793064791203493,True
65383,22939,0,22940,4275.0,44199.0,42644.0,0.0064659999999999995,0.002623,0.000122,0.36750000000000005,-2.415,-3.99,0.891375,-0.0028125,-0.223,0.9096875,0.8645625,-0.48975,-0.8645,0.7984375,0.019883318531222247,0.02579983510627602,True
65384,22940,0,22941,4272.0,44196.0,42637.0,0.005612,0.002013,-0.000976,0.35000000000000003,-2.3800000000000003,-4.1475,0.89425,0.00075,-0.22690625,0.8994375,0.86425,-0.488875,-0.8629375,0.79425,0.01999377268249358,0.025581500576912927,True
65385,22941,0,22942,4265.0,44195.0,42632.0,0.002257,-0.0006709999999999999,-0.001952,0.36750000000000005,-2.2925000000000004,-4.0600000000000005,0.8955625,-0.0018125,-0.22403125000000002,0.9093125,0.867625,-0.48928125,-0.86528125,0.8031875,0.019905392282593023,0.025788970313778373,True
65386,22942,0,22943,4261.0,44193.0,42627.0,0.0006709999999999999,-0.003477,-0.0008539999999999999,0.052500000000000005,-2.0475000000000003,-3.8500000000000005,0.8961875,0.0018125,-0.22396875,0.9059375000000001,0.8651875,-0.49275,-0.8655,0.80184375,0.020192199732573926,0.025800054292091455,True
65387,22943,0,22944,4259.0,44191.0,42625.0,-0.002989,-0.003355,-0.0042699999999999995,0.035,-1.8025000000000002,-3.8325000000000005,0.90215625,0.00015625,-0.22525,0.9063125,0.8648125,-0.4909375,-0.8658750000000001,0.7913125,0.020052060073241378,0.02576321967354859,True
65388,22944,0,22945,4256.0,44189.0,42623.0,-0.00732,-0.000244,-0.004697,0.17500000000000002,-1.4000000000000001,-3.8325000000000005,0.8964062500000001,0.00296875,-0.22425,0.9117500000000001,0.87534375,-0.48812500000000003,-0.877125,0.78690625,0.02005436308414793,0.026243989206952173,True
65389,22945,0,22946,4254.0,44186.0,42618.0,-0.006588,0.002196,6.1e-05,0.385,-1.0325000000000002,-3.9200000000000004,0.89484375,0.0006875,-0.2268125,0.90609375,0.84928125,-0.4921875,-0.8601562500000001,0.8003125,0.0201237639553429,0.02547625781716477,True
65390,22946,0,22947,4255.0,44188.0,42621.0,-0.007259,0.002013,0.00244,0.5075000000000001,-1.05,-3.8500000000000005,0.89571875,-0.00275,-0.22365625,0.9073125,0.877375,-0.4834375,-0.862,0.8130937500000001,0.019633170383039557,0.025675478642104416,True
65391,22947,0,22948,4252.0,44188.0,42621.0,0.001769,0.002623,0.0025009999999999998,0.49000000000000005,-1.8200000000000003,-4.095000000000001,0.89590625,-0.000875,-0.22440625,0.9120625,0.87015625,-0.48490625,-0.87040625,0.79684375,0.01976855639379873,0.025974646071573522,True
65392,22948,0,22949,4253.0,44190.0,42621.0,0.006161,0.0013419999999999999,0.003294,0.43750000000000006,-2.1700000000000004,-4.0425,0.897625,0.0016250000000000001,-0.225125,0.912,0.85784375,-0.497875,-0.86621875,0.782625,0.020389523581126934,0.025781714399178604,True
65393,22949,0,22950,4254.0,44190.0,42624.0,0.007686,0.000488,0.0008539999999999999,0.22750000000000004,-2.205,-3.9550000000000005,0.89015625,-0.000125,-0.22796875,0.90740625,0.86521875,-0.4988125,-0.85875,0.78528125,0.02035557845916001,0.025374616583697895,True
65394,22950,0,22951,4254.0,44192.0,42625.0,0.0060999999999999995,-0.000183,-0.001281,0.1925,-2.2925000000000004,-3.9025000000000003,0.89596875,-0.000625,-0.2214375,0.90634375,0.884875,-0.48481250000000004,-0.8631562500000001,0.79609375,0.019775013592609705,0.02581002763878782,True
65395,22951,0,22952,4257.0,44192.0,42625.0,0.004209,-0.000305,-0.002928,0.21000000000000002,-2.0475000000000003,-3.8675,0.9030312500000001,0.00140625,-0.2245625,0.9140312500000001,0.85259375,-0.48396875,-0.8728750000000001,0.7845,0.01982419618959855,0.026065040732122846,True
65396,22952,0,22953,4258.0,44192.0,42630.0,-0.002013,-0.001647,-0.003538,0.29750000000000004,-1.3125000000000002,-3.6925000000000003,0.88903125,0.004375,-0.22728125000000002,0.90578125,0.85828125,-0.50040625,-0.85871875,0.78959375,0.02060297469557265,0.02540104767064875,True
65397,22953,0,22954,4259.0,44193.0,42632.0,-0.003965,-0.0018909999999999999,-0.00061,0.47250000000000003,-0.9275000000000001,-3.7450000000000006,0.896375,-0.0029375,-0.22359375,0.905375,0.88484375,-0.48421875000000003,-0.86809375,0.81084375,0.019656794236083193,0.025916743216395505,True
65398,22954,0,22955,4261.0,44196.0,42635.0,-0.0050019999999999995,-0.001281,0.00042699999999999997,0.49000000000000005,-0.7350000000000001,-3.7100000000000004,0.9010312500000001,0.001,-0.22496875,0.91115625,0.8614375,-0.48681250000000004,-0.8704375,0.79025,0.019921437304263268,0.02595325273228507,True
65399,22955,0,22956,4264.0,44194.0,42638.0,-0.005795,-0.000793,0.001586,0.49000000000000005,-0.56,-3.8150000000000004,0.8959375,-0.00315625,-0.22528125000000002,0.898375,0.8638125,-0.487375,-0.8631562500000001,0.79025,0.019774220389078043,0.025655431417722765,True
65400,22956,0,22957,4266.0,44196.0,42642.0,-0.004514,0.001403,0.0030499999999999998,0.5425000000000001,-0.6475000000000001,-3.8500000000000005,0.9029375000000001,0.00809375,-0.22590625,0.90515625,0.8685625,-0.48703125,-0.8687812500000001,0.7860625,0.020219886802325213,0.025850683776471758,True
65401,22957,0,22958,4267.0,44198.0,42644.0,0.000732,0.001403,0.002379,0.525,-1.1725,-3.8150000000000004,0.89875,-0.0011875,-0.22409375,0.90646875,0.87128125,-0.49034375,-0.86559375,0.8014375,0.019973433406789157,0.025798700262285115,True
65402,22958,0,22959,4269.0,44201.0,42646.0,0.002623,0.0018909999999999999,-0.000122,0.47250000000000003,-1.435,-3.7100000000000004,0.8950312500000001,0.00034375,-0.226875,0.90534375,0.85703125,-0.49215625,-0.86434375,0.79425,0.020108478607309226,0.025637867478404696,True
65403,22959,0,22960,4270.0,44200.0,42647.0,0.002745,0.000976,-0.000244,0.49000000000000005,-1.435,-3.7800000000000002,0.90090625,0.0013437500000000001,-0.2273125,0.90575,0.8711875,-0.4885625,-0.8678125,0.7944375,0.020005512777648747,0.025756185832589817,True
65404,22960,0,22961,4269.0,44200.0,42645.0,0.00183,0.0006709999999999999,-0.0006709999999999999,0.49000000000000005,-1.4875,-3.8500000000000005,0.89590625,-0.00125,-0.22409375,0.9094375,0.868375,-0.4896875,-0.86559375,0.8004687500000001,0.019944619546492785,0.025798700262285115,True
65405,22961,0,22962,4269.0,44198.0,42644.0,0.000793,0.0011589999999999999,-0.000122,0.45500000000000007,-1.4175000000000002,-3.7800000000000002,0.89553125,-0.00146875,-0.22378125000000001,0.91071875,0.864,-0.4911875,-0.86459375,0.7875625,0.019995712743614412,0.02577208807202008,True
65406,22962,0,22963,4269.0,44198.0,42643.0,0.001586,-0.002623,-0.000244,0.29750000000000004,-1.3475000000000001,-3.7100000000000004,0.8955625,0.000375,-0.22453125000000002,0.90590625,0.8644375,-0.4925625,-0.86471875,0.7943125,0.02012600764007441,0.02574682249321641,True
65407,22963,0,22964,4268.0,44198.0,42643.0,0.0,-0.003111,-0.000732,0.29750000000000004,-1.225,-3.6750000000000003,0.90146875,0.00046875,-0.2249375,0.91221875,0.8699687500000001,-0.48815625,-0.8671562500000001,0.79115625,0.01995352345074979,0.02582598281618953,True
65408,22964,0,22965,4266.0,44200.0,42642.0,-0.00183,-0.0018909999999999999,-0.002013,0.24500000000000002,-1.1900000000000002,-3.7100000000000004,0.90140625,0.00103125,-0.225,0.9181875,0.8604375,-0.4885,-0.8668750000000001,0.8004687500000001,0.019990250525756988,0.025812451303189488,True
65409,22965,0,22966,4267.0,44198.0,42640.0,-0.0015249999999999999,0.001952,-0.0006709999999999999,0.35000000000000003,-1.155,-3.8325000000000005,0.8963125000000001,0.00015625,-0.23084375000000001,0.92009375,0.86390625,-0.48890625,-0.8601875,0.79471875,0.01997077758423776,0.025315325960433725,True
65410,22966,0,22967,4265.0,44200.0,42640.0,-0.0028669999999999998,0.0,-0.0011589999999999999,0.3325,-1.1725,-3.8850000000000002,0.8910625,0.0006875,-0.23168750000000002,0.9009375000000001,0.86540625,-0.4893125,-0.8691875,0.79440625,0.02000872829729295,0.025634130588303296,True
65411,22967,0,22968,4265.0,44198.0,42641.0,-0.001037,0.001769,0.001769,0.5075000000000001,-1.12,-4.025,0.8895937500000001,-0.0019375,-0.23078125,0.90396875,0.8650625000000001,-0.49312500000000004,-0.86740625,0.7941875,0.02005409681288117,0.02560078013765509,True
65412,22968,0,22969,4264.0,44200.0,42641.0,-0.0006709999999999999,0.0023179999999999997,0.0017079999999999999,0.5775,-1.3650000000000002,-3.9025000000000003,0.8843125000000001,0.006,-0.22965625,0.9006875,0.8631875,-0.48896875,-0.8653125,0.79178125,0.02021190663653405,0.025563975920270456,True
65413,22969,0,22970,4264.0,44198.0,42640.0,0.002013,0.000244,0.003355,0.45500000000000007,-1.61,-3.8150000000000004,0.8894062500000001,-0.00721875,-0.227625,0.9021250000000001,0.8649687500000001,-0.4875,-0.86753125,0.79503125,0.01961332312404288,0.025732600617522097,True
65414,22970,0,22971,4264.0,44200.0,42641.0,0.001586,-0.0011589999999999999,0.000976,0.15750000000000003,-1.6450000000000002,-3.9375000000000004,0.8860625,-0.00121875,-0.22678125000000002,0.89971875,0.8641562500000001,-0.4905625,-0.8676875000000001,0.7939375,0.019980911014191693,0.02577265175943682,True
65415,22971,0,22972,4264.0,44198.0,42638.0,0.000976,0.000122,-0.001403,0.15750000000000003,-1.5575,-3.8325000000000005,0.89784375,-0.00703125,-0.22159375,0.90375,0.86084375,-0.48959375,-0.8588125,0.796,0.019704798083880013,0.02563351527752985,True
65416,22972,0,22973,4265.0,44201.0,42641.0,0.002013,-0.000732,-0.0015249999999999999,0.07,-1.5225000000000002,-3.7450000000000006,0.90725,0.0030625,-0.22968750000000002,0.9204687500000001,0.87321875,-0.48828125,-0.8678750000000001,0.79971875,0.020064444089966504,0.02566312964014818,True
65417,22973,0,22974,4265.0,44201.0,42643.0,0.0025009999999999998,-0.002013,-0.001037,0.0175,-1.2600000000000002,-3.7275000000000005,0.88971875,-0.00059375,-0.22503125000000002,0.9006875,0.8641875,-0.48946875,-0.86759375,0.789375,0.019962662522027965,0.025839351666262445,True
65418,22974,0,22975,4267.0,44203.0,42645.0,0.000183,-0.000793,-0.0011589999999999999,-0.035,-1.155,-3.535,0.8869375,0.00028125000000000003,-0.22015625,0.91928125,0.87015625,-0.48959375,-0.86725,0.7876875,0.020003394298853977,0.026021926429339797,True
65419,22975,0,22976,4269.0,44203.0,42646.0,-0.00244,-0.0008539999999999999,-0.002013,0.0175,-1.0325000000000002,-3.4650000000000003,0.88890625,-0.00415625,-0.22162500000000002,0.9167500000000001,0.8640625000000001,-0.49078125,-0.86575,0.7995625000000001,0.01986972138751188,0.02590410504408675,True
65420,22976,0,22977,4270.0,44205.0,42650.0,-0.0055509999999999995,0.0030499999999999998,0.0,0.24500000000000002,-0.9450000000000001,-3.8500000000000005,0.8894062500000001,-0.00028125000000000003,-0.2216875,0.9074375,0.86471875,-0.49162500000000003,-0.8596875,0.80184375,0.02006170476642526,0.025664039421251776,True
65421,22977,0,22978,4272.0,44205.0,42650.0,-0.002745,0.001647,0.000549,0.36750000000000005,-1.12,-3.8850000000000002,0.90009375,0.00203125,-0.2253125,0.9016875,0.8649687500000001,-0.4881875,-0.8674375,0.7944375,0.020018580386972292,0.02582192073469572,True
65422,22978,0,22979,4272.0,44207.0,42654.0,0.000244,0.000122,0.000976,0.29750000000000004,-1.4175000000000002,-3.99,0.9029375000000001,0.00028125000000000003,-0.22315625,0.8970625,0.87065625,-0.48871875000000004,-0.8651875,0.8011875,0.019968378296639142,0.02582048697601818,True
65423,22979,0,22980,4275.0,44210.0,42657.0,0.0025009999999999998,-0.0006709999999999999,0.002623,0.31500000000000006,-1.4700000000000002,-3.9375000000000004,0.8960625,-0.0019375,-0.22290625,0.9079375000000001,0.86465625,-0.49121875000000004,-0.8650625000000001,0.794375,0.01997782368425418,0.025825643913020533,True
65424,22980,0,22981,4275.0,44210.0,42657.0,0.0013419999999999999,-0.002257,0.0026839999999999998,0.4025,-1.33,-3.7975000000000003,0.8973125000000001,0.0004375,-0.22746875,0.900625,0.8728750000000001,-0.48934375,-0.86503125,0.7945625000000001,0.019999770308259078,0.02564092896525115,True
65425,22981,0,22982,4277.0,44211.0,42661.0,0.002379,0.000976,-0.000976,0.36750000000000005,-1.4175000000000002,-3.8500000000000005,0.90196875,0.00059375,-0.22743750000000001,0.89878125,0.870625,-0.48928125,-0.8667812500000001,0.78509375,0.020003649555864363,0.025710756192058436,True
65426,22982,0,22983,4279.0,44212.0,42666.0,0.002379,0.003111,-0.000305,0.42000000000000004,-1.2950000000000002,-3.9375000000000004,0.9028437500000001,0.00096875,-0.22484375,0.91109375,0.87315625,-0.48862500000000003,-0.86890625,0.7935625000000001,0.01999270069266854,0.025898304232820857,True
65427,22983,0,22984,4279.0,44213.0,42668.0,0.0,0.0013419999999999999,0.001403,0.36750000000000005,-1.435,-4.095000000000001,0.89571875,-0.001,-0.22403125000000002,0.9061250000000001,0.864375,-0.492375,-0.865375,0.794625,0.02006236634871057,0.02579264338462621,True
65428,22984,0,22985,4280.0,44214.0,42671.0,-0.0013419999999999999,-0.001586,0.002379,0.43750000000000006,-1.4175000000000002,-4.112500000000001,0.90290625,0.00878125,-0.224375,0.91271875,0.8705,-0.48653125,-0.8674375,0.79621875,0.020227956950823734,0.0258596206384353,True
65429,22985,0,22986,4282.0,44216.0,42670.0,-0.001464,-0.000915,0.002013,0.45500000000000007,-1.3825,-4.0425,0.895875,0.0004375,-0.224625,0.90634375,0.86425,-0.489875,-0.8622500000000001,0.798125,0.0200210290987602,0.025646311174571897,True
65430,22986,0,22987,4283.0,44213.0,42674.0,-0.002562,0.0008539999999999999,-0.000488,0.15750000000000003,-1.4525000000000001,-3.9725000000000006,0.89609375,0.0005625000000000001,-0.22315625,0.913,0.86440625,-0.486875,-0.86446875,0.8015,0.019906072130478063,0.02579232665085595,True
65431,22987,0,22988,4285.0,44216.0,42674.0,-0.001464,-0.001769,-0.004209,0.14,-1.7850000000000001,-3.9550000000000005,0.89578125,-0.0015937500000000001,-0.2244375,0.9131875,0.86353125,-0.49115625,-0.8657812500000001,0.79753125,0.019989358403607424,0.02579222199181858,True
65432,22988,0,22989,4284.0,44218.0,42678.0,0.001647,-0.0013419999999999999,-0.004148,0.15750000000000003,-1.9425000000000001,-3.9375000000000004,0.8954375,-0.001375,-0.22390625,0.91125,0.85784375,-0.49012500000000003,-0.86521875,0.7973125,0.019957023494163464,0.025791548686858026,True
65433,22989,0,22990,4289.0,44219.0,42680.0,0.005673,0.0008539999999999999,-0.00183,0.21000000000000002,-2.1,-3.9375000000000004,0.8968125,-0.0035,-0.22378125000000001,0.9051875,0.86384375,-0.48503125,-0.8647812500000001,0.7883125,0.01966635227390204,0.0257794345164408,True
65434,22990,0,22991,4288.0,44219.0,42681.0,0.005978,0.000793,6.1e-05,0.43750000000000006,-2.1,-4.0600000000000005,0.9023125000000001,0.0006875,-0.22746875,0.9044375,0.8696875000000001,-0.4894375,-0.8648750000000001,0.7945,0.020013730409283594,0.02563480612711707,True
65435,22991,0,22992,4290.0,44220.0,42683.0,0.000549,0.001281,0.001464,0.5425000000000001,-1.3650000000000002,-4.0425,0.8955625,0.00065625,-0.22440625,0.90628125,0.86640625,-0.491,-0.86459375,0.7941875,0.02007497652198767,0.0257469519283821,True
65436,22992,0,22993,4290.0,44219.0,42683.0,-0.0032329999999999998,0.0011589999999999999,0.001037,0.56,-1.225,-3.9725000000000006,0.9004375,9.375e-05,-0.2250625,0.91125,0.87053125,-0.4890625,-0.86278125,0.798125,0.01997447840234799,0.025649533879078798,True
65437,22993,0,22994,4290.0,44218.0,42683.0,-0.0040869999999999995,0.0,0.0008539999999999999,0.47250000000000003,-1.2600000000000002,-4.025,0.8963125000000001,0.00084375,-0.2260625,0.90534375,0.86453125,-0.4900625,-0.86503125,0.7939375,0.020045120342179607,0.02569748429332861,True
65438,22994,0,22995,4293.0,44220.0,42684.0,-0.00366,-0.00183,0.0,0.5075000000000001,-1.3650000000000002,-3.8850000000000002,0.89525,-0.0015,-0.22384375,0.9058437500000001,0.86621875,-0.49009375,-0.86503125,0.790125,0.019950668829105647,0.02578671603318415,True
65439,22995,0,22996,4293.0,44217.0,42679.0,-0.00244,-0.002806,-0.0006709999999999999,0.36750000000000005,-1.1375000000000002,-3.9025000000000003,0.89484375,-0.0018125,-0.22440625,0.9098437500000001,0.86753125,-0.49065625,-0.86746875,0.79496875,0.0199604185780036,0.025859588141635845,True
65440,22996,0,22997,4289.0,44214.0,42674.0,-0.000488,-0.0006709999999999999,6.1e-05,0.2625,-1.2600000000000002,-3.9375000000000004,0.89628125,3.125e-05,-0.2235,0.909625,0.86509375,-0.49196875,-0.867625,0.794375,0.02008821769381034,0.02590215189428021,True
65441,22997,0,22998,4286.0,44213.0,42667.0,0.000305,6.1e-05,6.1e-05,0.28,-1.2775,-4.025,0.8955000000000001,0.001375,-0.2255625,0.9090625,0.8641875,-0.490875,-0.867625,0.79453125,0.020099322706926562,0.02581921273141283,True
65442,22998,0,22999,4278.0,44210.0,42658.0,0.000305,-0.000366,0.000549,0.22750000000000004,-1.33,-4.112500000000001,0.89634375,0.00121875,-0.22378125000000001,0.9098125,0.8649687500000001,-0.48990625,-0.87075,0.7941875,0.020054180485072293,0.026013238442749012,True
65443,22999,0,23000,4276.0,44208.0,42654.0,0.000488,0.001464,0.001403,0.21000000000000002,-1.435,-4.130000000000001,0.89546875,0.00065625,-0.22534375,0.91040625,0.8543125,-0.48978125,-0.8706875000000001,0.78953125,0.020026209911531978,0.025947965853376595,True
65444,23000,0,23001,4269.0,44204.0,42642.0,0.003111,0.0025009999999999998,0.0008539999999999999,0.24500000000000002,-1.7325000000000002,-4.0425,0.89934375,0.00084375,-0.22440625,0.911375,0.8625625,-0.48990625,-0.85846875,0.80225,0.020038868054057985,0.02550690094296335,True
65445,23001,0,23002,4263.0,44204.0,42638.0,0.002257,0.000488,-0.0015249999999999999,0.2625,-1.6800000000000002,-4.077500000000001,0.9041250000000001,0.00090625,-0.22809375,0.90596875,0.8600625000000001,-0.48828125,-0.87146875,0.78971875,0.019976391769022172,0.025867993823243753,True
65446,23002,0,23003,4259.0,44201.0,42632.0,-0.000183,0.000915,0.0,0.3325,-1.5050000000000001,-4.0600000000000005,0.89628125,-0.0074375000000000005,-0.22484375,0.9016875,0.87190625,-0.488875,-0.8626875,0.803875,0.019659437193419463,0.025654658210219634,True
65447,23003,0,23004,4255.0,44200.0,42630.0,0.00122,0.000366,0.000366,0.29750000000000004,-1.4700000000000002,-3.9025000000000003,0.92278125,0.0041875,-0.2194375,0.931125,0.874,-0.48725,-0.86309375,0.8045625000000001,0.020069117602017378,0.02588801926550271,True
65448,23004,0,23005,4254.0,44200.0,42629.0,-6.1e-05,-0.0021349999999999997,0.00042699999999999997,0.21000000000000002,-1.2600000000000002,-3.8150000000000004,0.8978125,0.004125,-0.22718750000000001,0.91246875,0.86003125,-0.48803125,-0.8696875000000001,0.7978125,0.020097828403416465,0.02583466318183532,True
65449,23005,0,23006,4252.0,44197.0,42628.0,-0.0015249999999999999,-0.0017079999999999999,0.001098,0.15750000000000003,-1.0675000000000001,-3.7450000000000006,0.88165625,0.0015,-0.22993750000000002,0.89378125,0.86,-0.489875,-0.87134375,0.7858125,0.02006441437532858,0.02578896646868949,True
65450,23006,0,23007,4251.0,44195.0,42627.0,-0.005795,0.0,-0.000183,0.14,-1.0325000000000002,-3.7275000000000005,0.88190625,-0.00625,-0.23290625,0.8990312500000001,0.85284375,-0.49478125,-0.86165625,0.7907500000000001,0.019944299359685037,0.02528994825113472,True
65451,23007,0,23008,4250.0,44198.0,42627.0,-0.003538,0.0015249999999999999,-6.1e-05,0.28,-1.3825,-3.8325000000000005,0.88275,-0.0019375,-0.226625,0.915,0.86009375,-0.49115625,-0.86921875,0.791375,0.019975322724912183,0.025838919849462502,True
65452,23008,0,23009,4251.0,44200.0,42630.0,-0.0008539999999999999,0.001098,-6.1e-05,0.31500000000000006,-1.7325000000000002,-3.8850000000000002,0.88271875,0.00434375,-0.22259375,0.92909375,0.8560625000000001,-0.487375,-0.87209375,0.7969375,0.0200805006661596,0.02611360372505833,True
65453,23009,0,23010,4252.0,44201.0,42632.0,0.0025009999999999998,-0.000793,-0.000366,0.24500000000000002,-2.0300000000000002,-3.9025000000000003,0.9131875,0.0051875,-0.22262500000000002,0.92871875,0.86525,-0.48771875000000003,-0.8678750000000001,0.80209375,0.020128712479597556,0.025947130585142482,True
65454,23010,0,23011,4253.0,44200.0,42634.0,0.004514,0.000183,-0.002074,0.3325,-2.345,-3.9375000000000004,0.89678125,0.003125,-0.23696875,0.9096875,0.860625,-0.4880625,-0.8657812500000001,0.7954375,0.020058242664155238,0.02528826638012831,True
65455,23011,0,23012,4256.0,44201.0,42635.0,0.004758,0.001464,-0.001098,0.42000000000000004,-2.2575000000000003,-3.99,0.87365625,0.001,-0.23168750000000002,0.8978125,0.8616875,-0.48912500000000003,-0.865375,0.7938437500000001,0.02001398579981931,0.025484735299588283,True
65456,23012,0,23013,4257.0,44200.0,42638.0,0.005063,0.000183,0.001647,0.47250000000000003,-1.9075000000000002,-3.8675,0.8904062500000001,-0.011375,-0.2184375,0.9021875,0.865125,-0.49,-0.86446875,0.794875,0.01954369130257248,0.025982105489384327,True
65457,23013,0,23014,4257.0,44203.0,42642.0,0.001647,-0.000183,0.0011589999999999999,0.5425000000000001,-1.7500000000000002,-3.7275000000000005,0.91346875,0.005,-0.22115625,0.91346875,0.87071875,-0.48871875000000004,-0.8615625,0.802,0.020161069063688766,0.025758889852558545,True
65458,23014,0,23015,4260.0,44203.0,42645.0,-0.0013419999999999999,0.000183,0.000305,0.56,-1.5050000000000001,-3.7625,0.89075,0.00365625,-0.22359375,0.9055625,0.8638125,-0.48884375,-0.86628125,0.79709375,0.020111198594257845,0.025845742414740844,True
65459,23015,0,23016,4262.0,44205.0,42649.0,-0.003843,-0.000122,0.000488,0.56,-1.2425000000000002,-3.7275000000000005,0.895375,0.00121875,-0.22740625,0.91,0.8645,-0.4890625,-0.86709375,0.794625,0.02002041727812161,0.02572425657903831,True
65460,23016,0,23017,4265.0,44207.0,42649.0,-0.006405,-0.00244,0.0013419999999999999,0.665,-1.0675000000000001,-3.7450000000000006,0.895375,-0.00040625000000000004,-0.22615625,0.9064375,0.8676875000000001,-0.49125,-0.8648125,0.789125,0.020041596488541827,0.025685142407568928,True
65461,23017,0,23018,4266.0,44209.0,42650.0,-0.0051849999999999995,-0.003111,-0.0011589999999999999,0.6475000000000001,-1.2950000000000002,-3.7625,0.89646875,-0.0015625,-0.22053125,0.90540625,0.87190625,-0.48862500000000003,-0.864625,0.80184375,0.019889336375562124,0.025904020269760752,True
65462,23018,0,23019,4268.0,44207.0,42652.0,-0.001403,-0.001586,-0.0025009999999999998,0.6125,-1.6450000000000002,-3.8500000000000005,0.90396875,0.0009375,-0.2244375,0.91325,0.8659687500000001,-0.4883125,-0.86790625,0.79778125,0.019978918514699615,0.025875469512034212,True
65463,23019,0,23020,4270.0,44207.0,42651.0,0.0013419999999999999,0.000305,0.000793,0.47250000000000003,-1.8025000000000002,-3.7800000000000002,0.8996875,0.00090625,-0.224375,0.9125625,0.8638750000000001,-0.48965625,-0.867625,0.7879375000000001,0.02003141632500456,0.025866965582760717,True
65464,23020,0,23021,4270.0,44211.0,42653.0,0.003172,0.000488,0.000183,0.385,-1.8900000000000001,-3.7275000000000005,0.8955000000000001,0.00328125,-0.22709375,0.9048437500000001,0.86375,-0.49196875,-0.86465625,0.7933125,0.02022091425377962,0.02564131567272321,True
65465,23021,0,23022,4269.0,44208.0,42651.0,0.0059169999999999995,0.0028669999999999998,0.000244,0.35000000000000003,-1.9075000000000002,-3.7800000000000002,0.88803125,-0.0025625,-0.223,0.90625,0.87275,-0.49021875000000004,-0.86465625,0.8,0.019912286410263283,0.025805956999707166,True
65466,23022,0,23023,4269.0,44211.0,42649.0,0.0042699999999999995,0.0021349999999999997,0.00061,0.3325,-1.8900000000000001,-3.6575,0.90228125,-0.00228125,-0.22365625,0.91071875,0.8705,-0.48531250000000004,-0.867125,0.8001875,0.01972738759205136,0.025876282441174844,True
65467,23023,0,23024,4269.0,44211.0,42649.0,0.002196,0.0011589999999999999,-0.000915,0.35000000000000003,-1.6450000000000002,-3.6575,0.900375,0.001375,-0.22390625,0.9140625,0.85765625,-0.48940625,-0.86571875,0.78425,0.020040553249428005,0.025811138075387426,True
65468,23024,0,23025,4268.0,44210.0,42651.0,0.000793,-0.0011589999999999999,0.0,0.29750000000000004,-1.3650000000000002,-3.7450000000000006,0.8954062500000001,0.0010625,-0.2254375,0.91221875,0.86459375,-0.491,-0.8661562500000001,0.7948437500000001,0.020091564248091137,0.025766698461890346,True
65469,23025,0,23026,4268.0,44209.0,42648.0,-0.0026839999999999998,-0.0028669999999999998,-0.000122,0.2625,-1.1900000000000002,-3.6575,0.8970625,0.0014375,-0.22503125000000002,0.90840625,0.86471875,-0.49296875,-0.86490625,0.79371875,0.02018564001148289,0.025734060429043443,True
65470,23026,0,23027,4265.0,44209.0,42648.0,-0.0075639999999999995,-0.000793,-0.001647,0.43750000000000006,-0.8400000000000001,-3.8325000000000005,0.8955625,0.00046875,-0.22715625,0.9060625,0.87065625,-0.48965625,-0.8619375,0.79403125,0.020013551639786697,0.025532251860901835,True
65471,23027,0,23028,4266.0,44210.0,42649.0,-0.0064659999999999995,0.000915,0.000976,0.49000000000000005,-1.0675000000000001,-3.7625,0.8954375,0.0005,-0.22009375,0.9101875,0.87065625,-0.4898125,-0.8644375,0.78571875,0.020021080194060285,0.025914270129778722,True
65472,23028,0,23029,4267.0,44206.0,42649.0,-0.002196,0.000793,0.003355,0.49000000000000005,-1.54,-3.8500000000000005,0.89528125,-0.00071875,-0.22296875,0.90590625,0.8654375,-0.4895625,-0.8648125,0.7993125,0.01996131004790306,0.025813335612323643,True
65473,23029,0,23030,4267.0,44210.0,42650.0,0.003355,0.001403,0.0034159999999999998,0.4025,-1.9075000000000002,-4.025,0.90471875,0.0010625,-0.22384375,0.90171875,0.8699687500000001,-0.4884375,-0.8668125,0.79684375,0.01998902543292115,0.0258565005064481,True
65474,23030,0,23031,4267.0,44210.0,42647.0,0.0044529999999999995,0.002257,0.001403,0.4025,-1.9775000000000003,-4.0075,0.8960312500000001,0.0010625,-0.226875,0.90509375,0.86446875,-0.48953125000000003,-0.8648125,0.794625,0.020032794625254417,0.025656236096692868,True
65475,23031,0,23032,4267.0,44210.0,42649.0,0.002196,0.002562,0.0008539999999999999,0.4025,-2.0475000000000003,-3.9025000000000003,0.896375,-0.00290625,-0.22584375,0.90646875,0.86740625,-0.489375,-0.86428125,0.794625,0.019864482045785163,0.025676893435236537,True
65476,23032,0,23033,4267.0,44207.0,42653.0,0.0044529999999999995,6.1e-05,0.0011589999999999999,0.35000000000000003,-2.1700000000000004,-3.9025000000000003,0.89978125,0.0016875,-0.21671875000000002,0.907875,0.86875,-0.4895,-0.8664375,0.79459375,0.020057065272872047,0.026128340659975918,True
65477,23033,0,23034,4268.0,44207.0,42652.0,0.003965,-0.002013,-0.001464,0.15750000000000003,-2.1875,-3.99,0.89609375,0.00296875,-0.22309375,0.90953125,0.8663125,-0.4885625,-0.861125,0.80040625,0.020071870286383697,0.02566381247831705,True
65478,23034,0,23035,4268.0,44209.0,42653.0,0.000732,-0.0032329999999999998,-0.002745,0.22750000000000004,-1.9600000000000002,-3.9550000000000005,0.899875,0.00065625,-0.2228125,0.9071250000000001,0.8647812500000001,-0.491,-0.8651562500000001,0.78778125,0.02007497652198767,0.025833087214161388,True
65479,23035,0,23036,4268.0,44209.0,42655.0,-0.006588,-0.000915,-0.001403,0.385,-1.6800000000000002,-3.9725000000000006,0.892375,-0.0014375,-0.22287500000000002,0.91240625,0.87521875,-0.4880625,-0.8650625000000001,0.7925625000000001,0.01987192739319413,0.02582690069650941,True
65480,23036,0,23037,4271.0,44210.0,42653.0,-0.0037819999999999998,-0.002989,0.0011589999999999999,0.525,-1.6800000000000002,-3.8850000000000002,0.89496875,0.0008125000000000001,-0.2241875,0.9060312500000001,0.8651875,-0.4940625,-0.864375,0.7858125,0.020203875939322033,0.02574717844305357,True
65481,23037,0,23038,4272.0,44211.0,42659.0,0.000122,-0.002257,0.000305,0.4025,-2.0300000000000002,-4.0075,0.88946875,-0.00040625000000000004,-0.22340625,0.9060312500000001,0.8801875,-0.48731250000000004,-0.8685625,0.8092812500000001,0.01988402157239591,0.025942643447927478,True
65482,23038,0,23039,4273.0,44212.0,42659.0,0.004575,0.000305,0.0,0.35000000000000003,-2.31,-4.025,0.903,0.0044687500000000005,-0.22321875,0.90596875,0.8559687500000001,-0.48481250000000004,-0.8685625,0.8024687500000001,0.019983050717664267,0.025950183087582967,True
65483,23039,0,23040,4276.0,44211.0,42659.0,0.0051849999999999995,0.003111,-0.00061,0.28,-2.3975000000000004,-3.8850000000000002,0.9010312500000001,-0.00115625,-0.2236875,0.9021875,0.857875,-0.48690625,-0.8716875000000001,0.8006875,0.019837132344964974,0.02605372072160363,True
65484,23040,0,23041,4277.0,44214.0,42661.0,0.00183,0.000915,0.000732,0.17500000000000002,-1.7500000000000002,-3.7975000000000003,0.90346875,0.001875,-0.218125,0.913625,0.858125,-0.48965625,-0.868125,0.78878125,0.020070973842272695,0.026137877302772124,True
65485,23041,0,23042,4278.0,44214.0,42663.0,0.00122,-0.001098,0.000183,0.22750000000000004,-1.6800000000000002,-3.6750000000000003,0.8963125000000001,0.0051875,-0.2268125,0.91096875,0.865625,-0.49278125,-0.8618125,0.78803125,0.020331245558321394,0.025541178866182828,True
65486,23042,0,23043,4279.0,44215.0,42666.0,-6.1e-05,-6.1e-05,-0.000732,0.22750000000000004,-1.5050000000000001,-3.7625,0.89253125,-0.002625,-0.22553125000000002,0.90671875,0.88290625,-0.49140625,-0.8621875,0.81003125,0.01995725541484577,0.025607410852323428,True
65487,23043,0,23044,4280.0,44216.0,42667.0,-0.003843,0.0017079999999999999,-0.001647,0.42000000000000004,-1.1725,-3.8325000000000005,0.8964375,-0.000125,-0.22378125000000001,0.897625,0.8737812500000001,-0.4864375,-0.86825,0.80403125,0.01986048399241417,0.025915323756195145,True
65488,23044,0,23045,4282.0,44217.0,42668.0,-0.005856,0.0017079999999999999,-0.000244,0.45500000000000007,-1.0150000000000001,-3.9375000000000004,0.90409375,0.0014375,-0.22459375,0.90615625,0.8576875,-0.49384375,-0.86803125,0.788375,0.02022064217666939,0.025874082814657872,True
65489,23045,0,23046,4284.0,44218.0,42669.0,-0.00366,-0.00366,0.0017079999999999999,0.5075000000000001,-1.4000000000000001,-3.9550000000000005,0.89553125,-0.00228125,-0.22403125000000002,0.9106875,0.8826875000000001,-0.48631250000000004,-0.86809375,0.8015625000000001,0.019767421084738668,0.025899150392257146,True
65490,23046,0,23047,4285.0,44218.0,42673.0,-0.0008539999999999999,-0.002013,0.000305,0.31500000000000006,-1.54,-3.9725000000000006,0.9004375,0.0011250000000000001,-0.227125,0.9060625,0.857625,-0.49765625,-0.86590625,0.7817500000000001,0.020360366106451512,0.025689039586079838,True
65491,23047,0,23048,4289.0,44219.0,42674.0,0.001769,0.000488,-0.000183,0.21000000000000002,-1.8900000000000001,-4.025,0.8958125,-0.000875,-0.22362500000000002,0.91090625,0.87409375,-0.48684375,-0.866375,0.79396875,0.019846116345639687,0.02584815840668372,True
65492,23048,0,23049,4287.0,44220.0,42677.0,0.004514,0.000915,-0.0017079999999999999,0.1925,-2.0475000000000003,-4.0075,0.9021250000000001,0.001375,-0.22234375,0.9126562500000001,0.86021875,-0.49009375,-0.8678125,0.7928125,0.02006806323475181,0.025955992309335613,True
65493,23049,0,23050,4291.0,44221.0,42681.0,0.006893,0.000793,-0.002013,0.052500000000000005,-2.1700000000000004,-3.8850000000000002,0.89809375,0.00153125,-0.22415625,0.9110312500000001,0.8643125,-0.49025,-0.86390625,0.79428125,0.020080695378773186,0.02573006805799069,True
65494,23050,0,23051,4291.0,44223.0,42681.0,0.007686,0.00061,-0.000549,0.31500000000000006,-1.7325000000000002,-3.5000000000000004,0.89528125,0.00140625,-0.22584375,0.907625,0.86503125,-0.49221875,-0.86703125,0.7937500000000001,0.020154360249620095,0.02578464206498313,True
65495,23051,0,23052,4292.0,44222.0,42682.0,0.001647,0.001037,0.000305,0.385,-1.1025,-3.5525,0.8963125000000001,-0.0019375,-0.2235625,0.9041250000000001,0.86759375,-0.49234375,-0.8632500000000001,0.7910625,0.020022838769768615,0.025728233436899846,True
65496,23052,0,23053,4294.0,44223.0,42683.0,-0.005856,0.0017079999999999999,0.000122,0.56,-0.5075000000000001,-3.4825000000000004,0.8982187500000001,-0.00103125,-0.22312500000000002,0.90596875,0.87321875,-0.488375,-0.86571875,0.8010625,0.019901024465690354,0.02584255683339135,True
65497,23053,0,23054,4295.0,44224.0,42686.0,-0.011163,0.000366,0.001952,0.5950000000000001,-0.052500000000000005,-3.535,0.90178125,-0.0013125,-0.22325,0.90509375,0.8669687500000001,-0.48862500000000003,-0.86340625,0.7977500000000001,0.019899545197004733,0.025746924760158312,True
65498,23054,0,23055,4297.0,44224.0,42686.0,-0.011224,6.1e-05,0.003294,0.525,-0.17500000000000002,-3.5875000000000004,0.9023125000000001,0.0093125,-0.2244375,0.91178125,0.864125,-0.48871875000000004,-0.8690625000000001,0.79734375,0.02033717055940299,0.025920759980397334,True
65499,23055,0,23056,4298.0,44225.0,42689.0,-0.000976,-0.0026839999999999998,-0.0008539999999999999,0.29750000000000004,-1.0150000000000001,-3.6750000000000003,0.895875,0.00175,-0.22362500000000002,0.9061875,0.8648125,-0.4901875,-0.86528125,0.795125,0.02008712673187986,0.025805308355400167,True
65500,23056,0,23057,4297.0,44226.0,42686.0,0.002196,-0.0011589999999999999,-0.002013,0.21000000000000002,-1.155,-3.8850000000000002,0.89559375,0.00065625,-0.22271875,0.9031250000000001,0.8671562500000001,-0.491875,-0.86403125,0.795,0.020109985454359866,0.025792780484862048,True
65501,23057,0,23058,4294.0,44222.0,42678.0,0.003477,0.0,-0.0013419999999999999,0.2625,-1.2600000000000002,-3.99,0.8969375,-0.0011875,-0.21834375,0.90590625,0.87215625,-0.4885,-0.86409375,0.79909375,0.01989964677297507,0.02597118585912668,True
65502,23058,0,23059,4290.0,44221.0,42671.0,0.0013419999999999999,0.001586,-0.0006709999999999999,0.2625,-1.3125000000000002,-4.0075,0.903375,0.001875,-0.224875,0.91459375,0.865,-0.488375,-0.86809375,0.802875,0.020019703226530957,0.02586522137427602,True
65503,23059,0,23060,4287.0,44217.0,42667.0,0.002623,0.00061,0.002074,0.24500000000000002,-1.2425000000000002,-4.0600000000000005,0.9100625,0.00215625,-0.22246875,0.9028437500000001,0.85575,-0.4880625,-0.8659375,0.8001875,0.020018682572375827,0.025877518191300852,True
65504,23060,0,23061,4281.0,44215.0,42659.0,0.001586,-0.000488,-0.000366,0.21000000000000002,-1.4700000000000002,-4.095000000000001,0.9060625,-0.00071875,-0.22125,0.9031875,0.8733125,-0.48803125,-0.8641562500000001,0.797875,0.019900027692099587,0.025856749110479065,True
65505,23061,0,23062,4277.0,44212.0,42654.0,-6.1e-05,0.00122,-0.000732,0.2625,-1.3825,-4.1475,0.8989375000000001,-0.003125,-0.22246875,0.90790625,0.8651875,-0.4881875,-0.86521875,0.80334375,0.019808019682959387,0.025849360364062754,True
65506,23062,0,23063,4273.0,44210.0,42648.0,-0.000122,0.003111,-6.1e-05,0.36750000000000005,-1.3475000000000001,-4.1475,0.90746875,0.00259375,-0.22362500000000002,0.9199375000000001,0.8649687500000001,-0.48862500000000003,-0.869,0.80134375,0.020059058032045492,0.025950983151714988,True
65507,23063,0,23064,4268.0,44207.0,42643.0,-0.002379,0.001464,-0.00042699999999999997,0.28,-1.2600000000000002,-4.1475,0.9021250000000001,0.0021875,-0.22428125000000002,0.9196875,0.86509375,-0.485375,-0.86809375,0.79703125,0.019912396685776712,0.025889097349892372,True
65508,23064,0,23065,4263.0,44206.0,42640.0,-0.002013,0.000366,-0.001464,0.2625,-1.33,-4.1825,0.89225,0.0005625000000000001,-0.23003125,0.90309375,0.856,-0.49228125,-0.865375,0.79421875,0.02012241101469468,0.025551343987371997,True
65509,23065,0,23066,4261.0,44205.0,42639.0,0.0011589999999999999,-0.0011589999999999999,0.001281,0.22750000000000004,-1.5925000000000002,-4.112500000000001,0.89396875,-0.003875,-0.22190625,0.916125,0.8616875,-0.48896875,-0.86528125,0.79828125,0.01980866384992222,0.02587443083918466,True
65510,23066,0,23067,4260.0,44205.0,42636.0,0.00122,-0.000976,0.000488,0.31500000000000006,-1.6625,-4.235,0.89128125,-0.0044687500000000005,-0.22140625,0.91246875,0.8647812500000001,-0.49,-0.8643125,0.79909375,0.019825694160881993,0.025856586623901223,True
65511,23067,0,23068,4259.0,44206.0,42637.0,0.0,6.1e-05,0.000366,0.35000000000000003,-1.715,-4.322500000000001,0.8838125,-0.0043125,-0.2215,0.90871875,0.8656875,-0.49021875000000004,-0.865,0.7976562500000001,0.019840829310681433,0.025879750653529057,True
65512,23068,0,23069,4258.0,44205.0,42637.0,-0.000976,0.000122,0.0013419999999999999,0.4025,-1.715,-4.2175,0.90353125,0.0015625,-0.2224375,0.9136875,0.8646875,-0.4888125,-0.86459375,0.7977500000000001,0.02002444994015124,0.02582613078084173,True
65513,23069,0,23070,4260.0,44207.0,42635.0,-0.001647,0.000732,0.000549,0.29750000000000004,-1.7500000000000002,-4.2,0.90009375,0.0015625,-0.22571875,0.9046875,0.8649375,-0.48771875000000003,-0.8585625,0.7975,0.019980679090411395,0.0254577773755019,True
65514,23070,0,23071,4261.0,44204.0,42638.0,0.0034159999999999998,-0.000366,-0.002074,0.22750000000000004,-2.1700000000000004,-4.235,0.9010625,0.0013437500000000001,-0.22071875,0.90765625,0.8645625,-0.48562500000000003,-0.867625,0.79409375,0.019887944457207037,0.026013994098752897,True
65515,23071,0,23072,4261.0,44208.0,42640.0,0.004331,0.000122,-0.003172,0.22750000000000004,-2.0825,-4.165,0.89575,-0.0015,-0.22262500000000002,0.9062187500000001,0.870125,-0.48815625,-0.86071875,0.7994687500000001,0.019873127442985833,0.025666745857860603,True
65516,23072,0,23073,4265.0,44208.0,42642.0,0.003111,0.00122,-0.00122,0.3325,-1.8550000000000002,-4.0600000000000005,0.8986875,-0.0011875,-0.2239375,0.90690625,0.86865625,-0.4879375,-0.8631875,0.79671875,0.019877133384549026,0.025710701815686344,True
65517,23073,0,23074,4266.0,44208.0,42645.0,0.000122,-0.000366,6.1e-05,0.3325,-1.6975000000000002,-3.9025000000000003,0.89559375,3.125e-05,-0.22640625,0.9074375,0.88584375,-0.48812500000000003,-0.863125,0.80478125,0.01993440698297644,0.025608959050803147,True
65518,23074,0,23075,4265.0,44210.0,42645.0,-0.00061,-0.0013419999999999999,0.00042699999999999997,0.385,-1.5225000000000002,-3.99,0.88465625,0.00059375,-0.22178125,0.90609375,0.86821875,-0.48703125,-0.8773125,0.7996875,0.019913602225667924,0.026350565399699023,True
65519,23075,0,23076,4267.0,44210.0,42648.0,-0.000915,-0.000976,-0.0017079999999999999,0.36750000000000005,-1.5575,-3.9025000000000003,0.90315625,-0.000375,-0.2228125,0.9068437500000001,0.85209375,-0.483,-0.86921875,0.8139375,0.0197126577625291,0.02599222181034537,True
65520,23076,0,23077,4271.0,44212.0,42653.0,-0.0008539999999999999,-0.002013,-0.001281,0.43750000000000006,-1.4000000000000001,-3.7625,0.8971250000000001,-0.0028125,-0.22275,0.90665625,0.8669375,-0.48459375,-0.8675,0.81375,0.019676914182004755,0.02592741530109581,True
65521,23077,0,23078,4271.0,44214.0,42657.0,-0.001403,-0.00122,-0.0011589999999999999,0.47250000000000003,-1.4175000000000002,-3.6925000000000003,0.90053125,-0.0011250000000000001,-0.22303125000000001,0.91115625,0.84471875,-0.4869375,-0.87428125,0.785375,0.01983965941024679,0.026181661027894022,True
65522,23078,0,23079,4274.0,44213.0,42658.0,-0.000793,-0.000122,0.000732,0.6300000000000001,-1.2775,-3.8500000000000005,0.9006875,0.0013437500000000001,-0.22421875,0.9120625,0.8541875,-0.49865625,-0.864375,0.78425,0.020409282651982188,0.025745921624814618,True
65523,23079,0,23080,4276.0,44216.0,42661.0,0.000183,0.000488,0.00183,0.56,-1.2075,-3.7625,0.899625,-0.00153125,-0.2235,0.9098125,0.85246875,-0.48578125,-0.87740625,0.80028125,0.019776783720143708,0.02628514578363651,True
65524,23080,0,23081,4277.0,44215.0,42660.0,-0.0015249999999999999,0.0025009999999999998,0.0023179999999999997,0.45500000000000007,-1.0325000000000002,-3.6575,0.8903125000000001,0.00096875,-0.2241875,0.9105,0.8533437500000001,-0.49293750000000003,-0.87375,0.79103125,0.020165251717969724,0.026114377606914922,True
65525,23081,0,23082,4277.0,44216.0,42660.0,-0.002806,0.0032329999999999998,0.001769,0.5775,-0.9975,-3.6400000000000006,0.8954375,0.00115625,-0.22378125000000001,0.91196875,0.852,-0.48812500000000003,-0.86975,0.79909375,0.019980347617467652,0.02597407493038732,True
65526,23082,0,23083,4277.0,44217.0,42660.0,-0.001403,0.0008539999999999999,0.0021349999999999997,0.385,-1.2425000000000002,-3.6575,0.9046875,0.0019375,-0.22384375,0.90834375,0.8520625000000001,-0.48781250000000004,-0.8650625000000001,0.8045625000000001,0.019999744770995777,0.025787940408354092,True
65527,23083,0,23084,4276.0,44216.0,42660.0,0.000732,-0.00061,-0.000183,0.3325,-1.6975000000000002,-3.7275000000000005,0.8988125,3.125e-05,-0.22296875,0.90653125,0.8515312500000001,-0.48531250000000004,-0.86640625,0.80425,0.01982183196559162,0.025875773665525154,True
65528,23084,0,23085,4277.0,44214.0,42659.0,0.001586,-0.0011589999999999999,-0.001281,0.42000000000000004,-1.7325000000000002,-3.7975000000000003,0.89746875,-0.00065625,-0.22340625,0.90625,0.85928125,-0.4865,-0.86090625,0.7974687500000001,0.019841290098625772,0.025642669401884734,True
65529,23085,0,23086,4277.0,44214.0,42659.0,0.001281,-0.002196,-0.00061,0.47250000000000003,-1.715,-3.6225000000000005,0.9019375000000001,-0.001375,-0.22362500000000002,0.906375,0.8582500000000001,-0.48690625,-0.86475,0.79478125,0.019828198999210036,0.02578449411315215,True
65530,23086,0,23087,4277.0,44213.0,42659.0,-0.000244,-0.0013419999999999999,-0.002196,0.31500000000000006,-1.6275000000000002,-3.6050000000000004,0.8953125000000001,0.00659375,-0.2233125,0.90640625,0.86621875,-0.49112500000000003,-0.8669375,0.7945,0.020322412710726847,0.025882760995398008,True
65531,23087,0,23088,4277.0,44212.0,42655.0,-6.1e-05,0.000976,-0.002806,0.28,-1.5750000000000002,-3.6400000000000006,0.895875,0.000375,-0.2250625,0.91215625,0.8637812500000001,-0.48934375,-0.86803125,0.7961875,0.01999721817780438,0.02585523331285021,True
65532,23088,0,23089,4277.0,44215.0,42655.0,0.0,0.001769,-6.1e-05,0.36750000000000005,-1.4875,-3.6225000000000005,0.90075,0.0013437500000000001,-0.2243125,0.9110625,0.86446875,-0.48890625,-0.8688125,0.791625,0.020019268929170733,0.025915994179456697,True
65533,23089,0,23090,4277.0,44213.0,42656.0,-0.0018909999999999999,0.000732,0.00244,0.35000000000000003,-1.2775,-3.6050000000000004,0.89578125,3.125e-05,-0.22693750000000001,0.9070625,0.8635625,-0.49009375,-0.8668125,0.79340625,0.020013194110373708,0.025732087697206866,True
65534,23090,0,23091,4277.0,44213.0,42656.0,-0.002745,-0.0008539999999999999,6.1e-05,0.35000000000000003,-1.4875,-3.8675,0.8962187500000001,0.00028125000000000003,-0.22396875,0.9071250000000001,0.8552500000000001,-0.4908125,-0.8670625000000001,0.7944375,0.020052162418049625,0.025861267288808238,True
65535,23091,0,23092,4275.0,44214.0,42655.0,-0.002074,-0.0008539999999999999,-0.001037,0.47250000000000003,-1.5925000000000002,-3.8325000000000005,0.895875,0.00028125000000000003,-0.22540625,0.901625,0.86446875,-0.49253125000000003,-0.867125,0.7948125,0.020120929722198477,0.025805908403162808,True
0,23092,0,23093,4277.0,44215.0,42658.0,-0.00061,-0.0015249999999999999,-0.0013419999999999999,0.56,-1.715,-3.8500000000000005,0.895375,0.0005,-0.22509375,0.9051250000000001,0.86390625,-0.49065625,-0.867625,0.7944375,0.020054842344210354,0.025838062541155418,True
1,23093,0,23094,4277.0,44216.0,42658.0,-0.00061,-0.002562,-0.000549,0.47250000000000003,-1.8025000000000002,-3.9025000000000003,0.8962187500000001,0.0013437500000000001,-0.2278125,0.9178125,0.865125,-0.48946875,-0.86765625,0.7980625,0.020041778162296804,0.0257299579649771,True
2,23094,0,23095,4278.0,44217.0,42660.0,0.0025009999999999998,-0.0013419999999999999,-0.000488,0.385,-1.9425000000000001,-3.8325000000000005,0.8960312500000001,0.00046875,-0.231625,0.914625,0.86421875,-0.4885,-0.8671875,0.79415625,0.019967280560262982,0.02555827835375432,True
3,23095,0,23096,4280.0,44217.0,42660.0,0.0057339999999999995,0.005795,0.0,0.36750000000000005,-1.7325000000000002,-3.7975000000000003,0.8941875,0.00203125,-0.226125,0.9195625000000001,0.85684375,-0.48884375,-0.8670625000000001,0.79528125,0.020044841847627046,0.02577455620260737,True
4,23096,0,23097,4282.0,44216.0,42662.0,0.0037819999999999998,0.006344,0.00122,0.4025,-1.33,-3.7625,0.89359375,0.0022187500000000002,-0.22340625,0.9216562500000001,0.86465625,-0.4805,-0.86609375,0.789125,0.019718500439125018,0.02584593730167208,True
5,23097,0,23098,4283.0,44217.0,42663.0,0.000915,0.002257,0.0048189999999999995,0.42000000000000004,-1.1025,-3.6050000000000004,0.89009375,0.00228125,-0.2303125,0.898875,0.86503125,-0.48862500000000003,-0.8659687500000001,0.7946875,0.02004629700524223,0.02556330124882024,True
6,23098,0,23099,4283.0,44220.0,42668.0,-0.001403,-0.004575,0.0032329999999999998,0.21000000000000002,-1.1025,-3.6225000000000005,0.8953125000000001,-0.00471875,-0.2214375,0.92034375,0.866125,-0.49184375,-0.8648750000000001,0.80171875,0.019889274363021365,0.025877367169551427,True
7,23099,0,23100,4286.0,44219.0,42670.0,-0.00366,-0.0059169999999999995,-0.004941,0.14,-1.1375000000000002,-3.8325000000000005,0.8890625,0.0013125,-0.22790625,0.9006875,0.86525,-0.48865625,-0.86775,0.7938125,0.020007988392584834,0.025729860964502218,True
8,23100,0,23101,4288.0,44222.0,42671.0,-0.0042699999999999995,-0.0032329999999999998,-0.006954,0.22750000000000004,-1.5575,-3.8150000000000004,0.8994062500000001,-0.0038125,-0.22215625,0.9175,0.86653125,-0.48978125,-0.86553125,0.801125,0.01984373584390428,0.025874170695629115,True
9,23101,0,23102,4290.0,44221.0,42674.0,-0.003477,-0.0028669999999999998,-0.002806,0.3325,-1.4875,-3.8325000000000005,0.88478125,-0.00628125,-0.22096875,0.902375,0.864625,-0.49140625,-0.8640625000000001,0.78871875,0.019807968356247405,0.025864387607616415,True
10,23102,0,23103,4292.0,44224.0,42674.0,-0.002196,-0.00042699999999999997,-0.00061,0.24500000000000002,-1.3475000000000001,-3.8675,0.90134375,0.0004375,-0.2295,0.89990625,0.86128125,-0.4890625,-0.861625,0.79428125,0.019988515281056593,0.025425731423428674,True
11,23103,0,23104,4292.0,44223.0,42675.0,-0.002196,0.002928,0.0018909999999999999,0.3325,-1.2425000000000002,-3.8500000000000005,0.9119375000000001,0.00359375,-0.21912500000000001,0.9008125,0.8729375,-0.48875,-0.86503125,0.7945625000000001,0.020104895104895108,0.025976490578510734,True
12,23104,0,23105,4292.0,44225.0,42677.0,0.00244,0.00793,0.004026,0.5425000000000001,-1.3125000000000002,-3.99,0.90575,0.00278125,-0.230625,0.909,0.87221875,-0.48796875,-0.8688750000000001,0.794,0.0200404535390466,0.02566461088408704,True
13,23105,0,23106,4295.0,44225.0,42681.0,0.005063,0.007076,0.006222,0.43750000000000006,-1.4700000000000002,-4.165,0.8901875,-0.0016250000000000001,-0.2225625,0.9028125,0.8648750000000001,-0.4919375,-0.85878125,0.7945625000000001,0.02001934310015286,0.025593320267863096,True
14,23106,0,23107,4296.0,44226.0,42681.0,0.0023179999999999997,0.0015249999999999999,0.00183,0.3325,-1.5925000000000002,-4.165,0.8943125000000001,0.0015,-0.22740625,0.91321875,0.8655625,-0.49084375,-0.86746875,0.7884375,0.020103176314617582,0.025738948601272495,True
15,23107,0,23108,4297.0,44226.0,42683.0,-0.0008539999999999999,-0.002623,0.0006709999999999999,0.29750000000000004,-1.5750000000000002,-4.095000000000001,0.89875,0.0013437500000000001,-0.22409375,0.9106562500000001,0.8648125,-0.4883125,-0.86534375,0.8008125,0.019995508061243502,0.0257889054922074,True
16,23108,0,23109,4299.0,44228.0,42685.0,-0.002623,-0.0032329999999999998,-0.001098,0.36750000000000005,-1.6625,-4.130000000000001,0.9016875,0.00209375,-0.2265625,0.90271875,0.86471875,-0.48259375,-0.86371875,0.7843125,0.019797228388025678,0.025625943424090573,True
17,23109,0,23110,4301.0,44227.0,42686.0,0.0018909999999999999,-0.002562,-0.00366,0.07,-1.715,-3.99,0.89553125,0.00153125,-0.22396875,0.9000312500000001,0.86421875,-0.4879375,-0.86540625,0.80075,0.01998815743465533,0.025796381267649715,True
18,23110,0,23111,4302.0,44229.0,42689.0,0.002989,-0.004392,-0.005246,-0.035,-1.8550000000000002,-3.7800000000000002,0.9021875,-0.0019375,-0.22478125000000002,0.9060312500000001,0.87315625,-0.48762500000000003,-0.8630625000000001,0.7896562500000001,0.01983399778459528,0.025671867655080702,True
19,23111,0,23112,4305.0,44231.0,42693.0,0.004148,-0.0011589999999999999,-0.004026,0.08750000000000001,-1.6625,-3.6050000000000004,0.8960312500000001,0.00165625,-0.22375,0.9064375,0.85778125,-0.488875,-0.8665625,0.801,0.020030779282429266,0.025850476920563508,True
20,23112,0,23113,4306.0,44228.0,42693.0,0.0030499999999999998,0.001647,-0.000366,0.17500000000000002,-1.3125000000000002,-3.3950000000000005,0.89303125,-0.00128125,-0.2265,0.90753125,0.87365625,-0.48825,-0.86425,0.79459375,0.019885812583586005,0.025649275566325146,True
21,23113,0,23114,4307.0,44231.0,42700.0,0.0018909999999999999,0.0026839999999999998,0.00244,0.3325,-1.05,-3.3425000000000002,0.89615625,0.00078125,-0.22746875,0.91121875,0.86475,-0.48962500000000003,-0.86640625,0.794375,0.02002506163324265,0.025694806622891076,True
22,23114,0,23115,4308.0,44234.0,42698.0,-0.0057339999999999995,-0.0006709999999999999,0.0015249999999999999,0.35000000000000003,-0.6125,-3.535,0.893375,0.002375,-0.22390625,0.9026875,0.86446875,-0.48978125,-0.86646875,0.80103125,0.020096392245234938,0.025840520681087862,True
23,23115,0,23116,4309.0,44233.0,42702.0,-0.007686,-0.000305,0.000183,0.5075000000000001,-0.6125,-3.535,0.9045,-0.0010625,-0.22565625,0.9063125,0.867125,-0.487375,-0.858125,0.7945,0.019859723633096647,0.025443139818469816,True
24,23116,0,23117,4312.0,44233.0,42703.0,-0.007137,-0.001647,-0.00042699999999999997,0.5425000000000001,-0.8400000000000001,-3.5875000000000004,0.88690625,0.0009375,-0.22743750000000001,0.91328125,0.86503125,-0.4905625,-0.86646875,0.7956875,0.020068955133227342,0.025698512178171658,True
25,23117,0,23118,4312.0,44233.0,42703.0,-0.001098,-0.000976,0.000488,0.45500000000000007,-1.0325000000000002,-3.7450000000000006,0.90153125,-0.00140625,-0.22303125000000001,0.90590625,0.8641562500000001,-0.48853125000000003,-0.86275,0.80003125,0.019891964733491314,0.02573000774250636,True
26,23118,0,23119,4312.0,44234.0,42700.0,0.002074,-0.0011589999999999999,-0.000915,0.3325,-1.0850000000000002,-3.7275000000000005,0.8974375,-0.00346875,-0.225,0.9085,0.87321875,-0.48796875,-0.8636875,0.79459375,0.01978522616335828,0.025687561428689935,True
27,23119,0,23120,4311.0,44230.0,42692.0,0.000976,0.000549,0.000183,0.4025,-1.0325000000000002,-3.6750000000000003,0.8951250000000001,0.00146875,-0.224125,0.9146562500000001,0.86571875,-0.48862500000000003,-0.86809375,0.80034375,0.020013118335553755,0.025895380501370354,True
28,23120,0,23121,4306.0,44227.0,42686.0,-0.000305,0.0025009999999999998,0.000366,0.5425000000000001,-0.8925000000000001,-3.8150000000000004,0.90278125,0.00096875,-0.21962500000000001,0.9078125,0.8638125,-0.48853125000000003,-0.86609375,0.8019375,0.019988948908481394,0.02599800179712585,True
29,23121,0,23122,4302.0,44227.0,42681.0,0.000976,0.003294,0.0028669999999999998,0.5775,-0.9975,-4.025,0.9021250000000001,0.001,-0.22409375,0.90528125,0.86484375,-0.48759375,-0.864625,0.79925,0.01995270564303608,0.025760744431094374,True
30,23122,0,23123,4297.0,44224.0,42675.0,0.0018909999999999999,0.002074,0.0028669999999999998,0.42000000000000004,-1.435,-3.9025000000000003,0.902875,-0.00246875,-0.22365625,0.90646875,0.87059375,-0.48721875000000003,-0.86484375,0.7939375,0.0197960415573941,0.0257869104848085,True
31,23123,0,23124,4292.0,44221.0,42668.0,0.002989,0.000244,0.001769,0.29750000000000004,-1.5750000000000002,-3.7800000000000002,0.89625,0.00075,-0.225625,0.9096875,0.8670625000000001,-0.48365625,-0.8653125,0.7944375,0.019784882006746846,0.025726099360303636,True
32,23124,0,23125,4288.0,44217.0,42662.0,0.000122,-0.001952,-0.001037,0.2625,-1.5050000000000001,-3.8325000000000005,0.8831875,0.00053125,-0.22609375,0.90859375,0.8651562500000001,-0.4905,-0.86103125,0.79490625,0.020049866274677936,0.02553946751504928,True
33,23125,0,23126,4286.0,44216.0,42661.0,-0.0032329999999999998,-0.0011589999999999999,-0.002928,0.35000000000000003,-1.5225000000000002,-3.8500000000000005,0.8970312500000001,0.0015625,-0.225375,0.90653125,0.8572500000000001,-0.487,-0.8641562500000001,0.79428125,0.019951913260097195,0.025690847643382232,True
34,23126,0,23127,4284.0,44215.0,42657.0,-0.004392,-0.000122,-0.004026,0.36750000000000005,-1.7850000000000001,-3.7800000000000002,0.896375,-0.00025,-0.2234375,0.9060312500000001,0.86975,-0.488,-0.8639375,0.7974375,0.019917918980725254,0.025760199887889846,True
35,23127,0,23128,4281.0,44214.0,42655.0,-0.0015249999999999999,-0.000915,-0.00244,0.385,-1.8200000000000003,-3.8675,0.89996875,0.0028125,-0.2241875,0.9116562500000001,0.86725,-0.48840625,-0.86575,0.784625,0.02005923721557012,0.02580105164734625,True
36,23128,0,23129,4281.0,44214.0,42655.0,0.0,-0.0018909999999999999,0.00122,0.28,-1.6800000000000002,-3.8150000000000004,0.8960625,0.00115625,-0.2240625,0.9065625,0.85403125,-0.4950625,-0.863125,0.7906562500000001,0.02025790911943989,0.025703225157738624,True
37,23129,0,23130,4282.0,44213.0,42653.0,-0.002562,0.001403,0.0017079999999999999,0.42000000000000004,-1.54,-3.9550000000000005,0.8959375,-0.00209375,-0.22375,0.9059375000000001,0.87771875,-0.4800625,-0.8631562500000001,0.80653125,0.019524817389661487,0.025717018530179575,True
38,23130,0,23131,4282.0,44215.0,42655.0,-0.002013,0.002013,0.002013,0.385,-1.5925000000000002,-4.0075,0.907375,0.0011875,-0.21484375,0.9058437500000001,0.8737812500000001,-0.48653125,-0.8629687500000001,0.80615625,0.0199178374846376,0.026067884592422215,True
39,23131,0,23132,4281.0,44214.0,42654.0,0.000122,0.000488,0.000732,0.31500000000000006,-1.9775000000000003,-4.0075,0.928125,0.0029375,-0.2201875,0.932875,0.8719687500000001,-0.48662500000000003,-0.86484375,0.80540625,0.019993057434415727,0.025926414679360296,True
40,23132,0,23133,4283.0,44215.0,42656.0,0.0034159999999999998,-0.002623,-0.001769,0.24500000000000002,-2.3975000000000004,-3.99,0.9019375000000001,0.0039375,-0.23484375000000002,0.91721875,0.86109375,-0.4821875,-0.86840625,0.79925,0.019856273055665473,0.025476602466231627,True
41,23133,0,23134,4284.0,44215.0,42660.0,0.00549,-0.002806,-0.004331,0.22750000000000004,-2.45,-4.0075,0.8823125,-0.003,-0.2308125,0.91559375,0.86121875,-0.49234375,-0.870125,0.786875,0.019979457866297505,0.025706042892828244,True
