frame_seq,absolute_seq_u64,segment_id,sample_seq,PPG_G,PPG_R,PPG_IR,ACC_X,ACC_Y,ACC_Z,GYRO_X,GYRO_Y,GYRO_Z,Uh1,Uh2,Uh3,Uh4,Uc1,Uc2,Uc3,Uc4,UD1,UD2,parser_valid
43784,173052,0,173053,5080.0,43072.0,39848.0,-0.0055509999999999995,0.001586,0.0017079999999999999,0.36750000000000005,-0.43750000000000006,-3.3775000000000004,1.06896875,0.34109375000000003,0.2770625,1.3210625,1.04534375,-0.1325625,-0.19865625,1.28484375,0.01962726710020952,0.0196588911832656,True
43785,173053,0,173054,5082.0,43073.0,39848.0,-0.002928,0.003721,0.001403,0.28,-0.36750000000000005,-3.4475000000000002,1.06878125,0.34118750000000003,0.27768750000000003,1.323,1.05134375,-0.13278125,-0.19803125,1.28125,0.01964003838140289,0.01965939894387069,True
43786,173054,0,173055,5082.0,43074.0,39854.0,0.00061,0.005856,6.1e-05,0.24500000000000002,-0.77,-3.5000000000000004,1.06925,0.3403125,0.279375,1.3205625,1.04890625,-0.12971875,-0.19690625,1.287,0.019479350541539157,0.019683559752602667,True
43787,173055,0,173056,5081.0,43078.0,39856.0,0.0057339999999999995,0.010248,0.003843,0.43750000000000006,-1.715,-3.6750000000000003,1.0703125,0.3374375,0.274375,1.3102500000000001,1.05059375,-0.13290625,-0.19884375,1.281625,0.019489726812327048,0.01955542813899941,True
43788,173056,0,173057,5084.0,43078.0,39857.0,0.013542,0.005429,0.00183,0.43750000000000006,-2.5375,-3.7275000000000005,1.0663125,0.3425625,0.27540625,1.3080625000000001,1.05075,-0.1330625,-0.198,1.276,0.019708439407555504,0.019563858583353997,True
43789,173057,0,173058,5085.0,43078.0,39856.0,0.01098,-0.010309,-0.006405,0.17500000000000002,-2.7125000000000004,-3.7800000000000002,1.0559687500000001,0.34090625,0.277,1.309,1.0425312500000001,-0.13293750000000001,-0.19134375,1.287125,0.01963473157795233,0.019359972510828383,True
43790,173058,0,173059,5086.0,43078.0,39857.0,0.000488,-0.0070149999999999995,-0.003111,0.15750000000000003,-1.7500000000000002,-3.6400000000000006,1.0620625000000001,0.336125,0.275625,1.30878125,1.0471875,-0.13121875,-0.19878125,1.287875,0.01936676944673588,0.019604551365577556,True
43791,173059,0,173060,5086.0,43075.0,39858.0,-0.01281,-0.003355,-0.00061,0.28,-0.42000000000000004,-3.6225000000000005,1.06034375,0.3380625,0.27765625,1.314375,1.04775,-0.13284375,-0.19865625,1.27759375,0.019513085771336,0.019683427669666576,True
43792,173060,0,173061,5087.0,43076.0,39860.0,-0.02135,-0.002196,0.0028669999999999998,0.4025,0.5425000000000001,-3.5525,1.063,0.3404375,0.27434375,1.31428125,1.0506875,-0.13315625,-0.1978125,1.28884375,0.01962419441095692,0.019512352614518357,True
43793,173061,0,173062,5087.0,43077.0,39861.0,-0.019398,6.1e-05,0.0059169999999999995,0.35000000000000003,0.5075000000000001,-3.535,1.0635000000000001,0.34253125,0.27809375000000003,1.30884375,1.05009375,-0.13315625,-0.19896875,1.28771875,0.019710952644248516,0.019714166538605082,True
43794,173062,0,173063,5088.0,43078.0,39862.0,0.003477,0.003172,0.001586,0.28,-1.3650000000000002,-3.6050000000000004,1.07265625,0.3328125,0.28671875,1.30834375,1.04178125,-0.13325,-0.20184375000000002,1.28975,0.019312048729450033,0.020186995050738645,True
43795,173063,0,173064,5090.0,43080.0,39864.0,0.011101999999999999,0.0028669999999999998,-0.001586,0.15750000000000003,-2.3625000000000003,-3.5525,1.06515625,0.33190625,0.2830625,1.3079375,1.04171875,-0.1330625,-0.20184375000000002,1.284875,0.019266877131735766,0.020035921849962363,True
43796,173064,0,173065,5089.0,43079.0,39863.0,0.015372,0.00488,-0.003294,0.31500000000000006,-2.7475,-3.6400000000000006,1.0815937500000001,0.3428125,0.27971875,1.3251875,1.0423437500000001,-0.13465625,-0.20040625,1.27759375,0.019783532239039038,0.019839542982878645,True
43797,173065,0,173066,5091.0,43080.0,39864.0,0.014213,0.003843,-0.0042699999999999995,0.3325,-2.6775,-3.7975000000000003,1.07428125,0.3430625,0.2790625,1.3194375,1.0485625,-0.1355,-0.19803125,1.27215625,0.019828157693024796,0.019716221748411866,True
43798,173066,0,173067,5090.0,43083.0,39862.0,0.007869,0.00122,-0.004148,0.2625,-2.1175,-3.7100000000000004,1.06496875,0.34084375,0.2765,1.31809375,1.04871875,-0.13046875,-0.19759375,1.28803125,0.019531841875222587,0.019592598954183204,True
43799,173067,0,173068,5093.0,43081.0,39865.0,-0.006405,-0.0050019999999999995,-0.00042699999999999997,0.17500000000000002,-0.4025,-3.7275000000000005,1.069,0.3405625,0.27659375,1.3190625,1.04965625,-0.13315625,-0.1978125,1.2895,0.019629374006974325,0.019605336226156806,True
43800,173068,0,173069,5093.0,43087.0,39868.0,-0.011651,-0.004941,0.0008539999999999999,0.17500000000000002,-0.21000000000000002,-3.6925000000000003,1.06090625,0.34118750000000003,0.278625,1.3204375,1.0491875,-0.13343750000000001,-0.19765625,1.28103125,0.019666696880624654,0.019682949665837987,True
43801,173069,0,173070,5096.0,43088.0,39869.0,-0.01098,-0.003294,0.000549,0.1925,-0.14,-3.4475000000000002,1.069625,0.341875,0.27921875,1.32075,1.05109375,-0.134375,-0.19775,1.28121875,0.01973326427554059,0.01971128514014733,True
43802,173070,0,173071,5095.0,43090.0,39872.0,-0.010003999999999999,-0.00061,0.0006709999999999999,0.5075000000000001,-0.4025,-3.5000000000000004,1.0760625,0.34118750000000003,0.27896875,1.319625,1.0446875,-0.1290625,-0.19365625,1.2804375000000001,0.01948894616191574,0.019535079572770238,True
43803,173071,0,173072,5094.0,43094.0,39874.0,-0.003538,0.0035989999999999998,0.001403,0.6475000000000001,-0.9800000000000001,-3.4825000000000004,1.0754062500000001,0.344875,0.27909375000000003,1.32103125,1.0479375,-0.13525,-0.19793750000000002,1.2810625,0.019893102412446528,0.019713715270154742,True
43804,173072,0,173073,5097.0,43095.0,39875.0,0.007076,0.003355,0.002745,0.56,-2.1525000000000003,-3.6225000000000005,1.069,0.34118750000000003,0.27753125,1.31428125,1.03459375,-0.133375,-0.19796875,1.28746875,0.019664158038401176,0.01965040970639323,True
43805,173073,0,173074,5094.0,43093.0,39873.0,0.008173999999999999,0.000793,-6.1e-05,0.525,-2.555,-3.7275000000000005,1.06884375,0.337,0.27759375000000003,1.3138125,1.04221875,-0.13293750000000001,-0.19940625,1.2885625,0.01947286773522701,0.019711227419061162,True
43806,173074,0,173075,5096.0,43092.0,39873.0,0.0053679999999999995,-0.002074,-0.00042699999999999997,0.385,-2.5025000000000004,-3.6225000000000005,1.0695937500000001,0.3389375,0.279375,1.314375,1.0307187500000001,-0.13303125,-0.20078125,1.28609375,0.019556960959887706,0.019840526842496046,True
43807,173075,0,173076,5092.0,43088.0,39870.0,0.002989,-0.0028669999999999998,-0.003904,0.15750000000000003,-1.9075000000000002,-3.8500000000000005,1.06240625,0.33825,0.27996875,1.3136875000000001,1.04265625,-0.13328125,-0.19746875,1.2855,0.01953862987446019,0.019730886107663638,True
43808,173076,0,173077,5090.0,43087.0,39867.0,-6.1e-05,-0.003111,-0.002074,0.12250000000000001,-1.7325000000000002,-3.8150000000000004,1.0697812500000001,0.34240625,0.27978125,1.3137812500000001,1.04265625,-0.13321875,-0.20078125,1.28103125,0.01970831180569314,0.01985731349065436,True
43809,173077,0,173078,5086.0,43084.0,39864.0,-6.1e-05,-0.000549,0.002379,0.385,-1.5225000000000002,-3.7800000000000002,1.0726875,0.337375,0.27940625,1.31590625,1.0422500000000001,-0.13690625,-0.19921875,1.2815,0.01964962887486875,0.019778531073446327,True
43810,173078,0,173079,5082.0,43080.0,39862.0,0.000549,0.000183,-0.00042699999999999997,0.28,-1.5050000000000001,-3.7450000000000006,1.07475,0.341,0.27634375,1.3115,1.032875,-0.1335625,-0.19778125,1.2851875,0.01966400526238097,0.01959373857882115,True
43811,173079,0,173080,5078.0,43077.0,39861.0,-0.001647,0.0011589999999999999,0.000549,0.35000000000000003,-1.435,-3.7800000000000002,1.0644375,0.3395625,0.278375,1.32190625,1.04284375,-0.136625,-0.197625,1.27821875,0.019728835328054358,0.01967135204384728,True
43812,173080,0,173081,5073.0,43074.0,39858.0,-0.0028669999999999998,0.003538,0.00061,0.4025,-1.2425000000000002,-3.6225000000000005,1.0705,0.34040625,0.27753125,1.31140625,1.0479375,-0.13309375,-0.19771875,1.28928125,0.019620360526714484,0.019640281173199436,True
43813,173081,0,173082,5070.0,43071.0,39856.0,-0.004026,0.0026839999999999998,0.001952,0.5775,-1.3650000000000002,-3.6925000000000003,1.06871875,0.33884375,0.27875,1.3141875,1.045625,-0.13318750000000001,-0.20096875,1.2769375,0.019559424133260474,0.019822295336834397,True
43814,173082,0,173083,5066.0,43070.0,39855.0,0.0017079999999999999,0.0006709999999999999,-0.000915,0.45500000000000007,-1.7675,-3.7975000000000003,1.07303125,0.33834375,0.2793125,1.31425,1.0425312500000001,-0.1303125,-0.20084375000000002,1.28115625,0.019421888962275147,0.019840475603252472,True
43815,173083,0,173084,5062.0,43067.0,39850.0,0.003111,-0.001586,-0.001952,0.385,-1.9775000000000003,-3.7625,1.07459375,0.33968750000000003,0.27918750000000003,1.317625,1.0425,-0.13471875,-0.19846875,1.28146875,0.01965658912018604,0.01973911055839019,True
43816,173084,0,173085,5061.0,43069.0,39848.0,0.002806,-0.001952,-0.000122,0.385,-1.9425000000000001,-3.7975000000000003,1.07365625,0.34184375,0.2790625,1.31425,1.04090625,-0.13418750000000002,-0.19759375,1.2835625,0.019724353678780362,0.019698497913661354,True
43817,173085,0,173086,5057.0,43072.0,39846.0,0.00061,-0.002562,-0.001586,0.31500000000000006,-1.8900000000000001,-3.7975000000000003,1.06890625,0.34059375000000003,0.27921875,1.31290625,1.048125,-0.13293750000000001,-0.199,1.28846875,0.019621782470534307,0.019761921980247118,True
43818,173086,0,173087,5057.0,43073.0,39845.0,-0.0018909999999999999,-0.001586,-0.004209,0.4025,-1.995,-3.8500000000000005,1.06221875,0.34159375000000003,0.28003125,1.3140625000000001,1.04228125,-0.1321875,-0.20059375000000002,1.28915625,0.019632751900340573,0.019860049921295836,True
43819,173087,0,173088,5052.0,43079.0,39843.0,-0.0006709999999999999,-6.1e-05,0.001281,0.3325,-2.31,-3.6050000000000004,1.07009375,0.3393125,0.27975,1.3145,1.0423125,-0.12934375,-0.20296875,1.28946875,0.019422668716383967,0.019944609067844208,True
43820,173088,0,173089,5052.0,43080.0,39846.0,0.002562,0.00042699999999999997,0.003111,0.31500000000000006,-2.3800000000000003,-3.5525,1.06915625,0.34168750000000003,0.2773125,1.31865625,1.04090625,-0.13253125,-0.20159375000000002,1.29096875,0.019650601301925176,0.01978821126191328,True
43821,173089,0,173090,5050.0,43080.0,39846.0,0.005429,0.000488,0.00183,0.47250000000000003,-2.2750000000000004,-3.6050000000000004,1.06803125,0.3419375,0.28128125,1.32146875,1.04915625,-0.131625,-0.195875,1.2726250000000001,0.01962414466493657,0.019720561872633244,True
43822,173090,0,173091,5050.0,43081.0,39843.0,0.0034159999999999998,0.0013419999999999999,0.00122,0.4025,-1.9425000000000001,-3.5875000000000004,1.07640625,0.34178125,0.27934375,1.31484375,1.05434375,-0.1360625,-0.19590625,1.277875,0.019797916499429018,0.01964175241421263,True
43823,173091,0,173092,5051.0,43082.0,39842.0,-0.001098,0.002257,0.000488,0.385,-1.54,-3.6225000000000005,1.0998125,0.34303125,0.27915625,1.31075,1.04134375,-0.13621875,-0.1988125,1.27765625,0.019856051395788745,0.01975174401636444,True
43824,173092,0,173093,5048.0,43086.0,39841.0,-0.004514,0.000305,0.000549,0.5075000000000001,-1.4000000000000001,-3.6050000000000004,1.09565625,0.345125,0.28150000000000003,1.33325,1.03875,-0.137875,-0.20075,1.27440625,0.020010046451893547,0.019927068375980087,True
43825,173093,0,173094,5049.0,43087.0,39844.0,-0.0025009999999999998,0.000183,0.001586,0.31500000000000006,-1.3475000000000001,-3.5525,1.0788125,0.34478125,0.27553125,1.3245,1.04740625,-0.1369375,-0.19409375,1.28184375,0.019957741117737078,0.019410729116481167,True
43826,173094,0,173095,5050.0,43088.0,39844.0,-0.0006709999999999999,-0.000244,0.000305,0.29750000000000004,-1.5925000000000002,-3.6400000000000006,1.0558125,0.33225,0.28365625,1.336125,1.0535625,-0.13078125000000002,-0.20146875,1.27775,0.019188406923211408,0.02004527101273554,True
43827,173095,0,173096,5052.0,43089.0,39843.0,0.00042699999999999997,-0.000305,-0.0018909999999999999,0.36750000000000005,-1.9250000000000003,-3.6750000000000003,1.058,0.3374375,0.272875,1.303125,1.0578125,-0.131875,-0.1988125,1.29190625,0.019447825749138847,0.019492175494148733,True
43828,173096,0,173097,5050.0,43092.0,39846.0,0.003538,-0.0011589999999999999,-0.0028669999999999998,0.35000000000000003,-1.9250000000000003,-3.6750000000000003,1.0519687500000001,0.33290625,0.273875,1.3030625,1.03990625,-0.131625,-0.198625,1.29059375,0.019249895106525153,0.01952590281472604,True
43829,173097,0,173098,5050.0,43091.0,39844.0,-0.00042699999999999997,0.00061,-6.1e-05,0.35000000000000003,-1.6800000000000002,-3.535,1.07065625,0.33240625,0.27568750000000003,1.30465625,1.03859375,-0.13303125,-0.2030625,1.2875,0.01928632566619662,0.019780554630224996,True
43830,173098,0,173099,5051.0,43094.0,39846.0,0.0006709999999999999,-0.000183,0.001037,0.43750000000000006,-1.8025000000000002,-3.6575,1.06046875,0.33946875,0.2676875,1.32909375,1.040625,-0.1316875,-0.19728125,1.281,0.019524380547361223,0.019215743504241826,True
43831,173099,0,173100,5052.0,43093.0,39848.0,0.001098,-0.000976,0.0017079999999999999,0.36750000000000005,-1.6800000000000002,-3.535,1.05421875,0.3428125,0.26787500000000003,1.324375,1.04809375,-0.12940625,-0.19834375,1.28621875,0.019570259835962604,0.01926655620800494,True
43832,173100,0,173101,5052.0,43092.0,39849.0,6.1e-05,-0.00042699999999999997,0.0017079999999999999,0.31500000000000006,-1.4700000000000002,-3.6400000000000006,1.04984375,0.34321875,0.2759375,1.32990625,1.0475625,-0.13234375,-0.19821875,1.28153125,0.019706436512201598,0.01959467574446983,True
43833,173101,0,173102,5049.0,43094.0,39848.0,-0.00042699999999999997,0.002196,0.000244,0.3325,-1.2600000000000002,-3.6575,1.07065625,0.34400000000000003,0.28065625,1.3281875,1.0501875,-0.13503125,-0.19559375,1.27925,0.019847964771124958,0.019683335937974243,True
43834,173102,0,173103,5051.0,43094.0,39849.0,-0.002379,-0.000183,0.000549,0.29750000000000004,-1.2075,-3.6400000000000006,1.06965625,0.3439375,0.282375,1.3170625,1.04853125,-0.134625,-0.19759375,1.2813125,0.019828876562200573,0.019835391690547745,True
43835,173103,0,173104,5051.0,43094.0,39852.0,-0.002196,-0.000915,0.0011589999999999999,0.3325,-1.2775,-3.6050000000000004,1.074625,0.341125,0.279,1.31896875,1.049125,-0.1323125,-0.19503125000000002,1.28184375,0.019618405819997565,0.01959209083476592,True
43836,173104,0,173105,5049.0,43095.0,39851.0,0.000305,0.000976,-0.000488,0.28,-1.3650000000000002,-3.5175000000000005,1.0695625,0.340875,0.28275,1.3135937500000001,1.04509375,-0.13246875,-0.19893750000000002,1.2866250000000001,0.01961439398942555,0.019905316090840768,True
43837,173105,0,173106,5049.0,43094.0,39851.0,0.002196,0.000122,-0.0015249999999999999,0.1925,-1.2950000000000002,-3.4825000000000004,1.06815625,0.33859375,0.27953125,1.31390625,1.0425625,-0.13584375,-0.2005625,1.28203125,0.019656967658319386,0.019838123597333737,True
43838,173106,0,173107,5051.0,43096.0,39851.0,0.001586,0.00042699999999999997,-0.001769,0.2625,-1.2775,-3.5175000000000005,1.0734375,0.34009375000000003,0.2804375,1.31590625,1.04209375,-0.13525,-0.19765625,1.28159375,0.01969500005179147,0.01975785361443838,True
43839,173107,0,173108,5049.0,43095.0,39855.0,0.000732,-0.0006709999999999999,0.00061,0.15750000000000003,-1.3125000000000002,-3.5000000000000004,1.074875,0.341,0.2755625,1.316625,1.05009375,-0.1328125,-0.19853125,1.28775,0.019633538361929426,0.019591839897307818,True
43840,173108,0,173109,5048.0,43096.0,39852.0,0.000305,-0.00061,0.00061,0.1925,-0.9800000000000001,-3.4825000000000004,1.068875,0.33903125,0.277125,1.3135625,1.04228125,-0.13359375,-0.199125,1.281625,0.01958369751707617,0.019680463653127957,True
43841,173109,0,173110,5048.0,43095.0,39853.0,-0.002562,0.00042699999999999997,0.0,0.24500000000000002,-0.9100000000000001,-3.5000000000000004,1.0765625,0.34484375,0.27925,1.3195625,1.0423125,-0.135375,-0.19775,1.28109375,0.019896883723580016,0.0197125765825335,True
43842,173110,0,173111,5048.0,43093.0,39855.0,-0.001281,0.0006709999999999999,0.000122,0.24500000000000002,-0.9275000000000001,-3.5000000000000004,1.0748125,0.3415625,0.27909375000000003,1.31384375,1.0426875,-0.13303125,-0.19778125,1.27375,0.01966573303964872,0.019707385362036037,True
43843,173111,0,173112,5045.0,43093.0,39851.0,-0.0021349999999999997,0.000244,-0.001037,0.22750000000000004,-0.9450000000000001,-3.6225000000000005,1.06896875,0.34118750000000003,0.28240625,1.3139375,1.0484375,-0.13393750000000001,-0.1975625,1.2806250000000001,0.019687007145021408,0.019835417307011813,True
43844,173112,0,173113,5046.0,43088.0,39852.0,-0.00122,0.001037,-0.002562,0.24500000000000002,-1.12,-3.535,1.07575,0.33803125,0.2769375,1.31340625,1.04140625,-0.1360625,-0.198375,1.2853125,0.01964254732933344,0.0196423313548947,True
43845,173113,0,173114,5047.0,43091.0,39855.0,-0.002196,0.00061,0.001464,0.14,-1.6625,-3.535,1.0698750000000001,0.34,0.2808125,1.31859375,1.0424375000000001,-0.13334375,-0.19959375000000001,1.28665625,0.01961368283249187,0.01985183119034798,True
43846,173114,0,173115,5046.0,43095.0,39855.0,0.001037,-0.000915,0.002745,0.0,-1.9775000000000003,-3.5175000000000005,1.0715937500000001,0.341125,0.2785625,1.31234375,1.05090625,-0.13321875,-0.19403125000000002,1.2836875,0.019655221084008946,0.019533485144192335,True
43847,173115,0,173116,5045.0,43092.0,39856.0,0.003965,-0.002562,0.000183,0.035,-1.8900000000000001,-3.535,1.06965625,0.34103125,0.27828125,1.3195937500000001,1.0484375,-0.13290625,-0.198125,1.28621875,0.01963864174046588,0.01968773407030503,True
43848,173116,0,173117,5046.0,43097.0,39858.0,-0.0015249999999999999,0.001037,-0.000122,0.45500000000000007,-1.6975000000000002,-3.5875000000000004,1.068875,0.34315625,0.28121875,1.315125,1.048,-0.132,-0.19868750000000002,1.28559375,0.019689882728327533,0.01983191237128047,True
43849,173117,0,173118,5046.0,43099.0,39857.0,-0.00042699999999999997,0.001281,0.0015249999999999999,0.4025,-1.8550000000000002,-3.6750000000000003,1.06890625,0.3410625,0.27903125,1.32,1.0485,-0.13284375,-0.19768750000000002,1.28084375,0.019637397685467548,0.01970100448648244,True
43850,173118,0,173119,5047.0,43100.0,39860.0,0.000122,-0.000549,-0.00061,0.21000000000000002,-2.0300000000000002,-3.6225000000000005,1.0705625,0.3459375,0.27928125,1.31340625,1.04803125,-0.13615625,-0.19715625,1.2815,0.019973923975570882,0.019689813756523556,True
43851,173119,0,173120,5047.0,43101.0,39859.0,0.000732,-0.000915,-0.000732,0.052500000000000005,-2.24,-3.4125000000000005,1.074875,0.34368750000000003,0.27853125,1.31721875,1.0425312500000001,-0.13484375,-0.19696875,1.28134375,0.019827402031554486,0.019651221808516823,True
43852,173120,0,173121,5047.0,43103.0,39861.0,0.0030499999999999998,0.000732,0.000488,0.22750000000000004,-2.3975000000000004,-3.3775000000000004,1.07484375,0.34209375000000003,0.2795,1.320125,1.048125,-0.13271875,-0.198,1.27375,0.019675052153002862,0.019733035788081662,True
43853,173121,0,173122,5048.0,43105.0,39864.0,0.0008539999999999999,-0.000488,0.0034159999999999998,0.12250000000000001,-1.8375000000000001,-3.6925000000000003,1.0771875,0.34168750000000003,0.27765625,1.3185,1.04821875,-0.13340625,-0.1985625,1.2881562500000001,0.019686145630602808,0.019679629730071774,True
43854,173122,0,173123,5048.0,43104.0,39864.0,-0.001098,-0.0006709999999999999,0.0017079999999999999,0.2625,-1.5050000000000001,-3.6575,1.0677812500000001,0.34009375000000003,0.278125,1.313,1.0428125,-0.133125,-0.19943750000000002,1.28178125,0.019608681014166216,0.019734446306861473,True
43855,173123,0,173124,5050.0,43105.0,39863.0,-0.00061,0.0017079999999999999,-0.001464,0.21000000000000002,-1.2950000000000002,-3.6575,1.07603125,0.34490625,0.27828125,1.32015625,1.048875,-0.13184375,-0.19746875,1.29628125,0.019756053658353395,0.019661147408238724,True
43856,173124,0,173125,5051.0,43103.0,39866.0,0.000305,0.00061,-0.002806,0.28,-1.4700000000000002,-3.7100000000000004,1.0696875000000001,0.33946875,0.2795625,1.314375,1.039875,-0.14084375,-0.19893750000000002,1.2710937500000001,0.019896259839716664,0.019773595431617608,True
43857,173125,0,173126,5050.0,43103.0,39868.0,0.000122,-0.000976,-0.001586,0.24500000000000002,-1.4700000000000002,-3.8150000000000004,1.0765,0.34068750000000003,0.2788125,1.31846875,1.05590625,-0.13103125000000002,-0.19540625,1.28665625,0.019548221752851945,0.019599536585586365,True
43858,173126,0,173127,5053.0,43103.0,39868.0,-0.000549,0.000122,0.000183,0.3325,-1.3825,-3.7275000000000005,1.07490625,0.34118750000000003,0.27590625,1.3173125,1.0550625,-0.1315,-0.2005625,1.29046875,0.019587986656444897,0.019688333690590868,True
43859,173127,0,173128,5053.0,43104.0,39870.0,-0.001464,-6.1e-05,0.0,0.5075000000000001,-1.5050000000000001,-3.6400000000000006,1.0693125,0.33975,0.28375,1.3141875,1.03509375,-0.139875,-0.20075,1.27503125,0.01986857844127196,0.02002004070121794,True
43860,173128,0,173129,5053.0,43103.0,39872.0,-0.000915,-0.000122,-0.000183,0.43750000000000006,-1.7325000000000002,-3.5875000000000004,1.06771875,0.33959375,0.27903125,1.30865625,1.0435625,-0.1365625,-0.19515625,1.2833125,0.019727591698279326,0.01959844751984191,True
43861,173129,0,173130,5055.0,43104.0,39873.0,-0.000793,-0.000366,0.000122,0.43750000000000006,-1.6275000000000002,-3.6575,1.06903125,0.34046875,0.27684375,1.31409375,1.052375,-0.13078125000000002,-0.205375,1.2893125,0.019528998879802122,0.01992196981042434,True
43862,173130,0,173131,5056.0,43106.0,39875.0,-0.0028669999999999998,-0.001769,-0.001403,0.29750000000000004,-1.7850000000000001,-3.325,1.0698125,0.34221875,0.27909375000000003,1.3134375,1.03546875,-0.14284375,-0.19975,1.2678125,0.020091357299199687,0.019787136230746183,True
43863,173131,0,173132,5058.0,43105.0,39875.0,0.0025009999999999998,0.0008539999999999999,-6.1e-05,0.2625,-2.45,-3.1500000000000004,1.07725,0.34353125,0.27953125,1.3205,1.05321875,-0.13709375000000001,-0.19378125000000002,1.2795,0.01991229785068884,0.019563395035656114,True
43864,173132,0,173133,5058.0,43104.0,39874.0,0.005246,-0.001769,0.0026839999999999998,0.08750000000000001,-2.205,-3.2550000000000003,1.0768125,0.3408125,0.27790625,1.3190625,1.0522500000000001,-0.1316875,-0.19818750000000002,1.2921562500000001,0.019580064593493512,0.019674769029705223,True
43865,173133,0,173134,5058.0,43107.0,39876.0,0.002074,-0.000122,0.0008539999999999999,0.1925,-1.7500000000000002,-3.3075,1.06965625,0.34115625,0.27721875,1.31390625,1.0361875,-0.132875,-0.19875,1.27915625,0.019642551913106085,0.019669146133581283,True
43866,173134,0,173135,5060.0,43107.0,39875.0,-0.001647,0.0018909999999999999,0.000244,0.36750000000000005,-1.3650000000000002,-3.3425000000000002,1.0689375,0.338,0.27928125,1.31321875,1.035,-0.13815625,-0.19603125,1.2800625,0.01972628916096274,0.019644234010484672,True
43867,173135,0,173136,5060.0,43108.0,39877.0,-0.00549,0.0048189999999999995,-0.000549,0.42000000000000004,-1.2425000000000002,-3.5875000000000004,1.06965625,0.33921875,0.2799375,1.3136875000000001,1.04175,-0.13665625,-0.19534375,1.27484375,0.019715862672568824,0.019643500621891352,True
43868,173136,0,173137,5060.0,43109.0,39881.0,-0.0015249999999999999,-0.00366,0.000915,0.21000000000000002,-1.2425000000000002,-3.8150000000000004,1.06925,0.34,0.277,1.31453125,1.04153125,-0.1325,-0.20028125,1.28603125,0.0195794053662074,0.019722136493764923,True
43869,173137,0,173138,5062.0,43108.0,39884.0,-0.001281,-0.0030499999999999998,0.001586,0.29750000000000004,-1.435,-3.8850000000000002,1.05684375,0.33834375,0.27965625,1.31365625,1.042625,-0.13534375,-0.193,1.28165625,0.019626300122615823,0.019536901169759847,True
43870,173138,0,173139,5064.0,43107.0,39882.0,0.002989,-0.0018909999999999999,-0.000305,0.2625,-1.7325000000000002,-3.8500000000000005,1.0763125,0.34059375000000003,0.27925,1.3186875,1.03575,-0.1361875,-0.19803125,1.2858125,0.019753792930221482,0.019723970312667483,True
43871,173139,0,173140,5065.0,43107.0,39886.0,0.004758,-0.000976,-0.001586,0.4025,-1.6625,-3.9025000000000003,1.0698125,0.33996875,0.27821875,1.31303125,1.04859375,-0.12921875,-0.20009375000000001,1.2858125,0.01944478620966541,0.019764902770263028,True
43872,173140,0,173141,5065.0,43108.0,39885.0,0.002989,-0.000122,-0.001403,0.3325,-1.5050000000000001,-4.0075,1.06946875,0.34103125,0.27715625,1.3201875,1.04196875,-0.13240625,-0.201125,1.2882500000000001,0.019618329606066534,0.01976276929274982,True
43873,173141,0,173142,5067.0,43106.0,39886.0,-0.00042699999999999997,0.0021349999999999997,-0.002806,0.6475000000000001,-1.0150000000000001,-3.9200000000000004,1.07028125,0.341375,0.2795625,1.3139687500000001,1.04853125,-0.13371875,-0.19775,1.28121875,0.019685890720840524,0.019725491006395226,True
43874,173142,0,173143,5068.0,43106.0,39885.0,-0.003904,0.00122,0.0006709999999999999,0.5425000000000001,-0.7525000000000001,-3.8325000000000005,1.0741875,0.33909375,0.27671875,1.3135000000000001,1.04671875,-0.13575,-0.20109375000000002,1.28715625,0.019673875889500016,0.01974342585239562,True
43875,173143,0,173144,5068.0,43107.0,39886.0,-0.003538,0.00122,0.003172,0.6475000000000001,-0.6825000000000001,-3.7975000000000003,1.069625,0.341,0.2785,1.3145625,1.0434375,-0.13334375,-0.19734375,1.28078125,0.019655119278695066,0.019665123367105117,True
43876,173144,0,173145,5070.0,43108.0,39887.0,-0.002257,0.001281,0.00061,0.47250000000000003,-0.7350000000000001,-3.9550000000000005,1.0832187500000001,0.33996875,0.2790625,1.3103125,1.044125,-0.13621875,-0.19846875,1.28153125,0.019729167394954936,0.019733944942280694,True
43877,173145,0,173146,5074.0,43106.0,39886.0,-0.001769,-0.000549,-0.0042699999999999995,0.45500000000000007,-0.9975,-3.9025000000000003,1.067125,0.33753125,0.27646875,1.31896875,1.0424375000000001,-0.13346875,-0.19821875,1.288875,0.019516465075083745,0.019616629839748018,True
43878,173146,0,173147,5075.0,43104.0,39890.0,0.0015249999999999999,-0.0017079999999999999,-0.002623,0.45500000000000007,-1.5225000000000002,-3.6575,1.0649375,0.34171875,0.27715625,1.3259375,1.04721875,-0.13125,-0.198625,1.2826250000000001,0.0195998445998446,0.01966149936205053,True
43879,173147,0,173148,5075.0,43106.0,39889.0,0.0008539999999999999,-0.002928,0.001403,0.36750000000000005,-1.6450000000000002,-3.7100000000000004,1.0794375,0.342375,0.2801875,1.32021875,1.0501875,-0.13515625,-0.197375,1.28171875,0.019785711973586247,0.019736128402357694,True
43880,173148,0,173149,5075.0,43105.0,39889.0,0.001952,-0.001647,0.0044529999999999995,0.36750000000000005,-1.8025000000000002,-3.5875000000000004,1.0791250000000001,0.34078125,0.28053125,1.30075,1.04609375,-0.1338125,-0.19846875,1.2809375,0.019665096428506685,0.019794640931567208,True
43881,173149,0,173150,5077.0,43099.0,39885.0,0.0023179999999999997,-0.000488,0.0025009999999999998,0.28,-1.7675,-3.5875000000000004,1.06603125,0.33725,0.273375,1.317125,1.0350625,-0.13353125,-0.19946875,1.28628125,0.01950735037998221,0.019539426872749014,True
43882,173150,0,173151,5071.0,43097.0,39884.0,0.003538,-0.000305,0.000122,0.17500000000000002,-1.6800000000000002,-3.6925000000000003,1.0553125,0.3390625,0.280125,1.3245,1.0405625,-0.13315625,-0.19768750000000002,1.2875,0.019567218854765426,0.01974620508674641,True
43883,173151,0,173152,5071.0,43093.0,39881.0,-0.0013419999999999999,0.0008539999999999999,0.0008539999999999999,0.1925,-1.12,-3.5525,1.066,0.34178125,0.27359375,1.32221875,1.04659375,-0.13209375,-0.19815625,1.2851875,0.019636713039041628,0.019495286960137716,True
43884,173152,0,173153,5067.0,43091.0,39881.0,-0.001464,0.002074,0.0026839999999999998,0.28,-1.2075,-3.6925000000000003,1.065125,0.33384375,0.2750625,1.31053125,1.0386250000000001,-0.13334375,-0.2004375,1.28459375,0.019358589710553473,0.019648405116643036,True
43885,173153,0,173154,5064.0,43093.0,39878.0,-6.1e-05,0.001769,0.0021349999999999997,0.31500000000000006,-0.9975,-3.8150000000000004,1.072625,0.34315625,0.281375,1.31240625,1.04246875,-0.134875,-0.19875,1.28040625,0.01980665945027683,0.019840900872978975,True
43886,173154,0,173155,5060.0,43093.0,39876.0,-0.000366,-0.000244,0.000122,0.1925,-0.8750000000000001,-3.8850000000000002,1.07896875,0.33871875,0.281125,1.32115625,1.04284375,-0.13359375,-0.19718750000000002,1.28109375,0.019570748761775277,0.0197672766721339,True
43887,173155,0,173156,5056.0,43095.0,39874.0,-0.0035989999999999998,-6.1e-05,-0.002623,0.28,-0.9275000000000001,-3.8325000000000005,1.07315625,0.34175,0.28009375000000003,1.318125,1.0466875,-0.1308125,-0.19796875,1.281,0.019583364629765367,0.019756307024737355,True
43888,173156,0,173157,5050.0,43091.0,39869.0,-0.0011589999999999999,6.1e-05,0.000976,0.43750000000000006,-1.3125000000000002,-3.6925000000000003,1.074375,0.341375,0.27909375000000003,1.3200625,1.04628125,-0.1324375,-0.19759375,1.28140625,0.01963384345240716,0.0196997893643867,True
43889,173157,0,173158,5048.0,43089.0,39869.0,-0.001464,-0.000122,0.001098,0.28,-1.4700000000000002,-3.8850000000000002,1.0780625,0.34096875,0.27665625,1.3194062500000001,1.04875,-0.13315625,-0.19759375,1.29075,0.019646207694030905,0.01959905620780992,True
43890,173158,0,173159,5045.0,43089.0,39866.0,0.0008539999999999999,0.000488,0.001037,0.31500000000000006,-1.6450000000000002,-3.7975000000000003,1.06865625,0.34500000000000003,0.2808125,1.30609375,1.0426875,-0.13325,-0.204875,1.2820625,0.019817057379341783,0.020065689246484438,True
43891,173159,0,173160,5041.0,43087.0,39863.0,0.00244,-0.000793,-0.002013,0.47250000000000003,-1.8025000000000002,-3.7450000000000006,1.06934375,0.34003125,0.2795625,1.31390625,1.04315625,-0.143875,-0.1960625,1.27178125,0.020042609150353868,0.019657123963868088,True
43892,173160,0,173161,5039.0,43086.0,39860.0,0.0034159999999999998,-0.001098,-0.000183,0.49000000000000005,-1.8375000000000001,-3.8150000000000004,1.075875,0.3419375,0.2793125,1.3189375,1.07190625,-0.1293125,-0.196375,1.29134375,0.01953018760895073,0.019659453120560416,True
43893,173161,0,173162,5037.0,43084.0,39859.0,0.000183,-0.000488,-0.0011589999999999999,0.47250000000000003,-1.6975000000000002,-3.8325000000000005,1.07715625,0.34125,0.27875,1.32084375,1.0526875,-0.12828125,-0.19740625,1.29471875,0.019459788500268745,0.019677987180960768,True
43894,173162,0,173163,5035.0,43083.0,39859.0,-0.001464,0.000488,-0.000732,0.36750000000000005,-1.54,-3.8675,1.0711875,0.34268750000000003,0.2790625,1.3194375,1.05475,-0.1265,-0.19565625,1.3035,0.01944697739000684,0.019619998940925604,True
43895,173163,0,173164,5033.0,43086.0,39860.0,-0.000244,0.0015249999999999999,-0.000732,0.525,-1.6450000000000002,-3.7800000000000002,1.07478125,0.34178125,0.280125,1.32121875,1.0566875,-0.128875,-0.19515625,1.2921875,0.019505934279986117,0.019643652848904417,True
43896,173164,0,173165,5034.0,43087.0,39858.0,0.0,0.00042699999999999997,-0.003355,0.5425000000000001,-1.6625,-3.6925000000000003,1.07153125,0.34075,0.27921875,1.31540625,1.0555625,-0.12815625,-0.1921875,1.2822500000000001,0.019433985968157014,0.019485887747852485,True
43897,173165,0,173166,5032.0,43088.0,39858.0,-0.0013419999999999999,0.0008539999999999999,0.000183,0.5075000000000001,-1.6625,-3.5875000000000004,1.0730625,0.33884375,0.27990625,1.31478125,1.0686875,-0.136625,-0.1914375,1.2545,0.019699056931116097,0.01948390830433289,True
43898,173166,0,173167,5032.0,43091.0,39855.0,0.0015249999999999999,-0.000976,0.0026839999999999998,0.4025,-1.6450000000000002,-3.6225000000000005,1.07003125,0.33696875,0.27790625,1.31375,1.0406875,-0.14525,-0.20003125,1.26059375,0.01997157826073451,0.019749457968158617,True
43899,173167,0,173168,5033.0,43091.0,39854.0,0.0011589999999999999,-0.002013,0.0015249999999999999,0.31500000000000006,-1.3475000000000001,-3.6575,1.07415625,0.34215625,0.28465625,1.3093125,1.06146875,-0.13603125,-0.19378125000000002,1.29240625,0.019812184325043083,0.01977522633011324,True
43900,173168,0,173169,5032.0,43089.0,39855.0,-0.001647,0.0006709999999999999,-0.002257,0.4025,-1.3475000000000001,-3.7100000000000004,1.06971875,0.34096875,0.276625,1.3136875000000001,1.05428125,-0.13,-0.20271875,1.28603125,0.019517975549108994,0.019805367940326953,True
43901,173169,0,173170,5033.0,43090.0,39854.0,-0.0008539999999999999,0.00183,-0.002379,0.42000000000000004,-1.3825,-3.5525,1.069625,0.33821875,0.27928125,1.3141562500000001,1.03184375,-0.13884375000000002,-0.19618750000000001,1.274125,0.019763270558474866,0.019650564784224788,True
43902,173170,0,173171,5034.0,43090.0,39855.0,-0.00061,0.000183,0.000122,0.3325,-1.1375000000000002,-3.6225000000000005,1.0761875,0.34153125,0.27928125,1.31975,1.04584375,-0.13540625,-0.19534375,1.282125,0.019760906241219785,0.01961637763464303,True
43903,173171,0,173172,5033.0,43087.0,39858.0,-0.001403,0.0008539999999999999,-0.0021349999999999997,0.35000000000000003,-1.3125000000000002,-3.6400000000000006,1.07603125,0.342,0.27909375000000003,1.320125,1.04703125,-0.137,-0.197125,1.28153125,0.019845051166259273,0.019680798855235902,True
43904,173172,0,173173,5034.0,43091.0,39858.0,0.0023179999999999997,-0.0008539999999999999,-0.002074,0.385,-1.3825,-3.5875000000000004,1.062,0.34153125,0.27921875,1.3198750000000001,1.0506875,-0.13468750000000002,-0.19746875,1.27978125,0.019731713949061907,0.019699891130141457,True
43905,173173,0,173174,5034.0,43090.0,39857.0,0.0025009999999999998,-0.000732,0.001586,0.31500000000000006,-1.2075,-3.6225000000000005,1.0734062500000001,0.34090625,0.277875,1.3175000000000001,1.05003125,-0.13425,-0.1940625,1.286,0.019688047070035325,0.01950633549037083,True
43906,173174,0,173175,5037.0,43093.0,39859.0,-6.1e-05,-0.00244,0.001403,0.385,-1.12,-3.6400000000000006,1.06975,0.33918750000000003,0.27968750000000003,1.31909375,1.0423125,-0.13309375,-0.2008125,1.28134375,0.019569859334756863,0.019854705291402923,True
43907,173175,0,173176,5036.0,43095.0,39855.0,-0.001586,0.001952,0.000488,0.56,-1.0850000000000002,-3.6575,1.0696875000000001,0.3415,0.27668750000000003,1.3139687500000001,1.05028125,-0.13290625,-0.197375,1.2900625000000001,0.01965806542674486,0.019591484613516962,True
43908,173176,0,173177,5038.0,43099.0,39855.0,0.001037,0.001586,0.000122,0.5775,-1.12,-3.6575,1.05628125,0.33975,0.2800625,1.317625,1.04246875,-0.1330625,-0.19853125,1.28190625,0.019591898044435924,0.019777801596946098,True
43909,173177,0,173178,5038.0,43100.0,39856.0,-0.00061,-0.001037,0.000549,0.47250000000000003,-1.2950000000000002,-3.7275000000000005,1.073375,0.34121875,0.27868750000000003,1.3138750000000001,1.04853125,-0.132375,-0.19543750000000001,1.28778125,0.01962482971526839,0.019595636574044176,True
43910,173178,0,173179,5040.0,43104.0,39857.0,-0.001769,6.1e-05,-0.000732,0.45500000000000007,-1.4175000000000002,-3.7625,1.06946875,0.34409375000000003,0.27690625,1.31734375,1.044625,-0.1326875,-0.19859375,1.28890625,0.01975665785254958,0.019649902176650247,True
43911,173179,0,173180,5039.0,43109.0,39857.0,0.000488,0.000122,-0.000244,0.43750000000000006,-1.2600000000000002,-3.6225000000000005,1.07021875,0.34496875,0.27975,1.32746875,1.05075,-0.13059375,-0.19834375,1.281625,0.019707865663272376,0.01975729227336065,True
43912,173180,0,173181,5038.0,43111.0,39860.0,0.001647,-0.000366,0.001647,0.36750000000000005,-1.1375000000000002,-3.6575,1.087,0.33668750000000003,0.28153125,1.308,1.04109375,-0.13665625,-0.2008125,1.2866250000000001,0.019610991062608354,0.019930890750052298,True
43913,173181,0,173182,5038.0,43112.0,39858.0,-0.001952,-6.1e-05,-0.0011589999999999999,0.28,-1.3125000000000002,-3.5875000000000004,1.056125,0.33634375,0.2748125,1.3223125,1.04203125,-0.13309375,-0.1983125,1.2821875,0.01945202322018908,0.01955198322197054,True
43914,173182,0,173183,5038.0,43112.0,39861.0,-0.000549,0.0017079999999999999,0.00122,0.4025,-1.2950000000000002,-3.4650000000000003,1.06340625,0.34159375000000003,0.27146875,1.31834375,1.0494375,-0.1325625,-0.197625,1.28334375,0.019647985994027783,0.019385941802139674,True
43915,173183,0,173184,5037.0,43114.0,39858.0,-0.000122,-0.000305,0.002196,0.42000000000000004,-1.2950000000000002,-3.4825000000000004,1.06325,0.34265625,0.2774375,1.32884375,1.04903125,-0.13315625,-0.1975,1.2789062500000001,0.01971613224026592,0.019627544167785928,True
43916,173184,0,173185,5038.0,43113.0,39861.0,-0.000732,-0.001647,-0.00061,0.45500000000000007,-1.2775,-3.6050000000000004,1.07828125,0.34228125,0.2861875,1.3077812500000001,1.0505625,-0.1364375,-0.19965625,1.2745625,0.019833861148730005,0.020076473193704973,True
43917,173185,0,173186,5037.0,43113.0,39861.0,0.000183,0.000976,-0.000366,0.5075000000000001,-1.5575,-3.6050000000000004,1.06375,0.33828125000000003,0.2721875,1.3263125,1.03528125,-0.13303125,-0.19768750000000002,1.28115625,0.019529767939947457,0.01941817787340216,True
43918,173186,0,173187,5036.0,43113.0,39860.0,-0.0011589999999999999,0.000244,-0.000244,0.42000000000000004,-1.435,-3.5525,1.077875,0.33818750000000003,0.2828125,1.313375,1.048875,-0.1365,-0.199,1.28746875,0.019666790959749755,0.019910430183065417,True
43919,173187,0,173188,5035.0,43110.0,39860.0,0.00061,-6.1e-05,-0.00042699999999999997,0.4025,-1.3650000000000002,-3.5175000000000005,1.0618750000000001,0.34165625,0.27784375,1.3261875,1.05059375,-0.13334375,-0.19690625,1.2815,0.019682311946515905,0.01962027686907288,True
43920,173188,0,173189,5034.0,43107.0,39860.0,-0.0026839999999999998,0.000732,-0.001769,0.49000000000000005,-1.61,-3.5700000000000003,1.0836875,0.33721875,0.28250000000000003,1.3081875,1.0421562500000001,-0.135375,-0.2004375,1.28640625,0.01958095741209739,0.019955734271332907,True
43921,173189,0,173190,5036.0,43107.0,39861.0,-0.000732,0.000793,-0.001281,0.56,-1.7500000000000002,-3.4825000000000004,1.06846875,0.3339375,0.2783125,1.31575,1.0433125,-0.13371875,-0.19896875,1.28846875,0.01937771194089183,0.01972320618001542,True
43922,173190,0,173191,5036.0,43105.0,39864.0,0.00122,-0.001464,0.00244,0.4025,-1.8375000000000001,-3.6750000000000003,1.07015625,0.34128125,0.27968750000000003,1.31309375,1.050375,-0.13621875,-0.19828125,1.28165625,0.01978354625245514,0.01975217764691449,True
43923,173191,0,173192,5036.0,43102.0,39865.0,0.001586,-0.001037,0.001281,0.4025,-1.8200000000000003,-3.6925000000000003,1.0671875,0.3400625,0.27765625,1.31615625,1.04284375,-0.132625,-0.20153125,1.2879375,0.019587073515624595,0.019799883530096884,True
43924,173192,0,173193,5038.0,43100.0,39867.0,0.0013419999999999999,0.00061,-0.002928,0.385,-1.7675,-3.6925000000000003,1.0561562500000001,0.34071875,0.278125,1.31921875,1.0479687500000001,-0.13275,-0.19884375,1.28103125,0.019619345080854854,0.019710394220798257,True
43925,173193,0,173194,5037.0,43099.0,39865.0,0.00042699999999999997,0.000549,-0.002928,0.42000000000000004,-1.6625,-3.7100000000000004,1.0769375,0.337125,0.28,1.3143125,1.04459375,-0.13103125000000002,-0.20040625,1.2866250000000001,0.01940059026694104,0.01985116468860931,True
43926,173194,0,173195,5037.0,43097.0,39866.0,0.0,0.000549,-0.001403,0.43750000000000006,-1.3825,-3.6575,1.068625,0.34103125,0.27628125,1.32090625,1.0429375,-0.12765625,-0.19821875,1.28571875,0.019425322341452042,0.019608881335532187,True
43927,173195,0,173196,5036.0,43100.0,39868.0,-0.001647,-0.000122,0.001281,0.35000000000000003,-1.4175000000000002,-3.8325000000000005,1.07025,0.34015625,0.279625,1.3105625,1.0483125,-0.135625,-0.19765625,1.2824375000000001,0.019712820778413652,0.01972427598230717,True
43928,173196,0,173197,5039.0,43101.0,39873.0,0.00122,0.000915,-6.1e-05,0.385,-1.8200000000000003,-3.7975000000000003,1.0718750000000001,0.33740625,0.279875,1.3141562500000001,1.04321875,-0.13403125,-0.19575,1.286,0.019534138127048295,0.019657377845282743,True
43929,173197,0,173198,5039.0,43101.0,39870.0,0.001281,-0.000915,0.000976,0.29750000000000004,-1.6450000000000002,-3.7450000000000006,1.06040625,0.34121875,0.27640625,1.3176875000000001,1.04265625,-0.13275,-0.19834375,1.28778125,0.019640063813697154,0.01961911132864207,True
43930,173198,0,173199,5040.0,43100.0,39873.0,-0.002989,0.000244,0.001098,0.36750000000000005,-1.4000000000000001,-3.7450000000000006,1.06046875,0.33978125000000003,0.27665625,1.30740625,1.04453125,-0.132875,-0.1988125,1.2868125000000001,0.019585575692908534,0.019648433161751223,True
43931,173199,0,173200,5041.0,43097.0,39870.0,-0.0015249999999999999,0.0023179999999999997,-0.000976,0.35000000000000003,-1.6275000000000002,-3.7800000000000002,1.05625,0.3405625,0.27571875,1.31384375,1.04196875,-0.132875,-0.1983125,1.2883437500000001,0.019617948545293504,0.01958943418058594,True
43932,173200,0,173201,5043.0,43099.0,39871.0,0.002074,-0.0011589999999999999,-0.001464,0.29750000000000004,-1.8725000000000003,-3.6575,1.0690625,0.3410625,0.27725,1.3099375,1.04546875,-0.1326875,-0.19859375,1.28703125,0.019631050209389236,0.01966410754757185,True
43933,173201,0,173202,5045.0,43098.0,39872.0,0.001098,-0.0011589999999999999,0.000976,0.35000000000000003,-1.6275000000000002,-3.6925000000000003,1.06896875,0.33853125,0.27628125,1.31453125,1.04496875,-0.133125,-0.20221875,1.2809062500000001,0.019543935980110325,0.01977091459848077,True
43934,173202,0,173203,5046.0,43096.0,39871.0,0.001403,-0.000305,0.002379,0.43750000000000006,-1.54,-3.5525,1.0691875,0.3463125,0.2765625,1.31428125,1.043,-0.129125,-0.20103125,1.28859375,0.01970388482798278,0.019734437969456363,True
43935,173203,0,173204,5045.0,43094.0,39872.0,0.001952,0.000366,0.00042699999999999997,0.3325,-1.6450000000000002,-3.6225000000000005,1.06925,0.3398125,0.2798125,1.31421875,1.04228125,-0.1338125,-0.19818750000000002,1.28134375,0.01962495565091508,0.019753545590966266,True
43936,173204,0,173205,5046.0,43096.0,39871.0,0.001952,0.000793,-0.000732,0.3325,-1.5750000000000002,-3.6400000000000006,1.07528125,0.3435,0.2820625,1.32046875,1.04496875,-0.13553125,-0.197875,1.28140625,0.019847553593832744,0.019833869709633595,True
43937,173205,0,173206,5048.0,43094.0,39873.0,-0.003355,0.0,0.00061,0.36750000000000005,-1.61,-3.5700000000000003,1.07153125,0.3410625,0.27603125,1.30584375,1.03515625,-0.13303125,-0.19921875,1.28496875,0.019645014548265668,0.01963906376109766,True
43938,173206,0,173207,5049.0,43094.0,39872.0,-0.0006709999999999999,0.000549,0.0011589999999999999,0.28,-1.8375000000000001,-3.6400000000000006,1.0660625,0.3415,0.278625,1.3190625,1.0464375000000001,-0.13290625,-0.19809375,1.279875,0.01965806542674486,0.019700673735921864,True
43939,173207,0,173208,5051.0,43092.0,39877.0,0.00244,0.001403,0.001098,0.42000000000000004,-1.8025000000000002,-3.5000000000000004,1.07275,0.34090625,0.27928125,1.31865625,1.049125,-0.1310625,-0.19825,1.28128125,0.019558556528540758,0.01973412333536516,True
43940,173208,0,173209,5051.0,43091.0,39876.0,0.00122,0.001403,-0.002013,0.5075000000000001,-1.8200000000000003,-3.5525,1.0728125,0.34118750000000003,0.27868750000000003,1.31746875,1.04621875,-0.134,-0.19784375,1.28178125,0.01968954586889865,0.019693128649117757,True
43941,173209,0,173210,5053.0,43089.0,39874.0,0.000122,0.001769,-0.003355,0.4025,-1.6625,-3.5175000000000005,1.07296875,0.34128125,0.27890625,1.317625,1.04003125,-0.13478125,-0.19768750000000002,1.28190625,0.01972516324340002,0.019695838703595127,True
43942,173210,0,173211,5053.0,43088.0,39877.0,0.000305,-0.002928,0.00122,0.31500000000000006,-1.33,-3.4825000000000004,1.072,0.3415625,0.2795,1.31478125,1.0498750000000001,-0.13659375,-0.19746875,1.28203125,0.01981042789022374,0.019711514246712275,True
43943,173211,0,173212,5056.0,43086.0,39878.0,-0.000305,-0.002196,0.0013419999999999999,0.24500000000000002,-1.2600000000000002,-3.5700000000000003,1.07284375,0.3410625,0.2869375,1.31603125,1.04565625,-0.136,-0.1968125,1.27965625,0.019765599105071262,0.01999230270516003,True
43944,173212,0,173213,5056.0,43088.0,39878.0,0.000183,-0.000366,0.001037,0.385,-1.1025,-3.6050000000000004,1.073625,0.34059375000000003,0.279375,1.3158750000000001,1.055625,-0.13625,-0.19421875,1.26940625,0.019756331244497386,0.019574665951964245,True
43945,173213,0,173214,5057.0,43088.0,39881.0,-0.0021349999999999997,0.0006709999999999999,0.001037,0.43750000000000006,-1.155,-3.5700000000000003,1.07590625,0.3413125,0.2793125,1.32625,1.05065625,-0.1385,-0.19568750000000001,1.2795625,0.019877477888021213,0.0196315975729146,True
43946,173214,0,173215,5059.0,43088.0,39880.0,-0.0035989999999999998,0.0023179999999999997,0.0008539999999999999,0.3325,-1.3650000000000002,-3.5175000000000005,1.07028125,0.34184375,0.2804375,1.31034375,1.05553125,-0.132625,-0.1965,1.29203125,0.0196608843836922,0.019711011923212035,True
43947,173215,0,173216,5060.0,43088.0,39882.0,0.0013419999999999999,-0.000122,-0.000732,0.29750000000000004,-1.4175000000000002,-3.6400000000000006,1.06621875,0.3290625,0.28353125,1.31134375,1.0409375,-0.13240625,-0.20409375,1.2827187500000001,0.019122367874111187,0.020146385360947466,True
43948,173216,0,173217,5062.0,43087.0,39881.0,0.000305,0.0,-0.000793,0.29750000000000004,-1.3825,-3.6400000000000006,1.0911875,0.33740625,0.28384375,1.3118125,1.0379375,-0.12628125,-0.201625,1.27784375,0.019219186545792258,0.020059345188597873,True
43949,173217,0,173218,5061.0,43089.0,39882.0,-0.000549,0.0006709999999999999,-0.0017079999999999999,0.45500000000000007,-1.2775,-3.7450000000000006,1.09078125,0.33578125000000003,0.284375,1.3080625000000001,1.03759375,-0.139,-0.2048125,1.278875,0.019668637888893493,0.020210340402347673,True
43950,173218,0,173219,5064.0,43091.0,39884.0,-0.0011589999999999999,0.000366,-0.003294,0.43750000000000006,-1.4875,-3.6750000000000003,1.086875,0.34171875,0.2833125,1.32334375,1.038375,-0.13753125,-0.20228125,1.2774375,0.019854971705111725,0.02006396607757792,True
43951,173219,0,173220,5063.0,43089.0,39882.0,-0.0015249999999999999,0.00061,-0.000915,0.385,-1.54,-3.6575,1.09009375,0.34346875,0.28400000000000003,1.317375,1.04153125,-0.13759375000000001,-0.19978125,1.27825,0.01993001062916638,0.01999114144885091,True
43952,173220,0,173221,5065.0,43091.0,39885.0,0.000793,-0.0025009999999999998,-6.1e-05,0.31500000000000006,-1.5925000000000002,-3.7450000000000006,1.0829375,0.34596875,0.28359375000000003,1.336875,1.04121875,-0.13803125,-0.19903125,1.27821875,0.020051345322539507,0.0199439801954882,True
43953,173221,0,173222,5066.0,43092.0,39886.0,0.0025009999999999998,-0.000122,0.00061,0.31500000000000006,-1.5225000000000002,-3.5875000000000004,1.0770625,0.34465625,0.28550000000000003,1.336625,1.05290625,-0.1345625,-0.19596875,1.2778125,0.01985611920663571,0.019898717632456854,True
43954,173222,0,173223,5068.0,43095.0,39886.0,0.002074,-0.00042699999999999997,0.0034159999999999998,0.3325,-1.5925000000000002,-3.5875000000000004,1.08871875,0.34421875,0.27615625,1.3309375,1.0406875,-0.13343750000000001,-0.19709375,1.2807187500000001,0.019792300620249396,0.0195581339184587,True
43955,173223,0,173224,5067.0,43094.0,39881.0,0.002806,-0.000366,0.0032329999999999998,0.24500000000000002,-1.6625,-3.5875000000000004,1.05453125,0.329,0.27621875,1.30321875,1.04846875,-0.132125,-0.19959375000000001,1.289875,0.01910834623971159,0.019662003623511243,True
43956,173224,0,173225,5067.0,43092.0,39881.0,0.0018909999999999999,-0.0017079999999999999,0.000366,0.17500000000000002,-1.435,-3.5700000000000003,1.0610625,0.33584375,0.2726875,1.31584375,1.04165625,-0.1328125,-0.1983125,1.28725,0.019419876982842345,0.01946416718107926,True
43957,173225,0,173226,5063.0,43091.0,39877.0,-0.000305,0.001281,0.000122,0.3325,-1.4000000000000001,-3.5700000000000003,1.05703125,0.33587500000000003,0.2783125,1.3076875000000001,1.0454375,-0.13318750000000001,-0.2005625,1.2866875,0.019436408887139343,0.01978776319765295,True
43958,173226,0,173227,5060.0,43092.0,39875.0,-0.001037,0.000793,0.002257,0.21000000000000002,-1.4000000000000001,-3.6400000000000006,1.06859375,0.337875,0.2785625,1.3140625000000001,1.0421562500000001,-0.13318750000000001,-0.20128125,1.281125,0.01951928231610516,0.019827204396461448,True
43959,173227,0,173228,5056.0,43093.0,39872.0,0.00042699999999999997,-0.000122,-0.000183,0.15750000000000003,-1.3650000000000002,-3.7275000000000005,1.0764375,0.3413125,0.279,1.3191875,1.04265625,-0.13634375,-0.1978125,1.2824375000000001,0.019789917435195627,0.019704777033047925,True
43960,173228,0,173229,5054.0,43089.0,39868.0,0.0015249999999999999,0.00183,-0.000366,0.10500000000000001,-1.3650000000000002,-3.8150000000000004,1.063375,0.3414375,0.27628125,1.30821875,1.0482500000000001,-0.13221875,-0.20128125,1.28846875,0.019627546679685224,0.019732942858138966,True
43961,173229,0,173230,5048.0,43090.0,39866.0,0.0006709999999999999,0.0006709999999999999,0.000366,0.21000000000000002,-1.225,-3.8150000000000004,1.068375,0.33878125000000003,0.27759375000000003,1.3138750000000001,1.03725,-0.1325625,-0.200625,1.27059375,0.019531442216300075,0.01976059502595491,True
43962,173230,0,173231,5044.0,43087.0,39863.0,-0.002562,-0.001037,-0.001403,0.22750000000000004,-0.8225000000000001,-3.8150000000000004,1.06915625,0.33828125000000003,0.27871875,1.30915625,1.0419375,-0.13378125,-0.20090625,1.2746250000000001,0.019560237789094905,0.01981847270698799,True
43963,173231,0,173232,5044.0,43086.0,39863.0,-0.001281,-0.000305,-0.000488,0.31500000000000006,-1.05,-3.7625,1.069375,0.34421875,0.27815625,1.313625,1.04246875,-0.13340625,-0.1985625,1.28203125,0.019791031363423885,0.019700292114459277,True
43964,173232,0,173233,5040.0,43085.0,39862.0,-0.000305,0.000305,0.000915,0.2625,-1.4000000000000001,-3.8150000000000004,1.069,0.34121875,0.27990625,1.3138125,1.0422500000000001,-0.13696875,-0.1983125,1.28109375,0.01981141480327765,0.019762483437636407,True
43965,173233,0,173234,5037.0,43082.0,39861.0,0.001037,-0.001403,-0.001281,0.28,-1.2425000000000002,-3.7800000000000002,1.0693125,0.33825,0.27634375,1.31946875,1.04284375,-0.13368750000000001,-0.20140625,1.28790625,0.019555134291019554,0.019740588421385638,True
43966,173234,0,173235,5033.0,43080.0,39860.0,-0.002196,0.0,-0.001098,0.29750000000000004,-1.2950000000000002,-3.6400000000000006,1.0694062500000001,0.34109375000000003,0.2785625,1.3111875,1.0486875,-0.13321875,-0.19828125,1.28159375,0.019653926188358112,0.01970568674169782,True
43967,173235,0,173236,5032.0,43076.0,39860.0,-0.000366,0.00061,0.000549,0.17500000000000002,-1.6450000000000002,-3.6400000000000006,1.071625,0.3385,0.2770625,1.31653125,1.04440625,-0.13518750000000002,-0.20003125,1.28665625,0.019626427182303847,0.019714592310702078,True
43968,173236,0,173237,5032.0,43074.0,39860.0,0.003294,-0.002013,0.0026839999999999998,0.12250000000000001,-1.8900000000000001,-3.7100000000000004,1.0693125,0.3409375,0.27868750000000003,1.31946875,1.04275,-0.1325625,-0.19465625,1.2766875,0.019620792445891315,0.01956397913278888,True
43969,173237,0,173238,5030.0,43074.0,39858.0,0.004758,-0.000488,0.002074,0.24500000000000002,-2.1,-3.6400000000000006,1.07434375,0.34168750000000003,0.27884375,1.3135937500000001,1.0495,-0.132375,-0.19734375,1.28178125,0.019644253829140316,0.01967932947185577,True
43970,173238,0,173239,5030.0,43071.0,39859.0,0.00366,0.001098,0.00042699999999999997,0.28,-1.9250000000000003,-3.535,1.07553125,0.34118750000000003,0.2795625,1.31425,1.04803125,-0.13393750000000001,-0.19815625,1.28128125,0.019687007145021408,0.01974194831476055,True
43971,173239,0,173240,5028.0,43073.0,39859.0,-0.002623,0.0015249999999999999,-0.000488,0.22750000000000004,-1.61,-3.6050000000000004,1.063125,0.33934375,0.2790625,1.31975,1.0425312500000001,-0.13296875,-0.2001875,1.28828125,0.019571255608574888,0.019803565571547742,True
43972,173240,0,173241,5031.0,43072.0,39863.0,-0.002013,0.00061,0.00061,0.29750000000000004,-1.33,-3.6925000000000003,1.068625,0.341125,0.27875,1.3129375,1.0439375,-0.13309375,-0.19765625,1.2815625,0.0196501432809459,0.019688115455396636,True
43973,173241,0,173242,5030.0,43073.0,39860.0,-0.00061,-0.000732,0.000244,0.24500000000000002,-1.3125000000000002,-3.7450000000000006,1.07525,0.33790625,0.277,1.314875,1.042,-0.12787500000000002,-0.19503125000000002,1.2828125000000001,0.019304694259233358,0.0195094292345665,True
43974,173242,0,173243,5030.0,43072.0,39861.0,-0.000793,0.0,-0.001037,0.29750000000000004,-1.225,-3.7450000000000006,1.06871875,0.33903125,0.28053125,1.31453125,1.043,-0.1325625,-0.19840625,1.285625,0.019541801663209204,0.019792109242731636,True
43975,173243,0,173244,5030.0,43071.0,39862.0,-0.000549,-0.000366,-0.001403,0.3325,-1.1725,-3.7100000000000004,1.06890625,0.33918750000000003,0.27825,1.3099375,1.04209375,-0.1326875,-0.19871875,1.2813125,0.01955335476001171,0.01971049603607629,True
43976,173244,0,173245,5032.0,43069.0,39862.0,-0.000244,0.000244,-0.000488,0.385,-1.435,-3.5000000000000004,1.069125,0.33875,0.27646875,1.3139375,1.04271875,-0.13371875,-0.19793750000000002,1.28221875,0.019577121739682162,0.01960523495029277,True
43977,173245,0,173246,5031.0,43067.0,39863.0,0.00244,-0.000793,-0.000305,0.24500000000000002,-1.3475000000000001,-3.6225000000000005,1.06925,0.337875,0.2795,1.30665625,1.042625,-0.13475,-0.19984375000000001,1.2785625,0.019582759299350518,0.019807720865966338,True
43978,173246,0,173247,5032.0,43068.0,39864.0,0.002257,-0.0015249999999999999,-0.0011589999999999999,0.07,-1.1375000000000002,-3.6225000000000005,1.0768125,0.3418125,0.27990625,1.31421875,1.0421875,-0.13634375,-0.19740625,1.28175,0.01981063308314873,0.019725771228062926,True
43979,173247,0,173248,5034.0,43068.0,39863.0,-6.1e-05,-0.0013419999999999999,0.000122,0.22750000000000004,-1.0325000000000002,-3.5700000000000003,1.0755937500000001,0.33821875,0.27909375000000003,1.32015625,1.05125,-0.14078125,-0.19621875,1.28,0.019841942770596952,0.01964408178447304,True
43980,173248,0,173249,5035.0,43071.0,39863.0,-0.002989,0.00061,0.0008539999999999999,0.45500000000000007,-1.0325000000000002,-3.6575,1.07278125,0.34096875,0.2758125,1.31865625,1.06065625,-0.13178125000000002,-0.2040625,1.28921875,0.01959034830883029,0.019826217189779612,True
43981,173249,0,173250,5034.0,43071.0,39864.0,-0.000183,0.0,0.0025009999999999998,0.3325,-1.4525000000000001,-3.6050000000000004,1.06903125,0.3373125,0.27640625,1.31390625,1.036875,-0.13525,-0.19659375,1.26359375,0.019579764038077086,0.019548206036231856,True
43982,173250,0,173251,5035.0,43073.0,39863.0,-0.000366,-6.1e-05,0.00042699999999999997,0.36750000000000005,-1.4175000000000002,-3.6225000000000005,1.07490625,0.339125,0.27971875,1.31928125,1.0445,-0.13428125,-0.19496875,1.29059375,0.019615510613144944,0.01961926485232596,True
43983,173251,0,173252,5036.0,43074.0,39863.0,-0.000183,0.001098,-0.0013419999999999999,0.36750000000000005,-1.4000000000000001,-3.6575,1.07165625,0.34121875,0.2769375,1.31409375,1.04940625,-0.13025,-0.20221875,1.2755,0.01953849421369443,0.01979802988104138,True
43984,173252,0,173253,5038.0,43072.0,39864.0,0.0015249999999999999,0.000305,-0.000915,0.2625,-1.61,-3.5875000000000004,1.076125,0.34134375,0.27859375000000003,1.319625,1.044,-0.13675,-0.1960625,1.29584375,0.01980771023439361,0.0196170864577656,True
43985,173253,0,173254,5036.0,43073.0,39864.0,0.0013419999999999999,-0.001098,0.000915,0.12250000000000001,-1.6800000000000002,-3.5700000000000003,1.06846875,0.3375625,0.27665625,1.314875,1.0359375,-0.1364375,-0.19965625,1.27571875,0.019638357980542902,0.019682614293333196,True
43986,173254,0,173255,5036.0,43071.0,39865.0,-0.000244,-0.0011589999999999999,-0.000183,0.24500000000000002,-1.33,-3.5175000000000005,1.068625,0.34046875,0.2765,1.314125,1.026875,-0.13553125,-0.1948125,1.2880625,0.019721960750294237,0.019479898841952174,True
43987,173255,0,173256,5036.0,43075.0,39867.0,-0.0006709999999999999,0.000488,-0.000366,0.24500000000000002,-1.3825,-3.6050000000000004,1.0684375,0.3389375,0.28121875,1.31434375,1.0287187500000001,-0.1414375,-0.20075,1.26296875,0.019898359407968146,0.019915446835325354,True
43988,173256,0,173257,5036.0,43076.0,39868.0,-0.000122,0.000976,-0.000183,0.24500000000000002,-1.3125000000000002,-3.5875000000000004,1.0700625,0.34003125,0.27946875,1.32259375,1.0463125,-0.13803125,-0.19565625,1.29284375,0.01980536420094327,0.019636789144745766,True
43989,173257,0,173258,5036.0,43079.0,39867.0,0.000976,0.0017079999999999999,-0.00042699999999999997,0.2625,-1.1725,-3.5700000000000003,1.0661875,0.34065625,0.276375,1.314125,1.0451875,-0.13146875,-0.19975,1.286125,0.01956470221067667,0.019674790028822612,True
43990,173258,0,173259,5036.0,43082.0,39866.0,0.000549,0.0021349999999999997,0.001952,0.45500000000000007,-1.05,-3.6575,1.06921875,0.3405,0.27896875,1.31975,1.0347187500000001,-0.13418750000000002,-0.19568750000000001,1.28103125,0.01966867540081886,0.019617390495723672,True
43991,173259,0,173260,5035.0,43082.0,39867.0,0.000122,-0.002013,-0.000183,0.1925,-0.9100000000000001,-3.535,1.0633125,0.34218750000000003,0.2794375,1.3178125,1.0445625,-0.132125,-0.19846875,1.28125,0.0196548169711536,0.019749441790609168,True
43992,173260,0,173261,5034.0,43085.0,39867.0,-0.001037,-0.0030499999999999998,-0.001769,0.17500000000000002,-0.8575,-3.5700000000000003,1.0755937500000001,0.34118750000000003,0.28221875,1.32015625,1.0506875,-0.134625,-0.19793750000000002,1.28753125,0.01971493238448909,0.019842858508085662,True
43993,173261,0,173262,5034.0,43087.0,39867.0,-0.002257,-0.000732,-0.002257,0.28,-0.9975,-3.5875000000000004,1.07025,0.34059375000000003,0.27921875,1.3184375,1.05009375,-0.13328125,-0.19790625,1.2902500000000001,0.01963574679676018,0.019717615031259163,True
43994,173262,0,173263,5037.0,43089.0,39867.0,-0.0028669999999999998,-0.000488,0.00183,0.2625,-0.9975,-3.6225000000000005,1.06925,0.34096875,0.2795625,1.3183125,1.04953125,-0.1328125,-0.19065625,1.27940625,0.019632243444480415,0.01943803198807391,True
43995,173263,0,173264,5036.0,43094.0,39867.0,-0.000793,-0.000915,0.003294,0.2625,-1.2425000000000002,-3.7975000000000003,1.0695000000000001,0.341625,0.277125,1.3141875,1.0421562500000001,-0.1328125,-0.20125,1.28396875,0.01965943671090968,0.019766540984453282,True
43996,173264,0,173265,5036.0,43093.0,39868.0,0.0032329999999999998,0.0006709999999999999,-0.0032329999999999998,0.2625,-1.6800000000000002,-3.8850000000000002,1.0755000000000001,0.34159375000000003,0.2790625,1.3185625,1.0422500000000001,-0.13615625,-0.19825,1.277625,0.0197939553859161,0.01972508342545432,True
43997,173265,0,173266,5036.0,43096.0,39867.0,0.000915,0.001586,-0.00183,0.4025,-1.61,-3.7975000000000003,1.0695625,0.34034375,0.27734375,1.31421875,1.04528125,-0.13303125,-0.1980625,1.28721875,0.019615231716902534,0.01964645929813596,True
43998,173266,0,173267,5037.0,43098.0,39870.0,-0.000183,0.001098,0.00061,0.49000000000000005,-1.5750000000000002,-3.7625,1.06921875,0.33915625,0.27921875,1.3141875,1.04175,-0.1333125,-0.200375,1.27746875,0.019577451292689306,0.019817616462554817,True
43999,173267,0,173268,5038.0,43098.0,39870.0,0.000488,0.000183,0.001037,0.43750000000000006,-1.4175000000000002,-3.8675,1.07365625,0.34153125,0.28221875,1.3224375,1.0421562500000001,-0.13603125,-0.19384375,1.28875,0.01978628942983325,0.019677009776505647,True
44000,173268,0,173269,5039.0,43099.0,39871.0,0.00061,-0.001037,-0.000549,0.35000000000000003,-1.2425000000000002,-3.7625,1.05928125,0.33875,0.281625,1.313375,1.033625,-0.13293750000000001,-0.19859375,1.28021875,0.019545382736767956,0.019844903177483195,True
44001,173269,0,173270,5042.0,43098.0,39869.0,-0.00183,-0.000305,0.000732,0.42000000000000004,-1.155,-3.8150000000000004,1.08378125,0.33678125000000003,0.28028125,1.31234375,1.03675,-0.13443750000000002,-0.19853125,1.28140625,0.01952474550111226,0.019786841401789622,True
44002,173270,0,173271,5043.0,43096.0,39871.0,-0.0008539999999999999,-0.000915,0.0015249999999999999,0.3325,-1.0675000000000001,-3.7450000000000006,1.08146875,0.34215625,0.28078125,1.31990625,1.04775,-0.13521875,-0.1978125,1.27403125,0.019779186795230518,0.019778389058928363,True
44003,173271,0,173272,5044.0,43095.0,39870.0,-0.000976,-0.0011589999999999999,0.001464,0.36750000000000005,-1.2950000000000002,-3.7450000000000006,1.0616875000000001,0.3425,0.27596875,1.3141875,1.04903125,-0.13246875,-0.19843750000000002,1.287375,0.01968173065592388,0.019604829857299673,True
44004,173272,0,173273,5044.0,43094.0,39872.0,-0.000305,0.000122,-0.0008539999999999999,0.525,-1.8900000000000001,-3.7450000000000006,1.06515625,0.34096875,0.27278125000000003,1.3225625,1.03728125,-0.13240625,-0.1965,1.288125,0.01961573972757068,0.01939459219308578,True
44005,173273,0,173274,5044.0,43095.0,39872.0,0.002623,0.001098,-0.002379,0.5075000000000001,-2.0300000000000002,-3.7275000000000005,1.05925,0.344125,0.27568750000000003,1.31153125,1.04,-0.13315625,-0.19865625,1.2865,0.019776992493470473,0.019602069846337028,True
44006,173274,0,173275,5047.0,43094.0,39873.0,0.002257,6.1e-05,0.000366,0.4025,-1.7850000000000001,-3.8150000000000004,1.06803125,0.3346875,0.2788125,1.3105,1.04278125,-0.13409375,-0.19665625,1.28134375,0.019424025399752166,0.019650184103433714,True
44007,173275,0,173276,5047.0,43090.0,39875.0,0.001647,-0.000488,0.0008539999999999999,0.24500000000000002,-1.5050000000000001,-3.7625,1.0790625,0.337625,0.2831875,1.31175,1.03409375,-0.13493750000000002,-0.20071875,1.2811875,0.01958001755753459,0.019995532157490156,True
44008,173276,0,173277,5048.0,43092.0,39874.0,0.0006709999999999999,-0.000366,-0.001037,0.21000000000000002,-1.0675000000000001,-3.6750000000000003,1.08203125,0.34303125,0.28890625000000003,1.32503125,1.0305312500000001,-0.13409375,-0.19818750000000002,1.2806250000000001,0.019769750003560835,0.020129348530752565,True
44009,173277,0,173278,5048.0,43091.0,39877.0,-0.003721,0.000122,0.000488,0.2625,-0.805,-3.5875000000000004,1.0650625,0.33928125000000003,0.2754375,1.3110625,1.048125,-0.1325625,-0.19875,1.28521875,0.019552161110118333,0.019595536959553694,True
44010,173278,0,173279,5051.0,43090.0,39879.0,-0.003477,0.002013,0.000549,0.35000000000000003,-1.0150000000000001,-3.5000000000000004,1.06609375,0.34225,0.2790625,1.3095,1.04275,-0.1321875,-0.197,1.2851875,0.01965994587104878,0.019674443112782578,True
44011,173279,0,173280,5051.0,43092.0,39879.0,-0.00061,0.000122,6.1e-05,0.21000000000000002,-0.9275000000000001,-3.5175000000000005,1.065,0.339875,0.27803125,1.31278125,1.04690625,-0.13271875,-0.1985625,1.28534375,0.01958311265696079,0.019695126518362402,True
44012,173280,0,173281,5054.0,43092.0,39882.0,-0.003904,-0.001098,-0.0023179999999999997,0.2625,-1.05,-3.6050000000000004,1.064375,0.33784375,0.27903125,1.3135000000000001,1.03353125,-0.13318750000000001,-0.19828125,1.281125,0.01951798741877757,0.019725057952204767,True
44013,173281,0,173282,5054.0,43096.0,39884.0,-0.0021349999999999997,-0.000366,-0.000793,0.49000000000000005,-1.5925000000000002,-3.7275000000000005,1.0748125,0.341375,0.27968750000000003,1.3075,1.04309375,-0.13453125,-0.19778125,1.2820625,0.019718893442357617,0.019731922735684703,True
44014,173282,0,173283,5055.0,43101.0,39885.0,0.002562,-0.00122,0.001586,0.49000000000000005,-2.0300000000000002,-3.6400000000000006,1.0743125,0.3414375,0.27909375000000003,1.3185625,1.04525,-0.13334375,-0.1975625,1.2805625,0.01967324772390896,0.019698523353333625,True
44015,173283,0,173284,5057.0,43103.0,39886.0,0.0046359999999999995,-0.00183,0.002379,0.3325,-2.1,-3.6225000000000005,1.068875,0.34028125,0.2755625,1.3194375,1.05059375,-0.12746875,-0.2019375,1.30328125,0.019386617172595034,0.01972982534972665,True
44016,173284,0,173285,5058.0,43101.0,39888.0,0.002928,0.0008539999999999999,-0.0030499999999999998,0.43750000000000006,-1.8375000000000001,-3.5700000000000003,1.069,0.341,0.27896875,1.3206875,1.0314375,-0.132,-0.198625,1.30746875,0.019600530416045085,0.019736400312001197,True
44017,173285,0,173286,5060.0,43104.0,39889.0,-0.001098,0.003538,-0.000915,0.47250000000000003,-1.6450000000000002,-3.4650000000000003,1.07640625,0.3418125,0.27978125,1.314125,1.0559687500000001,-0.1284375,-0.19375,1.27115625,0.019489450984963283,0.01957246189615086,True
44018,173286,0,173287,5061.0,43105.0,39890.0,-0.002623,0.000732,0.0023179999999999997,0.43750000000000006,-1.3825,-3.3775000000000004,1.075125,0.337875,0.2814375,1.307125,1.06765625,-0.13575,-0.1934375,1.27040625,0.01962338025543022,0.019628256629509552,True
44019,173287,0,173288,5061.0,43106.0,39889.0,-0.0046359999999999995,0.000305,0.0034159999999999998,0.385,-1.0325000000000002,-3.4650000000000003,1.06921875,0.33871875,0.2760625,1.30521875,1.02965625,-0.138625,-0.206875,1.2824375000000001,0.019775101108700267,0.019950427306292116,True
44020,173288,0,173289,5062.0,43104.0,39892.0,-0.006771,0.000366,0.001769,0.43750000000000006,-1.0150000000000001,-3.5525,1.06921875,0.340875,0.2774375,1.31725,1.02921875,-0.13396875,-0.206375,1.30321875,0.01967532795450396,0.019986986899112318,True
44021,173289,0,173290,5063.0,43107.0,39893.0,0.003294,-0.000549,-0.002562,0.385,-1.8550000000000002,-3.6050000000000004,1.077375,0.340375,0.27990625,1.30853125,1.0614375,-0.13390625,-0.19246875,1.27075,0.01965207145030656,0.01952570466790414,True
44022,173290,0,173291,5065.0,43106.0,39896.0,0.004941,-0.002257,-0.003355,0.4025,-1.9425000000000001,-3.6575,1.069375,0.33696875,0.276375,1.3083125,1.04309375,-0.13940625,-0.20190625,1.2825312500000001,0.01973432962958648,0.01976213134037737,True
44023,173291,0,173292,5066.0,43108.0,39895.0,0.002989,-0.002989,-0.002013,0.36750000000000005,-1.715,-3.6575,1.0699375,0.34078125,0.27846875,1.3191875,1.029375,-0.1285625,-0.20303125,1.30134375,0.01945179079773194,0.019894202301622862,True
44024,173292,0,173293,5066.0,43109.0,39898.0,0.000915,-0.000488,0.000183,0.28,-1.33,-3.6925000000000003,1.077625,0.34021875,0.28021875,1.30803125,1.056,-0.13240625,-0.19284375,1.2770000000000001,0.019584661185620477,0.019553819504993082,True
44025,173293,0,173294,5067.0,43107.0,39896.0,-0.002257,0.000793,0.001586,0.385,-1.3825,-3.5875000000000004,1.07478125,0.3390625,0.27890625,1.3130625,1.06603125,-0.1386875,-0.1941875,1.2710625,0.019791879736626113,0.019554025114503226,True
44026,173294,0,173295,5067.0,43108.0,39893.0,0.000793,-0.002074,0.001586,0.3325,-1.6450000000000002,-3.5175000000000005,1.0766875,0.33765625,0.27921875,1.3136875000000001,1.0535625,-0.13609375,-0.1929375,1.2746250000000001,0.019628279741828562,0.019516284452849104,True
44027,173295,0,173296,5065.0,43108.0,39890.0,0.001769,-0.001464,0.0034159999999999998,0.28,-1.7850000000000001,-3.6050000000000004,1.07021875,0.33684375,0.28025,1.3145,1.03440625,-0.13334375,-0.1908125,1.28571875,0.019482899049163047,0.01947278538081348,True
44028,173296,0,173297,5063.0,43107.0,39888.0,-0.000183,-0.000244,0.003294,0.3325,-1.6450000000000002,-3.6750000000000003,1.06984375,0.34040625,0.2770625,1.31890625,1.03496875,-0.1333125,-0.19718750000000002,1.28490625,0.01962924691751288,0.01959938525913394,True
44029,173297,0,173298,5061.0,43106.0,39886.0,0.0,0.002623,0.00122,0.31500000000000006,-1.7325000000000002,-3.7450000000000006,1.06665625,0.34340625,0.27915625,1.31865625,1.0509375,-0.134625,-0.19721875,1.28125,0.01980686461877904,0.019687179957407295,True
44030,173298,0,173299,5056.0,43105.0,39883.0,0.001037,0.002257,0.00042699999999999997,0.24500000000000002,-1.8725000000000003,-3.7100000000000004,1.0646875,0.34450000000000003,0.2795625,1.31384375,1.0490625,-0.133875,-0.19743750000000002,1.281875,0.019821723614628816,0.019712831162390646,True
44031,173299,0,173300,5054.0,43104.0,39883.0,-0.00042699999999999997,-0.0011589999999999999,-0.001464,0.29750000000000004,-1.715,-3.8500000000000005,1.071625,0.34009375000000003,0.27946875,1.31390625,1.0421562500000001,-0.13418750000000002,-0.20125,1.28640625,0.019651842433063057,0.019863385155725426,True
44032,173300,0,173301,5050.0,43105.0,39879.0,-0.000122,0.000305,0.000549,0.29750000000000004,-1.4875,-3.8850000000000002,1.0698750000000001,0.3410625,0.27771875,1.31509375,1.0466875,-0.1328125,-0.19934375000000001,1.2813125,0.019636128196827453,0.01971386104220285,True
44033,173301,0,173302,5047.0,43102.0,39878.0,0.0008539999999999999,-0.0008539999999999999,-0.000976,0.29750000000000004,-1.5050000000000001,-3.9550000000000005,1.0695937500000001,0.33868750000000003,0.28025,1.3143125,1.04196875,-0.133625,-0.2014375,1.285125,0.019570723420124413,0.01990325987867456,True
44034,173302,0,173303,5042.0,43097.0,39873.0,0.000183,-0.000732,-0.001586,0.31500000000000006,-1.5225000000000002,-3.8675,1.07125,0.3389375,0.279375,1.31403125,1.04221875,-0.13584375,-0.20053125,1.281375,0.019671209961325677,0.019830401450381382,True
44035,173303,0,173304,5039.0,43098.0,39869.0,-0.000793,-0.000122,0.000549,0.4025,-1.54,-3.7800000000000002,1.076625,0.34146875,0.2794375,1.3105625,1.0421875,-0.13493750000000002,-0.20021875,1.28171875,0.019739278380149113,0.01982032703733308,True
44036,173304,0,173305,5037.0,43097.0,39872.0,-0.002074,-0.000915,-0.000793,0.36750000000000005,-1.6800000000000002,-3.9200000000000004,1.07396875,0.33615625,0.28115625,1.31521875,1.04278125,-0.13384375,-0.20021875,1.2869375,0.019474726233776996,0.019891349122618984,True
44037,173305,0,173306,5035.0,43096.0,39867.0,-0.001586,0.00061,0.000976,0.42000000000000004,-1.9775000000000003,-3.8325000000000005,1.0650625,0.33178125,0.27909375000000003,1.310375,1.0425,-0.13253125,-0.2013125,1.2879375,0.01924010768659007,0.019850421335619713,True
44038,173306,0,173307,5032.0,43096.0,39867.0,0.0006709999999999999,-0.000488,-0.000183,0.45500000000000007,-2.0300000000000002,-3.7800000000000002,1.06365625,0.33971875,0.279375,1.3216875000000001,1.0478750000000001,-0.13293750000000001,-0.19884375,1.28365625,0.019585524969763835,0.01976204958139787,True
44039,173307,0,173308,5033.0,43093.0,39867.0,0.000366,-0.0015249999999999999,-0.000793,0.4025,-2.0825,-3.7975000000000003,1.063125,0.335,0.273125,1.3115625,1.04471875,-0.13353125,-0.1983125,1.281875,0.019414119100369946,0.019482246954203936,True
44040,173308,0,173309,5032.0,43090.0,39867.0,0.0025009999999999998,0.00122,0.000244,0.42000000000000004,-1.7675,-3.7800000000000002,1.0630625,0.3451875,0.275625,1.31703125,1.047625,-0.13293750000000001,-0.197625,1.288,0.019812134349579284,0.019557704526787238,True
44041,173309,0,173310,5030.0,43091.0,39866.0,0.001647,6.1e-05,-0.0006709999999999999,0.3325,-1.5925000000000002,-3.7275000000000005,1.0614375,0.332625,0.28271875,1.30909375,1.05053125,-0.132125,-0.19934375000000001,1.2790625,0.019258560943141146,0.019920478215447478,True
44042,173310,0,173311,5032.0,43087.0,39865.0,-0.0011589999999999999,0.000244,0.000793,0.28,-1.4175000000000002,-3.7275000000000005,1.083,0.33609375,0.28178125,1.3235000000000001,1.04278125,-0.12696875,-0.20071875,1.27840625,0.019192734271685084,0.01993742437918295,True
44043,173311,0,173312,5030.0,43085.0,39864.0,-0.001769,0.0,0.0,0.49000000000000005,-1.2425000000000002,-3.6575,1.07840625,0.34525,0.28321875,1.30975,1.042375,-0.1364375,-0.198625,1.28128125,0.019956859830702025,0.019912030125678628,True
44044,173312,0,173313,5031.0,43084.0,39867.0,-0.000244,0.001037,-0.0017079999999999999,0.49000000000000005,-1.4000000000000001,-3.6925000000000003,1.06725,0.3315,0.27278125000000003,1.32384375,1.0425,-0.13284375,-0.198375,1.2863437500000001,0.019241153459173252,0.019470573953829548,True
44045,173313,0,173314,5032.0,43085.0,39867.0,-0.000976,-0.000488,0.001464,0.4025,-1.4525000000000001,-3.7625,1.0786875,0.34334375,0.28153125,1.311,1.04721875,-0.13571875,-0.20009375000000001,1.28171875,0.019848694168264618,0.019901782405285104,True
44046,173314,0,173315,5032.0,43085.0,39867.0,-0.000793,-0.000122,6.1e-05,0.42000000000000004,-1.61,-3.7275000000000005,1.0844375,0.3399375,0.28109375000000003,1.31065625,1.03703125,-0.13465625,-0.19743750000000002,1.2773125,0.01966440893476575,0.01977611265655713,True
44047,173315,0,173316,5032.0,43087.0,39868.0,0.001464,0.0008539999999999999,-0.0008539999999999999,0.36750000000000005,-1.6450000000000002,-3.6925000000000003,1.0756875000000001,0.33878125000000003,0.27968750000000003,1.31140625,1.03884375,-0.13343750000000001,-0.19953125,1.2891875,0.019566990819273055,0.019802811263131388,True
44048,173316,0,173317,5033.0,43087.0,39870.0,-0.000244,-0.0011589999999999999,-0.000732,0.29750000000000004,-1.5750000000000002,-3.6925000000000003,1.0679375,0.340625,0.28015625,1.3121562500000001,1.03915625,-0.133625,-0.19834375,1.2865625,0.019651005599034543,0.019774080612438613,True
44049,173317,0,173318,5034.0,43085.0,39870.0,-0.000793,0.000793,-0.000549,0.45500000000000007,-1.6275000000000002,-3.6575,1.06671875,0.33775,0.278,1.3141562500000001,1.0424375000000001,-0.13303125,-0.20134375000000002,1.2865312500000001,0.019507754542852963,0.01980649318284238,True
44050,173318,0,173319,5035.0,43088.0,39870.0,0.000549,-0.000183,0.000244,0.31500000000000006,-1.1725,-3.6225000000000005,1.06825,0.34078125,0.2759375,1.31484375,1.043375,-0.13209375,-0.19415625,1.28884375,0.019595274446503424,0.019430053486572816,True
44051,173319,0,173320,5035.0,43086.0,39871.0,-0.002013,-6.1e-05,0.00061,0.36750000000000005,-1.2775,-3.6225000000000005,1.06915625,0.34403125,0.28134375,1.32125,1.04790625,-0.13296875,-0.19834375,1.28903125,0.019765491968326523,0.01982315421897418,True
44052,173320,0,173321,5037.0,43089.0,39873.0,0.000305,0.0008539999999999999,0.000549,0.31500000000000006,-1.2775,-3.6050000000000004,1.0690625,0.341,0.27803125,1.3196875000000001,1.04940625,-0.13315625,-0.194,1.284375,0.01964750259303526,0.01951026080846491,True
44053,173321,0,173322,5039.0,43090.0,39870.0,0.000793,0.0,0.001464,0.3325,-1.3650000000000002,-3.6050000000000004,1.06915625,0.34046875,0.277875,1.31653125,1.0503125,-0.13318750000000001,-0.19859375,1.2783125,0.0196267587942952,0.019689935494702042,True
44054,173322,0,173323,5039.0,43094.0,39874.0,0.0,-0.000305,-0.001037,0.28,-1.5575,-3.5525,1.0691875,0.34121875,0.27846875,1.3201875,1.04765625,-0.1324375,-0.19818750000000002,1.28078125,0.01962736876455186,0.019698014572372413,True
44055,173323,0,173324,5038.0,43094.0,39877.0,-0.001403,0.001098,0.00122,0.29750000000000004,-1.7850000000000001,-3.535,1.07509375,0.33803125,0.28025,1.314375,1.04259375,-0.13321875,-0.20034375000000001,1.282875,0.01952702641457638,0.019858963780214903,True
44056,173324,0,173325,5037.0,43095.0,39878.0,0.0030499999999999998,-0.000122,0.002257,0.31500000000000006,-2.0125,-3.6400000000000006,1.07021875,0.34015625,0.27721875,1.3136875000000001,1.042125,-0.13275,-0.1985625,1.28840625,0.019596036506407268,0.019661550143732713,True
44057,173325,0,173326,5038.0,43094.0,39879.0,0.0042699999999999995,-0.001647,-0.001769,0.31500000000000006,-1.995,-3.6925000000000003,1.069375,0.3409375,0.2788125,1.3214062500000001,1.0478750000000001,-0.13228125,-0.1973125,1.27821875,0.01960936660308482,0.01967677195556325,True
44058,173326,0,173327,5039.0,43095.0,39877.0,0.002013,0.0,-0.002257,0.385,-2.0125,-3.7800000000000002,1.0753125000000001,0.33815625,0.28015625,1.3135937500000001,1.0483437500000001,-0.136375,-0.2015625,1.2845312500000001,0.019660419180593604,0.019904448318161273,True
44059,173327,0,173328,5037.0,43098.0,39877.0,0.001647,0.000488,0.000183,0.45500000000000007,-1.8200000000000003,-3.6925000000000003,1.06946875,0.33965625,0.2801875,1.314375,1.04240625,-0.13334375,-0.201125,1.2840625,0.019599439054109522,0.019888021734526803,True
44060,173328,0,173329,5039.0,43098.0,39876.0,0.000488,-0.000915,0.001098,0.17500000000000002,-1.54,-3.7625,1.06928125,0.3415625,0.2789375,1.32028125,1.04259375,-0.13518750000000002,-0.19746875,1.2718125,0.019753316604646225,0.019688268013570636,True
44061,173329,0,173330,5041.0,43101.0,39876.0,-0.001037,-0.000549,-0.00042699999999999997,0.3325,-1.3650000000000002,-3.7975000000000003,1.06953125,0.34134375,0.27703125,1.3136875000000001,1.0496875,-0.132625,-0.20034375000000001,1.2806875,0.019640165543532873,0.019725959471133547,True
44062,173330,0,173331,5040.0,43102.0,39880.0,-0.0013419999999999999,0.00183,0.000183,0.35000000000000003,-1.2075,-3.7275000000000005,1.07421875,0.34096875,0.2758125,1.31865625,1.04190625,-0.13590625,-0.197,1.27771875,0.01975790737089062,0.019540128941604333,True
44063,173331,0,173332,5039.0,43105.0,39880.0,-0.00183,6.1e-05,0.0,0.4025,-1.2075,-3.6400000000000006,1.0695000000000001,0.34034375,0.27715625,1.31346875,1.04884375,-0.13259375,-0.19834375,1.2875625,0.019597458312992155,0.01965010518540138,True
44064,173332,0,173333,5041.0,43103.0,39880.0,-0.001952,-0.00042699999999999997,-0.000549,0.5425000000000001,-1.4525000000000001,-3.6050000000000004,1.06884375,0.3368125,0.278375,1.31428125,1.04259375,-0.13271875,-0.19934375000000001,1.287,0.019456210253973146,0.019740979546191206,True
44065,173333,0,173334,5040.0,43106.0,39880.0,0.00061,0.000793,0.000183,0.29750000000000004,-1.61,-3.6925000000000003,1.0693125,0.34165625,0.27709375,1.3139375,1.04184375,-0.133,-0.198125,1.28684375,0.019668348319728173,0.01963866002014619,True
44066,173334,0,173335,5040.0,43109.0,39877.0,0.001281,-0.000793,-6.1e-05,0.2625,-1.54,-3.7975000000000003,1.06934375,0.34318750000000003,0.28471875,1.3139687500000001,1.0365312500000001,-0.13246875,-0.19925,1.28096875,0.019710219245596246,0.019999328491585484,True
44067,173335,0,173336,5040.0,43108.0,39879.0,0.0,-0.0011589999999999999,-0.001098,0.3325,-1.61,-3.8500000000000005,1.0715000000000001,0.34075,0.279625,1.3168125,1.042375,-0.1358125,-0.197625,1.2823125,0.01974503655097586,0.0197230100061473,True
44068,173336,0,173337,5042.0,43111.0,39880.0,-0.000732,0.001098,-0.000549,0.3325,-1.6275000000000002,-3.6925000000000003,1.06696875,0.34118750000000003,0.28153125,1.3161875,1.0448125,-0.13459375,-0.1975,1.2815625,0.019713663089937033,0.019796724868271515,True
44069,173337,0,173338,5044.0,43114.0,39881.0,-0.0008539999999999999,0.000183,0.000793,0.3325,-1.5050000000000001,-3.8500000000000005,1.0691875,0.34168750000000003,0.2788125,1.3151875,1.04775,-0.1325,-0.2029375,1.2890625,0.019649331813943852,0.019904608686445602,True
44070,173338,0,173339,5043.0,43115.0,39882.0,-0.00042699999999999997,0.000244,0.000549,0.31500000000000006,-1.5925000000000002,-3.8850000000000002,1.06971875,0.338875,0.27684375,1.3148125,1.03971875,-0.13321875,-0.20096875,1.28128125,0.0195619885971489,0.019743527828818833,True
44071,173339,0,173340,5044.0,43117.0,39882.0,0.001586,0.0006709999999999999,-0.000122,0.385,-1.6800000000000002,-3.9725000000000006,1.0726875,0.33765625,0.2798125,1.31390625,1.0383437500000001,-0.13875,-0.20125,1.2778125,0.019736160737403554,0.01987758896751201,True
44072,173340,0,173341,5045.0,43118.0,39882.0,0.001098,0.000366,0.000183,0.3325,-1.6975000000000002,-3.7975000000000003,1.08778125,0.341875,0.28078125,1.31690625,1.0443125,-0.13409375,-0.193125,1.27753125,0.019721840601534913,0.01958846779818647,True
44073,173341,0,173342,5045.0,43121.0,39884.0,0.000549,-0.000122,-0.000732,0.28,-1.7850000000000001,-3.7800000000000002,1.06625,0.3291875,0.28200000000000003,1.30734375,1.0463437500000001,-0.13178125000000002,-0.19940625,1.2835,0.01910214356845291,0.019893308332719944,True
44074,173342,0,173343,5046.0,43119.0,39882.0,0.0006709999999999999,0.00061,-0.000244,0.35000000000000003,-1.61,-3.7625,1.08878125,0.34528125,0.2808125,1.3314062500000001,1.03903125,-0.139375,-0.1926875,1.2774375,0.020077415011780543,0.019572029771392697,True
44075,173343,0,173344,5046.0,43119.0,39885.0,0.0018909999999999999,-0.001403,-0.000488,0.1925,-1.2950000000000002,-3.9375000000000004,1.08065625,0.34484375,0.28825,1.313,1.05459375,-0.13634375,-0.2015,1.27765625,0.019936221698864394,0.02023634898663306,True
44076,173344,0,173345,5048.0,43119.0,39885.0,-0.000366,-0.000549,-0.0008539999999999999,0.2625,-1.1900000000000002,-3.9025000000000003,1.0879375,0.34650000000000003,0.28325,1.33109375,1.0329375,-0.13834375000000002,-0.1975625,1.27003125,0.020086040493146926,0.019870286521627954,True
44077,173345,0,173346,5050.0,43119.0,39886.0,-0.005307,0.00122,-6.1e-05,0.28,-1.0150000000000001,-3.7625,1.077,0.3525,0.282125,1.32384375,1.04778125,-0.13515625,-0.19590625,1.27765625,0.020205224484511054,0.019756699544990177,True
44078,173346,0,173347,5049.0,43120.0,39886.0,-0.004514,0.001586,0.000793,0.385,-0.9975,-3.7975000000000003,1.0923125,0.34509375000000003,0.28150000000000003,1.33459375,1.04178125,-0.1319375,-0.19559375,1.27225,0.019767631587807654,0.01971820798983286,True
44079,173347,0,173348,5054.0,43118.0,39888.0,-0.000915,0.000183,0.001098,0.35000000000000003,-1.2425000000000002,-3.7450000000000006,1.0595,0.337125,0.28290625,1.308875,1.053375,-0.131,-0.19843750000000002,1.28403125,0.019399320376279474,0.019891521921611678,True
44080,173348,0,173349,5054.0,43118.0,39891.0,0.000793,-0.001464,-0.001098,0.24500000000000002,-1.8025000000000002,-3.8150000000000004,1.07784375,0.34215625,0.274875,1.30321875,1.03959375,-0.13409375,-0.19759375,1.287375,0.01973349423986554,0.01952544351646535,True
44081,173349,0,173350,5054.0,43116.0,39891.0,0.000183,0.000305,-0.001464,0.4025,-1.7675,-3.6925000000000003,1.0909375000000001,0.34471875,0.27718750000000003,1.3211875,1.042875,-0.13734375000000001,-0.1904375,1.28609375,0.019971646631580995,0.01933098564257054,True
44082,173350,0,173351,5056.0,43114.0,39890.0,0.000976,0.00122,-0.00061,0.49000000000000005,-1.6625,-3.6050000000000004,1.05903125,0.33146875000000003,0.2848125,1.3199687500000001,1.04721875,-0.132875,-0.2005,1.27865625,0.019241128543532427,0.02005382120204128,True
44083,173351,0,173352,5058.0,43112.0,39892.0,0.0018909999999999999,0.0032329999999999998,0.001403,0.42000000000000004,-1.6625,-3.7800000000000002,1.07190625,0.343125,0.27840625,1.31371875,1.04540625,-0.13490625,-0.19803125,1.2885625,0.019806633804512915,0.019689101773517216,True
44084,173352,0,173353,5059.0,43109.0,39894.0,0.001952,0.00061,-0.000915,0.31500000000000006,-1.5750000000000002,-3.8675,1.065625,0.34084375,0.27634375,1.3148125,1.04640625,-0.13265625,-0.2013125,1.285125,0.0196207162234783,0.01973679113477833,True
44085,173353,0,173354,5061.0,43108.0,39895.0,-0.0026839999999999998,-0.002013,0.00042699999999999997,0.22750000000000004,-1.4000000000000001,-3.8675,1.0695625,0.33868750000000003,0.2794375,1.3135625,1.0420625000000001,-0.13278125,-0.20075,1.28415625,0.01953644485133681,0.01984184374451205,True
44086,173354,0,173355,5063.0,43107.0,39894.0,-0.001037,-0.0011589999999999999,-0.000305,0.22750000000000004,-1.3825,-3.9200000000000004,1.0698125,0.33825,0.28028125,1.314125,1.04175,-0.13578125,-0.20046875,1.28146875,0.019640186704128336,0.019865317691418687,True
44087,173355,0,173356,5063.0,43107.0,39898.0,-0.0008539999999999999,-0.001281,0.0006709999999999999,0.17500000000000002,-1.435,-4.0075,1.07709375,0.34078125,0.27965625,1.30428125,1.04753125,-0.1355,-0.19743750000000002,1.2815,0.0197336392450954,0.01971670553958451,True
44088,173356,0,173357,5065.0,43103.0,39898.0,0.000488,0.0,-0.000244,0.21000000000000002,-1.6450000000000002,-3.9200000000000004,1.07684375,0.34134375,0.27971875,1.32046875,1.05090625,-0.13503125,-0.198,1.28621875,0.01973790690658418,0.019742075791387717,True
44089,173357,0,173358,5067.0,43103.0,39900.0,0.003538,0.001037,-0.000793,0.31500000000000006,-1.61,-3.7975000000000003,1.06915625,0.338125,0.27965625,1.31490625,1.0420625000000001,-0.13346875,-0.19734375,1.2807187500000001,0.019541067837585514,0.019712907537630033,True
44090,173358,0,173359,5067.0,43104.0,39901.0,-0.00042699999999999997,0.001281,-0.00061,0.385,-1.33,-3.7100000000000004,1.077,0.3419375,0.2798125,1.32009375,1.0498125,-0.1360625,-0.198375,1.2823125,0.019804390214849664,0.019761140985706686,True
44091,173359,0,173360,5070.0,43105.0,39901.0,-0.0035989999999999998,0.001769,0.0015249999999999999,0.42000000000000004,-1.2075,-3.6400000000000006,1.07490625,0.34121875,0.27640625,1.31834375,1.0405,-0.133,-0.1983125,1.2875,0.019650219616293044,0.019617845252639002,True
44092,173360,0,173361,5069.0,43104.0,39901.0,-0.004697,0.000305,0.001952,0.47250000000000003,-1.1025,-3.6400000000000006,1.07040625,0.339125,0.27871875,1.3145625,1.04203125,-0.13340625,-0.19965625,1.2814375,0.01957996501219135,0.019767842776692333,True
44093,173361,0,173362,5073.0,43107.0,39901.0,-0.003843,0.0008539999999999999,0.000488,0.4025,-1.33,-3.6750000000000003,1.070125,0.339625,0.2795,1.3129375,1.042125,-0.13653125,-0.19921875,1.28184375,0.01972761723994619,0.019782405165456013,True
44094,173362,0,173363,5073.0,43106.0,39900.0,-0.001769,0.000122,-0.002806,0.4025,-1.6800000000000002,-3.5525,1.074875,0.34153125,0.279,1.31965625,1.05040625,-0.13146875,-0.19853125,1.2880625,0.019600961918242128,0.019733893973420392,True
44095,173363,0,173364,5075.0,43108.0,39904.0,0.0032329999999999998,-0.00122,-0.0011589999999999999,0.2625,-1.7500000000000002,-3.7275000000000005,1.06921875,0.3405,0.277375,1.312875,1.04921875,-0.133,-0.199875,1.2815,0.019620436746363903,0.01972117624574507,True
44096,173364,0,173365,5076.0,43112.0,39906.0,0.0028669999999999998,-0.000915,0.00061,0.24500000000000002,-1.6625,-3.7100000000000004,1.07428125,0.33978125000000003,0.2790625,1.31453125,1.04209375,-0.13521875,-0.19943750000000002,1.2805625,0.01968078288082639,0.019773186876761085,True
44097,173365,0,173366,5077.0,43113.0,39903.0,0.000549,-0.001281,0.002379,0.22750000000000004,-1.5925000000000002,-3.6925000000000003,1.0765625,0.342,0.27953125,1.321125,1.04890625,-0.1350625,-0.198125,1.28621875,0.019766366878063817,0.019739390965209082,True
44098,173366,0,173367,5075.0,43114.0,39901.0,-0.000488,-0.000976,0.000549,0.28,-1.4875,-3.7800000000000002,1.0695000000000001,0.34175,0.27968750000000003,1.3205,1.0476875,-0.1268125,-0.19825,1.2871875,0.019420820715542096,0.019750911739485292,True
44099,173367,0,173368,5075.0,43112.0,39897.0,-0.002074,-0.001464,0.000915,0.28,-1.4175000000000002,-3.7275000000000005,1.068875,0.34034375,0.27821875,1.3141875,1.043125,-0.133125,-0.19884375,1.2855,0.019619040219615157,0.01971426837284323,True
44100,173368,0,173369,5072.0,43113.0,39900.0,-0.001281,0.000488,0.001647,0.29750000000000004,-1.6275000000000002,-3.8150000000000004,1.0689375,0.3405625,0.27671875,1.31821875,1.0420625000000001,-0.132375,-0.19725,1.28775,0.019597635955847695,0.01958771141348707,True
44101,173369,0,173370,5068.0,43113.0,39894.0,0.0018909999999999999,0.000732,0.001098,0.29750000000000004,-1.7850000000000001,-3.8850000000000002,1.0695000000000001,0.34090625,0.2768125,1.32165625,1.04790625,-0.1325625,-0.1978125,1.2881875,0.019619497515027673,0.019614376299510544,True
44102,173370,0,173371,5064.0,43110.0,39891.0,0.003538,0.001769,0.000366,0.36750000000000005,-1.9775000000000003,-3.9375000000000004,1.06846875,0.34446875,0.27634375,1.32,1.0424375000000001,-0.1325,-0.19803125,1.2891875,0.019764580959287268,0.019603867566705454,True
44103,173371,0,173372,5059.0,43109.0,39887.0,0.0032329999999999998,-0.000549,-0.000122,0.29750000000000004,-1.9425000000000001,-3.8850000000000002,1.06925,0.3408125,0.2780625,1.3198125,1.042625,-0.1328125,-0.19959375000000001,1.29509375,0.01962576885723535,0.019738192919044356,True
44104,173372,0,173373,5057.0,43109.0,39886.0,-0.0015249999999999999,0.000366,-0.0006709999999999999,0.31500000000000006,-1.6800000000000002,-3.9725000000000006,1.06278125,0.3415,0.27690625,1.319625,1.0422500000000001,-0.12271875,-0.20303125,1.29509375,0.019244047688447223,0.019829644272347086,True
44105,173373,0,173374,5052.0,43108.0,39883.0,-0.001647,-0.000244,-0.000305,0.36750000000000005,-1.6275000000000002,-3.9725000000000006,1.06946875,0.341625,0.27646875,1.320375,1.038,-0.1318125,-0.2029375,1.2910625,0.019618812304297493,0.019807771267433962,True
44106,173374,0,173375,5049.0,43109.0,39880.0,-0.0015249999999999999,6.1e-05,-0.000549,0.3325,-1.6625,-3.99,1.0694062500000001,0.34128125,0.2785625,1.32153125,1.0364375000000001,-0.1249375,-0.19584375,1.29440625,0.019325179598910877,0.01960693145904449,True
44107,173375,0,173376,5045.0,43106.0,39879.0,-0.000366,-6.1e-05,-0.000732,0.36750000000000005,-1.7850000000000001,-3.8325000000000005,1.06840625,0.34071875,0.276625,1.31984375,1.036375,-0.12865625,-0.20503125,1.29703125,0.019453010359828885,0.01989901376392563,True
44108,173376,0,173377,5042.0,43105.0,39878.0,0.000793,-0.000305,0.000793,0.36750000000000005,-1.8375000000000001,-3.8325000000000005,1.07303125,0.34134375,0.27915625,1.3205625,1.04578125,-0.130625,-0.19668750000000002,1.29553125,0.019558911134709523,0.019665656714374643,True
44109,173377,0,173378,5041.0,43103.0,39876.0,0.00042699999999999997,0.000122,-0.0018909999999999999,0.35000000000000003,-1.7850000000000001,-3.8325000000000005,1.07015625,0.34290625,0.27865625,1.3201875,1.04134375,-0.131125,-0.2005625,1.28528125,0.019643976399774152,0.01980196741294753,True
44110,173378,0,173379,5037.0,43103.0,39874.0,6.1e-05,0.0008539999999999999,-0.00183,0.42000000000000004,-1.5925000000000002,-3.7800000000000002,1.0765,0.341,0.27928125,1.32153125,1.0443125,-0.1286875,-0.195625,1.2945312500000001,0.019465936553739197,0.01962777361609795,True
44111,173379,0,173380,5038.0,43101.0,39878.0,-0.0013419999999999999,-0.000122,-0.00042699999999999997,0.35000000000000003,-1.5050000000000001,-3.8150000000000004,1.06946875,0.34084375,0.276875,1.31903125,1.05325,-0.13175,-0.19878125,1.2935,0.019583898805515556,0.019656206859591328,True
44112,173380,0,173381,5037.0,43100.0,39875.0,-0.000732,-0.000976,0.000366,0.29750000000000004,-1.4875,-3.8150000000000004,1.0694062500000001,0.34053125,0.27609375,1.30859375,1.0363125,-0.13103125000000002,-0.20225,1.2840625,0.01954174668768041,0.019764433058909816,True
44113,173381,0,173382,5035.0,43099.0,39874.0,-0.000366,0.0,0.002013,0.35000000000000003,-1.54,-3.7975000000000003,1.06346875,0.33859375,0.276,1.31425,1.03621875,-0.13465625,-0.20040625,1.27615625,0.019608731738203235,0.019685878207106544,True
44114,173382,0,173383,5034.0,43097.0,39875.0,-0.000122,0.000183,-0.000549,0.385,-1.5750000000000002,-3.6925000000000003,1.07625,0.34178125,0.279,1.3214375,1.0411875,-0.13590625,-0.19553125000000002,1.2838125,0.01979157090900616,0.019612350937737732,True
44115,173383,0,173384,5033.0,43096.0,39876.0,-0.002806,6.1e-05,-0.000915,0.2625,-1.715,-3.7100000000000004,1.069125,0.34096875,0.27759375000000003,1.31815625,1.0378125,-0.1320625,-0.19446875,1.28696875,0.019601774610023492,0.019511174429072763,True
44116,173384,0,173385,5033.0,43097.0,39876.0,-0.000549,0.001647,-0.003294,0.5075000000000001,-2.1175,-3.6925000000000003,1.06934375,0.34021875,0.27703125,1.31890625,1.0362500000000001,-0.1330625,-0.19784375,1.28821875,0.019611321604955854,0.019624682467833526,True
44117,173385,0,173386,5033.0,43096.0,39874.0,0.002379,0.000488,-0.00122,0.5075000000000001,-2.1525000000000003,-3.6050000000000004,1.0650625,0.34078125,0.27740625,1.31703125,1.04609375,-0.13303125,-0.19771875,1.2885312500000001,0.0196333603968627,0.019635115396983444,True
44118,173386,0,173387,5033.0,43097.0,39876.0,0.0021349999999999997,-0.002013,0.00042699999999999997,0.4025,-2.0475000000000003,-3.7275000000000005,1.06984375,0.34271875,0.2800625,1.31265625,1.0428125,-0.1335625,-0.1998125,1.281375,0.019735223508754663,0.019829699093742978,True
44119,173387,0,173388,5033.0,43097.0,39878.0,0.00122,0.000183,0.0015249999999999999,0.6125,-1.8725000000000003,-3.7275000000000005,1.0685,0.34118750000000003,0.279625,1.3195000000000001,1.0344375000000001,-0.134875,-0.19746875,1.28134375,0.019725086622574182,0.019716680076299304,True
44120,173388,0,173389,5035.0,43097.0,39877.0,0.000305,0.000183,0.000732,0.56,-1.9600000000000002,-3.7625,1.06925,0.34034375,0.27778125,1.31896875,1.050375,-0.1324375,-0.19753125,1.2866875,0.01959111051256219,0.019643016268446806,True
44121,173389,0,173390,5036.0,43098.0,39879.0,0.0013419999999999999,-0.000488,0.0046359999999999995,0.4025,-1.7325000000000002,-3.7800000000000002,1.0688125,0.34684375,0.27746875,1.3190625,1.0431875,-0.133,-0.1980625,1.2881875,0.01988330294617329,0.019651625000968568,True
44122,173390,0,173391,5036.0,43099.0,39881.0,0.001403,-6.1e-05,0.0018909999999999999,0.29750000000000004,-1.6625,-3.8150000000000004,1.0686875,0.34109375000000003,0.281375,1.32090625,1.04378125,-0.13328125,-0.1983125,1.28859375,0.01965646507351751,0.019823179818840672,True
44123,173391,0,173392,5038.0,43096.0,39880.0,0.000488,-0.000122,-0.000732,0.3325,-1.4875,-3.7800000000000002,1.06946875,0.34600000000000003,0.27703125,1.32234375,1.03984375,-0.13343750000000001,-0.19828125,1.29090625,0.019866109003327855,0.019642407454041805,True
44124,173392,0,173393,5039.0,43095.0,39880.0,-0.00244,0.00122,-0.000732,0.24500000000000002,-1.2075,-3.7450000000000006,1.07015625,0.34175,0.27490625,1.3173125,1.0490625,-0.13309375,-0.19793750000000002,1.2890625,0.019676041328103654,0.01954066333132731,True
44125,173393,0,173394,5040.0,43096.0,39882.0,-0.00366,0.00061,-0.001098,0.42000000000000004,-1.3475000000000001,-3.6750000000000003,1.06734375,0.33846875,0.2750625,1.3120625000000001,1.0422500000000001,-0.13378125,-0.2000625,1.289875,0.019568006981914614,0.019633213757195875,True
44126,173394,0,173395,5040.0,43093.0,39884.0,-0.000793,0.00042699999999999997,-0.00061,0.42000000000000004,-1.4875,-3.6400000000000006,1.0559375,0.3404375,0.2739375,1.32209375,1.0421875,-0.132625,-0.19746875,1.2879375,0.019602612645744092,0.019481634830089408,True
44127,173395,0,173396,5039.0,43092.0,39881.0,0.001952,-0.000244,0.00061,0.385,-1.5225000000000002,-3.6400000000000006,1.06546875,0.34190625,0.27321875,1.31840625,1.04840625,-0.13290625,-0.19768750000000002,1.2871875,0.019674899288186644,0.019460795582222475,True
44128,173396,0,173397,5041.0,43095.0,39880.0,0.0013419999999999999,-0.000488,-0.00061,0.35000000000000003,-1.5225000000000002,-3.7450000000000006,1.0660625,0.34040625,0.273625,1.3109375,1.03228125,-0.13271875,-0.19834375,1.2807187500000001,0.01960512633911171,0.01950417577649297,True
44129,173397,0,173398,5039.0,43095.0,39880.0,-0.001098,0.0008539999999999999,0.000793,0.3325,-1.54,-3.7100000000000004,1.06696875,0.33728125000000003,0.27568750000000003,1.31065625,1.04240625,-0.13359375,-0.2003125,1.2873125,0.019511184487391153,0.019669167495254453,True
44130,173398,0,173399,5040.0,43099.0,39881.0,-0.001403,0.000244,0.000122,0.4025,-1.5575,-3.6400000000000006,1.06584375,0.34218750000000003,0.27696875,1.3143125,1.0423125,-0.13271875,-0.198,1.2858125,0.01967893692044126,0.019628430035540125,True
44131,173399,0,173400,5040.0,43101.0,39883.0,0.00122,-6.1e-05,0.00061,0.385,-1.6450000000000002,-3.7275000000000005,1.06546875,0.34021875,0.274375,1.317375,1.0436875,-0.13293750000000001,-0.19828125,1.28753125,0.01960624354163268,0.019532637261169116,True
44132,173400,0,173401,5038.0,43101.0,39881.0,0.002989,-0.0006709999999999999,0.000793,0.28,-1.7850000000000001,-3.7625,1.06409375,0.33959375,0.2760625,1.3156875000000001,1.047,-0.13303125,-0.19884375,1.285375,0.019584153979827962,0.01962516287580889,True
44133,173401,0,173402,5038.0,43105.0,39881.0,0.002806,-0.000549,0.0,0.15750000000000003,-1.6800000000000002,-3.6050000000000004,1.065375,0.34053125,0.27578125000000003,1.3165625,1.04371875,-0.13234375,-0.19859375,1.28371875,0.019595071448458047,0.0196034118718159,True
44134,173402,0,173403,5039.0,43107.0,39883.0,-0.0025009999999999998,0.000915,-0.002074,0.3325,-1.435,-3.6750000000000003,1.0651875,0.3394375,0.2805625,1.3178125,1.04309375,-0.1326875,-0.19759375,1.2861562500000001,0.019563714153262045,0.019760487548477833,True
44135,173403,0,173404,5039.0,43108.0,39884.0,0.000793,0.001281,-0.001098,0.29750000000000004,-1.4875,-3.7275000000000005,1.0655000000000001,0.34059375000000003,0.2789375,1.3174062500000001,1.0459375,-0.132375,-0.19543750000000001,1.2824375000000001,0.01959893089677249,0.019605969100579396,True
44136,173404,0,173405,5038.0,43111.0,39885.0,0.0008539999999999999,6.1e-05,0.0,0.3325,-1.3650000000000002,-3.7275000000000005,1.06315625,0.34196875,0.279125,1.31446875,1.04628125,-0.1326875,-0.19715625,1.28153125,0.01966860300992171,0.019683356386145583,True
44137,173405,0,173406,5036.0,43113.0,39887.0,-0.000793,-0.000976,0.0026839999999999998,0.36750000000000005,-1.4000000000000001,-3.6750000000000003,1.069375,0.33978125000000003,0.27734375,1.3193125,1.0438125,-0.1325,-0.198375,1.28321875,0.019570340826686006,0.019659119672292044,True
44138,173406,0,173407,5038.0,43113.0,39886.0,0.0008539999999999999,-6.1e-05,0.001769,0.47250000000000003,-1.4000000000000001,-3.6750000000000003,1.06921875,0.34053125,0.27696875,1.31975,1.04296875,-0.1328125,-0.1978125,1.2807187500000001,0.019614114600194237,0.019620833494763214,True
44139,173407,0,173408,5038.0,43114.0,39887.0,-0.001769,-0.00042699999999999997,-0.001464,0.385,-1.33,-3.8325000000000005,1.07584375,0.34178125,0.27975,1.313375,1.05775,-0.13353125,-0.19859375,1.27575,0.019695107818090234,0.01976741933609262,True
44140,173408,0,173409,5036.0,43118.0,39888.0,-0.002623,-0.000488,-0.0018909999999999999,0.3325,-1.4175000000000002,-3.7450000000000006,1.069,0.3365625,0.27709375,1.31915625,1.03990625,-0.14440625,-0.19903125,1.2793125,0.019920504361129195,0.019675374401609567,True
44141,173409,0,173410,5038.0,43120.0,39887.0,-0.000915,-0.000122,-0.00042699999999999997,0.385,-1.4175000000000002,-3.7975000000000003,1.069125,0.341,0.27934375,1.31465625,1.029375,-0.12309375,-0.194125,1.26415625,0.01923856677794489,0.01956957525845634,True
44142,173410,0,173411,5040.0,43122.0,39886.0,0.0008539999999999999,-0.000244,0.002074,0.2625,-1.5225000000000002,-3.7450000000000006,1.0685,0.34009375000000003,0.27703125,1.3198750000000001,1.0370625,-0.1411875,-0.20590625,1.289625,0.019936105048684948,0.019951225746815408,True
44143,173411,0,173412,5039.0,43122.0,39889.0,0.001586,-0.001098,0.0013419999999999999,0.24500000000000002,-1.5925000000000002,-3.7800000000000002,1.07059375,0.339875,0.2819375,1.3143125,1.031125,-0.12871875,-0.197,1.27896875,0.01942058154248244,0.01979325949497872,True
44144,173412,0,173413,5039.0,43124.0,39889.0,0.000732,0.000976,-0.0017079999999999999,0.385,-1.5750000000000002,-3.7100000000000004,1.07228125,0.33934375,0.27953125,1.31409375,1.04778125,-0.14259375,-0.19840625,1.2709062500000001,0.019962126066094286,0.019750784207121078,True
44145,173413,0,173414,5042.0,43122.0,39890.0,-0.0013419999999999999,0.0011589999999999999,-0.001769,0.36750000000000005,-1.6450000000000002,-3.7625,1.0690625,0.338875,0.28059375000000003,1.31478125,1.0414375,-0.1445,-0.20046875,1.25859375,0.02002008739050301,0.01987823066443703,True
44146,173414,0,173415,5043.0,43123.0,39890.0,-0.0011589999999999999,0.001281,-0.000366,0.5075000000000001,-1.7500000000000002,-3.7275000000000005,1.06875,0.3399375,0.277125,1.31575,1.0343125,-0.136875,-0.20496875,1.27971875,0.01975452497475336,0.01991713994673098,True
44147,173415,0,173416,5042.0,43122.0,39892.0,0.001952,-0.0006709999999999999,0.000305,0.385,-1.8375000000000001,-3.6400000000000006,1.070125,0.339875,0.2769375,1.31453125,1.029625,-0.13418750000000002,-0.20440625,1.2655625,0.019642778527348394,0.019886616718805074,True
44148,173416,0,173417,5045.0,43121.0,39893.0,0.002806,-0.0013419999999999999,0.0017079999999999999,0.3325,-1.7675,-3.6050000000000004,1.07134375,0.34503125,0.27978125,1.3111875,1.04484375,-0.1413125,-0.19634375,1.2706250000000001,0.020145704588348294,0.019677559755283274,True
44149,173417,0,173418,5043.0,43122.0,39894.0,0.0,0.000549,-0.00042699999999999997,0.3325,-1.2425000000000002,-3.6925000000000003,1.07015625,0.34018750000000003,0.2793125,1.3146875,1.06046875,-0.14021875,-0.19409375,1.27215625,0.019900658522408795,0.019567017260152596,True
44150,173418,0,173419,5045.0,43120.0,39895.0,-0.003294,0.00122,-0.001098,0.36750000000000005,-1.1025,-3.7450000000000006,1.07684375,0.33925,0.28021875,1.314625,1.043,-0.13634375,-0.19868750000000002,1.2815,0.01970446538738909,0.019790587815971428,True
44151,173419,0,173420,5045.0,43119.0,39896.0,-0.002623,-0.000366,-0.0013419999999999999,0.31500000000000006,-1.2075,-3.6050000000000004,1.07496875,0.33975,0.28009375000000003,1.313375,1.037875,-0.13446875,-0.1995,1.28175,0.019649023763989006,0.019818333023409577,True
44152,173420,0,173421,5048.0,43117.0,39898.0,-0.002928,0.0,-0.00042699999999999997,0.22750000000000004,-1.3125000000000002,-3.6225000000000005,1.07615625,0.34068750000000003,0.2830625,1.3194062500000001,1.03509375,-0.13684375000000001,-0.1975,1.2811875,0.01978432867801947,0.019860006198987496,True
44153,173421,0,173422,5049.0,43113.0,39898.0,0.000732,-0.001647,0.002013,0.2625,-1.435,-3.5700000000000003,1.07078125,0.34134375,0.27684375,1.31884375,1.05128125,-0.13278125,-0.19821875,1.2870625,0.01964651297703202,0.019632126848179682,True
44154,173422,0,173423,5050.0,43114.0,39898.0,0.0026839999999999998,0.000244,0.0015249999999999999,0.31500000000000006,-1.5575,-3.6575,1.06965625,0.34059375000000003,0.2775,1.31671875,1.04275,-0.13271875,-0.197375,1.289375,0.019612895873988505,0.019625062635926418,True
44155,173423,0,173424,5051.0,43113.0,39900.0,0.0,0.0006709999999999999,-0.00183,0.385,-1.4175000000000002,-3.6750000000000003,1.06921875,0.340375,0.28021875,1.31884375,1.0484375,-0.13090625,-0.1980625,1.27084375,0.019530192737788287,0.01976527046328606,True
44156,173424,0,173425,5053.0,43111.0,39902.0,-0.003477,0.003904,-0.0025009999999999998,0.4025,-1.2600000000000002,-3.6400000000000006,1.07128125,0.34128125,0.278875,1.314,1.05125,-0.1319375,-0.19765625,1.28696875,0.019609645930833364,0.01969328124495528,True
44157,173425,0,173426,5054.0,43111.0,39904.0,-0.002989,0.003172,-0.001647,0.35000000000000003,-1.3825,-3.6750000000000003,1.0694062500000001,0.33868750000000003,0.2790625,1.31484375,1.04003125,-0.13293750000000001,-0.1948125,1.28846875,0.01954279291528435,0.019585809974762152,True
44158,173426,0,173427,5055.0,43108.0,39907.0,-0.000976,-0.0006709999999999999,0.002196,0.21000000000000002,-1.4875,-3.7975000000000003,1.0694375,0.34018750000000003,0.27821875,1.31375,1.03659375,-0.1328125,-0.198625,1.2896875,0.0195998705082551,0.019705406815469888,True
44159,173427,0,173428,5057.0,43109.0,39905.0,0.001647,-0.0034159999999999998,-0.0008539999999999999,0.17500000000000002,-1.8025000000000002,-3.9550000000000005,1.06921875,0.337125,0.28478125,1.31540625,1.04278125,-0.13203125,-0.20040625,1.28746875,0.019441225031564632,0.02004873368603058,True
44160,173428,0,173429,5057.0,43109.0,39909.0,0.004209,-0.00042699999999999997,-0.000915,0.28,-2.0475000000000003,-3.8675,1.0671875,0.34290625,0.27878125,1.32853125,1.04271875,-0.13415625,-0.20040625,1.28159375,0.019767109115322815,0.019800803963776432,True
44161,173429,0,173430,5059.0,43107.0,39910.0,0.001647,-0.00183,-0.000122,0.29750000000000004,-2.0650000000000004,-3.8500000000000005,1.066,0.34309375000000003,0.27384375,1.3088125,1.04921875,-0.13271875,-0.19768750000000002,1.2899375,0.019716489672345766,0.01948662449665903,True
44162,173430,0,173431,5060.0,43107.0,39911.0,0.001647,0.000732,-0.001403,0.31500000000000006,-1.7325000000000002,-3.7450000000000006,1.068,0.33303125,0.28271875,1.30146875,1.04278125,-0.132875,-0.195375,1.28803125,0.01930587424830237,0.01975971647473949,True
44163,173431,0,173432,5062.0,43111.0,39915.0,0.0,0.002745,-0.00042699999999999997,0.4025,-1.6275000000000002,-3.7450000000000006,1.07034375,0.33825,0.28278125,1.3082500000000001,1.04203125,-0.13334375,-0.19875,1.28515625,0.019541169051636286,0.019899013378790225,True
44164,173432,0,173433,5063.0,43112.0,39914.0,-0.0006709999999999999,0.001586,0.002257,0.43750000000000006,-1.6975000000000002,-3.6925000000000003,1.0852187500000001,0.34053125,0.281875,1.3205,1.04240625,-0.13596875,-0.198,1.272875,0.019742319230505304,0.01983118439540458,True
44165,173433,0,173434,5063.0,43113.0,39914.0,-0.0011589999999999999,-0.000122,0.0011589999999999999,0.21000000000000002,-1.54,-3.6050000000000004,1.06846875,0.343125,0.27825,1.32853125,1.04209375,-0.13640625,-0.197625,1.2825,0.019867549668874173,0.019666186247617276,True
44166,173434,0,173435,5066.0,43113.0,39914.0,-0.004209,-0.000366,-0.002806,0.42000000000000004,-1.4175000000000002,-3.6925000000000003,1.05921875,0.34709375000000003,0.2774375,1.32946875,1.04790625,-0.13493750000000002,-0.19784375,1.28146875,0.019972342998609383,0.0196414711538089,True
44167,173435,0,173436,5066.0,43117.0,39918.0,-0.0046359999999999995,0.00061,-0.005612,0.31500000000000006,-1.5750000000000002,-3.6925000000000003,1.0621875,0.34175,0.27034375,1.3141875,1.05115625,-0.1345,-0.19759375,1.2868125000000001,0.019733162070894365,0.019338183161290573,True
44168,173436,0,173437,5066.0,43117.0,39920.0,0.001647,-0.001952,-0.00042699999999999997,0.36750000000000005,-1.6800000000000002,-3.6050000000000004,1.0581875,0.3309375,0.2804375,1.30853125,1.046,-0.133125,-0.198625,1.28621875,0.01922927511459871,0.019797095909375017,True
44169,173437,0,173438,5068.0,43119.0,39919.0,0.0044529999999999995,-0.002196,0.0034159999999999998,0.385,-1.8375000000000001,-3.6400000000000006,1.06946875,0.334125,0.28165625,1.3168125,1.04153125,-0.12803125,-0.2014375,1.28184375,0.01915432905450999,0.01996136593125925,True
44170,173438,0,173439,5068.0,43118.0,39917.0,0.003538,-0.001647,0.005246,0.22750000000000004,-1.9075000000000002,-3.7100000000000004,1.07403125,0.34225,0.28025,1.3210625,1.0463437500000001,-0.134875,-0.19768750000000002,1.28134375,0.01976911005339783,0.01975137086963372,True
44171,173439,0,173440,5068.0,43118.0,39916.0,0.0015249999999999999,-0.000976,0.004209,0.29750000000000004,-1.7850000000000001,-3.6925000000000003,1.0717812500000001,0.340875,0.2808125,1.31184375,1.046625,-0.13634375,-0.20034375000000001,1.27675,0.019771791243236664,0.019882207251704847,True
44172,173440,0,173441,5065.0,43116.0,39914.0,-0.00122,0.00061,0.001403,0.2625,-1.8200000000000003,-3.7625,1.07365625,0.3389375,0.2798125,1.31384375,1.0425312500000001,-0.1343125,-0.19871875,1.2805,0.019609011029421284,0.019775065570362068,True
44173,173441,0,173442,5063.0,43116.0,39911.0,-6.1e-05,0.000488,-0.002196,0.07,-1.5750000000000002,-3.8150000000000004,1.070625,0.337875,0.2794375,1.3146875,1.0433125,-0.13515625,-0.200875,1.27715625,0.01959926196873078,0.019846906361856754,True
44174,173442,0,173443,5059.0,43117.0,39908.0,0.00122,0.001037,6.1e-05,0.15750000000000003,-1.7850000000000001,-3.7975000000000003,1.0769375,0.34878125,0.28734375,1.3204375,1.04290625,-0.13521875,-0.197125,1.28153125,0.02005368192488415,0.020021748451520584,True
44175,173443,0,173444,5055.0,43116.0,39906.0,0.001464,0.0021349999999999997,0.000732,0.28,-2.1,-3.8150000000000004,1.0740625,0.34128125,0.28303125,1.31990625,1.04884375,-0.13293750000000001,-0.1973125,1.2785,0.019650270506853963,0.019851119829939794,True
44176,173444,0,173445,5050.0,43115.0,39903.0,0.00244,0.00042699999999999997,-0.000122,0.2625,-1.9075000000000002,-3.7625,1.06415625,0.347875,0.27609375,1.32121875,1.04846875,-0.1325,-0.1980625,1.28775,0.01990572878897752,0.01959480226980983,True
44177,173445,0,173446,5046.0,43112.0,39903.0,0.0011589999999999999,-0.000549,0.000183,0.29750000000000004,-1.5050000000000001,-3.7800000000000002,1.06928125,0.34103125,0.2768125,1.31915625,1.04828125,-0.13334375,-0.19746875,1.28771875,0.01965641416763891,0.019600448910591112,True
44178,173446,0,173447,5044.0,43111.0,39901.0,-0.001281,0.000732,-0.0006709999999999999,0.1925,-1.4000000000000001,-3.99,1.06946875,0.34115625,0.27568750000000003,1.31446875,1.049625,-0.13346875,-0.19746875,1.2876875,0.019666671414568203,0.01955395644430784,True
44179,173447,0,173448,5038.0,43109.0,39899.0,-0.0018909999999999999,-0.000488,0.001098,0.31500000000000006,-1.435,-3.9375000000000004,1.0641875,0.33746875,0.2768125,1.31421875,1.04221875,-0.13296875,-0.20115625,1.28721875,0.01949356106467423,0.019749831167674068,True
44180,173448,0,173449,5035.0,43105.0,39897.0,-0.00183,0.0006709999999999999,0.000976,0.36750000000000005,-1.5225000000000002,-3.9025000000000003,1.07728125,0.340375,0.27934375,1.31803125,1.04190625,-0.13515625,-0.19721875,1.28159375,0.019702845304761595,0.019694928781846054,True
44181,173449,0,173450,5031.0,43105.0,39893.0,0.000976,-0.00042699999999999997,-0.00122,0.43750000000000006,-1.5925000000000002,-3.8150000000000004,1.07775,0.34196875,0.27921875,1.32221875,1.04653125,-0.13709375000000001,-0.197375,1.28134375,0.019847563462357602,0.01969609306794642,True
44182,173450,0,173451,5030.0,43104.0,39894.0,-0.000122,-0.00061,-0.000366,0.36750000000000005,-1.6975000000000002,-3.8150000000000004,1.0706875,0.3414375,0.276125,1.31734375,1.0486875,-0.13209375,-0.198375,1.286125,0.019622468522856623,0.01960875472010001,True
44183,173451,0,173452,5027.0,43100.0,39892.0,0.001281,0.000122,-0.000122,0.4025,-1.9775000000000003,-3.7275000000000005,1.06928125,0.34096875,0.2775,1.32240625,1.04703125,-0.13253125,-0.19815625,1.28753125,0.01962081785349392,0.019656714548241666,True
44184,173452,0,173453,5026.0,43102.0,39891.0,0.0008539999999999999,-0.0006709999999999999,-0.0011589999999999999,0.29750000000000004,-1.8550000000000002,-3.7625,1.0695000000000001,0.3418125,0.279125,1.31896875,1.049,-0.13275,-0.19718750000000002,1.28165625,0.019664667308947382,0.019684622438041612,True
44185,173453,0,173454,5026.0,43101.0,39889.0,-0.001281,-0.001281,-0.004209,0.24500000000000002,-1.8550000000000002,-3.7975000000000003,1.07009375,0.33825,0.27978125,1.31221875,1.0482500000000001,-0.1348125,-0.1993125,1.28146875,0.019600835929427667,0.01979782483489975,True
44186,173454,0,173455,5023.0,43101.0,39893.0,0.000183,0.0008539999999999999,-0.0025009999999999998,0.385,-1.8900000000000001,-3.6925000000000003,1.0745,0.33934375,0.27609375,1.3144375,1.0420625000000001,-0.1330625,-0.19643750000000001,1.2865,0.01957506429198532,0.019528959583409753,True
44187,173455,0,173456,5024.0,43103.0,39891.0,0.001098,0.000183,0.001403,0.35000000000000003,-1.7325000000000002,-3.6225000000000005,1.0694375,0.33840625,0.27965625,1.3145,1.04275,-0.1328125,-0.19978125,1.2820625,0.01952606021366138,0.019811646024692885,True
44188,173456,0,173457,5025.0,43100.0,39890.0,0.000366,-0.00122,0.001952,0.29750000000000004,-1.225,-3.7625,1.07478125,0.343,0.28025,1.3171875,1.0433125,-0.1355,-0.19703125,1.28115625,0.019825568146506184,0.019724785452760865,True
44189,173457,0,173458,5024.0,43099.0,39887.0,-0.001403,0.0015249999999999999,-0.001586,0.42000000000000004,-1.3825,-3.7450000000000006,1.073625,0.34168750000000003,0.27965625,1.31671875,1.04490625,-0.13425,-0.197625,1.28103125,0.019720418078042614,0.019724301455204797,True
44190,173458,0,173459,5021.0,43101.0,39889.0,-0.0025009999999999998,0.001952,-0.001586,0.35000000000000003,-1.4875,-3.6750000000000003,1.07353125,0.33918750000000003,0.2798125,1.31346875,1.03759375,-0.13443750000000002,-0.197875,1.282,0.01962444743118625,0.01974088633815986,True
44191,173459,0,173460,5023.0,43100.0,39890.0,-0.002379,-0.000122,0.000915,0.31500000000000006,-1.5575,-3.6225000000000005,1.07,0.33928125000000003,0.28003125,1.317375,1.04246875,-0.12959375,-0.19928125,1.2906250000000001,0.019431533114808452,0.019806889925708022,True
44192,173460,0,173461,5024.0,43101.0,39894.0,-0.000488,-0.00061,0.00244,0.28,-1.4875,-3.7625,1.07390625,0.34175,0.28,1.3096875000000001,1.05009375,-0.13665625,-0.1965,1.27903125,0.019820734282529295,0.01969293079577625,True
44193,173461,0,173462,5025.0,43103.0,39892.0,0.0030499999999999998,0.000305,-0.00244,0.35000000000000003,-1.9075000000000002,-3.6750000000000003,1.07428125,0.34228125,0.28009375000000003,1.319625,1.0429375,-0.13846875,-0.195625,1.2786875,0.019916342042201825,0.01966135406710924,True
44194,173462,0,173463,5025.0,43103.0,39894.0,0.002562,0.000183,-0.003965,0.3325,-1.8725000000000003,-3.6400000000000006,1.07528125,0.343125,0.28421875,1.33115625,1.05240625,-0.13568750000000002,-0.19593750000000001,1.27921875,0.019838361762017347,0.01984449868908779,True
44195,173463,0,173464,5026.0,43101.0,39896.0,0.0006709999999999999,-0.002074,-0.001098,0.28,-1.5050000000000001,-3.6400000000000006,1.067,0.34059375000000003,0.27634375,1.31134375,1.0542500000000001,-0.130625,-0.19915625,1.28959375,0.019527830298635036,0.01964944542229649,True
44196,173464,0,173465,5026.0,43103.0,39896.0,-0.0008539999999999999,0.000244,0.001647,0.29750000000000004,-1.1900000000000002,-3.5175000000000005,1.0915,0.33396875,0.28121875,1.33353125,1.03875,-0.13553125,-0.19784375,1.27875,0.019452648261057026,0.019797735077118184,True
44197,173465,0,173466,5028.0,43101.0,39896.0,-0.0025009999999999998,-0.001281,0.00366,0.36750000000000005,-1.1025,-3.6400000000000006,1.07825,0.343625,0.26821875,1.3251875,1.05084375,-0.13834375000000002,-0.1963125,1.2855625,0.019966935386774416,0.019198431579192078,True
44198,173466,0,173467,5028.0,43101.0,39896.0,-0.000976,0.0011589999999999999,-0.000366,0.36750000000000005,-1.2775,-3.6225000000000005,1.0559375,0.337625,0.27428125000000003,1.30309375,1.05553125,-0.1294375,-0.1970625,1.29240625,0.01935654322650497,0.019479378953540332,True
44199,173467,0,173468,5029.0,43104.0,39895.0,-0.0008539999999999999,0.00042699999999999997,-0.00061,0.28,-1.2600000000000002,-3.6750000000000003,1.060125,0.33359375,0.284625,1.3178750000000001,1.0389375,-0.132625,-0.20128125,1.27746875,0.01931902352106329,0.02007770766268831,True
44200,173468,0,173469,5027.0,43100.0,39898.0,-0.00183,-0.00061,6.1e-05,0.35000000000000003,-1.3125000000000002,-3.6925000000000003,1.08934375,0.3444375,0.27968750000000003,1.3351250000000001,1.0405312500000001,-0.13940625,-0.19609375,1.27828125,0.020043730363086293,0.019663556230021636,True
44201,173469,0,173470,5030.0,43103.0,39900.0,6.1e-05,0.00042699999999999997,-0.000732,0.35000000000000003,-1.54,-3.6750000000000003,1.06428125,0.34453125,0.27490625,1.3214062500000001,1.0573125,-0.13509375,-0.1955625,1.2823125,0.019872514479045686,0.019444422918458704,True
44202,173470,0,173471,5029.0,43109.0,39900.0,0.000122,0.0006709999999999999,-0.005124,0.43750000000000006,-1.8025000000000002,-3.7100000000000004,1.07328125,0.344375,0.27503125,1.32184375,1.0519687500000001,-0.13403125,-0.19575,1.2819375,0.019822890135687547,0.019457187729249974,True
44203,173471,0,173472,5028.0,43114.0,39904.0,0.002074,6.1e-05,-0.004575,0.5425000000000001,-1.6975000000000002,-3.6225000000000005,1.05709375,0.34271875,0.27884375,1.3039375,1.04821875,-0.1321875,-0.19821875,1.28915625,0.019679370135840358,0.019714777559815225,True
44204,173472,0,173473,5029.0,43119.0,39910.0,0.00183,-0.003111,0.007076,0.5425000000000001,-1.4525000000000001,-3.6400000000000006,1.06128125,0.34046875,0.2704375,1.3046875,1.043125,-0.13265625,-0.19840625,1.28771875,0.019605177113480827,0.019374984664537565,True
44205,173473,0,173474,5029.0,43122.0,39911.0,0.003965,-0.004392,0.012444,0.35000000000000003,-1.155,-3.7100000000000004,1.05715625,0.335125,0.27715625,1.31803125,1.0425625,-0.13240625,-0.19790625,1.28759375,0.01937358608820867,0.019632380384149974,True
44206,173474,0,173475,5028.0,43128.0,39914.0,0.001403,-0.0044529999999999995,0.010858,0.5775,-0.9625000000000001,-3.7275000000000005,1.06225,0.342875,0.28134375,1.31059375,1.05065625,-0.13425,-0.1975,1.28165625,0.0197696220102137,0.01978897613389813,True
44207,173475,0,173476,5026.0,43129.0,39913.0,-0.000732,0.005063,0.001586,0.9100000000000001,-0.9100000000000001,-3.7450000000000006,1.07225,0.34109375000000003,0.279375,1.32146875,1.04503125,-0.13421875,-0.19740625,1.28603125,0.019694546772930036,0.01970381639561058,True
44208,173476,0,173477,5027.0,43132.0,39915.0,-0.015616,0.007137,0.002196,0.6300000000000001,-0.9625000000000001,-3.535,1.06953125,0.340125,0.27621875,1.3145,1.04609375,-0.13346875,-0.19840625,1.28378125,0.019623940300749352,0.019613895026661103,True
44209,173477,0,173478,5027.0,43133.0,39917.0,-0.002074,0.001464,-0.003477,0.45500000000000007,-2.1,-3.3950000000000005,1.07609375,0.338875,0.2795,1.3178750000000001,1.0418125,-0.13346875,-0.19734375,1.2814375,0.019572145011271948,0.01970645021728883,True
44210,173478,0,173479,5027.0,43136.0,39920.0,0.016226,-0.002257,-0.008357,0.3325,-3.0625000000000004,-3.6225000000000005,1.07196875,0.34071875,0.276125,1.31475,1.04871875,-0.13221875,-0.19996875,1.28240625,0.01959776284557341,0.01967332085914367,True
44211,173479,0,173480,5027.0,43138.0,39919.0,0.012627,-0.005063,-0.0070149999999999995,0.24500000000000002,-2.8875,-3.7100000000000004,1.06971875,0.34003125,0.28009375000000003,1.31403125,1.0428125,-0.13378125,-0.19903125,1.28240625,0.019632750255412213,0.019799346306476628,True
44212,173480,0,173481,5027.0,43142.0,39923.0,0.001952,-0.003721,0.001647,0.42000000000000004,-1.7850000000000001,-3.6400000000000006,1.07534375,0.34168750000000003,0.2794375,1.31390625,1.044,-0.1305,-0.19721875,1.2749062500000001,0.019568077743934025,0.01969880319406543,True
44213,173481,0,173482,5028.0,43143.0,39922.0,-0.012931999999999999,0.0011589999999999999,-0.002623,0.5425000000000001,-0.6825000000000001,-3.6225000000000005,1.07603125,0.34268750000000003,0.28009375000000003,1.32078125,1.0441875,-0.13484375,-0.19790625,1.282,0.019785968160659837,0.019753775184578215,True
44214,173482,0,173483,5028.0,43147.0,39926.0,-0.0060999999999999995,0.00122,-0.001464,0.47250000000000003,-0.9100000000000001,-3.6225000000000005,1.074,0.34165625,0.27940625,1.32003125,1.04915625,-0.13284375,-0.19768750000000002,1.28971875,0.019662001085139418,0.01971650183514437,True
44215,173483,0,173484,5028.0,43150.0,39925.0,0.00042699999999999997,-0.0026839999999999998,0.0015249999999999999,0.385,-1.4000000000000001,-3.7625,1.06984375,0.3405,0.27628125,1.31896875,1.04478125,-0.13303125,-0.19421875,1.28790625,0.01962170624545974,0.019446794495069197,True
44216,173484,0,173485,5030.0,43152.0,39931.0,0.006588,-0.0025009999999999998,0.002196,0.31500000000000006,-2.0125,-3.8150000000000004,1.06703125,0.34078125,0.2783125,1.31509375,1.0419375,-0.13325,-0.20015625,1.28959375,0.01964224669284079,0.01977130829475533,True
44217,173485,0,173486,5029.0,43153.0,39929.0,0.008723,-0.002074,0.0037819999999999998,0.43750000000000006,-2.3975000000000004,-3.7450000000000006,1.069,0.34096875,0.2754375,1.3144375,1.04275,-0.1273125,-0.1985,1.2875,0.019408761336348588,0.01958540818645784,True
44218,173486,0,173487,5031.0,43154.0,39931.0,0.000366,0.001952,-0.002257,0.35000000000000003,-2.1175,-3.6750000000000003,1.0685625,0.34096875,0.27684375,1.315,1.0421562500000001,-0.13293750000000001,-0.20065625,1.28590625,0.019637321399435935,0.019730869901513518,True
44219,173487,0,173488,5029.0,43152.0,39932.0,-0.000976,0.002562,-0.002989,0.3325,-1.8550000000000002,-3.7800000000000002,1.0698125,0.3385,0.2789375,1.3135937500000001,1.04228125,-0.13375,-0.19821875,1.2867187500000001,0.019568032319883983,0.01971865181192314,True
44220,173488,0,173489,5032.0,43153.0,39933.0,0.001464,0.000732,-0.0006709999999999999,0.22750000000000004,-1.7500000000000002,-3.8325000000000005,1.0696875000000001,0.341125,0.28334375,1.315,1.043375,-0.133,-0.19825,1.28603125,0.019646334894128373,0.01990200737656649,True
44221,173489,0,173490,5034.0,43156.0,39935.0,0.0030499999999999998,-0.001952,-0.000305,0.17500000000000002,-1.54,-3.9025000000000003,1.069625,0.339875,0.28003125,1.3145,1.0422500000000001,-0.1338125,-0.19940625,1.2805312500000001,0.019627545378501633,0.019811953030872402,True
44222,173490,0,173491,5035.0,43153.0,39935.0,-0.000488,-0.0013419999999999999,-0.000976,0.21000000000000002,-1.2775,-3.7800000000000002,1.07284375,0.3383125,0.2800625,1.3139687500000001,1.04265625,-0.135625,-0.19771875,1.2763125,0.019636429551751818,0.019744888141573262,True
44223,173491,0,173492,5035.0,43152.0,39935.0,-0.004758,0.0013419999999999999,0.002196,0.3325,-1.155,-3.7100000000000004,1.0766875,0.337875,0.2790625,1.3144375,1.0425,-0.13484375,-0.19743750000000002,1.28175,0.019586567656979338,0.019692167817356696,True
44224,173492,0,173493,5037.0,43153.0,39935.0,-0.002013,6.1e-05,-0.0006709999999999999,0.21000000000000002,-1.225,-3.6925000000000003,1.07796875,0.3415,0.281375,1.3203125,1.04821875,-0.13378125,-0.19790625,1.2850625,0.019693608932499957,0.01980672398050968,True
44225,173493,0,173494,5037.0,43152.0,39937.0,0.000122,-0.001647,-0.001647,0.21000000000000002,-1.3825,-3.7275000000000005,1.062375,0.34065625,0.27725,1.321,1.04265625,-0.1305625,-0.19815625,1.28721875,0.01952788087720707,0.019646383182603016,True
44226,173494,0,173495,5038.0,43153.0,39941.0,0.001037,-0.001769,-0.001037,0.052500000000000005,-1.4000000000000001,-3.6925000000000003,1.06953125,0.34075,0.27925,1.32234375,1.04375,-0.132625,-0.19793750000000002,1.28984375,0.01961556192084367,0.019720172432051285,True
44227,173495,0,173496,5038.0,43151.0,39940.0,-6.1e-05,-0.000732,-0.000732,0.17500000000000002,-1.2775,-3.6750000000000003,1.075,0.34134375,0.280125,1.3045,1.05509375,-0.1289375,-0.19696875,1.27896875,0.019490342249840052,0.019717087496755145,True
44228,173496,0,173497,5040.0,43151.0,39943.0,0.00042699999999999997,0.0008539999999999999,0.0008539999999999999,0.14,-1.0850000000000002,-3.5525,1.07665625,0.33890625,0.28003125,1.3137812500000001,1.057125,-0.1380625,-0.1951875,1.276,0.01976002630699958,0.01964104431924737,True
44229,173497,0,173498,5044.0,43151.0,39944.0,-0.000305,0.0023179999999999997,0.000366,0.31500000000000006,-1.1025,-3.5175000000000005,1.0733125000000001,0.33865625,0.277125,1.315,1.0462500000000001,-0.14046875,-0.19971875,1.2685,0.019847377652929793,0.019704516194015687,True
44230,173498,0,173499,5044.0,43146.0,39944.0,-0.0046359999999999995,0.004331,0.001098,0.47250000000000003,-1.2600000000000002,-3.6050000000000004,1.06871875,0.3408125,0.27884375,1.32125,1.03621875,-0.13121875,-0.19821875,1.297,0.019561019892540655,0.019714777559815225,True
