frame_seq,absolute_seq_u64,segment_id,sample_seq,PPG_G,PPG_R,PPG_IR,ACC_X,ACC_Y,ACC_Z,GYRO_X,GYRO_Y,GYRO_Z,Uh1,Uh2,Uh3,Uh4,Uc1,Uc2,Uc3,Uc4,UD1,UD2,parser_valid
19565,150210,0,150211,3729.0,41746.0,30102.0,-0.0070149999999999995,-0.000366,0.0026839999999999998,0.4025,-0.29750000000000004,-3.4125000000000005,1.13075,0.2729375,0.19809375,1.37625,1.1024375,-0.21740625,-0.43640625,1.3228125,0.020247575026743417,0.02596535650572596,True
19566,150211,0,150212,3729.0,41747.0,30105.0,-0.010919,-0.000488,0.0051849999999999995,0.31500000000000006,-0.0175,-3.4125000000000005,1.14540625,0.2719375,0.19875,1.37578125,1.09415625,-0.212625,-0.436625,1.3238125,0.020012803237980187,0.026000930979625872,True
19567,150212,0,150213,3729.0,41745.0,30107.0,-0.008418,0.002623,0.00042699999999999997,0.2625,-0.5950000000000001,-3.0975,1.135625,0.27459375,0.1985625,1.37690625,1.10115625,-0.21646875000000002,-0.43678125,1.3204375,0.020278039092714542,0.02599948591838379,True
19568,150213,0,150214,3728.0,41748.0,30107.0,-0.0032329999999999998,0.0018909999999999999,0.001098,0.14,-1.5750000000000002,-3.3425000000000002,1.14559375,0.27465625,0.1988125,1.3825,1.10159375,-0.21615625,-0.43634375000000003,1.317125,0.020267977086578303,0.025992278407034608,True
19569,150214,0,150215,3729.0,41750.0,30108.0,0.0026839999999999998,0.0006709999999999999,0.001464,0.07,-2.5025000000000004,-3.6400000000000006,1.13821875,0.2765625,0.19746875,1.3760625,1.1050312500000001,-0.21909375,-0.4296875,1.323,0.02046551597332167,0.02567188999040614,True
19570,150215,0,150216,3728.0,41749.0,30107.0,0.006527,-0.001586,0.0,0.07,-3.0975,-3.6750000000000003,1.14353125,0.2753125,0.19715625,1.3764687500000001,1.1024375,-0.21609375,-0.43528125,1.31709375,0.020292548214965515,0.025882145309868286,True
19571,150216,0,150217,3730.0,41750.0,30106.0,0.008173999999999999,-0.001403,-0.002989,-0.0175,-3.1850000000000005,-3.535,1.13846875,0.27334375,0.19890625,1.3683125,1.09984375,-0.21478125,-0.43046875,1.31275,0.020158142043922037,0.025761888011256437,True
19572,150217,0,150218,3730.0,41748.0,30106.0,0.0034159999999999998,-0.000549,-0.0030499999999999998,0.07,-2.415,-3.43,1.13934375,0.275875,0.1983125,1.3762812500000001,1.1010625,-0.21475,-0.43328125,1.32334375,0.020261410916899824,0.025849731091684622,True
19573,150218,0,150219,3731.0,41751.0,30109.0,6.1e-05,-0.000122,-0.0048189999999999995,-0.0175,-1.7675,-3.2900000000000005,1.1414375,0.27618750000000003,0.19809375,1.37596875,1.101375,-0.212625,-0.4351875,1.32125,0.02018833150061177,0.02591677473315889,True
19574,150219,0,150220,3731.0,41751.0,30108.0,-0.00042699999999999997,0.00061,-0.004026,0.052500000000000005,-1.61,-3.22,1.1380937500000001,0.27621875,0.19825,1.37746875,1.109875,-0.21765625,-0.43415625,1.32709375,0.020393179046795662,0.0258820580309582,True
19575,150220,0,150221,3731.0,41752.0,30107.0,-0.000732,-0.000183,0.0008539999999999999,0.15750000000000003,-1.8550000000000002,-3.1850000000000005,1.14240625,0.27559375,0.2015,1.38234375,1.10271875,-0.21640625,-0.43921875,1.3155000000000001,0.02031680485208246,0.02621682618230176,True
19576,150221,0,150222,3730.0,41751.0,30105.0,0.0011589999999999999,0.001037,0.002562,0.22750000000000004,-2.24,-3.4125000000000005,1.1385625,0.27578125000000003,0.20021875,1.377375,1.09871875,-0.223,-0.42596875,1.31503125,0.02059122528175701,0.02563613776833314,True
19577,150222,0,150223,3733.0,41751.0,30109.0,0.007991,-0.001464,0.0013419999999999999,0.15750000000000003,-2.5725000000000002,-3.6925000000000003,1.13825,0.27140625,0.1955625,1.37721875,1.1107500000000001,-0.21609375,-0.4328125,1.3259375,0.020131240200538126,0.025718488201061585,True
19578,150223,0,150224,3733.0,41753.0,30109.0,0.0068319999999999995,-0.002806,6.1e-05,0.28,-2.1875,-3.7100000000000004,1.13796875,0.2680625,0.19621875,1.3729375,1.10596875,-0.21315625,-0.4343125,1.32575,0.019874267734096004,0.025805156171265303,True
19579,150224,0,150225,3732.0,41753.0,30108.0,0.001464,-0.0025009999999999998,-0.00183,0.31500000000000006,-1.3825,-3.7450000000000006,1.16015625,0.27084375,0.20284375000000002,1.39071875,1.0905,-0.22134375,-0.436125,1.31546875,0.020320404395400234,0.026148530096322554,True
19580,150225,0,150226,3734.0,41752.0,30109.0,-0.004575,6.1e-05,-0.001098,0.4025,-0.47250000000000003,-3.5175000000000005,1.1167500000000001,0.26678125,0.201,1.39175,1.1120625,-0.2159375,-0.43759375,1.31384375,0.0199339278109716,0.02613161330583131,True
19581,150226,0,150227,3734.0,41754.0,30110.0,-0.009211,0.000305,0.000244,0.42000000000000004,0.1925,-3.2550000000000003,1.1377187500000001,0.28003125,0.19228125000000001,1.3815,1.109625,-0.22265625,-0.43328125,1.321125,0.02075278180938558,0.025602885408606346,True
19582,150227,0,150228,3734.0,41755.0,30111.0,-0.012322,0.002928,0.004026,0.45500000000000007,0.29750000000000004,-3.2025,1.1260000000000001,0.27309375,0.2039375,1.36571875,1.11178125,-0.21678125,-0.4368125,1.32390625,0.020228741175089073,0.026220686515477418,True
19583,150228,0,150229,3736.0,41756.0,30116.0,-0.008662,0.003843,0.0032329999999999998,0.35000000000000003,-0.1925,-3.2900000000000005,1.16321875,0.27903125,0.195125,1.36371875,1.0988437500000001,-0.21721875000000002,-0.42971875,1.3268125,0.020491618179730074,0.025577197854559825,True
19584,150229,0,150230,3737.0,41758.0,30117.0,-0.0028669999999999998,0.003294,-0.00122,0.2625,-0.7875000000000001,-3.3425000000000002,1.16028125,0.278125,0.19075,1.37503125,1.0980625,-0.222,-0.43343750000000003,1.3226875,0.020647551812401948,0.02554644634018443,True
19585,150230,0,150231,3738.0,41759.0,30118.0,0.002806,0.00122,-0.00042699999999999997,0.17500000000000002,-1.8025000000000002,-3.4650000000000003,1.1323750000000001,0.27396875,0.20240625,1.3850625,1.1028125,-0.21621875000000002,-0.43509375,1.3155000000000001,0.020242115627568818,0.02608952543920565,True
19586,150231,0,150232,3737.0,41757.0,30116.0,0.008601,-0.000976,-0.000915,0.14,-2.7300000000000004,-3.7100000000000004,1.158875,0.27868750000000003,0.19828125,1.3855625,1.1004375,-0.2154375,-0.4336875,1.31278125,0.0204053715734023,0.025864648960579526,True
19587,150232,0,150233,3738.0,41759.0,30115.0,0.010126,-0.004758,-0.0028669999999999998,-0.035,-3.22,-3.7975000000000003,1.1245,0.27071875,0.19543750000000001,1.3655,1.1076875,-0.2168125,-0.43325,1.3228125,0.020131933135295984,0.02573081763580367,True
19588,150233,0,150234,3740.0,41756.0,30115.0,0.008723,-0.0037819999999999998,0.0013419999999999999,0.08750000000000001,-2.555,-3.6750000000000003,1.13684375,0.27071875,0.20078125,1.37253125,1.10159375,-0.21709375,-0.43653125,1.3223125,0.020143313026568268,0.026080317761957312,True
19589,150234,0,150235,3740.0,41757.0,30114.0,0.0032329999999999998,0.0,-0.000915,0.31500000000000006,-2.1350000000000002,-3.6050000000000004,1.1508125,0.27775,0.19875,1.37371875,1.088375,-0.22009375,-0.43484375000000003,1.31803125,0.02055498856192495,0.0259299284449077,True
19590,150235,0,150236,3739.0,41758.0,30115.0,0.000793,0.0013419999999999999,-0.001464,0.43750000000000006,-1.4525000000000001,-3.5700000000000003,1.13265625,0.27934375,0.19893750000000002,1.383,1.0966875,-0.216125,-0.43671875,1.31715625,0.020460282146710095,0.026012340547971483,True
19591,150236,0,150237,3741.0,41760.0,30115.0,-0.001952,0.000915,-0.002013,0.385,-0.8925000000000001,-3.3775000000000004,1.13625,0.27184375,0.19890625,1.37678125,1.10534375,-0.21840625,-0.432625,1.324625,0.02024286796328722,0.025847867349496827,True
19592,150237,0,150238,3741.0,41760.0,30116.0,-0.00549,0.0015249999999999999,0.001281,0.35000000000000003,-0.22750000000000004,-3.2900000000000005,1.14253125,0.27484375,0.19565625,1.371,1.1011875,-0.216375,-0.437875,1.3175625,0.020284569841687704,0.0259241546165532,True
19593,150238,0,150239,3742.0,41762.0,30118.0,-0.007991,0.0025009999999999998,0.002379,0.4025,-0.035,-3.1325000000000003,1.14003125,0.27368750000000003,0.19909375,1.3824375,1.1019375,-0.217,-0.4360625,1.31771875,0.02026210926208862,0.025992577568501478,True
19594,150239,0,150240,3744.0,41762.0,30121.0,-0.0071979999999999995,0.003294,0.0030499999999999998,0.35000000000000003,-0.2625,-3.0100000000000002,1.1383125,0.27640625,0.19503125000000002,1.3698125,1.0928437500000001,-0.21809375,-0.43184375,1.325375,0.020418617794804764,0.02565811268337045,True
19595,150240,0,150241,3743.0,41766.0,30124.0,-0.004941,0.002257,-0.000183,0.35000000000000003,-0.7350000000000001,-3.115,1.1449375,0.27515625,0.19715625,1.38359375,1.10209375,-0.2165,-0.4371875,1.3175625,0.020302531331943097,0.02595813245693679,True
19596,150241,0,150242,3744.0,41769.0,30126.0,-0.00061,0.000976,-0.0017079999999999999,0.28,-1.3125000000000002,-3.3425000000000002,1.13825,0.27309375,0.19578125000000002,1.37215625,1.1047500000000001,-0.22090625,-0.43440625,1.3173125,0.020395603488205568,0.025790988884782092,True
19597,150242,0,150243,3745.0,41770.0,30124.0,0.0050019999999999995,-0.004392,-0.002623,0.29750000000000004,-2.0300000000000002,-3.6225000000000005,1.1299062500000001,0.281625,0.19821875,1.37965625,1.1101875,-0.21728125,-0.43321875,1.32503125,0.02060124936609059,0.025843402232871997,True
19598,150243,0,150244,3746.0,41768.0,30123.0,0.004209,-0.006771,-0.00183,0.22750000000000004,-1.9425000000000001,-3.5000000000000004,1.14459375,0.27518750000000003,0.19946875,1.38128125,1.10146875,-0.21671875000000002,-0.43246875,1.32315625,0.020312671385342,0.02586466011544576,True
19599,150244,0,150245,3747.0,41768.0,30123.0,0.0035989999999999998,-0.0057339999999999995,-0.002379,0.24500000000000002,-1.6800000000000002,-3.4475000000000002,1.14653125,0.2754375,0.19940625,1.38103125,1.09028125,-0.21256250000000002,-0.4365,1.31746875,0.020154826652486697,0.026022804002209812,True
19600,150245,0,150246,3748.0,41769.0,30122.0,0.002196,-0.00061,0.000488,0.2625,-1.5050000000000001,-3.5175000000000005,1.1390625,0.27571875,0.197125,1.3763750000000001,1.1014375,-0.217625,-0.43543750000000003,1.3150625,0.020371268858940545,0.02588709533029642,True
19601,150246,0,150247,3747.0,41769.0,30123.0,0.000122,0.0028669999999999998,0.0018909999999999999,0.35000000000000003,-1.2075,-3.3600000000000003,1.13834375,0.2733125,0.19568750000000001,1.37675,1.10625,-0.218375,-0.4343125,1.31659375,0.020302249841287867,0.02578341420492187,True
19602,150247,0,150248,3749.0,41767.0,30122.0,-0.000549,0.0030499999999999998,0.001281,0.385,-0.9625000000000001,-3.2550000000000003,1.1388125,0.27621875,0.19665625,1.3760625,1.0945625,-0.21934375,-0.434375,1.31721875,0.020461433848718548,0.0258255531397877,True
19603,150248,0,150249,3747.0,41767.0,30122.0,-0.0015249999999999999,0.001647,0.002379,0.29750000000000004,-0.9100000000000001,-3.3775000000000004,1.13821875,0.27509375,0.19790625,1.3758125,1.10828125,-0.2170625,-0.4330625,1.32265625,0.02032270635631386,0.025824382432615645,True
19604,150249,0,150250,3748.0,41769.0,30122.0,-0.00122,0.001586,0.0013419999999999999,0.24500000000000002,-0.8925000000000001,-3.2900000000000005,1.14484375,0.27618750000000003,0.19925,1.3820625,1.1026562500000001,-0.2165,-0.434125,1.3115937500000001,0.02034511593335123,0.025921738552127403,True
19605,150250,0,150251,3747.0,41768.0,30121.0,-0.000915,0.001037,0.0011589999999999999,0.3325,-0.9450000000000001,-3.3600000000000003,1.13846875,0.27590625,0.19693750000000002,1.3691875,1.10203125,-0.2183125,-0.429875,1.3201875,0.020406820252236817,0.025657622071336837,True
19606,150251,0,150252,3746.0,41768.0,30121.0,-0.00183,-6.1e-05,0.000793,0.1925,-1.0325000000000002,-3.3075,1.14615625,0.27671875,0.19628125,1.37728125,1.10171875,-0.21609375,-0.435875,1.31709375,0.020350619100159374,0.025870006701212866,True
19607,150252,0,150253,3746.0,41768.0,30118.0,-0.000488,-0.0015249999999999999,-0.00122,0.4025,-0.9975,-3.4125000000000005,1.14196875,0.27453125,0.19903125,1.37678125,1.1076875,-0.2165,-0.43193750000000003,1.3174062500000001,0.02027672248260484,0.025825571549534295,True
19608,150253,0,150254,3744.0,41767.0,30119.0,-0.002074,-0.001647,-0.001464,0.2625,-1.05,-3.3775000000000004,1.1380000000000001,0.27275,0.20040625,1.3841875000000001,1.108625,-0.216375,-0.43340625,1.324375,0.020198109750117432,0.02594040689680752,True
19609,150254,0,150255,3744.0,41766.0,30117.0,-0.002562,-0.001586,-0.000488,0.47250000000000003,-1.0675000000000001,-3.43,1.14378125,0.27618750000000003,0.19678125,1.3776875,1.09178125,-0.22053125,-0.43575,1.3168125,0.020508169076596947,0.025885485405604494,True
19610,150255,0,150256,3741.0,41767.0,30118.0,-0.002989,-0.0011589999999999999,-0.00042699999999999997,0.42000000000000004,-1.1375000000000002,-3.4650000000000003,1.145125,0.27725,0.19875,1.3839062500000001,1.12215625,-0.21625,-0.43634375000000003,1.31646875,0.0203788778196459,0.025989720741262694,True
19611,150256,0,150257,3743.0,41765.0,30116.0,-0.0021349999999999997,-0.000122,-6.1e-05,0.43750000000000006,-1.2950000000000002,-3.4650000000000003,1.1381875000000001,0.27271875,0.198875,1.37728125,1.09465625,-0.21928125,-0.43228125,1.3176875000000001,0.020314393103635146,0.025832882469785746,True
19612,150257,0,150258,3743.0,41766.0,30116.0,0.002623,0.001464,0.000915,0.5075000000000001,-1.8025000000000002,-3.5525,1.14615625,0.275625,0.195375,1.3765625000000001,1.1167500000000001,-0.21453125,-0.43959375,1.3124375,0.020242235744290942,0.02598114995262554,True
19613,150258,0,150259,3740.0,41765.0,30116.0,0.0034159999999999998,0.0011589999999999999,0.000122,0.525,-2.0650000000000004,-3.6400000000000006,1.1379062500000001,0.27475,0.198,1.38296875,1.1099375,-0.2201875,-0.430875,1.32509375,0.02043491612110765,0.025740993722083227,True
19614,150259,0,150260,3741.0,41765.0,30115.0,0.00488,0.001586,0.000183,0.49000000000000005,-2.0475000000000003,-3.6925000000000003,1.13915625,0.275625,0.19525,1.3719375,1.0940625,-0.22125,-0.43578125,1.3195000000000001,0.02051401145688187,0.025824066910076795,True
19615,150260,0,150261,3740.0,41764.0,30116.0,0.0034159999999999998,-0.0006709999999999999,-0.000244,0.49000000000000005,-1.995,-3.6925000000000003,1.1358125000000001,0.27565625,0.196375,1.37703125,1.0891875,-0.22165625,-0.435,1.31203125,0.0205317297408182,0.025838960507468797,True
19616,150261,0,150262,3738.0,41765.0,30115.0,0.001586,0.000183,0.000488,0.5075000000000001,-1.7850000000000001,-3.6750000000000003,1.1420937500000001,0.27159375,0.19843750000000002,1.3775625,1.117375,-0.21675,-0.43025,1.32503125,0.020165536250735545,0.02573397734366206,True
19617,150262,0,150263,3741.0,41763.0,30115.0,-0.001464,-0.0008539999999999999,0.000305,0.47250000000000003,-1.12,-3.5875000000000004,1.14615625,0.27568750000000003,0.199,1.38215625,1.098875,-0.21456250000000002,-0.4419375,1.31421875,0.02024608125792073,0.026222859787608896,True
19618,150263,0,150264,3741.0,41763.0,30112.0,-0.00366,6.1e-05,0.000183,0.36750000000000005,-0.9450000000000001,-3.5700000000000003,1.13871875,0.27175,0.19909375,1.38309375,1.1064687500000001,-0.21646875000000002,-0.43546875,1.32325,0.020160608676688258,0.02596891045930928,True
19619,150264,0,150265,3742.0,41762.0,30114.0,-0.004209,-0.000915,-0.000488,0.35000000000000003,-0.8925000000000001,-3.6225000000000005,1.138375,0.274375,0.19621875,1.37534375,1.09528125,-0.22028125,-0.4315,1.3198750000000001,0.020423224854170512,0.025693009025233818,True
19620,150265,0,150266,3739.0,41764.0,30113.0,-0.0044529999999999995,-0.000488,0.0,0.3325,-1.1375000000000002,-3.5700000000000003,1.1465,0.27496875,0.1998125,1.38096875,1.09990625,-0.2146875,-0.432375,1.3155625,0.020221456502381045,0.025874991686235988,True
19621,150266,0,150267,3739.0,41762.0,30111.0,0.0023179999999999997,0.001403,-0.00122,0.3325,-1.5750000000000002,-3.6225000000000005,1.13821875,0.272875,0.19665625,1.3764375,1.10021875,-0.22015625,-0.4335,1.32375,0.020356237379765045,0.025790666502957006,True
19622,150267,0,150268,3740.0,41765.0,30114.0,0.005307,0.000549,-0.001098,0.24500000000000002,-2.3275,-3.6750000000000003,1.1437187500000001,0.2719375,0.19915625,1.38171875,1.1087500000000001,-0.2170625,-0.43543750000000003,1.31784375,0.020192374694494843,0.02597022255075237,True
19623,150268,0,150269,3740.0,41764.0,30112.0,0.006039,0.000915,-0.0023179999999999997,0.29750000000000004,-2.345,-3.6225000000000005,1.13865625,0.27503125,0.1958125,1.3763125,1.1015625,-0.2203125,-0.43403125000000004,1.31734375,0.02045158376878911,0.02577731621751937,True
19624,150269,0,150270,3740.0,41763.0,30113.0,0.003904,0.000122,-0.001037,0.3325,-2.0475000000000003,-3.6400000000000006,1.13884375,0.27518750000000003,0.198125,1.3765,1.10934375,-0.21678125,-0.43365625,1.32403125,0.020315199816243128,0.02585700819949941,True
19625,150270,0,150271,3740.0,41763.0,30110.0,0.001769,-0.000732,-0.000305,0.3325,-1.54,-3.535,1.138125,0.27415625,0.196125,1.37771875,1.1084687500000001,-0.21621875000000002,-0.43453125000000004,1.31859375,0.020249858372294396,0.025810040861741518,True
19626,150271,0,150272,3741.0,41765.0,30112.0,-0.0035989999999999998,0.000366,0.00061,0.385,-0.9100000000000001,-3.5000000000000004,1.13915625,0.27378125000000003,0.19896875,1.3763750000000001,1.10853125,-0.21721875000000002,-0.43343750000000003,1.31165625,0.02027483027959187,0.025882819394528505,True
19627,150272,0,150273,3742.0,41766.0,30112.0,-0.003538,-0.000122,0.0018909999999999999,0.36750000000000005,-0.6475000000000001,-3.4825000000000004,1.14540625,0.27521875,0.19775,1.38234375,1.0905625,-0.2171875,-0.43693750000000003,1.32040625,0.020332924704819667,0.025972464839344133,True
19628,150273,0,150274,3742.0,41764.0,30112.0,-0.004148,-0.000122,0.000732,0.31500000000000006,-0.6475000000000001,-3.4825000000000004,1.1440625,0.27509375,0.19896875,1.384625,1.10165625,-0.216625,-0.43593750000000003,1.31653125,0.020305007407101526,0.02598247969819042,True
19629,150274,0,150275,3742.0,41765.0,30113.0,-0.004331,-0.00042699999999999997,0.001647,0.3325,-0.8750000000000001,-3.4475000000000002,1.1434375,0.27618750000000003,0.1965625,1.371375,1.10159375,-0.22065625,-0.43443750000000003,1.316875,0.02051322412042407,0.025824208148847297,True
19630,150275,0,150276,3744.0,41765.0,30111.0,-0.002989,0.000244,0.000732,0.3325,-1.12,-3.4475000000000002,1.13871875,0.26937500000000003,0.1983125,1.3803125,1.1085625000000001,-0.21653125,-0.43328125,1.316375,0.02006506402522038,0.025849731091684622,True
19631,150276,0,150277,3743.0,41766.0,30114.0,0.001403,-0.000244,-0.000793,0.36750000000000005,-1.8375000000000001,-3.5175000000000005,1.13471875,0.27725,0.196,1.3745,1.09940625,-0.22021875,-0.4338125,1.31859375,0.020539399546092043,0.02577626803021428,True
19632,150277,0,150278,3744.0,41764.0,30113.0,0.002989,-0.000366,-0.000976,0.31500000000000006,-2.1525000000000003,-3.5875000000000004,1.14709375,0.27521875,0.19890625,1.38403125,1.09384375,-0.21675,-0.43775000000000003,1.316875,0.02031522603156906,0.026052163149226096,True
19633,150278,0,150279,3745.0,41765.0,30112.0,0.003965,-0.00061,-0.00061,0.31500000000000006,-2.1350000000000002,-3.5700000000000003,1.1360625,0.27228125000000003,0.199875,1.38690625,1.1094375,-0.2165625,-0.43543750000000003,1.317375,0.020186339411301667,0.025999636797990628,True
19634,150279,0,150280,3743.0,41762.0,30111.0,0.002928,0.0,-6.1e-05,0.42000000000000004,-2.1350000000000002,-3.4650000000000003,1.1360937500000001,0.27137500000000003,0.19978125,1.3869375,1.1061875,-0.21715625,-0.43428125,1.3186875,0.020172940412852978,0.025949709488589927,True
19635,150280,0,150281,3744.0,41764.0,30110.0,0.003172,6.1e-05,0.0,0.42000000000000004,-1.8725000000000003,-3.5000000000000004,1.13578125,0.27684375,0.195,1.37478125,1.101,-0.22078125,-0.43343750000000003,1.3211875,0.020545373613825937,0.025720388299845243,True
19636,150281,0,150282,3743.0,41763.0,30110.0,-0.000366,0.000488,0.000122,0.49000000000000005,-1.3825,-3.5875000000000004,1.139,0.27703125,0.1955625,1.36496875,1.10015625,-0.21928125,-0.4338125,1.32134375,0.020492453713918533,0.02575836251505982,True
19637,150282,0,150283,3745.0,41766.0,30112.0,-0.001647,0.000793,0.000976,0.45500000000000007,-1.0325000000000002,-3.5525,1.1464375,0.27453125,0.20003125,1.3885,1.10315625,-0.2164375,-0.4361875,1.31746875,0.02027419392303265,0.026035925203143906,True
19638,150283,0,150284,3743.0,41766.0,30112.0,-0.002989,0.000122,0.00042699999999999997,0.36750000000000005,-1.0850000000000002,-3.5875000000000004,1.12325,0.27525,0.19784375,1.37471875,1.1044375,-0.21690625,-0.43443750000000003,1.32228125,0.020322837480530775,0.025876644387659836,True
19639,150284,0,150285,3743.0,41766.0,30112.0,-0.0015249999999999999,0.000244,-0.000366,0.47250000000000003,-1.2075,-3.5175000000000005,1.13921875,0.27546875,0.197,1.38475,1.0916875,-0.21815625,-0.43393750000000003,1.3174375,0.02038243518228189,0.025822178680779552,True
19640,150285,0,150286,3744.0,41766.0,30110.0,-0.000732,-0.000488,-0.000183,0.43750000000000006,-1.155,-3.5175000000000005,1.135875,0.27328125000000003,0.199125,1.37565625,1.10509375,-0.2165,-0.434,1.32003125,0.020225104783928315,0.02591163951870344,True
19641,150286,0,150287,3744.0,41767.0,30111.0,6.1e-05,0.000305,0.000122,0.45500000000000007,-1.33,-3.5000000000000004,1.14503125,0.27596875,0.1965625,1.37621875,1.10159375,-0.21665625,-0.43484375000000003,1.3175625,0.02034240379490872,0.025840404647563996,True
19642,150287,0,150288,3744.0,41766.0,30111.0,0.000122,-0.000305,0.000183,0.36750000000000005,-1.3125000000000002,-3.5175000000000005,1.13815625,0.27209375,0.19803125,1.37615625,1.10571875,-0.21709375,-0.43384375000000003,1.32615625,0.020200091103004462,0.025860646669642388,True
19643,150288,0,150289,3743.0,41765.0,30110.0,0.000488,-0.000305,-0.000244,0.3325,-1.3825,-3.4825000000000004,1.1460625,0.2724375,0.19853125,1.37784375,1.10215625,-0.21771875000000002,-0.43325,1.31790625,0.020239571491431248,0.025857438122230972,True
19644,150289,0,150290,3744.0,41766.0,30113.0,-0.000976,0.000793,0.0,0.385,-1.33,-3.4475000000000002,1.14321875,0.2755625,0.19640625,1.376625,1.10040625,-0.21125,-0.4419375,1.31265625,0.020106871805462338,0.026116740949853095,True
19645,150290,0,150291,3744.0,41765.0,30113.0,0.000183,6.1e-05,-0.00042699999999999997,0.385,-1.4700000000000002,-3.3775000000000004,1.13825,0.27959375000000003,0.2009375,1.3820625,1.11884375,-0.22271875,-0.433625,1.3440625,0.020737246928567838,0.025970870061237328,True
19646,150291,0,150292,3745.0,41764.0,30112.0,0.000915,-0.000793,6.1e-05,0.28,-1.5575,-3.3950000000000005,1.147125,0.28240625,0.19634375,1.3766562500000001,1.103,-0.2090625,-0.44365625000000003,1.30621875,0.020301023635260554,0.026182662423916227,True
19647,150292,0,150293,3745.0,41766.0,30111.0,-0.0011589999999999999,0.00042699999999999997,0.0013419999999999999,0.3325,-1.5575,-3.3775000000000004,1.1366875,0.274625,0.199375,1.3820937500000001,1.1185625000000001,-0.21609375,-0.4291875,1.33778125,0.020264158004426294,0.025729979762937265,True
19648,150293,0,150294,3746.0,41767.0,30112.0,-0.001769,-0.0008539999999999999,-0.000549,0.1925,-1.4000000000000001,-3.3425000000000002,1.13175,0.274875,0.1948125,1.37675,1.08728125,-0.22212500000000002,-0.4321875,1.30690625,0.020518430979940862,0.02566286788688078,True
19649,150294,0,150295,3747.0,41765.0,30113.0,-0.000549,0.000976,0.00061,0.29750000000000004,-1.1900000000000002,-3.3600000000000003,1.13984375,0.2739375,0.19890625,1.3764687500000001,1.12434375,-0.2144375,-0.4271875,1.33515625,0.02016875262950048,0.025631020763237686,True
19650,150295,0,150296,3747.0,41766.0,30113.0,-0.000305,0.002257,-0.000732,0.29750000000000004,-1.8900000000000001,-3.43,1.1455625,0.27525,0.19840625,1.38490625,1.10540625,-0.21303125,-0.438125,1.32634375,0.02016605211295054,0.026046648423313983,True
19651,150296,0,150297,3749.0,41769.0,30113.0,0.0068319999999999995,-0.00122,-0.0023179999999999997,0.21000000000000002,-2.0125,-3.6925000000000003,1.13934375,0.276625,0.196,1.37565625,1.08871875,-0.22059375,-0.4368125,1.3030625,0.02052875974603224,0.025895869193250962,True
19652,150297,0,150298,3749.0,41765.0,30112.0,0.002745,-0.0015249999999999999,-0.001037,0.4025,-1.8025000000000002,-3.6400000000000006,1.13490625,0.2740625,0.19868750000000002,1.38084375,1.1229375,-0.22053125,-0.42696875,1.3285,0.020420433593916317,0.025613339764067124,True
19653,150298,0,150299,3748.0,41765.0,30113.0,0.000366,-0.000915,-0.000488,0.42000000000000004,-1.3475000000000001,-3.5000000000000004,1.14040625,0.2755,0.19553125000000002,1.37675,1.08046875,-0.217,-0.4368125,1.30546875,0.02033695337985713,0.025876687067922628,True
19654,150299,0,150300,3749.0,41765.0,30114.0,-0.003965,0.001037,0.001403,0.49000000000000005,-0.7525000000000001,-3.3075,1.12915625,0.27371875,0.19868750000000002,1.3720937500000001,1.12171875,-0.21459375,-0.43243750000000003,1.31253125,0.02016604139807219,0.025831438226333336,True
19655,150300,0,150301,3749.0,41768.0,30115.0,-0.006161,0.000915,0.000976,0.47250000000000003,-0.3325,-3.3600000000000003,1.13346875,0.276625,0.19915625,1.3820000000000001,1.10040625,-0.21621875000000002,-0.42759375,1.321125,0.02035180451118117,0.025657459609585983,True
19656,150301,0,150302,3751.0,41768.0,30114.0,-0.005063,0.000732,0.0021349999999999997,0.385,-0.7000000000000001,-3.5875000000000004,1.1408125,0.2793125,0.198125,1.37759375,1.0870312500000001,-0.21765625,-0.432375,1.31728125,0.020520926751530714,0.025805923492906443,True
19657,150302,0,150303,3751.0,41769.0,30116.0,-0.00122,-0.000305,0.000488,0.5075000000000001,-1.3650000000000002,-3.5175000000000005,1.13846875,0.2749375,0.19509375,1.37621875,1.10784375,-0.21653125,-0.434125,1.3229375,0.02029476248791825,0.025751638333682908,True
19658,150303,0,150304,3749.0,41769.0,30118.0,0.0018909999999999999,-0.001037,6.1e-05,0.49000000000000005,-1.8375000000000001,-3.5525,1.1420000000000001,0.2720625,0.19903125,1.3805,1.1018125,-0.21640625,-0.4351875,1.31665625,0.020170984288802145,0.02595514153513248,True
19659,150304,0,150305,3754.0,41770.0,30118.0,0.003965,-0.000183,-0.000793,0.385,-1.9775000000000003,-3.6575,1.13021875,0.272875,0.19903125,1.3770625,1.10371875,-0.21475,-0.4269375,1.32428125,0.02013751948708948,0.02562616578521151,True
19660,150305,0,150306,3752.0,41771.0,30117.0,0.005429,-0.000549,0.0,0.28,-2.0650000000000004,-3.6925000000000003,1.1420937500000001,0.27596875,0.20450000000000002,1.38221875,1.10209375,-0.21871875000000002,-0.4355625,1.3174062500000001,0.020425832807526204,0.02619389261041157,True
19661,150306,0,150307,3754.0,41770.0,30116.0,0.0013419999999999999,0.000122,-0.000183,0.28,-1.6450000000000002,-3.4125000000000005,1.1388125,0.27334375,0.199125,1.381125,1.1075625,-0.216125,-0.4321875,1.3161875,0.020212513356286356,0.02583937684662906,True
19662,150307,0,150308,3755.0,41768.0,30118.0,-0.00042699999999999997,0.001403,-0.000122,0.3325,-1.61,-3.3600000000000003,1.1378125000000001,0.275875,0.197125,1.3765625000000001,1.0973125,-0.21940625,-0.4336875,1.323625,0.020449768457886947,0.02581732699986443,True
19663,150308,0,150309,3754.0,41769.0,30117.0,0.000122,0.000976,0.000366,0.29750000000000004,-1.5575,-3.3950000000000005,1.14503125,0.27665625,0.19968750000000002,1.376875,1.10184375,-0.22003125,-0.434875,1.31684375,0.020507302194335525,0.025969541485274632,True
19664,150309,0,150310,3756.0,41766.0,30118.0,0.0006709999999999999,-0.001464,0.00042699999999999997,0.15750000000000003,-1.4875,-3.4475000000000002,1.13859375,0.272375,0.19878125,1.3773125,1.10659375,-0.2165,-0.4335,1.32365625,0.020187681952387834,0.025877637260318827,True
19665,150310,0,150311,3755.0,41770.0,30119.0,-0.000366,-0.001037,-0.000183,0.1925,-1.2775,-3.4650000000000003,1.14746875,0.275625,0.19034375,1.37496875,1.102,-0.2185,-0.43428125,1.3226875,0.020402791254619405,0.025563469357217126,True
19666,150311,0,150312,3757.0,41766.0,30118.0,-0.0042699999999999995,-0.000244,-0.000488,0.2625,-1.0675000000000001,-3.2900000000000005,1.159125,0.28015625,0.201125,1.3918125000000001,1.1015,-0.21978125,-0.43396875,1.3175625,0.020641701708185328,0.02599224696151746,True
19667,150312,0,150313,3758.0,41771.0,30121.0,-0.001586,0.001769,-0.0006709999999999999,0.43750000000000006,-1.2950000000000002,-3.2900000000000005,1.1325,0.273875,0.1945,1.36515625,1.10959375,-0.217125,-0.43334375,1.32303125,0.02027490876807218,0.025696186180002484,True
19668,150313,0,150314,3758.0,41774.0,30122.0,-0.0006709999999999999,0.00122,-0.001647,0.43750000000000006,-1.435,-3.4650000000000003,1.1490625,0.27328125000000003,0.2013125,1.38103125,1.1009375000000001,-0.21778125,-0.43628125,1.3175937500000001,0.02027694010986246,0.026092094106995103,True
19669,150314,0,150315,3758.0,41773.0,30122.0,0.000976,0.000183,-0.00061,0.43750000000000006,-1.4700000000000002,-3.5175000000000005,1.143375,0.27768750000000003,0.20784375,1.3818125,1.08853125,-0.21596875000000001,-0.43393750000000003,1.31134375,0.020385566858645704,0.026265977393123807,True
19670,150315,0,150316,3759.0,41772.0,30120.0,0.000976,-0.0011589999999999999,-0.0006709999999999999,0.42000000000000004,-1.5575,-3.3950000000000005,1.1320937500000001,0.268625,0.199625,1.3813125,1.1068437500000001,-0.21625,-0.43515625,1.31875,0.02002271202188613,0.02597819483965854,True
19671,150316,0,150317,3760.0,41773.0,30122.0,0.000976,-0.000122,0.000549,0.385,-1.8200000000000003,-3.3775000000000004,1.1525625,0.27771875,0.19375,1.36565625,1.094125,-0.2196875,-0.434875,1.3243125,0.020537269525050646,0.025726548631822343,True
19672,150317,0,150318,3760.0,41773.0,30119.0,0.001403,0.000366,-0.000366,0.3325,-1.6625,-3.3950000000000005,1.13303125,0.272,0.19665625,1.37128125,1.10440625,-0.21675,-0.4343125,1.309625,0.02018231182962206,0.02582306132001872,True
19673,150318,0,150319,3761.0,41774.0,30118.0,0.002196,0.00183,-0.002074,0.21000000000000002,-1.5925000000000002,-3.4825000000000004,1.15634375,0.27603125,0.20165625,1.39278125,1.10146875,-0.21734375,-0.43390625,1.3157812500000001,0.020372795839758435,0.02601149785454383,True
19674,150319,0,150320,3759.0,41772.0,30116.0,0.0026839999999999998,0.0008539999999999999,-0.00061,0.4025,-1.435,-3.4125000000000005,1.13253125,0.27503125,0.19734375,1.370625,1.1085625000000001,-0.21621875000000002,-0.43493750000000003,1.3226875,0.02028599118101376,0.025876114886727253,True
19675,150320,0,150321,3762.0,41770.0,30116.0,0.00061,-0.000549,0.0021349999999999997,0.49000000000000005,-1.2075,-3.4475000000000002,1.1481875,0.2745625,0.2016875,1.38296875,1.1016875,-0.22065625,-0.435375,1.3174375,0.020446132626980328,0.026071320779812054,True
19676,150321,0,150322,3760.0,41771.0,30115.0,-0.001647,-0.000488,0.002745,0.35000000000000003,-0.14,-3.5000000000000004,1.1335,0.27478125000000003,0.197375,1.37615625,1.10621875,-0.21071875,-0.43296875,1.3223125,0.020053101480103724,0.02579890133080942,True
19677,150322,0,150323,3760.0,41772.0,30114.0,-0.003843,0.000732,0.000244,0.47250000000000003,-0.17500000000000002,-3.5525,1.1291875,0.27346875,0.19809375,1.37715625,1.10734375,-0.21721875000000002,-0.43384375000000003,1.322375,0.020261926237916977,0.02586320459710724,True
19678,150323,0,150324,3761.0,41772.0,30114.0,-0.002989,-0.0006709999999999999,0.001647,0.5425000000000001,-0.21000000000000002,-3.5525,1.13875,0.27225,0.1985,1.38153125,1.108125,-0.21178125,-0.43671875,1.31803125,0.019991558861453037,0.02599443716231337,True
19679,150324,0,150325,3759.0,41772.0,30114.0,-0.003111,-0.0013419999999999999,0.0006709999999999999,0.42000000000000004,-0.24500000000000002,-3.6925000000000003,1.13659375,0.27328125000000003,0.19875,1.3826875,1.1003125,-0.2168125,-0.43609375,1.31621875,0.020237748052102232,0.025979755868304442,True
19680,150325,0,150326,3758.0,41771.0,30114.0,-0.001769,-0.000732,0.000793,0.43750000000000006,-0.4025,-3.6050000000000004,1.13796875,0.2759375,0.19634375,1.3764375,1.1010625,-0.21937500000000001,-0.43365625,1.3226875,0.020451085133286886,0.025784106707320974,True
19681,150326,0,150327,3759.0,41772.0,30114.0,-0.000244,-6.1e-05,0.0023179999999999997,0.45500000000000007,-0.7525000000000001,-3.6400000000000006,1.1376875,0.273125,0.19853125,1.37784375,1.1089375000000001,-0.21684375,-0.43721875,1.3206875,0.02023256024022536,0.02601564468133265,True
19682,150327,0,150328,3758.0,41772.0,30114.0,-0.000549,0.000488,0.000244,0.3325,-0.9275000000000001,-3.6925000000000003,1.14334375,0.27509375,0.19909375,1.37603125,1.10159375,-0.21815625,-0.43384375000000003,1.31784375,0.020366950931700264,0.025904131436544853,True
19683,150328,0,150329,3758.0,41770.0,30113.0,-0.000549,-6.1e-05,0.000305,0.36750000000000005,-1.12,-3.6050000000000004,1.1390625,0.2795,0.196125,1.37721875,1.106875,-0.22021875,-0.434125,1.3175937500000001,0.020632297138109042,0.02579384365104132,True
19684,150329,0,150330,3759.0,41770.0,30116.0,-0.00061,0.000488,0.000366,0.35000000000000003,-1.2425000000000002,-3.5875000000000004,1.135125,0.27368750000000003,0.1988125,1.37659375,1.1067500000000001,-0.21609375,-0.43275,1.3235625,0.02022544408096372,0.02584901413062386,True
19685,150330,0,150331,3758.0,41772.0,30115.0,0.0008539999999999999,0.0011589999999999999,-0.001464,0.31500000000000006,-1.5225000000000002,-3.7450000000000006,1.14365625,0.27534375,0.19921875,1.38415625,1.09975,-0.21190625000000002,-0.43465625,1.31640625,0.020124396442349517,0.025941637709759064,True
19686,150331,0,150332,3757.0,41774.0,30115.0,0.001403,0.000488,-0.001769,0.31500000000000006,-2.0650000000000004,-3.8675,1.1395,0.273,0.19878125,1.37684375,1.1070312500000001,-0.209375,-0.43346875,1.32496875,0.019925132309281012,0.025876391374024615,True
19687,150332,0,150333,3758.0,41772.0,30113.0,0.002745,-0.000366,-0.001464,0.29750000000000004,-2.0475000000000003,-3.9200000000000004,1.14303125,0.2753125,0.19903125,1.3823125,1.10128125,-0.217,-0.43693750000000003,1.3170625,0.020329210884915558,0.026024895713712082,True
19688,150333,0,150334,3757.0,41774.0,30115.0,0.001952,-0.0013419999999999999,-0.001464,0.24500000000000002,-1.8550000000000002,-3.8850000000000002,1.1385625,0.276375,0.19743750000000002,1.37690625,1.10825,-0.21759375,-0.43390625,1.325,0.020397102829425404,0.025838838192317283,True
19689,150334,0,150335,3758.0,41774.0,30113.0,0.0017079999999999999,-0.000976,-0.000976,0.31500000000000006,-1.7500000000000002,-3.9200000000000004,1.1375625,0.27215625,0.19843750000000002,1.3795,1.10171875,-0.21665625,-0.43484375000000003,1.31825,0.02018497082973625,0.025917139331001454,True
19690,150335,0,150336,3758.0,41772.0,30113.0,-0.0025009999999999998,-0.000488,0.00122,0.385,-1.61,-3.8500000000000005,1.14584375,0.276,0.1995,1.3740937500000001,1.094375,-0.22,-0.43596875,1.31171875,0.020478943022295623,0.02600546581563295,True
19691,150336,0,150337,3758.0,41772.0,30113.0,-0.001647,0.000183,0.001281,0.31500000000000006,-1.6450000000000002,-3.7800000000000002,1.1385,0.275125,0.198375,1.375375,1.10165625,-0.21525,-0.43340625,1.3225625,0.020250668483703452,0.025857272765642324,True
19692,150337,0,150338,3759.0,41770.0,30113.0,-0.000122,0.001769,0.000244,0.47250000000000003,-1.8200000000000003,-3.7450000000000006,1.1445,0.273375,0.19940625,1.38015625,1.101375,-0.21728125,-0.43715625,1.31765625,0.020260583545066605,0.026048959767976276,True
19693,150338,0,150339,3760.0,41771.0,30113.0,0.001586,0.00042699999999999997,-0.000976,0.36750000000000005,-2.0650000000000004,-3.8675,1.1439375,0.27603125,0.198,1.382625,1.10125,-0.21859375,-0.43421875,1.3179687500000001,0.020423357570048838,0.02587431816292469,True
19694,150339,0,150340,3759.0,41772.0,30112.0,0.003477,0.000732,-0.002196,0.36750000000000005,-2.1175,-3.9550000000000005,1.13859375,0.27368750000000003,0.19859375,1.37671875,1.106875,-0.21765625,-0.433625,1.3141562500000001,0.02028865819746698,0.025874946922529916,True
19695,150340,0,150341,3760.0,41771.0,30110.0,0.0018909999999999999,-0.00042699999999999997,0.0011589999999999999,0.31500000000000006,-1.8375000000000001,-3.7625,1.13025,0.27578125000000003,0.19865625,1.3799375,1.1021875,-0.217375,-0.43440625,1.3219375,0.020363736779894604,0.02590865083942852,True
19696,150341,0,150342,3758.0,41769.0,30112.0,-0.000366,-0.000183,0.00244,0.42000000000000004,-1.5925000000000002,-3.6575,1.139625,0.27418750000000003,0.1985625,1.37621875,1.10146875,-0.2181875,-0.43371875,1.3226875,0.020330794779749726,0.025877405583216842,True
19697,150342,0,150343,3760.0,41767.0,30112.0,-0.003172,0.0,0.00122,0.36750000000000005,-1.4525000000000001,-3.7275000000000005,1.14221875,0.27559375,0.19684375,1.376875,1.10153125,-0.21984375,-0.43478125,1.318875,0.02045585038095054,0.025849423145541766,True
19698,150343,0,150344,3760.0,41771.0,30112.0,-0.00488,-0.000183,0.000976,0.43750000000000006,-1.4525000000000001,-3.7275000000000005,1.13865625,0.27425,0.19921875,1.38103125,1.10859375,-0.2165625,-0.43859375,1.3155000000000001,0.020267637076897268,0.026098576150683794,True
19699,150344,0,150345,3760.0,41772.0,30111.0,-0.003477,-0.000305,-0.000549,0.35000000000000003,-1.6275000000000002,-3.6925000000000003,1.1388125,0.276625,0.19728125,1.3676875,1.10109375,-0.22121875,-0.4326875,1.32809375,0.020554033846872388,0.02578385001649941,True
19700,150345,0,150346,3762.0,41772.0,30115.0,0.001281,0.000305,-0.001464,0.3325,-2.5900000000000003,-3.7275000000000005,1.1465,0.27940625,0.196625,1.376625,1.0991250000000001,-0.21878125,-0.43484375000000003,1.314375,0.020570296038327694,0.025842962470345246,True
19701,150346,0,150347,3760.0,41773.0,30116.0,0.002806,0.002745,0.0,0.29750000000000004,-2.6950000000000003,-3.7275000000000005,1.14053125,0.26928125,0.19940625,1.3885,1.1103125,-0.215625,-0.43915625,1.3063437500000001,0.020024519292811977,0.02612866391408255,True
19702,150347,0,150348,3761.0,41772.0,30113.0,0.0051849999999999995,0.004209,-0.000305,0.31500000000000006,-2.66,-3.6575,1.1348125,0.27578125000000003,0.19525,1.36634375,1.10915625,-0.21665625,-0.4320625,1.3219687500000001,0.020334661190064173,0.02567578975373037,True
19703,150348,0,150349,3762.0,41772.0,30113.0,0.0046359999999999995,0.0037819999999999998,-6.1e-05,0.22750000000000004,-2.555,-3.5700000000000003,1.162,0.28021875,0.1968125,1.382875,1.09825,-0.22237500000000002,-0.4336875,1.308625,0.020749152384933356,0.02580453728075224,True
19704,150349,0,150350,3763.0,41771.0,30114.0,0.0018909999999999999,0.002196,0.001037,0.21000000000000002,-2.0650000000000004,-3.5175000000000005,1.13525,0.278375,0.19528125000000002,1.3654375,1.10934375,-0.2175625,-0.43243750000000003,1.32534375,0.020478423458182467,0.025692023155692106,True
19705,150350,0,150351,3763.0,41771.0,30114.0,-0.000488,-0.004209,0.0006709999999999999,0.17500000000000002,-1.225,-3.43,1.16225,0.28575,0.19203125000000001,1.36734375,1.09565625,-0.21996875000000002,-0.4326875,1.32784375,0.02088023957504074,0.025568973941159766,True
19706,150351,0,150352,3764.0,41774.0,30114.0,-0.002257,-0.005429,-0.000976,0.24500000000000002,-1.0150000000000001,-3.4650000000000003,1.1480000000000001,0.27771875,0.204125,1.3955,1.0991250000000001,-0.215375,-0.43075,1.31471875,0.020362837659957774,0.025986717558814203,True
19707,150352,0,150353,3764.0,41772.0,30113.0,-0.002013,-0.004575,-0.0017079999999999999,0.385,-1.1025,-3.43,1.12034375,0.2683125,0.2010625,1.37353125,1.1130625,-0.21534375,-0.4376875,1.31665625,0.01997313170497528,0.02613790687027977,True
19708,150353,0,150354,3764.0,41771.0,30113.0,-0.0026839999999999998,-0.0050019999999999995,-0.001769,0.28,-1.2425000000000002,-3.3950000000000005,1.1625625,0.27790625,0.1948125,1.39584375,1.0998125,-0.21875,-0.43328125,1.31675,0.02050709677419355,0.025706483855908627,True
19709,150354,0,150355,3763.0,41773.0,30115.0,-0.0017079999999999999,-0.001037,-0.000915,0.22750000000000004,-1.2775,-3.6225000000000005,1.1410625,0.27865625,0.20215625,1.39396875,1.10590625,-0.2203125,-0.43359375,1.3159375,0.020601251532159214,0.026019504396482814,True
19710,150355,0,150356,3765.0,41771.0,30114.0,-0.0013419999999999999,0.003843,0.002562,0.3325,-1.5925000000000002,-3.5175000000000005,1.13465625,0.27859375000000003,0.19203125000000001,1.37859375,1.1076875,-0.21859375,-0.4335625,1.31975,0.020529164704288415,0.02560386967721142,True
19711,150356,0,150357,3765.0,41773.0,30115.0,-0.00042699999999999997,0.006344,0.00244,0.4025,-1.8025000000000002,-3.5875000000000004,1.125375,0.273625,0.1929375,1.37146875,1.10840625,-0.21690625,-0.42709375,1.32515625,0.02025573559793584,0.025382931606425754,True
19712,150357,0,150358,3765.0,41775.0,30119.0,0.002623,0.004575,0.001098,0.31500000000000006,-2.0650000000000004,-3.6050000000000004,1.1325625,0.27771875,0.206625,1.3742812500000001,1.10425,-0.21634375,-0.43365625,1.3243125,0.02040202704010592,0.026204889004280727,True
19713,150358,0,150359,3767.0,41776.0,30116.0,0.004758,0.001952,0.000305,0.24500000000000002,-2.205,-3.5525,1.13946875,0.2755625,0.19728125,1.3766562500000001,1.09975,-0.213125,-0.43459375,1.318,0.020182752123073744,0.025859852898106807,True
19714,150359,0,150360,3767.0,41776.0,30117.0,0.0053679999999999995,-0.0013419999999999999,-0.000305,0.2625,-2.1525000000000003,-3.4650000000000003,1.145125,0.27603125,0.20259375000000002,1.37590625,1.10115625,-0.21962500000000001,-0.43546875,1.3135937500000001,0.02046506706854462,0.026112144871376777,True
19715,150360,0,150361,3769.0,41778.0,30119.0,0.0017079999999999999,-0.00122,-0.001769,0.24500000000000002,-1.0850000000000002,-3.4125000000000005,1.1399375,0.27521875,0.19868750000000002,1.37728125,1.10709375,-0.21671875000000002,-0.4335625,1.3235937500000001,0.020313961816152325,0.025876292087983484,True
19716,150361,0,150362,3769.0,41776.0,30119.0,-0.0037819999999999998,-0.001403,-0.000122,0.3325,-0.4025,-3.2025,1.146125,0.27609375,0.19971875,1.37128125,1.1014375,-0.21675,-0.4335625,1.31784375,0.02035135804763232,0.02591849837697634,True
19717,150362,0,150363,3770.0,41778.0,30120.0,-0.006405,-0.0017079999999999999,-0.000244,0.2625,0.14,-3.1325000000000003,1.13890625,0.27378125000000003,0.19909375,1.3825625000000001,1.1108125,-0.21690625,-0.43325,1.31784375,0.02026218770203151,0.02588046002885412,True
19718,150363,0,150364,3771.0,41782.0,30120.0,-0.007442,-0.0021349999999999997,-0.000183,0.35000000000000003,0.17500000000000002,-3.115,1.13878125,0.27571875,0.19796875,1.37690625,1.10203125,-0.22059375,-0.43371875,1.31790625,0.02049134323967595,0.025853105147983252,True
19719,150364,0,150365,3770.0,41783.0,30121.0,-0.006161,-0.000976,-6.1e-05,0.35000000000000003,-0.08750000000000001,-3.1500000000000004,1.1393125,0.2738125,0.19940625,1.38059375,1.109125,-0.21590625,-0.436125,1.3177812500000001,0.02022301973522052,0.0260078572195878,True
19720,150365,0,150366,3771.0,41781.0,30122.0,0.000244,0.000549,0.000549,0.43750000000000006,-1.4000000000000001,-3.325,1.1435,0.27525,0.19771875,1.37696875,1.10821875,-0.21646875000000002,-0.4368125,1.31684375,0.020305138419489836,0.02596620365278819,True
19721,150366,0,150367,3772.0,41782.0,30121.0,0.002257,0.0013419999999999999,0.000549,0.35000000000000003,-1.7850000000000001,-3.5000000000000004,1.1435,0.276,0.19640625,1.377,1.1011875,-0.2173125,-0.43484375000000003,1.32215625,0.020370241330453166,0.025834010090610877,True
19722,150367,0,150368,3774.0,41782.0,30124.0,0.005429,0.000793,6.1e-05,0.3325,-2.0650000000000004,-3.5000000000000004,1.1459062500000001,0.27621875,0.19593750000000001,1.377,1.101375,-0.21975,-0.4346875,1.32421875,0.020477864139803258,0.025808596897341128,True
19723,150368,0,150369,3773.0,41785.0,30124.0,0.0048189999999999995,-6.1e-05,-0.001403,0.14,-2.1175,-3.5000000000000004,1.1460625,0.275875,0.19740625,1.37709375,1.09434375,-0.21890625,-0.43446875,1.32240625,0.020429545615834734,0.025859985189978806,True
19724,150369,0,150370,3774.0,41783.0,30122.0,0.00366,6.1e-05,-0.00061,0.14,-1.8200000000000003,-3.5000000000000004,1.1437187500000001,0.27568750000000003,0.19734375,1.3765625000000001,1.10178125,-0.20996875,-0.4358125,1.3175625,0.020060176657601014,0.025910996411516906,True
19725,150370,0,150371,3774.0,41785.0,30125.0,0.000915,0.001037,0.000366,0.28,-1.0675000000000001,-3.22,1.14121875,0.28,0.199125,1.38196875,1.108625,-0.216875,-0.43709375,1.31271875,0.020517717500709735,0.026034959660454715,True
19726,150371,0,150372,3775.0,41785.0,30125.0,-0.0013419999999999999,0.000549,0.0006709999999999999,0.3325,-0.7000000000000001,-3.2025,1.13903125,0.272125,0.1995625,1.3805625000000001,1.10878125,-0.21790625,-0.433625,1.31971875,0.020234253322373816,0.02591459515319565,True
19727,150372,0,150373,3776.0,41786.0,30127.0,-0.0034159999999999998,0.001952,0.0017079999999999999,0.35000000000000003,-0.5775,-2.9400000000000004,1.14453125,0.2768125,0.198625,1.382125,1.097375,-0.21596875000000001,-0.4343125,1.3173125,0.020349433676899675,0.025903634489409102,True
19728,150373,0,150374,3778.0,41785.0,30129.0,-0.0046359999999999995,-0.000183,0.002013,0.29750000000000004,-0.47250000000000003,-3.0100000000000002,1.13846875,0.2735625,0.20025,1.3835625,1.10190625,-0.21821875000000002,-0.43309375,1.3217812500000001,0.020306251879073478,0.02592155363051394,True
19729,150374,0,150375,3777.0,41786.0,30126.0,-0.004392,-0.001403,0.004026,0.29750000000000004,-0.5425000000000001,-3.0450000000000004,1.1386875,0.27259375,0.19853125,1.38309375,1.1016875,-0.2184375,-0.43012500000000004,1.3225,0.020275100323875146,0.02573282985658076,True
19730,150375,0,150376,3779.0,41788.0,30131.0,-0.001647,-0.000366,0.0011589999999999999,0.28,-1.2775,-3.08,1.1405625,0.280875,0.19675,1.37240625,1.09453125,-0.21759375,-0.433625,1.31809375,0.020582918152221463,0.02579948738674675,True
19731,150376,0,150377,3779.0,41790.0,30132.0,-0.001037,-0.000915,-0.001464,0.385,-1.7500000000000002,-3.0975,1.13846875,0.2735,0.1990625,1.38075,1.1083125,-0.21246875,-0.43375,1.3154375,0.020071011965684005,0.025899114953701334,True
19732,150377,0,150378,3783.0,41792.0,30133.0,-0.00061,-0.000732,-0.004331,0.4025,-2.555,-3.43,1.14225,0.2769375,0.1980625,1.3766875,1.1023125,-0.21571875000000001,-0.43909375,1.31234375,0.02034448182546719,0.026071189730593015,True
19733,150378,0,150379,3782.0,41793.0,30135.0,-0.0050019999999999995,0.0013419999999999999,-0.008662,0.6300000000000001,-3.4125000000000005,-3.7450000000000006,1.13871875,0.27259375,0.19903125,1.3831875,1.11509375,-0.21609375,-0.4320625,1.32453125,0.020180277836924054,0.025830555647931894,True
19734,150379,0,150380,3782.0,41794.0,30135.0,-0.002379,0.000793,0.004331,0.5950000000000001,-3.4650000000000003,-3.9550000000000005,1.139,0.2733125,0.19796875,1.38203125,1.094375,-0.22340625,-0.43190625,1.3238125,0.020505735026427177,0.02578083730163298,True
19735,150380,0,150381,3783.0,41792.0,30135.0,0.009637999999999999,-0.008235,-0.001586,0.0,-3.0625000000000004,-3.3950000000000005,1.1383125,0.27559375,0.19603125,1.37659375,1.0944375,-0.21965625,-0.435125,1.3121562500000001,0.020448267097102173,0.02582987604933472,True
19736,150381,0,150382,3783.0,41792.0,30135.0,0.012078,0.0025009999999999998,-0.005429,0.035,-2.975,-3.8150000000000004,1.1448125,0.27575,0.2,1.3830625,1.11771875,-0.2144375,-0.43903125,1.31565625,0.020243604667669855,0.0261479779400012,True
19737,150382,0,150383,3784.0,41791.0,30134.0,0.008173999999999999,0.010614,-0.002074,0.15750000000000003,-2.5375,-3.8150000000000004,1.13896875,0.27359375,0.19765625,1.3773125,1.0918125,-0.2221875,-0.4318125,1.31925,0.0204680625975668,0.025764308317281007,True
19738,150383,0,150384,3786.0,41792.0,30136.0,0.003965,0.0064659999999999995,0.0018909999999999999,0.385,-2.1,-3.2550000000000003,1.1430625,0.27590625,0.19675,1.37684375,1.1026562500000001,-0.2154375,-0.44075000000000003,1.31246875,0.020290517154604372,0.026083487618014996,True
19739,150384,0,150385,3787.0,41794.0,30136.0,-0.000732,-0.0006709999999999999,0.002623,0.49000000000000005,-1.5575,-3.0975,1.14421875,0.2758125,0.19690625,1.3765625000000001,1.11725,-0.214875,-0.439875,1.3120625000000001,0.02026388738327165,0.02605501255632445,True
19740,150385,0,150386,3787.0,41794.0,30136.0,-0.0064659999999999995,-0.00244,0.001403,0.24500000000000002,-0.6475000000000001,-3.535,1.144125,0.27584375,0.19809375,1.3764687500000001,1.1199375,-0.21471875,-0.436625,1.312,0.02025885599022289,0.025974075798110417,True
19741,150386,0,150387,3787.0,41794.0,30137.0,-0.010003999999999999,0.0011589999999999999,0.00244,0.5775,-1.2075,-3.43,1.1455312500000001,0.2760625,0.19771875,1.37671875,1.11959375,-0.214375,-0.44240625,1.3124375,0.0202539813643755,0.02618911548448713,True
19742,150387,0,150388,3788.0,41796.0,30141.0,-0.005063,-0.00122,0.000305,0.49000000000000005,-1.4700000000000002,-3.2550000000000003,1.14596875,0.2755625,0.19943750000000002,1.383125,1.11184375,-0.21571875000000001,-0.43709375,1.3145,0.02028770052509798,0.02604774759682706,True
19743,150388,0,150389,3789.0,41797.0,30142.0,0.00183,-0.004941,-0.004514,0.28,-1.4000000000000001,-3.115,1.13878125,0.273625,0.19618750000000001,1.3725625000000001,1.09990625,-0.22246875,-0.43103125000000003,1.32025,0.020480726185269617,0.02567303621291058,True
19744,150389,0,150390,3789.0,41795.0,30138.0,0.0034159999999999998,-0.003477,-0.0035989999999999998,0.21000000000000002,-1.4875,-3.6050000000000004,1.14471875,0.2753125,0.19921875,1.3844375,1.108375,-0.21646875000000002,-0.43475,1.31725,0.02030771930775415,0.025945374927101767,True
19745,150390,0,150391,3788.0,41799.0,30140.0,-0.000549,0.0023179999999999997,0.000732,0.3325,-1.6800000000000002,-3.4125000000000005,1.14446875,0.27584375,0.20046875,1.38121875,1.10240625,-0.2185,-0.43490625,1.3176875000000001,0.020411823605921094,0.026002759883721673,True
19746,150391,0,150392,3791.0,41796.0,30141.0,0.000305,0.002196,0.003355,0.35000000000000003,-1.715,-3.0625000000000004,1.1388125,0.2754375,0.19868750000000002,1.3810625,1.0992187500000001,-0.22003125,-0.43343750000000003,1.31240625,0.020456982275776376,0.02587130852955095,True
19747,150392,0,150393,3791.0,41798.0,30140.0,-0.001037,0.002806,0.004209,0.29750000000000004,-1.5925000000000002,-3.325,1.1416875,0.28115625,0.19615625,1.37675,1.102125,-0.2186875,-0.43415625,1.3180625000000001,0.020638762938743067,0.025796368556822994,True
19748,150393,0,150394,3792.0,41797.0,30141.0,-0.00042699999999999997,0.002379,0.001098,0.2625,-1.3650000000000002,-3.6050000000000004,1.1380000000000001,0.27609375,0.19746875,1.3770625,1.10853125,-0.2161875,-0.4368125,1.3176875000000001,0.02032860251020108,0.02595597318594641,True
19749,150394,0,150395,3791.0,41798.0,30141.0,-0.0023179999999999997,-0.001403,-0.0017079999999999999,0.08750000000000001,-1.2775,-3.6050000000000004,1.13121875,0.2763125,0.19821875,1.37603125,1.10990625,-0.21634375,-0.43571875,1.317625,0.02034395675441302,0.02594306746143901,True
19750,150395,0,150396,3792.0,41800.0,30141.0,-0.0013419999999999999,-0.0018909999999999999,-0.002257,0.10500000000000001,-1.5575,-3.5875000000000004,1.1320937500000001,0.2739375,0.19821875,1.3803125,1.1064375,-0.2149375,-0.43634375000000003,1.3195937500000001,0.02018898458854168,0.025967980582201462,True
19751,150396,0,150397,3791.0,41799.0,30141.0,0.000122,-6.1e-05,-0.0017079999999999999,0.15750000000000003,-1.7500000000000002,-3.7275000000000005,1.13946875,0.27603125,0.197125,1.37134375,1.10215625,-0.22115625,-0.43346875,1.3174062500000001,0.020526992802005477,0.02580860525585423,True
19752,150397,0,150398,3789.0,41799.0,30140.0,0.0026839999999999998,-0.00042699999999999997,-0.001281,0.15750000000000003,-2.0125,-3.8150000000000004,1.14321875,0.27534375,0.19953125,1.38584375,1.1083125,-0.2165625,-0.436125,1.3106875,0.020312802446672603,0.026012972596923613,True
19753,150398,0,150399,3791.0,41800.0,30139.0,0.003477,-0.00061,0.000305,0.35000000000000003,-2.1525000000000003,-3.9200000000000004,1.1385,0.27187500000000003,0.19878125,1.38634375,1.1080625,-0.216125,-0.43484375000000003,1.318875,0.02015186162113055,0.02593120735629832,True
19754,150399,0,150400,3791.0,41799.0,30136.0,0.003721,-0.001403,0.0011589999999999999,0.36750000000000005,-1.9075000000000002,-4.025,1.1250625,0.2768125,0.20353125,1.38371875,1.09646875,-0.21878125,-0.43328125,1.31775,0.020463199402323353,0.02606332295217205,True
19755,150400,0,150401,3791.0,41800.0,30136.0,0.000793,0.000183,-0.000732,0.3325,-1.5750000000000002,-3.9725000000000006,1.13665625,0.26971875,0.20215625,1.3823750000000001,1.10528125,-0.21678125,-0.42878125,1.3195000000000001,0.020089375007258655,0.025827629039004967,True
19756,150401,0,150402,3791.0,41799.0,30135.0,0.000549,0.001586,-0.000183,0.42000000000000004,-1.3125000000000002,-3.9025000000000003,1.13953125,0.27575,0.196375,1.37478125,1.1018125,-0.2185,-0.433875,1.3255937500000001,0.02040795259822037,0.025794107565828176,True
19757,150402,0,150403,3792.0,41798.0,30136.0,-0.0021349999999999997,0.001952,0.001647,0.35000000000000003,-1.0850000000000002,-3.8500000000000005,1.13675,0.27025,0.19990625,1.38584375,1.1026562500000001,-0.217,-0.43721875,1.32128125,0.020120163521493165,0.026071911313557315,True
19758,150403,0,150404,3789.0,41798.0,30137.0,-0.003843,0.0008539999999999999,0.001586,0.45500000000000007,-0.9800000000000001,-3.8850000000000002,1.13425,0.2763125,0.1985625,1.37490625,1.10128125,-0.21887500000000001,-0.43440625,1.3165625,0.020446346083375054,0.025904814036559615,True
19759,150404,0,150405,3790.0,41798.0,30137.0,-0.002989,0.000244,0.00244,0.35000000000000003,-1.3475000000000001,-3.8325000000000005,1.1354375,0.2804375,0.20365625,1.3881875000000001,1.10775,-0.216875,-0.434875,1.318,0.02053578341549023,0.02613196302416116,True
19760,150405,0,150406,3790.0,41799.0,30137.0,-0.001586,-0.000488,0.00042699999999999997,0.3325,-1.5050000000000001,-3.8675,1.13571875,0.27053125,0.199625,1.389,1.10784375,-0.2159375,-0.435375,1.31590625,0.020088784504006918,0.025986914463150247,True
19761,150406,0,150407,3790.0,41800.0,30137.0,-0.0006709999999999999,0.000488,-0.001586,0.4025,-1.8025000000000002,-3.9200000000000004,1.13653125,0.27740625,0.20290625,1.3748125,1.10534375,-0.21909375,-0.43365625,1.3221875,0.020500354188521197,0.026052691152188903,True
19762,150407,0,150408,3788.0,41801.0,30138.0,0.000549,0.00061,-0.002806,0.43750000000000006,-2.0300000000000002,-4.025,1.1360000000000001,0.27590625,0.19971875,1.38334375,1.10184375,-0.2168125,-0.43365625,1.30821875,0.020346143820537902,0.02592223585039591,True
19763,150408,0,150409,3790.0,41801.0,30138.0,0.0030499999999999998,-0.000976,-0.001586,0.42000000000000004,-2.2225,-3.9375000000000004,1.1397187500000001,0.28259375000000003,0.201125,1.37496875,1.1016875,-0.21696875000000002,-0.43390625,1.32153125,0.02062861397547949,0.02598975552670789,True
19764,150409,0,150410,3788.0,41799.0,30137.0,0.002928,-0.001037,-0.0006709999999999999,0.22750000000000004,-2.2750000000000004,-3.99,1.139625,0.2718125,0.19984375000000001,1.379,1.10390625,-0.21590625,-0.43471875,1.31896875,0.020140429392354456,0.025969707549836237,True
19765,150410,0,150411,3790.0,41799.0,30136.0,0.0015249999999999999,-0.001952,-0.00061,0.35000000000000003,-2.0125,-4.025,1.1435,0.27565625,0.19659375,1.3760625,1.0912187500000001,-0.21871875000000002,-0.434,1.318375,0.020412929565070407,0.025808044118850782,True
19766,150411,0,150412,3788.0,41801.0,30136.0,0.00061,-0.000366,0.00042699999999999997,0.385,-1.9075000000000002,-3.9025000000000003,1.13821875,0.2739375,0.19515625,1.37725,1.10840625,-0.21690625,-0.43371875,1.32271875,0.020268639806127177,0.02573799782319259,True
19767,150412,0,150413,3790.0,41797.0,30136.0,0.00122,0.001464,0.000305,0.4025,-2.0825,-3.9025000000000003,1.14153125,0.27328125000000003,0.1983125,1.377125,1.10834375,-0.2165625,-0.42928125,1.32246875,0.02022763346366769,0.025690225740882162,True
19768,150413,0,150414,3788.0,41799.0,30135.0,0.002013,0.001769,0.000244,0.43750000000000006,-1.9425000000000001,-3.8150000000000004,1.145,0.27396875,0.19921875,1.38340625,1.12040625,-0.216125,-0.43115625,1.3179375,0.02023832260528883,0.02580209440558099,True
19769,150414,0,150415,3788.0,41799.0,30134.0,0.0006709999999999999,0.000183,6.1e-05,0.31500000000000006,-1.6450000000000002,-3.8150000000000004,1.13915625,0.27534375,0.20503125,1.3774375,1.09434375,-0.2243125,-0.4348125,1.313,0.020626230362574792,0.0261857442122791,True
19770,150415,0,150416,3789.0,41800.0,30135.0,-0.002257,-0.0013419999999999999,0.000976,0.3325,-1.3825,-3.7800000000000002,1.146125,0.27503125,0.19921875,1.382125,1.12378125,-0.21378125,-0.4353125,1.33609375,0.02018736747281055,0.02596779762894377,True
19771,150416,0,150417,3788.0,41800.0,30137.0,-0.00244,-0.000366,0.00061,0.43750000000000006,-1.1375000000000002,-3.7800000000000002,1.13909375,0.272625,0.1968125,1.3770625,1.0891250000000001,-0.2273125,-0.43071875,1.30703125,0.020635285073406305,0.025686155877014463,True
19772,150417,0,150418,3788.0,41801.0,30136.0,-0.003904,-0.00042699999999999997,0.00061,0.385,-1.0675000000000001,-3.6400000000000006,1.143375,0.2755625,0.199,1.38284375,1.12184375,-0.212625,-0.4351875,1.32078125,0.020162518520813005,0.02595386264173336,True
19773,150418,0,150419,3790.0,41801.0,30134.0,-0.0028669999999999998,6.1e-05,0.000244,0.22750000000000004,-1.1025,-3.5525,1.1393125,0.274,0.19440625,1.37625,1.08928125,-0.22603125000000002,-0.43134375,1.30965625,0.02064024622274852,0.025612590384022575,True
19774,150419,0,150420,3789.0,41801.0,30135.0,-6.1e-05,6.1e-05,-0.00122,0.31500000000000006,-1.5050000000000001,-3.6400000000000006,1.1455312500000001,0.27575,0.19971875,1.38184375,1.1144375,-0.2134375,-0.439875,1.3115937500000001,0.020203141334228153,0.02617009088630772,True
19775,150420,0,150421,3788.0,41800.0,30135.0,0.002074,-0.000915,-0.000915,0.28,-1.8025000000000002,-3.5700000000000003,1.138875,0.27240625,0.19959375000000001,1.38384375,1.09975,-0.21675,-0.43696875,1.31853125,0.02019908740850857,0.026049159636462687,True
19776,150421,0,150422,3789.0,41800.0,30136.0,0.002806,-0.000732,-0.000305,0.28,-1.995,-3.6050000000000004,1.13875,0.27359375,0.1988125,1.3760000000000001,1.09771875,-0.2245,-0.4300625,1.332375,0.020561569898243516,0.025741849821301118,True
19777,150422,0,150423,3788.0,41800.0,30134.0,0.003355,0.000366,-0.000549,0.1925,-2.0125,-3.6575,1.1437187500000001,0.2764375,0.195375,1.376875,1.09290625,-0.21921875000000002,-0.432,1.3255937500000001,0.02046541034689651,0.025678413555992142,True
19778,150423,0,150424,3790.0,41800.0,30135.0,0.003721,0.000793,-6.1e-05,0.28,-1.9250000000000003,-3.6050000000000004,1.14475,0.27603125,0.196,1.375625,1.0941875,-0.2184375,-0.43940625,1.310375,0.020417037639195345,0.025999250697835586,True
19779,150424,0,150425,3790.0,41799.0,30135.0,0.000549,0.000976,0.000549,0.15750000000000003,-1.4175000000000002,-3.5700000000000003,1.1449375,0.27815625,0.1968125,1.3768125,1.11053125,-0.21553125,-0.4333125,1.322625,0.020387225657087327,0.025789585427681984,True
19780,150425,0,150426,3790.0,41802.0,30134.0,-0.0011589999999999999,0.001098,0.0011589999999999999,0.22750000000000004,-1.1900000000000002,-3.4650000000000003,1.14603125,0.27525,0.19696875,1.38065625,1.089875,-0.21975,-0.43309375,1.31859375,0.02043786579134797,0.0257872583163972,True
19781,150426,0,150427,3790.0,41803.0,30135.0,-0.0028669999999999998,0.000366,0.000976,0.21000000000000002,-1.0325000000000002,-3.3775000000000004,1.1397187500000001,0.2748125,0.20203125,1.37721875,1.1050625,-0.2166875,-0.4373125,1.31753125,0.0202959219752908,0.026162604828170035,True
19782,150427,0,150428,3789.0,41802.0,30136.0,-0.0034159999999999998,0.00061,0.000915,0.1925,-0.9800000000000001,-3.3950000000000005,1.14315625,0.2759375,0.196375,1.38053125,1.1046875,-0.21940625,-0.4341875,1.3239687500000001,0.020452349033122975,0.02580656713058292,True
19783,150428,0,150429,3791.0,41802.0,30137.0,-0.003538,0.00042699999999999997,0.000305,0.14,-0.9450000000000001,-3.3775000000000004,1.139625,0.27578125000000003,0.199,1.37834375,1.1046562500000001,-0.216375,-0.43553125000000004,1.31840625,0.02032328331552514,0.02596756516189923,True
19784,150429,0,150430,3790.0,41804.0,30137.0,-0.001586,-0.000244,-0.00061,0.28,-1.3125000000000002,-3.3075,1.13909375,0.27609375,0.19871875,1.3773125,1.10196875,-0.21556250000000002,-0.43746875,1.31721875,0.020303317339830533,0.026033281372482574,True
19785,150430,0,150431,3791.0,41803.0,30136.0,-0.00042699999999999997,-0.000732,-0.0006709999999999999,0.1925,-1.6625,-3.325,1.14325,0.2754375,0.19775,1.37684375,1.10140625,-0.21896875000000002,-0.43453125000000004,1.3164375,0.020414009163788202,0.025876545104584318,True
19786,150431,0,150432,3791.0,41804.0,30138.0,0.00122,-0.000305,-0.00122,0.14,-1.8725000000000003,-3.3075,1.144375,0.27521875,0.1975,1.37715625,1.1028125,-0.2203125,-0.42912500000000003,1.32425,0.020459325204825494,0.025650734522828796,True
19787,150432,0,150433,3791.0,41802.0,30138.0,0.0032329999999999998,-0.000488,-0.001098,0.17500000000000002,-2.1350000000000002,-3.4650000000000003,1.14103125,0.27678125,0.19559375,1.36959375,1.10190625,-0.2200625,-0.43321875,1.3223125,0.02051372699802075,0.02573596653122094,True
19788,150433,0,150434,3791.0,41802.0,30137.0,0.004697,-0.000549,-0.00122,0.24500000000000002,-2.0825,-3.43,1.1555312500000001,0.274875,0.1998125,1.38234375,1.1015625,-0.21875,-0.43465625,1.3178750000000001,0.020381935483870968,0.025965937212642395,True
19789,150434,0,150435,3791.0,41805.0,30138.0,0.00122,0.000244,-0.0008539999999999999,0.29750000000000004,-1.5225000000000002,-3.5875000000000004,1.13509375,0.271,0.20253125,1.37403125,1.10659375,-0.21540625,-0.43509375,1.31834375,0.020086644220556903,0.026094641032429023,True
19790,150435,0,150436,3792.0,41806.0,30137.0,-0.000976,0.000305,-0.000244,0.31500000000000006,-1.2775,-3.3600000000000003,1.144875,0.2755625,0.19634375,1.37203125,1.1016875,-0.21937500000000001,-0.434875,1.3228125,0.020435601661892597,0.025832698141488343,True
19791,150436,0,150437,3792.0,41803.0,30136.0,-0.002074,0.00061,0.000549,0.385,-1.1025,-3.3075,1.1489375,0.2764375,0.19321875,1.37103125,1.10140625,-0.21753125,-0.43425,1.311375,0.020397155469759124,0.025679885816016455,True
19792,150437,0,150438,3790.0,41804.0,30138.0,-0.0023179999999999997,0.000122,0.001098,0.36750000000000005,-1.0850000000000002,-3.325,1.147,0.26978125000000003,0.205875,1.3909375,1.1016875,-0.2170625,-0.43625,1.3176875000000001,0.020103336232460068,0.02627755895442222,True
19793,150438,0,150439,3794.0,41804.0,30139.0,-0.0023179999999999997,0.00061,0.000915,0.36750000000000005,-1.0150000000000001,-3.2900000000000005,1.132125,0.2720625,0.1980625,1.37134375,1.1084687500000001,-0.21621875000000002,-0.4356875,1.31721875,0.020163397722858776,0.02593542743579447,True
19794,150439,0,150440,3794.0,41804.0,30139.0,-0.0021349999999999997,-0.000793,0.000793,0.2625,-1.0850000000000002,-3.2550000000000003,1.1571875,0.2755,0.20203125,1.39246875,1.10165625,-0.21990625,-0.43459375,1.31809375,0.02045450733319829,0.026054249418409094,True
19795,150440,0,150441,3795.0,41805.0,30139.0,-0.0011589999999999999,0.00061,0.001464,0.31500000000000006,-1.0675000000000001,-3.22,1.13175,0.27203125,0.194875,1.3719375,1.106875,-0.21634375,-0.426375,1.3221875,0.020167164995747965,0.02543357334029302,True
19796,150441,0,150442,3794.0,41806.0,30141.0,6.1e-05,-0.001281,0.00061,0.29750000000000004,-1.33,-3.325,1.153875,0.28153125,0.1995,1.37540625,1.1015,-0.21740625,-0.43378125,1.32325,0.02060243342533844,0.025918266334646833,True
19797,150442,0,150443,3795.0,41807.0,30142.0,0.0011589999999999999,-0.001037,-0.00042699999999999997,0.2625,-1.435,-3.3950000000000005,1.14796875,0.27309375,0.2019375,1.3865,1.10165625,-0.2169375,-0.43778125,1.31721875,0.02023506275308346,0.02617744808563584,True
19798,150443,0,150444,3796.0,41808.0,30142.0,0.003355,-0.00042699999999999997,-0.0008539999999999999,0.24500000000000002,-1.4875,-3.3775000000000004,1.1323125,0.27228125000000003,0.20028125,1.3823750000000001,1.109,-0.217,-0.43543750000000003,1.3175625,0.020204040550026843,0.026016262242081815,True
19799,150444,0,150445,3795.0,41806.0,30142.0,0.002196,6.1e-05,-0.000366,0.35000000000000003,-1.5925000000000002,-3.3425000000000002,1.13746875,0.2743125,0.198875,1.38090625,1.1026875,-0.21715625,-0.434125,1.3235937500000001,0.020294238717644648,0.025906391163997074,True
19800,150445,0,150446,3796.0,41806.0,30142.0,0.001952,0.00061,0.000366,0.28,-1.4875,-3.2725000000000004,1.136875,0.27334375,0.19846875,1.38265625,1.10146875,-0.21281250000000002,-0.43315625,1.319125,0.02007847085091829,0.02585114233859983,True
19801,150446,0,150447,3796.0,41809.0,30143.0,0.001037,0.0006709999999999999,0.000549,0.24500000000000002,-1.4700000000000002,-3.3775000000000004,1.1382812500000001,0.2729375,0.19971875,1.37771875,1.10140625,-0.21728125,-0.4336875,1.32390625,0.02024251793334564,0.025923481668495594,True
19802,150447,0,150448,3797.0,41808.0,30143.0,-0.000549,0.0006709999999999999,0.00042699999999999997,0.24500000000000002,-1.225,-3.3425000000000002,1.1439062500000001,0.2725625,0.199,1.37878125,1.10115625,-0.2173125,-0.43421875,1.318,0.020228297421524374,0.025915244374244622,True
19803,150448,0,150449,3798.0,41808.0,30146.0,-0.0018909999999999999,0.00042699999999999997,0.00042699999999999997,0.31500000000000006,-0.9800000000000001,-3.2900000000000005,1.14621875,0.2755,0.19968750000000002,1.38240625,1.10159375,-0.21628125,-0.435875,1.30790625,0.020307876544834895,0.026009402159734407,True
19804,150449,0,150450,3798.0,41811.0,30145.0,-0.003843,0.000244,0.000183,0.2625,-0.805,-3.2025,1.13934375,0.277625,0.19618750000000001,1.376625,1.10921875,-0.22078125,-0.4340625,1.3255000000000001,0.020577628973053874,0.025793909629231733,True
19805,150450,0,150451,3799.0,41812.0,30149.0,-0.003965,-0.001281,-0.000366,0.29750000000000004,-1.0675000000000001,-3.2900000000000005,1.1439375,0.27353125,0.19925,1.38384375,1.1023125,-0.2160625,-0.43684375000000003,1.3166875,0.02021772738652289,0.026030110783026143,True
19806,150451,0,150452,3799.0,41811.0,30151.0,-0.016409,0.0055509999999999995,-0.000915,0.5775,-2.6075000000000004,-3.7275000000000005,1.1456875,0.27634375,0.1955,1.37971875,1.10140625,-0.21846875000000002,-0.434,1.3095,0.020431205007542023,0.025763280674469997,True
19807,150452,0,150453,3801.0,41811.0,30151.0,-0.008418,0.0015249999999999999,0.0037819999999999998,0.42000000000000004,-3.1850000000000005,-3.5000000000000004,1.13909375,0.2734375,0.19634375,1.37775,1.106375,-0.2168125,-0.433875,1.3237812500000001,0.020244200181175783,0.025792828603731503,True
19808,150453,0,150454,3802.0,41810.0,30149.0,0.009333,-0.010126,0.003477,0.052500000000000005,-2.5200000000000005,-2.9575000000000005,1.14565625,0.27528125000000003,0.20178125,1.38396875,1.10146875,-0.21553125,-0.438125,1.3176875000000001,0.02026850020067183,0.026184752308125114,True
19809,150454,0,150455,3801.0,41812.0,30149.0,0.012688,0.0071979999999999995,-0.0062829999999999995,0.15750000000000003,-3.5875000000000004,-4.322500000000001,1.13909375,0.27609375,0.19846875,1.37696875,1.1100625,-0.21175,-0.43465625,1.32125,0.020149049531735626,0.02591094360085381,True
19810,150455,0,150456,3802.0,41809.0,30146.0,0.008113,0.006039,-0.003721,0.29750000000000004,-3.3950000000000005,-3.7975000000000003,1.147,0.27540625,0.196875,1.37621875,1.1013125,-0.21921875000000002,-0.43409375,1.31765625,0.020422830525860792,0.025823292504965525,True
19811,150456,0,150457,3802.0,41812.0,30148.0,0.005124,-0.0017079999999999999,0.00042699999999999997,0.31500000000000006,-2.4325,-3.1325000000000003,1.1449375,0.2755625,0.19643750000000001,1.375875,1.0959375,-0.21734375,-0.4313125,1.32134375,0.020353439877154156,0.02569448530446328,True
19812,150457,0,150458,3804.0,41814.0,30150.0,0.001769,-0.002013,-0.000549,0.28,-1.4175000000000002,-3.43,1.13965625,0.2748125,0.1998125,1.38203125,1.10415625,-0.21559375,-0.43621875,1.31775,0.020251671508157838,0.026028218870810367,True
19813,150458,0,150459,3804.0,41813.0,30150.0,-0.009699,-0.001952,0.0006709999999999999,0.29750000000000004,-0.6825000000000001,-3.9200000000000004,1.13890625,0.27365625,0.198875,1.38303125,1.10990625,-0.216375,-0.43228125,1.317625,0.020235532774826953,0.025832882469785746,True
19814,150459,0,150460,3805.0,41814.0,30153.0,-0.013786,0.000915,0.001403,0.35000000000000003,-0.805,-3.2900000000000005,1.13928125,0.274,0.19915625,1.38084375,1.1085,-0.2166875,-0.43496875,1.31765625,0.020262370730926765,0.025951537179682297,True
19815,150460,0,150461,3804.0,41817.0,30156.0,-0.008357,0.0017079999999999999,0.00366,0.45500000000000007,-1.2950000000000002,-3.1675000000000004,1.138625,0.276125,0.19718750000000002,1.3768125,1.1018125,-0.21959375,-0.4338125,1.32171875,0.02046767402942091,0.02582486871420496,True
19816,150461,0,150462,3805.0,41820.0,30158.0,0.000793,-6.1e-05,0.002379,0.1925,-1.5575,-3.2375000000000003,1.1416250000000001,0.27640625,0.19953125,1.37925,1.102625,-0.21515625,-0.43559375,1.3178125,0.020299786419920376,0.025991797314112736,True
19817,150462,0,150463,3805.0,41815.0,30155.0,0.0060999999999999995,0.000549,-0.0008539999999999999,0.14,-1.9775000000000003,-3.4475000000000002,1.13875,0.27418750000000003,0.1993125,1.36921875,1.1096875,-0.216,-0.4371875,1.31828125,0.020242298480343573,0.026046368879397437,True
19818,150463,0,150464,3805.0,41818.0,30154.0,0.005307,0.000732,-0.003172,0.1925,-2.205,-3.5700000000000003,1.140125,0.27640625,0.19593750000000001,1.3770625,1.10715625,-0.22037500000000002,-0.43440625,1.32728125,0.020510881850508096,0.025797383556230267,True
19819,150464,0,150465,3807.0,41817.0,30158.0,0.002806,-0.001464,-0.003111,0.14,-1.8025000000000002,-3.2375000000000003,1.14453125,0.2769375,0.202375,1.385,1.1020625,-0.2146875,-0.438,1.3143125,0.020302760463045414,0.02620406743596039,True
19820,150465,0,150466,3806.0,41818.0,30158.0,0.001586,-0.00122,-0.002745,0.24500000000000002,-1.6800000000000002,-3.2375000000000003,1.1393125,0.27578125000000003,0.19993750000000002,1.3848125,1.09965625,-0.21959375,-0.43440625,1.315375,0.0204534809755015,0.02596108714530356,True
19821,150466,0,150467,3808.0,41821.0,30158.0,0.000122,-0.0006709999999999999,-0.00042699999999999997,0.21000000000000002,-1.4700000000000002,-3.4825000000000004,1.13921875,0.27534375,0.198125,1.401125,1.1074375,-0.22178125,-0.4323125,1.31565625,0.02052388281724739,0.02580343141894571,True
19822,150467,0,150468,3807.0,41817.0,30156.0,-0.001281,-0.000488,0.0006709999999999999,0.36750000000000005,-1.1900000000000002,-3.3775000000000004,1.1465,0.27740625,0.19428125000000002,1.38621875,1.10453125,-0.2233125,-0.42771875000000004,1.32028125,0.020670944570442214,0.025462877085073696,True
19823,150468,0,150469,3808.0,41817.0,30155.0,-0.00366,0.0,0.000488,0.385,-1.0850000000000002,-3.3425000000000002,1.12640625,0.27728125,0.1908125,1.36740625,1.1140625,-0.21603125,-0.43221875,1.3273125000000001,0.020371319102918648,0.025500395865602665,True
19824,150469,0,150470,3811.0,41818.0,30157.0,-0.0032329999999999998,0.00183,0.000793,0.36750000000000005,-0.9625000000000001,-3.4475000000000002,1.15415625,0.27259375,0.20409375,1.3881875000000001,1.0990625,-0.21690625,-0.4376875,1.31446875,0.020213151710904445,0.02626194683928256,True
19825,150470,0,150471,3809.0,41819.0,30157.0,-0.002562,0.00061,0.001281,0.1925,-0.8225000000000001,-3.535,1.1613125,0.27568750000000003,0.20578125,1.38575,1.09959375,-0.22009375,-0.437125,1.3145,0.020469831996418265,0.026308587855568114,True
19826,150471,0,150472,3808.0,41819.0,30157.0,-0.002257,-0.000915,0.0017079999999999999,0.24500000000000002,-1.0325000000000002,-3.4125000000000005,1.1613125,0.27815625,0.20400000000000001,1.39321875,1.0911250000000001,-0.22075,-0.4341875,1.31590625,0.020598298979181074,0.026118629891008244,True
19827,150472,0,150473,3806.0,41819.0,30156.0,-0.0017079999999999999,-0.00061,0.002074,0.385,-1.4000000000000001,-3.43,1.1414375,0.27971875,0.19903125,1.38146875,1.1085625000000001,-0.22153125,-0.43243750000000003,1.32028125,0.020694397675621763,0.02584550763713199,True
19828,150473,0,150474,3807.0,41816.0,30155.0,0.002379,0.00122,0.000732,0.31500000000000006,-1.5575,-3.5875000000000004,1.1216875,0.27209375,0.19553125000000002,1.36709375,1.11184375,-0.2155,-0.43159375,1.3233125000000001,0.020135605294129794,0.025668607886049185,True
19829,150474,0,150475,3806.0,41819.0,30154.0,0.0028669999999999998,-0.000366,-0.000976,0.31500000000000006,-1.6275000000000002,-3.7450000000000006,1.1499375,0.27828125,0.198625,1.3966875,1.0951250000000001,-0.217625,-0.43315625,1.31734375,0.020477080225662095,0.02585753733719932,True
19830,150475,0,150476,3805.0,41815.0,30152.0,0.002562,-0.000915,-0.001464,0.28,-1.7325000000000002,-3.7275000000000005,1.12734375,0.26653125,0.2039375,1.3935625,1.10859375,-0.21671875000000002,-0.4366875,1.31790625,0.01995522205088169,0.026215705381508848,True
19831,150476,0,150477,3803.0,41813.0,30152.0,0.000976,-0.001586,-0.001281,0.36750000000000005,-1.61,-3.7625,1.12578125,0.2739375,0.2038125,1.38134375,1.10834375,-0.21625,-0.43528125,1.3177812500000001,0.020242089506013524,0.026154548558756614,True
19832,150477,0,150478,3802.0,41816.0,30150.0,0.000488,-0.001037,-0.000732,0.43750000000000006,-1.6275000000000002,-3.6925000000000003,1.130875,0.27340625,0.2005,1.38221875,1.1056875,-0.216375,-0.43378125,1.32078125,0.02022520918180364,0.025959193278772604,True
19833,150478,0,150479,3801.0,41815.0,30151.0,0.0008539999999999999,0.0008539999999999999,0.00061,0.525,-1.3650000000000002,-3.7800000000000002,1.1389375,0.27509375,0.19521875,1.36553125,1.1024375,-0.21828125,-0.4335,1.3198750000000001,0.020372007200139357,0.02573183334356519,True
19834,150479,0,150480,3802.0,41815.0,30151.0,-0.000366,0.00061,0.000549,0.525,-0.9800000000000001,-3.8150000000000004,1.13234375,0.273125,0.19918750000000002,1.37996875,1.1075625,-0.217375,-0.43296875,1.324875,0.020254053133339184,0.025873083883840353,True
19835,150480,0,150481,3801.0,41815.0,30151.0,-0.0021349999999999997,-0.001647,0.0008539999999999999,0.43750000000000006,-0.665,-3.99,1.14421875,0.2763125,0.19915625,1.3819375,1.09853125,-0.21609375,-0.43609375,1.31234375,0.020333843066658926,0.025996380865906603,True
19836,150481,0,150482,3800.0,41815.0,30150.0,-0.0053679999999999995,-0.001647,-6.1e-05,0.35000000000000003,-0.56,-3.9025000000000003,1.13865625,0.2758125,0.1965625,1.3761875000000001,1.10178125,-0.218125,-0.4345,1.3176875000000001,0.020395365041678496,0.0258266999529354,True
19837,150482,0,150483,3798.0,41816.0,30150.0,-0.0037819999999999998,6.1e-05,-0.00042699999999999997,0.43750000000000006,-0.8925000000000001,-3.7275000000000005,1.13834375,0.27271875,0.19918750000000002,1.3824375,1.10775,-0.21581250000000002,-0.43596875,1.31715625,0.020174059821449312,0.025992677290520766,True
19838,150483,0,150484,3800.0,41815.0,30149.0,0.0032329999999999998,0.003355,-0.000549,0.56,-1.9250000000000003,-3.9025000000000003,1.1398125000000001,0.27618750000000003,0.1960625,1.37703125,1.10171875,-0.21346875,-0.43428125,1.3074375,0.0202224743202066,0.025797515529539055,True
19839,150484,0,150485,3798.0,41815.0,30145.0,0.004148,0.001098,-0.0011589999999999999,0.36750000000000005,-1.995,-3.99,1.13890625,0.27228125000000003,0.19918750000000002,1.3820937500000001,1.10984375,-0.21621875000000002,-0.43628125,1.31771875,0.02017243092503862,0.026005133248333357,True
19840,150485,0,150486,3797.0,41816.0,30144.0,0.0053679999999999995,-0.0021349999999999997,-0.001037,0.24500000000000002,-1.8550000000000002,-4.077500000000001,1.13903125,0.2725625,0.198875,1.3823750000000001,1.10790625,-0.216125,-0.436875,1.31290625,0.020180251795033268,0.026016010639658305,True
19841,150486,0,150487,3797.0,41811.0,30143.0,0.002928,-0.0028669999999999998,-0.000488,0.31500000000000006,-1.6800000000000002,-3.8500000000000005,1.139625,0.27296875,0.19865625,1.3799375,1.09984375,-0.21615625,-0.4336875,1.324875,0.02019829220419735,0.025879996623514152,True
19842,150487,0,150488,3796.0,41814.0,30145.0,0.0011589999999999999,-0.002074,0.000244,0.35000000000000003,-1.4525000000000001,-3.6400000000000006,1.14184375,0.2755625,0.19918750000000002,1.37753125,1.1015625,-0.21937500000000001,-0.43384375000000003,1.32165625,0.020435601661892597,0.025907968327742132,True
19843,150488,0,150489,3795.0,41813.0,30143.0,-0.001464,0.00183,0.002562,0.49000000000000005,-1.0150000000000001,-3.7100000000000004,1.14353125,0.27534375,0.19828125,1.38284375,1.10728125,-0.21646875000000002,-0.43559375,1.31765625,0.020309009751886306,0.025940642428629344,True
19844,150489,0,150490,3795.0,41812.0,30142.0,-0.00244,0.001098,0.0018909999999999999,0.5075000000000001,-1.0325000000000002,-3.6575,1.1390625,0.27568750000000003,0.19971875,1.3731875,1.1024375,-0.2184375,-0.43415625,1.318375,0.020402843907663327,0.025942168557590357,True
19845,150490,0,150491,3793.0,41811.0,30144.0,-0.001464,-6.1e-05,0.000305,0.3325,-1.1725,-3.7450000000000006,1.13959375,0.274375,0.19909375,1.3820000000000001,1.10671875,-0.216125,-0.43321875,1.3223125,0.020255098617140435,0.02587921413342235,True
19846,150491,0,150492,3794.0,41808.0,30142.0,-0.001037,-6.1e-05,-0.00061,0.4025,-1.1375000000000002,-3.7625,1.1458125000000001,0.2753125,0.19593750000000001,1.38184375,1.088625,-0.21678125,-0.43493750000000003,1.31690625,0.02032036152616277,0.02581856409495625,True
19847,150492,0,150493,3794.0,41809.0,30140.0,-0.00042699999999999997,-0.000549,-0.001098,0.22750000000000004,-1.2600000000000002,-3.7450000000000006,1.13890625,0.27390625,0.19703125,1.37790625,1.106,-0.21815625,-0.43403125000000004,1.32109375,0.02031791747152511,0.025827195420321813,True
19848,150493,0,150494,3792.0,41810.0,30141.0,-0.0008539999999999999,0.000366,-0.000305,0.385,-1.1900000000000002,-3.6225000000000005,1.1400937500000001,0.27565625,0.1995,1.38453125,1.1024375,-0.21509375,-0.435875,1.3178125,0.020266285361790103,0.026001729015228636,True
19849,150494,0,150495,3793.0,41809.0,30139.0,-0.000915,-0.000549,-0.00061,0.31500000000000006,-1.1900000000000002,-3.5700000000000003,1.13859375,0.275625,0.1985625,1.3770625,1.10178125,-0.21753125,-0.43325,1.3169375,0.020363605394335973,0.02585871711704337,True
19850,150495,0,150496,3793.0,41806.0,30140.0,-0.0013419999999999999,0.00061,-0.00042699999999999997,0.36750000000000005,-1.2600000000000002,-3.6400000000000006,1.1396875,0.27375,0.20115625,1.36859375,1.1084375,-0.21753125,-0.43384375000000003,1.324875,0.020286182143359473,0.02598854304288493,True
19851,150496,0,150497,3792.0,41810.0,30139.0,6.1e-05,-0.000122,-0.001403,0.3325,-1.3650000000000002,-3.7100000000000004,1.14421875,0.27675,0.19703125,1.3773125,1.1028125,-0.2159375,-0.4341875,1.317125,0.02034558851995716,0.025833424991111326,True
19852,150497,0,150498,3791.0,41807.0,30138.0,0.00042699999999999997,0.000366,-0.00042699999999999997,0.28,-1.2950000000000002,-3.5875000000000004,1.14625,0.2750625,0.19859375,1.38221875,1.1149375,-0.21621875000000002,-0.4400625,1.3163125,0.020287281638468022,0.026131530964783746,True
19853,150498,0,150499,3791.0,41807.0,30139.0,0.00183,0.0,-0.000915,0.28,-1.54,-3.5700000000000003,1.13709375,0.27278125000000003,0.19825,1.37659375,1.1003125,-0.2144375,-0.43365625,1.3194062500000001,0.020121002191357946,0.02586212409368737,True
19854,150499,0,150500,3791.0,41807.0,30138.0,0.000732,-0.00061,-0.000549,0.28,-1.5750000000000002,-3.5700000000000003,1.1456875,0.27434375,0.19903125,1.37915625,1.113875,-0.21534375,-0.43640625,1.31525,0.020222198993148716,0.026003721394180043,True
19855,150500,0,150501,3789.0,41805.0,30136.0,0.002257,0.0,-0.000976,0.28,-1.5050000000000001,-3.5175000000000005,1.13903125,0.27275,0.19884375,1.38265625,1.1023125,-0.22403125000000002,-0.43115625,1.33265625,0.020507786044075552,0.025786745152514015,True
19856,150501,0,150502,3789.0,41802.0,30133.0,0.0011589999999999999,0.000488,0.000915,0.42000000000000004,-1.3650000000000002,-3.5000000000000004,1.1429375,0.27578125000000003,0.1955,1.3763125,1.09546875,-0.21431250000000002,-0.43743750000000003,1.31203125,0.020239837492805137,0.02590032199570843,True
19857,150502,0,150503,3788.0,41802.0,30134.0,0.0021349999999999997,0.00061,-0.000122,0.3325,-1.225,-3.4125000000000005,1.13940625,0.27375,0.19793750000000002,1.3766875,1.113,-0.2183125,-0.4320625,1.32659375,0.02031778638581858,0.02578578865374137,True
19858,150503,0,150504,3789.0,41801.0,30133.0,0.0021349999999999997,0.000244,0.001281,0.43750000000000006,-0.9100000000000001,-3.1325000000000003,1.14725,0.2753125,0.19928125,1.3823750000000001,1.11278125,-0.2155,-0.43743750000000003,1.32325,0.02026852635708534,0.02605505384924258,True
19859,150504,0,150505,3788.0,41801.0,30132.0,0.0006709999999999999,0.0,0.0018909999999999999,0.35000000000000003,-0.7525000000000001,-3.08,1.14134375,0.2760625,0.19765625,1.37584375,1.0941875,-0.214375,-0.44028125,1.311625,0.0202539813643755,0.02610188865973054,True
19860,150505,0,150506,3788.0,41799.0,30130.0,-0.00183,-6.1e-05,0.001647,0.31500000000000006,-0.385,-3.1325000000000003,1.138375,0.27471875,0.19871875,1.379875,1.111,-0.2185625,-0.43109375,1.3319375,0.020367899622448688,0.02577913647439546,True
19861,150506,0,150507,3786.0,41799.0,30131.0,-0.0034159999999999998,0.00042699999999999997,0.002196,0.35000000000000003,-0.14,-3.0975,1.13884375,0.2765625,0.19778125,1.37759375,1.0850625,-0.216875,-0.43478125,1.31565625,0.02037577102743438,0.02588779058539761,True
19862,150507,0,150508,3787.0,41800.0,30132.0,-0.00488,6.1e-05,0.0011589999999999999,0.4025,-0.052500000000000005,-3.08,1.1416875,0.27518750000000003,0.19975,1.38540625,1.1124375,-0.21506250000000002,-0.43384375000000003,1.31275,0.020245663210656593,0.02593098967492579,True
19863,150508,0,150509,3786.0,41800.0,30133.0,-0.005063,0.000305,-0.0008539999999999999,0.28,-0.29750000000000004,-2.9925,1.13825,0.273625,0.199625,1.384125,1.1009375000000001,-0.21721875000000002,-0.43159375,1.32365625,0.020268378258754424,0.02583616756479507,True
19864,150509,0,150510,3785.0,41803.0,30133.0,-0.0035989999999999998,6.1e-05,-0.0008539999999999999,0.45500000000000007,-0.6300000000000001,-2.9925,1.13909375,0.27365625,0.19840625,1.37690625,1.10196875,-0.21928125,-0.43303125000000003,1.324375,0.02035310193195762,0.02584360055611193,True
19865,150510,0,150511,3785.0,41800.0,30135.0,-0.001037,0.00061,-0.001037,0.42000000000000004,-1.12,-3.1325000000000003,1.14484375,0.27540625,0.19990625,1.38040625,1.1018125,-0.215625,-0.43640625,1.3176875000000001,0.02027745515550394,0.026039528623403863,True
19866,150511,0,150512,3787.0,41797.0,30130.0,0.001952,0.00061,-0.0013419999999999999,0.24500000000000002,-1.3475000000000001,-3.1850000000000005,1.13090625,0.27303125,0.198875,1.38121875,1.1081875,-0.2168125,-0.43640625,1.3171875,0.020227424645584552,0.025997327246104367,True
19867,150512,0,150513,3786.0,41798.0,30130.0,0.002989,-0.000244,-0.000793,0.28,-1.5050000000000001,-3.2550000000000003,1.1393125,0.27546875,0.19859375,1.38171875,1.1060625,-0.2169375,-0.43340625,1.31375,0.020333134608783623,0.0258662256720755,True
19868,150513,0,150514,3787.0,41801.0,30131.0,0.002013,-0.0026839999999999998,-0.000549,0.36750000000000005,-1.61,-3.4475000000000002,1.1457187500000001,0.27621875,0.19665625,1.377125,1.1013125,-0.21603125,-0.43578125,1.31765625,0.02032744320975387,0.025881615714660237,True
19869,150514,0,150515,3787.0,41795.0,30131.0,0.0018909999999999999,0.001647,-0.012199999999999999,0.6125,-1.2950000000000002,-3.5700000000000003,1.1391875,0.27187500000000003,0.19853125,1.37721875,1.10965625,-0.2163125,-0.43343750000000003,1.32453125,0.020159448305764965,0.025864913604563416,True
19870,150515,0,150516,3786.0,41799.0,30131.0,0.000244,0.0030499999999999998,-0.017629,0.5950000000000001,-0.9100000000000001,-3.535,1.1318125,0.27968750000000003,0.2,1.37728125,1.10196875,-0.21912500000000001,-0.43421875,1.31084375,0.02059581012939155,0.02595617058556456,True
19871,150516,0,150517,3786.0,41798.0,30129.0,-0.003172,-0.001769,0.006039,0.5425000000000001,-0.7525000000000001,-3.6225000000000005,1.1423125,0.2745,0.19878125,1.3841875000000001,1.09840625,-0.2159375,-0.4345625,1.31565625,0.020252674504135967,0.02591999549818009,True
19872,150517,0,150518,3787.0,41797.0,30128.0,-0.00732,-0.0046359999999999995,0.018727,0.6825000000000001,-0.8750000000000001,-3.9550000000000005,1.1416875,0.27615625,0.195625,1.3830625,1.10203125,-0.217125,-0.4321875,1.31803125,0.020369108636966612,0.025696123198137702,True
19873,150518,0,150519,3787.0,41797.0,30132.0,6.1e-05,0.003904,-0.000366,0.6475000000000001,-1.5050000000000001,-3.6050000000000004,1.13059375,0.27353125,0.199125,1.37396875,1.10671875,-0.21675,-0.43309375,1.32684375,0.020245542857732765,0.025875509522816774,True
19874,150519,0,150520,3787.0,41796.0,30131.0,0.0055509999999999995,0.006954,-0.009821,0.56,-1.7325000000000002,-3.8850000000000002,1.1488125,0.275625,0.20125,1.38459375,1.094375,-0.21609375,-0.436125,1.31790625,0.020305452856119705,0.026083309035290988,True
19875,150520,0,150521,3788.0,41796.0,30133.0,0.006893,0.002745,-0.0057339999999999995,0.45500000000000007,-1.8025000000000002,-4.41,1.136625,0.2724375,0.1998125,1.36740625,1.10790625,-0.209625,-0.433375,1.32415625,0.019912018463730852,0.025914860308901246,True
19876,150521,0,150522,3788.0,41794.0,30129.0,0.00244,-0.0070149999999999995,0.001952,0.3325,-1.7675,-4.445,1.1504375,0.277,0.20034375000000001,1.3858125000000001,1.1024375,-0.21775,-0.43734375000000003,1.317375,0.02042923062629683,0.02609479600253199,True
19877,150522,0,150523,3787.0,41792.0,30127.0,-0.0018909999999999999,-0.004026,0.001647,0.3325,-1.6625,-3.9025000000000003,1.13578125,0.27953125,0.20240625,1.37434375,1.1088125,-0.2134375,-0.43396875,1.32446875,0.020359304621658945,0.026044684206285567,True
19878,150523,0,150524,3788.0,41796.0,30129.0,-0.0025009999999999998,0.002074,0.002379,0.43750000000000006,-1.33,-4.095000000000001,1.14940625,0.2765625,0.19828125,1.37725,1.10146875,-0.21621875000000002,-0.43565625,1.31840625,0.020349223596272642,0.02594313381700154,True
19879,150524,0,150525,3786.0,41797.0,30131.0,-0.004331,0.005124,-0.0017079999999999999,0.49000000000000005,-1.1375000000000002,-4.48,1.13640625,0.27096875,0.19984375000000001,1.3855,1.1079375,-0.216375,-0.43496875,1.3181875,0.020124554149826304,0.025979673086342702,True
19880,150525,0,150526,3786.0,41795.0,30131.0,-0.005856,0.0025009999999999998,-0.00488,0.2625,-1.2425000000000002,-4.375,1.14565625,0.2760625,0.19975,1.3843750000000001,1.10246875,-0.21715625,-0.4326875,1.31875,0.020366501537520534,0.025884892932879364,True
19881,150526,0,150527,3784.0,41796.0,30130.0,-0.004148,-0.0011589999999999999,-0.0028669999999999998,0.21000000000000002,-1.8725000000000003,-3.99,1.13625,0.2725,0.19743750000000002,1.37365625,1.1056875,-0.2164375,-0.43296875,1.3204375,0.020190314946201316,0.025801459349879454,True
19882,150527,0,150528,3786.0,41797.0,30132.0,0.005124,0.003904,-0.003904,0.28,-2.765,-4.83,1.14628125,0.27575,0.196375,1.3831875,1.1020625,-0.2175625,-0.434,1.31753125,0.020370031046683577,0.025799091429974625,True
19883,150528,0,150529,3783.0,41795.0,30129.0,0.008539999999999999,0.003721,-0.004575,0.15750000000000003,-3.5175000000000005,-4.970000000000001,1.1365625,0.276875,0.19959375000000001,1.37715625,1.09915625,-0.21628125,-0.43390625,1.32115625,0.02036465652627816,0.02592708646412196,True
19884,150529,0,150530,3783.0,41793.0,30131.0,0.007442,-0.001952,0.00061,0.2625,-3.5525,-4.970000000000001,1.13909375,0.276625,0.19668750000000002,1.37740625,1.10221875,-0.2165625,-0.43365625,1.32034375,0.020365710451266568,0.025798175416337863,True
19885,150530,0,150531,3783.0,41795.0,30126.0,0.0037819999999999998,-0.004026,-0.0006709999999999999,0.2625,-3.2025,-5.022500000000001,1.14575,0.27415625,0.19928125,1.383625,1.10434375,-0.21659375,-0.43725,1.31846875,0.020265030047836516,0.0260475810494225,True
19886,150531,0,150532,3784.0,41794.0,30126.0,0.0017079999999999999,-0.002257,-0.0037819999999999998,0.21000000000000002,-2.5725000000000002,-4.987500000000001,1.13859375,0.27578125000000003,0.19609375,1.3775625,1.10221875,-0.22115625,-0.43434375000000003,1.32209375,0.020516671246856764,0.025801286355398842,True
19887,150532,0,150533,3784.0,41791.0,30125.0,0.0008539999999999999,0.0015249999999999999,0.001403,0.2625,-1.6975000000000002,-4.795000000000001,1.13371875,0.2755,0.19696875,1.37625,1.10896875,-0.2155,-0.44756250000000003,1.31409375,0.020276269331626438,0.02636382461441708,True
19888,150533,0,150534,3783.0,41791.0,30127.0,-0.000732,0.001281,0.007076,0.28,-1.9775000000000003,-4.795000000000001,1.13878125,0.2748125,0.1985,1.3828125,1.1165625000000001,-0.22015625,-0.42996875,1.32646875,0.02043623273487346,0.02572531943987853,True
19889,150534,0,150535,3784.0,41791.0,30123.0,0.00122,0.0008539999999999999,0.006222,0.28,-2.0825,-4.62,1.13859375,0.27315625,0.199,1.3826875,1.08971875,-0.22334375,-0.4284375,1.33953125,0.020496757389243586,0.02568471683872536,True
19890,150535,0,150536,3781.0,41790.0,30124.0,0.0051849999999999995,0.0023179999999999997,0.0011589999999999999,0.22750000000000004,-2.2225,-4.357500000000001,1.1388125,0.27371875,0.19775,1.377625,1.08203125,-0.22134375,-0.4303125,1.3265625,0.020439101360757495,0.025708328536526086,True
19891,150536,0,150537,3784.0,41790.0,30122.0,0.007076,0.002806,-0.000976,0.24500000000000002,-2.1525000000000003,-4.2525,1.1456250000000001,0.27568750000000003,0.19509375,1.373125,1.1065625000000001,-0.2115,-0.4371875,1.30390625,0.020122152696032874,0.025873732400670087,True
19892,150537,0,150538,3784.0,41787.0,30123.0,-0.000488,-0.001281,0.003111,0.42000000000000004,-1.4525000000000001,-4.357500000000001,1.13878125,0.27403125,0.203125,1.37971875,1.1198125,-0.21359375,-0.42759375,1.33684375,0.02013848109597527,0.025819929562239424,True
19893,150538,0,150539,3782.0,41790.0,30121.0,-0.005124,-0.002196,-0.0021349999999999997,0.385,-1.0325000000000002,-4.077500000000001,1.14696875,0.2760625,0.19734375,1.37721875,1.09771875,-0.211375,-0.444125,1.30771875,0.020132582308935363,0.0262422463475375,True
19894,150539,0,150540,3783.0,41790.0,30126.0,-0.0070149999999999995,-0.000549,-0.0030499999999999998,0.42000000000000004,-0.8575,-3.7625,1.1400000000000001,0.27284375,0.19828125,1.3839062500000001,1.1255625,-0.2159375,-0.437125,1.32171875,0.020184279464712032,0.026001677775106518,True
19895,150540,0,150541,3783.0,41790.0,30126.0,-0.0068319999999999995,0.00122,-0.001769,0.5775,-0.9100000000000001,-3.8675,1.1390625,0.2768125,0.1983125,1.38171875,1.09003125,-0.22534375,-0.42928125,1.3325625,0.02072855003347476,0.025690225740882162,True
19896,150541,0,150542,3783.0,41787.0,30126.0,-0.005795,-0.000488,6.1e-05,0.5775,-0.9450000000000001,-4.0600000000000005,1.1418125000000001,0.275875,0.195875,1.37703125,1.0894375,-0.22103125,-0.433,1.3249375,0.020515486928328042,0.025738754962550646,True
19897,150542,0,150543,3783.0,41787.0,30122.0,-0.002806,-0.0025009999999999998,-0.0015249999999999999,0.6125,-1.54,-3.7975000000000003,1.147875,0.2754375,0.1953125,1.3786562500000001,1.094625,-0.214125,-0.43534375000000003,1.311,0.02021805454460981,0.025809182651666197,True
19898,150543,0,150544,3784.0,41787.0,30121.0,-0.0013419999999999999,0.000183,-0.000122,0.49000000000000005,-1.9600000000000002,-3.8325000000000005,1.126875,0.27340625,0.20003125,1.3816875,1.10028125,-0.21503125,-0.431875,1.310125,0.020170839135299486,0.02586400961858228,True
19899,150544,0,150545,3783.0,41785.0,30121.0,0.000549,0.00244,0.00122,0.45500000000000007,-2.1700000000000004,-3.8325000000000005,1.13871875,0.273375,0.2058125,1.3771875,1.1070312500000001,-0.2161875,-0.43275,1.32190625,0.020216332566800617,0.02613551483152736,True
19900,150545,0,150546,3782.0,41785.0,30119.0,0.002989,0.00122,0.001586,0.4025,-2.2750000000000004,-3.8850000000000002,1.1451875,0.27646875,0.1965,1.37709375,1.095625,-0.21834375,-0.43396875,1.3125625,0.0204313104606916,0.02580296129747649,True
19901,150546,0,150547,3782.0,41786.0,30117.0,0.004514,0.000549,-0.0006709999999999999,0.3325,-2.3625000000000003,-3.7975000000000003,1.13621875,0.27296875,0.1988125,1.3765,1.11003125,-0.21703125,-0.43428125,1.3237812500000001,0.02023369400409061,0.02591006232278676,True
19902,150547,0,150548,3781.0,41780.0,30114.0,0.0057339999999999995,-0.0013419999999999999,0.000976,0.4025,-2.415,-3.9375000000000004,1.14221875,0.2735625,0.19884375,1.3816875,1.10190625,-0.21621875000000002,-0.436875,1.31725,0.0202253396806634,0.026014731834573774,True
19903,150548,0,150549,3780.0,41780.0,30112.0,0.004941,0.0,0.0008539999999999999,0.47250000000000003,-2.1175,-3.9200000000000004,1.14071875,0.27634375,0.19971875,1.38078125,1.1020625,-0.2195,-0.42984375,1.31834375,0.020472914387167366,0.025770222128416193,True
19904,150549,0,150550,3780.0,41777.0,30112.0,0.002196,0.00061,0.0017079999999999999,0.43750000000000006,-1.8550000000000002,-3.7450000000000006,1.139,0.27425,0.198375,1.3770625,1.10834375,-0.21703125,-0.43271875,1.3256875000000001,0.020286600984586,0.025829861852766593,True
19905,150550,0,150551,3778.0,41779.0,30108.0,6.1e-05,-0.000549,0.001769,0.5075000000000001,-1.5225000000000002,-3.6050000000000004,1.1443125,0.2754375,0.19768750000000002,1.377375,1.1011250000000001,-0.21884375,-0.4285625,1.32465625,0.020408953255664816,0.02563597428215434,True
19906,150551,0,150552,3776.0,41780.0,30109.0,-0.002379,0.000122,0.0008539999999999999,0.5425000000000001,-1.155,-3.5525,1.14909375,0.27609375,0.19893750000000002,1.38796875,1.10184375,-0.2168125,-0.43834375000000003,1.31728125,0.020353886375426164,0.02607710475469517,True
19907,150552,0,150553,3774.0,41779.0,30109.0,-0.004392,-6.1e-05,-0.00042699999999999997,0.56,-0.7525000000000001,-3.4125000000000005,1.1395,0.27603125,0.197625,1.381125,1.1073125,-0.21834375,-0.43425,1.3176875000000001,0.020413245641539794,0.025860216704011788,True
19908,150553,0,150554,3773.0,41780.0,30107.0,-0.004148,-0.0008539999999999999,-0.000122,0.5075000000000001,-0.9275000000000001,-3.2725000000000004,1.125875,0.274125,0.19743750000000002,1.3701875000000001,1.1078125,-0.21603125,-0.43421875,1.3214375,0.02024098189087033,0.02585129716905723,True
19909,150554,0,150555,3773.0,41778.0,30105.0,-0.003172,0.000366,-0.001281,0.6475000000000001,-1.2075,-3.2550000000000003,1.14634375,0.27340625,0.20078125,1.3839062500000001,1.1015625,-0.2183125,-0.43753125,1.3175000000000001,0.02030359258102727,0.026120171201827105,True
19910,150555,0,150556,3771.0,41776.0,30105.0,-0.000488,0.000976,-0.000976,0.6125,-1.3650000000000002,-3.2900000000000005,1.1519375,0.277,0.20209375000000002,1.39090625,1.1049375000000001,-0.2179375,-0.43443750000000003,1.3120625000000001,0.020436814654427118,0.026050579228598977,True
19911,150556,0,150557,3769.0,41775.0,30104.0,0.001647,0.001586,-0.00183,0.5075000000000001,-1.4175000000000002,-3.3425000000000002,1.14603125,0.27734375,0.19540625,1.3895,1.0968125,-0.2191875,-0.43365625,1.31934375,0.02050156513301695,0.025745737500911272,True
19912,150557,0,150558,3766.0,41774.0,30102.0,0.000244,-0.000122,0.000976,0.47250000000000003,-1.33,-3.3950000000000005,1.12465625,0.27503125,0.195875,1.377,1.1070312500000001,-0.21559375,-0.43340625,1.3254062500000001,0.020260704943482956,0.02575495383497747,True
19913,150558,0,150559,3767.0,41775.0,30101.0,-0.0015249999999999999,-6.1e-05,0.000549,0.42000000000000004,-1.3650000000000002,-3.3425000000000002,1.1320937500000001,0.2709375,0.19903125,1.3824687500000001,1.108625,-0.2165,-0.43509375,1.3175625,0.020128321598909833,0.025951404422174564,True
19914,150559,0,150560,3765.0,41774.0,30100.0,-0.0006709999999999999,0.0011589999999999999,0.000488,0.7000000000000001,-1.33,-3.2725000000000004,1.156375,0.27803125,0.195875,1.38121875,1.10278125,-0.21937500000000001,-0.4335,1.31790625,0.02053753451523832,0.02575869195980928,True
19915,150560,0,150561,3765.0,41775.0,30099.0,-0.000488,0.0015249999999999999,0.00061,0.6125,-1.3125000000000002,-3.3600000000000003,1.1339062500000001,0.271125,0.19940625,1.3921875000000001,1.108375,-0.21615625,-0.4308125,1.3183125,0.02012215501789224,0.025796061837894263,True
19916,150561,0,150562,3764.0,41776.0,30098.0,-0.001403,-0.000305,0.0032329999999999998,0.6475000000000001,-1.2775,-3.5700000000000003,1.13234375,0.27309375,0.19846875,1.37096875,1.1093125,-0.21181250000000001,-0.43353125000000003,1.3200625,0.020027672442944948,0.025866093342524935,True
19917,150562,0,150563,3763.0,41775.0,30100.0,-0.001586,0.000122,-0.000549,0.5775,-1.5225000000000002,-3.6400000000000006,1.1511875,0.27684375,0.19259375,1.3713125,1.1019375,-0.21790625,-0.43384375000000003,1.32334375,0.020429098820216963,0.02563810698020036,True
19918,150563,0,150564,3763.0,41775.0,30097.0,-0.0013419999999999999,6.1e-05,-0.00061,0.6300000000000001,-1.7850000000000001,-3.7450000000000006,1.14965625,0.27740625,0.19590625,1.3800937500000001,1.10190625,-0.21996875000000002,-0.43453125000000004,1.31884375,0.020535740782076775,0.025801088367512676,True
19919,150564,0,150565,3762.0,41772.0,30099.0,-0.001037,-0.000793,0.000488,0.6125,-2.2575000000000003,-3.7625,1.14065625,0.27921875,0.19771875,1.3764687500000001,1.10159375,-0.21834375,-0.4333125,1.3235000000000001,0.020544860752502947,0.025826676182363728,True
19920,150565,0,150566,3760.0,41775.0,30099.0,0.001647,-6.1e-05,-0.001952,0.43750000000000006,-2.7300000000000004,-3.6925000000000003,1.14640625,0.27634375,0.19771875,1.37734375,1.10225,-0.21834375,-0.43443750000000003,1.32265625,0.020426149083791083,0.025871528657043976,True
19921,150566,0,150567,3761.0,41775.0,30097.0,0.005124,-0.000976,-0.003477,0.35000000000000003,-3.115,-3.4125000000000005,1.14684375,0.281625,0.198625,1.3823125,1.10271875,-0.2146875,-0.43515625,1.31296875,0.020496341321770105,0.025937270198548454,True
19922,150567,0,150568,3759.0,41769.0,30096.0,0.011346,-0.00122,-0.002257,0.385,-3.5525,-3.2375000000000003,1.13859375,0.27215625,0.19921875,1.38365625,1.0998125,-0.2165625,-0.42921875,1.31821875,0.020181177654755914,0.025724830025520156,True
19923,150568,0,150569,3759.0,41771.0,30094.0,0.010919,0.0008539999999999999,-0.001037,0.35000000000000003,-2.9050000000000002,-3.0975,1.1394375,0.27225,0.20146875,1.37690625,1.10640625,-0.21540625,-0.4361875,1.3085625,0.02013826425067719,0.026094751892045354,True
19924,150569,0,150570,3759.0,41769.0,30093.0,0.007259,0.002196,0.000915,0.56,-2.24,-2.9050000000000002,1.1426875,0.2799375,0.19540625,1.37715625,1.1093125,-0.215,-0.4336875,1.31603125,0.020439293826140823,0.02574698354474739,True
19925,150570,0,150571,3759.0,41770.0,30095.0,0.000488,0.001403,0.00366,0.5425000000000001,-1.225,-2.765,1.144625,0.27484375,0.19643750000000001,1.37765625,1.10190625,-0.2185,-0.43409375,1.3106875,0.020370532857113363,0.025805387195913496,True
19926,150571,0,150572,3760.0,41768.0,30096.0,-0.005063,-0.002379,0.0018909999999999999,0.42000000000000004,-0.29750000000000004,-2.7475,1.139125,0.2713125,0.198375,1.38203125,1.1026875,-0.21231250000000002,-0.437375,1.3156875000000001,0.019974341566919726,0.026015478340042662,True
19927,150572,0,150573,3760.0,41770.0,30097.0,-0.012871,0.000732,0.0023179999999999997,0.43750000000000006,0.3325,-2.4675000000000002,1.14325,0.279125,0.19621875,1.3774375,1.099625,-0.2169375,-0.433125,1.324875,0.020484113649795726,0.0257578083032768,True
19928,150573,0,150574,3758.0,41771.0,30100.0,-0.009882,0.0017079999999999999,0.002379,0.5950000000000001,0.24500000000000002,-2.4675000000000002,1.14503125,0.27818750000000003,0.19565625,1.3764375,1.10240625,-0.21603125,-0.43003125000000003,1.3245625,0.020408742658853316,0.025611408090196366,True
19929,150574,0,150575,3757.0,41772.0,30099.0,-0.005795,0.00122,0.00042699999999999997,0.5425000000000001,-0.28,-2.5725000000000002,1.13865625,0.2733125,0.198375,1.38403125,1.10234375,-0.21028125,-0.4331875,1.3175937500000001,0.019974726646349885,0.025848551278870185,True
19930,150575,0,150576,3758.0,41772.0,30099.0,-0.002013,0.000122,-0.001403,0.29750000000000004,-0.8575,-2.66,1.144875,0.27615625,0.19715625,1.37703125,1.1023125,-0.21875,-0.4345,1.3175937500000001,0.020434838709677418,0.025850999611205468,True
19931,150576,0,150577,3757.0,41770.0,30098.0,0.000305,-0.000976,-0.00183,0.22750000000000004,-1.0150000000000001,-2.8350000000000004,1.13159375,0.27459375,0.198875,1.38175,1.10834375,-0.215125,-0.43559375,1.31728125,0.020223672188353355,0.02596494099923396,True
19932,150577,0,150578,3757.0,41773.0,30095.0,0.0025009999999999998,-0.000549,-0.00122,0.28,-1.4525000000000001,-3.0100000000000002,1.1384375,0.27171875,0.19818750000000002,1.36753125,1.10915625,-0.2159375,-0.43596875,1.3189375,0.020137822456801437,0.02595175401016176,True
19933,150578,0,150579,3756.0,41773.0,30098.0,0.003477,0.00122,-0.00244,0.29750000000000004,-1.2950000000000002,-3.0275000000000003,1.14109375,0.27471875,0.19696875,1.37640625,1.0944375,-0.211875,-0.4338125,1.3238125,0.020097317948320818,0.025815915956627727,True
19934,150579,0,150580,3755.0,41773.0,30097.0,0.0011589999999999999,0.0013419999999999999,-0.001647,0.385,-1.0325000000000002,-3.115,1.13984375,0.27225,0.19828125,1.374,1.109625,-0.2156875,-0.43471875,1.3225625,0.02014964472926899,0.025905761653180478,True
19935,150580,0,150581,3757.0,41777.0,30098.0,-0.00061,0.000366,-0.000488,0.28,-0.8575,-3.2025,1.13925,0.274,0.196125,1.37853125,1.10446875,-0.215875,-0.43325,1.31540625,0.02022949821140058,0.025758955521676404,True
19936,150581,0,150582,3756.0,41775.0,30097.0,-0.0025009999999999998,0.000488,0.0015249999999999999,0.29750000000000004,-0.665,-3.325,1.1395,0.27559375,0.1993125,1.3769375,1.1086562500000001,-0.21771875000000002,-0.43596875,1.32228125,0.020369899621532274,0.025997792700565635,True
19937,150582,0,150583,3757.0,41775.0,30098.0,-0.003965,6.1e-05,0.002562,0.31500000000000006,-0.7175,-3.4475000000000002,1.13925,0.27596875,0.1985625,1.37459375,1.10909375,-0.21734375,-0.434125,1.316875,0.02037021504474453,0.02589360167388846,True
19938,150583,0,150584,3756.0,41777.0,30099.0,-0.0023179999999999997,0.000488,0.002562,0.43750000000000006,-0.9450000000000001,-3.3775000000000004,1.138625,0.27590625,0.20159375000000002,1.3804375,1.10134375,-0.2173125,-0.4370625,1.3211875,0.020366370132936927,0.026134738985096922,True
19939,150584,0,150585,3758.0,41775.0,30098.0,0.000244,0.00061,0.0017079999999999999,0.42000000000000004,-1.54,-3.3950000000000005,1.1434375,0.27665625,0.20271875,1.38215625,1.09765625,-0.21603125,-0.43653125,1.3181875,0.02034550975399819,0.026159604792517346,True
19940,150585,0,150586,3754.0,41774.0,30098.0,0.0037819999999999998,0.0011589999999999999,-0.001769,0.42000000000000004,-2.1350000000000002,-3.4650000000000003,1.141125,0.27621875,0.19943750000000002,1.3845,1.10003125,-0.21740625,-0.43665625,1.31446875,0.02038306641529788,0.026030310509442142,True
19941,150586,0,150587,3757.0,41775.0,30098.0,0.0062829999999999995,-0.000732,-0.002074,0.31500000000000006,-2.31,-3.6575,1.14046875,0.276125,0.20203125,1.38553125,1.09890625,-0.2185,-0.43934375000000003,1.31571875,0.020423436629023267,0.026243544285021975,True
19942,150587,0,150588,3757.0,41776.0,30097.0,0.004758,-0.001403,0.000915,0.3325,-2.1175,-3.6400000000000006,1.1561875,0.2788125,0.19743750000000002,1.379,1.09915625,-0.21971875000000002,-0.4325,1.3151875,0.02058369278132101,0.025782768852962244,True
19943,150588,0,150589,3756.0,41778.0,30098.0,-0.00061,-0.000122,0.000122,0.42000000000000004,-1.61,-3.4475000000000002,1.1646875,0.27834375,0.19618750000000001,1.38640625,1.098125,-0.21903125,-0.43246875,1.32296875,0.020536535704746655,0.025730361365958975,True
19944,150589,0,150590,3757.0,41777.0,30098.0,-0.001769,0.0018909999999999999,0.0017079999999999999,0.385,-1.1025,-3.3425000000000002,1.126125,0.27078125000000003,0.1914375,1.3659375,1.10971875,-0.21415625,-0.429875,1.327375,0.020027024480772485,0.02543248788624584,True
19945,150590,0,150591,3756.0,41778.0,30100.0,-0.0035989999999999998,0.001586,-0.0008539999999999999,0.49000000000000005,-1.3475000000000001,-3.4125000000000005,1.1518125000000001,0.2715,0.20400000000000001,1.38540625,1.0993125,-0.21690625,-0.438875,1.3153125,0.02016798698223478,0.026305425270189406,True
19946,150591,0,150592,3757.0,41779.0,30098.0,-0.0006709999999999999,-0.001647,-0.000549,0.43750000000000006,-1.4525000000000001,-3.5875000000000004,1.161,0.2780625,0.19634375,1.393375,1.0995,-0.21796875000000002,-0.43325,1.315625,0.02048195103067841,0.025767908485363186,True
19947,150592,0,150593,3758.0,41779.0,30101.0,-0.000915,-0.003721,-0.002013,0.22750000000000004,-1.2950000000000002,-3.4825000000000004,1.12659375,0.27040625,0.19053125,1.36575,1.112,-0.21525,-0.43278125,1.3265625,0.020055801612620147,0.025511319960759688,True
19948,150593,0,150594,3757.0,41779.0,30100.0,-0.001281,-0.000488,0.000793,0.1925,-0.9100000000000001,-3.43,1.1604375,0.274875,0.20403125,1.3995312500000001,1.09925,-0.21746875000000002,-0.43540625,1.31603125,0.020330107786347407,0.02616848246588902,True
19949,150594,0,150595,3757.0,41779.0,30101.0,-0.003294,0.0023179999999999997,-0.000122,0.36750000000000005,-1.1025,-3.2725000000000004,1.13084375,0.27971875,0.185875,1.36640625,1.10840625,-0.21546875000000001,-0.4320625,1.326,0.02044922215267875,0.025292072660668744,True
19950,150595,0,150596,3757.0,41780.0,30101.0,-0.000915,0.000793,0.0,0.35000000000000003,-1.0850000000000002,-3.3950000000000005,1.1595625,0.27734375,0.194,1.37328125,1.09590625,-0.2211875,-0.43309375,1.3218750000000001,0.020582444605575182,0.025665753032196342,True
19951,150596,0,150597,3759.0,41779.0,30103.0,0.000488,-0.000244,0.000732,0.28,-1.1725,-3.5875000000000004,1.14921875,0.27871875,0.19640625,1.3696875,1.10184375,-0.21925,-0.4333125,1.32184375,0.020560865840189107,0.025772958537652234,True
19952,150597,0,150598,3758.0,41783.0,30103.0,0.000915,-0.000183,0.000305,0.24500000000000002,-1.3475000000000001,-3.4825000000000004,1.145375,0.26540625,0.2044375,1.37953125,1.1025625000000001,-0.21603125,-0.43634375000000003,1.31815625,0.01988094147342992,0.0262224683265065,True
19953,150598,0,150599,3759.0,41781.0,30103.0,0.0011589999999999999,6.1e-05,0.001647,0.21000000000000002,-1.2075,-3.43,1.14153125,0.27790625,0.200625,1.3736875,1.10209375,-0.21784375,-0.4333125,1.3178125,0.02047044341014051,0.025945622395653477,True
19954,150599,0,150600,3759.0,41783.0,30104.0,0.001281,0.000183,0.00183,0.385,-1.1725,-3.4825000000000004,1.13765625,0.27190625,0.19865625,1.37784375,1.10975,-0.2165625,-0.43634375000000003,1.31696875,0.02017085414166441,0.02598588424260483,True
19955,150600,0,150601,3760.0,41783.0,30103.0,0.000366,0.0013419999999999999,0.0008539999999999999,0.47250000000000003,-1.1725,-3.5175000000000005,1.14346875,0.27540625,0.2030625,1.38265625,1.1021875,-0.2151875,-0.431875,1.3178125,0.020259754338057472,0.02598807909749047,True
19956,150601,0,150602,3760.0,41784.0,30105.0,0.000366,-6.1e-05,-0.003477,0.35000000000000003,-1.0675000000000001,-3.2550000000000003,1.12584375,0.27509375,0.19934375000000001,1.37734375,1.10046875,-0.216125,-0.43328125,1.324125,0.02028477925349328,0.02589193786651148,True
19957,150602,0,150603,3761.0,41785.0,30104.0,-0.00042699999999999997,0.0011589999999999999,-0.002379,0.35000000000000003,-0.9275000000000001,-3.3075,1.14653125,0.274625,0.198625,1.37946875,1.10575,-0.21671875000000002,-0.4348125,1.3241875,0.02028944363075613,0.02592356704189975,True
19958,150603,0,150604,3760.0,41787.0,30106.0,-0.000122,0.000915,-0.0008539999999999999,0.3325,-0.9100000000000001,-3.2900000000000005,1.144375,0.27571875,0.198625,1.3806875,1.1016875,-0.2154375,-0.43671875,1.3195625,0.02028277416007867,0.025999552415358545,True
19959,150604,0,150605,3759.0,41788.0,30107.0,-0.000976,0.00042699999999999997,0.001952,0.29750000000000004,-0.9450000000000001,-3.325,1.14565625,0.2720625,0.199625,1.3766562500000001,1.1020625,-0.21625,-0.42709375,1.3245,0.020164662158674445,0.025656705476884655,True
19960,150605,0,150606,3760.0,41789.0,30109.0,-0.0006709999999999999,-0.000915,0.002989,0.3325,-0.7350000000000001,-3.2725000000000004,1.1388125,0.27628125,0.197375,1.38396875,1.10940625,-0.21903125,-0.43403125000000004,1.317625,0.02045137540338241,0.025841263913419937,True
19961,150606,0,150607,3761.0,41790.0,30107.0,-0.0030499999999999998,-0.000549,0.000915,0.36750000000000005,-0.8575,-3.325,1.139125,0.275875,0.19903125,1.38346875,1.10246875,-0.2189375,-0.43709375,1.32021875,0.020430809567925926,0.026031123279543013,True
19962,150607,0,150608,3762.0,41791.0,30110.0,-0.00122,-0.000244,-0.0011589999999999999,0.1925,-0.9100000000000001,-3.2550000000000003,1.1356875,0.27534375,0.199125,1.38178125,1.10240625,-0.215625,-0.43528125,1.31240625,0.020274874177313204,0.025962715284891597,True
19963,150608,0,150609,3764.0,41792.0,30111.0,-0.000793,-0.0013419999999999999,-0.001037,0.21000000000000002,-1.1025,-3.3425000000000002,1.14715625,0.27568750000000003,0.19865625,1.3794375,1.09446875,-0.21556250000000002,-0.43696875,1.3177812500000001,0.020286540938291235,0.026010795631107073,True
19964,150609,0,150610,3763.0,41794.0,30111.0,-0.000366,-0.000793,-0.002013,0.21000000000000002,-1.2950000000000002,-3.3775000000000004,1.13915625,0.27540625,0.19878125,1.37584375,1.10221875,-0.21203125,-0.43390625,1.3173125,0.020132036629516577,0.02589383349213759,True
19965,150610,0,150611,3763.0,41796.0,30110.0,0.000915,0.000732,-0.0018909999999999999,0.17500000000000002,-1.54,-3.325,1.1303750000000001,0.27325,0.19818750000000002,1.377,1.10828125,-0.21415625,-0.43371875,1.32290625,0.020128979303171052,0.025862057939911417,True
19966,150611,0,150612,3763.0,41796.0,30112.0,0.0015249999999999999,-0.000122,0.0013419999999999999,0.36750000000000005,-1.6275000000000002,-3.4825000000000004,1.13884375,0.2725,0.19659375,1.37765625,1.1084375,-0.2171875,-0.43359375,1.3183125,0.020220659397380478,0.025791846522781776,True
19967,150612,0,150613,3764.0,41797.0,30114.0,0.002379,-0.000183,0.000305,0.3325,-1.435,-3.5175000000000005,1.13940625,0.27568750000000003,0.2014375,1.383375,1.1080625,-0.21509375,-0.43678125,1.31809375,0.02026757587919725,0.026117136437516706,True
19968,150613,0,150614,3766.0,41794.0,30117.0,-0.000549,-0.00122,-0.000549,0.2625,-1.2600000000000002,-3.5175000000000005,1.1460937500000001,0.27934375,0.19878125,1.3780625,1.10215625,-0.21546875000000001,-0.4303125,1.32315625,0.020433736183611974,0.025750540440282948,True
19969,150614,0,150615,3766.0,41797.0,30118.0,-0.001403,-0.000549,-0.000244,0.22750000000000004,-1.155,-3.4825000000000004,1.1469375,0.27421875,0.19953125,1.3814375,1.104125,-0.21581250000000002,-0.4338125,1.32,0.020236002818406363,0.02592079111681814,True
19970,150615,0,150616,3767.0,41797.0,30117.0,-0.0015249999999999999,0.000976,-0.000122,0.3325,-1.2075,-3.3950000000000005,1.133625,0.27546875,0.2014375,1.38121875,1.102625,-0.21784375,-0.4338125,1.3125625,0.020369794482632254,0.025998808004276862,True
19971,150616,0,150617,3767.0,41800.0,30120.0,6.1e-05,0.0015249999999999999,-0.000915,0.47250000000000003,-1.4175000000000002,-3.5000000000000004,1.139,0.2790625,0.19690625,1.3786562500000001,1.1049375000000001,-0.21746875000000002,-0.4341875,1.3186875,0.020503020159776196,0.025828309208153537,True
19972,150617,0,150618,3766.0,41800.0,30121.0,0.000732,-0.000305,-0.000183,0.5775,-1.2950000000000002,-3.5175000000000005,1.1395,0.282125,0.19521875,1.3796875,1.10903125,-0.214375,-0.43375,1.31921875,0.02050434917275379,0.025741801811019597,True
19973,150618,0,150619,3766.0,41801.0,30122.0,0.001647,-0.001952,-0.000915,0.43750000000000006,-1.2950000000000002,-3.6050000000000004,1.139375,0.27578125000000003,0.19646875,1.37653125,1.1066562500000001,-0.21859375,-0.43271875,1.3178125,0.020413034922805953,0.02575184147282013,True
19974,150619,0,150620,3769.0,41799.0,30120.0,-0.000488,-0.002989,0.000793,0.35000000000000003,-1.2075,-3.4825000000000004,1.1360000000000001,0.27575,0.203,1.370625,1.10775,-0.21940625,-0.43703125,1.31278125,0.020444607307414896,0.02619103947006656,True
19975,150620,0,150621,3767.0,41798.0,30122.0,-0.000244,-0.00122,0.0008539999999999999,0.385,-1.33,-3.4825000000000004,1.13884375,0.275,0.20096875,1.37471875,1.1004375,-0.22109375,-0.43415625,1.3129375,0.020481888849466178,0.025993326452596457,True
19976,150621,0,150622,3766.0,41802.0,30119.0,-0.0017079999999999999,0.002074,0.001281,0.31500000000000006,-1.3475000000000001,-3.6050000000000004,1.13925,0.27628125,0.19859375,1.375625,1.11009375,-0.22062500000000002,-0.43509375,1.3128125,0.0205158310324362,0.025933499845892754,True
19977,150622,0,150623,3767.0,41801.0,30120.0,-0.00042699999999999997,0.001586,-0.000183,0.3325,-1.4700000000000002,-3.6400000000000006,1.13959375,0.27359375,0.1955625,1.379125,1.1101875,-0.21409375,-0.43559375,1.3118125,0.02014064639524244,0.02582938055270296,True
19978,150623,0,150624,3766.0,41800.0,30119.0,-0.0011589999999999999,0.000915,-0.000305,0.2625,-1.6975000000000002,-3.7275000000000005,1.13925,0.2759375,0.1960625,1.38396875,1.097,-0.2226875,-0.4405625,1.31721875,0.020585040367630553,0.026047886581988446,True
19979,150624,0,150625,3766.0,41801.0,30118.0,0.000244,-0.000549,-0.000488,0.22750000000000004,-1.8900000000000001,-3.6925000000000003,1.14440625,0.27818750000000003,0.19896875,1.3804687500000001,1.0952187500000001,-0.213375,-0.43453125000000004,1.33275,0.020301279767896876,0.025926423286716422,True
19980,150625,0,150626,3764.0,41802.0,30117.0,0.001464,-0.001586,-0.000488,0.3325,-2.0125,-3.7625,1.14121875,0.27518750000000003,0.19868750000000002,1.38346875,1.1050625,-0.20934375,-0.43603125,1.3353125000000001,0.0200142248795984,0.025974706919725355,True
19981,150626,0,150627,3764.0,41798.0,30116.0,0.00122,-0.000183,0.000732,0.29750000000000004,-2.0825,-3.7625,1.1466875,0.27496875,0.19834375,1.3687500000000001,1.09990625,-0.20321875,-0.43371875,1.3364375,0.019757186221357435,0.025868452791288677,True
19982,150627,0,150628,3761.0,41800.0,30113.0,0.00244,0.0013419999999999999,0.000549,0.4025,-1.9775000000000003,-3.6925000000000003,1.1460625,0.273,0.19793750000000002,1.36615625,1.10253125,-0.214375,-0.43109375,1.3255000000000001,0.020127506904473066,0.025747158782033656,True
19983,150628,0,150629,3759.0,41799.0,30112.0,0.0013419999999999999,0.000244,-0.00061,0.35000000000000003,-1.9075000000000002,-3.6575,1.1384375,0.27221875,0.19734375,1.364875,1.1146875,-0.223,-0.43246875,1.31259375,0.020444154316145813,0.0257776856872067,True
19984,150629,0,150630,3759.0,41798.0,30112.0,0.002013,0.000366,-0.001281,0.385,-1.7500000000000002,-3.7625,1.1397187500000001,0.27371875,0.19768750000000002,1.37709375,1.10540625,-0.218125,-0.43221875,1.3216875000000001,0.020308911197708328,0.02578178660094061,True
19985,150630,0,150631,3758.0,41798.0,30112.0,0.000976,-0.000366,-0.0008539999999999999,0.35000000000000003,-1.61,-3.6925000000000003,1.14184375,0.2715625,0.1985,1.37703125,1.10803125,-0.21525,-0.43221875,1.322875,0.020103550448580955,0.02581504186966237,True
19986,150631,0,150632,3756.0,41798.0,30109.0,-0.000976,0.000488,-0.000122,0.42000000000000004,-1.5225000000000002,-3.6575,1.1400000000000001,0.275875,0.19918750000000002,1.38321875,1.10371875,-0.21581250000000002,-0.43703125,1.31871875,0.020304398210879773,0.026035026247306536,True
19987,150632,0,150633,3753.0,41797.0,30108.0,-0.000549,0.0008539999999999999,0.0011589999999999999,0.45500000000000007,-1.5050000000000001,-3.6225000000000005,1.13865625,0.27296875,0.19918750000000002,1.3763750000000001,1.1019375,-0.21828125,-0.43309375,1.324875,0.020284263566391604,0.02587806752879995,True
19988,150633,0,150634,3753.0,41794.0,30107.0,-0.000305,0.000793,0.001098,0.385,-1.3475000000000001,-3.6575,1.14375,0.27590625,0.19925,1.38196875,1.10278125,-0.2154375,-0.436625,1.318375,0.020290517154604372,0.02602139207030431,True
19989,150634,0,150635,3751.0,41796.0,30106.0,-0.001403,-0.0006709999999999999,0.000488,0.43750000000000006,-1.1375000000000002,-3.6575,1.13878125,0.27568750000000003,0.19553125000000002,1.37715625,1.10196875,-0.21321875,-0.43409375,1.3265625,0.020191708299831062,0.025768297627162866,True
19990,150635,0,150636,3750.0,41794.0,30105.0,-0.001098,-0.000549,0.000549,0.525,-1.225,-3.6400000000000006,1.144125,0.27540625,0.198125,1.38396875,1.10603125,-0.21634375,-0.43609375,1.31803125,0.02030653368141093,0.0259541789489165,True
19991,150636,0,150637,3750.0,41794.0,30102.0,-0.0015249999999999999,-0.000915,-0.0008539999999999999,0.385,-1.4000000000000001,-3.5700000000000003,1.1398125000000001,0.27321875,0.19853125,1.3771875,1.10590625,-0.21734375,-0.433875,1.3225,0.020256660064132754,0.025882355950499054,True
19992,150637,0,150638,3747.0,41794.0,30103.0,-0.0006709999999999999,0.001403,6.1e-05,0.49000000000000005,-1.6275000000000002,-3.6050000000000004,1.1455625,0.2730625,0.19803125,1.37775,1.10196875,-0.210375,-0.43528125,1.32596875,0.019968195453395496,0.02591795418765642,True
19993,150638,0,150639,3746.0,41795.0,30103.0,0.001098,0.00244,-0.0006709999999999999,0.4025,-1.5750000000000002,-3.4650000000000003,1.14809375,0.2745625,0.2041875,1.385875,1.1025625000000001,-0.21678125,-0.43443750000000003,1.31809375,0.0202893912666449,0.02613626771641459,True
19994,150639,0,150640,3747.0,41793.0,30105.0,0.0018909999999999999,0.0013419999999999999,-0.000183,0.45500000000000007,-1.5750000000000002,-3.4650000000000003,1.1395,0.27321875,0.19821875,1.3736875,1.1070625,-0.217125,-0.4336875,1.32325,0.020247810175650496,0.02586209101675709,True
19995,150640,0,150641,3746.0,41794.0,30102.0,0.001647,0.000976,0.000122,0.42000000000000004,-1.5050000000000001,-3.535,1.15228125,0.276,0.19565625,1.3678125,1.10225,-0.21753125,-0.435375,1.3185625,0.020379090044531274,0.02582449624775556,True
19996,150641,0,150642,3746.0,41793.0,30103.0,-0.001586,-0.000549,-0.00042699999999999997,0.45500000000000007,-1.4525000000000001,-3.5175000000000005,1.14034375,0.27846875,0.200875,1.38059375,1.10809375,-0.21028125,-0.43575,1.3178750000000001,0.020187704345648608,0.02605301658430783,True
19997,150642,0,150643,3746.0,41790.0,30103.0,-0.00042699999999999997,6.1e-05,-0.001281,0.6125,-1.54,-3.5525,1.13696875,0.27221875,0.19840625,1.37478125,1.111,-0.21596875000000001,-0.42975,1.32509375,0.020159734472733,0.025712758010212958,True
19998,150643,0,150644,3745.0,41792.0,30101.0,0.001098,-0.00042699999999999997,0.000122,0.56,-1.61,-3.7625,1.14746875,0.27653125,0.20353125,1.3790625,1.10190625,-0.21690625,-0.43521875,1.3175000000000001,0.020375744734115242,0.026140547647030984,True
19999,150644,0,150645,3744.0,41791.0,30101.0,0.00061,-0.0013419999999999999,-0.001403,0.525,-1.5050000000000001,-3.8325000000000005,1.13640625,0.27121875,0.20028125,1.37871875,1.109375,-0.21565625,-0.4340625,1.3176875000000001,0.02010579415951199,0.02596145237821177,True
20000,150645,0,150646,3742.0,41794.0,30099.0,0.001281,-0.000305,-0.0006709999999999999,0.385,-1.435,-3.8150000000000004,1.13903125,0.2769375,0.194,1.37471875,1.10203125,-0.2166875,-0.434125,1.32103125,0.020383671383627507,0.025706875118302785,True
20001,150646,0,150647,3743.0,41793.0,30100.0,-0.002074,-0.000305,0.001464,0.6125,-1.155,-3.7275000000000005,1.1495,0.27928125,0.199875,1.385875,1.102125,-0.21478125,-0.4370625,1.31509375,0.020403343515647078,0.02606440524510669,True
20002,150647,0,150648,3742.0,41794.0,30101.0,-0.001464,0.001037,0.00183,0.49000000000000005,-1.05,-3.6575,1.13621875,0.27584375,0.19253125000000001,1.3681875000000001,1.1035,-0.21778125,-0.43396875,1.3214375,0.020382750793902723,0.02564053373441431,True
20003,150648,0,150649,3739.0,41794.0,30101.0,-0.002074,0.0018909999999999999,0.0017079999999999999,0.5425000000000001,-1.12,-3.6925000000000003,1.14678125,0.27521875,0.20003125,1.38371875,1.1020625,-0.207375,-0.43353125000000003,1.3177812500000001,0.019935815015052233,0.025930042347030783,True
20004,150649,0,150650,3740.0,41793.0,30101.0,-0.0015249999999999999,0.000244,0.001586,0.45500000000000007,-1.2950000000000002,-3.7100000000000004,1.13703125,0.275625,0.195625,1.374625,1.105625,-0.2165625,-0.43340625,1.32259375,0.020324416398900546,0.02574472194191098,True
20005,150650,0,150651,3737.0,41793.0,30101.0,-0.001281,0.000183,0.00042699999999999997,0.525,-1.5225000000000002,-3.9025000000000003,1.142625,0.27584375,0.20021875,1.3833125,1.10234375,-0.21575,-0.43425,1.31859375,0.02030057916851636,0.025966368928860107,True
20006,150651,0,150652,3738.0,41792.0,30099.0,0.0006709999999999999,-0.000915,-0.00061,0.47250000000000003,-1.7850000000000001,-3.7100000000000004,1.1390625,0.274375,0.19778125,1.3775,1.1066562500000001,-0.21575,-0.43365625,1.3257812500000001,0.020239926494120562,0.025842939490482518,True
20007,150652,0,150653,3736.0,41791.0,30100.0,0.002379,0.000549,0.0013419999999999999,0.43750000000000006,-1.9600000000000002,-3.7450000000000006,1.14821875,0.273375,0.1990625,1.37709375,1.102875,-0.214875,-0.434125,1.31640625,0.020163226116178587,0.025914064858062236,True
20008,150653,0,150654,3736.0,41791.0,30098.0,0.003172,0.001464,0.000122,0.45500000000000007,-2.1700000000000004,-3.8150000000000004,1.14503125,0.27215625,0.19871875,1.37703125,1.1074375,-0.20821875,-0.43290625,1.34184375,0.019843467417444745,0.02585140685013679,True
20009,150654,0,150655,3737.0,41791.0,30099.0,0.003111,-0.001403,-0.002074,0.385,-2.1875,-3.8500000000000005,1.1460000000000001,0.2753125,0.19809375,1.38425,1.1031250000000001,-0.2146875,-0.4323125,1.3414375,0.020235652432020853,0.025802152375056602,True
20010,150655,0,150656,3736.0,41792.0,30099.0,-0.001769,-0.00366,0.003294,0.43750000000000006,-1.9775000000000003,-3.7625,1.13834375,0.27484375,0.19915625,1.3860937500000001,1.08553125,-0.21178125,-0.437125,1.330125,0.02009868646074935,0.026037483951160376,True
