frame_seq,absolute_seq_u64,segment_id,sample_seq,PPG_G,PPG_R,PPG_IR,ACC_X,ACC_Y,ACC_Z,GYRO_X,GYRO_Y,GYRO_Z,Uh1,Uh2,Uh3,Uh4,Uc1,Uc2,Uc3,Uc4,UD1,UD2,parser_valid
36846,104651,1,104652,2920.0,36242.0,28367.0,0.0048189999999999995,0.0070149999999999995,-0.000488,0.28,-2.9225000000000003,-3.9025000000000003,1.0557812500000001,0.24025,0.14890625,1.30915625,1.01384375,-0.233875,-0.34203125,1.276875,0.019564555812885888,0.02016830456579091,True
36847,104652,1,104653,2921.0,36243.0,28369.0,0.010369999999999999,0.0053679999999999995,-0.00122,0.35000000000000003,-3.8150000000000004,-4.095000000000001,1.04878125,0.24921875000000002,0.15028125,1.3154375,1.01546875,-0.2354375,-0.34321875,1.27725,0.019997833750680177,0.02027258617967273,True
36848,104653,1,104654,2921.0,36244.0,28369.0,0.012322,0.001403,0.000122,0.3325,-3.9725000000000006,-4.515000000000001,1.04790625,0.242625,0.148125,1.30865625,1.0205625,-0.23125,-0.34325,1.283625,0.01955635800876967,0.020185266963121194,True
36849,104654,1,104655,2920.0,36243.0,28369.0,0.012199999999999999,0.00183,-0.00183,0.35000000000000003,-3.4125000000000005,-4.2525,1.049,0.2405625,0.1489375,1.30940625,1.015375,-0.23290625,-0.3435,1.2770625,0.019538256993009248,0.020228705814693864,True
36850,104655,1,104656,2922.0,36242.0,28368.0,0.007442,0.0011589999999999999,-0.002562,0.385,-2.7125000000000004,-4.095000000000001,1.05428125,0.243625,0.14890625,1.31384375,1.0154375,-0.2360625,-0.34025,1.27665625,0.019792303308344746,0.020096599254321543,True
36851,104656,1,104657,2922.0,36245.0,28370.0,0.0013419999999999999,-0.001037,-0.0037819999999999998,0.28,-1.7675,-4.095000000000001,1.0474375,0.24053125,0.15009375,1.310625,1.0214375,-0.23128125,-0.34365625,1.27765625,0.019471215538798634,0.020282491460172507,True
36852,104657,1,104658,2923.0,36243.0,28370.0,-0.005856,-0.005246,0.000732,0.1925,-0.8575,-3.9550000000000005,1.047125,0.24253125,0.14881250000000001,1.30875,1.0163125,-0.23228125,-0.34265625,1.27875,0.019594213813443586,0.020189610573003922,True
36853,104658,1,104659,2923.0,36242.0,28370.0,-0.008479,-0.00366,0.000488,0.21000000000000002,0.1925,-3.7800000000000002,1.0499687500000001,0.24281250000000001,0.14890625,1.3039375,1.0149062500000001,-0.235375,-0.34178125,1.28190625,0.01973097177163547,0.020158241295509135,True
36854,104659,1,104660,2922.0,36244.0,28368.0,-0.009028,6.1e-05,0.000793,0.28,0.24500000000000002,-3.7625,1.04709375,0.2426875,0.14975,1.31271875,1.0159375,-0.23328125,-0.34153125,1.2790625,0.019641118554673646,0.020182840798070173,True
36855,104660,1,104661,2924.0,36244.0,28370.0,-0.010614,0.0026839999999999998,0.0006709999999999999,0.36750000000000005,-0.2625,-3.7625,1.04828125,0.2419375,0.14909375,1.3073125,1.0239375,-0.23209375000000002,-0.3451875,1.277125,0.019562125125898375,0.020303037304600754,True
36856,104661,1,104662,2923.0,36246.0,28372.0,-0.0077469999999999995,0.004697,6.1e-05,0.31500000000000006,-1.1375000000000002,-3.7275000000000005,1.05109375,0.24296875,0.14775,1.3095937500000001,1.0159375,-0.23625000000000002,-0.34296875,1.28678125,0.01977280932487493,0.020158541673352803,True
36857,104662,1,104663,2924.0,36247.0,28370.0,-0.000488,0.003538,-0.000549,0.42000000000000004,-2.1175,-3.8325000000000005,1.04871875,0.24265625000000002,0.14909375,1.3148125,1.00471875,-0.2363125,-0.34103125,1.28378125,0.01976244323471238,0.020135753286952458,True
36858,104663,1,104664,2926.0,36246.0,28373.0,0.012627,0.000976,-0.00061,0.24500000000000002,-3.3950000000000005,-3.8150000000000004,1.048125,0.24331250000000001,0.14921875,1.3219375,1.00884375,-0.2323125,-0.34218750000000003,1.27628125,0.019627718155252414,0.020187431799216896,True
36859,104664,1,104665,2926.0,36245.0,28370.0,0.011956,-0.000122,0.000488,0.3325,-3.0625000000000004,-3.7450000000000006,1.0484375,0.238125,0.15006250000000002,1.3349375,1.01425,-0.23259375000000002,-0.34309375000000003,1.273375,0.019425025437072745,0.0202585692297225,True
36860,104665,1,104666,2926.0,36243.0,28373.0,0.009577,-0.000915,0.001586,0.29750000000000004,-2.3975000000000004,-3.6925000000000003,1.04875,0.2325625,0.151875,1.30240625,1.0230000000000001,-0.231,-0.346125,1.27584375,0.019130968593949898,0.020455000539100165,True
36861,104666,1,104667,2927.0,36246.0,28370.0,0.0048189999999999995,-0.0017079999999999999,-0.001403,0.35000000000000003,-1.3125000000000002,-3.6575,1.0643125,0.25025000000000003,0.14090625,1.2981875,1.01296875,-0.236625,-0.34171875,1.2765625,0.020088399271763296,0.01982707157850142,True
36862,104667,1,104668,2928.0,36242.0,28370.0,-0.003172,-0.0023179999999999997,-0.0023179999999999997,0.31500000000000006,-0.2625,-3.6925000000000003,1.06571875,0.24656250000000002,0.14409375,1.29484375,1.0130937500000001,-0.2359375,-0.34071875,1.28725,0.019908452066275548,0.019917756126244218,True
36863,104668,1,104669,2928.0,36244.0,28367.0,-0.011956,-0.002074,0.000305,0.35000000000000003,0.525,-3.6575,1.05440625,0.24484375,0.14590625000000002,1.32246875,1.012,-0.23434375000000002,-0.33996875,1.270375,0.01977307514258561,0.019962022342366402,True
36864,104669,1,104670,2927.0,36241.0,28365.0,-0.011833999999999999,-0.0006709999999999999,0.0028669999999999998,0.22750000000000004,0.43750000000000006,-3.6750000000000003,1.02915625,0.23225,0.15325,1.3191875,1.0250625,-0.2323125,-0.344875,1.27415625,0.0191711996120882,0.020461185362422276,True
36865,104670,1,104671,2924.0,36241.0,28364.0,-0.0075639999999999995,-0.001647,0.002013,0.43750000000000006,-0.14,-3.6400000000000006,1.04384375,0.23884375,0.14559375,1.31021875,1.02171875,-0.2336875,-0.33796875,1.27925,0.019498941298141274,0.01986864659771576,True
36866,104671,1,104672,2923.0,36239.0,28364.0,-0.003111,0.000122,0.000549,0.5425000000000001,-1.0675000000000001,-3.6750000000000003,1.05078125,0.2410625,0.14771875,1.31615625,1.01365625,-0.234,-0.34190625,1.27746875,0.01960314021622514,0.020114488773860923,True
36867,104672,1,104673,2921.0,36236.0,28359.0,-0.0011589999999999999,0.002623,-0.00042699999999999997,0.385,-1.9250000000000003,-3.8325000000000005,1.0475,0.2405,0.152,1.3221875,1.0148125000000001,-0.23221875,-0.34225,1.27525,0.019507860789676965,0.02030420359662726,True
36868,104673,1,104674,2920.0,36237.0,28356.0,0.008662,0.0006709999999999999,-0.0011589999999999999,0.31500000000000006,-3.0450000000000004,-3.6925000000000003,1.042625,0.23928125,0.15046875,1.3265,1.0206250000000001,-0.23271875,-0.343375,1.27615625,0.019477797966850088,0.020286576943418896,True
36869,104674,1,104675,2916.0,36234.0,28352.0,0.010431,0.002013,-0.000793,0.24500000000000002,-3.2550000000000003,-3.8675,1.0359375,0.24134375,0.14996875,1.3005,1.0140625,-0.2321875,-0.34284375,1.27703125,0.019541415730626878,0.020244656091176694,True
36870,104675,1,104676,2913.0,36233.0,28353.0,0.009699,0.00183,-0.000305,0.29750000000000004,-2.975,-3.8675,1.05903125,0.24703125,0.145625,1.3041875,1.0149062500000001,-0.23584375000000002,-0.34159375000000003,1.2829375,0.01992400202695646,0.020015893577223144,True
36871,104676,1,104677,2911.0,36230.0,28350.0,0.0064659999999999995,-6.1e-05,0.000549,0.36750000000000005,-2.415,-3.8150000000000004,1.03928125,0.24140625000000002,0.1475,1.3031875,1.01775,-0.23178125,-0.3459375,1.2820625,0.019527557430389066,0.020267755143953688,True
36872,104677,1,104678,2909.0,36232.0,28347.0,0.002257,-0.000732,0.001098,0.4025,-1.5750000000000002,-3.7450000000000006,1.0505625,0.2403125,0.1573125,1.317,1.01653125,-0.2358125,-0.340375,1.27915625,0.01964551425705245,0.020446993934974293,True
36873,104678,1,104679,2907.0,36230.0,28345.0,-0.006588,-0.001098,-0.00122,0.42000000000000004,-0.3325,-3.8850000000000002,1.0471875,0.24275,0.14653125,1.30975,1.0183125,-0.22684375,-0.34475,1.2770000000000001,0.019383199679074994,0.02018017231641319,True
36874,104679,1,104680,2906.0,36229.0,28342.0,-0.009455,-0.0028669999999999998,-0.000122,0.42000000000000004,-0.052500000000000005,-3.7100000000000004,1.04915625,0.24065625000000002,0.15021875,1.313375,1.0155,-0.23575000000000002,-0.34190625,1.27725,0.019657169677026708,0.020217192316234478,True
36875,104680,1,104681,2905.0,36228.0,28343.0,-0.009699,-0.002623,0.0018909999999999999,0.385,-0.28,-3.6925000000000003,1.0539375,0.24409375,0.14846875,1.30421875,1.009875,-0.231625,-0.33615625,1.28565625,0.019632143944122608,0.019913785686677617,True
36876,104681,1,104682,2903.0,36230.0,28341.0,-0.00732,-0.000305,0.001037,0.35000000000000003,-0.8575,-3.7975000000000003,1.0482500000000001,0.2406875,0.150125,1.3095625,1.01603125,-0.2325625,-0.342625,1.27759375,0.019529507042435154,0.020242270502873045,True
36877,104682,1,104683,2902.0,36231.0,28343.0,-0.0008539999999999999,-0.0006709999999999999,0.000183,0.35000000000000003,-1.2775,-3.6750000000000003,1.0546875,0.24353125,0.14934375,1.3158750000000001,1.02165625,-0.23109375000000001,-0.34234375,1.28228125,0.019587436080965186,0.02019885615985519,True
36878,104683,1,104684,2899.0,36232.0,28340.0,0.00671,0.001952,6.1e-05,0.36750000000000005,-2.24,-3.7800000000000002,1.04728125,0.24196875,0.14978125,1.309125,1.0153125,-0.23265625,-0.3435,1.2766875,0.019586173100606747,0.020263365990921604,True
36879,104684,1,104685,2902.0,36233.0,28341.0,0.006527,0.00183,-0.000183,0.47250000000000003,-2.3975000000000004,-3.7275000000000005,1.05590625,0.243,0.14446875,1.31059375,1.01484375,-0.2315,-0.34265625,1.28221875,0.019581949115820316,0.020011168666114652,True
36880,104685,1,104686,2899.0,36234.0,28338.0,0.0064659999999999995,-0.000366,-0.0013419999999999999,0.385,-2.205,-3.7450000000000006,1.04921875,0.239625,0.15021875,1.316125,1.01578125,-0.2351875,-0.34415625,1.27715625,0.01959186410255749,0.02030774839444271,True
36881,104686,1,104687,2899.0,36229.0,28339.0,0.003721,0.000122,-0.000549,0.36750000000000005,-1.8200000000000003,-3.7975000000000003,1.05334375,0.243375,0.14759375,1.31003125,1.01640625,-0.23153125,-0.3430625,1.28215625,0.019598689207888997,0.020155896572175338,True
36882,104687,1,104688,2899.0,36231.0,28338.0,-0.000488,-0.000732,-0.000305,0.35000000000000003,-1.3650000000000002,-3.7275000000000005,1.0366875,0.23940625000000001,0.14981250000000002,1.30925,1.0153125,-0.2364375,-0.34503125,1.2729375,0.019633403217779014,0.02032627294327256,True
36883,104688,1,104689,2897.0,36233.0,28338.0,-0.0055509999999999995,-0.001464,-0.000244,0.4025,-1.05,-3.7450000000000006,1.0542500000000001,0.2435,0.146375,1.31175,1.01675,-0.231375,-0.33565625,1.28121875,0.0195975259348675,0.019807612543836783,True
36884,104689,1,104690,2897.0,36232.0,28338.0,-0.004148,-0.001769,0.000488,0.36750000000000005,-1.05,-3.6925000000000003,1.03328125,0.241,0.14965625,1.306125,1.0149375,-0.23628125,-0.3423125,1.2775,0.01969284169781616,0.020210436046287715,True
36885,104690,1,104691,2899.0,36234.0,28337.0,-0.00061,-0.0006709999999999999,0.000183,0.42000000000000004,-1.1375000000000002,-3.7100000000000004,1.052125,0.2426875,0.1468125,1.30890625,1.0227187500000001,-0.23225,-0.3428125,1.27803125,0.01959939749713708,0.02011373993863692,True
36886,104691,1,104692,2897.0,36233.0,28337.0,-0.000488,0.001098,0.001281,0.42000000000000004,-1.3825,-3.6225000000000005,1.05515625,0.24315625000000002,0.147625,1.308625,1.01496875,-0.23321875,-0.34209375000000003,1.2708125000000001,0.01965793338947184,0.020118185191033536,True
36887,104692,1,104693,2898.0,36233.0,28337.0,-0.00042699999999999997,0.003172,0.000915,0.3325,-1.54,-3.6575,1.054875,0.24796875000000002,0.151375,1.3093125,1.0163125,-0.23184375000000002,-0.345625,1.27740625,0.019800907638321992,0.020414345493286783,True
36888,104693,1,104694,2898.0,36233.0,28337.0,0.0015249999999999999,-0.001403,0.001647,0.35000000000000003,-1.7675,-3.6750000000000003,1.050125,0.242875,0.150375,1.3115625,1.01996875,-0.23193750000000002,-0.34500000000000003,1.27665625,0.019594491773511715,0.020348120764017253,True
36889,104694,1,104695,2899.0,36233.0,28338.0,0.002196,-0.0006709999999999999,0.000305,0.45500000000000007,-1.6450000000000002,-3.6225000000000005,1.049375,0.24328125,0.14759375,1.3095,1.02109375,-0.23221875,-0.34425,1.27775,0.019622635669711425,0.020203692863817947,True
36890,104695,1,104696,2898.0,36231.0,28338.0,0.003294,0.0011589999999999999,-0.001464,0.4025,-1.4175000000000002,-3.7800000000000002,1.0557812500000001,0.24325,0.15196875,1.310375,1.01596875,-0.234875,-0.3413125,1.28421875,0.01972879992160059,0.020265187014874404,True
36891,104696,1,104697,2898.0,36232.0,28338.0,0.000549,-0.00042699999999999997,-0.000732,0.3325,-1.2425000000000002,-3.7800000000000002,1.0481562500000001,0.24453125,0.151125,1.3165625,1.015625,-0.23640625,-0.34146875,1.2871875,0.019843597893148865,0.020236812949095358,True
36892,104697,1,104698,2898.0,36231.0,28336.0,-0.0034159999999999998,0.000244,0.00042699999999999997,0.35000000000000003,-1.0150000000000001,-3.7275000000000005,1.0481562500000001,0.24178125,0.14978125,1.3160625000000001,1.0161875,-0.2334375,-0.33465625,1.27696875,0.019610042941699872,0.019907308121519078,True
36893,104698,1,104699,2899.0,36234.0,28339.0,-0.00061,-0.00122,0.002379,0.42000000000000004,-1.1900000000000002,-3.6400000000000006,1.04846875,0.23846875,0.1501875,1.31425,1.02065625,-0.2325625,-0.34534375,1.2643125,0.019437946358334988,0.020354251518835093,True
36894,104699,1,104700,2900.0,36232.0,28338.0,0.001037,-0.001586,0.001098,0.3325,-1.5050000000000001,-3.6400000000000006,1.0479687500000001,0.2399375,0.14996875,1.31325,1.0167187500000001,-0.23328125,-0.34403125,1.2773125,0.019527638255756225,0.020292448482623435,True
36895,104700,1,104701,2899.0,36234.0,28336.0,0.000305,0.001098,-0.000915,0.42000000000000004,-1.715,-3.7100000000000004,1.0483125,0.243125,0.1465625,1.3091875,1.01034375,-0.23390625,-0.344625,1.272375,0.01968445553427855,0.0201764249808736,True
36896,104701,1,104702,2902.0,36236.0,28338.0,0.00042699999999999997,0.0,-0.002257,0.385,-1.9250000000000003,-3.6925000000000003,1.0549375,0.24281250000000001,0.14621875,1.308875,1.0285312500000001,-0.22993750000000002,-0.34268750000000003,1.28540625,0.019510987182694964,0.020084316902149773,True
36897,104702,1,104703,2901.0,36235.0,28339.0,0.0021349999999999997,-0.00042699999999999997,-0.000915,0.35000000000000003,-2.1,-3.5175000000000005,1.0479687500000001,0.24153125,0.148875,1.3145,1.0096875,-0.23971875,-0.33775,1.2821875,0.01985377821267006,0.019994658503764726,True
36898,104703,1,104704,2899.0,36238.0,28339.0,0.001952,0.000366,0.000183,0.21000000000000002,-1.6625,-3.7450000000000006,1.0351875,0.24278125,0.15081250000000002,1.3089375,1.02334375,-0.23284375000000002,-0.3458125,1.27153125,0.019627287862160215,0.02039878521203595,True
36899,104704,1,104705,2899.0,36237.0,28339.0,0.002196,-0.0006709999999999999,-0.0013419999999999999,0.29750000000000004,-1.2425000000000002,-3.7275000000000005,1.0559687500000001,0.24281250000000001,0.14621875,1.3088125,1.031625,-0.23043750000000002,-0.34771875,1.26640625,0.01953121977265165,0.020286808184031616,True
36900,104705,1,104706,2899.0,36237.0,28336.0,-0.001586,0.00061,0.000183,0.42000000000000004,-0.8225000000000001,-3.6400000000000006,1.05428125,0.24331250000000001,0.14753125,1.3066875,1.0218125,-0.22990625,-0.34465625,1.28140625,0.019530358273672645,0.020217475857766527,True
36901,104706,1,104707,2901.0,36234.0,28337.0,-0.0059169999999999995,0.000976,0.00122,0.36750000000000005,-0.56,-3.6225000000000005,1.0550625,0.243875,0.14703125,1.29865625,1.01328125,-0.23600000000000002,-0.3404375,1.2853125,0.019800090774055125,0.02002711537128287,True
36902,104707,1,104708,2899.0,36237.0,28339.0,-0.0046359999999999995,-0.00183,0.003111,0.3325,-0.7000000000000001,-3.6050000000000004,1.051625,0.2445,0.1479375,1.3094375,1.012375,-0.2345625,-0.34090625,1.2795,0.01976773874089949,0.020083218963961133,True
36903,104708,1,104709,2900.0,36235.0,28338.0,-0.0025009999999999998,-0.0008539999999999999,0.000244,0.35000000000000003,-1.54,-3.5525,1.05478125,0.24596875,0.14759375,1.30984375,1.00753125,-0.23153125,-0.3419375,1.2798125,0.019705729492435608,0.020110611573133815,True
36904,104709,1,104710,2900.0,36236.0,28339.0,0.002257,-0.00183,-0.0023179999999999997,0.35000000000000003,-2.0650000000000004,-3.5175000000000005,1.0531875,0.2429375,0.15084375,1.313375,1.0223125,-0.23196875,-0.34340625,1.27028125,0.019598335360184054,0.020303239198499592,True
36905,104710,1,104711,2900.0,36239.0,28338.0,0.006039,6.1e-05,-0.000793,0.3325,-2.0125,-3.5875000000000004,1.048125,0.24065625000000002,0.1499375,1.3145625,1.0238125,-0.232625,-0.34428125,1.27703125,0.019530746256338306,0.020301225775560736,True
36906,104711,1,104712,2899.0,36239.0,28339.0,0.0035989999999999998,0.001647,0.0,0.4025,-2.1700000000000004,-3.7275000000000005,1.0485625,0.240875,0.14834375,1.31021875,1.0143125,-0.2345625,-0.34096875,1.2825312500000001,0.01961815898265133,0.02010242505241292,True
36907,104712,1,104713,2900.0,36241.0,28338.0,0.001281,0.000366,-0.000488,0.43750000000000006,-2.24,-3.7450000000000006,1.05478125,0.24325,0.14896875,1.3098750000000001,1.0156875,-0.23153125,-0.346125,1.278,0.019593530639959042,0.020335628359749242,True
36908,104713,1,104714,2902.0,36240.0,28337.0,0.001403,0.002257,0.00061,0.385,-1.9600000000000002,-3.8325000000000005,1.05453125,0.24309375,0.14940625,1.3090625,1.02171875,-0.23190625,-0.3455625,1.27828125,0.01960225477514795,0.02033096380500553,True
36909,104714,1,104715,2902.0,36241.0,28338.0,-0.000305,0.001403,-0.001098,0.35000000000000003,-1.7500000000000002,-3.8150000000000004,1.05228125,0.24378125,0.14921875,1.3148125,1.0213125,-0.23178125,-0.33703125,1.27721875,0.019625569209857405,0.01997984039240612,True
36910,104715,1,104716,2903.0,36239.0,28339.0,-0.0021349999999999997,-0.000244,-0.00042699999999999997,0.2625,-1.61,-3.6925000000000003,1.0483437500000001,0.2408125,0.1535,1.307,1.0219375,-0.232,-0.34375,1.27696875,0.019511905744470124,0.020426187419768933,True
36911,104716,1,104717,2903.0,36242.0,28339.0,-0.0032329999999999998,-0.000976,0.0011589999999999999,0.24500000000000002,-1.4000000000000001,-3.6050000000000004,1.04859375,0.2405625,0.155875,1.3164375,1.0185625,-0.23275,-0.342875,1.2769062500000001,0.019531935087845995,0.020488541308288363,True
36912,104717,1,104718,2905.0,36245.0,28342.0,-0.0013419999999999999,-0.001769,0.001464,0.22750000000000004,-1.5750000000000002,-3.6400000000000006,1.04725,0.2399375,0.14921875,1.31053125,1.01084375,-0.2348125,-0.34040625,1.28440625,0.01958958832464662,0.020115728347796166,True
36913,104718,1,104719,2907.0,36243.0,28341.0,0.000183,-0.000244,-0.0023179999999999997,0.29750000000000004,-1.54,-3.6925000000000003,1.0478750000000001,0.246,0.1459375,1.2925,1.01540625,-0.2356875,-0.342375,1.2770625,0.019875132487989045,0.020060183116889785,True
36914,104719,1,104720,2905.0,36244.0,28342.0,0.000366,0.000122,-0.0048189999999999995,0.22750000000000004,-1.61,-3.6575,1.0365312500000001,0.24021875,0.15031250000000002,1.31965625,1.0241875,-0.229625,-0.34496875,1.2779375,0.01939129268405929,0.020344295985181744,True
36915,104720,1,104721,2907.0,36242.0,28340.0,0.001037,-0.00122,-0.0017079999999999999,0.28,-1.9775000000000003,-3.535,1.04578125,0.23971875,0.150625,1.3180625000000001,1.0209375,-0.23228125,-0.34134375,1.27784375,0.019478149627369483,0.02021124039218254,True
36916,104721,1,104722,2907.0,36242.0,28339.0,0.002074,-6.1e-05,0.001098,0.21000000000000002,-2.1700000000000004,-3.6750000000000003,1.04503125,0.2370625,0.151375,1.30790625,1.01325,-0.23143750000000002,-0.34403125,1.27790625,0.019334387404791816,0.020350214182377868,True
36917,104722,1,104723,2907.0,36243.0,28341.0,0.00366,-0.001037,0.002196,0.35000000000000003,-2.0475000000000003,-3.7450000000000006,1.057125,0.24478125,0.14996875,1.320375,1.015625,-0.23459375000000002,-0.34065625,1.27715625,0.019780608040933224,0.02015660526819198,True
36918,104723,1,104724,2910.0,36244.0,28340.0,0.001647,-0.00061,-0.0011589999999999999,0.31500000000000006,-1.7500000000000002,-3.7100000000000004,1.0460625000000001,0.2424375,0.1474375,1.30746875,1.02325,-0.23190625,-0.34625,1.2768125000000001,0.019575172712629655,0.02027776351594188,True
36919,104724,1,104725,2907.0,36245.0,28341.0,-0.0018909999999999999,0.001952,-0.0025009999999999998,0.28,-1.3125000000000002,-3.7100000000000004,1.05934375,0.24446875,0.14359375,1.31565625,1.01575,-0.23190625,-0.34121875,1.2839375,0.019658998144233907,0.019917346989866726,True
36920,104725,1,104726,2909.0,36245.0,28342.0,-0.002989,0.0015249999999999999,0.001647,0.28,-1.225,-3.7800000000000002,1.0458125,0.239125,0.1505,1.3173125,1.01628125,-0.23465625,-0.34053125,1.27678125,0.01954974087986084,0.02017339905019534,True
36921,104726,1,104727,2910.0,36246.0,28344.0,-0.0028669999999999998,0.0006709999999999999,0.003294,0.35000000000000003,-1.2075,-3.7450000000000006,1.045375,0.23721875,0.1506875,1.31990625,1.0171875,-0.232875,-0.34321875,1.2767187500000001,0.019399008578222764,0.020289274605479198,True
36922,104727,1,104728,2910.0,36246.0,28342.0,-0.0017079999999999999,-0.0017079999999999999,-0.000732,0.21000000000000002,-1.0325000000000002,-3.6750000000000003,1.04553125,0.24425,0.151375,1.3159687500000001,1.00965625,-0.23225,-0.34275,1.27790625,0.019663877683665364,0.02029865154922924,True
36923,104728,1,104729,2908.0,36247.0,28342.0,-0.001037,-0.002074,-0.001586,0.22750000000000004,-1.2425000000000002,-3.535,1.0458125,0.23903125,0.15165625,1.309,1.01878125,-0.23193750000000002,-0.34218750000000003,1.2764375000000001,0.019435868469040087,0.020287566596058796,True
36924,104729,1,104730,2909.0,36246.0,28340.0,0.0,-0.001647,-0.0015249999999999999,0.36750000000000005,-1.6450000000000002,-3.6925000000000003,1.05271875,0.24384375,0.1479375,1.31471875,1.01903125,-0.23109375000000001,-0.34196875,1.281125,0.019600332733638984,0.020125991247113076,True
36925,104730,1,104731,2909.0,36246.0,28342.0,0.002379,-0.000732,-0.000366,0.4025,-1.8375000000000001,-3.6925000000000003,1.04828125,0.24234375,0.1496875,1.3101875,1.0166875,-0.232375,-0.34353125,1.2751875,0.019590269216286062,0.02026077256149927,True
36926,104731,1,104732,2910.0,36247.0,28343.0,0.0032329999999999998,-0.000488,0.000793,0.24500000000000002,-1.995,-3.6925000000000003,1.04828125,0.24303125,0.14753125,1.30921875,1.02328125,-0.23115625,-0.34478125,1.2783437500000001,0.0195693302914507,0.02022250662038707,True
36927,104732,1,104733,2910.0,36247.0,28342.0,0.001403,-0.000488,-0.000488,0.4025,-2.2750000000000004,-3.8150000000000004,1.0542500000000001,0.24290625000000002,0.147625,1.30921875,1.017375,-0.231375,-0.34825,1.27725,0.019573022579197425,0.020365940057293645,True
36928,104733,1,104734,2911.0,36247.0,28344.0,0.000366,0.002745,-6.1e-05,0.29750000000000004,-2.2750000000000004,-3.7800000000000002,1.0435625,0.24356250000000002,0.14596875,1.3094375,1.04478125,-0.22965625,-0.35534375,1.27003125,0.01953055978662512,0.02058326522285279,True
36929,104734,1,104735,2912.0,36247.0,28342.0,-0.000244,0.0025009999999999998,0.001647,0.385,-1.9075000000000002,-3.7625,1.0521562500000001,0.243875,0.1470625,1.3093125,1.02409375,-0.227375,-0.35000000000000003,1.2855625,0.019451137401389956,0.020413244353182754,True
36930,104735,1,104736,2913.0,36248.0,28344.0,-0.0006709999999999999,0.001647,0.000366,0.525,-1.8900000000000001,-3.7450000000000006,1.0535,0.24259375,0.14903125,1.31478125,1.00628125,-0.233875,-0.336875,1.2949375,0.019661269607109882,0.019965844012429696,True
36931,104736,1,104737,2911.0,36248.0,28345.0,0.000549,0.0018909999999999999,-0.0015249999999999999,0.4025,-1.7850000000000001,-3.7625,1.04346875,0.2446875,0.150375,1.3103125,1.004375,-0.23840625000000001,-0.3385625,1.26678125,0.01993092058187613,0.02008900484570525,True
36932,104737,1,104738,2912.0,36250.0,28344.0,0.0,-0.001952,0.0017079999999999999,0.3325,-1.5225000000000002,-3.6225000000000005,1.0511875,0.24381250000000002,0.14534375,1.3098750000000001,1.03665625,-0.22675,-0.35134375,1.267375,0.019423261477499044,0.020396718353581617,True
36933,104738,1,104739,2915.0,36250.0,28344.0,0.0006709999999999999,-0.00122,0.00061,0.3325,-1.1725,-3.7100000000000004,1.055,0.2434375,0.14771875,1.30921875,1.022,-0.22893750000000002,-0.34153125,1.282375,0.019496315098423114,0.020099392884332205,True
36934,104739,1,104740,2914.0,36250.0,28344.0,0.000183,-0.0013419999999999999,0.000244,0.29750000000000004,-1.1725,-3.6750000000000003,1.0535,0.24359375,0.1471875,1.30971875,1.01275,-0.23559375000000002,-0.34709375000000003,1.266875,0.019772055306051663,0.02030144768305252,True
36935,104740,1,104741,2912.0,36250.0,28346.0,-0.0028669999999999998,-0.000976,-0.000244,0.3325,-1.0675000000000001,-3.6400000000000006,1.05528125,0.24484375,0.146875,1.30925,1.03925,-0.2268125,-0.34615625,1.29090625,0.01946835763062103,0.020250886626097295,True
36936,104741,1,104742,2914.0,36252.0,28346.0,-0.003721,-0.0011589999999999999,-0.000183,0.35000000000000003,-1.2075,-3.6400000000000006,1.05259375,0.243875,0.14640625000000002,1.30921875,0.9935,-0.23484375000000002,-0.34540625,1.2705312500000001,0.019753325209699364,0.020201449708813136,True
36937,104742,1,104743,2915.0,36249.0,28345.0,-0.000366,0.000915,-0.000305,0.29750000000000004,-1.6275000000000002,-3.7625,1.0541875,0.24365625000000002,0.147125,1.3101875,1.024875,-0.23159375000000001,-0.34690625,1.2770625,0.019612824682652172,0.02029133578316547,True
36938,104743,1,104744,2916.0,36252.0,28344.0,-0.000488,0.001037,-0.001037,0.2625,-1.9075000000000002,-3.7625,1.05546875,0.24409375,0.14946875,1.3099687500000001,1.01853125,-0.2298125,-0.34009375000000003,1.27246875,0.019558807976743524,0.020113418831839956,True
36939,104744,1,104745,2915.0,36252.0,28347.0,0.000976,0.0006709999999999999,-0.000305,0.385,-2.0650000000000004,-3.7450000000000006,1.05375,0.24409375,0.14803125,1.3097812500000001,1.012125,-0.2323125,-0.33840625,1.27234375,0.01965995816536288,0.01998641550327479,True
36940,104745,1,104746,2917.0,36253.0,28347.0,0.003843,0.000122,-0.000549,0.5075000000000001,-2.0125,-3.6575,1.0542500000000001,0.242125,0.15090625,1.313625,1.0056875,-0.23134375000000001,-0.34278125,1.27790625,0.019539516870582134,0.020280653017000674,True
36941,104746,1,104747,2918.0,36251.0,28348.0,0.004392,6.1e-05,6.1e-05,0.43750000000000006,-1.8900000000000001,-3.7100000000000004,1.04871875,0.243125,0.14878125,1.29953125,1.0229062500000001,-0.2310625,-0.341875,1.28325,0.019569406005205094,0.020156879862377075,True
36942,104747,1,104748,2918.0,36253.0,28346.0,-0.000549,0.00061,0.003904,0.28,-0.7350000000000001,-3.535,1.05290625,0.24346875,0.15156250000000002,1.3090625,1.0153125,-0.23365625,-0.3419375,1.2834375,0.019688527190361547,0.02027365323733988,True
36943,104748,1,104749,2918.0,36256.0,28349.0,-0.007686,0.0030499999999999998,0.00122,0.35000000000000003,-1.1725,-3.535,1.0535,0.24390625000000002,0.147,1.3104375,1.0099375,-0.23525000000000001,-0.34125,1.285,0.019771046306516337,0.02005854259744261,True
36944,104749,1,104750,2919.0,36254.0,28350.0,-0.004331,0.001281,0.001464,0.28,-1.2075,-3.5875000000000004,1.0515,0.243375,0.14981250000000002,1.31325,1.01653125,-0.2363125,-0.3419375,1.27696875,0.01979209914874633,0.020201760849973428,True
36945,104750,1,104751,2919.0,36256.0,28350.0,-0.000366,-0.001037,6.1e-05,0.28,-1.4000000000000001,-3.7275000000000005,1.0485,0.242125,0.1570625,1.3136875000000001,1.0235,-0.23271875,-0.34365625,1.27790625,0.019595149636274303,0.02056875700419899,True
36946,104751,1,104752,2919.0,36259.0,28349.0,0.000915,-0.004209,-0.001281,0.28,-1.6800000000000002,-3.6925000000000003,1.04871875,0.2413125,0.15003125,1.31525,1.02378125,-0.23203125,-0.3440625,1.27165625,0.01953380404294419,0.020296273475308404,True
36947,104752,1,104753,2919.0,36257.0,28350.0,0.002074,-0.001037,-0.001403,0.1925,-2.2225,-3.5525,1.04725,0.241125,0.15209375,1.31603125,1.022,-0.23146875,-0.34475,1.2771875,0.01950330600574924,0.020408661004939464,True
36948,104753,1,104754,2920.0,36258.0,28351.0,0.00366,-0.00042699999999999997,-0.000549,0.2625,-2.205,-3.7625,1.03928125,0.24315625000000002,0.14778125,1.30975,1.02390625,-0.23171875,-0.34209375000000003,1.2845312500000001,0.01959724792530452,0.020124604112988435,True
36949,104754,1,104755,2922.0,36257.0,28350.0,0.0032329999999999998,-6.1e-05,0.000732,0.24500000000000002,-2.0475000000000003,-3.7800000000000002,1.04490625,0.23959375,0.1519375,1.31803125,1.01971875,-0.2318125,-0.34409375000000003,1.2781875,0.019454023507321214,0.02037583551451777,True
36950,104755,1,104756,2922.0,36255.0,28350.0,-0.000488,0.000793,-0.001769,0.31500000000000006,-1.9250000000000003,-3.7975000000000003,1.0553125,0.24456250000000002,0.144375,1.30496875,1.01565625,-0.23409375000000002,-0.34175,1.28175,0.01975135752703771,0.019970832006737396,True
36951,104756,1,104757,2922.0,36256.0,28349.0,-0.002806,0.000549,-0.00061,0.36750000000000005,-1.6450000000000002,-3.7450000000000006,1.04784375,0.2363125,0.15181250000000002,1.31225,1.01659375,-0.23215625,-0.342625,1.27696875,0.019332524318796434,0.02031159334706097,True
36952,104757,1,104758,2922.0,36256.0,28350.0,-0.0017079999999999999,0.0030499999999999998,0.000793,0.56,-1.7675,-3.7100000000000004,1.05675,0.24465625,0.14400000000000002,1.30534375,1.0118125,-0.23171875,-0.3415625,1.2831875,0.01965915026147289,0.019947877216181173,True
36953,104758,1,104759,2924.0,36260.0,28352.0,0.001403,0.002013,-0.00042699999999999997,0.49000000000000005,-1.7675,-3.6575,1.04515625,0.2361875,0.15303125,1.306125,1.01965625,-0.232125,-0.343375,1.27784375,0.019326101198305967,0.020391841722850673,True
36954,104759,1,104760,2926.0,36259.0,28349.0,0.002562,0.001098,-0.0021349999999999997,0.42000000000000004,-1.7325000000000002,-3.6925000000000003,1.0615,0.2459375,0.1484375,1.3199687500000001,1.0166250000000001,-0.233875,-0.34065625,1.27434375,0.019799247953536114,0.020093696117991888,True
36955,104760,1,104761,2925.0,36260.0,28352.0,0.0030499999999999998,-0.000549,-0.0040869999999999995,0.29750000000000004,-1.5925000000000002,-3.5700000000000003,1.04221875,0.23403125,0.15271875000000001,1.31390625,1.02409375,-0.2325625,-0.34375,1.2781875,0.01925482499013466,0.020394094993581514,True
36956,104761,1,104762,2925.0,36262.0,28351.0,0.0040869999999999995,-0.001586,0.000305,0.3325,-1.3650000000000002,-3.5525,1.05296875,0.244875,0.14415625,1.3048125,1.01621875,-0.23475000000000001,-0.340125,1.2840625,0.019790796273945473,0.019896415897617616,True
36957,104762,1,104763,2923.0,36261.0,28352.0,0.000793,-0.002806,0.0017079999999999999,0.2625,-0.8225000000000001,-3.6750000000000003,1.0423437500000001,0.23700000000000002,0.1473125,1.3040625000000001,1.0191875,-0.231625,-0.34265625,1.28584375,0.019339396346716328,0.02012799034616446,True
36958,104763,1,104764,2925.0,36261.0,28349.0,-0.0028669999999999998,-0.0017079999999999999,0.002257,0.2625,-0.5950000000000001,-3.5525,1.0555625,0.245375,0.153875,1.3199375,1.01340625,-0.23390625,-0.342375,1.277875,0.019777300657008196,0.020386260584680006,True
36959,104764,1,104765,2926.0,36260.0,28352.0,-0.0057339999999999995,0.001037,0.00122,0.31500000000000006,-0.5425000000000001,-3.5525,1.0418125,0.24378125,0.148875,1.30703125,1.02125,-0.2313125,-0.34190625,1.2835625,0.019606604058282025,0.020161989162208693,True
36960,104765,1,104766,2926.0,36262.0,28352.0,-0.005978,0.000244,0.000122,0.29750000000000004,-0.665,-3.5000000000000004,1.0575625,0.24521875,0.150125,1.31171875,1.0165625,-0.236125,-0.34103125,1.2775,0.01986059033777058,0.020178120021106336,True
36961,104766,1,104767,2926.0,36261.0,28352.0,-0.003294,-0.0008539999999999999,0.000122,0.31500000000000006,-0.8575,-3.6750000000000003,1.048625,0.24359375,0.14665625000000002,1.31465625,1.0125,-0.228625,-0.3415625,1.28328125,0.019490117577865024,0.02005700127097429,True
36962,104767,1,104768,2925.0,36260.0,28347.0,-6.1e-05,0.000793,-0.000488,0.35000000000000003,-1.225,-3.5525,1.0474375,0.242375,0.1480625,1.3095937500000001,1.01984375,-0.2318125,-0.34018750000000003,1.28315625,0.019568800311573886,0.02005941819470372,True
36963,104768,1,104769,2923.0,36261.0,28347.0,0.000976,-0.000549,-0.0015249999999999999,0.4025,-1.435,-3.5175000000000005,1.04609375,0.243,0.14956250000000001,1.30909375,1.01615625,-0.2338125,-0.343,1.2785312500000001,0.019675505040735956,0.020234256254364705,True
36964,104769,1,104770,2922.0,36259.0,28346.0,0.002562,0.000549,-0.0013419999999999999,0.3325,-1.4525000000000001,-3.6750000000000003,1.04496875,0.24425,0.149875,1.31009375,1.01053125,-0.23475000000000001,-0.34215625,1.277375,0.019765006859984113,0.02021313333735585,True
36965,104770,1,104771,2920.0,36257.0,28343.0,0.00244,0.000915,0.000244,0.36750000000000005,-1.6800000000000002,-3.6050000000000004,1.055375,0.2434375,0.14684375,1.3170625,1.016875,-0.2338125,-0.341875,1.283125,0.01969355832888449,0.020077284514853518,True
36966,104771,1,104772,2916.0,36256.0,28342.0,0.003965,0.000366,0.000915,0.385,-1.7500000000000002,-3.6400000000000006,1.0481875,0.243375,0.1476875,1.31075,1.0206875,-0.23221875,-0.34565625,1.2836875,0.019626504485892364,0.020264138494931718,True
36967,104772,1,104773,2915.0,36253.0,28341.0,0.002196,-0.000732,0.001098,0.2625,-1.5750000000000002,-3.7100000000000004,1.0485,0.24121875,0.156,1.30890625,1.0159375,-0.23246875,-0.34415625,1.27796875,0.019547636886976284,0.020545228385148898,True
36968,104773,1,104774,2913.0,36254.0,28340.0,-0.0011589999999999999,-0.00042699999999999997,0.000915,0.36750000000000005,-1.3475000000000001,-3.8150000000000004,1.0531875,0.2398125,0.14978125,1.3098750000000001,1.01603125,-0.23071875,-0.34421875,1.27571875,0.019418790455813448,0.02029229218949571,True
36969,104774,1,104775,2910.0,36251.0,28335.0,-0.004575,0.0026839999999999998,-0.002074,0.3325,-1.2075,-3.7450000000000006,1.0542500000000001,0.24265625000000002,0.14946875,1.314625,1.01771875,-0.23500000000000001,-0.34146875,1.2713125,0.019709356302867753,0.020168770629340107,True
36970,104775,1,104776,2908.0,36253.0,28333.0,-0.004575,0.002257,0.000122,0.31500000000000006,-1.1725,-3.7100000000000004,1.0546875,0.24428125,0.15106250000000002,1.30915625,1.02384375,-0.23425,-0.3415625,1.2770625,0.019746072191216976,0.020238018820689922,True
36971,104776,1,104777,2905.0,36251.0,28331.0,0.0,-0.000976,-0.00061,0.31500000000000006,-1.3125000000000002,-3.7100000000000004,1.0543125,0.2415,0.14965625,1.30940625,1.015875,-0.23565625,-0.34225,1.2780625,0.01968819185574973,0.020207920385338248,True
36972,104777,1,104778,2904.0,36252.0,28330.0,0.000183,-0.0006709999999999999,0.0013419999999999999,0.22750000000000004,-1.4000000000000001,-3.7975000000000003,1.0561562500000001,0.24196875,0.15084375,1.309625,1.01903125,-0.23021875,-0.3433125,1.27284375,0.019487545897620095,0.02029946622917485,True
36973,104778,1,104779,2901.0,36251.0,28327.0,0.000244,-0.001464,0.001464,0.2625,-1.4700000000000002,-3.6925000000000003,1.0569375,0.24425,0.1491875,1.3086875,1.01559375,-0.2354375,-0.34096875,1.2745,0.01979281372576831,0.020137088832998893,True
36974,104779,1,104780,2900.0,36252.0,28328.0,0.000793,-0.002257,-0.000915,0.3325,-1.5925000000000002,-3.6400000000000006,1.05509375,0.24359375,0.14871875,1.3141875,1.02165625,-0.233875,-0.34125,1.28328125,0.01970253415931212,0.02012915318646331,True
36975,104780,1,104781,2900.0,36251.0,28328.0,0.002074,-0.0017079999999999999,-0.002745,0.24500000000000002,-1.8025000000000002,-3.535,1.04775,0.24165625000000002,0.14775,1.3100625000000001,1.018375,-0.23246875,-0.34215625,1.284375,0.01956569117622405,0.020125836222910615,True
36976,104781,1,104782,2898.0,36249.0,28326.0,0.0015249999999999999,-0.0006709999999999999,-0.001403,0.3325,-1.715,-3.5525,1.05534375,0.24328125,0.14978125,1.31303125,1.015875,-0.2325625,-0.3385,1.2807187500000001,0.019636542771735346,0.020062092980257618,True
36977,104782,1,104783,2898.0,36250.0,28326.0,0.000244,0.001586,0.00244,0.36750000000000005,-1.6625,-3.5875000000000004,1.0482500000000001,0.24275,0.149125,1.30971875,1.0160625,-0.227375,-0.34215625,1.2816875,0.01940470232536542,0.02018232259108106,True
36978,104783,1,104784,2899.0,36251.0,28325.0,-0.001037,0.0018909999999999999,0.0021349999999999997,0.36750000000000005,-1.8025000000000002,-3.6400000000000006,1.05265625,0.241375,0.14931250000000001,1.3121875,1.0160625,-0.2340625,-0.341625,1.2776875,0.019618563746792352,0.020168641165082445,True
36979,104784,1,104785,2895.0,36252.0,28324.0,-0.000915,0.002989,0.0017079999999999999,0.45500000000000007,-1.715,-3.5875000000000004,1.052375,0.24384375,0.15009375,1.3125,1.01665625,-0.2333125,-0.34190625,1.28025,0.019690096019683648,0.020212057139115797,True
36980,104785,1,104786,2896.0,36251.0,28323.0,-0.000732,0.003294,0.000366,0.47250000000000003,-1.5925000000000002,-3.6575,1.0484375,0.2436875,0.14921875,1.3129375,1.02565625,-0.23043750000000002,-0.3415,1.2765312500000001,0.019567331378147836,0.020159758026415793,True
36981,104786,1,104787,2896.0,36251.0,28323.0,-0.000183,-0.000244,-0.0023179999999999997,0.45500000000000007,-1.6450000000000002,-3.6225000000000005,1.04878125,0.24315625000000002,0.147875,1.31346875,1.01771875,-0.23153125,-0.34196875,1.2783125,0.019589661714011577,0.02012342366514623,True
36982,104787,1,104788,2895.0,36252.0,28322.0,-0.0013419999999999999,-0.001098,-0.000915,0.45500000000000007,-1.5050000000000001,-3.6575,1.04853125,0.24725,0.14896875,1.31003125,1.0215,-0.2315625,-0.3446875,1.28765625,0.019759868972543556,0.020277781343465594,True
36983,104788,1,104789,2894.0,36252.0,28322.0,-0.0013419999999999999,-0.000549,-0.000732,0.31500000000000006,-1.5050000000000001,-3.7100000000000004,1.0481562500000001,0.24684375,0.151,1.31028125,1.014625,-0.2315,-0.3450625,1.2665625,0.01974057528423746,0.02037630833767627,True
36984,104789,1,104790,2896.0,36253.0,28322.0,0.0,-0.001281,0.002257,0.28,-1.33,-3.6575,1.05309375,0.24490625,0.14928125,1.325375,0.9986875000000001,-0.2380625,-0.33978125000000003,1.2753125,0.019926046069070082,0.020093134567509725,True
36985,104790,1,104791,2896.0,36253.0,28322.0,0.001037,-0.0008539999999999999,0.002013,0.2625,-1.3825,-3.7100000000000004,1.04940625,0.247,0.15371875000000002,1.3051875,1.0264375000000001,-0.23071875,-0.34784375,1.28621875,0.019715418057914602,0.020599873448752522,True
36986,104791,1,104792,2895.0,36253.0,28322.0,-0.000915,-0.000488,-0.000793,0.31500000000000006,-1.5750000000000002,-3.5700000000000003,1.0689375,0.24434375,0.14184375,1.29771875,1.012875,-0.2356875,-0.340375,1.28721875,0.019806793184637326,0.019811475788684436,True
36987,104792,1,104793,2896.0,36254.0,28324.0,-0.00122,-0.0011589999999999999,-0.000244,0.2625,-1.8550000000000002,-3.5700000000000003,1.06675,0.246125,0.1405625,1.3001562500000001,1.0069375,-0.23746875,-0.34018750000000003,1.28809375,0.019952320722435177,0.019751285810760497,True
36988,104793,1,104794,2895.0,36254.0,28322.0,0.000305,-0.0021349999999999997,-0.000793,0.21000000000000002,-2.0300000000000002,-3.6225000000000005,1.071,0.2474375,0.147375,1.29696875,1.014,-0.23590625,-0.34040625,1.28925,0.01994329178427153,0.020039979817510236,True
36989,104794,1,104795,2896.0,36254.0,28323.0,0.001952,-0.000366,-0.001403,0.2625,-2.1350000000000002,-3.6400000000000006,1.06040625,0.24503125,0.15046875,1.32728125,1.014,-0.23396875,-0.34028125,1.273875,0.01976564404045458,0.020162051332089682,True
36990,104795,1,104796,2895.0,36255.0,28320.0,0.00244,-0.000915,-0.00122,0.385,-2.1,-3.7625,1.0355625,0.23540625,0.15415625,1.32596875,1.02603125,-0.23184375000000002,-0.34700000000000003,1.27528125,0.019282478247244397,0.02058390150737257,True
36991,104796,1,104797,2896.0,36255.0,28319.0,6.1e-05,0.0021349999999999997,0.000305,0.36750000000000005,-1.7850000000000001,-3.7625,1.0365,0.23384375000000002,0.15571875000000002,1.31375,1.0246250000000001,-0.2305625,-0.3474375,1.27034375,0.01916613574282479,0.020665675802638367,True
36992,104797,1,104798,2898.0,36254.0,28320.0,-0.0008539999999999999,0.0015249999999999999,0.000549,0.35000000000000003,-1.5225000000000002,-3.7450000000000006,1.0588125,0.2413125,0.1459375,1.3098750000000001,1.0149062500000001,-0.23118750000000002,-0.34178125,1.28059375,0.019499663398667523,0.020036280212648774,True
36993,104798,1,104799,2897.0,36255.0,28323.0,0.00042699999999999997,0.0011589999999999999,-0.0006709999999999999,0.385,-1.435,-3.7275000000000005,1.05715625,0.23959375,0.14821875,1.31146875,1.016125,-0.23271875,-0.341625,1.27865625,0.019490693754698904,0.020123707846127777,True
36994,104799,1,104800,2896.0,36257.0,28325.0,0.001403,0.001586,0.000305,0.43750000000000006,-1.3125000000000002,-3.7100000000000004,1.0536875,0.23840625000000001,0.153375,1.31509375,1.0183125,-0.23093750000000002,-0.34359375000000003,1.27775,0.01936960755232851,0.02041476517821039,True
36995,104800,1,104801,2895.0,36257.0,28322.0,-0.000793,0.000488,0.001464,0.31500000000000006,-1.155,-3.6575,1.03771875,0.23875000000000002,0.15109375,1.30771875,1.0226875,-0.2313125,-0.34571875,1.2783125,0.019398969824684486,0.02040656532270176,True
36996,104801,1,104802,2897.0,36257.0,28323.0,-0.001647,-0.001281,-0.000366,0.385,-1.0850000000000002,-3.5700000000000003,1.04621875,0.2521875,0.15259375,1.307,1.0169062500000001,-0.2320625,-0.3408125,1.283375,0.019983854036361947,0.020270738702744623,True
36997,104802,1,104803,2896.0,36259.0,28324.0,-0.001586,-0.002074,0.00122,0.31500000000000006,-1.0850000000000002,-3.6575,1.05509375,0.2484375,0.147625,1.3144375,1.016125,-0.23465625,-0.34171875,1.28421875,0.019934004634375616,0.020103089474731526,True
36998,104803,1,104804,2896.0,36258.0,28323.0,-0.001769,-0.000732,0.001098,0.36750000000000005,-1.1025,-3.7625,1.04828125,0.2410625,0.150125,1.31340625,1.00925,-0.2348125,-0.3414375,1.27778125,0.019636009150060477,0.02019447290243232,True
36999,104804,1,104805,2896.0,36260.0,28320.0,-0.003355,6.1e-05,0.001281,0.36750000000000005,-1.2950000000000002,-3.8325000000000005,1.04865625,0.2434375,0.14709375,1.3105625,1.02190625,-0.23225,-0.343625,1.27728125,0.019630347986670658,0.020157998243893423,True
37000,104805,1,104806,2894.0,36260.0,28322.0,-0.0011589999999999999,-0.00061,0.0006709999999999999,0.42000000000000004,-1.3825,-3.7625,1.05465625,0.24403125,0.1485,1.310625,1.010125,-0.23296875,-0.34178125,1.27121875,0.01968392750062866,0.02014155188417035,True
37001,104806,1,104807,2896.0,36260.0,28322.0,0.0018909999999999999,0.000732,-0.000976,0.3325,-1.7850000000000001,-3.6050000000000004,1.05459375,0.24390625000000002,0.14871875,1.308625,1.0160625,-0.22821875,-0.34409375000000003,1.27790625,0.01948657492619015,0.020243616585645136,True
37002,104807,1,104808,2895.0,36261.0,28323.0,0.00366,0.000488,-0.00042699999999999997,0.3325,-1.8550000000000002,-3.6750000000000003,1.05671875,0.24409375,0.14565625000000001,1.30971875,1.01775,-0.23340625,-0.3423125,1.27903125,0.019704204810250314,0.02004611312092884,True
37003,104808,1,104809,2897.0,36263.0,28323.0,0.0034159999999999998,0.000732,-0.002013,0.31500000000000006,-1.5225000000000002,-3.7275000000000005,1.0482500000000001,0.2425,0.15134375,1.3175937500000001,1.00590625,-0.23500000000000001,-0.33953125,1.27640625,0.019702909015886116,0.020167808285132854,True
37004,104809,1,104810,2895.0,36263.0,28323.0,0.001403,-0.000549,-0.0017079999999999999,0.31500000000000006,-1.2600000000000002,-3.7100000000000004,1.0479687500000001,0.243,0.14990625,1.31171875,1.0128125000000001,-0.22893750000000002,-0.34265625,1.278,0.01947825817785035,0.020234541988407694,True
37005,104810,1,104811,2896.0,36264.0,28322.0,-0.000366,0.00042699999999999997,-0.000244,0.21000000000000002,-1.0675000000000001,-3.5700000000000003,1.051375,0.24303125,0.14953125,1.309375,1.0225,-0.23193750000000002,-0.34459375000000003,1.2775,0.019600939875319506,0.020297114220688115,True
37006,104811,1,104812,2897.0,36265.0,28322.0,-0.000549,-0.000122,0.002074,0.42000000000000004,-1.1375000000000002,-3.7275000000000005,1.0439687500000001,0.240375,0.15006250000000002,1.31628125,1.015875,-0.23346875,-0.3410625,1.28309375,0.01955327794334024,0.020176810276872674,True
37007,104812,1,104813,2894.0,36266.0,28325.0,-0.00122,-0.000305,0.000549,0.35000000000000003,-1.1025,-3.6575,1.0486875,0.241375,0.15056250000000002,1.3094375,1.0210625,-0.2320625,-0.34450000000000003,1.2776875,0.019537647693010037,0.020335702109306006,True
37008,104813,1,104814,2897.0,36267.0,28324.0,-0.0017079999999999999,0.000305,0.000244,0.36750000000000005,-1.2075,-3.6925000000000003,1.05540625,0.244,0.1455,1.31071875,1.022375,-0.225625,-0.3418125,1.28446875,0.019385464771290727,0.020019565100174854,True
37009,104814,1,104815,2897.0,36268.0,28325.0,-0.0030499999999999998,0.000305,0.000183,0.5775,-1.3650000000000002,-3.7450000000000006,1.048375,0.24096875,0.15059375,1.3059687500000001,1.00990625,-0.23290625,-0.34290625,1.27775,0.019555021387498664,0.020272846427283105,True
37010,104815,1,104816,2898.0,36268.0,28326.0,-0.0013419999999999999,0.001464,-0.002379,0.5075000000000001,-1.4175000000000002,-3.8500000000000005,1.0475,0.24325,0.147625,1.30940625,1.0199375,-0.231875,-0.34128125,1.282125,0.019607438549431276,0.020085477217843657,True
37011,104816,1,104817,2899.0,36269.0,28327.0,6.1e-05,-0.000305,0.000305,0.36750000000000005,-1.4175000000000002,-3.7450000000000006,1.0519687500000001,0.244375,0.14946875,1.3156875000000001,1.01540625,-0.23421875,-0.342,1.27840625,0.01974867665168699,0.02019015487634541,True
37012,104817,1,104818,2899.0,36270.0,28328.0,0.001098,-0.000122,0.0008539999999999999,0.36750000000000005,-1.4000000000000001,-3.7800000000000002,1.048625,0.2406875,0.150125,1.314625,1.022375,-0.2315,-0.33878125000000003,1.27725,0.019486515486040894,0.020087540332365657,True
37013,104818,1,104819,2900.0,36271.0,28330.0,0.0026839999999999998,-0.0006709999999999999,0.001769,0.22750000000000004,-1.4875,-3.7450000000000006,1.048625,0.24384375,0.148625,1.309625,1.02028125,-0.23140625,-0.3453125,1.2779375,0.01961297644456768,0.020288813298247867,True
37014,104819,1,104820,2900.0,36270.0,28327.0,0.00061,-0.0011589999999999999,0.000793,0.3325,-1.5750000000000002,-3.6225000000000005,1.0483437500000001,0.241,0.14878125,1.31459375,1.0161875,-0.2344375,-0.34159375000000003,1.2825625,0.019618260172120768,0.02014555846410016,True
37015,104820,1,104821,2900.0,36271.0,28329.0,-0.000488,-0.000183,-0.000549,0.4025,-1.4700000000000002,-3.7100000000000004,1.0474375,0.24496875,0.1491875,1.30990625,1.0160625,-0.2351875,-0.34228125,1.28571875,0.019812359611412127,0.020189921599891136,True
37016,104821,1,104822,2903.0,36272.0,28328.0,0.000366,-0.000244,-0.000549,0.36750000000000005,-1.61,-3.6925000000000003,1.04840625,0.25003125,0.14928125,1.31059375,1.0167187500000001,-0.2339375,-0.342,1.2898125,0.019970702243496334,0.02018245214033358,True
37017,104822,1,104823,2901.0,36270.0,28330.0,0.000366,0.000549,0.00061,0.35000000000000003,-1.7325000000000002,-3.7625,1.0541875,0.2480625,0.14634375,1.31075,1.01634375,-0.23118750000000002,-0.34846875,1.27546875,0.019778230018648486,0.020322119845832196,True
37018,104823,1,104824,2903.0,36274.0,28330.0,0.000793,0.000305,0.0013419999999999999,0.42000000000000004,-1.7500000000000002,-3.8500000000000005,1.0542500000000001,0.24421875,0.1475625,1.303,1.02928125,-0.22571875,-0.3448125,1.26875,0.019398289266443335,0.020225047943992176,True
37019,104824,1,104825,2903.0,36272.0,28328.0,0.00061,0.0,0.0017079999999999999,0.35000000000000003,-1.7500000000000002,-3.8850000000000002,1.0502500000000001,0.24121875,0.15,1.3150625,0.9986875000000001,-0.233125,-0.3385,1.2893125,0.019574188223763958,0.020071080797912776,True
37020,104825,1,104826,2904.0,36277.0,28330.0,-0.0006709999999999999,0.000793,-0.000183,0.3325,-1.6275000000000002,-3.8325000000000005,1.04153125,0.24346875,0.147625,1.31034375,1.0119375,-0.23015625,-0.346875,1.27146875,0.019546923062041748,0.02031061481196252,True
37021,104826,1,104827,2903.0,36276.0,28333.0,0.002379,0.0,-0.002074,0.45500000000000007,-1.5050000000000001,-3.7275000000000005,1.05590625,0.240625,0.14878125,1.31615625,1.01621875,-0.2358125,-0.33909375,1.2861875,0.019658408398728122,0.0200449123131382,True
37022,104827,1,104828,2905.0,36278.0,28332.0,0.001647,0.000549,-0.00042699999999999997,0.29750000000000004,-1.155,-3.8675,1.0418125,0.24334375,0.14925,1.31021875,1.01078125,-0.2295625,-0.34803125,1.2699375,0.0195177378873432,0.020423879240749704,True
37023,104828,1,104829,2904.0,36275.0,28332.0,-0.0011589999999999999,-0.00061,0.0013419999999999999,0.49000000000000005,-1.0150000000000001,-3.6575,1.04315625,0.243375,0.14903125,1.31475,1.0193125,-0.23825000000000002,-0.33925,1.289625,0.019870452693573175,0.020061474778392926,True
37024,104829,1,104830,2903.0,36278.0,28334.0,-0.0035989999999999998,-0.000488,0.00061,0.36750000000000005,-0.8575,-3.7275000000000005,1.0517812500000001,0.24584375,0.14615625000000002,1.31584375,1.0244375000000001,-0.22971875,-0.342125,1.295375,0.01962723979204257,0.020059105357482142,True
37025,104830,1,104831,2907.0,36279.0,28333.0,-0.00366,-0.000244,-0.000793,0.36750000000000005,-0.7000000000000001,-3.6925000000000003,1.04909375,0.24303125,0.1485,1.3101875,0.9999375,-0.23068750000000002,-0.3471875,1.2716875,0.019550363562734242,0.020359127722657903,True
37026,104831,1,104832,2906.0,36279.0,28334.0,-0.000976,0.0,0.002196,0.5075000000000001,-1.0850000000000002,-3.6225000000000005,1.050875,0.24331250000000001,0.14859375,1.3098125,1.026125,-0.22946875,-0.3453125,1.26934375,0.019512654399407747,0.020287529683588986,True
37027,104832,1,104833,2906.0,36280.0,28333.0,-0.000183,-0.000793,0.001586,0.42000000000000004,-1.4525000000000001,-3.6925000000000003,1.05484375,0.24356250000000002,0.1476875,1.31059375,1.03025,-0.22853125,-0.342875,1.2820625,0.01948503378635467,0.02015220059257586,True
37028,104833,1,104834,2907.0,36282.0,28335.0,-0.000183,0.00042699999999999997,0.0008539999999999999,0.385,-1.7500000000000002,-3.8150000000000004,1.0529375,0.244875,0.14646875,1.3129375,1.016875,-0.2323125,-0.340625,1.281,0.01969219817547335,0.02001155475670818,True
37029,104834,1,104835,2907.0,36281.0,28336.0,-0.001037,0.0011589999999999999,-0.000976,0.4025,-1.8550000000000002,-3.8150000000000004,1.04853125,0.24234375,0.14909375,1.30875,1.01346875,-0.235375,-0.3415625,1.2805625,0.019711630209971992,0.020157138638902086,True
37030,104835,1,104836,2908.0,36283.0,28337.0,0.003904,0.0018909999999999999,-0.001464,0.36750000000000005,-2.1175,-3.7275000000000005,1.0486875,0.24396875,0.147375,1.30128125,1.02359375,-0.22525,-0.34534375,1.283375,0.01936899516000867,0.02023872634782575,True
37031,104836,1,104837,2908.0,36283.0,28337.0,0.00549,0.000488,-0.00061,0.4025,-2.2225,-3.8150000000000004,1.0483125,0.24175,0.15031250000000002,1.31565625,1.007875,-0.23534375000000002,-0.3395625,1.27009375,0.01968586684478119,0.02012669701848585,True
37032,104837,1,104838,2909.0,36284.0,28337.0,0.002196,-0.000915,-0.0013419999999999999,0.49000000000000005,-1.8725000000000003,-3.8500000000000005,1.05078125,0.24228125,0.14615625000000002,1.3094375,1.02278125,-0.23128125,-0.34309375000000003,1.2819375,0.019543436234928768,0.02009810277298875,True
37033,104838,1,104839,2910.0,36285.0,28340.0,0.000122,-0.0021349999999999997,-0.000366,0.5075000000000001,-1.6275000000000002,-3.7100000000000004,1.0489375,0.24165625000000002,0.15434375,1.3119687500000001,1.0159375,-0.23409375000000002,-0.3414375,1.27759375,0.01963143350470863,0.020367788467710667,True
37034,104839,1,104840,2911.0,36285.0,28338.0,-0.002257,-0.0006709999999999999,-0.000183,0.385,-1.4175000000000002,-3.7450000000000006,1.0518125,0.24356250000000002,0.14709375,1.31028125,1.02059375,-0.23109375000000001,-0.3405625,1.27159375,0.019588725746232567,0.020034715713739156,True
37035,104840,1,104841,2910.0,36283.0,28339.0,-0.000244,-0.0006709999999999999,0.00244,0.385,-1.5050000000000001,-3.7800000000000002,1.05003125,0.243125,0.14975,1.31475,1.01559375,-0.23334375000000002,-0.341125,1.28278125,0.01966170062684808,0.0201664877855892,True
37036,104841,1,104842,2910.0,36286.0,28340.0,-0.001098,0.0021349999999999997,0.000976,0.35000000000000003,-1.3650000000000002,-3.8150000000000004,1.04884375,0.24184375,0.15081250000000002,1.31021875,1.0165,-0.23178125,-0.34328125,1.2783437500000001,0.019545612231870076,0.0202969248445092,True
37037,104842,1,104843,2913.0,36288.0,28341.0,-0.00042699999999999997,0.0017079999999999999,-0.000305,0.3325,-1.435,-3.7275000000000005,1.054125,0.2476875,0.1526875,1.3184375,1.0159375,-0.23490625,-0.34178125,1.27815625,0.01991316760303127,0.02031358120104707,True
37038,104843,1,104844,2913.0,36288.0,28340.0,-0.0021349999999999997,0.0011589999999999999,-6.1e-05,0.29750000000000004,-1.5575,-3.6925000000000003,1.04934375,0.2479375,0.14575,1.30790625,1.02315625,-0.23143750000000002,-0.3448125,1.2836875,0.019783184551060994,0.02015059676471117,True
37039,104844,1,104845,2916.0,36288.0,28342.0,-0.001952,-0.001281,-0.002074,0.3325,-1.7325000000000002,-3.7800000000000002,1.04925,0.24196875,0.1515,1.30790625,1.01571875,-0.23175,-0.34459375000000003,1.2780625,0.01954950632950571,0.020377984331736897,True
37040,104845,1,104846,2915.0,36290.0,28341.0,0.00244,-0.001281,-0.000183,0.36750000000000005,-2.0125,-3.5875000000000004,1.0578125,0.24265625000000002,0.1505,1.3169375,1.01621875,-0.23453125,-0.33537500000000003,1.27771875,0.019690395290810504,0.01996579054154703,True
37041,104846,1,104847,2916.0,36289.0,28340.0,0.003538,0.0017079999999999999,-0.000793,0.43750000000000006,-1.995,-3.6400000000000006,1.04621875,0.24325,0.148125,1.30803125,1.0119375,-0.23153125,-0.3440625,1.2815625,0.019593530639959042,0.020217968960603842,True
37042,104847,1,104848,2916.0,36288.0,28344.0,0.00061,0.0013419999999999999,0.000305,0.5075000000000001,-1.8900000000000001,-3.6750000000000003,1.05709375,0.24590625,0.14790625000000002,1.31809375,1.0161875,-0.2348125,-0.336375,1.277375,0.01983587659281457,0.019899481742864333,True
37043,104848,1,104849,2917.0,36288.0,28343.0,-0.00042699999999999997,-0.0021349999999999997,-0.0011589999999999999,0.45500000000000007,-1.7500000000000002,-3.5875000000000004,1.04578125,0.23771875,0.15846875,1.3023437500000001,1.02196875,-0.23209375000000002,-0.34168750000000003,1.27828125,0.01938802749968727,0.020547312095761647,True
37044,104849,1,104850,2917.0,36292.0,28344.0,0.000122,0.0,-0.000488,0.35000000000000003,-1.5750000000000002,-3.6400000000000006,1.0615625,0.24471875,0.14931250000000001,1.32071875,1.0129062500000001,-0.2340625,-0.3425625,1.27846875,0.01975654102567409,0.020206377204536295,True
37045,104850,1,104851,2915.0,36291.0,28343.0,0.002074,0.001769,0.000732,0.3325,-1.4700000000000002,-3.6225000000000005,1.03296875,0.24675,0.14856250000000001,1.30665625,1.02009375,-0.232375,-0.34190625,1.28265625,0.019772102404324792,0.020149151219411996,True
37046,104851,1,104852,2918.0,36292.0,28343.0,0.0018909999999999999,0.0017079999999999999,0.0006709999999999999,0.42000000000000004,-1.2775,-3.6050000000000004,1.05771875,0.24456250000000002,0.14765625000000002,1.31078125,1.0150625,-0.23228125,-0.34159375000000003,1.28171875,0.019678037947830438,0.020099341276698452,True
37047,104852,1,104853,2918.0,36293.0,28345.0,0.0006709999999999999,0.001037,6.1e-05,0.45500000000000007,-0.9275000000000001,-3.6225000000000005,1.0462500000000001,0.23790625,0.15006250000000002,1.31690625,1.0163125,-0.23190625,-0.34046875,1.2781875,0.01938817751905094,0.020152908928674596,True
37048,104853,1,104854,2918.0,36293.0,28345.0,-0.0006709999999999999,0.001769,-0.000366,0.5075000000000001,-0.8225000000000001,-3.5700000000000003,1.0465,0.24396875,0.148,1.3078125,1.019375,-0.23165625,-0.34178125,1.2807187500000001,0.019628249719826726,0.02012101107021492,True
37049,104854,1,104855,2919.0,36293.0,28347.0,-0.002745,0.000976,0.0,0.525,-0.6125,-3.5700000000000003,1.04753125,0.24140625000000002,0.1496875,1.3009375,1.0166875,-0.22743750000000001,-0.343125,1.2781875,0.01935176801095865,0.02024442219312434,True
37050,104855,1,104856,2918.0,36295.0,28348.0,-0.004392,-0.001586,0.00061,0.43750000000000006,-0.6825000000000001,-3.535,1.0559375,0.24384375,0.1514375,1.30878125,1.01590625,-0.23128125,-0.34290625,1.27865625,0.019607918999330672,0.020307507448910297,True
37051,104856,1,104857,2919.0,36297.0,28348.0,-0.003477,-0.0017079999999999999,0.0015249999999999999,0.385,-0.7875000000000001,-3.5175000000000005,1.05234375,0.24684375,0.14696875,1.30346875,1.0173125,-0.23125,-0.34328125,1.2780625,0.019730461697188548,0.020139027067273437,True
37052,104857,1,104858,2922.0,36296.0,28346.0,-0.004026,-0.002074,0.00244,0.42000000000000004,-1.33,-3.5000000000000004,1.052875,0.24378125,0.14884375,1.3019375,1.0128125000000001,-0.23078125,-0.34165625,1.29790625,0.01958510933278307,0.020150641967922787,True
37053,104858,1,104859,2920.0,36294.0,28345.0,-0.00244,-0.0015249999999999999,-0.0037819999999999998,0.35000000000000003,-2.1,-3.43,1.04803125,0.24115625000000002,0.14803125,1.31065625,1.017625,-0.22743750000000001,-0.35015625,1.27171875,0.019341449131795304,0.020459314301114598,True
37054,104859,1,104860,2920.0,36296.0,28344.0,0.003721,-0.000366,0.00122,0.31500000000000006,-2.1350000000000002,-3.5175000000000005,1.04459375,0.2449375,0.1495,1.310125,1.04196875,-0.226875,-0.3423125,1.289375,0.019474756855764518,0.020204017182015883,True
37055,104860,1,104861,2919.0,36294.0,28346.0,0.0026839999999999998,0.0006709999999999999,-0.001464,0.4025,-2.0650000000000004,-3.5000000000000004,1.0484375,0.24153125,0.15146875,1.31278125,1.00771875,-0.23971875,-0.3363125,1.2806250000000001,0.01985377821267006,0.020043350856872835,True
37056,104861,1,104862,2917.0,36294.0,28344.0,0.0026839999999999998,-0.000915,-0.0006709999999999999,0.43750000000000006,-2.205,-3.4650000000000003,1.0541562500000001,0.2434375,0.15121875,1.3155000000000001,1.02990625,-0.2275625,-0.3415,1.28646875,0.019440668040790317,0.020241922231579813,True
37057,104862,1,104863,2917.0,36292.0,28341.0,0.003538,0.001952,0.0046359999999999995,0.385,-2.1875,-3.6750000000000003,1.041375,0.24128125,0.1501875,1.31528125,1.0033750000000001,-0.2388125,-0.330625,1.29578125,0.01980681809391446,0.01976161730329574,True
37058,104863,1,104864,2915.0,36293.0,28338.0,0.004331,0.0026839999999999998,0.000549,0.35000000000000003,-2.0475000000000003,-3.8675,1.0518750000000001,0.24390625000000002,0.14921875,1.31525,1.0268125000000001,-0.22815625,-0.345625,1.29046875,0.019484045551340708,0.02032577721869946,True
37059,104864,1,104865,2912.0,36290.0,28335.0,0.00122,0.001647,-0.00061,0.29750000000000004,-1.715,-3.7975000000000003,1.0460625000000001,0.242625,0.1483125,1.31009375,1.00578125,-0.2315,-0.34659375000000003,1.26875,0.019566473392072303,0.02032753555104603,True
37060,104865,1,104866,2910.0,36288.0,28334.0,-0.005307,0.0,-0.001952,0.4025,-1.1900000000000002,-3.8150000000000004,1.0495,0.24353125,0.14984375,1.3141875,1.0070000000000001,-0.2366875,-0.33671875,1.29896875,0.019813712166730706,0.019992937626400437,True
37061,104866,1,104867,2908.0,36289.0,28332.0,-0.004697,0.000244,0.00061,0.385,-1.2425000000000002,-3.7800000000000002,1.04896875,0.24281250000000001,0.149125,1.31021875,1.0165625,-0.23,-0.34640625,1.26865625,0.01951351630210483,0.020353363240211274,True
37062,104867,1,104868,2905.0,36289.0,28329.0,-0.000915,-0.000244,0.0050019999999999995,0.35000000000000003,-1.4175000000000002,-3.8150000000000004,1.05665625,0.2436875,0.14921875,1.3155937500000001,1.01634375,-0.2340625,-0.33625,1.2861562500000001,0.019713987285458225,0.019948379475062922,True
37063,104868,1,104869,2904.0,36287.0,28327.0,0.0008539999999999999,-0.0021349999999999997,0.0018909999999999999,0.31500000000000006,-1.4875,-3.7975000000000003,1.0484375,0.24190625000000002,0.14821875,1.30896875,1.01878125,-0.23065625,-0.34103125,1.27165625,0.019502670300149218,0.020099805754943106,True
37064,104869,1,104870,2902.0,36287.0,28327.0,0.00042699999999999997,-0.0021349999999999997,-0.002074,0.29750000000000004,-1.5925000000000002,-3.8325000000000005,1.05478125,0.244125,0.15021875,1.3095,1.00940625,-0.22925,-0.340625,1.27028125,0.019537336071071124,0.02016561817948389,True
37065,104870,1,104871,2901.0,36287.0,28327.0,-6.1e-05,0.0006709999999999999,-0.000366,0.24500000000000002,-2.0125,-3.7625,1.05609375,0.24425,0.1501875,1.309625,1.01540625,-0.23550000000000001,-0.34440625,1.2783125,0.019795341544428628,0.020316525485192315,True
37066,104871,1,104872,2898.0,36289.0,28324.0,0.001464,0.002379,0.002806,0.21000000000000002,-2.2575000000000003,-3.7800000000000002,1.0538750000000001,0.24331250000000001,0.14925,1.31296875,1.01625,-0.232,-0.3415625,1.27825,0.01961507510729614,0.02016355770094874,True
37067,104872,1,104873,2898.0,36287.0,28323.0,0.0028669999999999998,0.0015249999999999999,0.004331,0.24500000000000002,-2.3975000000000004,-3.7975000000000003,1.04753125,0.24353125,0.14846875,1.3101875,1.024,-0.232125,-0.337625,1.28465625,0.01962915963829008,0.019972932856020257,True
37068,104873,1,104874,2895.0,36287.0,28324.0,0.002074,0.000244,-0.0008539999999999999,0.21000000000000002,-2.4675000000000002,-3.8850000000000002,1.04890625,0.2431875,0.15031250000000002,1.3115625,1.01553125,-0.23159375000000001,-0.34321875,1.27846875,0.019593480102809997,0.020273869904734766,True
37069,104874,1,104875,2895.0,36288.0,28319.0,0.000793,0.000122,-0.0040869999999999995,0.14,-2.2575000000000003,-3.8675,1.05084375,0.24425,0.14759375,1.3095937500000001,1.02171875,-0.2305,-0.34225,1.28421875,0.01959307484368874,0.02012319115940392,True
37070,104875,1,104876,2894.0,36285.0,28320.0,0.000976,-0.000305,0.0025009999999999998,0.3325,-1.6450000000000002,-4.077500000000001,1.053625,0.244375,0.14784375,1.311,1.0161875,-0.22990625,-0.34021875,1.284875,0.019574209041770436,0.020051689141043567,True
37071,104876,1,104877,2895.0,36287.0,28320.0,-0.00042699999999999997,-0.00122,0.0017079999999999999,0.29750000000000004,-1.8375000000000001,-4.130000000000001,1.0485625,0.24365625000000002,0.150125,1.3157812500000001,1.01659375,-0.23271875,-0.34446875,1.27784375,0.019658338996733495,0.020316473326204745,True
37072,104877,1,104878,2894.0,36285.0,28321.0,0.0034159999999999998,-0.0026839999999999998,-0.000183,0.29750000000000004,-1.7675,-3.8675,1.049,0.24281250000000001,0.14596875,1.31034375,1.02484375,-0.230875,-0.33809375,1.28559375,0.01954892260390927,0.019889088478837833,True
37073,104878,1,104879,2895.0,36285.0,28322.0,0.000915,0.000244,-0.002074,0.2625,-1.435,-3.9550000000000005,1.0486875,0.24365625000000002,0.15,1.32334375,1.01565625,-0.23125,-0.342375,1.2785312500000001,0.01959891668816095,0.020227073159459583,True
37074,104879,1,104880,2895.0,36286.0,28321.0,-0.002562,0.001037,-0.00061,0.22750000000000004,-1.2075,-4.130000000000001,1.04159375,0.24765625,0.1411875,1.3114375,1.0239375,-0.2344375,-0.34118750000000003,1.27965625,0.01989292097247976,0.019817233649755173,True
37075,104880,1,104881,2890.0,36288.0,28321.0,-0.0034159999999999998,-0.00122,-0.001647,0.3325,-1.7675,-3.7625,1.0449375,0.24296875,0.14403125,1.30303125,1.02225,-0.231,-0.34165625,1.28446875,0.019560428789567083,0.019952935618339447,True
37076,104881,1,104882,2894.0,36288.0,28321.0,0.0013419999999999999,0.000183,0.0018909999999999999,0.29750000000000004,-2.0300000000000002,-3.7975000000000003,1.03584375,0.23865625000000001,0.15184375,1.3245625,1.017125,-0.2318125,-0.34178125,1.27775,0.01941533469689896,0.02027891857749728,True
37077,104882,1,104883,2895.0,36289.0,28319.0,0.002806,0.0018909999999999999,-0.000488,0.29750000000000004,-1.9600000000000002,-3.9025000000000003,1.0604375,0.24609375,0.14875,1.32075,1.022,-0.23371875,-0.34065625,1.27809375,0.01979937561171869,0.02010653472007354,True
37078,104883,1,104884,2894.0,36289.0,28319.0,0.004331,0.0017079999999999999,0.000122,0.35000000000000003,-1.7325000000000002,-3.9725000000000006,1.051625,0.245125,0.14765625000000002,1.32409375,1.020375,-0.23546875,-0.34128125,1.27778125,0.01983018174550472,0.020086761045086728,True
37079,104884,1,104885,2894.0,36288.0,28320.0,0.000549,0.0028669999999999998,0.002257,0.525,-1.4000000000000001,-3.99,1.04328125,0.24490625,0.1430625,1.319125,1.02228125,-0.23425,-0.3414375,1.27928125,0.01977186213726441,0.019904329807966355,True
37080,104885,1,104886,2894.0,36290.0,28320.0,-0.0035989999999999998,-0.002562,6.1e-05,0.29750000000000004,-1.5750000000000002,-4.0075,1.04153125,0.24284375,0.15453125,1.30128125,1.0226875,-0.23128125,-0.3415,1.281125,0.01956665003011345,0.020378006696382723,True
37081,104886,1,104887,2894.0,36289.0,28319.0,-0.0008539999999999999,-0.002989,-0.0006709999999999999,0.28,-1.9250000000000003,-3.9550000000000005,1.04246875,0.23640625,0.15359375,1.3055625,1.02165625,-0.231125,-0.34559375000000003,1.2749062500000001,0.019294657181620746,0.020504223685240786,True
37082,104887,1,104888,2895.0,36290.0,28320.0,0.002074,-0.000244,-0.002257,0.29750000000000004,-1.995,-3.9375000000000004,1.04890625,0.23328125,0.1458125,1.2981562500000001,1.0161875,-0.23128125,-0.34259375000000003,1.2829062500000001,0.019172015511973804,0.02006385412400846,True
37083,104888,1,104889,2894.0,36290.0,28319.0,0.002196,-0.000915,-0.0025009999999999998,0.29750000000000004,-2.0300000000000002,-3.8325000000000005,1.0425625,0.2369375,0.15328125,1.30478125,1.02021875,-0.231375,-0.3443125,1.28284375,0.019326699372198237,0.020439835793267937,True
37084,104889,1,104890,2895.0,36292.0,28320.0,-6.1e-05,-0.000732,-0.00122,0.3325,-1.6625,-3.8150000000000004,1.0595937500000001,0.24531250000000002,0.14878125,1.31640625,1.01728125,-0.23315625,-0.341125,1.2765,0.019744384308172814,0.020126688885579443,True
37085,104890,1,104891,2896.0,36292.0,28320.0,-0.0017079999999999999,-0.000244,0.0018909999999999999,0.35000000000000003,-1.8200000000000003,-3.9375000000000004,1.0388125,0.24440625,0.14678125,1.31403125,1.0245,-0.23175,-0.34146875,1.28240625,0.01965009749605373,0.02005836233690705,True
37086,104891,1,104892,2895.0,36290.0,28318.0,0.001952,0.001037,0.000122,0.3325,-1.9075000000000002,-3.8500000000000005,1.04553125,0.24756250000000002,0.14853125,1.31115625,1.02484375,-0.231125,-0.34209375000000003,1.28596875,0.01975506708830069,0.020155414938371932,True
37087,104892,1,104893,2896.0,36291.0,28321.0,0.005673,0.00061,-0.002074,0.29750000000000004,-1.9250000000000003,-3.9200000000000004,1.048375,0.243375,0.14746875,1.3151875,1.023125,-0.2315625,-0.33834375,1.28346875,0.019599953572948504,0.019960787183803334,True
37088,104893,1,104894,2896.0,36290.0,28321.0,0.0030499999999999998,6.1e-05,-0.003355,0.17500000000000002,-1.9250000000000003,-3.8500000000000005,1.0483125,0.243,0.15006250000000002,1.3089375,1.02403125,-0.2308125,-0.34559375000000003,1.277875,0.019554131748574257,0.02035917690444498,True
37089,104894,1,104895,2895.0,36290.0,28320.0,0.000305,0.000976,0.000122,0.31500000000000006,-1.8550000000000002,-3.6925000000000003,1.05465625,0.2444375,0.14609375,1.30875,1.01659375,-0.2336875,-0.34118750000000003,1.28321875,0.019729766672942368,0.020018795303228323,True
37090,104895,1,104896,2896.0,36292.0,28320.0,0.00122,-0.000366,0.001464,0.36750000000000005,-1.3650000000000002,-3.8850000000000002,1.0488125,0.2425,0.155375,1.313125,1.0110000000000001,-0.23575000000000002,-0.3410625,1.27559375,0.019733245309099163,0.02039506286958509,True
37091,104896,1,104897,2895.0,36293.0,28321.0,-0.000366,-0.000366,0.0,0.31500000000000006,-1.33,-3.8675,1.0479687500000001,0.2415,0.14746875,1.310625,1.02009375,-0.2313125,-0.34475,1.2822500000000001,0.019512459343669474,0.020218681645940092,True
37092,104897,1,104898,2896.0,36293.0,28322.0,-0.001769,0.0008539999999999999,-0.001647,0.35000000000000003,-1.1725,-3.7450000000000006,1.04903125,0.2436875,0.1473125,1.3006875,1.016375,-0.2335625,-0.34175,1.283125,0.01969376149297075,0.02009150944365134,True
37093,104898,1,104899,2895.0,36297.0,28322.0,-0.0032329999999999998,-0.001403,-0.0011589999999999999,0.3325,-1.0850000000000002,-3.6750000000000003,1.05715625,0.24465625,0.148875,1.30984375,1.01340625,-0.23446875,-0.341625,1.2830625,0.019770394182872277,0.02015066783750058,True
37094,104899,1,104900,2894.0,36297.0,28322.0,0.000549,0.0,0.001769,0.31500000000000006,-0.9800000000000001,-3.7450000000000006,1.05503125,0.24403125,0.149125,1.316375,1.015875,-0.23328125,-0.3379375,1.27428125,0.019696569155281025,0.020012480515244978,True
37095,104900,1,104901,2895.0,36295.0,28322.0,-0.00061,0.000183,0.00042699999999999997,0.43750000000000006,-0.77,-3.8850000000000002,1.0485,0.24096875,0.1485,1.31053125,1.02015625,-0.2303125,-0.3438125,1.27984375,0.019450068999316453,0.020223311365054265,True
37096,104901,1,104902,2895.0,36293.0,28321.0,-0.004148,0.0006709999999999999,-0.0028669999999999998,0.5425000000000001,-0.8225000000000001,-3.7800000000000002,1.05553125,0.24734375,0.15009375,1.3166875,1.0128125000000001,-0.234,-0.34121875,1.278125,0.019862331847817116,0.020184383742083582,True
37097,104902,1,104903,2894.0,36294.0,28323.0,-0.0059169999999999995,0.002196,-0.000549,0.5775,-0.9800000000000001,-3.6925000000000003,1.05084375,0.24415625,0.14971875,1.31721875,1.0215625,-0.23090625,-0.34090625,1.2775,0.01960564310301023,0.020156398244210814,True
37098,104903,1,104904,2897.0,36295.0,28323.0,-0.004026,-6.1e-05,0.001281,0.56,-1.2425000000000002,-3.7625,1.04271875,0.24325,0.14765625000000002,1.31628125,1.021375,-0.23209375000000002,-0.34209375000000003,1.28328125,0.01961628883183072,0.020119468975424517,True
37099,104904,1,104905,2899.0,36299.0,28326.0,0.0048189999999999995,-0.000122,-0.000244,0.31500000000000006,-1.7500000000000002,-3.6225000000000005,1.04553125,0.24290625000000002,0.14721875,1.3094375,1.02296875,-0.231125,-0.3423125,1.28190625,0.01956290721128301,0.02011030176364715,True
37100,104905,1,104906,2898.0,36298.0,28323.0,0.004941,0.000549,0.000305,0.42000000000000004,-1.9075000000000002,-3.5700000000000003,1.05375,0.24431250000000002,0.14878125,1.31471875,1.01621875,-0.23403125,-0.3418125,1.281,0.01973851337672101,0.020154364018702388,True
37101,104906,1,104907,2898.0,36298.0,28323.0,0.0021349999999999997,0.00042699999999999997,-0.001769,0.42000000000000004,-1.8550000000000002,-3.5175000000000005,1.0489375,0.24421875,0.1496875,1.31484375,1.02028125,-0.23209375000000002,-0.34215625,1.2714375,0.019656266805256974,0.020205430650787153,True
37102,104907,1,104908,2898.0,36298.0,28323.0,0.001952,0.00061,-0.0023179999999999997,0.385,-1.6800000000000002,-3.5700000000000003,1.05140625,0.2434375,0.14896875,1.31003125,1.021375,-0.2308125,-0.3430625,1.28440625,0.01957218727188781,0.02021238083745626,True
37103,104908,1,104909,2899.0,36298.0,28324.0,0.0023179999999999997,-0.000793,-0.000732,0.24500000000000002,-1.5050000000000001,-3.6925000000000003,1.05334375,0.24253125,0.15015625,1.3119375,1.00953125,-0.23525000000000001,-0.341375,1.277125,0.019714310766342415,0.020193240932363105,True
37104,104909,1,104910,2900.0,36299.0,28325.0,0.000366,-0.001403,0.00042699999999999997,0.47250000000000003,-0.9625000000000001,-3.6750000000000003,1.0515,0.243125,0.149125,1.3120625000000001,1.0205,-0.23403125,-0.34153125,1.2790625,0.01968951203692122,0.02015716451692003,True
37105,104910,1,104911,2901.0,36301.0,28327.0,-0.001281,0.000122,0.0008539999999999999,0.43750000000000006,-0.665,-3.7975000000000003,1.04859375,0.2439375,0.14775,1.31028125,1.025625,-0.23184375000000002,-0.34509375000000003,1.2785312500000001,0.019634545968050823,0.020244068684270318,True
37106,104911,1,104912,2901.0,36302.0,28328.0,-0.0040869999999999995,0.00061,0.000976,0.43750000000000006,-0.7000000000000001,-3.6925000000000003,1.0518750000000001,0.24381250000000002,0.1491875,1.310875,1.02128125,-0.23078125,-0.34271875,1.2878125,0.01958639901468303,0.020207531256137938,True
37107,104912,1,104913,2902.0,36301.0,28328.0,-0.0051849999999999995,0.001403,0.003355,0.49000000000000005,-0.77,-3.5875000000000004,1.049375,0.24184375,0.14996875,1.3110625,1.01621875,-0.234125,-0.33775,1.275375,0.019640434717572843,0.020039598976898026,True
37108,104913,1,104914,2902.0,36303.0,28326.0,-0.005124,0.000366,0.0017079999999999999,0.49000000000000005,-1.0150000000000001,-3.6225000000000005,1.05725,0.243375,0.14715625000000002,1.31509375,1.0141875,-0.2325,-0.34096875,1.2868125000000001,0.019637883008356546,0.02005363899084748,True
37109,104914,1,104915,2903.0,36302.0,28329.0,-0.0013419999999999999,-0.0021349999999999997,-0.006588,0.3325,-1.5750000000000002,-3.5700000000000003,1.04928125,0.23709375,0.14915625,1.31790625,1.013875,-0.23175,-0.3434375,1.268125,0.019348323996409667,0.020235176318052862,True
37110,104915,1,104916,2904.0,36305.0,28330.0,6.1e-05,-0.000244,0.003538,0.43750000000000006,-1.9775000000000003,-3.5525,1.04384375,0.24915625,0.14075000000000001,1.30390625,1.02846875,-0.22996875,-0.34003125,1.2886875,0.01977406594880565,0.019752696496640697,True
37111,104916,1,104917,2904.0,36306.0,28328.0,0.00244,0.002928,0.004392,0.385,-2.4675000000000002,-3.7275000000000005,1.06334375,0.23753125,0.153625,1.3233125000000001,1.010875,-0.23290625,-0.34365625,1.27559375,0.01941316881874208,0.020427549785172472,True
37112,104917,1,104918,2906.0,36306.0,28330.0,0.00732,0.001037,0.001403,0.42000000000000004,-2.3800000000000003,-3.8325000000000005,1.03678125,0.23846875,0.1549375,1.3246875,1.0270625,-0.2249375,-0.3435625,1.2756875,0.019129306319159753,0.020477693024593256,True
37113,104918,1,104919,2906.0,36306.0,28330.0,0.0070149999999999995,-0.0023179999999999997,-0.002196,0.36750000000000005,-2.2925000000000004,-3.7450000000000006,1.039625,0.23990625000000002,0.14715625000000002,1.29459375,1.02565625,-0.23071875,-0.34278125,1.28740625,0.01942265951149303,0.020126603240950537,True
37114,104919,1,104920,2906.0,36308.0,28332.0,-0.000732,0.00244,-0.005307,0.42000000000000004,-2.0125,-3.5700000000000003,1.05675,0.24728125,0.14434375,1.31990625,1.01365625,-0.23428125,-0.34015625,1.2770000000000001,0.019871127805781326,0.019905377558946443,True
37115,104920,1,104921,2907.0,36305.0,28332.0,0.001403,0.000122,0.001464,0.36750000000000005,-1.9600000000000002,-3.6575,1.0361875,0.239375,0.153,1.29375,1.02725,-0.22993750000000002,-0.34228125,1.28515625,0.019369117233587585,0.02034654208918895,True
37116,104921,1,104922,2906.0,36309.0,28332.0,0.0046359999999999995,-0.0006709999999999999,0.008905999999999999,0.385,-1.9250000000000003,-3.8325000000000005,1.04853125,0.2444375,0.1608125,1.30675,1.01459375,-0.23140625,-0.33853125,1.276375,0.019637479768637035,0.02051659341604683,True
37117,104922,1,104923,2908.0,36307.0,28334.0,0.0046359999999999995,0.0,0.00183,0.29750000000000004,-1.4875,-3.8150000000000004,1.07225,0.2480625,0.14715625000000002,1.32925,1.0130937500000001,-0.234125,-0.33978125000000003,1.27596875,0.01989704600434305,0.02000582893488412,True
37118,104923,1,104924,2909.0,36309.0,28336.0,-0.000549,-0.000549,-0.003172,0.28,-1.0325000000000002,-3.6400000000000006,1.03709375,0.245375,0.13978125,1.2998125,1.01984375,-0.23093750000000002,-0.34125,1.2824375000000001,0.019657204761474874,0.019761978123555693,True
37119,104924,1,104925,2909.0,36310.0,28335.0,-0.009516,-0.000793,0.0,0.42000000000000004,-0.5775,-3.535,1.04821875,0.23496875,0.15459375,1.3219687500000001,1.0153125,-0.2320625,-0.343375,1.2783437500000001,0.019273276882642573,0.020456027563967607,True
37120,104925,1,104926,2909.0,36310.0,28336.0,-0.00488,-0.00042699999999999997,0.0015249999999999999,0.4025,-0.5775,-3.7975000000000003,1.0379375,0.2415,0.15375,1.3033125,1.0109062500000001,-0.231625,-0.34240625,1.282875,0.019525104073705335,0.02038238310972236,True
37121,104926,1,104927,2911.0,36313.0,28338.0,-0.0034159999999999998,-0.001769,0.001098,0.4025,-0.6125,-3.7975000000000003,1.0519687500000001,0.24553125,0.15053125,1.3156875000000001,1.01603125,-0.233125,-0.34159375000000003,1.28378125,0.019752147112681504,0.020217451866725036,True
37122,104927,1,104928,2912.0,36312.0,28336.0,-0.003721,-0.000122,-6.1e-05,0.43750000000000006,-0.7875000000000001,-3.6225000000000005,1.0485625,0.24009375,0.15021875,1.3155000000000001,1.01659375,-0.23484375000000002,-0.34071875,1.27803125,0.019597299858803506,0.020169392080913798,True
37123,104928,1,104929,2911.0,36313.0,28337.0,-0.005307,0.002013,-0.000976,0.4025,-1.2600000000000002,-3.6575,1.0499687500000001,0.24371875,0.1470625,1.3105,1.0238125,-0.231625,-0.34071875,1.28109375,0.019616668300206856,0.02003972253284427,True
37124,104929,1,104930,2913.0,36314.0,28338.0,0.0053679999999999995,-0.00061,0.003355,0.3325,-2.66,-3.5700000000000003,1.04865625,0.24025,0.15106250000000002,1.31575,1.015875,-0.23203125,-0.33715625,1.2784375000000001,0.019489957120288875,0.020060632597532838,True
37125,104930,1,104931,2913.0,36315.0,28339.0,0.011101999999999999,0.000366,-0.000915,0.35000000000000003,-2.9925,-3.7100000000000004,1.05453125,0.2485625,0.1470625,1.3106875,1.0245,-0.231625,-0.34503125,1.28240625,0.019816562034118634,0.020213313548324157,True
37126,104931,1,104932,2914.0,36314.0,28338.0,0.010126,0.000793,-0.004148,0.29750000000000004,-2.9925,-3.8675,1.04871875,0.24365625000000002,0.15003125,1.31475,1.01646875,-0.235875,-0.34109375000000003,1.2774375,0.019786009376595647,0.020176784373134426,True
37127,104932,1,104933,2914.0,36317.0,28338.0,0.006344,0.001952,-0.0035989999999999998,0.3325,-2.7125000000000004,-3.7625,1.05490625,0.245125,0.1469375,1.31078125,1.02375,-0.23146875,-0.34268750000000003,1.28565625,0.01966838060528213,0.02011384322293913,True
37128,104933,1,104934,2914.0,36317.0,28338.0,0.002074,0.0011589999999999999,-0.001098,0.2625,-2.1700000000000004,-3.7450000000000006,1.0479687500000001,0.2419375,0.15056250000000002,1.3144375,1.0161875,-0.23559375000000002,-0.3405625,1.26784375,0.01970371573834456,0.020177224745730506,True
37129,104934,1,104935,2915.0,36317.0,28340.0,-0.000122,-0.002379,0.001952,0.3325,-1.12,-3.7625,1.04828125,0.24365625000000002,0.15165625,1.30928125,1.021625,-0.2323125,-0.3440625,1.27846875,0.019641903759701023,0.02036302486489262,True
37130,104935,1,104936,2916.0,36315.0,28340.0,-0.004514,-0.002196,0.000366,0.43750000000000006,-0.56,-3.7100000000000004,1.048375,0.24225,0.15046875,1.3018125,1.015625,-0.2358125,-0.33721875,1.2781875,0.01972545793544161,0.02003875237387181,True
37131,104936,1,104937,2917.0,36317.0,28341.0,-0.009028,-0.00122,-0.000488,0.3325,-0.3325,-3.6575,1.04334375,0.24456250000000002,0.14884375,1.31496875,1.02265625,-0.232625,-0.34178125,1.2805312500000001,0.019691944228080946,0.020155673693764708,True
37132,104937,1,104938,2917.0,36316.0,28344.0,-0.010126,-0.0013419999999999999,0.0006709999999999999,0.385,-0.43750000000000006,-3.5875000000000004,1.0489375,0.24371875,0.1465625,1.31409375,1.0205625,-0.23128125,-0.3423125,1.28415625,0.019602760378178517,0.02008334253370546,True
37133,104938,1,104939,2917.0,36319.0,28342.0,-0.006344,-0.001952,0.000183,0.47250000000000003,-0.8400000000000001,-3.6225000000000005,1.0483437500000001,0.24090625000000002,0.150375,1.30890625,1.0164375,-0.2334375,-0.34253125,1.2785312500000001,0.019573935806672084,0.020248767268194426,True
37134,104939,1,104940,2917.0,36318.0,28344.0,0.002806,0.000305,0.000976,0.3325,-2.0650000000000004,-3.7275000000000005,1.05546875,0.24396875,0.14603125,1.30534375,1.0223125,-0.23175,-0.3385625,1.28321875,0.0196320426712887,0.019910532924859472,True
37135,104940,1,104941,2918.0,36319.0,28344.0,0.005978,0.0042699999999999995,0.000244,0.36750000000000005,-2.4675000000000002,-3.6050000000000004,1.0486875,0.24965625,0.14996875,1.3100625000000001,1.0165625,-0.232375,-0.3423125,1.278875,0.019892034932605655,0.02022327377483138,True
37136,104941,1,104942,2918.0,36319.0,28346.0,0.007869,0.003538,0.000122,0.31500000000000006,-2.5200000000000005,-3.6750000000000003,1.05678125,0.2444375,0.14725,1.31275,1.021125,-0.23018750000000002,-0.3420625,1.283125,0.01958816868420849,0.02010152179997073,True
37137,104942,1,104943,2918.0,36320.0,28344.0,0.0075639999999999995,0.0006709999999999999,-0.000549,0.10500000000000001,-2.3975000000000004,-3.6575,1.048625,0.24075,0.15,1.31478125,1.01578125,-0.23384375000000002,-0.34075,1.27325,0.019583923825538408,0.02016166305475386,True
37138,104943,1,104944,2920.0,36317.0,28346.0,0.003538,-0.0025009999999999998,-0.0021349999999999997,0.22750000000000004,-2.1175,-3.7975000000000003,1.0548125,0.24309375,0.1486875,1.31009375,1.0210625,-0.2324375,-0.33978125000000003,1.282375,0.019623748126865074,0.02006874034662904,True
37139,104944,1,104945,2921.0,36322.0,28347.0,-0.003538,-0.000244,0.00244,0.22750000000000004,-1.3125000000000002,-3.7100000000000004,1.0401875,0.240375,0.1495,1.31278125,1.01703125,-0.2339375,-0.340625,1.2778125,0.01957224243893507,0.020136089356785212,True
37140,104945,1,104946,2919.0,36323.0,28348.0,-0.004697,0.0030499999999999998,0.001647,0.24500000000000002,-1.1375000000000002,-3.8150000000000004,1.0519687500000001,0.24340625000000002,0.14865625,1.311,1.025625,-0.23168750000000002,-0.34159375000000003,1.27465625,0.01960630063424184,0.020140423221055522,True
37141,104946,1,104947,2920.0,36322.0,28346.0,-0.0046359999999999995,-0.000915,-0.000732,0.29750000000000004,-1.0675000000000001,-3.7100000000000004,1.04903125,0.2405,0.14990625,1.31775,1.01721875,-0.236125,-0.34065625,1.28028125,0.019665891308944805,0.02015403754777565,True
37142,104947,1,104948,2923.0,36322.0,28347.0,-0.004331,-0.0032329999999999998,6.1e-05,0.35000000000000003,-1.225,-3.6400000000000006,1.0495625,0.2445,0.1466875,1.31353125,1.0081875,-0.23178125,-0.344875,1.28709375,0.019655230669433348,0.02019162143983077,True
37143,104948,1,104949,2923.0,36324.0,28348.0,-0.002257,-0.0025009999999999998,-0.0008539999999999999,0.31500000000000006,-1.61,-3.6225000000000005,1.042,0.2400625,0.1476875,1.310125,1.01221875,-0.23359375000000002,-0.3441875,1.27265625,0.019545439891679294,0.020205028407705123,True
37144,104949,1,104950,2923.0,36323.0,28350.0,0.004941,0.001586,-0.0008539999999999999,0.29750000000000004,-2.1700000000000004,-3.5700000000000003,1.04953125,0.2415,0.14956250000000001,1.31459375,1.01571875,-0.2370625,-0.3394375,1.28875,0.01974507017919354,0.020090850497263956,True
37145,104950,1,104951,2925.0,36323.0,28349.0,0.006344,0.000732,-0.001952,0.4025,-2.1,-3.6750000000000003,1.04909375,0.2471875,0.14959375,1.314,1.0100625,-0.23900000000000002,-0.34018750000000003,1.29096875,0.020058067577045258,0.020122328556425463,True
37146,104951,1,104952,2924.0,36322.0,28351.0,0.0057339999999999995,0.001952,-0.0015249999999999999,0.2625,-2.0125,-3.7625,1.0482500000000001,0.24090625000000002,0.15040625,1.30465625,1.0105,-0.234,-0.34325,1.2727187500000001,0.019596692663200462,0.020278978772349625,True
37147,104952,1,104953,2926.0,36323.0,28350.0,0.002074,0.000976,-0.0013419999999999999,0.31500000000000006,-1.6975000000000002,-3.6750000000000003,1.05453125,0.24171875,0.15056250000000002,1.31009375,1.0314375,-0.23578125,-0.3380625,1.2745625,0.019702273884816487,0.02007657758295263,True
37148,104953,1,104954,2926.0,36324.0,28350.0,0.0006709999999999999,-0.000183,-0.000366,0.29750000000000004,-1.155,-3.6225000000000005,1.054875,0.24359375,0.1491875,1.30971875,1.032125,-0.229625,-0.349125,1.2810625,0.019530584976036568,0.020465314462018658,True
37149,104954,1,104955,2927.0,36326.0,28352.0,-0.003904,-0.001952,0.0026839999999999998,0.36750000000000005,-0.6125,-3.7275000000000005,1.04903125,0.24196875,0.15015625,1.3050625,1.00959375,-0.24090625000000002,-0.33775,1.27325,0.01991984107442353,0.020047303058006595,True
37150,104955,1,104956,2927.0,36323.0,28351.0,-0.003904,-0.002379,0.0021349999999999997,0.35000000000000003,-0.385,-3.5700000000000003,1.0570625,0.2435,0.14575,1.310375,1.03309375,-0.22878125,-0.34746875,1.27590625,0.01949257146394848,0.02025749596659817,True
37151,104956,1,104957,2926.0,36323.0,28352.0,-0.0044529999999999995,-0.00061,0.002196,0.4025,-0.35000000000000003,-3.6050000000000004,1.05375,0.24215625000000002,0.15028125,1.31525,1.01696875,-0.23600000000000002,-0.33875,1.285375,0.019729173543489027,0.02009270196702789,True
37152,104957,1,104958,2926.0,36324.0,28350.0,-0.006588,0.001586,0.001464,0.385,-0.6300000000000001,-3.5875000000000004,1.04859375,0.2405,0.15065625,1.31246875,1.0090937500000001,-0.236875,-0.34184375,1.2745312500000001,0.019696227339539442,0.020232649796710654,True
37153,104958,1,104959,2925.0,36324.0,28349.0,-0.004758,0.000976,0.000549,0.3325,-1.05,-3.6575,1.05084375,0.2434375,0.14921875,1.3096875000000001,1.01990625,-0.23121875,-0.34318750000000003,1.28296875,0.019588624695156945,0.020227681769283502,True
37154,104959,1,104960,2924.0,36321.0,28347.0,0.0046359999999999995,0.000366,-0.0023179999999999997,0.4025,-2.0825,-3.6225000000000005,1.04903125,0.24334375,0.15778125,1.30990625,1.01665625,-0.2355625,-0.3375625,1.2776875,0.01976047595346714,0.02035305507690016,True
37155,104960,1,104961,2922.0,36321.0,28344.0,0.005978,0.00183,-0.002013,0.2625,-2.345,-3.6750000000000003,1.0537812500000001,0.244375,0.14975,1.31040625,1.02278125,-0.2331875,-0.34209375000000003,1.27984375,0.0197069617853615,0.020205482529620115,True
37156,104961,1,104962,2920.0,36322.0,28344.0,0.005246,-0.00061,0.0023179999999999997,0.1925,-2.415,-3.6225000000000005,1.04865625,0.2436875,0.14821875,1.31009375,1.0199375,-0.231375,-0.34065625,1.28578125,0.019605263836658053,0.020084709096534734,True
37157,104962,1,104963,2919.0,36319.0,28342.0,0.0057339999999999995,-0.0011589999999999999,-0.000976,0.21000000000000002,-2.2225,-3.6575,1.0488125,0.24231250000000001,0.14934375,1.3164375,1.00465625,-0.23496875,-0.341125,1.2843437500000001,0.019693908208567423,0.020149797924294787,True
37158,104963,1,104964,2917.0,36318.0,28339.0,-0.0026839999999999998,0.000549,0.001037,0.24500000000000002,-1.8375000000000001,-3.7450000000000006,1.04153125,0.24434375,0.14965625,1.31509375,1.005875,-0.23284375000000002,-0.3374375,1.2773125,0.019691766468803315,0.020014175691257553,True
37159,104964,1,104965,2915.0,36317.0,28337.0,-0.005063,0.000305,0.0018909999999999999,0.43750000000000006,-1.2950000000000002,-3.7975000000000003,1.04840625,0.2499375,0.14834375,1.3045,1.02146875,-0.22915625,-0.34471875,1.27796875,0.01977343928350786,0.02025336604063253,True
37160,104965,1,104966,2912.0,36317.0,28335.0,-0.0046359999999999995,0.00042699999999999997,0.000732,0.385,-1.2075,-3.7625,1.0489375,0.24271875,0.1499375,1.3105625,1.01640625,-0.23509375000000002,-0.34400000000000003,1.27190625,0.019715727322078134,0.020289907163982913,True
37161,104966,1,104967,2911.0,36315.0,28334.0,-0.0023179999999999997,0.000732,0.000915,0.29750000000000004,-1.2075,-3.7800000000000002,1.05146875,0.24478125,0.14690625000000002,1.316875,1.0230625,-0.23321875,-0.341625,1.2862500000000001,0.01972499010268704,0.02006978786338217,True
37162,104967,1,104968,2910.0,36315.0,28332.0,0.000244,6.1e-05,0.000976,0.29750000000000004,-1.1900000000000002,-3.8500000000000005,1.04940625,0.23871875,0.15053125,1.312625,1.0125625,-0.23240625,-0.34534375,1.2714375,0.019441940480013204,0.020368371261958458,True
37163,104968,1,104969,2908.0,36314.0,28328.0,0.0,-0.0021349999999999997,-0.0017079999999999999,0.21000000000000002,-1.6975000000000002,-3.7975000000000003,1.0499687500000001,0.24434375,0.14671875,1.30828125,1.02525,-0.230125,-0.34268750000000003,1.2846875,0.01958177062644126,0.020104856951394544,True
37164,104969,1,104970,2906.0,36315.0,28328.0,0.0028669999999999998,-0.0008539999999999999,-0.00061,0.29750000000000004,-1.9775000000000003,-3.7975000000000003,1.04771875,0.2416875,0.15015625,1.32025,1.0164375,-0.2351875,-0.341375,1.27846875,0.01967696763229086,0.020193240932363105,True
37165,104970,1,104971,2903.0,36311.0,28325.0,0.004026,-0.000244,-0.001952,0.21000000000000002,-2.1525000000000003,-3.9025000000000003,1.0366875,0.23765625,0.1521875,1.30190625,1.0184375,-0.23115625,-0.344625,1.27859375,0.019347508437613247,0.020407482144415862,True
37166,104971,1,104972,2903.0,36311.0,28324.0,0.005429,-0.001037,0.000732,0.1925,-2.0300000000000002,-3.8325000000000005,1.0593125,0.244375,0.1466875,1.30715625,1.0189062500000001,-0.23440625,-0.34178125,1.2786250000000001,0.019756260791410973,0.02006709143358192,True
37167,104972,1,104973,2903.0,36312.0,28325.0,0.0032329999999999998,-0.000366,0.000549,0.2625,-1.7675,-3.9025000000000003,1.0455625,0.23815625,0.15246875000000001,1.2974375,1.01621875,-0.23146875,-0.34165625,1.278,0.01938078970140842,0.020299563633842707,True
37168,104973,1,104974,2902.0,36311.0,28322.0,-0.003538,0.001098,-0.00183,0.28,-1.3825,-3.7800000000000002,1.0595937500000001,0.24484375,0.148375,1.3211875,1.0156875,-0.233,-0.34059375000000003,1.2801875,0.01971872034003219,0.020088612259099064,True
37169,104974,1,104975,2900.0,36312.0,28324.0,-0.002379,-0.000244,0.000732,0.24500000000000002,-1.0675000000000001,-3.8150000000000004,1.04509375,0.2424375,0.147125,1.30321875,1.02015625,-0.23171875,-0.343875,1.27878125,0.019567586389223835,0.02016934444495792,True
37170,104975,1,104976,2900.0,36312.0,28324.0,-0.003172,0.002196,0.0026839999999999998,0.2625,-0.9450000000000001,-3.8850000000000002,1.0594375,0.244875,0.15009375,1.32025,1.0163125,-0.228125,-0.34121875,1.27859375,0.019522765381142785,0.020184383742083582,True
37171,104976,1,104977,2899.0,36310.0,28321.0,-0.0034159999999999998,0.001952,0.003477,0.3325,-0.9800000000000001,-3.9200000000000004,1.0464375000000001,0.24409375,0.14725,1.308,1.01046875,-0.23040625,-0.34165625,1.28059375,0.019582833036486957,0.020085167787216616,True
37172,104977,1,104978,2899.0,36313.0,28322.0,-0.003355,-0.000183,0.002257,0.3325,-1.1025,-3.7100000000000004,1.0470625,0.24128125,0.15171875,1.30346875,1.01703125,-0.2320625,-0.3430625,1.28,0.019533778851882705,0.020325349368018098,True
37173,104978,1,104979,2898.0,36311.0,28322.0,0.0015249999999999999,-0.001281,-0.002196,0.24500000000000002,-1.8550000000000002,-3.5000000000000004,1.04934375,0.243,0.1511875,1.29965625,1.0205,-0.23103125,-0.34203125,1.27846875,0.019562982900284114,0.020262021066955946,True
37174,104979,1,104980,2898.0,36311.0,28323.0,0.003721,-0.000305,-0.003111,0.3325,-2.1525000000000003,-3.5875000000000004,1.0539375,0.24384375,0.14721875,1.3063125,1.02015625,-0.23125,-0.34096875,1.281375,0.019606654629868454,0.020056206678298293,True
37175,104980,1,104981,2899.0,36312.0,28321.0,0.004331,6.1e-05,-0.001464,0.4025,-2.2925000000000004,-3.6750000000000003,1.05546875,0.24421875,0.14828125,1.3099375,1.016875,-0.23215625,-0.34228125,1.27865625,0.01965879532491047,0.020152692139320347,True
37176,104981,1,104982,2898.0,36312.0,28324.0,0.002928,0.001098,0.001037,0.2625,-2.3275,-3.6750000000000003,1.054875,0.2439375,0.14596875,1.311,1.0196875,-0.22993750000000002,-0.34165625,1.28534375,0.01955741734785738,0.020032531681158712,True
37177,104982,1,104983,2899.0,36312.0,28323.0,0.001464,0.000366,0.002196,0.29750000000000004,-2.1525000000000003,-3.6750000000000003,1.04946875,0.2409375,0.14990625,1.312625,1.0166875,-0.2425,-0.34096875,1.2940625000000001,0.019941734557079507,0.020166617238683238,True
37178,104983,1,104984,2898.0,36310.0,28322.0,-0.00183,0.000793,-0.0006709999999999999,0.22750000000000004,-1.61,-3.6575,1.0501875,0.24365625000000002,0.15040625,1.31540625,1.00815625,-0.24265625000000002,-0.33618750000000003,1.295875,0.02006019864263018,0.019994658160815044,True
37179,104984,1,104985,2898.0,36312.0,28323.0,-0.002013,-0.0008539999999999999,0.0013419999999999999,0.17500000000000002,-1.2775,-3.6750000000000003,1.048875,0.2414375,0.15321875000000001,1.3129375,1.00459375,-0.2416875,-0.33434375,1.28890625,0.019929511920323204,0.020035983094880052,True
37180,104985,1,104986,2900.0,36310.0,28320.0,-0.002745,-0.001647,0.000549,0.3325,-1.4525000000000001,-3.7975000000000003,1.05546875,0.24409375,0.14975,1.31590625,1.031,-0.22084375,-0.344625,1.29146875,0.019195759850438737,0.02030735737354755,True
37181,104986,1,104987,2898.0,36311.0,28319.0,-0.001281,-0.0017079999999999999,0.000305,0.29750000000000004,-1.61,-3.7275000000000005,1.04890625,0.243625,0.14609375,1.31034375,1.005125,-0.22575,-0.35446875,1.2683125,0.019375045148241024,0.02055320956241347,True
37182,104987,1,104988,2900.0,36313.0,28323.0,0.000915,-0.000305,-0.000732,0.29750000000000004,-1.7325000000000002,-3.6750000000000003,1.0481875,0.24256250000000001,0.15084375,1.31009375,1.01240625,-0.24034375,-0.33415625,1.26846875,0.01992159248979297,0.019930832818581906,True
37183,104988,1,104989,2900.0,36312.0,28324.0,0.003721,0.0008539999999999999,-0.001952,0.28,-1.7850000000000001,-3.6575,1.05559375,0.24271875,0.15021875,1.316375,1.0310625,-0.23259375000000002,-0.334,1.2815,0.019614594496307272,0.019898855510807924,True
37184,104989,1,104990,2900.0,36314.0,28322.0,0.00061,0.001098,-0.000976,0.35000000000000003,-1.5925000000000002,-3.6925000000000003,1.05028125,0.24425,0.14684375,1.31040625,1.02625,-0.227625,-0.3476875,1.2690937500000001,0.019476733687268148,0.02031122052145609,True
37185,104990,1,104991,2898.0,36313.0,28322.0,0.0,0.001586,0.000976,0.28,-1.435,-3.6575,1.04171875,0.24178125,0.14928125,1.3059375,1.00165625,-0.24196875,-0.33465625,1.27475,0.01995506243691532,0.019886761293371465,True
37186,104991,1,104992,2901.0,36313.0,28321.0,-0.001586,-0.00042699999999999997,0.001098,0.45500000000000007,-1.3125000000000002,-3.6225000000000005,1.05121875,0.2439375,0.15156250000000002,1.31125,1.037125,-0.2275625,-0.34390625,1.2866875,0.019461305692638292,0.020352886053362943,True
37187,104992,1,104993,2901.0,36313.0,28322.0,-0.0006709999999999999,-0.001281,-0.000549,0.45500000000000007,-1.2950000000000002,-3.7450000000000006,1.049125,0.2418125,0.15006250000000002,1.3109375,1.0036875,-0.23328125,-0.34284375,1.2724375,0.019605011186836285,0.020248507325689915,True
37188,104993,1,104994,2899.0,36313.0,28322.0,-0.00244,0.001037,-0.000122,0.45500000000000007,-1.155,-3.7975000000000003,1.05609375,0.243875,0.15378125,1.3158125,1.01278125,-0.23265625,-0.33925,1.27825,0.019664837609372682,0.020256632805037134,True
37189,104994,1,104995,2899.0,36312.0,28320.0,-0.003111,0.0011589999999999999,0.0,0.5425000000000001,-1.1375000000000002,-3.7975000000000003,1.04940625,0.24353125,0.15009375,1.30828125,1.0249062500000001,-0.2315,-0.34228125,1.2798125,0.01960387305779667,0.02022715106046193,True
37190,104995,1,104996,2899.0,36314.0,28323.0,-0.001464,-0.000915,0.001037,0.56,-1.2425000000000002,-3.7100000000000004,1.0521875,0.2444375,0.15340625,1.31328125,1.015875,-0.23421875,-0.3375,1.28490625,0.01975125564961734,0.020170775552131485,True
37191,104996,1,104997,2900.0,36315.0,28322.0,0.00122,0.000244,6.1e-05,0.42000000000000004,-1.3475000000000001,-3.6050000000000004,1.04875,0.24084375,0.150625,1.309125,1.01665625,-0.227875,-0.34500000000000003,1.27821875,0.019346259215882528,0.020358389813103308,True
37192,104997,1,104998,2902.0,36315.0,28320.0,0.000915,0.000305,0.000488,0.29750000000000004,-1.3825,-3.6400000000000006,1.04846875,0.24446875,0.1501875,1.30871875,1.0153125,-0.231375,-0.3440625,1.27815625,0.019637505094118678,0.020302691878153038,True
37193,104998,1,104999,2900.0,36314.0,28323.0,0.002379,-0.00042699999999999997,0.000305,0.42000000000000004,-1.4700000000000002,-3.6225000000000005,1.05253125,0.243875,0.14825,1.31096875,1.0203125,-0.23043750000000002,-0.34178125,1.28596875,0.01957506957932559,0.020131281477192634,True
37194,104999,1,105000,2899.0,36318.0,28321.0,0.002745,0.000183,-0.0006709999999999999,0.3325,-1.4700000000000002,-3.7450000000000006,1.05209375,0.24484375,0.14856250000000001,1.31046875,1.016,-0.23309375000000002,-0.341625,1.28371875,0.019722512731169543,0.02013782974637067,True
37195,105000,1,105001,2900.0,36316.0,28324.0,0.001952,-0.000915,-0.000366,0.35000000000000003,-1.5050000000000001,-3.535,1.05409375,0.24481250000000002,0.14828125,1.302875,1.016875,-0.228375,-0.34168750000000003,1.283,0.019530302795792123,0.020128791399528077,True
37196,105001,1,105002,2900.0,36316.0,28324.0,0.000488,0.0017079999999999999,-0.000366,0.29750000000000004,-1.3650000000000002,-3.535,1.0489375,0.24421875,0.15196875,1.31115625,1.00971875,-0.2335625,-0.34065625,1.280375,0.019715683569017144,0.020238772321514546,True
37197,105002,1,105003,2901.0,36315.0,28322.0,-0.0006709999999999999,6.1e-05,-6.1e-05,0.31500000000000006,-1.1725,-3.3775000000000004,1.04896875,0.241,0.15165625,1.3285,1.01915625,-0.22453125000000002,-0.34478125,1.27359375,0.01921734811690113,0.020391947452803667,True
37198,105003,1,105004,2900.0,36317.0,28323.0,-0.0013419999999999999,0.0013419999999999999,0.000976,0.2625,-0.8575,-3.6225000000000005,1.04334375,0.24165625000000002,0.1481875,1.30453125,1.016875,-0.230625,-0.34203125,1.28546875,0.019491088240604606,0.020138777448985488,True
37199,105004,1,105005,2901.0,36318.0,28323.0,-0.000549,0.000488,-0.000305,0.24500000000000002,-0.9800000000000001,-3.5525,1.0655937500000001,0.24575,0.14175000000000001,1.30621875,1.01625,-0.23346875,-0.34165625,1.2827187500000001,0.01977507862963283,0.019859217673407085,True
37200,105005,1,105006,2902.0,36316.0,28324.0,-0.0021349999999999997,-0.00042699999999999997,0.000915,0.42000000000000004,-1.12,-3.5000000000000004,1.04390625,0.240375,0.15059375,1.32078125,1.019375,-0.23178125,-0.34521875,1.27865625,0.019484999684040973,0.020365908603717106,True
37201,105006,1,105007,2902.0,36317.0,28326.0,-0.002928,-0.0006709999999999999,0.000305,0.43750000000000006,-1.1375000000000002,-3.6050000000000004,1.042125,0.2348125,0.15346875000000001,1.302875,1.02546875,-0.2260625,-0.34409375000000003,1.28428125,0.0190239334188129,0.02043873578165135,True
37202,105007,1,105008,2905.0,36320.0,28327.0,-0.0023179999999999997,-0.0013419999999999999,6.1e-05,0.36750000000000005,-1.4000000000000001,-3.5700000000000003,1.0655937500000001,0.24715625,0.14796875,1.31171875,1.01596875,-0.234875,-0.34134375,1.27734375,0.019889982927496018,0.020102115356716903,True
37203,105008,1,105009,2903.0,36320.0,28325.0,0.0011589999999999999,0.0006709999999999999,-0.001281,0.2625,-1.6275000000000002,-3.7275000000000005,1.05540625,0.24731250000000002,0.14671875,1.316,1.01646875,-0.2336875,-0.33959375,1.2783437500000001,0.019848403178426725,0.01998030472468342,True
37204,105009,1,105010,2904.0,36322.0,28326.0,0.002257,0.000183,-0.000305,0.31500000000000006,-1.7850000000000001,-3.8325000000000005,1.03384375,0.23865625000000001,0.1575,1.32425,1.0221875,-0.23140625,-0.34396875,1.2779375,0.019398894771119612,0.020599301418344124,True
37205,105010,1,105011,2907.0,36321.0,28326.0,0.002074,0.000366,-0.0008539999999999999,0.3325,-1.7500000000000002,-3.7975000000000003,1.04240625,0.24328125,0.15234375,1.32125,1.02159375,-0.23159375000000001,-0.34315625,1.27809375,0.01959734901877843,0.020354796843568713,True
37206,105011,1,105012,2905.0,36321.0,28326.0,0.001098,0.0008539999999999999,0.000183,0.35000000000000003,-1.7675,-3.6925000000000003,1.0421562500000001,0.2465,0.14934375,1.31253125,1.0225312500000001,-0.23171875,-0.34209375000000003,1.2851875,0.019735238549679852,0.020188793332537387,True
37207,105012,1,105013,2906.0,36322.0,28326.0,0.001037,0.000732,-0.0008539999999999999,0.36750000000000005,-1.6800000000000002,-3.6575,1.04178125,0.23934375,0.1530625,1.310875,1.0224375,-0.23184375000000002,-0.34075,1.27765625,0.019444971041462745,0.020287480870556575,True
37208,105013,1,105014,2907.0,36320.0,28325.0,-0.000549,0.000793,0.000122,0.12250000000000001,-1.5050000000000001,-3.7975000000000003,1.0508125,0.24503125,0.14678125,1.3141875,1.01553125,-0.23340625,-0.34159375000000003,1.282375,0.019742891076239024,0.020063394575386008,True
37209,105014,1,105015,2907.0,36322.0,28327.0,-6.1e-05,-0.000183,0.001037,0.24500000000000002,-1.3475000000000001,-3.6575,1.04859375,0.2410625,0.15653125,1.3154375,1.0141875,-0.2320625,-0.3423125,1.27859375,0.01952475155591894,0.02049286607424829,True
37210,105015,1,105016,2908.0,36323.0,28329.0,-0.002989,0.0,0.00042699999999999997,0.2625,-1.4175000000000002,-3.5175000000000005,1.0485,0.243375,0.14809375,1.30259375,1.02153125,-0.2298125,-0.34184375,1.283875,0.01952914410707883,0.020127378395484116,True
37211,105016,1,105017,2909.0,36321.0,28329.0,-0.002806,-0.0006709999999999999,-0.00042699999999999997,0.22750000000000004,-1.3825,-3.5000000000000004,1.0563125,0.2483125,0.14965625,1.3175000000000001,1.01675,-0.23421875,-0.3410625,1.2781875,0.019911153521299296,0.020160120372724074,True
37212,105017,1,105018,2909.0,36321.0,28330.0,-0.000793,-0.001037,0.001098,0.21000000000000002,-1.5925000000000002,-3.4475000000000002,1.049125,0.24315625000000002,0.147875,1.31453125,1.0215625,-0.23109375000000001,-0.342375,1.282375,0.01957196009775663,0.020139776829499995,True
37213,105018,1,105019,2910.0,36325.0,28330.0,0.001586,-0.001098,-0.000183,0.24500000000000002,-2.0125,-3.6050000000000004,1.0491875,0.24365625000000002,0.15209375,1.30584375,1.00925,-0.2235,-0.338625,1.284875,0.01928524986067249,0.02016213939776795,True
37214,105019,1,105020,2910.0,36325.0,28331.0,0.001586,-0.000793,-0.000915,0.17500000000000002,-2.1525000000000003,-3.6575,1.0496875,0.243875,0.149,1.31703125,1.0224375,-0.23143750000000002,-0.34171875,1.278375,0.01961553044469607,0.02015957685814606,True
37215,105020,1,105021,2910.0,36323.0,28332.0,0.0021349999999999997,-0.00042699999999999997,-0.0011589999999999999,0.2625,-2.0475000000000003,-3.5875000000000004,1.05375,0.24406250000000002,0.1496875,1.30975,1.0225,-0.23271875,-0.33615625,1.277875,0.01967510352093696,0.019963865493343884,True
37216,105021,1,105022,2911.0,36323.0,28334.0,0.0021349999999999997,-0.00061,-0.001647,0.2625,-1.9075000000000002,-3.5875000000000004,1.05715625,0.24140625000000002,0.150375,1.31003125,1.0168125000000001,-0.23159375000000001,-0.34328125,1.27934375,0.019519970699409736,0.02027895273978318,True
37217,105022,1,105023,2911.0,36325.0,28335.0,0.002806,-0.000183,-0.000793,0.22750000000000004,-1.6275000000000002,-3.7100000000000004,1.055625,0.2419375,0.15046875,1.3028125,1.00884375,-0.23503125,-0.3423125,1.2785312500000001,0.019680962862385416,0.02024381414050124,True
37218,105023,1,105024,2912.0,36324.0,28336.0,-0.002379,0.000793,0.0006709999999999999,0.35000000000000003,-0.9625000000000001,-3.9025000000000003,1.0561562500000001,0.24465625,0.153875,1.31678125,1.01875,-0.2333125,-0.34018750000000003,1.2833125,0.019723624246582055,0.02029822079225972,True
37219,105024,1,105025,2913.0,36325.0,28336.0,-0.0040869999999999995,-0.000244,0.0011589999999999999,0.42000000000000004,-1.1375000000000002,-3.7975000000000003,1.04921875,0.24696875000000001,0.14790625000000002,1.30746875,1.023125,-0.232125,-0.344875,1.279375,0.0197710167804103,0.02024168331116919,True
37220,105025,1,105026,2913.0,36324.0,28334.0,-0.003355,0.001769,-0.000183,0.47250000000000003,-1.3125000000000002,-3.7450000000000006,1.0550625,0.24390625000000002,0.15,1.31721875,1.01553125,-0.2340625,-0.3405625,1.279875,0.01972301383641311,0.020154115172975152,True
37221,105026,1,105027,2914.0,36328.0,28338.0,-0.0025009999999999998,0.000793,-0.001403,0.3325,-1.5750000000000002,-3.7275000000000005,1.0483437500000001,0.24096875,0.1504375,1.31259375,1.0225312500000001,-0.231625,-0.34400000000000003,1.27896875,0.019503180244824687,0.02031044610581663,True
37222,105027,1,105028,2914.0,36326.0,28337.0,0.00183,-0.002196,0.009028,0.3325,-1.715,-3.6925000000000003,1.05484375,0.24415625,0.14628125,1.31078125,1.02171875,-0.231,-0.34165625,1.283,0.019609436259337212,0.020045369755806983,True
37223,105028,1,105029,2914.0,36327.0,28338.0,-0.008601,0.004026,-0.0048189999999999995,0.43750000000000006,-1.9250000000000003,-3.4475000000000002,1.048875,0.2420625,0.15081250000000002,1.31565625,1.0161875,-0.23175,-0.3418125,1.2786875,0.01955337522052679,0.020237810968267052,True
37224,105029,1,105030,2914.0,36326.0,28339.0,0.004331,-0.0026839999999999998,-0.00122,0.3325,-2.3800000000000003,-3.5000000000000004,1.0491875,0.2401875,0.14906250000000001,1.314375,1.01071875,-0.23028125,-0.34465625,1.26984375,0.019416561662898568,0.020280374671546246,True
37225,105030,1,105031,2916.0,36327.0,28338.0,0.014335,-0.0042699999999999995,-0.0048189999999999995,0.42000000000000004,-2.6425,-3.7275000000000005,1.0490625,0.24153125,0.15103125,1.311,1.0196875,-0.23096875,-0.34390625,1.2788125000000001,0.019499839435845916,0.02033106334362424,True
37226,105031,1,105032,2916.0,36327.0,28339.0,0.013297999999999999,-0.00122,0.0,0.49000000000000005,-2.3800000000000003,-3.8150000000000004,1.049125,0.24384375,0.14909375,1.3101562500000001,1.0227187500000001,-0.23043750000000002,-0.34184375,1.27434375,0.019573779879129297,0.020168459917913984,True
37227,105032,1,105033,2916.0,36328.0,28339.0,-0.011101999999999999,0.00183,0.002928,0.5075000000000001,-1.1375000000000002,-3.5875000000000004,1.0523125,0.24415625,0.14875,1.31190625,1.01615625,-0.234125,-0.3415,1.2849375,0.01973585801014066,0.020140500790830476,True
37228,105033,1,105034,2915.0,36328.0,28338.0,-0.008845,-0.000366,0.000122,0.5775,-1.1375000000000002,-3.5700000000000003,1.048875,0.2436875,0.14990625,1.31096875,1.025,-0.23143750000000002,-0.342625,1.2805625,0.019607792562863845,0.02023328420825609,True
37229,105034,1,105035,2918.0,36329.0,28339.0,-0.003538,0.000732,-0.00122,0.5075000000000001,-1.2775,-3.7800000000000002,1.0491875,0.244375,0.14859375,1.3141875,1.0155,-0.2313125,-0.344625,1.289875,0.019631107477153787,0.02025986228993053,True
37230,105035,1,105036,2917.0,36330.0,28342.0,0.000366,0.000732,-0.0008539999999999999,0.45500000000000007,-1.4875,-3.7275000000000005,1.048,0.24378125,0.146625,1.3105625,1.01865625,-0.23071875,-0.343375,1.28803125,0.019582580479582348,0.02012867977427123,True
37231,105036,1,105037,2917.0,36331.0,28342.0,0.000488,-0.00061,0.001098,0.3325,-1.6275000000000002,-3.5525,1.0483437500000001,0.23921875,0.15034375,1.3065625,1.01353125,-0.2310625,-0.34596875,1.27315625,0.019408197638877783,0.020385818494078202,True
37232,105037,1,105038,2918.0,36330.0,28342.0,0.0040869999999999995,-0.001098,-0.0018909999999999999,0.29750000000000004,-1.8025000000000002,-3.6225000000000005,1.06534375,0.24490625,0.143125,1.3051875,1.0185,-0.23459375000000002,-0.341875,1.2856875,0.019785765956980405,0.019924512799445397,True
37233,105038,1,105039,2919.0,36330.0,28341.0,0.00549,-0.0006709999999999999,-0.000793,0.35000000000000003,-1.4700000000000002,-3.6400000000000006,1.04275,0.244625,0.145125,1.32028125,1.02540625,-0.23003125,-0.341375,1.28596875,0.01958958472247121,0.019986545542312214,True
37234,105039,1,105040,2920.0,36329.0,28345.0,0.003965,6.1e-05,0.0013419999999999999,0.3325,-1.33,-3.6400000000000006,1.0365,0.23959375,0.1504375,1.300625,1.01771875,-0.22734375,-0.338625,1.28721875,0.019273161136370967,0.020094089127878013,True
37235,105040,1,105041,2920.0,36329.0,28343.0,-6.1e-05,0.001769,0.001769,0.35000000000000003,-0.9975,-3.7800000000000002,1.0423125,0.23290625,0.15787500000000002,1.29984375,1.01428125,-0.23140625,-0.34650000000000003,1.279375,0.019161599422237413,0.020716530096728483,True
37236,105041,1,105042,2919.0,36331.0,28343.0,-0.003904,0.0011589999999999999,0.000915,0.525,-0.805,-3.7800000000000002,1.0466875,0.23253125,0.1555,1.29575,1.01265625,-0.231875,-0.3440625,1.28628125,0.01916509762451317,0.02052091757487067,True
37237,105042,1,105043,2921.0,36332.0,28345.0,-0.008845,0.000366,6.1e-05,0.385,-1.0150000000000001,-3.7975000000000003,1.06684375,0.24306250000000001,0.15509375,1.32384375,1.01446875,-0.23225,-0.34478125,1.2755625,0.01961487274190387,0.020533148146484166,True
37238,105043,1,105044,2921.0,36332.0,28346.0,-0.004941,-0.00244,0.0006709999999999999,0.45500000000000007,-1.4000000000000001,-3.7800000000000002,1.06571875,0.249875,0.1480625,1.30878125,1.01384375,-0.23346875,-0.33965625,1.27553125,0.019945297760973653,0.0200380295017519,True
37239,105044,1,105045,2923.0,36331.0,28346.0,0.000793,-0.00183,0.000366,0.43750000000000006,-1.8375000000000001,-3.6925000000000003,1.0597812500000001,0.24971875000000002,0.1491875,1.33053125,1.02240625,-0.23375,-0.339875,1.27659375,0.01995022437715995,0.020093057174697896,True
37240,105045,1,105046,2924.0,36331.0,28345.0,0.002745,0.001586,-0.0006709999999999999,0.36750000000000005,-2.0650000000000004,-3.7625,1.04903125,0.24534375,0.140125,1.3181875,1.02234375,-0.22978125,-0.3415625,1.28515625,0.019609132872382,0.01978868447742416,True
37241,105046,1,105047,2924.0,36333.0,28347.0,0.004026,0.00061,-0.0011589999999999999,0.29750000000000004,-2.1875,-3.7625,1.03715625,0.2376875,0.14828125,1.30065625,1.02265625,-0.23059375000000001,-0.34165625,1.28459375,0.01932603281749957,0.020127533433555903,True
37242,105047,1,105048,2924.0,36331.0,28346.0,0.00488,0.0006709999999999999,-0.001952,0.47250000000000003,-2.1875,-3.7100000000000004,1.0440625000000001,0.2393125,0.15353125,1.30325,1.0174375,-0.23118750000000002,-0.34390625,1.27809375,0.019417125140895386,0.02043375844827697,True
37243,105048,1,105049,2925.0,36332.0,28347.0,0.003904,0.00244,0.000488,0.43750000000000006,-1.995,-3.6575,1.0531875,0.2429375,0.14990625,1.3099375,1.016375,-0.233375,-0.34128125,1.2794375,0.019655227552909986,0.02017919660658783,True
37244,105049,1,105050,2926.0,36333.0,28347.0,0.002989,0.001281,0.002074,0.49000000000000005,-1.5225000000000002,-3.6050000000000004,1.0502500000000001,0.24306250000000001,0.15015625,1.3100625000000001,1.017125,-0.2335625,-0.34346875,1.27875,0.019667970815269113,0.020277512833909505,True
37245,105050,1,105051,2926.0,36334.0,28348.0,0.000732,0.000122,-0.000793,0.47250000000000003,-1.2600000000000002,-3.7625,1.0549375,0.24496875,0.14915625,1.315625,1.01609375,-0.23246875,-0.34165625,1.2840625,0.019702387937671435,0.020163480042571055,True
37246,105051,1,105052,2926.0,36334.0,28349.0,-0.00244,0.000793,-0.000366,0.385,-0.7875000000000001,-3.7625,1.0489375,0.24334375,0.15425,1.3101562500000001,1.01859375,-0.231375,-0.34500000000000003,1.2788125000000001,0.019591077683375376,0.0205072910248511,True
37247,105052,1,105053,2926.0,36333.0,28352.0,-0.0051849999999999995,-0.000732,0.00061,0.35000000000000003,-0.5425000000000001,-3.6050000000000004,1.054,0.24825,0.15078125,1.310875,1.01765625,-0.22615625,-0.34071875,1.2783437500000001,0.01958239867292196,0.02019250150532223,True
37248,105053,1,105054,2927.0,36334.0,28352.0,-0.002379,-0.002257,0.000305,0.42000000000000004,-0.805,-3.5875000000000004,1.0535,0.24559375,0.15025,1.316875,1.02159375,-0.23446875,-0.34065625,1.27771875,0.019809078752757888,0.020168160010065463,True
37249,105054,1,105055,2929.0,36340.0,28351.0,-0.00122,-0.00183,-0.000305,0.385,-0.8925000000000001,-3.5875000000000004,1.0489375,0.244375,0.14859375,1.3099375,1.0201875,-0.23159375000000001,-0.344875,1.2726875,0.019642486371743505,0.020269923341154968,True
37250,105055,1,105056,2930.0,36337.0,28352.0,-0.000488,-0.0008539999999999999,0.001098,0.4025,-0.9975,-3.535,1.0498125,0.2416875,0.15071875,1.31078125,1.0159375,-0.2351875,-0.34259375000000003,1.27896875,0.01967696763229086,0.020265404133444083,True
37251,105056,1,105057,2929.0,36339.0,28352.0,-0.0013419999999999999,-0.0021349999999999997,0.00042699999999999997,0.36750000000000005,-1.2425000000000002,-3.5875000000000004,1.04925,0.24028125,0.15006250000000002,1.30565625,1.0169375,-0.2339375,-0.34203125,1.27825,0.01956837389714321,0.020215804710217024,True
37252,105057,1,105058,2929.0,36336.0,28351.0,0.001403,0.000976,-0.000549,0.28,-1.4175000000000002,-3.7625,1.05184375,0.24065625000000002,0.14996875,1.310625,1.0169375,-0.23453125,-0.34278125,1.278375,0.0196078684212223,0.020242140572988142,True
37253,105058,1,105059,2928.0,36333.0,28350.0,0.003294,6.1e-05,-0.001769,0.29750000000000004,-1.4875,-3.6575,1.0476875,0.245375,0.15056250000000002,1.310375,1.02215625,-0.2343125,-0.34084375,1.27875,0.01979373254347529,0.0201885462577689,True
37254,105059,1,105060,2929.0,36335.0,28348.0,0.0013419999999999999,0.000732,-0.000366,0.35000000000000003,-1.4175000000000002,-3.5875000000000004,1.05625,0.24484375,0.14896875,1.3155000000000001,1.01703125,-0.2325625,-0.34140625,1.27734375,0.019701022126735464,0.02014571364380396,True
37255,105060,1,105061,2927.0,36333.0,28346.0,0.0017079999999999999,0.000549,-0.0006709999999999999,0.3325,-1.4000000000000001,-3.6750000000000003,1.04984375,0.24003125,0.15234375,1.31040625,1.0198125,-0.23196875,-0.34271875,1.27778125,0.019478400821229185,0.020337190150545532,True
37256,105061,1,105062,2925.0,36333.0,28344.0,0.00061,0.000488,0.0015249999999999999,0.43750000000000006,-1.3650000000000002,-3.7625,1.0557812500000001,0.24359375,0.14825,1.31478125,1.0223125,-0.225375,-0.340375,1.28328125,0.019358575460648182,0.02007467017250145,True
37257,105062,1,105063,2924.0,36332.0,28343.0,-0.003294,0.0013419999999999999,0.001037,0.4025,-1.33,-3.9200000000000004,1.0491875,0.24406250000000002,0.14709375,1.31246875,1.02159375,-0.23128125,-0.3415,1.283625,0.019616946586346936,0.020072458558429023,True
37258,105063,1,105064,2922.0,36331.0,28340.0,-0.0034159999999999998,0.0011589999999999999,0.001037,0.385,-1.4000000000000001,-3.7450000000000006,1.04925,0.240375,0.15109375,1.3039687500000001,1.0166250000000001,-0.230875,-0.3415625,1.2783437500000001,0.01944832780491831,0.020239302633099254,True
37259,105064,1,105065,2920.0,36330.0,28338.0,-0.0028669999999999998,0.001586,-0.00061,0.43750000000000006,-1.6975000000000002,-3.8325000000000005,1.04771875,0.24828125,0.15025,1.3158750000000001,1.01603125,-0.23215625,-0.3410625,1.2789375,0.01982644445848685,0.02018451330955664,True
37260,105065,1,105066,2917.0,36328.0,28337.0,-0.000488,0.000488,0.0,0.3325,-1.9250000000000003,-3.7275000000000005,1.0551875,0.24331250000000001,0.147625,1.3105625,1.02175,-0.2305625,-0.34290625,1.2810625,0.019556912886359943,0.020150890980817054,True
37261,105066,1,105067,2916.0,36326.0,28334.0,0.000732,-0.000549,0.001403,0.4025,-2.0825,-3.6400000000000006,1.05603125,0.24471875,0.14956250000000001,1.30759375,1.01734375,-0.232875,-0.34178125,1.28571875,0.01970850549099106,0.020185201113825636,True
37262,105067,1,105068,2913.0,36325.0,28333.0,0.0018909999999999999,-0.002013,-0.00244,0.24500000000000002,-2.45,-3.7800000000000002,1.0484375,0.24265625000000002,0.15028125,1.31453125,1.01653125,-0.23409375000000002,-0.3395625,1.280375,0.019672697684434765,0.0201254131005847,True
37263,105068,1,105069,2909.0,36325.0,28329.0,0.0042699999999999995,-0.0013419999999999999,-0.0015249999999999999,0.1925,-2.4325,-3.6575,1.04828125,0.24059375,0.15025,1.3174062500000001,1.0175625,-0.2325,-0.34118750000000003,1.2851875,0.019523109460435364,0.020189544984196027,True
37264,105069,1,105070,2910.0,36323.0,28330.0,0.0051849999999999995,-0.000183,-0.00122,0.21000000000000002,-2.205,-3.6575,1.04890625,0.2415625,0.15031250000000002,1.3115,1.014125,-0.23321875,-0.34484375,1.268375,0.019592166228433853,0.020339265886641807,True
37265,105070,1,105071,2907.0,36324.0,28328.0,0.004392,-0.0011589999999999999,0.000976,0.29750000000000004,-1.9425000000000001,-3.8675,1.0495,0.24356250000000002,0.15090625,1.313375,1.01728125,-0.23065625,-0.34165625,1.2766875,0.019571023793464117,0.02023537326060136,True
37266,105071,1,105072,2906.0,36322.0,28327.0,-6.1e-05,6.1e-05,0.0006709999999999999,0.31500000000000006,-1.4875,-3.7625,1.0535625,0.24359375,0.15378125,1.3118750000000001,1.02225,-0.22928125,-0.342125,1.27375,0.019516674684685497,0.020372348346744583,True
37267,105072,1,105073,2905.0,36321.0,28327.0,-0.0066489999999999995,-0.000366,0.000183,0.3325,-1.0850000000000002,-3.7975000000000003,1.053,0.24334375,0.148625,1.311,1.0300625,-0.2298125,-0.34059375000000003,1.27465625,0.019527854373615147,0.020098883167137205,True
37268,105073,1,105074,2905.0,36322.0,28330.0,-0.004941,0.000366,-0.000122,0.24500000000000002,-1.3125000000000002,-3.7975000000000003,1.04896875,0.24165625000000002,0.15009375,1.31325,1.0111875000000001,-0.23925000000000002,-0.33818750000000003,1.2801875,0.01983998060996112,0.02006235057561291,True
37269,105074,1,105075,2905.0,36323.0,28327.0,-0.0026839999999999998,0.0006709999999999999,0.0006709999999999999,0.28,-1.54,-3.8325000000000005,1.0539687500000001,0.2488125,0.1470625,1.31153125,1.02575,-0.22909375,-0.34403125,1.2923125,0.01972447896446808,0.020173066036464276,True
37270,105075,1,105076,2903.0,36322.0,28325.0,0.0006709999999999999,0.0006709999999999999,0.0013419999999999999,0.28,-1.8375000000000001,-3.7975000000000003,1.0411875,0.243625,0.15034375,1.31821875,1.009875,-0.23840625000000001,-0.33803125,1.29196875,0.01988708519150264,0.02006633137181135,True
37271,105076,1,105077,2902.0,36320.0,28325.0,0.000244,0.001281,0.0006709999999999999,0.24500000000000002,-2.0650000000000004,-3.7100000000000004,1.04203125,0.24096875,0.151875,1.3160625000000001,1.01878125,-0.23396875,-0.34059375000000003,1.2804375000000001,0.019598007445643835,0.020232404971633037,True
37272,105077,1,105078,2904.0,36322.0,28326.0,0.002257,-0.0011589999999999999,-0.000915,0.2625,-2.31,-3.7450000000000006,1.0374375,0.24346875,0.15084375,1.3103125,1.01296875,-0.23075,-0.3399375,1.27303125,0.01957094807218101,0.02016361997642763,True
37273,105078,1,105079,2905.0,36321.0,28325.0,0.0040869999999999995,-0.000122,-0.0048189999999999995,0.21000000000000002,-2.2575000000000003,-3.7100000000000004,1.0560625000000001,0.24825,0.14796875,1.31009375,1.0265625,-0.22340625,-0.34671875,1.2819375,0.019471095234593606,0.020318446402556815,True
37274,105079,1,105080,2903.0,36321.0,28328.0,0.005124,-0.000122,-0.002013,0.24500000000000002,-1.7500000000000002,-3.8325000000000005,1.0486875,0.2418125,0.15009375,1.3039375,1.01040625,-0.2374375,-0.33853125,1.2768125000000001,0.019773129894610355,0.02007619091640955,True
37275,105080,1,105081,2903.0,36320.0,28327.0,0.000793,-0.001281,0.001037,0.36750000000000005,-1.4525000000000001,-3.9550000000000005,1.0540625000000001,0.24575,0.14884375,1.30728125,1.0213125,-0.23003125,-0.3398125,1.2855625,0.019636014707987634,0.020076418008561078,True
37276,105081,1,105082,2902.0,36320.0,28327.0,-0.0025009999999999998,-0.000549,0.003172,0.47250000000000003,-1.5225000000000002,-3.8325000000000005,1.052625,0.24415625,0.14990625,1.31615625,1.01028125,-0.23503125,-0.34090625,1.27678125,0.019772514219473104,0.02016410132634236,True
37277,105082,1,105083,2903.0,36322.0,28327.0,-0.001769,0.001647,0.000915,0.35000000000000003,-1.7325000000000002,-3.7625,1.0495625,0.2415625,0.15103125,1.31046875,1.0170000000000001,-0.23190625,-0.34309375000000003,1.2765,0.019539063295938592,0.020298364910992465,True
37278,105083,1,105084,2904.0,36322.0,28326.0,-0.001098,-0.000122,-0.000732,0.3325,-1.7500000000000002,-3.7450000000000006,1.054625,0.24453125,0.1465,1.31146875,1.0225,-0.23146875,-0.34203125,1.2855625,0.019643877344413963,0.0200694529138771,True
37279,105084,1,105085,2904.0,36322.0,28327.0,-0.000793,-0.000793,0.00061,0.42000000000000004,-1.8725000000000003,-3.8150000000000004,1.04865625,0.244,0.15009375,1.314375,1.0167187500000001,-0.23371875,-0.33940625,1.27846875,0.01971297739848532,0.020111419110727075,True
37280,105085,1,105086,2904.0,36322.0,28329.0,0.000976,-0.000976,0.00042699999999999997,0.42000000000000004,-1.9775000000000003,-3.7275000000000005,1.0403125,0.24365625000000002,0.150625,1.3103125,1.0244375000000001,-0.23034375,-0.34478125,1.27096875,0.019562248265668953,0.020349587244699516,True
37281,105086,1,105087,2906.0,36322.0,28328.0,0.00183,-6.1e-05,-0.000122,0.42000000000000004,-1.9075000000000002,-3.7275000000000005,1.049625,0.24240625000000002,0.1504375,1.3005625,1.0170000000000001,-0.233625,-0.344375,1.2789062500000001,0.019643419009743694,0.020325537213421993,True
37282,105087,1,105088,2906.0,36323.0,28328.0,0.000549,0.0008539999999999999,-0.002196,0.4025,-1.8725000000000003,-3.7275000000000005,1.04878125,0.24315625000000002,0.14940625,1.31584375,1.0165625,-0.23475000000000001,-0.34196875,1.2786875,0.01971987538555174,0.02018632942333393,True
37283,105088,1,105089,2906.0,36322.0,28328.0,0.00061,0.000122,-0.000732,0.31500000000000006,-1.5925000000000002,-3.7975000000000003,1.054875,0.24525,0.1476875,1.3165625,1.0231875,-0.23084375000000001,-0.3405,1.2866250000000001,0.01964825306588839,0.020056592921262918,True
37284,105089,1,105090,2905.0,36325.0,28328.0,0.000305,0.000549,-0.000549,0.24500000000000002,-1.3825,-3.6925000000000003,1.0421875,0.24146875,0.15146875,1.30784375,1.017375,-0.23078125,-0.34378125,1.27840625,0.019489672872186076,0.02034400469319038,True
37285,105090,1,105091,2907.0,36322.0,28328.0,-0.000183,-0.0008539999999999999,-0.000244,0.385,-1.4175000000000002,-3.7975000000000003,1.0598750000000001,0.2454375,0.1480625,1.3196875000000001,1.02040625,-0.233125,-0.3415625,1.28175,0.019748278441183296,0.02011477282939417,True
37286,105091,1,105092,2907.0,36324.0,28327.0,-0.000732,-0.000305,-0.000122,0.385,-1.3475000000000001,-3.7975000000000003,1.04640625,0.242375,0.15203125,1.3097812500000001,1.0228125000000001,-0.23109375000000001,-0.34171875,1.279625,0.01953971846607213,0.020284105862491738,True
37287,105092,1,105093,2908.0,36322.0,28328.0,-0.0015249999999999999,0.0008539999999999999,0.001098,0.4025,-1.12,-3.6225000000000005,1.0606875,0.24546875,0.14875,1.302375,1.0070937500000001,-0.229125,-0.34118750000000003,1.286375,0.019587737898087532,0.020127921039185127,True
37288,105093,1,105094,2908.0,36323.0,28325.0,-0.000549,0.000549,0.000122,0.4025,-1.3125000000000002,-3.7100000000000004,1.04959375,0.2416875,0.15184375,1.31084375,1.01721875,-0.23353125,-0.3408125,1.27015625,0.019609967078157462,0.020239926255543033,True
