frame_seq,absolute_seq_u64,segment_id,sample_seq,PPG_G,PPG_R,PPG_IR,ACC_X,ACC_Y,ACC_Z,GYRO_X,GYRO_Y,GYRO_Z,Uh1,Uh2,Uh3,Uh4,Uc1,Uc2,Uc3,Uc4,UD1,UD2,parser_valid
59887,127692,1,127693,4423.0,42269.0,30613.0,0.007076,0.0034159999999999998,0.002013,0.385,-2.4675000000000002,-3.8150000000000004,1.055625,0.24375,0.2160625,1.2961562500000001,1.0462500000000001,-0.226,-0.27734375,1.2898125,0.019390324444811362,0.020323732904263876,True
59888,127693,1,127694,4420.0,42266.0,30608.0,0.004514,0.001281,0.00183,0.29750000000000004,-2.24,-3.8325000000000005,1.0805,0.23440625,0.20653125,1.3058125,1.042125,-0.22665625,-0.276375,1.29775,0.01903120658675297,0.019892024653598402,True
59889,127694,1,127695,4415.0,42265.0,30604.0,0.001464,-0.001952,0.0023179999999999997,0.22750000000000004,-1.8550000000000002,-3.5875000000000004,1.06871875,0.2394375,0.20971875,1.3040625000000001,1.0460625000000001,-0.22646875,-0.27609375,1.29109375,0.019231290156556554,0.020011971654212285,True
59890,127695,1,127696,4410.0,42264.0,30599.0,-0.002745,-0.003477,0.000976,0.14,-1.3825,-3.6575,1.06934375,0.24153125,0.21156250000000001,1.30775,1.04671875,-0.22746875,-0.27568750000000003,1.2950625,0.01935819234107979,0.02007152217625145,True
59891,127696,1,127697,4406.0,42263.0,30596.0,-0.005429,-0.002562,0.00042699999999999997,0.21000000000000002,-1.12,-3.4650000000000003,1.07325,0.239625,0.211875,1.30990625,1.04809375,-0.22684375,-0.27640625,1.296,0.01925421052835246,0.020113407436489903,True
59892,127697,1,127698,4399.0,42262.0,30597.0,-0.002562,-0.001952,-0.00244,0.28,-1.4000000000000001,-3.6750000000000003,1.0748125,0.24003125,0.21103125,1.30965625,1.04065625,-0.22653125000000002,-0.2760625,1.29809375,0.019258328614419368,0.020064775743595158,True
59893,127698,1,127699,4394.0,42259.0,30593.0,0.000549,-0.001769,-0.003172,0.31500000000000006,-1.8725000000000003,-3.6750000000000003,1.07503125,0.23903125,0.21346875,1.31075,1.0434375,-0.22740625,-0.2794375,1.2868125000000001,0.019252473632005076,0.020301386718699722,True
59894,127699,1,127700,4388.0,42258.0,30591.0,0.003355,0.0011589999999999999,-0.0025009999999999998,0.42000000000000004,-2.1875,-3.6925000000000003,1.0826875,0.2389375,0.213375,1.30934375,1.04153125,-0.225625,-0.27753125,1.292875,0.01917649183457599,0.020220600066161998,True
59895,127700,1,127701,4383.0,42258.0,30592.0,0.005246,0.002379,0.0,0.35000000000000003,-2.2750000000000004,-3.7275000000000005,1.06771875,0.243,0.2164375,1.31046875,1.041,-0.22696875,-0.276375,1.2888125,0.019398578288916148,0.02030008598895016,True
59896,127701,1,127702,4381.0,42257.0,30592.0,0.00488,0.003721,0.000366,0.29750000000000004,-2.0125,-3.8500000000000005,1.0750625,0.2424375,0.211625,1.31203125,1.0473125,-0.2275,-0.27784375,1.2899375,0.019396863068826747,0.02016112942484853,True
59897,127702,1,127703,4377.0,42256.0,30590.0,-0.003111,-0.000976,0.0026839999999999998,0.15750000000000003,-1.2600000000000002,-3.8150000000000004,1.0800625,0.242125,0.213125,1.30975,1.04284375,-0.22753125000000002,-0.28090625,1.298125,0.019385229355549795,0.020346491391770024,True
59898,127703,1,127704,4374.0,42256.0,30591.0,-0.003355,-0.002379,0.0023179999999999997,0.15750000000000003,-1.12,-3.6575,1.07528125,0.23934375,0.21315625,1.3081875,1.043125,-0.22725,-0.26965625,1.2938125,0.01925904714732378,0.019893668662900817,True
59899,127704,1,127705,4369.0,42256.0,30590.0,-0.003904,-0.0015249999999999999,0.002989,0.35000000000000003,-0.9625000000000001,-3.5175000000000005,1.0753125000000001,0.24353125,0.21281250000000002,1.31453125,1.0491875,-0.22759375,-0.276625,1.28725,0.01944580237152111,0.02016085431974173,True
59900,127705,1,127706,4366.0,42255.0,30591.0,-0.003965,0.000122,0.0013419999999999999,0.31500000000000006,-1.1375000000000002,-3.5525,1.0756875000000001,0.24259375,0.21403125,1.31128125,1.0423125,-0.22771875,-0.2809375,1.28921875,0.01941216607527277,0.020385075741000527,True
59901,127706,1,127707,4366.0,42255.0,30589.0,-0.001403,-6.1e-05,0.000549,0.3325,-1.33,-3.5875000000000004,1.0806875,0.2381875,0.213625,1.30984375,1.0415625,-0.2255625,-0.2765,1.29778125,0.019143002355466465,0.020189277696537805,True
59902,127707,1,127708,4363.0,42253.0,30588.0,-0.000244,-0.002623,-0.0035989999999999998,0.49000000000000005,-1.7675,-3.5525,1.07475,0.24146875,0.21046875,1.31553125,1.0465625,-0.22768750000000001,-0.27684375,1.2903437500000001,0.019364466790319963,0.02007314068576151,True
59903,127708,1,127709,4361.0,42256.0,30590.0,0.003294,-0.000122,-0.002379,0.42000000000000004,-2.0475000000000003,-3.5525,1.0716875000000001,0.24271875,0.21409375,1.31428125,1.0450625,-0.2290625,-0.28053125,1.2902500000000001,0.019471708820760193,0.020371259380908315,True
59904,127709,1,127710,4362.0,42255.0,30592.0,0.004575,0.0021349999999999997,-0.002623,0.385,-2.1525000000000003,-3.6400000000000006,1.08021875,0.24265625000000002,0.2174375,1.310125,1.041375,-0.22893750000000002,-0.275125,1.2923125,0.01946407059740032,0.02029083269396141,True
59905,127710,1,127711,4361.0,42255.0,30592.0,0.006588,0.001769,0.000122,0.45500000000000007,-1.9600000000000002,-3.7800000000000002,1.0755625,0.24331250000000001,0.21196875,1.31475,1.0450625,-0.22765625,-0.27678125,1.2903437500000001,0.01943930296600605,0.020132405320412897,True
59906,127711,1,127712,4360.0,42252.0,30589.0,0.003355,0.001464,0.0017079999999999999,0.385,-1.5925000000000002,-3.7450000000000006,1.0796875000000001,0.241,0.21246875,1.3094375,1.04125,-0.2270625,-0.27690625,1.294375,0.019319820551913794,0.020158046291421504,True
59907,127712,1,127713,4360.0,42253.0,30590.0,-0.003477,0.002074,0.003172,0.36750000000000005,-0.9800000000000001,-3.7800000000000002,1.07553125,0.242875,0.21396875,1.3141875,1.0459687500000001,-0.2290625,-0.27690625,1.2910625,0.019478157687694272,0.020219833406490997,True
59908,127713,1,127714,4358.0,42256.0,30592.0,-0.0059169999999999995,0.001403,0.0013419999999999999,0.45500000000000007,-0.9800000000000001,-3.6575,1.07953125,0.2416875,0.21375,1.3099375,1.04103125,-0.22703125000000002,-0.277375,1.2946250000000001,0.019346932984205402,0.02022974065359208,True
59909,127714,1,127715,4359.0,42255.0,30593.0,-0.005124,-0.0013419999999999999,0.0,0.5075000000000001,-1.0150000000000001,-3.6575,1.0785625,0.2429375,0.21434375,1.3101875,1.04125,-0.22703125000000002,-0.27571875,1.2961562500000001,0.019398528245180683,0.020187352846143845,True
59910,127715,1,127716,4361.0,42256.0,30591.0,-0.002989,-0.001464,-0.00122,0.43750000000000006,-1.1725,-3.6750000000000003,1.07575,0.241,0.21353125,1.3129375,1.04828125,-0.2268125,-0.27653125,1.29040625,0.019309700770582177,0.020186677204965187,True
59911,127716,1,127717,4359.0,42253.0,30590.0,-0.001464,-0.001769,-0.002196,0.5075000000000001,-1.33,-3.7275000000000005,1.0784375,0.2420625,0.21225,1.3022500000000001,1.04084375,-0.22621875,-0.27609375,1.2903125,0.019329522895519962,0.020116240900577342,True
59912,127717,1,127718,4359.0,42254.0,30590.0,0.003294,-0.001098,-0.002745,0.43750000000000006,-1.5925000000000002,-3.7275000000000005,1.076,0.24259375,0.21440625,1.31434375,1.0495,-0.23234375000000002,-0.27868750000000003,1.29159375,0.019599321671062053,0.0203097366774872,True
59913,127718,1,127719,4360.0,42252.0,30591.0,0.004514,-0.001464,-0.0021349999999999997,0.28,-1.54,-3.7625,1.0792187500000001,0.243125,0.21456250000000002,1.3138750000000001,1.0362500000000001,-0.23068750000000002,-0.281875,1.28628125,0.01955423262340369,0.020444776196236903,True
59914,127719,1,127720,4359.0,42253.0,30590.0,0.003355,0.000976,-0.000488,0.42000000000000004,-1.6450000000000002,-3.7800000000000002,1.0852187500000001,0.23800000000000002,0.21040625000000002,1.3003437500000001,1.0385312500000001,-0.2194375,-0.27503125,1.298125,0.01888720578254553,0.019997399591401142,True
59915,127720,1,127721,4360.0,42252.0,30592.0,0.002562,0.0011589999999999999,0.000732,0.5950000000000001,-1.715,-3.8500000000000005,1.0744375,0.24296875,0.2229375,1.325125,1.0518125,-0.2280625,-0.27809375000000003,1.28740625,0.01944155666595296,0.02063717420153714,True
59916,127721,1,127722,4360.0,42253.0,30590.0,0.001769,0.001037,0.0030499999999999998,0.45500000000000007,-1.54,-3.7800000000000002,1.09796875,0.236625,0.21725,1.29925,1.03896875,-0.229875,-0.28190625,1.29859375,0.019253091483138068,0.020556715970353443,True
59917,127722,1,127723,4358.0,42254.0,30592.0,-0.004026,0.001647,0.001769,0.56,-1.225,-3.8850000000000002,1.07975,0.23450000000000001,0.20865625000000002,1.3016875,1.0321875,-0.2250625,-0.2793125,1.3013125,0.018970539291694292,0.020098128808218933,True
59918,127723,1,127724,4357.0,42251.0,30592.0,-0.005063,0.002074,0.001098,0.45500000000000007,-0.8750000000000001,-3.7625,1.066,0.23271875,0.2126875,1.2934375,1.03915625,-0.22534375,-0.2795,1.29646875,0.018908400422594625,0.02027173129594926,True
59919,127724,1,127725,4358.0,42254.0,30591.0,-0.004209,0.00122,-0.000183,0.43750000000000006,-0.7000000000000001,-3.7275000000000005,1.0955,0.2383125,0.2175625,1.30915625,1.03809375,-0.23071875,-0.282625,1.281,0.019356885564940165,0.02059857614240635,True
59920,127725,1,127726,4359.0,42249.0,30591.0,-0.003904,-0.0017079999999999999,-0.000793,0.43750000000000006,-0.9100000000000001,-3.7275000000000005,1.0965,0.24178125,0.21978125,1.3295625,1.0385312500000001,-0.22771875,-0.27946875,1.28909375,0.0193786301073022,0.020562641017423413,True
59921,127726,1,127727,4359.0,42252.0,30592.0,0.002562,-0.000732,-0.0018909999999999999,0.31500000000000006,-1.4000000000000001,-3.6750000000000003,1.0854062500000001,0.24675,0.217625,1.3295625,1.0465,-0.22953125,-0.276375,1.2881562500000001,0.01965705589124841,0.02034900185880305,True
59922,127727,1,127728,4359.0,42251.0,30590.0,0.003355,-0.000549,-0.001586,0.42000000000000004,-1.9600000000000002,-3.7450000000000006,1.06371875,0.24415625,0.22,1.3318125,1.046125,-0.23018750000000002,-0.27721875,1.288125,0.01957656126268111,0.020480877777649058,True
59923,127728,1,127729,4356.0,42252.0,30590.0,0.005673,-0.000122,-0.000183,0.4025,-1.6275000000000002,-3.7625,1.1005625,0.2325625,0.20928125,1.30065625,1.04271875,-0.22928125,-0.27640625,1.29725,0.01906138878964889,0.02000656501618727,True
59924,127729,1,127730,4357.0,42251.0,30588.0,0.0040869999999999995,-0.0013419999999999999,0.000793,0.24500000000000002,-1.4700000000000002,-3.7100000000000004,1.06315625,0.234875,0.20215625,1.2996875,1.0414375,-0.22646875,-0.27475,1.2939375,0.019042963081443723,0.019646185851553567,True
59925,127730,1,127731,4359.0,42253.0,30590.0,0.00061,-0.00061,0.00042699999999999997,0.17500000000000002,-1.2425000000000002,-3.8150000000000004,1.0785,0.23059375000000001,0.21459375,1.30059375,1.0420625000000001,-0.22678125000000002,-0.27868750000000003,1.2966875,0.018878900803217517,0.0203174595002304,True
59926,127731,1,127732,4359.0,42254.0,30589.0,-0.002013,0.001952,-0.000122,0.22750000000000004,-1.05,-3.9375000000000004,1.068625,0.2380625,0.21728125,1.3115,1.041875,-0.22671875,-0.28021875,1.289875,0.019184655371458425,0.020489930717778236,True
59927,127732,1,127733,4358.0,42254.0,30591.0,-0.001098,0.0017079999999999999,-0.000488,0.29750000000000004,-0.7350000000000001,-3.7975000000000003,1.07078125,0.24165625000000002,0.2104375,1.3091875,1.046875,-0.22743750000000001,-0.27721875,1.2913125,0.019362086890121994,0.02008698998932899,True
59928,127733,1,127734,4358.0,42251.0,30589.0,-0.0018909999999999999,0.000122,0.001037,0.17500000000000002,-0.7350000000000001,-3.7800000000000002,1.07553125,0.24071875,0.2104375,1.30875,1.04765625,-0.229875,-0.277,1.2903125,0.019422046131067537,0.02007816039873131,True
59929,127734,1,127735,4360.0,42252.0,30591.0,-0.003904,0.000244,0.000732,0.24500000000000002,-0.9275000000000001,-3.7450000000000006,1.07496875,0.24234375,0.21321875,1.31009375,1.04790625,-0.22603125000000002,-0.27668750000000003,1.29684375,0.01933354230276575,0.020180111063340087,True
59930,127735,1,127736,4362.0,42253.0,30591.0,-0.003904,0.000366,0.0015249999999999999,0.3325,-1.155,-3.7975000000000003,1.08096875,0.242375,0.2135,1.31684375,1.04184375,-0.2265625,-0.28021875,1.2903125,0.019356336665591743,0.02033419694787552,True
59931,127736,1,127737,4362.0,42254.0,30591.0,0.000549,0.00061,0.0,0.43750000000000006,-1.715,-3.8325000000000005,1.07909375,0.243125,0.21246875,1.31603125,1.034125,-0.23009375,-0.28221875,1.29028125,0.019530207141687184,0.020372417574073626,True
59932,127737,1,127738,4363.0,42254.0,30594.0,0.00244,0.000732,-0.0006709999999999999,0.43750000000000006,-1.995,-3.8500000000000005,1.0753125000000001,0.243625,0.21434375,1.309625,1.04578125,-0.22775,-0.27746875,1.28284375,0.019455995707401638,0.02025798097258389,True
59933,127738,1,127739,4363.0,42255.0,30594.0,0.001952,-0.00061,-0.002989,0.43750000000000006,-2.1700000000000004,-3.8325000000000005,1.081875,0.24275,0.21325,1.31478125,1.04546875,-0.2265625,-0.27740625,1.29059375,0.019371815543373107,0.020210406537971907,True
59934,127739,1,127740,4366.0,42257.0,30594.0,0.003477,-0.000915,-0.0015249999999999999,0.385,-2.2575000000000003,-3.9550000000000005,1.0751875,0.2414375,0.21206250000000001,1.3108125,1.0281875,-0.2273125,-0.2760625,1.2908125,0.019347998256100424,0.02010725586161265,True
59935,127740,1,127741,4367.0,42259.0,30597.0,0.003355,-0.000183,-0.002074,0.2625,-2.1175,-3.9725000000000006,1.08209375,0.24234375,0.21425,1.31,1.04159375,-0.2265625,-0.27903125,1.29571875,0.019355046759109963,0.020317171839383006,True
59936,127741,1,127742,4367.0,42258.0,30595.0,0.0028669999999999998,-0.000183,0.0023179999999999997,0.28,-1.54,-3.9550000000000005,1.08309375,0.24684375,0.21378125,1.3178125,1.040375,-0.2259375,-0.27815625,1.29040625,0.019515498626214156,0.020262555975600498,True
59937,127742,1,127743,4369.0,42259.0,30599.0,-0.000244,-0.001952,0.003111,0.17500000000000002,-1.4000000000000001,-3.99,1.0757812500000001,0.243125,0.21456250000000002,1.31571875,1.0414375,-0.229125,-0.27840625,1.2846250000000001,0.019491005143603,0.020304823344819024,True
59938,127743,1,127744,4370.0,42260.0,30598.0,-0.0026839999999999998,-0.00183,0.0013419999999999999,0.2625,-1.5575,-4.0425,1.0755000000000001,0.24321875,0.21234375,1.31603125,1.0414375,-0.2261875,-0.28084375,1.2900625000000001,0.01937598518132496,0.020311794148422047,True
59939,127744,1,127745,4371.0,42258.0,30599.0,-0.004331,0.000122,-0.001037,0.28,-1.61,-4.077500000000001,1.07584375,0.24246875,0.2141875,1.31621875,1.04140625,-0.22990625,-0.2793125,1.291125,0.019495535604889102,0.020325946214498458,True
59940,127745,1,127746,4374.0,42261.0,30601.0,-0.002928,0.001647,6.1e-05,0.4025,-1.5750000000000002,-3.9375000000000004,1.07478125,0.24375,0.21434375,1.31365625,1.04153125,-0.22734375,-0.28090625,1.28440625,0.01944471316629583,0.020396685152556857,True
59941,127746,1,127747,4375.0,42263.0,30603.0,-0.007137,-0.000549,-0.00061,0.7350000000000001,-3.0100000000000002,-3.9025000000000003,1.07275,0.24278125,0.21378125,1.3165,1.036,-0.2268125,-0.28025,1.29003125,0.01938322468133189,0.020347041319591027,True
59942,127747,1,127748,4376.0,42261.0,30609.0,-0.003294,0.001037,-0.000244,0.7875000000000001,-3.7275000000000005,-3.9375000000000004,1.07190625,0.24365625000000002,0.21406250000000002,1.31696875,1.04159375,-0.2285625,-0.27878125,1.28978125,0.01949016785457247,0.020299361196312107,True
59943,127748,1,127749,4377.0,42261.0,30609.0,0.0035989999999999998,0.001769,-0.001769,0.6300000000000001,-4.025,-3.9025000000000003,1.07415625,0.24303125,0.21146875,1.30928125,1.041375,-0.22918750000000002,-0.27634375,1.2902500000000001,0.019489665099170165,0.020094150298065376,True
59944,127749,1,127750,4378.0,42265.0,30609.0,0.006588,-0.001098,-0.003111,0.5075000000000001,-3.9375000000000004,-3.9375000000000004,1.07553125,0.2436875,0.21115625000000002,1.3098750000000001,1.046875,-0.228375,-0.27553125,1.2903437500000001,0.019483869636325177,0.02004847988651124,True
59945,127750,1,127751,4381.0,42265.0,30611.0,0.008784,-0.0032329999999999998,-0.00244,0.36750000000000005,-3.5700000000000003,-3.8500000000000005,1.07828125,0.24296875,0.21340625,1.31221875,1.04153125,-0.22609375,-0.27834375,1.294875,0.019361870916560785,0.02025467655716836,True
59946,127751,1,127752,4382.0,42264.0,30611.0,0.0062829999999999995,0.000305,-0.001281,0.08750000000000001,-2.0125,-4.077500000000001,1.07971875,0.241,0.21356250000000002,1.3086875,1.04146875,-0.22478125000000002,-0.27703125,1.298375,0.0192274698042939,0.020208144272170842,True
59947,127752,1,127753,4383.0,42264.0,30610.0,0.0023179999999999997,0.001403,0.000305,0.052500000000000005,-1.225,-4.112500000000001,1.08315625,0.238875,0.21665625,1.30653125,1.04675,-0.22640625,-0.27603125,1.29784375,0.019205541473985642,0.020295224327493814,True
59948,127753,1,127754,4385.0,42265.0,30613.0,-0.000366,0.00042699999999999997,0.001952,0.08750000000000001,-0.665,-4.112500000000001,1.08178125,0.24009375,0.21321875,1.307625,1.0635937500000001,-0.22725,-0.27628125,1.2855625,0.019290004024394018,0.020163714325067805,True
59949,127754,1,127755,4385.0,42265.0,30613.0,-0.002745,0.000366,0.002623,0.15750000000000003,-0.43750000000000006,-4.0425,1.0785,0.2400625,0.210125,1.31034375,1.05746875,-0.23046875,-0.27459375,1.28559375,0.019418990810897954,0.019968150857313523,True
59950,127755,1,127756,4387.0,42267.0,30613.0,-0.0064659999999999995,0.0008539999999999999,0.001464,0.2625,-0.7000000000000001,-3.9375000000000004,1.06275,0.2404375,0.21134375,1.3099687500000001,1.0503437500000001,-0.22803125,-0.27453125,1.284375,0.019335815822839504,0.020015834497319078,True
59951,127756,1,127757,4389.0,42265.0,30613.0,-0.001952,0.001647,0.001281,0.24500000000000002,-1.0675000000000001,-3.9025000000000003,1.075625,0.2411875,0.21028125,1.3099687500000001,1.0490625,-0.234625,-0.2755,1.286375,0.019633582116496538,0.020011173817223126,True
59952,127757,1,127758,4391.0,42266.0,30616.0,-0.000122,-0.001098,6.1e-05,0.1925,-1.1375000000000002,-3.8675,1.07621875,0.239875,0.21009375,1.31040625,1.04753125,-0.22978125,-0.275,1.285875,0.019383429225140036,0.019983264675592173,True
59953,127758,1,127759,4392.0,42265.0,30615.0,-0.0023179999999999997,-0.0017079999999999999,-0.0013419999999999999,0.17500000000000002,-1.4175000000000002,-3.8150000000000004,1.0755937500000001,0.24065625000000002,0.21059375,1.3116875000000001,1.0535625,-0.236125,-0.27675,1.28484375,0.01967233829665427,0.02007450544245008,True
59954,127759,1,127760,4393.0,42266.0,30615.0,-0.0023179999999999997,-0.00183,-0.0008539999999999999,0.36750000000000005,-1.7850000000000001,-3.9200000000000004,1.0754062500000001,0.2434375,0.21146875,1.31496875,1.0345312500000001,-0.23096875,-0.2849375,1.28515625,0.01957850942298789,0.02044091116149671,True
59955,127760,1,127761,4394.0,42270.0,30616.0,-0.000732,0.0006709999999999999,-0.000305,0.4025,-1.995,-3.8325000000000005,1.07528125,0.2426875,0.21115625000000002,1.3118125,1.03484375,-0.22668750000000001,-0.280375,1.2861875,0.01937429539221984,0.020243972755774983,True
59956,127761,1,127762,4395.0,42267.0,30616.0,0.0048189999999999995,-0.000366,0.000549,0.28,-2.0125,-3.7275000000000005,1.07575,0.24371875,0.21375,1.315125,1.03478125,-0.22984375,-0.28159375000000003,1.2825,0.01954459570132391,0.020399968597613165,True
59957,127762,1,127763,4397.0,42268.0,30619.0,0.0050019999999999995,0.001098,-0.000549,0.36750000000000005,-1.995,-3.8500000000000005,1.07471875,0.24709375,0.211625,1.31659375,1.0358125,-0.2326875,-0.28096875,1.285375,0.019798928616563887,0.02028723627429404,True
59958,127763,1,127764,4398.0,42270.0,30620.0,0.001098,0.0008539999999999999,-0.001037,0.35000000000000003,-2.0475000000000003,-3.7450000000000006,1.07475,0.24371875,0.2149375,1.31490625,1.0305625,-0.22709375,-0.27659375,1.2905625,0.019433304913017063,0.020247125896729234,True
59959,127764,1,127765,4401.0,42270.0,30619.0,0.000122,0.001098,-0.000122,0.29750000000000004,-1.7675,-3.7625,1.0713125000000001,0.24340625000000002,0.2115,1.3151875,1.03603125,-0.22590625,-0.27618750000000003,1.289125,0.019372340302026884,0.02008913055231593,True
59960,127765,1,127766,4403.0,42272.0,30622.0,-0.000976,-0.000549,0.000549,0.24500000000000002,-1.4525000000000001,-3.7625,1.07553125,0.24381250000000002,0.21256250000000002,1.30746875,1.04340625,-0.23040625,-0.2770625,1.291,0.019571225719750365,0.020168214338122662,True
59961,127766,1,127767,4403.0,42270.0,30621.0,-0.00183,-0.001037,0.001952,0.15750000000000003,-0.9800000000000001,-3.8150000000000004,1.07596875,0.23978125,0.21325,1.3144375,1.0470625,-0.22759375,-0.2745,1.295125,0.01929102018230762,0.020093101814661476,True
59962,127767,1,127768,4406.0,42268.0,30622.0,-0.0017079999999999999,-0.0008539999999999999,0.000183,0.24500000000000002,-0.9625000000000001,-3.7275000000000005,1.0794062500000001,0.24578125,0.21103125,1.3141562500000001,1.041375,-0.22896875,-0.27884375,1.29046875,0.01959431310917845,0.020177031700696207,True
59963,127768,1,127769,4407.0,42273.0,30624.0,-0.0015249999999999999,0.0008539999999999999,-0.001647,0.17500000000000002,-1.1025,-3.7275000000000005,1.07590625,0.2405,0.21246875,1.29971875,1.0466875,-0.229625,-0.27309375,1.29165625,0.019402900375057396,0.020004145536660318,True
59964,127769,1,127770,4410.0,42272.0,30624.0,0.0006709999999999999,0.000122,-0.002379,0.17500000000000002,-1.1725,-3.5700000000000003,1.0761875,0.24009375,0.2131875,1.3103125,1.04575,-0.227375,-0.27528125000000003,1.29709375,0.01929506395141859,0.02012206346733882,True
59965,127770,1,127771,4412.0,42274.0,30625.0,0.002379,0.001281,-0.0008539999999999999,0.28,-1.155,-3.5175000000000005,1.0811875,0.242625,0.21434375,1.311375,1.0415,-0.2259375,-0.279375,1.29646875,0.01934135675863937,0.02033490359615929,True
59966,127771,1,127772,4413.0,42276.0,30627.0,-0.000549,0.00183,-0.000305,0.36750000000000005,-1.5925000000000002,-3.5525,1.08253125,0.2408125,0.213375,1.3035,1.04103125,-0.22596875,-0.27615625,1.292875,0.019267805338021828,0.020165105421085763,True
59967,127772,1,127773,4417.0,42274.0,30627.0,0.001281,0.000915,0.001403,0.24500000000000002,-1.5575,-3.5875000000000004,1.07565625,0.2420625,0.210625,1.313625,1.047625,-0.22090625,-0.27665625,1.29028125,0.019114427231640023,0.020072008475219894,True
59968,127773,1,127774,4420.0,42275.0,30627.0,-0.000488,-0.0013419999999999999,0.001647,0.29750000000000004,-1.5575,-3.4475000000000002,1.07640625,0.243125,0.21421875,1.3139687500000001,1.040875,-0.22984375,-0.279875,1.29003125,0.01952009079711874,0.020349929725750233,True
59969,127774,1,127775,4423.0,42275.0,30628.0,-0.00183,-0.001647,0.000366,0.3325,-1.4525000000000001,-3.43,1.08628125,0.24396875,0.214,1.309125,1.0411875,-0.22571875,-0.27890625,1.29759375,0.019387969655183093,0.02030183093606204,True
59970,127775,1,127776,4424.0,42278.0,30631.0,-0.002806,-0.000915,-0.001586,0.385,-1.3650000000000002,-3.5700000000000003,1.07734375,0.239625,0.20828125,1.31190625,1.04259375,-0.22609375,-0.27596875,1.29109375,0.01922384825246538,0.019947710634616794,True
59971,127776,1,127777,4428.0,42277.0,30631.0,0.0006709999999999999,-0.002196,-0.000366,0.1925,-1.2600000000000002,-3.6225000000000005,1.0721875,0.2441875,0.2155,1.31728125,1.0489375,-0.22893750000000002,-0.277625,1.28259375,0.019527269819405,0.020311912717986214,True
59972,127777,1,127778,4427.0,42277.0,30633.0,0.000732,-0.0018909999999999999,0.000549,0.28,-1.1900000000000002,-3.6575,1.0805,0.24384375,0.21534375,1.3205,1.04109375,-0.22909375,-0.2795625,1.2906250000000001,0.01951940526046295,0.02038365600698118,True
59973,127778,1,127779,4430.0,42274.0,30630.0,-0.000976,0.0,0.001586,0.22750000000000004,-1.2775,-3.7800000000000002,1.07428125,0.24421875,0.21365625,1.3198750000000001,1.042125,-0.2278125,-0.2775,1.29065625,0.019483032155709477,0.020230923694779118,True
59974,127779,1,127780,4431.0,42276.0,30630.0,-0.003172,0.000305,0.0023179999999999997,0.31500000000000006,-1.4175000000000002,-3.6750000000000003,1.07290625,0.244,0.215875,1.3206875,1.045375,-0.22953125,-0.27546875,1.2905625,0.01954355802900644,0.02024034036417937,True
59975,127780,1,127781,4431.0,42278.0,30631.0,-0.000915,0.001769,0.001647,0.36750000000000005,-1.5925000000000002,-3.7625,1.0763125,0.24371875,0.21459375,1.31203125,1.0418125,-0.22896875,-0.27321875,1.2905625,0.019509187736271277,0.020096737273461104,True
59976,127781,1,127782,4430.0,42276.0,30627.0,0.000244,0.00122,-0.000915,0.3325,-1.8725000000000003,-3.7275000000000005,1.078,0.23790625,0.21884375,1.30853125,1.04125,-0.225375,-0.2780625,1.29365625,0.019123800973153148,0.020467294290885032,True
59977,127782,1,127783,4429.0,42276.0,30625.0,0.000366,0.0011589999999999999,-0.001403,0.15750000000000003,-1.8375000000000001,-3.7275000000000005,1.08628125,0.2414375,0.21540625,1.31915625,1.041625,-0.2259375,-0.279125,1.28959375,0.01929233904776647,0.02036857794504538,True
59978,127783,1,127784,4423.0,42275.0,30621.0,0.001647,0.001037,-0.000915,0.15750000000000003,-1.8725000000000003,-3.7450000000000006,1.0715625,0.24465625,0.20921875,1.30828125,1.04009375,-0.2265,-0.2765625,1.2940625000000001,0.01944797019792376,0.020010297998326574,True
59979,127784,1,127785,4422.0,42270.0,30616.0,0.0026839999999999998,0.0008539999999999999,0.0008539999999999999,0.12250000000000001,-1.7675,-3.8150000000000004,1.07525,0.23909375,0.2145,1.30853125,1.044625,-0.22675,-0.27725,1.2929375,0.0192284871061946,0.020255589080311817,True
59980,127785,1,127786,4418.0,42271.0,30614.0,0.003355,0.000549,0.00061,0.22750000000000004,-1.6800000000000002,-3.7975000000000003,1.07409375,0.2421875,0.21203125,1.30934375,1.041875,-0.225875,-0.27609375,1.29028125,0.019320767567734914,0.020107229978051967,True
59981,127786,1,127787,4412.0,42270.0,30609.0,0.000915,-0.001281,-0.001647,0.12250000000000001,-1.3650000000000002,-3.7625,1.0736875000000001,0.24021875,0.20953125,1.30965625,1.0443437500000001,-0.2261875,-0.27765625,1.29553125,0.019252152242279146,0.020067320131036126,True
59982,127787,1,127788,4407.0,42268.0,30606.0,-0.0008539999999999999,-0.001098,-0.002379,0.29750000000000004,-1.4525000000000001,-3.7975000000000003,1.07615625,0.241875,0.214,1.29934375,1.0451875,-0.22678125000000002,-0.27628125,1.2985625,0.01934455283860707,0.020195895942670378,True
59983,127788,1,127789,4403.0,42264.0,30605.0,-0.001586,-0.0015249999999999999,-0.0008539999999999999,0.35000000000000003,-1.4525000000000001,-3.7800000000000002,1.080125,0.24306250000000001,0.21415625,1.31334375,1.0422500000000001,-0.22634375,-0.273,1.30603125,0.019375860214152208,0.020069882173608538,True
59984,127789,1,127790,4397.0,42265.0,30603.0,0.0,-0.0021349999999999997,0.001952,0.2625,-1.4175000000000002,-3.8325000000000005,1.08196875,0.24259375,0.21434375,1.316375,1.04109375,-0.22334375,-0.2830625,1.3095937500000001,0.019235061220645888,0.020483670459605332,True
59985,127790,1,127791,4394.0,42264.0,30603.0,-0.000915,-0.0008539999999999999,0.00183,0.21000000000000002,-1.3650000000000002,-4.025,1.0765625,0.24309375,0.2105625,1.31115625,1.0362500000000001,-0.22171875,-0.28596875,1.28646875,0.01918990575348828,0.020445190188264573,True
59986,127791,1,127792,4392.0,42266.0,30602.0,-0.0044529999999999995,0.0018909999999999999,0.00061,0.42000000000000004,-1.2950000000000002,-3.7975000000000003,1.0754062500000001,0.24203125,0.21209375,1.30971875,1.0303125,-0.23425,-0.27253125,1.29178125,0.01965322838544622,0.01996598521219331,True
59987,127792,1,127793,4387.0,42262.0,30599.0,-0.004514,0.0015249999999999999,0.000122,0.385,-1.4175000000000002,-3.7100000000000004,1.07984375,0.23965625000000002,0.21321875,1.31046875,1.04821875,-0.22840625,-0.26778125,1.29190625,0.019318749040705064,0.01982051820250358,True
59988,127793,1,127794,4386.0,42262.0,30599.0,-0.0021349999999999997,0.000915,-0.000976,0.31500000000000006,-1.7850000000000001,-3.6750000000000003,1.082375,0.24015625000000002,0.21306250000000002,1.3104375,1.065125,-0.22868750000000002,-0.27071875,1.30153125,0.019350769619691535,0.01993271212868387,True
59989,127794,1,127795,4384.0,42263.0,30597.0,0.002928,0.0006709999999999999,-0.001647,0.4025,-2.0475000000000003,-3.6400000000000006,1.06909375,0.24231250000000001,0.21634375,1.31409375,1.063,-0.23946875,-0.27975,1.2801875,0.01987589971418,0.020432407664823567,True
59990,127795,1,127796,4381.0,42264.0,30599.0,0.0053679999999999995,-0.00061,-0.0015249999999999999,0.31500000000000006,-1.995,-3.7975000000000003,1.074625,0.243375,0.21409375,1.3175625,1.0295625,-0.230125,-0.2886875,1.29340625,0.0195417894047183,0.020700223097686935,True
59991,127796,1,127797,4379.0,42265.0,30599.0,0.0021349999999999997,-0.00042699999999999997,0.000244,0.31500000000000006,-1.6975000000000002,-3.7450000000000006,1.08190625,0.24265625000000002,0.21340625,1.31546875,1.03109375,-0.21715625,-0.27659375,1.3063437500000001,0.018987055922389733,0.020184050738172442,True
59992,127797,1,127798,4378.0,42265.0,30599.0,-0.001037,-0.0013419999999999999,6.1e-05,0.43750000000000006,-1.6975000000000002,-3.7450000000000006,1.0711875,0.24353125,0.2108125,1.31646875,1.0298125,-0.22918750000000002,-0.28934375,1.2834375,0.019510301366894786,0.020591591734544088,True
59993,127798,1,127799,4378.0,42264.0,30598.0,-0.001586,-0.001586,0.000244,0.29750000000000004,-1.5575,-3.7800000000000002,1.07553125,0.24340625000000002,0.211125,1.31175,1.0383437500000001,-0.2359375,-0.28003125,1.281,0.01977822190703372,0.02022881457370447,True
59994,127799,1,127800,4376.0,42263.0,30601.0,-0.001952,-0.000244,-0.000183,0.21000000000000002,-1.5750000000000002,-3.8500000000000005,1.07240625,0.24225,0.2124375,1.31003125,1.0486875,-0.237375,-0.2729375,1.28909375,0.01978865285535253,0.019996549655351768,True
59995,127800,1,127801,4375.0,42263.0,30600.0,-0.0011589999999999999,-0.000183,-0.000305,0.12250000000000001,-1.54,-3.7450000000000006,1.07565625,0.246125,0.21125,1.3115625,1.0473125,-0.22690625,-0.27315625,1.28890625,0.019525037374510005,0.01995645910284123,True
59996,127801,1,127802,4376.0,42263.0,30601.0,-0.001098,0.000183,0.00042699999999999997,0.10500000000000001,-1.2775,-3.8150000000000004,1.07634375,0.24196875,0.212,1.3099375,1.04478125,-0.22165625,-0.27665625,1.2989375,0.019140928894984217,0.020128647247291315,True
59997,127802,1,127803,4376.0,42262.0,30602.0,-0.001769,0.001037,0.003538,0.07,-1.1375000000000002,-3.8850000000000002,1.0758125,0.24281250000000001,0.212375,1.310625,1.0485625,-0.22634375,-0.276125,1.298,0.019365540869121036,0.020122651370430827,True
59998,127803,1,127804,4376.0,42263.0,30602.0,-0.001037,-0.000183,0.001586,0.22750000000000004,-1.2950000000000002,-3.8325000000000005,1.0793125000000001,0.2419375,0.2163125,1.31075,1.04125,-0.22546875,-0.273375,1.2965,0.01929400230903685,0.020173853038565916,True
59999,127804,1,127805,4376.0,42263.0,30602.0,0.000305,0.0008539999999999999,0.000488,0.21000000000000002,-1.4875,-3.7975000000000003,1.08021875,0.2436875,0.21365625,1.3145,1.04128125,-0.2259375,-0.27818750000000003,1.29178125,0.019385214710473022,0.020258668403479462,True
60000,127805,1,127806,4377.0,42261.0,30602.0,0.002806,-0.000244,-0.00183,0.31500000000000006,-1.5575,-3.7625,1.079875,0.24340625000000002,0.21246875,1.310625,1.04228125,-0.22943750000000002,-0.276125,1.2956875,0.019515259072770467,0.02012651318939905,True
60001,127806,1,127807,4376.0,42264.0,30601.0,0.001952,-0.000305,-0.001647,0.29750000000000004,-1.6625,-3.7100000000000004,1.0731875,0.24071875,0.21546875000000001,1.31565625,1.04296875,-0.2270625,-0.2725625,1.2910625,0.01930821163316849,0.020106292856388774,True
60002,127807,1,127808,4378.0,42263.0,30600.0,0.0015249999999999999,6.1e-05,-0.000732,0.28,-1.6450000000000002,-3.7275000000000005,1.07603125,0.24109375,0.21246875,1.3105625,1.04871875,-0.2264375,-0.27590625,1.2976875,0.019298390446387342,0.02011768355712776,True
60003,127808,1,127809,4378.0,42263.0,30599.0,0.000915,-0.000549,-0.00122,0.31500000000000006,-1.54,-3.7275000000000005,1.07990625,0.2414375,0.2131875,1.3108125,1.04184375,-0.225625,-0.27809375000000003,1.2964375000000001,0.019279688346533885,0.020235577597602777,True
60004,127809,1,127810,4378.0,42264.0,30601.0,-0.000488,-0.000366,0.000793,0.29750000000000004,-1.435,-3.6750000000000003,1.0789375,0.24231250000000001,0.21434375,1.3273125000000001,1.04065625,-0.22615625,-0.27975,1.2905312500000001,0.019337312331583763,0.020350034493765382,True
60005,127810,1,127811,4378.0,42262.0,30602.0,-0.002745,0.000793,0.000366,0.385,-1.3475000000000001,-3.6400000000000006,1.07590625,0.2441875,0.21025,1.30409375,1.0473125,-0.22953125,-0.2763125,1.28675,0.019551296519613848,0.02004268564264033,True
60006,127811,1,127812,4377.0,42264.0,30602.0,-0.002928,0.000793,-0.00042699999999999997,0.3325,-1.4000000000000001,-3.5700000000000003,1.06934375,0.23900000000000002,0.21184375,1.304,1.0341875,-0.22534375,-0.27884375,1.29646875,0.019167684669077194,0.02021049705054426,True
60007,127812,1,127813,4378.0,42265.0,30601.0,-0.0015249999999999999,0.000244,0.000244,0.2625,-1.5050000000000001,-3.5525,1.0688125,0.24075,0.20590625,1.305125,1.0406875,-0.22603125000000002,-0.27609375,1.28690625,0.019267755629597812,0.019854924147341458,True
60008,127813,1,127814,4376.0,42262.0,30600.0,0.0008539999999999999,0.0006709999999999999,-0.000793,0.28,-1.6450000000000002,-3.5700000000000003,1.07003125,0.2374375,0.21075,1.303625,1.0411875,-0.22571875,-0.27771875,1.29790625,0.01911836981100922,0.020120043198045535,True
60009,127814,1,127815,4378.0,42261.0,30599.0,0.002196,-0.000305,0.000488,0.1925,-1.8200000000000003,-3.5175000000000005,1.07021875,0.235125,0.21165625000000002,1.306875,1.041,-0.22603125000000002,-0.27884375,1.2959687500000001,0.019035567371358034,0.020202774277502406,True
60010,127815,1,127816,4378.0,42264.0,30600.0,0.001403,0.000488,0.002257,0.2625,-1.7325000000000002,-3.43,1.0674062500000001,0.23965625000000002,0.2068125,1.3095625,1.0406875,-0.22625,-0.27568750000000003,1.29790625,0.019231463804757237,0.01987585315554915,True
60011,127816,1,127817,4377.0,42262.0,30600.0,0.001464,0.000732,0.000549,0.1925,-1.8375000000000001,-3.3425000000000002,1.0691875,0.250125,0.20803125,1.3093125,1.04746875,-0.22715625,-0.27565625,1.2985312500000001,0.019700258877886255,0.019924796059838754,True
60012,127817,1,127818,4378.0,42262.0,30598.0,0.000183,-0.000122,-0.00122,0.29750000000000004,-1.6975000000000002,-3.3775000000000004,1.0695000000000001,0.24209375,0.21228125,1.30521875,1.0475,-0.22328125000000001,-0.27615625,1.2848125000000001,0.019211889388437,0.020120050924453906,True
60013,127818,1,127819,4379.0,42263.0,30599.0,0.000793,-0.000305,-0.001403,0.49000000000000005,-1.6625,-3.3600000000000003,1.06953125,0.24209375,0.20953125,1.30878125,1.04134375,-0.224625,-0.27540625,1.29928125,0.019266294111879956,0.019976493699255807,True
60014,127819,1,127820,4379.0,42264.0,30599.0,-0.000976,0.000183,-0.00183,0.43750000000000006,-1.4875,-3.3950000000000005,1.069625,0.2405625,0.21278125,1.30690625,1.04971875,-0.22615625,-0.278,1.29678125,0.01926507635729461,0.02021506096054041,True
60015,127820,1,127821,4380.0,42261.0,30599.0,-0.0008539999999999999,-0.000732,0.001281,0.24500000000000002,-1.1725,-3.6050000000000004,1.08071875,0.24053125,0.21553125,1.31459375,1.0415625,-0.2270625,-0.27828125,1.28665625,0.01930047235400495,0.02033968117079952,True
60016,127821,1,127822,4380.0,42262.0,30601.0,-0.003721,0.00042699999999999997,0.0017079999999999999,0.22750000000000004,-1.2775,-3.5000000000000004,1.0791250000000001,0.24296875,0.21721875000000002,1.302125,1.0415625,-0.22540625,-0.2784375,1.29371875,0.019334041095802057,0.020415492141946944,True
60017,127822,1,127823,4380.0,42264.0,30603.0,-0.00244,0.0006709999999999999,0.0018909999999999999,0.29750000000000004,-1.1900000000000002,-3.5175000000000005,1.06753125,0.24396875,0.2105,1.31346875,1.041,-0.226625,-0.276625,1.29096875,0.019424651597158088,0.020065598080458057,True
60018,127823,1,127824,4381.0,42264.0,30603.0,-0.0023179999999999997,0.000793,0.000549,0.4025,-1.4875,-3.6575,1.06728125,0.246375,0.21178125,1.31859375,1.04028125,-0.22978125,-0.27087500000000003,1.2915625,0.0196516941315762,0.0198862319549666,True
60019,127824,1,127825,4382.0,42262.0,30602.0,-0.0032329999999999998,0.0006709999999999999,6.1e-05,0.3325,-1.7500000000000002,-3.5700000000000003,1.0765,0.243125,0.21481250000000002,1.31096875,1.04134375,-0.2270625,-0.27984375,1.29265625,0.0194075323824339,0.020373123282558192,True
60020,127825,1,127826,4384.0,42264.0,30603.0,0.0025009999999999998,0.0006709999999999999,-0.0026839999999999998,0.31500000000000006,-2.0475000000000003,-3.535,1.0758125,0.2436875,0.21140625000000002,1.3159687500000001,1.04221875,-0.22484375,-0.276125,1.29140625,0.019340940021542966,0.02008274590775917,True
60021,127826,1,127827,4385.0,42263.0,30605.0,0.005063,-0.000732,-0.0023179999999999997,0.29750000000000004,-2.205,-3.4825000000000004,1.07203125,0.240875,0.210125,1.30965625,1.04134375,-0.22571875,-0.275875,1.2975,0.019260264465837573,0.020019875699640075,True
60022,127827,1,127828,4387.0,42266.0,30607.0,0.0042699999999999995,-0.000122,-0.000183,0.28,-2.1175,-3.5000000000000004,1.0755625,0.24740625,0.21034375,1.31540625,1.0484375,-0.2260625,-0.27571875,1.29090625,0.019543776459752797,0.020022579146086045,True
60023,127828,1,127829,4388.0,42265.0,30608.0,0.0023179999999999997,-0.0011589999999999999,0.000549,0.31500000000000006,-2.0125,-3.5875000000000004,1.0818125,0.2494375,0.21346875,1.31078125,1.04175,-0.22859375,-0.277125,1.29715625,0.019730045207431816,0.020208066235190534,True
60024,127829,1,127830,4388.0,42266.0,30611.0,0.000183,-0.000793,0.0018909999999999999,0.2625,-1.8025000000000002,-3.7100000000000004,1.07546875,0.24334375,0.213875,1.31703125,1.0463125,-0.2293125,-0.2780625,1.2906250000000001,0.01950762119230581,0.020262634219678773,True
60025,127830,1,127831,4390.0,42268.0,30611.0,-0.0028669999999999998,0.000793,0.000488,0.36750000000000005,-1.8550000000000002,-3.6050000000000004,1.0831250000000001,0.24296875,0.21453125,1.3062500000000001,1.0419375,-0.22428125000000002,-0.275125,1.296625,0.019288497981751265,0.020171111374297765,True
60026,127831,1,127832,4391.0,42269.0,30613.0,-0.002013,0.000488,0.000183,0.3325,-1.6800000000000002,-3.6050000000000004,1.082125,0.24096875,0.210875,1.3089375,1.0421875,-0.2259375,-0.27640625,1.29803125,0.019272989951369272,0.020072215178059974,True
60027,127832,1,127833,4393.0,42271.0,30616.0,-0.000305,-6.1e-05,-0.001037,0.21000000000000002,-1.435,-3.7100000000000004,1.07596875,0.2403125,0.21231250000000002,1.3101562500000001,1.04846875,-0.22590625,-0.27634375,1.29828125,0.01924463610107465,0.020128906355595663,True
60028,127833,1,127834,4395.0,42270.0,30614.0,-0.00183,0.0,-0.000915,0.24500000000000002,-1.3475000000000001,-3.7275000000000005,1.076,0.24109375,0.21175,1.3104375,1.04871875,-0.22693750000000001,-0.2755,1.29565625,0.01931863034690208,0.020071677205412863,True
60029,127834,1,127835,4396.0,42270.0,30616.0,-0.000793,-0.000244,-0.00061,0.21000000000000002,-1.4525000000000001,-3.7100000000000004,1.075625,0.24025,0.2131875,1.3110625,1.046,-0.22603125000000002,-0.2758125,1.29565625,0.01924711667330983,0.020143507040186606,True
60030,127835,1,127836,4398.0,42271.0,30618.0,0.0017079999999999999,-6.1e-05,-0.000366,0.2625,-1.6800000000000002,-3.6925000000000003,1.08040625,0.24103125,0.21359375,1.3109375,1.041875,-0.2255625,-0.27596875,1.2965312500000001,0.01926038869066508,0.020166548451336263,True
60031,127836,1,127837,4400.0,42274.0,30620.0,0.002745,0.000122,-0.00122,0.385,-1.6450000000000002,-3.6400000000000006,1.0751875,0.241375,0.21146875,1.3134375,1.0486875,-0.226,-0.276,1.2905625,0.01929228927598448,0.02008027475696161,True
60032,127837,1,127838,4402.0,42274.0,30619.0,0.00183,-0.000305,6.1e-05,0.29750000000000004,-1.61,-3.6750000000000003,1.0753125000000001,0.244,0.21459375,1.31065625,1.044625,-0.22803125,-0.2749375,1.291,0.01948285624734779,0.0201661178324352,True
60033,127838,1,127839,4403.0,42274.0,30618.0,0.000244,-0.001098,0.0006709999999999999,0.2625,-1.5575,-3.8150000000000004,1.0778125,0.2425,0.2135,1.31496875,1.0419375,-0.22621875,-0.27559375,1.2909375,0.01934758184250276,0.02014755045898723,True
60034,127839,1,127840,4405.0,42272.0,30620.0,-0.000732,0.000305,0.0015249999999999999,0.35000000000000003,-1.5050000000000001,-3.7275000000000005,1.07846875,0.24403125,0.214625,1.31096875,1.0421875,-0.2288125,-0.27859375000000003,1.2966875,0.019515762483200527,0.0203149636704144,True
60035,127840,1,127841,4405.0,42274.0,30621.0,-0.0015249999999999999,0.001037,0.001098,0.22750000000000004,-1.2950000000000002,-3.7625,1.076625,0.24253125,0.21321875,1.31390625,1.0501875,-0.22621875,-0.2759375,1.2910625,0.019348871767287248,0.020149839733274975,True
60036,127841,1,127842,4407.0,42271.0,30622.0,-0.000732,0.000122,0.0,0.2625,-1.33,-3.6575,1.0795000000000001,0.241375,0.2141875,1.3110625,1.03309375,-0.225125,-0.26828125,1.2989375,0.019256866579635816,0.019880631225171745,True
60037,127842,1,127843,4411.0,42273.0,30622.0,-0.000366,-0.000549,0.000122,0.1925,-1.3475000000000001,-3.7275000000000005,1.076375,0.24403125,0.213875,1.3114375,1.05096875,-0.23,-0.28009375000000003,1.3000625000000001,0.01956381551795295,0.02034459813401668,True
60038,127843,1,127844,4412.0,42274.0,30620.0,-0.0017079999999999999,-0.000915,-0.0006709999999999999,0.31500000000000006,-1.4000000000000001,-3.8675,1.0768125,0.244125,0.21384375,1.31928125,1.0499687500000001,-0.22609375,-0.276125,1.2883125,0.019409598379846113,0.020183153200933016,True
60039,127844,1,127845,4414.0,42274.0,30620.0,0.000305,0.0011589999999999999,0.0,0.36750000000000005,-1.4525000000000001,-3.8150000000000004,1.08390625,0.24184375,0.21275,1.31028125,1.03640625,-0.216875,-0.27815625,1.2951875,0.018942111647353342,0.02022007952107154,True
60040,127845,1,127846,4416.0,42275.0,30623.0,0.002196,0.0,-0.0015249999999999999,0.12250000000000001,-1.8550000000000002,-3.7275000000000005,1.06828125,0.2489375,0.22078125,1.332125,1.05184375,-0.22725,-0.27415625,1.2814375,0.019655037199847278,0.020389483156597873,True
60041,127846,1,127847,4414.0,42276.0,30623.0,0.002074,-0.0008539999999999999,-0.0006709999999999999,0.28,-1.9250000000000003,-3.7975000000000003,1.08646875,0.2439375,0.22003125,1.31425,1.04859375,-0.22809375,-0.27678125,1.2895625,0.019482805988399316,0.0204645127739082,True
60042,127847,1,127848,4420.0,42276.0,30625.0,0.001769,-6.1e-05,-0.000183,0.3325,-1.9775000000000003,-3.8850000000000002,1.0965,0.2379375,0.21306250000000002,1.30359375,1.0388125,-0.22846875,-0.2813125,1.301125,0.01925033954116477,0.020360307952875283,True
60043,127848,1,127849,4420.0,42275.0,30628.0,-0.00042699999999999997,-0.001037,-0.000366,0.24500000000000002,-1.7675,-3.8850000000000002,1.06290625,0.24871875000000002,0.21065625000000002,1.3274375,1.0385625,-0.22584375,-0.2750625,1.289125,0.01958910099880422,0.020008959812152904,True
60044,127849,1,127850,4423.0,42277.0,30630.0,-0.001586,-0.000549,0.001281,0.14,-1.6975000000000002,-3.8325000000000005,1.0975625,0.23275,0.21025,1.3039687500000001,1.049125,-0.23046875,-0.2739375,1.30090625,0.01911720135418346,0.019946805086731398,True
60045,127850,1,127851,4424.0,42280.0,30628.0,-0.001403,0.000183,0.002013,0.2625,-1.4875,-3.8675,1.0634375,0.2484375,0.21003125,1.32965625,1.04684375,-0.2259375,-0.27596875,1.28890625,0.019581285553964628,0.020019798386006735,True
60046,127851,1,127852,4426.0,42277.0,30627.0,-6.1e-05,0.001586,-0.001403,0.4025,-1.6625,-3.7975000000000003,1.087625,0.24171875,0.21715625,1.29265625,1.04259375,-0.22928125,-0.27728125,1.29534375,0.019439288980146695,0.020366263211618885,True
60047,127852,1,127853,4428.0,42279.0,30629.0,-0.000549,0.000915,-0.003294,0.45500000000000007,-1.7325000000000002,-3.8150000000000004,1.07725,0.2358125,0.216125,1.30134375,1.03009375,-0.2244375,-0.277125,1.29715625,0.018999409171007585,0.02031747993224074,True
60048,127853,1,127854,4429.0,42277.0,30631.0,0.00042699999999999997,-0.00061,-0.001464,0.28,-1.8200000000000003,-3.8500000000000005,1.08265625,0.24353125,0.21246875,1.302,1.04065625,-0.22484375,-0.27771875,1.2963437500000001,0.01933449003154045,0.020190838564681866,True
60049,127854,1,127855,4430.0,42278.0,30634.0,0.000488,-0.0025009999999999998,-0.000366,0.17500000000000002,-1.7325000000000002,-3.7450000000000006,1.06425,0.24028125,0.2053125,1.31203125,1.043625,-0.226125,-0.26828125,1.29684375,0.019252201910128015,0.019514927535298775,True
60050,127855,1,127856,4433.0,42279.0,30634.0,0.001769,-0.000366,0.001647,0.22750000000000004,-1.995,-3.7450000000000006,1.06490625,0.245875,0.21309375,1.323125,1.04759375,-0.22771875,-0.2759375,1.29084375,0.019547599792077,0.020144690601547315,True
60051,127856,1,127857,4436.0,42280.0,30635.0,0.001952,0.001403,0.000183,0.28,-1.9600000000000002,-3.8500000000000005,1.07315625,0.2451875,0.2131875,1.30503125,1.0485,-0.228625,-0.27771875,1.2905,0.01955589720836407,0.020220443899820695,True
60052,127857,1,127858,4437.0,42281.0,30634.0,0.000122,0.000488,-0.001403,0.28,-1.8025000000000002,-3.7450000000000006,1.07553125,0.24340625000000002,0.21909375,1.31309375,1.042,-0.22803125,-0.27409375,1.2958125,0.019458349509929744,0.020317442334999634,True
60053,127858,1,127859,4438.0,42280.0,30636.0,0.000183,0.0011589999999999999,-0.000122,0.28,-1.6450000000000002,-3.5875000000000004,1.0739375,0.24071875,0.21406250000000002,1.31146875,1.0415,-0.22459375,-0.27568750000000003,1.291125,0.019208268456514365,0.02017450587135792,True
60054,127859,1,127860,4441.0,42284.0,30637.0,0.000244,0.0018909999999999999,0.000732,0.47250000000000003,-1.54,-3.6400000000000006,1.08328125,0.24359375,0.2134375,1.31075,1.04475,-0.22212500000000002,-0.27603125,1.296875,0.019226998044143528,0.02016263469754761,True
60055,127860,1,127861,4443.0,42284.0,30638.0,0.001037,0.002745,-0.00061,0.31500000000000006,-1.5050000000000001,-3.7275000000000005,1.07346875,0.24281250000000001,0.21178125,1.3065625,1.04928125,-0.22746875,-0.27575,1.2925,0.019411076528578743,0.020083056136267676,True
60056,127861,1,127862,4445.0,42286.0,30638.0,0.0,0.0013419999999999999,-0.00122,0.29750000000000004,-1.5050000000000001,-3.6050000000000004,1.076625,0.24421875,0.21421875,1.311375,1.04821875,-0.22828125,-0.27618750000000003,1.28759375,0.019502002437750306,0.020201123014064713,True
60057,127862,1,127863,4447.0,42288.0,30639.0,-0.000305,0.000122,-0.0017079999999999999,0.42000000000000004,-1.4525000000000001,-3.43,1.07603125,0.24065625000000002,0.21040625000000002,1.31009375,1.04928125,-0.22843750000000002,-0.2718125,1.2863125,0.01936128774296733,0.019867438824356445,True
60058,127863,1,127864,4450.0,42286.0,30641.0,0.001037,-0.000488,-0.0013419999999999999,0.36750000000000005,-1.4525000000000001,-3.4475000000000002,1.0758125,0.244875,0.21575,1.30896875,1.04846875,-0.227875,-0.27675,1.2914375,0.01951264813773391,0.02028690001750646,True
60059,127864,1,127865,4451.0,42288.0,30642.0,0.002196,-0.002745,0.00042699999999999997,0.31500000000000006,-1.0675000000000001,-3.8325000000000005,1.07646875,0.241375,0.2139375,1.31140625,1.0486875,-0.22559375,-0.27575,1.29790625,0.01927584334233294,0.020171879344613453,True
60060,127865,1,127866,4453.0,42289.0,30641.0,0.0025009999999999998,-0.003538,0.001586,0.22750000000000004,-0.5950000000000001,-3.9375000000000004,1.083625,0.2435,0.21459375,1.31871875,1.0439687500000001,-0.21846875000000002,-0.27725,1.29375,0.019075060226505857,0.020259450720324586,True
60061,127866,1,127867,4455.0,42288.0,30641.0,0.00244,-0.0025009999999999998,0.001403,0.29750000000000004,0.0,-4.130000000000001,1.07765625,0.24409375,0.2193125,1.3168125,1.041875,-0.2261875,-0.27940625,1.29065625,0.01941210312187999,0.02054081326638702,True
60062,127867,1,127868,4456.0,42287.0,30640.0,-0.000122,-0.000305,-0.000549,0.45500000000000007,0.5950000000000001,-4.322500000000001,1.07696875,0.245625,0.21540625,1.3179687500000001,1.03328125,-0.22775,-0.28084375,1.29134375,0.01953854567592946,0.020437922384801806,True
60063,127868,1,127869,4455.0,42286.0,30635.0,-0.001769,0.0025009999999999998,-0.000122,0.36750000000000005,1.12,-4.48,1.07678125,0.24378125,0.211625,1.31303125,1.0455625,-0.22846875,-0.27768750000000003,1.29146875,0.01949153307511437,0.020154823230177917,True
60064,127869,1,127870,4454.0,42284.0,30631.0,-0.007625,0.000915,-0.000549,0.2625,1.8900000000000001,-4.7075000000000005,1.0756875000000001,0.2429375,0.21456250000000002,1.31084375,1.0469375,-0.227875,-0.27678125,1.29196875,0.019432678268316968,0.0202392460903358,True
60065,127870,1,127871,4451.0,42281.0,30628.0,-0.013054,0.001647,-6.1e-05,0.10500000000000001,1.6450000000000002,-4.777500000000001,1.075375,0.247875,0.213,1.3121562500000001,1.04740625,-0.2255,-0.2754375,1.2978750000000001,0.019540360364079173,0.020120646641280923,True
60066,127871,1,127872,4451.0,42279.0,30625.0,-0.015555,0.0006709999999999999,0.0028669999999999998,0.07,0.9625000000000001,-4.567500000000001,1.07965625,0.24346875,0.214375,1.3159687500000001,1.04228125,-0.2248125,-0.27896875,1.291375,0.019330644974032307,0.02031979838517647,True
60067,127872,1,127873,4449.0,42278.0,30621.0,-0.009882,-0.001281,0.0037819999999999998,-0.052500000000000005,-0.22750000000000004,-4.235,1.08171875,0.24556250000000002,0.214125,1.31853125,1.04084375,-0.2265,-0.27828125,1.2911875,0.01948537758239944,0.02028175903102696,True
60068,127873,1,127874,4444.0,42276.0,30617.0,0.001281,-0.002074,0.002806,-0.10500000000000001,-1.4700000000000002,-3.99,1.0820625,0.24371875,0.21490625,1.3179375,1.0415,-0.22553125000000002,-0.27765625,1.29084375,0.019370060254096596,0.02028871712029451,True
60069,127874,1,127875,4440.0,42274.0,30616.0,0.011956,-0.0053679999999999995,0.003172,-0.052500000000000005,-2.87,-3.325,1.081625,0.24209375,0.2135,1.3110625,1.04259375,-0.22209375,-0.27503125,1.2950625,0.019163805771332216,0.02012484535936488,True
60070,127875,1,127876,4435.0,42273.0,30610.0,0.012565999999999999,-0.000976,-0.000244,0.17500000000000002,-3.1325000000000003,-3.1675000000000004,1.0765,0.2479375,0.21503125,1.31815625,1.04621875,-0.22903125,-0.27740625,1.2921562500000001,0.019685836593239775,0.02028377722599588,True
60071,127876,1,127877,4430.0,42274.0,30610.0,0.008296,0.004941,-0.004026,0.42000000000000004,-3.7625,-2.87,1.08290625,0.24121875,0.21309375,1.3064375,1.0428125,-0.22509375,-0.2760625,1.3028125,0.019249151512571547,0.02014973597963014,True
60072,127877,1,127878,4426.0,42274.0,30605.0,0.0073809999999999995,0.006954,-0.004941,0.6300000000000001,-3.7800000000000002,-2.555,1.07640625,0.2425,0.211375,1.31121875,1.0521562500000001,-0.2320625,-0.2760625,1.2881875,0.019584073786537978,0.02007893578293432,True
60073,127878,1,127879,4423.0,42273.0,30604.0,0.0077469999999999995,0.003111,-0.0040869999999999995,0.5075000000000001,-3.0975,-2.4675000000000002,1.07646875,0.24471875,0.21346875,1.31646875,1.04221875,-0.22990625,-0.28328125,1.29265625,0.019588396054978547,0.020456461171201895,True
60074,127879,1,127880,4421.0,42272.0,30602.0,-0.0044529999999999995,-0.0046359999999999995,0.003538,0.4025,-1.33,-2.7825,1.07625,0.24471875,0.215125,1.318125,1.0363125,-0.22303125000000001,-0.28265625,1.293875,0.019310134853580723,0.0204994562734462,True
60075,127880,1,127881,4416.0,42271.0,30603.0,-0.01159,-0.00183,0.004026,0.43750000000000006,-0.9625000000000001,-2.8175000000000003,1.0813125000000001,0.2439375,0.213875,1.3062500000000001,1.03584375,-0.2196875,-0.27434375,1.2976875,0.019142484807039728,0.020112541662429085,True
60076,127881,1,127882,4413.0,42271.0,30603.0,-0.014152,-0.000305,0.002013,0.5075000000000001,-0.7875000000000001,-2.9225000000000003,1.082875,0.240875,0.2144375,1.31146875,1.04403125,-0.224,-0.27309375,1.2930625,0.019190678665786,0.020085253862623095,True
60077,127882,1,127883,4410.0,42270.0,30602.0,-0.012383,0.0,0.000976,0.4025,-0.8575,-2.975,1.0735000000000001,0.2411875,0.2135,1.31190625,1.05825,-0.2249375,-0.27421875,1.29203125,0.01924153571087645,0.020092047246628688,True
60078,127883,1,127884,4410.0,42270.0,30602.0,-0.006222,0.000305,-0.000244,0.35000000000000003,-1.155,-3.0275000000000003,1.07734375,0.24059375,0.21334375,1.31253125,1.058125,-0.227,-0.27253125,1.29496875,0.019300522144714574,0.020017483755428268,True
60079,127884,1,127885,4406.0,42269.0,30604.0,0.00244,0.001586,0.0013419999999999999,0.24500000000000002,-1.54,-3.4475000000000002,1.0769375,0.24071875,0.2105,1.317375,1.05946875,-0.231875,-0.274625,1.28553125,0.019502979030718837,0.019984860734202897,True
60080,127885,1,127886,4406.0,42270.0,30602.0,0.004209,0.002379,-0.000305,0.1925,-1.6975000000000002,-3.535,1.07603125,0.24521875,0.21471875,1.317,1.0361562500000001,-0.22271875,-0.28140625,1.30659375,0.01931812464280047,0.020432300950444335,True
60081,127886,1,127887,4404.0,42270.0,30600.0,0.0059169999999999995,0.001098,-0.001586,0.24500000000000002,-1.6975000000000002,-3.6925000000000003,1.0681875,0.2434375,0.2185,1.31084375,1.0325,-0.2229375,-0.27803125,1.299,0.019253445210763557,0.020451874572819818,True
60082,127887,1,127888,4403.0,42269.0,30600.0,0.007259,0.000244,-0.000793,0.24500000000000002,-2.0125,-3.8150000000000004,1.08178125,0.2415,0.21206250000000001,1.31171875,1.0500625000000001,-0.2255,-0.27365625,1.29471875,0.01927720790076572,0.02001011899474353,True
60083,127888,1,127889,4402.0,42271.0,30600.0,0.003843,0.001281,-0.003721,0.43750000000000006,-2.765,-3.8675,1.0753125000000001,0.243125,0.2129375,1.3156875000000001,1.04265625,-0.2255625,-0.27434375,1.2911875,0.01934681599240472,0.020073920638946214,True
60084,127889,1,127890,4402.0,42269.0,30602.0,0.00549,0.0,-0.002806,0.45500000000000007,-2.7475,-3.9550000000000005,1.07853125,0.239625,0.2136875,1.31090625,1.042,-0.22071875,-0.27584375,1.2936875,0.01900619691560557,0.02016536500404852,True
60085,127890,1,127891,4402.0,42269.0,30600.0,0.005856,-0.00122,-0.000549,0.2625,-2.2575000000000003,-4.025,1.0694062500000001,0.2445,0.21471875,1.3117812500000001,1.046125,-0.22621875,-0.2725,1.2955,0.019430137028709854,0.020072870532495624,True
60086,127891,1,127892,4401.0,42271.0,30603.0,0.0018909999999999999,-0.002257,0.000488,0.17500000000000002,-1.3650000000000002,-4.077500000000001,1.07696875,0.2439375,0.211625,1.3141562500000001,1.04890625,-0.22540625,-0.27584375,1.2905625,0.019374030105274293,0.020080404002435548,True
60087,127892,1,127893,4405.0,42269.0,30601.0,-0.004392,-0.001464,0.002074,0.1925,-0.6825000000000001,-4.340000000000001,1.0759375,0.24428125,0.2146875,1.31459375,1.04353125,-0.22893750000000002,-0.27778125,1.29203125,0.019531139159527734,0.020284751103439486,True
60088,127893,1,127894,4403.0,42271.0,30603.0,-0.008173999999999999,-0.00042699999999999997,0.0028669999999999998,0.21000000000000002,-0.4025,-4.445,1.08278125,0.24190625000000002,0.21253125,1.3110625,1.04178125,-0.2246875,-0.2765,1.29471875,0.019261084379313457,0.0201442238378679,True
60089,127894,1,127895,4403.0,42269.0,30601.0,-0.004331,-0.000366,0.001037,0.28,-0.2625,-4.375,1.0765625,0.24846875000000002,0.21371875,1.31,1.038875,-0.22790625,-0.27740625,1.29128125,0.019662243822658014,0.02022971461376769,True
60090,127895,1,127896,4402.0,42267.0,30600.0,-0.0025009999999999998,-0.000732,6.1e-05,0.31500000000000006,-0.43750000000000006,-4.375,1.0789375,0.24153125,0.21371875,1.31175,1.0428125,-0.22503125000000002,-0.27678125,1.29690625,0.019259521079049175,0.02020449065915606,True
60091,127896,1,127897,4404.0,42266.0,30599.0,-0.00244,-0.0008539999999999999,-0.0018909999999999999,0.22750000000000004,-0.665,-4.322500000000001,1.076625,0.24309375,0.212125,1.31103125,1.04765625,-0.22584375,-0.27209375,1.2902500000000001,0.01935691094350429,0.019949607767150292,True
60092,127897,1,127898,4403.0,42267.0,30600.0,-0.001952,0.00042699999999999997,-0.0017079999999999999,0.22750000000000004,-0.9800000000000001,-4.322500000000001,1.07690625,0.24406250000000002,0.21378125,1.322875,1.04840625,-0.22778125000000002,-0.27718750000000003,1.2914375,0.019475318236167417,0.02022346081068905,True
60093,127898,1,127899,4403.0,42269.0,30601.0,0.0013419999999999999,0.002257,-0.002013,0.28,-1.4700000000000002,-4.4275,1.07575,0.244375,0.21581250000000002,1.3159375,1.04221875,-0.22596875,-0.27884375,1.29309375,0.019414858280951096,0.020373962413263606,True
60094,127899,1,127900,4405.0,42270.0,30600.0,0.006222,-0.000793,-0.000244,0.035,-1.7850000000000001,-4.235,1.0872187500000001,0.2426875,0.21490625,1.3095,1.0430625,-0.22496875,-0.276625,1.29296875,0.019304720465325678,0.020247099833687755,True
60095,127900,1,127901,4404.0,42265.0,30600.0,0.005063,-0.001464,0.000488,0.0175,-1.7850000000000001,-4.095000000000001,1.08621875,0.2399375,0.21675,1.30934375,1.0421562500000001,-0.22571875,-0.27678125,1.29959375,0.01922156592361166,0.020329352763764758,True
60096,127901,1,127902,4403.0,42268.0,30597.0,0.0008539999999999999,-0.00061,0.000915,0.035,-1.7500000000000002,-4.165,1.0850312500000001,0.24284375,0.21528125,1.309625,1.03534375,-0.22440625,-0.27725,1.29525,0.01928839845145843,0.020287769413751558,True
60097,127902,1,127903,4401.0,42267.0,30598.0,-0.000366,-0.000549,0.002013,0.24500000000000002,-1.61,-4.0075,1.08753125,0.24496875,0.21546875000000001,1.3141875,1.04196875,-0.22746875,-0.2775625,1.29484375,0.019500076746564787,0.02030810341853718,True
60098,127903,1,127904,4402.0,42267.0,30599.0,-0.0011589999999999999,-0.0006709999999999999,-6.1e-05,0.22750000000000004,-1.6800000000000002,-4.0075,1.0884375,0.2365625,0.2144375,1.30946875,1.042625,-0.22440625,-0.27821875,1.29728125,0.019029104170509854,0.020292108538646395,True
60099,127904,1,127905,4401.0,42266.0,30597.0,-0.000122,0.000305,-0.000793,0.12250000000000001,-1.61,-3.9025000000000003,1.08690625,0.2371875,0.214125,1.309375,1.04,-0.22509375,-0.278125,1.29509375,0.0190827434878348,0.02027545372634831,True
60100,127905,1,127906,4401.0,42265.0,30596.0,-0.0015249999999999999,0.0,0.001281,0.14,-1.5050000000000001,-3.8500000000000005,1.08725,0.2425,0.21553125,1.3095,1.0423437500000001,-0.2245625,-0.27718750000000003,1.29321875,0.019280533962171657,0.020295544943169385,True
60101,127906,1,127907,4401.0,42264.0,30598.0,-0.001647,-0.001403,0.001037,0.17500000000000002,-1.715,-3.8850000000000002,1.08309375,0.2418125,0.2096875,1.31071875,1.0424375000000001,-0.2254375,-0.2758125,1.2946875,0.01928757736573385,0.019999330609428625,True
60102,127907,1,127908,4401.0,42264.0,30597.0,-0.0025009999999999998,0.000732,0.00061,0.21000000000000002,-2.0475000000000003,-3.9025000000000003,1.0729375,0.24490625,0.21371875,1.31278125,1.045375,-0.22596875,-0.27718750000000003,1.2921562500000001,0.0194367872285809,0.02022088637738618,True
60103,127908,1,127909,4401.0,42265.0,30595.0,-0.000305,0.000915,0.000122,0.1925,-2.0125,-3.9375000000000004,1.07978125,0.24381250000000002,0.2146875,1.31725,1.04296875,-0.22609375,-0.27278125000000003,1.29128125,0.019396699065444674,0.020082937549647302,True
60104,127909,1,127910,4400.0,42265.0,30598.0,0.000244,-0.000732,-0.0021349999999999997,0.14,-1.995,-3.99,1.0813125000000001,0.24381250000000002,0.214875,1.31746875,1.04271875,-0.226125,-0.27728125,1.29165625,0.019397963974841212,0.020272296758929706,True
60105,127910,1,127911,4402.0,42267.0,30597.0,0.000183,0.000732,0.000732,0.1925,-1.9425000000000001,-3.9375000000000004,1.08221875,0.24353125,0.21456250000000002,1.31509375,1.0424375000000001,-0.22387500000000002,-0.280125,1.29478125,0.019295271710244543,0.020374174350420354,True
60106,127911,1,127912,4401.0,42265.0,30598.0,-0.000244,0.0013419999999999999,0.000183,0.17500000000000002,-1.8725000000000003,-3.9200000000000004,1.0826875,0.24353125,0.21421875,1.317,1.04140625,-0.22428125000000002,-0.280625,1.291,0.01931171848493957,0.0203801899662797,True
60107,127912,1,127913,4402.0,42266.0,30600.0,0.00122,0.001403,0.001037,0.22750000000000004,-1.8550000000000002,-3.9025000000000003,1.0763125,0.2429375,0.214375,1.320625,1.03996875,-0.228875,-0.27240625,1.3170625,0.01947314928984528,0.020054923479208002,True
60108,127913,1,127914,4401.0,42269.0,30600.0,0.002562,-0.00061,0.0013419999999999999,0.17500000000000002,-1.7675,-3.6750000000000003,1.06834375,0.24459375,0.21309375,1.310375,1.03109375,-0.21890625,-0.2860625,1.26990625,0.019137941045541642,0.020553197950470562,True
60109,127914,1,127915,4404.0,42269.0,30600.0,0.00061,0.000549,-0.001403,0.2625,-1.54,-3.7975000000000003,1.07665625,0.24125,0.21340625,1.3118750000000001,1.05009375,-0.23165625,-0.27196875,1.301375,0.019516051446132575,0.019997347763559558,True
60110,127915,1,127916,4405.0,42266.0,30598.0,0.00061,-0.000183,0.000915,0.29750000000000004,-1.3650000000000002,-3.8150000000000004,1.0812187500000001,0.24609375,0.2164375,1.3190625,1.0538750000000001,-0.22003125,-0.2848125,1.28909375,0.019245433467390757,0.020640472311655687,True
60111,127916,1,127917,4404.0,42269.0,30601.0,-0.003172,6.1e-05,-0.000793,0.29750000000000004,-1.225,-3.7975000000000003,1.07571875,0.24653125,0.2124375,1.3045625,1.023875,-0.231,-0.28015625,1.2809062500000001,0.01970745119887747,0.020287915157053405,True
60112,127917,1,127918,4406.0,42266.0,30601.0,-0.003477,-0.000915,-0.00122,0.28,-1.2775,-3.7100000000000004,1.07703125,0.24159375,0.21059375,1.311125,1.0511875,-0.23700000000000002,-0.27275,1.282,0.019746410446837483,0.019913019744363533,True
60113,127918,1,127919,4406.0,42268.0,30602.0,-0.002257,-0.0015249999999999999,0.000488,0.29750000000000004,-1.4525000000000001,-3.6050000000000004,1.07665625,0.24584375,0.21075,1.31140625,1.05271875,-0.23996875,-0.27371875,1.29359375,0.020041795639691162,0.01995857144880201,True
60114,127919,1,127920,4407.0,42268.0,30602.0,0.000488,0.000915,-0.000793,0.5075000000000001,-1.7500000000000002,-3.5000000000000004,1.08225,0.24378125,0.21409375,1.3126875,1.05171875,-0.22103125,-0.27868750000000003,1.3033125,0.019190450447893297,0.020296865306248538,True
60115,127920,1,127921,4408.0,42271.0,30603.0,0.000183,0.000793,-0.001037,0.5075000000000001,-1.715,-3.5875000000000004,1.0771875,0.240375,0.213375,1.311375,1.0381562500000001,-0.2216875,-0.2693125,1.3003437500000001,0.01907639589520755,0.01988879989904947,True
60116,127921,1,127922,4412.0,42268.0,30606.0,0.000976,6.1e-05,0.000488,0.4025,-1.6800000000000002,-3.5700000000000003,1.07709375,0.2449375,0.21640625,1.318875,1.0591875,-0.234125,-0.277,1.28375,0.01976809560898114,0.02032402067800799,True
60117,127922,1,127923,4413.0,42267.0,30603.0,-0.000366,0.000183,-0.000305,0.385,-1.7500000000000002,-3.6575,1.070875,0.24528125,0.21156250000000001,1.316875,1.03278125,-0.2264375,-0.2755625,1.28890625,0.019471238806778753,0.02006647631749007,True
60118,127923,1,127924,4414.0,42269.0,30604.0,0.00061,0.000915,-0.00042699999999999997,0.3325,-1.8025000000000002,-3.5700000000000003,1.06515625,0.24446875,0.2154375,1.31715625,1.0461562500000001,-0.22718750000000001,-0.27634375,1.29146875,0.019468056290066687,0.020257632494596722,True
60119,127924,1,127925,4414.0,42268.0,30607.0,0.001281,0.001281,-0.001586,0.4025,-1.9075000000000002,-3.5700000000000003,1.07634375,0.245625,0.21240625,1.3138750000000001,1.04971875,-0.2256875,-0.275875,1.2921562500000001,0.019455072224472476,0.02011384759560675,True
60120,127925,1,127926,4418.0,42270.0,30607.0,0.0006709999999999999,0.00183,-0.00042699999999999997,0.3325,-1.8725000000000003,-3.7275000000000005,1.0775000000000001,0.24415625,0.214375,1.3145625,1.04684375,-0.22790625,-0.27634375,1.2921562500000001,0.019484246600962474,0.02021386560733636,True
60121,127926,1,127927,4418.0,42271.0,30608.0,0.000366,0.000488,-0.000244,0.28,-1.6275000000000002,-3.7450000000000006,1.07571875,0.24603125,0.21278125,1.311375,1.0375625,-0.22903125,-0.27596875,1.2939687500000001,0.019607160315169434,0.020133079138190933,True
60122,127927,1,127928,4419.0,42272.0,30608.0,-0.0015249999999999999,0.000183,-0.000549,0.24500000000000002,-1.54,-3.7100000000000004,1.07728125,0.2436875,0.21225,1.3119687500000001,1.0488125,-0.2215,-0.27571875,1.2965,0.01920556117498916,0.020101104112519842,True
60123,127928,1,127929,4420.0,42273.0,30608.0,-0.00061,-0.0008539999999999999,-6.1e-05,0.3325,-1.4700000000000002,-3.7800000000000002,1.076625,0.242875,0.214125,1.312125,1.0465625,-0.22478125000000002,-0.27640625,1.29890625,0.01930486988401598,0.02020609001795725,True
60124,127929,1,127930,4424.0,42272.0,30609.0,0.0013419999999999999,-0.000732,0.000183,0.15750000000000003,-1.5225000000000002,-3.6225000000000005,1.0798125,0.24203125,0.21453125,1.31371875,1.041875,-0.22037500000000002,-0.2785,1.29221875,0.019091622239540057,0.020307319233066293,True
60125,127930,1,127931,4423.0,42272.0,30611.0,0.000793,-0.0013419999999999999,0.000793,0.21000000000000002,-1.4875,-3.5875000000000004,1.08103125,0.24440625,0.21431250000000002,1.3190625,1.0413125,-0.227375,-0.28015625,1.28590625,0.01947306507617932,0.02036513871281203,True
60126,127931,1,127932,4425.0,42273.0,30608.0,0.001952,-0.000732,-0.000488,0.24500000000000002,-1.4525000000000001,-3.6750000000000003,1.07190625,0.245125,0.2155,1.32790625,1.04221875,-0.22809375,-0.27671875,1.29196875,0.019531819336797804,0.020275340958093854,True
60127,127932,1,127933,4426.0,42275.0,30614.0,-6.1e-05,0.000732,0.000244,0.17500000000000002,-1.2950000000000002,-3.7800000000000002,1.07509375,0.24546875,0.21284375,1.3261875,1.04821875,-0.2278125,-0.27628125,1.29084375,0.01953462575294406,0.02014826714861857,True
60128,127933,1,127934,4429.0,42275.0,30613.0,-0.005612,0.000305,0.0017079999999999999,0.42000000000000004,-1.5750000000000002,-3.8325000000000005,1.07953125,0.25384375,0.2179375,1.320875,1.04984375,-0.22865625,-0.27175,1.2916875,0.019914434998845633,0.020175203683294365,True
60129,127934,1,127935,4428.0,42276.0,30612.0,-0.002257,0.001281,0.0006709999999999999,0.29750000000000004,-1.8725000000000003,-3.7800000000000002,1.0798125,0.24596875,0.2163125,1.3249375,1.04678125,-0.22784375,-0.27659375,1.29184375,0.019556527806978283,0.02030376481461696,True
60130,127935,1,127936,4428.0,42276.0,30615.0,0.000488,0.001403,-0.000793,0.31500000000000006,-1.9075000000000002,-3.7975000000000003,1.06846875,0.24581250000000002,0.21771875000000002,1.3163125,1.03440625,-0.22775,-0.27471875,1.2914375,0.019546284735478946,0.020286022881315566,True
60131,127936,1,127937,4432.0,42278.0,30615.0,0.002928,-0.00042699999999999997,-0.002074,0.385,-1.9250000000000003,-3.7975000000000003,1.0836875,0.2391875,0.20828125,1.307125,1.0423125,-0.224625,-0.27818750000000003,1.298375,0.01914632321449764,0.020037276258781673,True
60132,127937,1,127938,4434.0,42277.0,30615.0,0.0030499999999999998,-0.00183,-0.0011589999999999999,0.21000000000000002,-1.8900000000000001,-3.7800000000000002,1.07071875,0.24740625,0.2091875,1.32496875,1.04659375,-0.226,-0.27346875,1.29334375,0.01954124700734748,0.01988410700469005,True
60133,127938,1,127939,4436.0,42279.0,30617.0,0.001586,-0.000488,-0.001281,0.15750000000000003,-1.6275000000000002,-3.9025000000000003,1.065625,0.24659375,0.21784375,1.3278125,1.0481875,-0.228375,-0.2764375,1.291625,0.019603821964948125,0.02036053477780667,True
60134,127939,1,127940,4438.0,42279.0,30617.0,0.001952,-0.0015249999999999999,0.000732,0.17500000000000002,-1.4875,-3.8675,1.08103125,0.24471875,0.217125,1.30740625,1.045,-0.22775,-0.27715625,1.29140625,0.01950114022144029,0.020359931983384587,True
60135,127940,1,127941,4439.0,42278.0,30615.0,0.000549,-0.001281,0.002257,0.14,-1.4175000000000002,-3.9725000000000006,1.084375,0.23940625000000001,0.21103125,1.3073125,1.0425312500000001,-0.22453125000000002,-0.27896875,1.2979687500000001,0.019151557370176153,0.02018207630832755,True
60136,127941,1,127942,4440.0,42277.0,30616.0,-0.001098,-0.000732,0.0025009999999999998,0.15750000000000003,-1.33,-4.025,1.08453125,0.23565625,0.2155,1.306875,1.04275,-0.22325,-0.27946875,1.29428125,0.018944867018257254,0.020386308905543906,True
60137,127942,1,127943,4442.0,42278.0,30618.0,-0.0028669999999999998,0.00061,0.000732,0.31500000000000006,-1.225,-4.0075,1.083875,0.243,0.21640625,1.31234375,1.042625,-0.228625,-0.27925,1.2922500000000001,0.019465611441012436,0.02041480894179186,True
60138,127943,1,127944,4442.0,42279.0,30617.0,-0.0011589999999999999,0.004209,-0.003904,0.49000000000000005,-1.225,-3.99,1.0819375,0.24475,0.21531250000000002,1.31515625,1.03925,-0.228125,-0.28021875,1.291375,0.01951760608796595,0.020408846192952856,True
60139,127944,1,127945,4444.0,42278.0,30620.0,-0.0048189999999999995,0.0011589999999999999,-0.0046359999999999995,0.28,-1.33,-3.9725000000000006,1.0714062500000001,0.24325,0.21975,1.31109375,1.0424375000000001,-0.2239375,-0.27768750000000003,1.2983125,0.019286191602830877,0.020489492666877766,True
60140,127945,1,127946,4446.0,42278.0,30621.0,-0.000488,-0.002745,0.000793,0.035,-1.05,-3.9025000000000003,1.0715625,0.245375,0.2124375,1.3070625,1.04790625,-0.22409375,-0.27609375,1.29190625,0.0193802399728576,0.020123964548456236,True
60141,127946,1,127947,4447.0,42281.0,30620.0,0.000305,-0.004575,0.0055509999999999995,-0.10500000000000001,-0.8750000000000001,-3.8850000000000002,1.0765625,0.245,0.2146875,1.31784375,1.044625,-0.22590625,-0.27309375,1.28390625,0.01943812731463864,0.020095553332586624,True
60142,127947,1,127948,4450.0,42280.0,30622.0,-0.000366,-0.002257,0.0030499999999999998,0.14,-1.3475000000000001,-3.9200000000000004,1.0825,0.244375,0.215,1.31625,1.04240625,-0.227625,-0.2805,1.2916875,0.019481893086920405,0.020407322748707813,True
60143,127948,1,127949,4451.0,42281.0,30625.0,0.0018909999999999999,0.001464,0.0017079999999999999,0.28,-1.7325000000000002,-3.6925000000000003,1.08275,0.2405,0.21225,1.31134375,1.04209375,-0.22415625,-0.27559375,1.29646875,0.019181524640306098,0.020096058412577448,True
60144,127949,1,127950,4451.0,42278.0,30625.0,-0.0013419999999999999,0.001037,-0.003172,0.42000000000000004,-1.9250000000000003,-3.6050000000000004,1.07653125,0.24540625,0.2115,1.31803125,1.0455,-0.22175,-0.27478125000000003,1.29125,0.01928664320290648,0.020032363834380586,True
60145,127950,1,127951,4454.0,42280.0,30625.0,0.002074,0.0013419999999999999,-0.00366,0.4025,-2.2750000000000004,-3.4825000000000004,1.0773125000000001,0.244125,0.21356250000000002,1.31221875,1.04421875,-0.22696875,-0.27640625,1.29153125,0.0194450141435874,0.020182919372590417,True
60146,127951,1,127952,4457.0,42283.0,30627.0,0.004026,0.0021349999999999997,-0.000549,0.47250000000000003,-2.1875,-3.3600000000000003,1.08296875,0.2404375,0.2145,1.3119375,1.04196875,-0.2241875,-0.2765,1.2963437500000001,0.01918020986255989,0.020225320783473732,True
60147,127952,1,127953,4459.0,42282.0,30629.0,0.0053679999999999995,0.002928,0.000732,0.5075000000000001,-2.1525000000000003,-3.4475000000000002,1.075625,0.244375,0.211,1.31703125,1.0481875,-0.22475,-0.27603125,1.2919375,0.019365524928017835,0.020062227016617473,True
60148,127953,1,127954,4459.0,42284.0,30631.0,0.0018909999999999999,-0.000976,-0.002074,0.31500000000000006,-1.7675,-3.5525,1.077125,0.24478125,0.21528125,1.31878125,1.045625,-0.2273125,-0.27653125,1.291375,0.01948601397699394,0.020258763286044004,True
60149,127954,1,127955,4462.0,42284.0,30630.0,-0.00122,-0.000915,-0.001037,0.2625,-1.3475000000000001,-3.4825000000000004,1.08128125,0.24321875,0.214,1.31259375,1.04240625,-0.22721875,-0.27903125,1.29684375,0.019417726188648874,0.020306874888181548,True
60150,127955,1,127956,4465.0,42286.0,30632.0,-0.005612,-0.000183,-0.000488,0.36750000000000005,-1.3650000000000002,-3.4475000000000002,1.0808125,0.24171875,0.21121875,1.3115,1.0425,-0.22496875,-0.27584375,1.297375,0.01926473073365678,0.0200636692596936,True
60151,127956,1,127957,4467.0,42286.0,30632.0,-0.006344,0.000244,0.0011589999999999999,0.385,-1.1900000000000002,-3.4475000000000002,1.0749375,0.24421875,0.21503125,1.3178125,1.04728125,-0.22590625,-0.27471875,1.29096875,0.019405878779044643,0.02017531099098728,True
60152,127957,1,127958,4470.0,42286.0,30633.0,-0.003294,-0.000793,0.0040869999999999995,0.22750000000000004,-1.0675000000000001,-3.3600000000000003,1.084125,0.24371875,0.2141875,1.311375,1.0422500000000001,-0.22628125000000002,-0.27875,1.29759375,0.01940041870850484,0.02030324872573753,True
60153,127958,1,127959,4471.0,42285.0,30634.0,-0.001586,-0.003538,0.0021349999999999997,0.15750000000000003,-1.5225000000000002,-3.4650000000000003,1.07909375,0.24328125,0.210625,1.3115625,1.0423437500000001,-0.22428125000000002,-0.27625,1.296375,0.019301398261300323,0.020055609906801913,True
60154,127959,1,127960,4471.0,42286.0,30631.0,0.000305,-0.000915,0.000976,0.3325,-1.8550000000000002,-3.3950000000000005,1.077125,0.24581250000000002,0.21371875,1.316625,1.0483437500000001,-0.224875,-0.2758125,1.293,0.019429924819013514,0.02016539096271237,True
60155,127960,1,127961,4470.0,42284.0,30628.0,0.002013,0.001952,-0.0025009999999999998,0.56,-2.0475000000000003,-3.4475000000000002,1.07690625,0.24471875,0.214,1.31603125,1.0480625000000001,-0.22718750000000001,-0.27634375,1.2921562500000001,0.019478375275710398,0.020198418470656232,True
60156,127961,1,127962,4469.0,42284.0,30626.0,0.003172,0.0034159999999999998,-0.002989,0.5950000000000001,-2.1875,-3.4475000000000002,1.0804375,0.2439375,0.2144375,1.3119375,1.0421875,-0.22578125000000002,-0.27878125,1.29153125,0.01938920958431423,0.020314806782156743,True
60157,127962,1,127963,4466.0,42281.0,30621.0,0.004514,0.002379,-0.0032329999999999998,0.42000000000000004,-2.0825,-3.4650000000000003,1.0795000000000001,0.24290625000000002,0.21378125,1.3115,1.042875,-0.2248125,-0.27518750000000003,1.30103125,0.01930742498006951,0.02014273834136194,True
60158,127963,1,127964,4463.0,42280.0,30619.0,0.001098,0.000488,-0.000305,0.29750000000000004,-1.9775000000000003,-3.6575,1.0801875,0.24284375,0.21684375,1.31146875,1.0429375,-0.22446875,-0.2754375,1.3029375,0.01929092872263711,0.020278985703141295,True
60159,127964,1,127965,4460.0,42277.0,30614.0,-0.000366,0.000244,0.0011589999999999999,0.17500000000000002,-1.8025000000000002,-3.7100000000000004,1.07678125,0.24215625000000002,0.21240625,1.31228125,1.05109375,-0.22409375,-0.27503125,1.299,0.019247366065035975,0.020079788774731235,True
60160,127965,1,127966,4457.0,42276.0,30611.0,-0.000793,-0.000976,0.002623,0.14,-1.435,-3.7275000000000005,1.076875,0.2415,0.21140625000000002,1.312,1.05090625,-0.2245625,-0.274875,1.2949375,0.01923925354689068,0.02003228646903434,True
60161,127966,1,127967,4451.0,42275.0,30607.0,-0.00244,-0.0017079999999999999,0.0025009999999999998,0.17500000000000002,-1.2950000000000002,-3.7100000000000004,1.07765625,0.24496875,0.214625,1.31225,1.0510625,-0.2305625,-0.27403125,1.28934375,0.019625266644140018,0.020130823964396107,True
60162,127967,1,127968,4446.0,42275.0,30604.0,-0.0035989999999999998,-0.002989,0.002379,0.24500000000000002,-1.2600000000000002,-3.5175000000000005,1.0772187500000001,0.2385625,0.20090625,1.34359375,1.03740625,-0.22296875,-0.274375,1.28559375,0.01905345520457727,0.019579546332294858,True
60163,127968,1,127969,4441.0,42274.0,30604.0,-0.0008539999999999999,-0.000732,6.1e-05,0.28,-1.6975000000000002,-3.535,1.0749375,0.245125,0.22240625,1.3196875000000001,1.0403437500000001,-0.22793750000000002,-0.27309375,1.2901562500000001,0.019525496134369675,0.02041354946771052,True
60164,127969,1,127970,4438.0,42273.0,30600.0,0.001464,0.000366,-0.001586,0.17500000000000002,-1.8200000000000003,-3.535,1.09740625,0.2456875,0.2188125,1.31765625,1.04528125,-0.2226875,-0.27890625,1.2896875,0.019336211145026743,0.02050004826720726,True
60165,127970,1,127971,4432.0,42269.0,30599.0,0.003294,0.00061,-0.002806,0.24500000000000002,-1.9425000000000001,-3.5525,1.0971250000000001,0.24015625000000002,0.2191875,1.3128125,1.03984375,-0.22871875,-0.2805625,1.28965625,0.01935203445291551,0.020582307349757654,True
60166,127971,1,127972,4426.0,42271.0,30594.0,0.0028669999999999998,0.002013,-0.001586,0.3325,-1.8375000000000001,-3.6750000000000003,1.098875,0.24653125,0.2214375,1.3289375,1.0393125,-0.22953125,-0.27709375,1.28209375,0.019648027652206437,0.020535046539497753,True
60167,127972,1,127973,4422.0,42269.0,30594.0,0.001647,0.0025009999999999998,-0.000366,0.31500000000000006,-1.7500000000000002,-3.7450000000000006,1.090125,0.2483125,0.20578125,1.31140625,1.047375,-0.2273125,-0.27575,1.2980625000000001,0.019631768897189896,0.01983589590434899,True
60168,127973,1,127974,4418.0,42270.0,30594.0,-0.000183,-0.000549,-0.001403,0.21000000000000002,-1.4525000000000001,-3.6925000000000003,1.05803125,0.236875,0.21225,1.3025,1.0460625000000001,-0.2235625,-0.276125,1.29621875,0.01900783586229317,0.02011750227847319,True
60169,127974,1,127975,4415.0,42267.0,30593.0,0.000976,-0.000915,-0.0008539999999999999,0.31500000000000006,-1.5225000000000002,-3.6575,1.0986875,0.24431250000000002,0.21565625,1.33034375,1.03940625,-0.22525,-0.27653125,1.2901562500000001,0.01938318490005263,0.020274210303418038,True
60170,127975,1,127976,4413.0,42266.0,30590.0,6.1e-05,-0.000732,0.001586,0.22750000000000004,-1.3650000000000002,-3.5875000000000004,1.0656875000000001,0.235875,0.2134375,1.30646875,1.0408125,-0.225,-0.27815625,1.293,0.019024767801857585,0.020248397157424176,True
60171,127976,1,127977,4410.0,42264.0,30590.0,-0.001647,-6.1e-05,0.002013,0.1925,-1.3475000000000001,-3.7625,1.09509375,0.240625,0.21934375,1.3049375,1.04296875,-0.22746875,-0.27868750000000003,1.29125,0.01932078645236102,0.020513104343058086,True
60172,127977,1,127978,4408.0,42264.0,30588.0,-0.001952,-0.000122,0.00183,0.24500000000000002,-1.3650000000000002,-3.6925000000000003,1.088375,0.244125,0.21725,1.31875,1.04190625,-0.22446875,-0.27128125000000003,1.29259375,0.01934381945940507,0.02012795472014894,True
60173,127978,1,127979,4406.0,42266.0,30591.0,-0.001952,0.000488,-0.0017079999999999999,0.3325,-1.54,-3.5875000000000004,1.07228125,0.24606250000000002,0.212875,1.308,1.04821875,-0.2261875,-0.27671875,1.28896875,0.01949336848812881,0.020167212671605386,True
60174,127979,1,127980,4403.0,42266.0,30591.0,-0.001464,-0.000122,-0.0026839999999999998,0.31500000000000006,-1.715,-3.6575,1.0789375,0.24234375,0.21403125,1.3125625,1.0501562500000001,-0.22465625,-0.27515625,1.2926250000000001,0.019277879330073053,0.020151775542124474,True
60175,127980,1,127981,4404.0,42266.0,30593.0,0.001464,-6.1e-05,-0.002196,0.5075000000000001,-1.8375000000000001,-3.6400000000000006,1.08375,0.24465625,0.21275,1.31534375,1.04190625,-0.22409375,-0.27671875,1.2923437500000001,0.019350569100237237,0.02016206370558212,True
60176,127981,1,127982,4403.0,42267.0,30592.0,0.002745,0.000305,-0.000793,0.35000000000000003,-1.995,-3.7100000000000004,1.07678125,0.24115625000000002,0.21359375,1.3173125,1.04971875,-0.2249375,-0.27540625,1.29896875,0.019240245717868212,0.020143844142670116,True
60177,127982,1,127983,4401.0,42266.0,30592.0,0.004148,-0.00042699999999999997,0.000183,0.15750000000000003,-1.8900000000000001,-3.7625,1.0645,0.245125,0.21071875,1.3124375,1.04290625,-0.22609375,-0.278375,1.2858125,0.019450876185930718,0.02014524242252622,True
60178,127983,1,127984,4402.0,42268.0,30592.0,0.000122,0.000305,0.0017079999999999999,0.24500000000000002,-1.2600000000000002,-3.6575,1.07703125,0.24934375,0.21315625,1.31121875,1.0478125,-0.22578125000000002,-0.2755625,1.2920625000000001,0.019612370602083266,0.020132128761177006,True
60179,127984,1,127985,4402.0,42268.0,30593.0,-0.00183,0.000732,0.0008539999999999999,0.21000000000000002,-1.1375000000000002,-3.7450000000000006,1.0821875,0.24409375,0.2144375,1.3178125,1.04190625,-0.22365625,-0.27115625,1.2914375,0.01930963662845075,0.02000702994938694,True
60180,127985,1,127986,4400.0,42269.0,30592.0,-0.0018909999999999999,-0.000793,0.00122,0.35000000000000003,-1.0150000000000001,-3.7100000000000004,1.07403125,0.24471875,0.21071875,1.3123125,1.04265625,-0.22646875,-0.27659375,1.2858125,0.01944928519555703,0.02007334739866461,True
60181,127986,1,127987,4400.0,42271.0,30592.0,-0.002623,-0.000244,0.000244,0.385,-1.2075,-3.8500000000000005,1.08034375,0.24403125,0.21453125,1.31884375,1.0498125,-0.22478125000000002,-0.27709375,1.2921562500000001,0.019352599933177932,0.020250570560984057,True
60182,127987,1,127988,4402.0,42270.0,30593.0,-0.00042699999999999997,-0.000549,-0.002806,0.35000000000000003,-1.3650000000000002,-3.8500000000000005,1.074625,0.24278125,0.21378125,1.3118750000000001,1.04496875,-0.22590625,-0.2720625,1.29928125,0.019346541473551686,0.02001658285116891,True
60183,127988,1,127989,4399.0,42268.0,30593.0,0.001037,0.000549,-0.001037,0.3325,-1.435,-3.6925000000000003,1.08271875,0.244125,0.2151875,1.31834375,1.02915625,-0.224,-0.27653125,1.29221875,0.019324843130779392,0.020254901531700495,True
60184,127989,1,127990,4400.0,42267.0,30592.0,0.00183,-0.0015249999999999999,-0.00122,0.385,-1.4700000000000002,-3.7800000000000002,1.0769375,0.24378125,0.21746875000000002,1.3126875,1.04671875,-0.225125,-0.2755625,1.2985312500000001,0.019356195272470213,0.020309776549976958,True
60185,127990,1,127991,4400.0,42268.0,30591.0,0.0025009999999999998,-0.000732,-0.000732,0.42000000000000004,-1.5925000000000002,-3.7975000000000003,1.08453125,0.2434375,0.214125,1.31190625,1.0425,-0.22440625,-0.2755,1.2998750000000001,0.019312908856125213,0.020169512471421805,True
60186,127991,1,127992,4399.0,42269.0,30592.0,0.0025009999999999998,6.1e-05,0.0008539999999999999,0.28,-1.54,-3.8500000000000005,1.07790625,0.2431875,0.214625,1.31246875,1.0414375,-0.21975,-0.27853125,1.29740625,0.019114049484408386,0.020312441676223723,True
60187,127992,1,127993,4398.0,42268.0,30591.0,-0.000183,0.000244,0.002013,0.2625,-1.1725,-3.7450000000000006,1.08434375,0.24390625000000002,0.21440625,1.31546875,1.04190625,-0.22425,-0.27765625,1.2983125,0.019325933723438292,0.020268122051526286,True
60188,127993,1,127994,4397.0,42267.0,30591.0,-0.0028669999999999998,0.000549,0.001403,0.3325,-1.0675000000000001,-3.6575,1.0808125,0.2451875,0.2139375,1.32025,1.04221875,-0.22346875,-0.27834375,1.29184375,0.01934719815881035,0.020276558198085486,True
60189,127994,1,127995,4400.0,42268.0,30591.0,-0.0021349999999999997,0.000366,0.000976,0.29750000000000004,-1.1375000000000002,-3.6575,1.0835000000000001,0.2444375,0.21496875000000001,1.307625,1.0425,-0.2236875,-0.27646875,1.295125,0.019325092432768545,0.0202433683852805,True
60190,127995,1,127996,4396.0,42266.0,30591.0,-0.001281,0.0017079999999999999,-0.000366,0.36750000000000005,-1.54,-3.7625,1.0830625,0.24225,0.21456250000000002,1.30975,1.04278125,-0.224125,-0.27521875,1.29534375,0.019252501380338814,0.0201761827583943,True
60191,127996,1,127997,4397.0,42265.0,30588.0,0.001403,0.0018909999999999999,-0.001769,0.36750000000000005,-1.7850000000000001,-3.7275000000000005,1.07634375,0.24471875,0.2114375,1.3198750000000001,1.04925,-0.2255625,-0.2760625,1.29165625,0.01941260393850504,0.020081510335541442,True
60192,127997,1,127998,4396.0,42265.0,30589.0,0.003111,0.000488,-0.000366,0.24500000000000002,-1.4875,-3.6750000000000003,1.0775937500000001,0.24471875,0.21481250000000002,1.3123125,1.0435625,-0.2258125,-0.27784375,1.30078125,0.0194227231800791,0.02029242197425379,True
60193,127998,1,127999,4394.0,42265.0,30587.0,0.001098,-0.0006709999999999999,0.001037,0.22750000000000004,-1.3475000000000001,-3.6225000000000005,1.0833125000000001,0.24381250000000002,0.21365625,1.312125,1.0459375,-0.2245,-0.27590625,1.2962500000000001,0.019332184358810296,0.020166600371510333,True
60194,127999,1,128000,4395.0,42262.0,30586.0,-0.000793,-0.00042699999999999997,0.002074,0.24500000000000002,-1.0850000000000002,-3.6050000000000004,1.07090625,0.2426875,0.21275,1.31865625,1.06071875,-0.23278125,-0.27453125,1.28903125,0.0196208906066034,0.020073765585071804,True
60195,128000,1,128001,4394.0,42265.0,30588.0,-0.0028669999999999998,-0.001586,0.000915,0.14,-0.805,-3.5875000000000004,1.0665625,0.24446875,0.21506250000000002,1.31540625,1.03590625,-0.22075,-0.275625,1.295125,0.01920744609477411,0.020213176797713756,True
60196,128001,1,128002,4395.0,42264.0,30588.0,-0.0025009999999999998,-0.0018909999999999999,-0.000366,0.12250000000000001,-0.77,-3.5000000000000004,1.082125,0.24275,0.21475,1.31315625,1.04675,-0.22265625,-0.27221875,1.30040625,0.019213675213675216,0.020062803282044416,True
60197,128002,1,128003,4395.0,42264.0,30589.0,-0.0013419999999999999,-0.000488,-0.000732,0.3325,-1.0850000000000002,-3.43,1.0806875,0.24290625000000002,0.21175,1.3101562500000001,1.05659375,-0.2278125,-0.2765,1.280125,0.019428858878613165,0.020112042510246536,True
60198,128003,1,128004,4395.0,42265.0,30591.0,-0.00366,-0.0008539999999999999,-0.000549,0.43750000000000006,-1.3825,-3.5175000000000005,1.0765,0.24525,0.21484375,1.3171875,1.03684375,-0.22925,-0.28096875,1.30621875,0.019583767553679955,0.020419798942330092,True
60199,128004,1,128005,4397.0,42266.0,30591.0,-0.000732,0.00042699999999999997,-0.001647,0.56,-2.0125,-3.6400000000000006,1.08228125,0.24496875,0.21409375,1.31321875,1.03875,-0.22203125,-0.28134375,1.30671875,0.01927996852039401,0.020404039624042632,True
60200,128005,1,128006,4396.0,42268.0,30593.0,0.001769,0.000305,-0.000549,0.35000000000000003,-2.1700000000000004,-3.6225000000000005,1.07834375,0.245,0.21184375,1.30546875,1.0370625,-0.22062500000000002,-0.28021875,1.28659375,0.01922431811730705,0.020265982982546234,True
60201,128006,1,128007,4398.0,42267.0,30593.0,0.003965,0.000732,-0.000366,0.385,-2.0825,-3.5875000000000004,1.07671875,0.24506250000000002,0.21346875,1.312125,1.0365625,-0.23134375000000001,-0.2758125,1.2875,0.0196607441549749,0.020155092646229656,True
60202,128007,1,128008,4397.0,42268.0,30594.0,0.000183,0.000366,0.001403,0.24500000000000002,-1.54,-3.6750000000000003,1.0765625,0.245875,0.21453125,1.3155625,1.0509375,-0.22159375,-0.27925,1.284875,0.019299669329149737,0.020337582503578158,True
60203,128008,1,128009,4400.0,42265.0,30592.0,-0.002806,0.0013419999999999999,0.001403,0.24500000000000002,-1.5225000000000002,-3.6925000000000003,1.0765625,0.24490625,0.21181250000000001,1.3035,1.04540625,-0.2256875,-0.2744375,1.2865312500000001,0.019425403303827807,0.02003136014995198,True
60204,128009,1,128010,4399.0,42268.0,30593.0,-0.0018909999999999999,0.000549,-0.000732,0.3325,-1.6625,-3.5525,1.07709375,0.2439375,0.2136875,1.312875,1.04740625,-0.2235625,-0.27246875,1.295125,0.019299390830725252,0.020029122501187685,True
60205,128010,1,128011,4401.0,42266.0,30595.0,0.000915,0.000976,0.0,0.4025,-1.7500000000000002,-3.5175000000000005,1.07646875,0.24231250000000001,0.21356250000000002,1.3134375,1.048875,-0.22312500000000002,-0.274625,1.2974375,0.019214593492788402,0.020111021282512086,True
60206,128011,1,128012,4402.0,42269.0,30595.0,0.0018909999999999999,0.0,-0.000915,0.36750000000000005,-1.7325000000000002,-3.5700000000000003,1.08278125,0.24128125,0.21506250000000002,1.306,1.042375,-0.224,-0.2785625,1.299375,0.01920744922391017,0.02033172268745318,True
60207,128012,1,128013,4404.0,42269.0,30597.0,-0.001586,0.000366,0.0,0.42000000000000004,-1.8025000000000002,-3.5525,1.0823125,0.24428125,0.22178125,1.31409375,1.0421562500000001,-0.2240625,-0.27718750000000003,1.29590625,0.019333823548382936,0.020552988273456307,True
60208,128013,1,128014,4404.0,42268.0,30599.0,-0.0006709999999999999,-6.1e-05,0.000793,0.42000000000000004,-1.6975000000000002,-3.5700000000000003,1.0831250000000001,0.24528125,0.21453125,1.30153125,1.04246875,-0.22246875,-0.27821875,1.29765625,0.019310583278180513,0.02029597002457192,True
60209,128014,1,128015,4407.0,42270.0,30600.0,0.0013419999999999999,-0.0006709999999999999,0.001098,0.35000000000000003,-1.6275000000000002,-3.4650000000000003,1.08153125,0.24231250000000001,0.21571875000000001,1.3125625,1.0424375000000001,-0.22421875,-0.2748125,1.298125,0.019258877027767924,0.020207416638130575,True
60210,128015,1,128016,4406.0,42272.0,30597.0,0.001098,-0.000305,0.000122,0.4025,-1.4875,-3.4825000000000004,1.0714062500000001,0.24271875,0.211875,1.3000625000000001,1.04778125,-0.22337500000000002,-0.275875,1.28525,0.01924148678703938,0.02009196372942273,True
60211,128016,1,128017,4409.0,42271.0,30600.0,0.00061,-0.000122,-0.00122,0.36750000000000005,-1.435,-3.535,1.0766875,0.24515625,0.21240625,1.3115937500000001,1.0510625,-0.22521875,-0.27584375,1.2886875,0.019416749332758863,0.020112586200016217,True
60212,128017,1,128018,4412.0,42270.0,30600.0,-0.00061,-0.000732,-6.1e-05,0.36750000000000005,-1.3825,-3.5525,1.07684375,0.24556250000000002,0.21325,1.31540625,1.051375,-0.22840625,-0.2755625,1.29284375,0.01956252281348469,0.020135990669629178,True
60213,128018,1,128019,4413.0,42271.0,30601.0,-0.00183,-0.00061,-0.001098,0.36750000000000005,-1.5050000000000001,-3.5525,1.0757812500000001,0.2410625,0.20971875,1.31203125,1.04859375,-0.22471875,-0.27584375,1.29771875,0.019227519411345075,0.02000187944033871,True
60214,128019,1,128020,4413.0,42273.0,30603.0,-0.000122,-6.1e-05,0.0011589999999999999,0.31500000000000006,-1.4000000000000001,-3.5525,1.0766875,0.23959375,0.213875,1.3117812500000001,1.0495625,-0.22384375,-0.27475,1.29921875,0.019131460092909492,0.020128940565814272,True
60215,128020,1,128021,4416.0,42274.0,30604.0,0.000305,0.000183,0.00061,0.22750000000000004,-1.4000000000000001,-3.6050000000000004,1.08434375,0.24009375,0.21390625,1.3003125,1.043,-0.2199375,-0.2779375,1.2925312500000001,0.01899390739550835,0.02025887701539721,True
60216,128021,1,128022,4418.0,42274.0,30606.0,-0.000122,-0.001403,0.000976,0.17500000000000002,-1.435,-3.535,1.08578125,0.2383125,0.21456250000000002,1.31090625,1.03596875,-0.2238125,-0.278125,1.2989375,0.01907730255095064,0.02029347406358605,True
60217,128022,1,128023,4420.0,42275.0,30605.0,-0.003111,-0.000732,0.000244,0.3325,-1.6275000000000002,-3.5875000000000004,1.08065625,0.24525,0.21640625,1.30934375,1.0436875,-0.2245,-0.275125,1.29775,0.019391525108877376,0.020248350935371084,True
60218,128023,1,128024,4420.0,42274.0,30604.0,-6.1e-05,0.002257,-0.000183,0.385,-1.7325000000000002,-3.6050000000000004,1.07471875,0.24025,0.21531250000000002,1.31096875,1.04971875,-0.2245,-0.27428125000000003,1.30021875,0.0191851224999484,0.020169237760644304,True
60219,128024,1,128025,4422.0,42275.0,30608.0,0.0015249999999999999,0.001647,-0.0013419999999999999,0.4025,-1.8550000000000002,-3.5000000000000004,1.08559375,0.24309375,0.215625,1.3180625000000001,1.04221875,-0.224125,-0.27853125,1.29209375,0.01928733235978596,0.02035363032926467,True
60220,128025,1,128026,4423.0,42275.0,30607.0,0.002745,0.001037,-0.003477,0.35000000000000003,-1.8375000000000001,-3.5525,1.08484375,0.245375,0.215,1.3211875,1.04309375,-0.22515625,-0.27634375,1.2930625,0.019423249334047123,0.020239610835136573,True
60221,128026,1,128027,4424.0,42276.0,30609.0,0.0032329999999999998,-0.000305,-0.000549,0.2625,-1.6800000000000002,-3.6050000000000004,1.074125,0.24615625,0.211,1.31065625,1.0475,-0.22287500000000002,-0.27625,1.2950625,0.019363153630607435,0.020071057103135777,True
60222,128027,1,128028,4424.0,42276.0,30608.0,-0.00183,-6.1e-05,0.000915,0.15750000000000003,-1.0850000000000002,-3.5875000000000004,1.07434375,0.2421875,0.213,1.31090625,1.0465,-0.22453125000000002,-0.27509375,1.2959687500000001,0.019266368673284445,0.02010677095737272,True
60223,128028,1,128029,4425.0,42276.0,30609.0,-0.002379,-0.00061,0.002196,0.28,-0.8925000000000001,-3.6050000000000004,1.0825,0.24325,0.21381250000000002,1.3096875000000001,1.042375,-0.2239375,-0.27565625,1.295,0.019286191602830877,0.020162946161342187,True
60224,128029,1,128030,4429.0,42277.0,30611.0,-0.002257,0.000549,0.000305,0.36750000000000005,-1.0675000000000001,-3.6050000000000004,1.0744375,0.2418125,0.2131875,1.31090625,1.04471875,-0.2236875,-0.27525,1.2961875,0.01921672742847265,0.020120802051472177,True
60225,128030,1,128031,4429.0,42278.0,30612.0,-0.002745,-0.000122,-0.000366,0.22750000000000004,-1.3650000000000002,-3.6575,1.08125,0.24103125,0.21428125,1.3134375,1.041375,-0.2236875,-0.27609375,1.29546875,0.019184475939098868,0.020199913752598685,True
60226,128031,1,128032,4430.0,42279.0,30613.0,-0.00061,-0.0015249999999999999,-0.00122,0.31500000000000006,-1.5225000000000002,-3.7100000000000004,1.0820625,0.24306250000000001,0.2106875,1.312375,1.0425,-0.2240625,-0.27178125000000003,1.2803437500000001,0.019283512003818518,0.019877764430659577,True
60227,128032,1,128033,4432.0,42278.0,30613.0,0.001464,-0.00061,-0.00061,0.24500000000000002,-1.5925000000000002,-3.6225000000000005,1.074375,0.24521875,0.214875,1.31865625,1.04778125,-0.228375,-0.27953125,1.2921562500000001,0.019547070325599634,0.020363088764326947,True
60228,128033,1,128034,4433.0,42279.0,30614.0,0.001281,-0.00061,0.0026839999999999998,0.24500000000000002,-1.5575,-3.6400000000000006,1.07328125,0.24225,0.21384375,1.31109375,1.04265625,-0.22459375,-0.2765625,1.2894375,0.019271479010870927,0.020200810967368216,True
60229,128034,1,128035,4435.0,42283.0,30615.0,-0.000244,0.001098,0.001403,0.2625,-1.435,-3.6925000000000003,1.07715625,0.24246875,0.21403125,1.30565625,1.07034375,-0.23396875,-0.2735,1.282375,0.019659904034497033,0.020084917708612274,True
60230,128035,1,128036,4437.0,42279.0,30615.0,-0.000488,0.002623,0.0008539999999999999,0.31500000000000006,-1.4000000000000001,-3.7275000000000005,1.08153125,0.2414375,0.21515625,1.31290625,1.0608125,-0.22359375,-0.2686875,1.3061875,0.019197450832414163,0.019936955799525626,True
60231,128036,1,128037,4439.0,42282.0,30617.0,0.000488,0.001586,-0.001037,0.24500000000000002,-1.3825,-3.8150000000000004,1.08453125,0.24481250000000002,0.21515625,1.31584375,1.05753125,-0.22103125,-0.269125,1.31121875,0.019233027082610283,0.019954623415553714,True
60232,128037,1,128038,4442.0,42282.0,30617.0,-0.001403,-0.0035989999999999998,6.1e-05,0.14,-1.3475000000000001,-3.6925000000000003,1.0825,0.24471875,0.21453125,1.3174375,1.03809375,-0.2198125,-0.27909375000000003,1.31221875,0.01917980372473982,0.020331277809741147,True
60233,128038,1,128039,4442.0,42281.0,30619.0,-0.00183,-0.002562,0.001098,0.28,-1.3650000000000002,-3.7275000000000005,1.08353125,0.24465625,0.22078125,1.31903125,1.037,-0.21884375,-0.2773125,1.30140625,0.019137990433585418,0.020516840568740875,True
60234,128039,1,128040,4445.0,42284.0,30620.0,-0.0018909999999999999,-0.000366,0.000549,0.385,-1.7500000000000002,-3.8150000000000004,1.07678125,0.2454375,0.213625,1.31684375,1.02925,-0.22746875,-0.28134375,1.2888125,0.01951942462004001,0.020384734679274083,True
60235,128040,1,128041,4445.0,42286.0,30622.0,0.000183,-0.00042699999999999997,-0.000366,0.3325,-1.8550000000000002,-3.7100000000000004,1.072625,0.24440625,0.2149375,1.3175000000000001,1.03103125,-0.2233125,-0.275,1.2973125,0.019308620569544317,0.020182801235839345,True
60236,128041,1,128042,4447.0,42285.0,30623.0,0.002257,0.00042699999999999997,-0.001281,0.28,-1.7675,-3.6050000000000004,1.0846875,0.24496875,0.21459375,1.3181875,1.0329375,-0.21884375,-0.28203125,1.28859375,0.01915089360944409,0.020452366397477557,True
60237,128042,1,128043,4449.0,42286.0,30621.0,-0.000366,0.000244,0.0008539999999999999,0.29750000000000004,-1.4525000000000001,-3.5000000000000004,1.07734375,0.24465625,0.2145,1.3193125,1.030875,-0.22765625,-0.28700000000000003,1.28934375,0.01949476644072825,0.020648906822579985,True
60238,128043,1,128044,4449.0,42286.0,30623.0,0.000549,0.00244,0.001403,0.43750000000000006,-1.7325000000000002,-3.4475000000000002,1.08240625,0.2485625,0.21725,1.31771875,1.030125,-0.22115625,-0.278625,1.3015625,0.019392911930040498,0.02042434445937527,True
60239,128044,1,128045,4453.0,42287.0,30624.0,0.002928,0.002928,-0.001037,0.45500000000000007,-1.8725000000000003,-3.5175000000000005,1.0825,0.24496875,0.21515625,1.31428125,1.0341875,-0.2225625,-0.27440625,1.279625,0.01930147770286484,0.02016784653589622,True
60240,128045,1,128046,4454.0,42288.0,30627.0,0.0042699999999999995,0.001647,-0.002013,0.43750000000000006,-1.9250000000000003,-3.5525,1.0823125,0.24356250000000002,0.21375,1.3121562500000001,1.0358125,-0.22362500000000002,-0.27596875,1.2923125,0.01928644040683424,0.020172984857710363,True
60241,128046,1,128047,4456.0,42289.0,30626.0,0.003477,0.000366,-0.002196,0.385,-1.7325000000000002,-3.5000000000000004,1.08284375,0.242375,0.21506250000000002,1.31659375,1.0438125,-0.217,-0.2789375,1.29184375,0.01896911260684643,0.020346854140548775,True
60242,128047,1,128048,4459.0,42290.0,30627.0,-0.003172,0.000915,-0.000244,0.43750000000000006,-1.54,-3.535,1.0821875,0.249375,0.2149375,1.31421875,1.042375,-0.2265,-0.273625,1.29175,0.019642746579159185,0.020127298662643095,True
60243,128048,1,128049,4461.0,42289.0,30628.0,-0.002745,-0.000549,0.0030499999999999998,0.24500000000000002,-1.3650000000000002,-3.4125000000000005,1.0800625,0.2446875,0.21646875000000002,1.31303125,1.04334375,-0.22384375,-0.27825,1.29878125,0.01934173844726851,0.020377035000463378,True
60244,128049,1,128050,4462.0,42289.0,30628.0,-0.003172,-0.003721,0.002806,0.22750000000000004,-1.2075,-3.4475000000000002,1.0814062500000001,0.244,0.21478125,1.31303125,1.0430625,-0.2243125,-0.2758125,1.2993125,0.01933233399296678,0.020209158807763902,True
60245,128050,1,128051,4461.0,42290.0,30629.0,-0.002074,-0.004697,0.004575,0.24500000000000002,-1.1900000000000002,-3.5175000000000005,1.07775,0.243625,0.21446875,1.31228125,1.04409375,-0.22075,-0.27815625,1.2982500000000001,0.019172610261862247,0.02029087361195313,True
60246,128051,1,128052,4465.0,42290.0,30628.0,-0.001952,-0.000305,6.1e-05,0.35000000000000003,-1.2425000000000002,-3.5000000000000004,1.0805625,0.2439375,0.219,1.31321875,1.04296875,-0.22403125000000002,-0.276875,1.2886875,0.019318367994592148,0.02042581674947867,True
60247,128052,1,128053,4464.0,42292.0,30627.0,-0.00042699999999999997,0.001281,-0.002074,0.49000000000000005,-1.8550000000000002,-3.4475000000000002,1.08234375,0.2499375,0.214875,1.3177812500000001,1.0433125,-0.22715625,-0.2789375,1.29284375,0.019692519628670822,0.020339131397327414,True
60248,128053,1,128054,4462.0,42289.0,30625.0,0.0018909999999999999,0.002257,-0.003721,0.47250000000000003,-2.1175,-3.43,1.09028125,0.24540625,0.21428125,1.3126875,1.0356875,-0.2255625,-0.27990625,1.29184375,0.0194409830525091,0.020353764751459863,True
60249,128054,1,128055,4460.0,42287.0,30621.0,0.003477,0.0017079999999999999,-0.0042699999999999995,0.5075000000000001,-2.2750000000000004,-3.4650000000000003,1.09584375,0.24381250000000002,0.2175625,1.326625,1.043375,-0.226125,-0.276125,1.29334375,0.019397963974841212,0.020336338686672607,True
60250,128055,1,128056,4459.0,42285.0,30616.0,0.00549,0.000793,-0.002623,0.31500000000000006,-2.1525000000000003,-3.6225000000000005,1.06821875,0.25165625,0.21334375,1.3095937500000001,1.0448125,-0.224875,-0.27559375,1.28865625,0.01967115413392226,0.020141113953186008,True
60251,128056,1,128057,4454.0,42285.0,30612.0,0.0,-0.000366,0.0021349999999999997,0.28,-1.6450000000000002,-3.7450000000000006,1.07053125,0.23871875,0.21765625,1.308,1.04390625,-0.2238125,-0.2739375,1.29803125,0.01909407323888426,0.020251916278518887,True
60252,128057,1,128058,4451.0,42282.0,30611.0,-0.003172,0.000366,0.003477,0.22750000000000004,-1.4525000000000001,-3.8675,1.09028125,0.24178125,0.21828125,1.32415625,1.04303125,-0.22646875,-0.27818750000000003,1.29278125,0.019328033517059726,0.020449168621010115,True
60253,128058,1,128059,4445.0,42282.0,30605.0,-0.0046359999999999995,0.000793,0.002989,0.2625,-1.2600000000000002,-3.9025000000000003,1.07778125,0.2476875,0.211625,1.32059375,1.04865625,-0.22553125000000002,-0.2760625,1.2951875,0.01953388535081145,0.020089233993362803,True
60254,128059,1,128060,4441.0,42281.0,30603.0,-0.004148,0.000305,0.001952,0.3325,-1.225,-3.7800000000000002,1.07015625,0.24146875,0.2094375,1.30709375,1.05065625,-0.223,-0.2765625,1.29865625,0.01917469966560707,0.02001930874686233,True
60255,128060,1,128061,4434.0,42277.0,30600.0,-0.002196,-0.000549,0.000366,0.22750000000000004,-1.4875,-3.6750000000000003,1.080375,0.23771875,0.21715625,1.314125,1.042625,-0.2229375,-0.27775,1.29315625,0.019017356998918895,0.020385177786244605,True
60256,128061,1,128062,4430.0,42278.0,30598.0,0.0026839999999999998,0.0006709999999999999,-0.0013419999999999999,0.28,-1.9425000000000001,-3.7800000000000002,1.0935,0.24621875000000001,0.21315625,1.32703125,1.03515625,-0.22634375,-0.2765625,1.28603125,0.019506141945170738,0.020172491471970134,True
60257,128062,1,128063,4425.0,42277.0,30594.0,0.0046359999999999995,0.0008539999999999999,-0.00244,0.4025,-2.1700000000000004,-3.6750000000000003,1.0738125,0.24709375,0.21196875,1.3239687500000001,1.0505,-0.22440625,-0.27646875,1.29271875,0.019463841348020657,0.02011979192814029,True
60258,128063,1,128064,4422.0,42275.0,30591.0,0.0044529999999999995,0.000976,-0.002074,0.36750000000000005,-2.0825,-3.6750000000000003,1.0703125,0.24265625000000002,0.21406250000000002,1.30703125,1.0458125,-0.2246875,-0.2760625,1.3005625,0.019292044531018203,0.020189641545040514,True
60259,128064,1,128065,4414.0,42276.0,30592.0,0.00488,0.000122,-0.000976,0.36750000000000005,-1.7500000000000002,-3.6225000000000005,1.073125,0.24403125,0.21615625,1.31153125,1.04690625,-0.22409375,-0.27596875,1.2969375,0.01932476834143692,0.02027210551587153,True
60260,128065,1,128066,4413.0,42275.0,30589.0,0.0008539999999999999,0.000122,-0.0025009999999999998,0.29750000000000004,-1.54,-3.6225000000000005,1.079,0.245125,0.21440625,1.31315625,1.038875,-0.22340625,-0.275125,1.29028125,0.019342087779252764,0.02016596207022621,True
60261,128066,1,128067,4410.0,42271.0,30589.0,-0.0030499999999999998,-0.0026839999999999998,0.001586,0.22750000000000004,-1.2425000000000002,-3.5175000000000005,1.083625,0.24256250000000001,0.21384375,1.30384375,1.0428125,-0.22365625,-0.2779375,1.296,0.019246423627729606,0.020256302661624367,True
60262,128067,1,128068,4406.0,42273.0,30590.0,-0.002562,-0.001952,0.003843,0.15750000000000003,-1.1900000000000002,-3.5875000000000004,1.0728125,0.24428125,0.21515625,1.3177812500000001,1.04209375,-0.22328125000000001,-0.27778125,1.2924375000000001,0.019302195073179856,0.02030405888099844,True
60263,128068,1,128069,4404.0,42273.0,30588.0,-0.0037819999999999998,-0.0013419999999999999,0.003355,0.15750000000000003,-1.1025,-3.6400000000000006,1.0659687500000001,0.24559375,0.21475,1.312125,1.045,-0.22796875,-0.2758125,1.2931875,0.019546108255567237,0.020207871518203562,True
60264,128069,1,128070,4403.0,42272.0,30588.0,-0.003904,-0.0006709999999999999,0.0034159999999999998,0.22750000000000004,-1.0850000000000002,-3.5875000000000004,1.0775625,0.24678125,0.21453125,1.31890625,1.0498750000000001,-0.2231875,-0.27984375,1.28925,0.019401606415340673,0.02036153960010554,True
60265,128070,1,128071,4400.0,42271.0,30589.0,-0.004941,6.1e-05,0.0018909999999999999,0.36750000000000005,-1.2075,-3.6225000000000005,1.08465625,0.24640625,0.2155,1.31646875,1.039375,-0.226,-0.2759375,1.29375,0.019499969041525636,0.020243811387304814,True
60266,128071,1,128072,4399.0,42268.0,30589.0,-0.00042699999999999997,0.001647,-0.002928,0.4025,-1.9075000000000002,-3.6050000000000004,1.0638125,0.24525,0.21165625000000002,1.31278125,1.051125,-0.22793750000000002,-0.2750625,1.29028125,0.019530655467474275,0.020050154350786942,True
60267,128072,1,128073,4398.0,42271.0,30591.0,0.003965,0.00122,-0.002745,0.2625,-2.1525000000000003,-3.5700000000000003,1.06953125,0.24271875,0.21628125,1.3076875000000001,1.0485625,-0.22359375,-0.272625,1.295875,0.01925034347969116,0.020142289925378896,True
60268,128073,1,128074,4397.0,42270.0,30591.0,0.0073809999999999995,0.000549,-0.002257,0.2625,-2.3625000000000003,-3.7275000000000005,1.0839375,0.243625,0.21506250000000002,1.31925,1.04315625,-0.2255,-0.278375,1.29153125,0.019364925388536874,0.020324156785616828,True
60269,128074,1,128075,4396.0,42271.0,30591.0,0.005856,0.000549,-0.000305,0.2625,-2.24,-3.6925000000000003,1.0768125,0.24575,0.21306250000000002,1.31271875,1.044125,-0.2278125,-0.27528125000000003,1.2921875,0.01954623431232184,0.02011691419641122,True
60270,128075,1,128076,4396.0,42271.0,30590.0,0.003294,0.000183,0.001403,0.28,-2.0125,-3.6225000000000005,1.07696875,0.2404375,0.21415625,1.31296875,1.04684375,-0.22459375,-0.27628125,1.2979687500000001,0.01919665835469377,0.020202332266190892,True
60271,128076,1,128077,4396.0,42272.0,30592.0,0.000305,0.000732,0.000976,0.28,-1.54,-3.7800000000000002,1.084375,0.245,0.21528125,1.3169375,1.042625,-0.2245,-0.27771875,1.2929375,0.01938120497843093,0.02030668552826859,True
60272,128077,1,128078,4396.0,42270.0,30593.0,-0.001403,-0.001281,-0.00042699999999999997,0.22750000000000004,-1.155,-3.7450000000000006,1.0850625,0.24384375,0.21471875,1.31640625,1.0361875,-0.22340625,-0.2769375,1.29278125,0.019289194722563015,0.02025198812659134,True
60273,128078,1,128079,4395.0,42269.0,30592.0,-0.002196,-0.0021349999999999997,0.00042699999999999997,0.31500000000000006,-1.0675000000000001,-3.7625,1.079625,0.24534375,0.2165,1.317125,1.03784375,-0.226,-0.27718750000000003,1.29303125,0.019456111202839924,0.02033544865936386,True
60274,128079,1,128080,4396.0,42270.0,30593.0,-0.003294,-0.000549,0.000366,0.24500000000000002,-1.12,-3.7275000000000005,1.08296875,0.24456250000000002,0.21431250000000002,1.30675,1.0426875,-0.2254375,-0.2755625,1.29946875,0.01940109440747974,0.020179758965420472,True
60275,128080,1,128081,4394.0,42270.0,30590.0,-0.0025009999999999998,-0.000305,0.000549,0.385,-0.9625000000000001,-3.7275000000000005,1.07703125,0.24256250000000001,0.21256250000000002,1.31603125,1.03646875,-0.2243125,-0.27546875,1.2926875,0.019272992783592933,0.020103885738560662,True
60276,128081,1,128082,4393.0,42271.0,30593.0,-0.000976,0.00042699999999999997,-0.0006709999999999999,0.31500000000000006,-1.155,-3.7275000000000005,1.077375,0.24453125,0.214625,1.31278125,1.04371875,-0.22440625,-0.27590625,1.2989375,0.01935805960156402,0.0202065061937698,True
60277,128082,1,128083,4396.0,42270.0,30592.0,-0.000244,0.002379,-0.001647,0.36750000000000005,-1.33,-3.6750000000000003,1.0805,0.242875,0.21246875,1.31296875,1.042625,-0.21971875000000002,-0.27515625,1.2983437500000001,0.019099881166043685,0.020087409324090345,True
60278,128083,1,128084,4395.0,42269.0,30591.0,0.001037,0.000793,-0.0013419999999999999,0.28,-1.3825,-3.6400000000000006,1.0772187500000001,0.2456875,0.2180625,1.31328125,1.05003125,-0.22653125000000002,-0.27696875,1.29315625,0.01949180198878038,0.020390982708662915,True
60279,128084,1,128085,4395.0,42271.0,30590.0,0.003172,-0.000366,0.001769,0.21000000000000002,-1.5225000000000002,-3.5875000000000004,1.08009375,0.2449375,0.21478125,1.31265625,1.04371875,-0.22290625,-0.274625,1.30321875,0.019314104805239873,0.020161228031329012,True
60280,128085,1,128086,4393.0,42269.0,30592.0,-0.000183,-0.00122,0.000549,0.35000000000000003,-1.7500000000000002,-3.6575,1.078375,0.24556250000000002,0.2136875,1.3141875,1.0535,-0.22465625,-0.27615625,1.2914375,0.019410750152543448,0.02017797813440915,True
60281,128086,1,128087,4395.0,42271.0,30591.0,0.000915,-0.00042699999999999997,0.001098,0.35000000000000003,-1.8725000000000003,-3.4650000000000003,1.0770625,0.24709375,0.2145,1.31403125,1.03934375,-0.2265625,-0.27934375,1.3001562500000001,0.019551112544340537,0.020340078178595747,True
60282,128087,1,128088,4394.0,42270.0,30591.0,0.0,-0.000976,-0.000122,0.35000000000000003,-1.6975000000000002,-3.43,1.08403125,0.2393125,0.20640625,1.30534375,1.04059375,-0.21715625,-0.27384375,1.29965625,0.018848982320126873,0.019784670485077174,True
60283,128088,1,128089,4393.0,42269.0,30590.0,-0.0018909999999999999,0.000183,-0.001403,0.4025,-1.5750000000000002,-3.4825000000000004,1.06915625,0.24596875,0.21453125,1.3051875,1.05259375,-0.2275625,-0.28103125,1.295125,0.01954514615327068,0.020409450278187833,True
60284,128089,1,128090,4392.0,42270.0,30590.0,-0.001769,-0.000244,-0.001037,0.3325,-1.54,-3.5175000000000005,1.08640625,0.23671875,0.2061875,1.33196875,1.04009375,-0.22234375,-0.2735,1.29725,0.01895202647349103,0.019761777246791772,True
60285,128090,1,128091,4391.0,42271.0,30592.0,-0.001952,0.0006709999999999999,-0.001586,0.36750000000000005,-1.4700000000000002,-3.5700000000000003,1.08228125,0.241625,0.21984375,1.30334375,1.05440625,-0.22990625,-0.279125,1.29409375,0.019460712936105563,0.020551348123130468,True
60286,128091,1,128092,4393.0,42271.0,30591.0,0.002257,0.000122,0.001098,0.1925,-1.4700000000000002,-3.6050000000000004,1.08765625,0.23346875,0.21459375,1.304375,1.0375625,-0.2180625,-0.28040625,1.2941562500000001,0.01864440022813551,0.020386808808028078,True
60287,128092,1,128093,4390.0,42270.0,30591.0,0.0017079999999999999,-0.000915,0.000305,0.24500000000000002,-1.4175000000000002,-3.6050000000000004,1.065,0.25271875,0.21378125,1.33071875,1.0445625,-0.22287500000000002,-0.2745625,1.29478125,0.019634075228477217,0.02011750984183546,True
60288,128093,1,128094,4391.0,42269.0,30590.0,0.0025009999999999998,-0.00042699999999999997,0.00061,0.22750000000000004,-1.2425000000000002,-3.6050000000000004,1.07396875,0.24878125,0.21925,1.3029375,1.0541875,-0.22771875,-0.27496875,1.29184375,0.019667555369817888,0.020359192017497446,True
60289,128094,1,128095,4391.0,42270.0,30590.0,-0.000488,0.00061,0.000488,0.22750000000000004,-1.2950000000000002,-3.5700000000000003,1.0664375,0.2510625,0.22009375,1.323,1.0405312500000001,-0.22284375,-0.2755,1.28146875,0.019564434914872454,0.02041538794257585,True
60290,128095,1,128096,4391.0,42269.0,30593.0,-0.002013,0.0018909999999999999,-0.00042699999999999997,0.31500000000000006,-1.3825,-3.6225000000000005,1.0954375,0.23815625,0.21075,1.30334375,1.03978125,-0.22296875,-0.2753125,1.2898125,0.01903668393247628,0.020022914226129944,True
60291,128096,1,128097,4393.0,42272.0,30593.0,-0.000122,0.001403,0.000488,0.29750000000000004,-1.5050000000000001,-3.535,1.064625,0.2501875,0.21484375,1.3308125,1.04659375,-0.224125,-0.27540625,1.2905,0.019580170594397116,0.020195336586797594,True
60292,128097,1,128098,4393.0,42272.0,30594.0,0.000244,-0.000549,-0.000244,0.29750000000000004,-1.8200000000000003,-3.535,1.06890625,0.24978125,0.2116875,1.308625,1.05103125,-0.22396875,-0.27528125000000003,1.2993125,0.019557076088120365,0.02006027221620759,True
60293,128098,1,128099,4394.0,42271.0,30593.0,0.001769,-0.0011589999999999999,-0.001952,0.385,-1.9775000000000003,-3.5875000000000004,1.0680625,0.24159375,0.212625,1.30659375,1.0483125,-0.22403125000000002,-0.2716875,1.29915625,0.019221614899460636,0.019953804200882202,True
60294,128099,1,128100,4395.0,42270.0,30594.0,0.00183,0.000122,-0.00042699999999999997,0.31500000000000006,-2.0125,-3.6750000000000003,1.0795937500000001,0.24196875,0.217375,1.3135625,1.04340625,-0.22362500000000002,-0.27559375,1.2910625,0.019220647198757414,0.020307175802857555,True
60295,128100,1,128101,4395.0,42273.0,30595.0,0.000793,-0.000305,-0.001586,0.22750000000000004,-1.6800000000000002,-3.7975000000000003,1.083625,0.24165625000000002,0.21228125,1.3133125,1.0465,-0.22334375,-0.27534375,1.29421875,0.01919635888418584,0.02008725417122054,True
60296,128101,1,128102,4395.0,42271.0,30596.0,-0.0017079999999999999,-0.000732,0.001464,0.14,-1.33,-3.7975000000000003,1.0769375,0.24615625,0.21509375,1.3198125,1.04975,-0.22459375,-0.27846875,1.29246875,0.019432730425045827,0.020329226899863693,True
60297,128102,1,128103,4397.0,42274.0,30597.0,-0.002257,-0.000915,0.0011589999999999999,0.24500000000000002,-1.2775,-3.8325000000000005,1.0791250000000001,0.24515625,0.21559375,1.3189375,1.0431875,-0.2283125,-0.27184375,1.2926250000000001,0.019541961496492996,0.020082425753090966,True
60298,128103,1,128104,4399.0,42273.0,30597.0,-0.0006709999999999999,0.000122,-0.000122,0.28,-1.33,-3.6750000000000003,1.0801875,0.2445,0.21553125,1.3095,1.0433125,-0.22387500000000002,-0.27634375,1.293375,0.019335263247519233,0.020261494278766754,True
60299,128104,1,128105,4401.0,42274.0,30600.0,0.001281,-0.000488,-0.000366,0.12250000000000001,-1.3650000000000002,-3.535,1.0835625,0.24478125,0.21506250000000002,1.3140625000000001,1.04265625,-0.2225625,-0.2779375,1.3,0.019293736985919636,0.020306502560194825,True
60300,128105,1,128106,4401.0,42276.0,30598.0,-0.000915,0.000122,-0.0013419999999999999,0.14,-1.5225000000000002,-3.6050000000000004,1.08475,0.24303125,0.21628125,1.3130625,1.0436875,-0.2235,-0.27568750000000003,1.28975,0.01925944846946147,0.020265903900764912,True
60301,128106,1,128107,4401.0,42276.0,30600.0,0.000488,-0.0006709999999999999,0.0006709999999999999,0.15750000000000003,-1.3475000000000001,-3.7975000000000003,1.06734375,0.24631250000000002,0.21281250000000002,1.32021875,1.05109375,-0.2210625,-0.2760625,1.28765625,0.019296222038153777,0.020138150492898098,True
60302,128107,1,128108,4403.0,42278.0,30601.0,0.000183,-0.000488,0.000122,0.14,-1.3650000000000002,-3.6225000000000005,1.07965625,0.24540625,0.2173125,1.314125,1.04303125,-0.22596875,-0.27940625,1.298125,0.019457426238114833,0.02045843892908213,True
60303,128108,1,128109,4405.0,42279.0,30602.0,0.000793,0.000915,-0.000732,0.22750000000000004,-1.4875,-3.6575,1.0825625,0.24490625,0.21381250000000002,1.31234375,1.03678125,-0.2231875,-0.2706875,1.298625,0.019324201243127063,0.019962351705117544,True
60304,128109,1,128110,4408.0,42279.0,30606.0,0.000549,0.000915,0.000488,0.21000000000000002,-1.5925000000000002,-3.7100000000000004,1.0770625,0.2454375,0.21528125,1.31503125,1.04484375,-0.226625,-0.276125,1.2945312500000001,0.019485277045399433,0.0202423677584458,True
60305,128110,1,128111,4409.0,42281.0,30605.0,-0.0011589999999999999,0.000183,0.0,0.2625,-1.5050000000000001,-3.6050000000000004,1.07834375,0.24240625000000002,0.212,1.3139375,1.04246875,-0.22337500000000002,-0.27453125,1.2936875,0.01922858602486235,0.020042869004937014,True
60306,128111,1,128112,4410.0,42281.0,30605.0,-0.000732,-0.0015249999999999999,-0.000122,0.15750000000000003,-1.54,-3.6925000000000003,1.077375,0.24506250000000002,0.216,1.32025,1.0471875,-0.22590625,-0.278375,1.29259375,0.019440707197486164,0.02036277139635581,True
60307,128112,1,128113,4411.0,42282.0,30605.0,-0.000488,-6.1e-05,-0.00061,0.12250000000000001,-1.5750000000000002,-3.7450000000000006,1.08375,0.24215625000000002,0.21421875,1.31271875,1.0381562500000001,-0.22353125000000001,-0.27509375,1.29846875,0.01922459179026592,0.020156976736701585,True
60308,128113,1,128114,4411.0,42283.0,30605.0,-0.000976,0.00061,0.0011589999999999999,0.1925,-1.4175000000000002,-3.7450000000000006,1.07671875,0.24665625,0.21246875,1.3177812500000001,1.047375,-0.225,-0.27621875,1.29371875,0.019469814241486066,0.020130297268803447,True
60309,128114,1,128115,4415.0,42279.0,30605.0,-0.0006709999999999999,0.001586,-0.00122,0.08750000000000001,-1.4525000000000001,-3.6575,1.083375,0.243,0.21425,1.30665625,1.043625,-0.2233125,-0.2748125,1.2953125,0.019250566989960603,0.02014691153639189,True
60310,128115,1,128116,4416.0,42282.0,30606.0,0.000488,-0.0011589999999999999,0.000976,0.035,-1.4700000000000002,-3.6750000000000003,1.077375,0.2456875,0.21546875000000001,1.31846875,1.04759375,-0.2224375,-0.2765625,1.29275,0.01932608970505136,0.02026774795649096,True
60311,128116,1,128117,4418.0,42281.0,30607.0,-0.0023179999999999997,-0.000976,-0.000183,0.14,-1.12,-3.6400000000000006,1.0824375,0.245125,0.215,1.3125,1.04284375,-0.22337500000000002,-0.2758125,1.29875,0.019340822655802507,0.020218169834686273,True
60312,128117,1,128118,4419.0,42282.0,30608.0,-6.1e-05,0.000122,0.000793,-0.0175,-1.0850000000000002,-3.5700000000000003,1.0830312500000001,0.24240625000000002,0.21478125,1.313375,1.04171875,-0.22346875,-0.2750625,1.2975,0.019232381819800273,0.020178887284018322,True
60313,128118,1,128119,4421.0,42279.0,30608.0,0.000366,-6.1e-05,-0.0006709999999999999,0.052500000000000005,-1.1025,-3.6575,1.07775,0.2499375,0.211625,1.3115,1.0525,-0.22709375,-0.27521875,1.2905312500000001,0.019689990674180636,0.020055174580043692,True
60314,128119,1,128120,4422.0,42281.0,30607.0,0.001403,-0.00061,-0.001464,0.22750000000000004,-1.12,-3.6750000000000003,1.077,0.24431250000000002,0.2160625,1.31790625,1.0599687500000001,-0.22778125000000002,-0.27821875,1.2903125,0.019485636968923848,0.020359040961355535,True
60315,128120,1,128121,4421.0,42282.0,30608.0,0.000732,-0.000793,-0.001403,0.15750000000000003,-0.8225000000000001,-3.5700000000000003,1.0770625,0.24531250000000002,0.21506250000000002,1.3141562500000001,1.04171875,-0.22078125,-0.27853125,1.30509375,0.019243547315386453,0.020330461711929138,True
60316,128121,1,128122,4425.0,42281.0,30608.0,-0.001281,0.000976,-0.00042699999999999997,-0.035,-0.35000000000000003,-3.6050000000000004,1.08271875,0.24506250000000002,0.215875,1.316875,1.03628125,-0.22046875,-0.27675,1.3039687500000001,0.019220571443316927,0.020292048976901768,True
60317,128122,1,128123,4427.0,42282.0,30607.0,-0.0025009999999999998,-0.000183,0.0021349999999999997,-0.035,-0.22750000000000004,-3.4650000000000003,1.08221875,0.24540625,0.21481250000000002,1.318,1.0400625000000001,-0.22115625,-0.2758125,1.30421875,0.01926260229628798,0.020210446097324242,True
60318,128123,1,128124,4428.0,42280.0,30606.0,-0.001586,0.0,0.0006709999999999999,-0.10500000000000001,-0.36750000000000005,-3.5525,1.0776875000000001,0.24634375,0.21190625000000002,1.31303125,1.0366875,-0.227625,-0.2723125,1.28771875,0.019563153631443446,0.019949427974775787,True
60319,128124,1,128125,4430.0,42282.0,30609.0,0.00061,0.000732,-0.000183,0.035,-0.56,-3.5875000000000004,1.07321875,0.246375,0.2145,1.3137812500000001,1.05259375,-0.228,-0.26809375,1.29540625,0.019579618623080733,0.019885935622776307,True
60320,128125,1,128126,4430.0,42283.0,30608.0,-0.000488,0.002928,-0.000488,0.15750000000000003,-0.56,-3.7450000000000006,1.06653125,0.24331250000000001,0.215,1.31303125,1.05546875,-0.2258125,-0.271125,1.3099687500000001,0.019364675591375936,0.020028943858185395,True
60321,128126,1,128127,4432.0,42283.0,30608.0,-0.0037819999999999998,0.000122,0.0021349999999999997,0.052500000000000005,-0.385,-3.7100000000000004,1.08434375,0.24521875,0.21546875000000001,1.31753125,1.0430625,-0.22021875,-0.2785,1.2999375,0.01921689910418336,0.020345933644994544,True
60322,128127,1,128128,4433.0,42283.0,30610.0,-0.003477,-0.003111,0.0032329999999999998,0.0175,-0.1925,-3.7275000000000005,1.07409375,0.24525,0.21581250000000002,1.32053125,1.03696875,-0.21775,-0.28090625,1.2954375,0.019118208751845236,0.020457175069402526,True
60323,128128,1,128129,4434.0,42283.0,30611.0,-0.0013419999999999999,-0.0032329999999999998,0.002928,-0.0175,-0.2625,-3.6750000000000003,1.07775,0.2464375,0.21209375,1.31953125,1.03759375,-0.22475,-0.28025,1.2906875,0.01945066512554309,0.020277540387763717,True
60324,128129,1,128130,4437.0,42288.0,30611.0,-6.1e-05,0.000244,0.000793,0.08750000000000001,-0.5775,-3.4825000000000004,1.0768125,0.24384375,0.21221875,1.31225,1.0365312500000001,-0.23143750000000002,-0.2733125,1.28809375,0.01961424079772403,0.020002677838057745,True
60325,128130,1,128131,4440.0,42286.0,30611.0,-0.002013,0.00122,-0.00244,0.43750000000000006,-1.5925000000000002,-3.5525,1.07190625,0.24331250000000001,0.21553125,1.3126875,1.0475,-0.2243125,-0.273125,1.2963437500000001,0.01930395341457059,0.020131575559389242,True
60326,128131,1,128132,4440.0,42288.0,30614.0,0.001037,-0.001098,-0.00183,0.35000000000000003,-1.8025000000000002,-3.535,1.08415625,0.2456875,0.21525,1.3180625000000001,1.0307187500000001,-0.22528125000000002,-0.27984375,1.2934375,0.01944120875789626,0.020391142344151205,True
60327,128132,1,128133,4442.0,42290.0,30614.0,0.0050019999999999995,-0.000488,0.00042699999999999997,0.42000000000000004,-1.7675,-3.43,1.07775,0.24534375,0.21365625,1.31265625,1.046375,-0.22,-0.27503125,1.2906250000000001,0.019213201899256814,0.020131282014312545,True
60328,128133,1,128134,4444.0,42290.0,30616.0,0.0018909999999999999,0.000122,-0.001098,0.42000000000000004,-2.0125,-3.3775000000000004,1.0783125,0.24325,0.21425,1.3135625,1.04459375,-0.22312500000000002,-0.27496875,1.3006875,0.019253296178754806,0.020153218528860106,True
60329,128134,1,128135,4447.0,42288.0,30617.0,6.1e-05,0.0008539999999999999,0.000183,0.5075000000000001,-2.1175,-3.4475000000000002,1.08290625,0.24540625,0.21553125,1.3189375,1.0423437500000001,-0.22309375,-0.277625,1.2923125,0.019341047218627887,0.02031319991144109,True
60330,128135,1,128136,4448.0,42290.0,30618.0,0.000122,0.001281,-0.00042699999999999997,0.47250000000000003,-1.9250000000000003,-3.4475000000000002,1.07784375,0.24515625,0.21378125,1.31821875,1.0423437500000001,-0.22478125000000002,-0.27703125,1.29321875,0.019399039981011182,0.02021715484672369,True
60331,128136,1,128137,4453.0,42293.0,30624.0,-0.000793,-0.001403,-0.0015249999999999999,0.47250000000000003,-1.995,-3.5000000000000004,1.0772187500000001,0.24575,0.21184375,1.31453125,1.04515625,-0.22640625,-0.2758125,1.2935,0.01948932273023367,0.020088153589092023,True
60332,128137,1,128138,4454.0,42293.0,30623.0,0.000366,-0.001098,-0.001647,0.5075000000000001,-1.9775000000000003,-3.5175000000000005,1.077125,0.2511875,0.2166875,1.31334375,1.04903125,-0.22709375,-0.27403125,1.29259375,0.01974158580205271,0.02021579130990037,True
60333,128138,1,128139,4456.0,42294.0,30622.0,0.000305,-0.000244,0.001647,0.43750000000000006,-1.8550000000000002,-3.6225000000000005,1.07753125,0.24296875,0.21175,1.31346875,1.0498125,-0.21912500000000001,-0.2748125,1.29475,0.0190797045723163,0.020043924129177104,True
