frame_seq,absolute_seq_u64,segment_id,sample_seq,PPG_G,PPG_R,PPG_IR,ACC_X,ACC_Y,ACC_Z,GYRO_X,GYRO_Y,GYRO_Z,Uh1,Uh2,Uh3,Uh4,Uc1,Uc2,Uc3,Uc4,UD1,UD2,parser_valid
13570,178602,0,178596,3354.0,42297.0,29732.0,-0.0037819999999999998,-0.000976,0.000183,0.2625,-0.9275000000000001,-3.5875000000000004,1.03146875,0.035250000000000004,-0.18509375,1.27534375,0.99971875,-0.43715625,-0.89496875,1.236125,0.019331473972140273,0.02851479779423302,True
13571,178603,0,178597,3352.0,42291.0,29726.0,0.000549,0.00061,0.0021349999999999997,0.28,-1.4700000000000002,-3.6575,1.0305312500000001,0.035187500000000003,-0.185125,1.27503125,0.99928125,-0.43321875,-0.8954062500000001,1.2345625,0.019170877762472453,0.028530614960340327,True
13572,178604,0,178598,3347.0,42290.0,29718.0,0.002745,-0.00042699999999999997,0.000244,0.15750000000000003,-1.715,-3.7100000000000004,1.03065625,0.034375,-0.18453125,1.26940625,0.99946875,-0.435,-0.896875,1.235625,0.01920912625332515,0.028611773565959578,True
13573,178605,0,178599,3344.0,42281.0,29707.0,0.001952,-0.00122,-0.002013,0.2625,-1.9600000000000002,-3.7100000000000004,1.03340625,0.03346875,-0.18403125,1.27459375,0.999375,-0.43678125,-0.8970625,1.23678125,0.019243532738175164,0.028639171789844684,True
13574,178606,0,178600,3336.0,42279.0,29704.0,0.00042699999999999997,0.001647,-0.001464,0.35000000000000003,-2.0125,-3.8325000000000005,1.03090625,0.035937500000000004,-0.18475,1.27384375,0.99721875,-0.434875,-0.88578125,1.2340625,0.019268054369011505,0.028169951465759187,True
13575,178607,0,178601,3328.0,42275.0,29697.0,0.00122,0.00366,0.0006709999999999999,0.3325,-2.0825,-3.8675,1.0306250000000001,0.03409375,-0.18590625,1.2726875,0.9908750000000001,-0.4325,-0.89346875,1.22725,0.019097257750946485,0.028423620151370028,True
13576,178608,0,178602,3322.0,42271.0,29689.0,0.0030499999999999998,-0.000549,0.001403,0.22750000000000004,-2.0300000000000002,-3.7450000000000006,1.03265625,0.032625,-0.1875,1.2811875,0.99171875,-0.43175,-0.89203125,1.2365625,0.01900702978705987,0.028303485678775213,True
13577,178609,0,178603,3316.0,42267.0,29685.0,0.00042699999999999997,-0.0021349999999999997,-0.0008539999999999999,0.17500000000000002,-1.8900000000000001,-3.8850000000000002,1.0406875,0.029625000000000002,-0.18990625,1.280375,0.9965625,-0.434125,-0.8945000000000001,1.228875,0.01897960332117479,0.028303189459519176,True
13578,178610,0,178604,3308.0,42263.0,29681.0,-0.000122,-0.000244,-0.001098,0.29750000000000004,-1.9425000000000001,-3.7800000000000002,1.03728125,0.03040625,-0.1905625,1.27975,0.99615625,-0.43596875,-0.89853125,1.22815625,0.01908559487742838,0.028434157135272788,True
13579,178611,0,178605,3304.0,42262.0,29677.0,-0.000488,0.00042699999999999997,-0.000122,0.24500000000000002,-1.7500000000000002,-3.7975000000000003,1.03690625,0.03646875,-0.18784375,1.2795625,0.9859687500000001,-0.43275,-0.89303125,1.2338437500000001,0.019204500107437766,0.028328711474220322,True
13580,178612,0,178606,3299.0,42260.0,29672.0,0.0017079999999999999,-0.002257,0.00042699999999999997,0.21000000000000002,-1.7325000000000002,-3.8325000000000005,1.04171875,0.03228125,-0.18803125,1.27946875,0.999375,-0.4321875,-0.89309375,1.2195625,0.019010526585063248,0.028323618875215142,True
13581,178613,0,178607,3295.0,42256.0,29670.0,-0.002013,-0.001586,-0.001464,0.1925,-1.5050000000000001,-3.8675,1.0265312500000001,0.029687500000000002,-0.1926875,1.28596875,0.99275,-0.43346875,-0.89584375,1.2280312500000001,0.01895581240383644,0.02824392123685304,True
13582,178614,0,178608,3290.0,42254.0,29668.0,-0.0037819999999999998,0.000915,-0.000793,0.31500000000000006,-1.5050000000000001,-3.8850000000000002,1.0286875,0.031968750000000004,-0.1876875,1.28509375,0.99103125,-0.43275,-0.8936875,1.23478125,0.019020321085428372,0.028360603466240187,True
13583,178615,0,178609,3286.0,42252.0,29665.0,-0.001769,0.001281,0.002745,0.21000000000000002,-1.5050000000000001,-3.8850000000000002,1.0365312500000001,0.031625,-0.18640625,1.27896875,0.9988125,-0.43293750000000003,-0.8934062500000001,1.22671875,0.0190137800663551,0.02840109516952908,True
13584,178616,0,178610,3284.0,42252.0,29663.0,-0.000305,0.000183,0.002074,0.17500000000000002,-1.5750000000000002,-3.7450000000000006,1.03715625,0.03309375,-0.19128125,1.28175,0.99171875,-0.432,-0.8953125000000001,1.22840625,0.019036253683693518,0.02827967112282684,True
13585,178617,0,178611,3278.0,42250.0,29660.0,-0.000183,-0.000305,-0.0018909999999999999,0.2625,-1.7500000000000002,-3.7275000000000005,1.0375625,0.0324375,-0.18765625,1.2848125000000001,0.991625,-0.4320625,-0.8952187500000001,1.2358437500000001,0.01901190290422677,0.028421622123726068,True
13586,178618,0,178612,3278.0,42249.0,29660.0,-0.000305,0.0008539999999999999,0.000488,0.385,-2.0650000000000004,-3.6750000000000003,1.0405312500000001,0.0285,-0.19071875,1.2799375,0.99921875,-0.435375,-0.8942187500000001,1.2275625000000001,0.018983747947391844,0.028259573319608593,True
13587,178619,0,178613,3275.0,42247.0,29655.0,0.00183,0.000793,-0.000976,0.43750000000000006,-2.1875,-3.8150000000000004,1.031,0.032625,-0.19087500000000002,1.28709375,0.9917812500000001,-0.43571875,-0.89696875,1.2354375,0.019166358673202523,0.02836063125154543,True
13588,178620,0,178614,3273.0,42245.0,29655.0,0.004758,-0.000793,0.000976,0.22750000000000004,-2.31,-3.7625,1.03296875,0.03359375,-0.18878125,1.27953125,0.982875,-0.4330625,-0.8895937500000001,1.23,0.019099376101542737,0.028156847678560446,True
13589,178621,0,178615,3270.0,42247.0,29655.0,0.0037819999999999998,-0.0021349999999999997,0.00042699999999999997,0.3325,-2.2575000000000003,-3.7800000000000002,1.04275,0.035,-0.18953125,1.2787187500000001,0.99821875,-0.4335,-0.8875625,1.22884375,0.019174494034829234,0.028047393150695252,True
13590,178622,0,178616,3270.0,42246.0,29652.0,0.001281,-0.000244,-0.0013419999999999999,0.385,-2.1525000000000003,-3.8325000000000005,1.03684375,0.032,-0.1888125,1.28521875,0.991625,-0.43653125,-0.8944375,1.23465625,0.019173394341719427,0.028344685434246102,True
13591,178623,0,178617,3268.0,42242.0,29653.0,0.001403,0.0011589999999999999,0.000244,0.29750000000000004,-1.6625,-3.8850000000000002,1.0423437500000001,0.029406250000000002,-0.18962500000000002,1.2843437500000001,1.00028125,-0.43646875,-0.8911875,1.2348125,0.01906474314133461,0.028185175978446185,True
13592,178624,0,178618,3269.0,42245.0,29651.0,0.000183,-0.000488,-0.000549,0.43750000000000006,-1.3825,-3.8150000000000004,1.04346875,0.0305625,-0.1901875,1.2873125,0.99853125,-0.43290625,-0.8934375,1.2343125,0.018969038936986878,0.028250417404185334,True
13593,178625,0,178619,3267.0,42243.0,29653.0,-0.0013419999999999999,0.000244,0.000976,0.31500000000000006,-1.0150000000000001,-3.7800000000000002,1.04384375,0.0321875,-0.1888125,1.27946875,0.991375,-0.433,-0.893875,1.21815625,0.01903931158678836,0.02832272998880246,True
13594,178626,0,178620,3267.0,42244.0,29652.0,-0.004209,0.001098,0.002013,0.24500000000000002,-0.8750000000000001,-3.7275000000000005,1.0373125,0.033,-0.18871875,1.28028125,0.99171875,-0.432375,-0.8934062500000001,1.22828125,0.019047472871548506,0.028308199083843744,True
13595,178627,0,178621,3267.0,42245.0,29653.0,-0.005124,0.000976,0.0018909999999999999,0.35000000000000003,-1.0150000000000001,-3.7100000000000004,1.0274375,0.03853125,-0.19071875,1.28375,0.99328125,-0.43546875,-0.89528125,1.2331875,0.019398031805712753,0.028301046006459555,True
13596,178628,0,178622,3265.0,42248.0,29653.0,-0.001769,-0.000244,0.000732,0.24500000000000002,-1.3475000000000001,-3.7100000000000004,1.0414375,0.0343125,-0.18940625,1.28040625,0.99584375,-0.43290625,-0.8931875,1.2195,0.019122520473797505,0.02827204230072987,True
13597,178629,0,178623,3267.0,42246.0,29654.0,0.00061,-0.001403,-0.001403,0.2625,-1.7500000000000002,-3.8150000000000004,1.0373125,0.0378125,-0.1879375,1.2843437500000001,0.99146875,-0.43140625,-0.89678125,1.23090625,0.0192055563727528,0.028471300883522843,True
13598,178630,0,178624,3267.0,42247.0,29654.0,0.001952,-0.000976,-0.001281,0.35000000000000003,-1.9775000000000003,-3.7625,1.04028125,0.0305,-0.18928125,1.2823125,0.99934375,-0.43375,-0.897875,1.23025,0.019000358111219116,0.028460009137325975,True
13599,178631,0,178625,3266.0,42244.0,29651.0,0.002196,-0.000366,-0.002196,0.1925,-1.9775000000000003,-3.6925000000000003,1.03746875,0.032375,-0.1890625,1.2799375,0.99171875,-0.43296875,-0.89259375,1.2256562500000001,0.0190457309859245,0.02826267351107194,True
13600,178632,0,178626,3266.0,42243.0,29652.0,0.002989,-6.1e-05,-0.002562,0.29750000000000004,-2.0650000000000004,-3.8150000000000004,1.0378125,0.033,-0.1889375,1.2803125,0.9884375,-0.431,-0.89228125,1.2263125,0.018992263926978017,0.028255495867820474,True
13601,178633,0,178627,3266.0,42244.0,29651.0,0.001769,-0.000549,-0.0011589999999999999,0.4025,-1.6975000000000002,-3.8325000000000005,1.03784375,0.031718750000000004,-0.18925,1.2799375,0.98884375,-0.43159375,-0.8888125,1.2255625,0.01896366257317945,0.028107508142463607,True
13602,178634,0,178628,3266.0,42242.0,29650.0,-0.001952,0.0008539999999999999,0.000732,0.385,-1.5050000000000001,-3.8500000000000005,1.03559375,0.035625000000000004,-0.19021875,1.30096875,0.9872500000000001,-0.43175,-0.8925625,1.22759375,0.01912982082740696,0.028215003979602343,True
13603,178635,0,178629,3266.0,42242.0,29649.0,-0.00061,0.00122,0.00244,0.43750000000000006,-1.33,-3.7975000000000003,1.06990625,0.02415625,-0.19515625,1.29246875,0.9870625000000001,-0.4366875,-0.8963125000000001,1.22828125,0.0188586832810298,0.028163056275904316,True
13604,178636,0,178630,3264.0,42243.0,29653.0,0.0,-0.000549,0.000366,0.42000000000000004,-1.3650000000000002,-3.7975000000000003,1.0579687500000001,0.029593750000000002,-0.188,1.2918125,1.0011875000000001,-0.4366875,-0.89975,1.23390625,0.019081197073048464,0.02858462434361791,True
13605,178637,0,178631,3266.0,42247.0,29653.0,-0.000244,6.1e-05,-0.000183,0.2625,-1.225,-3.7100000000000004,1.04465625,0.0235625,-0.20296875,1.2913125,0.9930625000000001,-0.43453125000000004,-0.8926875,1.22571875,0.018747801842934887,0.027707685238887923,True
13606,178638,0,178632,3267.0,42245.0,29654.0,-0.0015249999999999999,0.000732,0.0006709999999999999,0.42000000000000004,-1.1025,-3.7975000000000003,1.03975,0.03690625,-0.184,1.2700625,0.9840625000000001,-0.4311875,-0.8899375,1.23725,0.019159680633616356,0.02836236531329177,True
13607,178639,0,178633,3267.0,42249.0,29655.0,-0.000488,0.000488,0.001464,0.31500000000000006,-1.1900000000000002,-3.8325000000000005,1.02865625,0.02728125,-0.19809375,1.30125,0.997625,-0.4348125,-0.90009375,1.22065625,0.018911286919021785,0.028192664937255505,True
13608,178640,0,178634,3266.0,42247.0,29657.0,-0.001464,0.000122,-6.1e-05,0.4025,-1.33,-3.7100000000000004,1.0561562500000001,0.029562500000000002,-0.18028125,1.26925,0.9882500000000001,-0.43159375,-0.8860625,1.2283125,0.0188754059484965,0.028360502992387807,True
13609,178641,0,178635,3267.0,42249.0,29656.0,6.1e-05,-0.00183,-0.0015249999999999999,0.385,-1.4525000000000001,-3.7450000000000006,1.03759375,0.02396875,-0.19346875,1.2650625,1.00296875,-0.438,-0.8891875,1.2264375,0.018903705295032328,0.027952650121664282,True
13610,178642,0,178636,3267.0,42250.0,29654.0,-0.000183,0.000183,-0.000732,0.35000000000000003,-1.435,-3.7100000000000004,1.0258125,0.0283125,-0.19540625,1.29296875,0.9888750000000001,-0.43203125000000003,-0.89759375,1.22559375,0.018841812426054424,0.028203026647906488,True
13611,178643,0,178637,3268.0,42252.0,29657.0,0.001403,6.1e-05,-0.001281,0.3325,-1.4875,-3.7450000000000006,1.02546875,0.03665625,-0.18690625,1.30221875,0.9898125,-0.4241875,-0.893,1.23190625,0.01886833492414026,0.028365152854216043,True
13612,178644,0,178638,3269.0,42251.0,29659.0,-0.000488,0.000915,0.001281,0.42000000000000004,-1.5225000000000002,-3.7975000000000003,1.0283437500000001,0.03209375,-0.18987500000000002,1.29696875,0.9888125,-0.433375,-0.89459375,1.23590625,0.019050530268536377,0.02830810404367414,True
13613,178645,0,178639,3270.0,42253.0,29661.0,-0.000366,0.000244,0.001037,0.36750000000000005,-1.54,-3.7800000000000002,1.0402500000000001,0.0361875,-0.1891875,1.2914375,0.9914375,-0.43243750000000003,-0.8951250000000001,1.23628125,0.019180444030604808,0.028356455330109814,True
13614,178646,0,178640,3270.0,42254.0,29662.0,-0.000183,0.000305,-0.001281,0.35000000000000003,-1.4700000000000002,-3.7450000000000006,1.05059375,0.03646875,-0.18421875000000001,1.275125,0.98771875,-0.4330625,-0.8935000000000001,1.23025,0.0192170445272671,0.028492628597826745,True
13615,178647,0,178641,3271.0,42254.0,29664.0,0.00061,-0.0011589999999999999,0.00244,0.35000000000000003,-1.3825,-3.7275000000000005,1.03509375,0.0336875,-0.1891875,1.27440625,0.99328125,-0.43309375,-0.8915625,1.23434375,0.019104467685349916,0.028217392941885428,True
13616,178648,0,178642,3272.0,42255.0,29664.0,-0.0018909999999999999,-0.000305,-0.000122,0.31500000000000006,-1.3125000000000002,-3.7625,1.03734375,0.03375,-0.18546875000000002,1.28703125,0.99140625,-0.42953125000000003,-0.89296875,1.23725,0.018963984419471825,0.02842168031886514,True
13617,178649,0,178643,3273.0,42257.0,29665.0,-0.001769,0.000549,0.00122,0.31500000000000006,-1.4000000000000001,-3.8150000000000004,1.0355625,0.0324375,-0.1880625,1.2810625,0.99746875,-0.4325625,-0.8915937500000001,1.2215,0.0190319783281021,0.02826380894152268,True
13618,178650,0,178644,3273.0,42257.0,29666.0,-0.00061,0.000976,-0.000244,0.2625,-1.4525000000000001,-3.8325000000000005,1.0426875,0.02915625,-0.18440625,1.27946875,0.9979375,-0.4321875,-0.8929375,1.227875,0.01888262154176739,0.028463143411660438,True
13619,178651,0,178645,3275.0,42260.0,29667.0,0.00061,-0.000915,-0.0017079999999999999,0.28,-1.6450000000000002,-3.7800000000000002,1.03740625,0.030875,-0.1911875,1.2794375,0.9915,-0.435625,-0.8971250000000001,1.22828125,0.019090978847481902,0.02835417744016629,True
13620,178652,0,178646,3276.0,42258.0,29669.0,-0.000366,0.000122,0.000244,0.29750000000000004,-1.6275000000000002,-3.8500000000000005,1.037875,0.033625,-0.18878125,1.2860625,0.9915625,-0.42846875,-0.89684375,1.2354687500000001,0.01891619792992551,0.028439849930776872,True
13621,178653,0,178647,3277.0,42263.0,29668.0,0.000122,0.000122,-0.000488,0.36750000000000005,-1.6975000000000002,-3.9375000000000004,1.038,0.0324375,-0.1868125,1.27984375,0.9829375,-0.43243750000000003,-0.89253125,1.22946875,0.019026959549164918,0.028350622237342773,True
13622,178654,0,178648,3278.0,42261.0,29668.0,0.0015249999999999999,0.000366,-0.000305,0.28,-1.7500000000000002,-3.9025000000000003,1.04365625,0.029375000000000002,-0.18959375,1.28125,0.99259375,-0.435375,-0.89575,1.2324375,0.019019556687793822,0.02836453009047729,True
13623,178655,0,178649,3278.0,42261.0,29672.0,0.000183,0.000122,0.0008539999999999999,0.385,-1.8375000000000001,-3.8675,1.03740625,0.0323125,-0.19209375,1.285625,0.9916875,-0.43234375,-0.8954062500000001,1.23615625,0.019018079262248428,0.02825069384035458,True
13624,178656,0,178650,3280.0,42263.0,29672.0,0.000366,6.1e-05,0.000793,0.2625,-1.9250000000000003,-3.8150000000000004,1.0368125,0.0330625,-0.18859375,1.285125,0.9928125,-0.43343750000000003,-0.8933125000000001,1.2376562500000001,0.01909268804276926,0.028309561051788508,True
13625,178657,0,178651,3281.0,42266.0,29674.0,6.1e-05,0.0,0.000244,0.22750000000000004,-1.8200000000000003,-3.7975000000000003,1.0366250000000001,0.03209375,-0.18753125,1.28340625,0.9958750000000001,-0.43278125,-0.8925000000000001,1.23190625,0.01902669185482107,0.028320528271567745,True
13626,178658,0,178652,3284.0,42265.0,29676.0,0.000244,-0.000183,0.000183,0.22750000000000004,-1.8900000000000001,-3.7800000000000002,1.044625,0.031968750000000004,-0.18762500000000001,1.2850625,0.9995625,-0.43293750000000003,-0.8869375,1.22971875,0.019027849189234818,0.028099580352142568,True
13627,178659,0,178653,3284.0,42265.0,29675.0,0.002074,-0.00122,-0.001037,0.22750000000000004,-1.8550000000000002,-3.7275000000000005,1.04503125,0.0319375,-0.1880625,1.2786250000000001,0.99128125,-0.4331875,-0.89390625,1.22934375,0.01903660748316199,0.02835407761688666,True
13628,178660,0,178654,3285.0,42265.0,29677.0,0.00183,-0.00042699999999999997,-0.001037,0.24500000000000002,-1.9075000000000002,-3.7800000000000002,1.03709375,0.0326875,-0.1880625,1.269875,0.99153125,-0.43221875,-0.89396875,1.2281875,0.019028408952829957,0.02835651707805731,True
13629,178661,0,178655,3286.0,42265.0,29679.0,-0.000305,-0.000122,-0.000915,0.385,-1.6800000000000002,-3.8325000000000005,1.026875,0.03275,-0.1880625,1.27965625,0.99221875,-0.43275,-0.8929375,1.2294375,0.01905229661008278,0.028316264402302865,True
13630,178662,0,178656,3288.0,42268.0,29681.0,-0.0008539999999999999,0.000732,0.000305,0.31500000000000006,-1.61,-3.7450000000000006,1.03734375,0.03309375,-0.1890625,1.2808125000000001,0.99228125,-0.43215625,-0.8928125,1.2289375,0.019042527202239878,0.02827121282498713,True
13631,178663,0,178657,3288.0,42268.0,29681.0,-0.001281,0.000122,-0.000549,0.31500000000000006,-1.54,-3.8675,1.0362500000000001,0.04025,-0.188,1.27278125,0.99265625,-0.432375,-0.89275,1.22759375,0.01934421029474212,0.028311456146870074,True
13632,178664,0,178658,3291.0,42269.0,29684.0,-0.000122,-0.000244,0.000793,0.42000000000000004,-1.5575,-3.8325000000000005,1.03778125,0.03246875,-0.18862500000000001,1.2725,0.99209375,-0.43278125,-0.8934375,1.22840625,0.019042040087024474,0.02831318495085301,True
13633,178665,0,178659,3291.0,42269.0,29685.0,0.0,-6.1e-05,0.000488,0.42000000000000004,-1.54,-3.8675,1.0373125,0.033,-0.1874375,1.285625,0.9919375,-0.43259375,-0.8922187500000001,1.2328125,0.019056255539795074,0.028313315782668026,True
13634,178666,0,178660,3293.0,42272.0,29684.0,-0.002562,0.000183,0.001281,0.36750000000000005,-1.54,-3.8850000000000002,1.04403125,0.029312500000000002,-0.1901875,1.2853125,0.99790625,-0.43296875,-0.89565625,1.2339375000000001,0.018920388051492924,0.02833702164408701,True
13635,178667,0,178661,3295.0,42270.0,29687.0,0.000183,0.00042699999999999997,-0.000305,0.21000000000000002,-1.8550000000000002,-3.6400000000000006,1.042625,0.0323125,-0.1881875,1.28059375,0.9937812500000001,-0.43321875,-0.8939375,1.2221250000000001,0.01905321008923558,0.02835027604612569,True
13636,178668,0,178662,3296.0,42272.0,29689.0,0.001403,6.1e-05,-0.000549,0.17500000000000002,-2.0300000000000002,-3.6925000000000003,1.0326250000000001,0.031781250000000004,-0.18590625,1.2842500000000001,0.99275,-0.431875,-0.89384375,1.23790625,0.01897751400578138,0.028438255944303506,True
13637,178669,0,178663,3297.0,42274.0,29690.0,0.0025009999999999998,0.0,-0.001037,0.22750000000000004,-2.0650000000000004,-3.8675,1.0375,0.03275,-0.18837500000000001,1.28059375,0.99128125,-0.433,-0.893375,1.22859375,0.019062333728973112,0.02832078816150884,True
13638,178670,0,178664,3299.0,42273.0,29690.0,0.0017079999999999999,-0.0011589999999999999,-0.001403,0.35000000000000003,-2.1700000000000004,-3.9025000000000003,1.0393125,0.03015625,-0.19078125,1.27965625,0.992125,-0.42596875,-0.9018125,1.23490625,0.018673773174298358,0.02855339345278582,True
13639,178671,0,178665,3302.0,42274.0,29693.0,0.0018909999999999999,-0.000732,-0.0008539999999999999,0.385,-2.0475000000000003,-3.7975000000000003,1.03765625,0.03365625,-0.18721875000000002,1.28603125,0.98621875,-0.42609375,-0.88909375,1.2240625,0.01882208447676985,0.028200102705627842,True
13640,178672,0,178666,3303.0,42274.0,29693.0,0.001647,-0.000183,-0.000366,0.36750000000000005,-1.61,-3.8150000000000004,1.0280625,0.0369375,-0.18753125,1.28475,1.0014687500000001,-0.441625,-0.892,1.21675,0.019579815171863576,0.028301010364775833,True
13641,178673,0,178667,3306.0,42275.0,29695.0,-0.0023179999999999997,0.0,0.000244,0.3325,-1.4525000000000001,-3.8500000000000005,1.04471875,0.032625,-0.18771875000000002,1.2881875,1.001875,-0.4425,-0.8906875,1.22321875,0.019438478060754834,0.028242239190862044,True
13642,178674,0,178668,3307.0,42279.0,29697.0,-0.00244,0.000244,0.000976,0.28,-1.3125000000000002,-3.8675,1.0430625,0.03346875,-0.18796875000000002,1.2816875,1.00303125,-0.437625,-0.89075,1.2171875,0.01927739500053708,0.02823463535650794,True
13643,178675,0,178669,3308.0,42279.0,29698.0,-0.002623,0.000244,0.00122,0.42000000000000004,-1.225,-3.7625,1.04359375,0.02884375,-0.19296875,1.2806875,0.98546875,-0.4305,-0.89971875,1.2414375,0.01880206094840466,0.028383854737315053,True
13644,178676,0,178670,3311.0,42278.0,29701.0,-0.0008539999999999999,0.0,0.001586,0.36750000000000005,-1.2775,-3.7625,1.0382500000000001,0.03121875,-0.18875,1.28075,0.98565625,-0.428875,-0.90025,1.21359375,0.018834013027615885,0.028574010301101394,True
13645,178677,0,178671,3313.0,42283.0,29704.0,-0.00042699999999999997,-0.0008539999999999999,0.000122,0.31500000000000006,-1.6275000000000002,-3.7975000000000003,1.0416875,0.02859375,-0.18746875000000002,1.28,0.98578125,-0.4340625,-0.89459375,1.22275,0.018934888539308598,0.02840476157599479,True
13646,178678,0,178672,3315.0,42284.0,29707.0,0.00122,0.0006709999999999999,-0.000732,0.385,-1.61,-3.7800000000000002,1.043125,0.030875,-0.18821875,1.2810625,0.9968125,-0.4390625,-0.8943125000000001,1.22396875,0.01922894955565501,0.028363657361495723,True
13647,178679,0,178673,3316.0,42282.0,29707.0,0.001281,0.000915,-0.0018909999999999999,0.36750000000000005,-1.61,-3.7975000000000003,1.0439687500000001,0.03240625,-0.1884375,1.2745312500000001,0.990375,-0.434375,-0.89396875,1.2165,0.019103465916357594,0.028341453188335024,True
13648,178680,0,178674,3318.0,42286.0,29707.0,0.001281,-0.000305,-0.000915,0.29750000000000004,-1.5925000000000002,-3.7275000000000005,1.045,0.03278125,-0.18071875,1.28115625,0.9999375,-0.4361875,-0.89275,1.22425,0.01919156783356651,0.028603960992658505,True
13649,178681,0,178675,3320.0,42285.0,29711.0,0.000305,0.000183,0.000366,0.35000000000000003,-1.5750000000000002,-3.7275000000000005,1.04403125,0.029406250000000002,-0.18825,1.2795,0.9973125,-0.4353125,-0.894,1.22234375,0.019018326448659088,0.028350204868643047,True
13650,178682,0,178676,3321.0,42288.0,29713.0,-0.001464,-0.000488,0.000793,0.45500000000000007,-1.3475000000000001,-3.7625,1.04275,0.02909375,-0.183625,1.28,0.9889687500000001,-0.43278125,-0.8935625,1.2280312500000001,0.018903905997193833,0.02851891929891513,True
13651,178683,0,178677,3324.0,42288.0,29714.0,-0.001464,0.000366,0.000915,0.385,-1.54,-3.8675,1.0410625,0.03275,-0.188,1.28046875,0.99746875,-0.436875,-0.8899375,1.22934375,0.019217882810302053,0.028201657798457715,True
13652,178684,0,178678,3324.0,42291.0,29716.0,0.00042699999999999997,0.000732,0.001281,0.35000000000000003,-1.61,-3.8325000000000005,1.04315625,0.02859375,-0.1885625,1.280375,0.99834375,-0.4341875,-0.89375,1.22665625,0.018939907455486293,0.028327893547577206,True
13653,178685,0,178679,3328.0,42294.0,29719.0,0.00244,0.000732,-0.000732,0.45500000000000007,-1.5575,-3.7625,1.04221875,0.031968750000000004,-0.1911875,1.27925,0.9946875000000001,-0.436375,-0.8951875,1.22853125,0.01916584395189548,0.028278557853802067,True
13654,178686,0,178680,3330.0,42294.0,29719.0,0.002623,0.001037,0.000183,0.42000000000000004,-1.5050000000000001,-3.8675,1.0369375,0.032125,-0.18853125,1.28025,0.991125,-0.43271875,-0.8921875,1.229125,0.01902546150333761,0.028268156424581005,True
13655,178687,0,178681,3331.0,42294.0,29722.0,-0.003965,-0.00042699999999999997,0.000549,0.35000000000000003,-1.2075,-3.9025000000000003,1.037375,0.0325625,-0.191,1.28440625,0.99128125,-0.43465625,-0.89578125,1.2374375,0.01912115092677025,0.028309264245322686,True
13656,178688,0,178682,3332.0,42294.0,29725.0,-0.001769,-0.000793,0.000488,0.31500000000000006,-1.4175000000000002,-3.7800000000000002,1.04146875,0.031906250000000004,-0.18862500000000001,1.2806250000000001,0.9968125,-0.435125,-0.8935000000000001,1.228625,0.019113110737104887,0.028315624560628277,True
13657,178689,0,178683,3337.0,42295.0,29725.0,0.000366,-0.001769,-0.001098,0.28,-1.5050000000000001,-3.7450000000000006,1.036875,0.0330625,-0.18787500000000001,1.2795625,0.99128125,-0.43184375,-0.8921250000000001,1.22859375,0.019028701016475684,0.02829208032660932,True
13658,178690,0,178684,3337.0,42297.0,29725.0,0.002196,-0.000915,-0.0008539999999999999,0.29750000000000004,-1.5925000000000002,-3.8150000000000004,1.038375,0.02921875,-0.1909375,1.2886250000000001,0.987,-0.43543750000000003,-0.8950625,1.23353125,0.019015671399376422,0.028283720918555636,True
13659,178691,0,178685,3340.0,42299.0,29729.0,0.000793,0.001403,-0.0006709999999999999,0.4025,-1.5575,-3.8150000000000004,1.04515625,0.0286875,-0.19137500000000002,1.2865312500000001,1.00040625,-0.43309375,-0.894,1.231625,0.018899827206695835,0.028224672611874353,True
13660,178692,0,178686,3342.0,42304.0,29731.0,-0.000976,-0.00042699999999999997,0.000915,0.385,-1.4175000000000002,-3.7275000000000005,1.0439375,0.0301875,-0.19228125000000001,1.28609375,0.99275,-0.43359375,-0.89303125,1.21875,0.018981294964028776,0.028150448732514245,True
13661,178693,0,178687,3345.0,42305.0,29735.0,0.001281,0.001037,0.000976,0.43750000000000006,-1.4875,-3.7450000000000006,1.0375,0.033,-0.18778125,1.27878125,0.9904375,-0.432125,-0.8935000000000001,1.22884375,0.01903743534383522,0.028349518950730113,True
13662,178694,0,178688,3348.0,42306.0,29736.0,0.0023179999999999997,-0.000122,-0.000305,0.45500000000000007,-1.5050000000000001,-3.7450000000000006,1.03515625,0.03371875,-0.18762500000000001,1.2804375000000001,0.9921875,-0.4335,-0.8962187500000001,1.23465625,0.01912205578406696,0.028461902472639546,True
13663,178695,0,178689,3349.0,42306.0,29738.0,0.00122,0.000305,-0.00122,0.525,-1.435,-3.7625,1.0342500000000001,0.033625,-0.18653125,1.2899375,0.99109375,-0.432625,-0.89109375,1.23515625,0.019083090744445183,0.02830580717249518,True
13664,178696,0,178690,3350.0,42306.0,29740.0,0.000183,0.001586,-0.001037,0.5775,-1.2075,-3.7625,1.0470625,0.03215625,-0.18809375,1.27803125,0.9999687500000001,-0.4333125,-0.8926875,1.22684375,0.019050578999470498,0.028305250286856327,True
13665,178697,0,178691,3353.0,42311.0,29743.0,-0.000366,0.000244,-0.000244,0.4025,-0.9800000000000001,-3.6575,1.03521875,0.03415625,-0.19003125,1.29196875,0.9917812500000001,-0.43471875,-0.8934062500000001,1.23559375,0.01918888466845971,0.028255474278454762,True
13666,178698,0,178692,3353.0,42311.0,29743.0,-0.00183,-0.000549,0.000305,0.36750000000000005,-0.8225000000000001,-3.535,1.04921875,0.0310625,-0.18640625,1.27728125,0.99834375,-0.43259375,-0.8928125,1.22553125,0.018976955731521545,0.028377920333429577,True
13667,178699,0,178693,3355.0,42311.0,29745.0,-0.003111,-0.00183,0.001281,0.42000000000000004,-0.7875000000000001,-3.43,1.03503125,0.03396875,-0.18803125,1.2780625,0.9909375,-0.43196875,-0.89328125,1.2279375000000001,0.019070812703131015,0.02833093769026532,True
13668,178700,0,178694,3356.0,42312.0,29744.0,-0.002806,-0.0015249999999999999,0.0028669999999999998,0.4025,-0.8225000000000001,-3.5175000000000005,1.0278125,0.03390625,-0.18646875000000002,1.275375,0.99128125,-0.43221875,-0.89334375,1.233375,0.019078291855912595,0.028396145053835926,True
13669,178701,0,178695,3355.0,42313.0,29744.0,-0.0028669999999999998,-0.000915,0.002989,0.35000000000000003,-1.0325000000000002,-3.6050000000000004,1.046,0.02771875,-0.192,1.288875,0.9963125,-0.4296875,-0.89475,1.23309375,0.018723377038695234,0.028228843430843854,True
13670,178702,0,178696,3354.0,42307.0,29737.0,0.0030499999999999998,-0.001403,-0.000976,0.21000000000000002,-1.435,-3.6400000000000006,1.0484375,0.0360625,-0.1928125,1.28884375,0.9959687500000001,-0.433625,-0.89378125,1.22890625,0.01922299699696627,0.028158387950805983,True
13671,178703,0,178697,3351.0,42306.0,29731.0,0.003477,-0.0006709999999999999,-0.003111,0.17500000000000002,-1.5575,-3.6750000000000003,1.03565625,0.03290625,-0.1873125,1.2775,0.9914375,-0.43178125,-0.89328125,1.229,0.019019796192715176,0.028359810942962773,True
13672,178704,0,178698,3347.0,42304.0,29724.0,0.001464,-0.000122,-0.002562,0.24500000000000002,-1.54,-3.7800000000000002,1.03428125,0.0343125,-0.18703125,1.2787187500000001,0.9918750000000001,-0.43196875,-0.89284375,1.22909375,0.019084882383864382,0.028354032471681747,True
13673,178705,0,178699,3339.0,42296.0,29717.0,0.0011589999999999999,0.001952,0.000976,0.31500000000000006,-1.3825,-3.7800000000000002,1.03490625,0.03371875,-0.18875,1.28521875,0.99246875,-0.4326875,-0.8950625,1.23328125,0.019089437050263097,0.02837158974796709,True
13674,178706,0,178700,3333.0,42293.0,29710.0,-0.000549,0.002013,0.0008539999999999999,0.36750000000000005,-1.3825,-3.9550000000000005,1.04296875,0.0306875,-0.1888125,1.28046875,0.99590625,-0.43493750000000003,-0.89453125,1.2300312500000001,0.019055706608621364,0.028348344578691353,True
13675,178707,0,178701,3326.0,42293.0,29704.0,-0.0006709999999999999,0.0013419999999999999,0.001098,0.42000000000000004,-1.2425000000000002,-3.8850000000000002,1.03696875,0.03271875,-0.1880625,1.2795,0.992125,-0.432,-0.8922187500000001,1.23009375,0.019020904960707272,0.02828820753473412,True
13676,178708,0,178702,3318.0,42289.0,29699.0,-0.001464,0.001586,0.000305,0.385,-1.3475000000000001,-3.9725000000000006,1.04246875,0.0371875,-0.19137500000000002,1.2875,0.9888125,-0.43840625,-0.9005625,1.2525,0.019460915132303278,0.02848078231164457,True
13677,178709,0,178703,3310.0,42282.0,29692.0,-0.00061,0.001586,0.0017079999999999999,0.2625,-1.3650000000000002,-3.8500000000000005,1.045875,0.029343750000000002,-0.1915,1.2875,1.02025,-0.433125,-0.89646875,1.239125,0.018927941063617528,0.028316013691700757,True
13678,178710,0,178704,3302.0,42283.0,29688.0,-0.000366,0.0011589999999999999,0.002989,0.31500000000000006,-1.4525000000000001,-3.8150000000000004,1.044625,0.0288125,-0.1788125,1.27990625,0.985125,-0.42809375,-0.8855937500000001,1.2129375,0.01870413036219824,0.028401221088003976,True
13679,178711,0,178705,3296.0,42279.0,29685.0,0.000305,-0.003843,-0.002623,0.2625,-1.6800000000000002,-3.6575,1.02771875,0.03359375,-0.1875625,1.2801875,0.9801562500000001,-0.427875,-0.88565625,1.2138125,0.018891072186999484,0.028052053077764427,True
13680,178712,0,178706,3289.0,42277.0,29681.0,0.000976,-0.003477,-0.001464,0.17500000000000002,-1.7675,-3.7800000000000002,1.03740625,0.03903125,-0.187125,1.28015625,0.979375,-0.42853125000000003,-0.88628125,1.21890625,0.019140016860407852,0.028094042777082256,True
13681,178713,0,178707,3283.0,42272.0,29675.0,0.001281,-0.002562,-0.0028669999999999998,0.22750000000000004,-1.6800000000000002,-3.7800000000000002,1.0376875,0.03653125,-0.18803125,1.27975,0.978625,-0.42946875,-0.8864062500000001,1.20590625,0.019075322708358117,0.028062509025384094,True
13682,178714,0,178708,3278.0,42269.0,29672.0,0.001403,-0.0013419999999999999,-0.001281,0.15750000000000003,-1.6625,-3.9375000000000004,1.03690625,0.03446875,-0.18759375,1.2820625,0.9791875,-0.42890625,-0.885,1.22025,0.018968307269180338,0.028025165762507534,True
13683,178715,0,178709,3274.0,42270.0,29670.0,0.000183,-0.000488,-0.000122,0.17500000000000002,-1.4175000000000002,-3.9725000000000006,1.04359375,0.031125,-0.19112500000000002,1.27934375,0.9723437500000001,-0.42796875,-0.90271875,1.25071875,0.018793775065722565,0.028574942244006994,True
13684,178716,0,178710,3271.0,42267.0,29669.0,-0.0021349999999999997,0.0030499999999999998,0.000549,0.2625,-1.2600000000000002,-3.9725000000000006,1.0370625,0.03265625,-0.1876875,1.280375,0.98759375,-0.43293750000000003,-0.881375,1.21890625,0.019055987434994256,0.027879789601659877,True
13685,178717,0,178711,3268.0,42266.0,29666.0,-0.001647,0.003904,0.000366,0.35000000000000003,-1.3825,-3.9550000000000005,1.043,0.0323125,-0.19015625,1.28734375,0.9813125,-0.43146875,-0.8942187500000001,1.2449375,0.018982945918877676,0.02828216892727353,True
13686,178718,0,178712,3266.0,42262.0,29664.0,-0.0025009999999999998,0.001281,0.0015249999999999999,0.3325,-1.5575,-3.8850000000000002,1.0348125,0.029468750000000002,-0.19075,1.28725,1.01565625,-0.44046875,-0.89934375,1.2409375,0.019227843164832916,0.028458330352582085,True
13687,178719,0,178713,3263.0,42263.0,29664.0,0.000793,-0.00042699999999999997,6.1e-05,0.3325,-1.7850000000000001,-3.8850000000000002,1.04115625,0.0343125,-0.18837500000000001,1.281375,1.00578125,-0.43628125,-0.894625,1.2315625000000001,0.01925799368510706,0.028369577770301822,True
13688,178720,0,178714,3260.0,42261.0,29661.0,0.001769,-0.001769,0.000122,0.29750000000000004,-2.0650000000000004,-3.8675,1.03325,0.0333125,-0.18775,1.28028125,0.9886875,-0.42934375,-0.8849375,1.2249375,0.018938545985296883,0.028016445691294186,True
13689,178721,0,178715,3260.0,42259.0,29659.0,0.003111,0.000183,-0.000915,0.29750000000000004,-2.0125,-3.8675,1.03775,0.03321875,-0.18821875,1.27965625,0.9835625,-0.423875,-0.887625,1.2256562500000001,0.01871503805190618,0.02810257105690077,True
13690,178722,0,178716,3256.0,42263.0,29660.0,0.0025009999999999998,-0.001403,-0.002257,0.24500000000000002,-1.9075000000000002,-3.7975000000000003,1.03775,0.03259375,-0.1890625,1.27940625,0.9878750000000001,-0.43112500000000004,-0.8921250000000001,1.22934375,0.018980654799973393,0.02824437447586335,True
13691,178723,0,178717,3256.0,42260.0,29658.0,0.0018909999999999999,-0.000488,-0.002074,0.28,-1.7850000000000001,-3.7450000000000006,1.03740625,0.03265625,-0.18846875,1.27971875,0.99225,-0.43178125,-0.8900625,1.22921875,0.019009563619107796,0.02818770543464887,True
13692,178724,0,178718,3256.0,42261.0,29660.0,-0.000488,-0.0013419999999999999,-0.000732,0.1925,-1.4875,-3.7450000000000006,1.03721875,0.03296875,-0.18721875000000002,1.2835625,0.9898750000000001,-0.43440625,-0.8934062500000001,1.238,0.019127741235783046,0.028368456004288285,True
13693,178725,0,178719,3256.0,42261.0,29659.0,-0.000305,-0.000793,0.000122,0.28,-1.1900000000000002,-3.7100000000000004,1.03475,0.030375,-0.18715625,1.28046875,1.00021875,-0.4326875,-0.89546875,1.2337500000000001,0.01895258145465987,0.02845146267832374,True
13694,178726,0,178720,3254.0,42263.0,29658.0,-0.003721,0.000915,0.002745,0.45500000000000007,-1.0675000000000001,-3.7975000000000003,1.037875,0.03328125,-0.18809375,1.28059375,0.99346875,-0.43143750000000003,-0.89171875,1.22928125,0.019021342890691552,0.028267433320569718,True
13695,178727,0,178721,3254.0,42262.0,29659.0,-0.0034159999999999998,0.000793,0.0015249999999999999,0.3325,-1.155,-3.7450000000000006,1.03703125,0.033625,-0.19078125,1.2827187500000001,0.99190625,-0.4320625,-0.8929375,1.22925,0.019060507069347914,0.02820704667739595,True
13696,178728,0,178722,3255.0,42264.0,29662.0,-0.0034159999999999998,-0.000793,0.0017079999999999999,0.2625,-1.4175000000000002,-3.8325000000000005,1.04109375,0.029937500000000002,-0.1875,1.2799375,0.99784375,-0.43634375000000003,-0.89315625,1.2364375,0.01908146549133399,0.02834739969946559,True
13697,178729,0,178723,3254.0,42263.0,29660.0,-0.002379,-0.000122,0.001403,0.3325,-1.7325000000000002,-3.8500000000000005,1.03709375,0.03403125,-0.18746875000000002,1.2808125000000001,1.0,-0.43115625,-0.8895625,1.221375,0.019040748429579545,0.028208360432209284,True
13698,178730,0,178724,3254.0,42264.0,29661.0,0.0006709999999999999,-0.000366,-6.1e-05,0.28,-2.0300000000000002,-3.8150000000000004,1.03809375,0.03290625,-0.18703125,1.28115625,0.99228125,-0.428875,-0.8954062500000001,1.234875,0.018903091116557764,0.028454044609133464,True
13699,178731,0,178725,3253.0,42259.0,29659.0,0.0068319999999999995,-0.000183,-0.002928,0.36750000000000005,-2.4850000000000003,-3.9200000000000004,1.03765625,0.033875,-0.1875,1.28146875,0.9945625,-0.434625,-0.89346875,1.23503125,0.019173611217688014,0.028359597334140105,True
13700,178732,0,178726,3255.0,42260.0,29658.0,0.0034159999999999998,0.0006709999999999999,-0.003172,0.28,-2.3275,-3.99,1.02165625,0.03821875,-0.18778125,1.27496875,0.998125,-0.43409375,-0.89009375,1.2333125,0.01933006007231187,0.028216546994725564,True
13701,178733,0,178727,3256.0,42258.0,29656.0,0.003355,0.001281,-0.0021349999999999997,0.31500000000000006,-1.9425000000000001,-3.8675,1.03515625,0.0326875,-0.18684375,1.27784375,0.992375,-0.43162500000000004,-0.89196875,1.22659375,0.01900456887333528,0.028327409819683305,True
13702,178734,0,178728,3254.0,42258.0,29656.0,0.001403,0.000732,-6.1e-05,0.36750000000000005,-1.5225000000000002,-3.9200000000000004,1.03296875,0.035312500000000004,-0.18140625,1.27615625,1.00053125,-0.43434375000000003,-0.896,1.2363125,0.019221152604108716,0.028703155125321338,True
13703,178735,0,178729,3254.0,42260.0,29658.0,0.0006709999999999999,-0.00042699999999999997,0.000244,0.43750000000000006,-1.0675000000000001,-3.8500000000000005,1.0306875,0.035375000000000004,-0.18675,1.28159375,0.9981875,-0.43128125,-0.8963125000000001,1.23553125,0.019100768609914796,0.028500706680959283,True
13704,178736,0,178730,3254.0,42261.0,29658.0,-0.005307,-0.000183,0.0015249999999999999,0.29750000000000004,-0.6300000000000001,-3.7275000000000005,1.05309375,0.024625,-0.19059375,1.2823437500000001,0.98665625,-0.43346875,-0.892625,1.2281250000000001,0.018748617099240156,0.028202379218744508,True
13705,178737,0,178731,3255.0,42263.0,29658.0,-0.006039,-0.00061,0.00244,0.3325,-0.6825000000000001,-3.7275000000000005,1.0520625000000001,0.03028125,-0.18878125,1.27859375,0.9925625,-0.43203125000000003,-0.89203125,1.22946875,0.018922393118664664,0.028252013382796957,True
13706,178738,0,178732,3254.0,42266.0,29662.0,-0.004148,0.000183,0.0025009999999999998,0.35000000000000003,-0.8750000000000001,-3.6050000000000004,1.02803125,0.03534375,-0.182625,1.27465625,0.9921562500000001,-0.43225,-0.89409375,1.2363125,0.019138382670445826,0.02857982126784591,True
13707,178739,0,178733,3254.0,42266.0,29660.0,-0.000305,-0.000122,0.000915,0.3325,-1.3825,-3.6750000000000003,1.030875,0.03478125,-0.18381250000000002,1.26875,0.99790625,-0.43046875,-0.8953125000000001,1.22846875,0.01904384253781459,0.028579677399108768,True
13708,178740,0,178734,3255.0,42264.0,29659.0,0.002013,0.0,-0.000915,0.3325,-1.6975000000000002,-3.7625,1.031,0.03421875,-0.1840625,1.275125,0.9988125,-0.43590625,-0.88590625,1.23478125,0.019239106386733665,0.028202458972134074,True
13709,178741,0,178735,3255.0,42265.0,29662.0,0.001281,0.001098,-0.00244,0.36750000000000005,-1.7850000000000001,-3.8850000000000002,1.02975,0.03709375,-0.18253125,1.28934375,0.99934375,-0.43540625,-0.8958125,1.23703125,0.01933669508768654,0.02865065159050342,True
13710,178742,0,178736,3254.0,42265.0,29661.0,0.0023179999999999997,0.000793,-0.0006709999999999999,0.45500000000000007,-1.7325000000000002,-3.8150000000000004,1.0458125,0.0361875,-0.18303125,1.2754375,0.999,-0.4336875,-0.8931250000000001,1.2375625000000001,0.019230621657087166,0.028525697356197748,True
13711,178743,0,178737,3255.0,42267.0,29661.0,0.0028669999999999998,0.000244,0.000793,0.36750000000000005,-1.6450000000000002,-3.7800000000000002,1.02125,0.035,-0.184875,1.274875,0.998,-0.4283125,-0.887,1.2291875,0.018966209802662382,0.028212520593080725,True
13712,178744,0,178738,3255.0,42269.0,29659.0,0.0015249999999999999,-0.001281,-0.000366,0.385,-1.3650000000000002,-3.7975000000000003,1.0306250000000001,0.03553125,-0.18515625,1.27465625,0.9928125,-0.43228125,-0.8929375,1.2298125,0.019147311510258586,0.02843301438409991,True
13713,178745,0,178739,3258.0,42269.0,29665.0,-0.00122,-0.000488,0.00061,0.4025,-1.1900000000000002,-3.8325000000000005,1.02159375,0.0348125,-0.1860625,1.2795625,0.98459375,-0.4353125,-0.89075,1.23640625,0.019239573874899288,0.02831122003153782,True
13714,178746,0,178740,3257.0,42271.0,29665.0,-0.001464,0.000793,0.000305,0.36750000000000005,-1.1725,-3.7800000000000002,1.035,0.03353125,-0.187375,1.28003125,0.998,-0.4353125,-0.89359375,1.23103125,0.01918713951376722,0.02836949767447699,True
13715,178747,0,178741,3257.0,42272.0,29666.0,-0.000122,0.000305,-0.000305,0.31500000000000006,-1.2600000000000002,-3.8150000000000004,1.03771875,0.0325625,-0.1874375,1.28078125,1.0005625,-0.43471875,-0.89453125,1.22946875,0.019123659853870836,0.028403577592970342,True
13716,178748,0,178742,3260.0,42272.0,29668.0,-0.000732,-0.000793,0.000183,0.385,-1.2425000000000002,-3.8500000000000005,1.03803125,0.0369375,-0.18696875000000002,1.28109375,0.984125,-0.43209375,-0.89528125,1.2371875,0.0191973416113795,0.02845167696187405,True
13717,178749,0,178743,3261.0,42274.0,29670.0,-0.000183,-0.000305,0.000122,0.45500000000000007,-1.4175000000000002,-3.9550000000000005,1.0441875,0.03125,-0.19128125,1.2873125,0.99059375,-0.43640625,-0.8966875,1.23484375,0.01913768519051364,0.028333337517290204,True
13718,178750,0,178744,3259.0,42273.0,29670.0,-0.000305,0.000793,0.00042699999999999997,0.31500000000000006,-1.4525000000000001,-3.9025000000000003,1.0345625,0.029343750000000002,-0.19187500000000002,1.2846250000000001,0.99725,-0.4338125,-0.89296875,1.2223125000000001,0.01895554572173295,0.02816432853152559,True
13719,178751,0,178745,3263.0,42277.0,29674.0,-0.000244,-6.1e-05,6.1e-05,0.24500000000000002,-1.5050000000000001,-3.8325000000000005,1.03753125,0.03321875,-0.18603125,1.28128125,0.9908750000000001,-0.43221875,-0.8914062500000001,1.23240625,0.0190501527823788,0.028338093594049155,True
13720,178752,0,178746,3261.0,42276.0,29675.0,-0.00122,6.1e-05,-0.000122,0.35000000000000003,-1.6800000000000002,-3.8325000000000005,1.04390625,0.029125,-0.19171875,1.28440625,0.9999375,-0.43590625,-0.89284375,1.22953125,0.019030652894242463,0.0281657253402396,True
13721,178753,0,178747,3264.0,42275.0,29676.0,0.000366,-0.001037,-0.000183,0.385,-1.6800000000000002,-3.7800000000000002,1.03746875,0.0328125,-0.1878125,1.2807187500000001,0.99190625,-0.43115625,-0.8915937500000001,1.22909375,0.018990863357111885,0.02827385249287222,True
13722,178754,0,178748,3265.0,42276.0,29678.0,-0.00042699999999999997,-0.000366,0.00042699999999999997,0.29750000000000004,-1.715,-3.7800000000000002,1.0368125,0.032,-0.18690625,1.27275,0.99171875,-0.43146875,-0.8915937500000001,1.22865625,0.01897015503826392,0.028310260366514305,True
13723,178755,0,178749,3266.0,42275.0,29679.0,0.0006709999999999999,6.1e-05,0.00061,0.22750000000000004,-1.8025000000000002,-3.7100000000000004,1.0373125,0.03653125,-0.18796875000000002,1.2813125,0.99184375,-0.43493750000000003,-0.8944062500000001,1.2380625,0.019294862121091983,0.02837735886952516,True
13724,178756,0,178750,3268.0,42278.0,29681.0,0.002257,-0.000549,-0.000915,0.21000000000000002,-1.9775000000000003,-3.8500000000000005,1.044125,0.03125,-0.19121875,1.28540625,0.9919687500000001,-0.434375,-0.89534375,1.23625,0.019056145287121115,0.028283401389064974,True
13725,178757,0,178751,3268.0,42281.0,29682.0,0.001403,0.000732,-0.0013419999999999999,0.3325,-1.8200000000000003,-3.8150000000000004,1.03771875,0.031968750000000004,-0.18746875000000002,1.28065625,0.993,-0.431875,-0.89134375,1.2295,0.018985188406538588,0.028277902835197478,True
13726,178758,0,178752,3269.0,42281.0,29685.0,-0.000305,0.000244,0.000549,0.3325,-1.7500000000000002,-3.7275000000000005,1.03725,0.029968750000000002,-0.19096875,1.28534375,0.99353125,-0.43471875,-0.8921875,1.2354375,0.019017509665422278,0.028170234134705922,True
13727,178759,0,178753,3271.0,42280.0,29683.0,-0.001037,0.000732,0.0008539999999999999,0.35000000000000003,-1.6275000000000002,-3.7625,1.04271875,0.03215625,-0.18278125,1.27684375,0.991625,-0.43240625,-0.892375,1.2289375,0.019014193495575163,0.028506470354877748,True
13728,178760,0,178754,3271.0,42282.0,29685.0,0.00042699999999999997,0.00042699999999999997,0.000549,0.4025,-1.6275000000000002,-3.8500000000000005,1.03728125,0.03634375,-0.19187500000000002,1.2845,0.992375,-0.4345625,-0.8928125,1.2284375,0.019272137571523944,0.028158228404283364,True
13729,178761,0,178755,3271.0,42280.0,29685.0,-0.00122,-0.00042699999999999997,-0.002013,0.29750000000000004,-1.4875,-3.7625,1.03690625,0.03315625,-0.18715625,1.28628125,0.99203125,-0.43193750000000003,-0.89184375,1.23528125,0.01903630238084884,0.028309976033816298,True
13730,178762,0,178756,3272.0,42284.0,29687.0,-0.000488,-0.000793,0.000488,0.3325,-1.5050000000000001,-3.7975000000000003,1.04153125,0.0315,-0.18025,1.28096875,0.9978750000000001,-0.43153125000000003,-0.89190625,1.2294375,0.01895219932234088,0.028589865430655795,True
13731,178763,0,178757,3276.0,42286.0,29690.0,0.000244,0.000122,0.00042699999999999997,0.29750000000000004,-1.4525000000000001,-3.7625,1.0374375,0.03340625,-0.187125,1.2806250000000001,0.99171875,-0.42865625,-0.8913125000000001,1.23084375,0.01891477350498966,0.028290492917960836,True
13732,178764,0,178758,3274.0,42286.0,29692.0,0.000122,0.000366,-0.00042699999999999997,0.36750000000000005,-1.4000000000000001,-3.7100000000000004,1.03771875,0.03246875,-0.18709375,1.2847187500000001,0.99321875,-0.432875,-0.888625,1.23503125,0.019045804065219506,0.028186822293316722,True
13733,178765,0,178759,3276.0,42289.0,29695.0,-0.001464,-0.00042699999999999997,0.001464,0.35000000000000003,-1.4525000000000001,-3.6925000000000003,1.04121875,0.0305,-0.186875,1.27959375,0.9984375,-0.43275,-0.89325,1.228625,0.018960207099078086,0.028376166229801252,True
13734,178766,0,178760,3276.0,42289.0,29696.0,-0.0008539999999999999,0.0008539999999999999,0.000732,0.35000000000000003,-1.6625,-3.7800000000000002,1.037375,0.03303125,-0.1876875,1.27996875,0.992,-0.43193750000000003,-0.89153125,1.22740625,0.01903118612676543,0.02827643437966477,True
13735,178767,0,178761,3279.0,42289.0,29694.0,0.0023179999999999997,0.0,0.0006709999999999999,0.36750000000000005,-1.715,-3.8150000000000004,1.04065625,0.03125,-0.18534375,1.2803437500000001,0.999125,-0.43371875,-0.89225,1.22896875,0.01902979872844775,0.028398648173628336,True
13736,178768,0,178762,3278.0,42292.0,29696.0,0.0026839999999999998,0.000244,-0.0018909999999999999,0.24500000000000002,-1.8375000000000001,-3.7100000000000004,1.0366250000000001,0.03303125,-0.18734375,1.2827187500000001,0.992625,-0.43196875,-0.8905000000000001,1.2403125,0.019032440846585483,0.02824998493401097,True
13737,178769,0,178763,3279.0,42290.0,29697.0,0.0023179999999999997,-0.000183,-0.001464,0.3325,-1.8025000000000002,-3.7975000000000003,1.04046875,0.03109375,-0.18962500000000002,1.2806250000000001,1.005125,-0.4336875,-0.89725,1.22690625,0.019022149235558488,0.028421813654118427,True
13738,178770,0,178764,3280.0,42293.0,29700.0,0.001098,0.000793,-0.000793,0.3325,-1.61,-3.7450000000000006,1.0375,0.03303125,-0.18721875000000002,1.28125,0.99059375,-0.43271875,-0.8825625,1.2176875,0.01906255315937773,0.027945021739621878,True
13739,178771,0,178765,3283.0,42293.0,29703.0,-0.001037,0.00061,0.002562,0.42000000000000004,-1.33,-3.7800000000000002,1.037875,0.03471875,-0.187,1.28065625,0.99875,-0.43640625,-0.89090625,1.22771875,0.019279635277793764,0.028279655346016175,True
13740,178772,0,178766,3284.0,42295.0,29703.0,-0.0008539999999999999,-0.000915,0.000793,0.35000000000000003,-1.2600000000000002,-3.7450000000000006,1.0385312500000001,0.03415625,-0.1881875,1.269375,1.00103125,-0.43684375000000003,-0.89453125,1.2365,0.01927417488193417,0.028373450494272714,True
13741,178773,0,178767,3284.0,42295.0,29703.0,-0.001403,-0.00042699999999999997,-6.1e-05,0.385,-1.2950000000000002,-3.6750000000000003,1.03396875,0.03975,-0.184875,1.2643125,0.9997812500000001,-0.43675,-0.89403125,1.24034375,0.019499319672215007,0.02848699926814786,True
13742,178774,0,178768,3285.0,42295.0,29703.0,-0.00122,0.00061,-0.001098,0.28,-1.3825,-3.7975000000000003,1.0195625,0.04725,-0.18459375,1.27396875,0.9999687500000001,-0.43084375,-0.889625,1.2268125,0.019569268867351337,0.028326310661570837,True
13743,178775,0,178769,3286.0,42298.0,29706.0,0.000122,-0.00042699999999999997,-0.000183,0.29750000000000004,-1.4875,-3.7450000000000006,1.03603125,0.0346875,-0.18325,1.27065625,0.9901562500000001,-0.4308125,-0.8885000000000001,1.23459375,0.01905380756370669,0.028336380255941502,True
13744,178776,0,178770,3288.0,42298.0,29707.0,-0.000244,-0.00122,0.000366,0.21000000000000002,-1.5225000000000002,-3.7275000000000005,1.02478125,0.031,-0.19025,1.28965625,1.001875,-0.43665625,-0.8962187500000001,1.23371875,0.01913748940180799,0.02835646477439471,True
13745,178777,0,178771,3288.0,42299.0,29711.0,0.000305,-0.000366,0.000488,0.2625,-1.5750000000000002,-3.7975000000000003,1.05990625,0.028625,-0.1865,1.26934375,0.98371875,-0.428,-0.8894375,1.22721875,0.018692688717864746,0.02824240202294648,True
13746,178778,0,178772,3289.0,42304.0,29713.0,-0.001037,0.000732,-0.0006709999999999999,0.3325,-1.61,-3.8500000000000005,1.0255,0.038875,-0.1785,1.28965625,0.99459375,-0.43365625,-0.897625,1.24028125,0.019339359004037722,0.02888327701939442,True
13747,178779,0,178773,3291.0,42304.0,29714.0,0.000183,-0.000122,0.0,0.29750000000000004,-1.6450000000000002,-3.9200000000000004,1.06203125,0.021718750000000002,-0.18978125,1.26934375,0.99528125,-0.43165625,-0.88728125,1.2261875,0.018556867179235957,0.02802636386809025,True
13748,178780,0,178774,3292.0,42304.0,29715.0,0.001586,0.001037,-0.000244,0.24500000000000002,-1.7500000000000002,-3.8500000000000005,1.0295,0.021656250000000002,-0.19696875,1.265875,0.9985625,-0.4355625,-0.8924062500000001,1.22684375,0.01871120216692372,0.027937737035767685,True
13749,178781,0,178775,3294.0,42303.0,29716.0,0.001769,0.000122,-0.000915,0.35000000000000003,-1.7325000000000002,-4.0075,1.0261875,0.02703125,-0.1926875,1.27409375,0.9927812500000001,-0.43440625,-0.8948125,1.22778125,0.018884743720752373,0.028203666928602093,True
13750,178782,0,178776,3294.0,42305.0,29717.0,-0.00183,0.000366,0.000122,0.3325,-1.54,-3.7975000000000003,1.0203125,0.039406250000000004,-0.1900625,1.2985625,0.99090625,-0.43415625,-0.89465625,1.2336562500000001,0.01938116852305878,0.02830301181603984,True
13751,178783,0,178777,3296.0,42305.0,29722.0,-0.0032329999999999998,-0.000793,-0.000305,0.2625,-1.61,-3.7275000000000005,1.03421875,0.03715625,-0.19028125,1.29753125,0.9921875,-0.43240625,-0.8962187500000001,1.2304375,0.01921883973257853,0.02835520956370132,True
13752,178784,0,178778,3297.0,42305.0,29721.0,-0.000122,-0.002013,0.00122,0.22750000000000004,-1.7325000000000002,-3.8150000000000004,1.0329375,0.03646875,-0.18353125,1.27775,0.99184375,-0.432625,-0.8914375,1.2365,0.01919948224965594,0.02843974961269312,True
13753,178785,0,178779,3297.0,42308.0,29723.0,0.0018909999999999999,0.0015249999999999999,-0.00042699999999999997,0.31500000000000006,-1.7325000000000002,-3.9550000000000005,1.03696875,0.033875,-0.18987500000000002,1.2785312500000001,0.9995625,-0.43653125,-0.89365625,1.2289375,0.019250123726132363,0.028271509935387656,True
13754,178786,0,178780,3298.0,42308.0,29723.0,-0.000732,0.000549,-0.001586,0.29750000000000004,-1.8025000000000002,-3.9550000000000005,1.03346875,0.03303125,-0.18984375,1.2874375,0.992125,-0.43171875,-0.89090625,1.23646875,0.019022402998151736,0.02816540679389687,True
13755,178787,0,178781,3300.0,42308.0,29726.0,0.000366,-6.1e-05,0.0006709999999999999,0.21000000000000002,-1.9075000000000002,-3.9375000000000004,1.04384375,0.03221875,-0.1869375,1.28571875,1.00015625,-0.4301875,-0.89225,1.23040625,0.01892765866000824,0.028334622221775855,True
13756,178788,0,178782,3302.0,42307.0,29725.0,0.000488,0.000366,-0.000549,0.29750000000000004,-1.7850000000000001,-3.8500000000000005,1.042,0.029125,-0.18796875000000002,1.27953125,1.0000625,-0.43609375,-0.89184375,1.22528125,0.019038179946416354,0.028277334819764004,True
13757,178789,0,178783,3302.0,42307.0,29727.0,0.001952,0.000793,-0.00042699999999999997,0.35000000000000003,-1.6625,-3.7800000000000002,1.02540625,0.03321875,-0.1819375,1.289,0.9915,-0.43325,-0.8911250000000001,1.235625,0.01909155556465063,0.028491580834534402,True
13758,178790,0,178784,3305.0,42311.0,29728.0,6.1e-05,0.000183,-0.001281,0.24500000000000002,-1.4875,-3.7975000000000003,1.04371875,0.03084375,-0.1876875,1.2809375,0.999375,-0.43571875,-0.887875,1.2293125,0.019093463334283956,0.02813367955279428,True
13759,178791,0,178785,3306.0,42313.0,29730.0,-0.001037,0.000366,0.000122,0.2625,-1.435,-3.7625,1.04190625,0.02915625,-0.1906875,1.28009375,0.99140625,-0.43353125000000003,-0.89546875,1.22946875,0.01893657921427137,0.028309619596939707,True
13760,178792,0,178786,3308.0,42314.0,29732.0,-0.000366,0.000915,-0.000488,0.29750000000000004,-1.3825,-3.6400000000000006,1.03684375,0.0335,-0.18987500000000002,1.28721875,0.99146875,-0.432125,-0.8902187500000001,1.23121875,0.019057900203113726,0.028137307953551034,True
13761,178793,0,178787,3308.0,42314.0,29733.0,0.00042699999999999997,0.000549,-0.000366,0.3325,-1.225,-3.6050000000000004,1.03403125,0.03725,-0.19053125,1.28546875,0.9988125,-0.43528125,-0.892875,1.236625,0.019338072894086292,0.0282146497742828,True
13762,178794,0,178788,3309.0,42316.0,29734.0,-0.000549,-0.000793,0.001281,0.17500000000000002,-1.2600000000000002,-3.6225000000000005,1.038125,0.03025,-0.18862500000000001,1.2875,1.0,-0.43346875,-0.8931250000000001,1.234625,0.01897883410434714,0.02830098671822039,True
13763,178795,0,178789,3311.0,42318.0,29731.0,-0.002196,-0.0023179999999999997,0.0011589999999999999,0.21000000000000002,-1.12,-3.5700000000000003,1.0404375000000001,0.02853125,-0.18934375,1.28675,0.998625,-0.43590625,-0.8950312500000001,1.23521875,0.019006354634381526,0.028346519950642763,True
13764,178796,0,178790,3310.0,42313.0,29732.0,-0.002257,-0.0006709999999999999,0.000976,0.17500000000000002,-1.2075,-3.6400000000000006,1.0454375,0.0290625,-0.19125,1.2860625,0.9936875000000001,-0.43528125,-0.89409375,1.23490625,0.019003004109068727,0.02823335354395056,True
13765,178797,0,178791,3308.0,42313.0,29728.0,-0.001098,0.000732,0.000244,0.17500000000000002,-1.3825,-3.7450000000000006,1.03909375,0.031718750000000004,-0.18812500000000001,1.2820625,0.9949375,-0.43259375,-0.885875,1.2296875,0.01900381534400129,0.028037993440053848,True
13766,178798,0,178792,3306.0,42309.0,29722.0,-0.000732,6.1e-05,0.00042699999999999997,0.07,-1.5925000000000002,-3.6925000000000003,1.03746875,0.03321875,-0.1868125,1.27665625,0.99153125,-0.43259375,-0.89184375,1.22590625,0.01906520874395499,0.02832378577822304,True
13767,178799,0,178793,3300.0,42305.0,29716.0,-0.000488,0.0008539999999999999,-0.000488,0.052500000000000005,-1.8375000000000001,-3.7625,1.0444375000000001,0.031406250000000004,-0.187125,1.271375,0.9876875,-0.43365625,-0.8905937500000001,1.22878125,0.01903368432630708,0.02826243347449275,True
13768,178800,0,178794,3296.0,42302.0,29708.0,0.002379,0.000793,-6.1e-05,0.07,-2.1175,-3.7625,1.03821875,0.0329375,-0.18665625,1.27965625,0.9886875,-0.42403125,-0.89103125,1.2215,0.018709800414294837,0.028298345413069217,True
13769,178801,0,178795,3288.0,42295.0,29702.0,0.0025009999999999998,0.00061,-0.001281,0.15750000000000003,-2.0650000000000004,-3.8675,1.03696875,0.03315625,-0.1876875,1.2807187500000001,0.99203125,-0.42703125000000003,-0.89165625,1.2281250000000001,0.01883927257840635,0.02828131414517666,True
13770,178802,0,178796,3280.0,42295.0,29695.0,0.0011589999999999999,0.0013419999999999999,6.1e-05,0.22750000000000004,-2.1,-3.7975000000000003,1.0390625,0.034875,-0.18959375,1.28796875,0.98353125,-0.4345625,-0.89409375,1.234,0.01921202804429177,0.02829988538948119,True
13771,178803,0,178797,3273.0,42287.0,29690.0,0.001281,0.0008539999999999999,0.000732,0.22750000000000004,-2.1175,-3.8325000000000005,1.04346875,0.02853125,-0.191,1.2865312500000001,0.9976875000000001,-0.436,-0.895,1.2334375,0.01901011826812899,0.028278770837517574,True
13772,178804,0,178798,3267.0,42283.0,29684.0,0.001281,0.00042699999999999997,0.000549,0.2625,-2.0475000000000003,-3.8675,1.04278125,0.03096875,-0.18871875,1.28,0.99425,-0.4325,-0.8915000000000001,1.22865625,0.018969354343599712,0.028233784625273692,True
13773,178805,0,178799,3259.0,42282.0,29679.0,-0.000732,-0.000549,0.001403,0.1925,-1.8900000000000001,-3.7800000000000002,1.041,0.02928125,-0.18934375,1.28709375,0.99275,-0.43503125000000004,-0.89165625,1.23371875,0.019001919631267097,0.02821477578455632,True
13774,178806,0,178800,3251.0,42279.0,29676.0,-0.000793,-0.001037,0.001098,0.08750000000000001,-1.9250000000000003,-3.7450000000000006,1.04509375,0.02925,-0.18896875,1.2815,0.996,-0.4333125,-0.8933125000000001,1.22840625,0.018931632786180753,0.028294496764944402,True
13775,178807,0,178801,3247.0,42278.0,29673.0,-0.0013419999999999999,-0.000549,0.000122,0.22750000000000004,-1.9600000000000002,-3.9025000000000003,1.039,0.031781250000000004,-0.18796875000000002,1.2829062500000001,0.99265625,-0.4328125,-0.8924375,1.22884375,0.019015156359915582,0.02830051295699748,True
13776,178808,0,178802,3241.0,42275.0,29669.0,-0.0023179999999999997,-0.001281,0.0,0.28,-2.0475000000000003,-3.8325000000000005,1.0371875,0.0329375,-0.18787500000000001,1.2864375000000001,0.98678125,-0.4323125,-0.89284375,1.2376562500000001,0.019042405421099622,0.02832013718802216,True
13777,178809,0,178803,3240.0,42271.0,29665.0,-0.000488,-0.000732,-0.000122,0.14,-2.1525000000000003,-3.8675,1.04453125,0.0315,-0.19090625,1.28590625,1.006375,-0.43928125,-0.89196875,1.2424375,0.019263301779793546,0.02816420456899376,True
13778,178810,0,178804,3237.0,42269.0,29666.0,0.0017079999999999999,-0.000183,-0.000488,0.052500000000000005,-2.345,-3.9200000000000004,1.04503125,0.030625,-0.19015625,1.285875,0.9965,-0.437875,-0.8951875,1.22871875,0.019171061313637133,0.028319981522533223,True
13779,178811,0,178805,3234.0,42266.0,29663.0,0.001647,-0.000122,-0.002379,0.052500000000000005,-2.415,-3.8850000000000002,1.04065625,0.03203125,-0.18659375,1.284,0.97265625,-0.42890625,-0.88746875,1.2244375,0.01886852793501551,0.02816176313631735,True
13780,178812,0,178806,3234.0,42269.0,29661.0,0.001098,-0.000183,-0.001769,0.10500000000000001,-2.4850000000000003,-3.8325000000000005,1.04296875,0.030125,-0.19115625,1.2804375000000001,0.9935625,-0.43425,-0.89825,1.2412812500000001,0.01900508507525298,0.02839933529464922,True
13781,178813,0,178807,3231.0,42267.0,29660.0,0.000976,-0.000305,-0.001098,0.14,-2.4325,-3.8850000000000002,1.03725,0.0323125,-0.18853125,1.2800625,0.99825,-0.42990625,-0.89315625,1.22728125,0.018920201546004708,0.028305972650615567,True
13782,178814,0,178808,3231.0,42265.0,29659.0,0.002257,0.00042699999999999997,-0.000122,0.22750000000000004,-2.24,-3.8150000000000004,1.0368125,0.0331875,-0.186625,1.2809375,0.98521875,-0.4308125,-0.88796875,1.22459375,0.018992409687561558,0.02818003176735747,True
13783,178815,0,178809,3230.0,42263.0,29658.0,0.000305,-0.00042699999999999997,0.00122,0.29750000000000004,-1.9425000000000001,-3.7625,1.0380625,0.02915625,-0.1885625,1.288375,0.9841562500000001,-0.42965625,-0.8874062500000001,1.232,0.018780964222531785,0.02808021627404423,True
13784,178816,0,178810,3229.0,42264.0,29658.0,-0.0021349999999999997,-0.000793,0.0011589999999999999,0.4025,-1.7500000000000002,-3.8675,1.04465625,0.0300625,-0.19140625,1.28284375,1.00171875,-0.435,-0.8891875,1.2453125,0.019032637609985678,0.028035517431012968,True
13785,178817,0,178811,3229.0,42262.0,29659.0,-0.0023179999999999997,6.1e-05,-0.0008539999999999999,0.24500000000000002,-1.7325000000000002,-3.7625,1.0370625,0.032,-0.18787500000000001,1.27784375,0.99028125,-0.434875,-0.89434375,1.22821875,0.019106911739879988,0.028378685419253116,True
13786,178818,0,178812,3229.0,42262.0,29660.0,-0.0013419999999999999,0.000732,-0.000122,0.2625,-1.715,-3.7450000000000006,1.0369375,0.03209375,-0.1878125,1.27984375,1.00259375,-0.4385625,-0.89553125,1.22778125,0.019258753455732105,0.028427541589416773,True
13787,178819,0,178813,3230.0,42264.0,29660.0,-0.000488,0.000244,-0.000183,0.28,-1.6800000000000002,-3.7450000000000006,1.02865625,0.03290625,-0.18721875000000002,1.283,0.9883125,-0.43153125000000003,-0.88828125,1.224,0.019009758137857203,0.02816837743667012,True
13788,178820,0,178814,3230.0,42266.0,29661.0,0.0017079999999999999,-0.00061,0.001464,0.29750000000000004,-1.61,-3.7450000000000006,1.0433125,0.02921875,-0.1904375,1.2803125,0.9931562500000001,-0.43343750000000003,-0.89234375,1.2393125,0.018935372888076025,0.028197676243322808,True
13789,178821,0,178815,3229.0,42265.0,29660.0,-0.001098,0.0013419999999999999,0.0,0.43750000000000006,-1.61,-3.6575,1.037375,0.03265625,-0.18703125,1.28609375,0.98721875,-0.4315,-0.8881875,1.23240625,0.01899827067515298,0.02817225038986869,True
13790,178822,0,178816,3230.0,42270.0,29663.0,-0.0015249999999999999,0.001281,0.000183,0.47250000000000003,-1.4875,-3.7100000000000004,1.04409375,0.03065625,-0.185375,1.2793125,0.9973125,-0.43378125,-0.895625,1.22821875,0.019008007612411608,0.028529109030201092,True
13791,178823,0,178817,3232.0,42269.0,29666.0,-0.000915,0.000549,0.000793,0.45500000000000007,-1.4700000000000002,-3.7100000000000004,1.03740625,0.033,-0.19062500000000002,1.28403125,0.9916875,-0.43278125,-0.8944062500000001,1.23759375,0.0190637834159793,0.028270658192540744,True
13792,178824,0,178818,3233.0,42268.0,29665.0,-0.000915,6.1e-05,0.000183,0.31500000000000006,-1.54,-3.7625,1.04484375,0.029500000000000002,-0.19140625,1.28546875,0.98565625,-0.43490625,-0.8941250000000001,1.235125,0.019005853562462514,0.028228296837105142,True
13793,178825,0,178819,3234.0,42271.0,29665.0,0.000976,-0.000915,0.0,0.22750000000000004,-1.6800000000000002,-3.6925000000000003,1.0441875,0.03296875,-0.188,1.28040625,0.9978125,-0.43584375000000003,-0.89175,1.229625,0.019185443514713914,0.028272419576767405,True
13794,178826,0,178820,3235.0,42269.0,29667.0,0.001464,-0.000976,-0.002074,0.29750000000000004,-1.6975000000000002,-3.7100000000000004,1.0374375,0.0326875,-0.18709375,1.2805625,0.98040625,-0.43246875,-0.8921875,1.22878125,0.01903844653438879,0.028325905467327855,True
13795,178827,0,178821,3233.0,42270.0,29663.0,0.001098,0.000488,-0.0017079999999999999,0.36750000000000005,-1.7850000000000001,-3.8675,1.03759375,0.03275,-0.1870625,1.28265625,0.9919687500000001,-0.424875,-0.891375,1.232125,0.018736022190492276,0.028295443702889053,True
13796,178828,0,178822,3236.0,42270.0,29665.0,0.000488,0.000549,-0.000366,0.36750000000000005,-1.6275000000000002,-3.9025000000000003,1.04115625,0.029843750000000002,-0.18928125,1.28575,0.9976875000000001,-0.43275,-0.89471875,1.2355,0.01893334765836838,0.028336833490034907,True
13797,178829,0,178823,3235.0,42270.0,29666.0,0.000488,-6.1e-05,-6.1e-05,0.28,-1.5575,-3.7975000000000003,1.04221875,0.0314375,-0.1898125,1.28571875,0.9886875,-0.43546875,-0.8932187500000001,1.23753125,0.019107726345540234,0.028256942465505794,True
13798,178830,0,178824,3237.0,42272.0,29666.0,0.0015249999999999999,-0.000488,0.000122,0.43750000000000006,-1.2950000000000002,-3.6050000000000004,1.04146875,0.03265625,-0.1854375,1.2846875,0.9921562500000001,-0.43603125,-0.89265625,1.235125,0.019180180906013533,0.028410738608901972,True
13799,178831,0,178825,3237.0,42271.0,29666.0,-6.1e-05,0.001281,-0.0006709999999999999,0.42000000000000004,-1.2775,-3.6225000000000005,1.04459375,0.0320625,-0.19009375,1.28828125,0.99971875,-0.43228125,-0.89403125,1.23690625,0.019005337456976107,0.02827736066250821,True
13800,178832,0,178826,3236.0,42272.0,29667.0,-0.00122,0.000244,0.000976,0.35000000000000003,-1.0675000000000001,-3.6925000000000003,1.0499375,0.03640625,-0.19409375,1.289125,1.00046875,-0.42825,-0.892,1.2318437500000001,0.019021266361691894,0.028037371444640847,True
13801,178833,0,178827,3239.0,42274.0,29668.0,-0.001098,-0.000488,0.00042699999999999997,0.35000000000000003,-0.9800000000000001,-3.6925000000000003,1.03721875,0.031125,-0.18646875000000002,1.2785625,0.99275,-0.43359375,-0.8913125000000001,1.2236875,0.019019664268585132,0.028316857538147094,True
13802,178834,0,178828,3238.0,42277.0,29667.0,-0.001098,0.0,0.000793,0.385,-0.9800000000000001,-3.7275000000000005,1.035,0.0343125,-0.18425,1.2825312500000001,0.99246875,-0.43190625,-0.89284375,1.2260625,0.01908237307516682,0.02846576136967075,True
13803,178835,0,178829,3238.0,42275.0,29670.0,-0.001952,-0.0015249999999999999,-0.000793,0.36750000000000005,-1.1375000000000002,-3.7275000000000005,1.0384375000000001,0.03234375,-0.18787500000000001,1.2908125,0.99809375,-0.4301875,-0.89459375,1.23646875,0.01893277528058268,0.028388442771836758,True
13804,178836,0,178830,3242.0,42276.0,29670.0,-0.000366,0.00042699999999999997,-0.000244,0.35000000000000003,-1.2775,-3.8325000000000005,1.04678125,0.03465625,-0.18990625,1.2890625,0.99934375,-0.436125,-0.8965625,1.23484375,0.019265789890991307,0.02838368750706046,True
13805,178837,0,178831,3239.0,42277.0,29671.0,-0.000915,0.000244,-0.000488,0.29750000000000004,-1.1725,-3.7450000000000006,1.04903125,0.027125,-0.18996875,1.28940625,0.9978750000000001,-0.431375,-0.8933125000000001,1.23103125,0.018766852049874393,0.028254325333360114,True
13806,178838,0,178832,3240.0,42277.0,29672.0,-0.000366,0.000915,0.000793,0.385,-1.225,-3.7100000000000004,1.04753125,0.031343750000000004,-0.1895625,1.27621875,0.99346875,-0.43725,-0.89271875,1.23446875,0.019175387983508783,0.028247466942517077,True
13807,178839,0,178833,3241.0,42277.0,29673.0,0.001037,0.000244,-0.000793,0.42000000000000004,-1.3825,-3.7450000000000006,1.043375,0.026875,-0.19096875,1.2853125,0.998125,-0.43443750000000003,-0.8949375,1.227875,0.018879603837821106,0.028277586557507926,True
13808,178840,0,178834,3241.0,42280.0,29674.0,0.001037,0.00042699999999999997,-0.00122,0.31500000000000006,-1.6275000000000002,-3.8150000000000004,1.0383125,0.02875,-0.19296875,1.2884375000000001,0.99234375,-0.43375,-0.8920625,1.228625,0.01892873586739653,0.028085007017799344,True
13809,178841,0,178835,3242.0,42279.0,29676.0,0.001647,0.00061,-0.000122,0.3325,-1.5225000000000002,-3.7975000000000003,1.04134375,0.031343750000000004,-0.1898125,1.28996875,0.9918125,-0.432875,-0.8916875,1.2218125,0.018999759545284788,0.02819716421395697,True
13810,178842,0,178836,3243.0,42279.0,29677.0,0.0008539999999999999,0.00061,0.000244,0.4025,-1.3650000000000002,-3.7450000000000006,1.0475,0.031906250000000004,-0.18528125,1.2773125,0.99171875,-0.43434375000000003,-0.89134375,1.22953125,0.01908174840996088,0.028365784792152893,True
13811,178843,0,178837,3244.0,42282.0,29681.0,0.0,0.000549,0.001403,0.35000000000000003,-1.3125000000000002,-3.7975000000000003,1.03509375,0.03415625,-0.1855,1.279125,0.99171875,-0.43315625,-0.89175,1.2300312500000001,0.019126161811370564,0.02837285445981098,True
13812,178844,0,178838,3246.0,42283.0,29680.0,-0.001281,-0.00061,-0.000793,0.4025,-1.3650000000000002,-3.7800000000000002,1.03546875,0.033375,-0.1860625,1.2845625,0.99159375,-0.432875,-0.8915937500000001,1.23303125,0.019082895484055805,0.028344157352319,True
13813,178845,0,178839,3245.0,42284.0,29682.0,-0.001037,-0.001403,-0.0011589999999999999,0.29750000000000004,-1.4175000000000002,-3.7450000000000006,1.04271875,0.0301875,-0.18775,1.2866875,0.9968125,-0.4306875,-0.8934375,1.233625,0.018864593966092847,0.028348334776986908,True
13814,178846,0,178840,3248.0,42286.0,29683.0,-0.001281,-0.000732,0.001464,0.24500000000000002,-1.4525000000000001,-3.6575,1.04484375,0.029718750000000002,-0.1878125,1.28665625,0.99525,-0.4350625,-0.89490625,1.2319375000000001,0.01902107882883459,0.02840314974072257,True
13815,178847,0,178841,3248.0,42288.0,29684.0,-0.0015249999999999999,-0.001281,0.001098,0.3325,-1.54,-3.6575,1.04465625,0.0320625,-0.18746875000000002,1.28125,0.99953125,-0.4330625,-0.89196875,1.23028125,0.01903670487479824,0.028302301319577217,True
13816,178848,0,178842,3250.0,42283.0,29687.0,0.0,-0.000122,-0.000488,0.42000000000000004,-1.715,-3.7275000000000005,1.0370625,0.03221875,-0.18759375,1.28075,0.9892500000000001,-0.4343125,-0.89171875,1.2153125,0.019093283267126913,0.02828752032239638,True
13817,178849,0,178843,3250.0,42286.0,29686.0,0.001586,-6.1e-05,-0.0006709999999999999,0.31500000000000006,-1.995,-3.8325000000000005,1.03796875,0.03259375,-0.187,1.2765312500000001,0.993,-0.43553125000000004,-0.89415625,1.23390625,0.0191575536136543,0.028406516087485387,True
13818,178850,0,178844,3253.0,42289.0,29689.0,0.0017079999999999999,-6.1e-05,-0.0008539999999999999,0.21000000000000002,-2.0825,-3.8675,1.028875,0.03421875,-0.187125,1.281375,0.99828125,-0.44403125,-0.8942187500000001,1.2242187500000001,0.019565103444220154,0.028403934146356776,True
13819,178851,0,178845,3254.0,42290.0,29688.0,0.002562,-0.000183,-0.00061,0.15750000000000003,-2.1,-3.8500000000000005,1.0258125,0.03296875,-0.1868125,1.280125,0.9873437500000001,-0.43028125,-0.88896875,1.2219375000000001,0.018962123082393905,0.028211544522108816,True
13820,178852,0,178846,3255.0,42288.0,29689.0,0.001647,0.001464,-0.001037,0.22750000000000004,-2.0125,-3.9025000000000003,1.03759375,0.03315625,-0.18675,1.27325,0.98428125,-0.42875,-0.8858125,1.21896875,0.018908304763854064,0.02809080475069882,True
13821,178853,0,178847,3256.0,42290.0,29691.0,0.000183,0.001281,-0.000793,0.35000000000000003,-1.9425000000000001,-3.9375000000000004,1.0375625,0.03303125,-0.187125,1.28065625,0.9793437500000001,-0.42778125,-0.88796875,1.2229375,0.018864279783903832,0.028159941738917525,True
13822,178854,0,178848,3258.0,42292.0,29694.0,-0.00061,-0.00061,-0.000122,0.21000000000000002,-1.5925000000000002,-3.7975000000000003,1.0383125,0.03203125,-0.18853125,1.2873125,0.9844375,-0.43421875,-0.8930625,1.25025,0.01908184602791935,0.028302313144475493,True
13823,178855,0,178849,3258.0,42291.0,29693.0,-0.00183,-0.001403,0.0011589999999999999,0.24500000000000002,-1.4525000000000001,-3.7975000000000003,1.04309375,0.0289375,-0.18675,1.28140625,1.00590625,-0.43843750000000004,-0.88365625,1.21509375,0.0191245860133243,0.02800658564795919,True
13824,178856,0,178850,3262.0,42292.0,29695.0,-0.001952,0.0,0.001769,0.3325,-1.3475000000000001,-3.7975000000000003,1.03796875,0.03259375,-0.1879375,1.28684375,0.980375,-0.43528125,-0.90259375,1.25284375,0.019147518508713705,0.02869806483511381,True
13825,178857,0,178851,3261.0,42292.0,29696.0,-0.002196,0.0,0.000305,0.28,-1.3825,-3.7975000000000003,1.04515625,0.0365625,-0.18684375,1.2829062500000001,1.0055625,-0.43259375,-0.89146875,1.2317500000000001,0.01920206486468511,0.02830789163455853,True
13826,178858,0,178852,3261.0,42293.0,29698.0,-0.0026839999999999998,0.000122,0.000183,0.24500000000000002,-1.54,-3.7100000000000004,1.0345312500000001,0.03296875,-0.187375,1.2801875,0.98578125,-0.4270625,-0.8839375,1.219,0.018832851883029324,0.027992454972208473,True
13827,178859,0,178853,3262.0,42294.0,29699.0,0.0017079999999999999,-0.000549,-0.000732,0.1925,-1.9425000000000001,-3.8150000000000004,1.0370625,0.032,-0.18584375,1.2845625,0.9803125,-0.4345,-0.89346875,1.234375,0.019091857823978393,0.028426130850084927,True
13828,178860,0,178854,3262.0,42294.0,29701.0,0.002074,0.00042699999999999997,-0.000793,0.2625,-2.0300000000000002,-3.9550000000000005,1.04484375,0.02871875,-0.18937500000000002,1.28809375,1.00096875,-0.43528125,-0.8914375,1.2321875,0.01898893633565196,0.02820498012619802,True
13829,178861,0,178855,3264.0,42296.0,29700.0,0.002745,0.000122,6.1e-05,0.35000000000000003,-2.0125,-3.8675,1.0436875,0.0321875,-0.18921875,1.2765312500000001,0.98834375,-0.43459375,-0.8916875,1.23325,0.019103294893126673,0.028221017558572516,True
13830,178862,0,178856,3268.0,42294.0,29701.0,0.002928,0.00061,-0.00183,0.28,-1.9075000000000002,-3.8325000000000005,1.04290625,0.031281250000000003,-0.18990625,1.2866875,0.999125,-0.4326875,-0.8918125,1.2278125,0.018989673158141117,0.028198278048253818,True
13831,178863,0,178857,3269.0,42293.0,29702.0,0.000793,0.00061,-0.0006709999999999999,0.31500000000000006,-1.715,-3.8675,1.0409375,0.029687500000000002,-0.18828125,1.28525,0.9917812500000001,-0.43259375,-0.89253125,1.2304375,0.018920678448230654,0.028291618595437135,True
13832,178864,0,178858,3271.0,42293.0,29704.0,-0.001952,0.0008539999999999999,0.0013419999999999999,0.3325,-1.4700000000000002,-3.7975000000000003,1.04196875,0.03053125,-0.1891875,1.28428125,0.9895625,-0.42890625,-0.8911875,1.23084375,0.018807125267837153,0.028202752480169936,True
13833,178865,0,178859,3272.0,42295.0,29704.0,-0.00183,0.000488,0.001647,0.2625,-1.4525000000000001,-3.7800000000000002,1.042625,0.030125,-0.18775,1.27859375,0.99065625,-0.4330625,-0.891625,1.218375,0.018957406587897036,0.028277583323708274,True
13834,178866,0,178860,3272.0,42296.0,29706.0,-0.001403,-0.0008539999999999999,0.00122,0.29750000000000004,-1.4525000000000001,-3.7450000000000006,1.037875,0.033125,-0.1874375,1.28240625,0.98728125,-0.4321875,-0.8903125000000001,1.221,0.01904506094675313,0.02823889816570202,True
13835,178867,0,178861,3274.0,42298.0,29706.0,-0.001464,-0.000793,0.000122,0.2625,-1.5750000000000002,-3.7450000000000006,1.03771875,0.031593750000000004,-0.1871875,1.28046875,0.9917812500000001,-0.4288125,-0.89125,1.22425,0.018846853484998503,0.028285542108170542,True
13836,178868,0,178862,3275.0,42298.0,29709.0,-0.000366,-6.1e-05,-0.000732,0.29750000000000004,-1.6800000000000002,-3.7625,1.0382500000000001,0.0313125,-0.19015625,1.28590625,0.99228125,-0.4321875,-0.89134375,1.22546875,0.018970876021641533,0.028169933573795106,True
13837,178869,0,178863,3277.0,42298.0,29710.0,0.0008539999999999999,-0.00061,-0.000366,0.21000000000000002,-1.8900000000000001,-3.9200000000000004,1.041375,0.033625,-0.18903125,1.283,0.9948750000000001,-0.42465625,-0.8884062500000001,1.2293125,0.01876305833372783,0.028100433309183874,True
13838,178870,0,178864,3280.0,42301.0,29712.0,0.002806,0.000366,-0.001037,0.24500000000000002,-1.8550000000000002,-3.7625,1.0403125,0.0278125,-0.18909375,1.2936875,0.98571875,-0.43290625,-0.890875,1.2288125,0.018856485809992416,0.028194318198938365,True
13839,178871,0,178865,3279.0,42302.0,29714.0,0.000915,0.000183,-0.001281,0.29750000000000004,-1.9425000000000001,-3.8150000000000004,1.04925,0.0234375,-0.19484375,1.2974375,0.9915,-0.432625,-0.8902187500000001,1.229375,0.018666127769734114,0.027937681343198323,True
13840,178872,0,178866,3283.0,42303.0,29713.0,0.000305,6.1e-05,-0.000793,0.28,-1.995,-3.8850000000000002,1.05090625,0.03346875,-0.18521875000000002,1.2750625,0.9917812500000001,-0.43184375,-0.88975,1.22490625,0.019045328906051148,0.028306079811970794,True
13841,178873,0,178867,3283.0,42303.0,29716.0,0.000244,0.000305,-0.000183,0.29750000000000004,-1.9425000000000001,-3.8500000000000005,1.0306875,0.03384375,-0.1836875,1.27603125,0.99603125,-0.43046875,-0.89109375,1.2261875,0.01900546832528541,0.028420054864001308,True
13842,178874,0,178868,3286.0,42303.0,29717.0,-0.0008539999999999999,-0.0008539999999999999,0.00183,0.31500000000000006,-1.7850000000000001,-3.8500000000000005,1.03125,0.03475,-0.18478125,1.27609375,0.9984375,-0.43478125,-0.8915625,1.2319375000000001,0.019215692794466905,0.028394410756657003,True
13843,178875,0,178869,3287.0,42306.0,29718.0,0.000305,-0.000244,0.00061,0.28,-1.7850000000000001,-3.8675,1.03196875,0.03734375,-0.18325,1.274875,0.99065625,-0.4358125,-0.89378125,1.23665625,0.019363229685937393,0.0285425200319859,True
13844,178876,0,178870,3289.0,42305.0,29722.0,-0.000183,0.000793,0.0008539999999999999,0.31500000000000006,-1.7500000000000002,-3.8150000000000004,1.0193125,0.03496875,-0.184,1.27546875,0.99465625,-0.43565625,-0.8925625,1.23471875,0.01925976512294406,0.02846482759659637,True
13845,178877,0,178871,3290.0,42307.0,29723.0,0.001037,0.00183,0.001281,0.3325,-1.6975000000000002,-3.8150000000000004,1.0211875,0.03725,-0.18109375,1.276,0.999,-0.43553125000000004,-0.89309375,1.22653125,0.019348106049464346,0.02860231063083511,True
13846,178878,0,178872,3291.0,42308.0,29723.0,0.001403,0.000732,-0.000366,0.1925,-1.5225000000000002,-3.7800000000000002,1.03259375,0.035125,-0.18471875000000001,1.27515625,0.99903125,-0.43371875,-0.89053125,1.23071875,0.019188391042603777,0.028356666754551493,True
13847,178879,0,178873,3294.0,42310.0,29725.0,-0.003721,-0.001586,0.000244,0.21000000000000002,-1.7500000000000002,-3.7800000000000002,1.0301875,0.034875,-0.1850625,1.27584375,0.993375,-0.4323125,-0.890375,1.2295,0.019121706142224564,0.028336756678033176,True
13848,178880,0,178874,3295.0,42308.0,29729.0,-0.001464,-0.003477,-0.000793,0.15750000000000003,-1.7850000000000001,-3.7450000000000006,1.0309375,0.03415625,-0.184375,1.267375,0.99209375,-0.432875,-0.8898125,1.23371875,0.019114870845121583,0.02834241921267988,True
13849,178881,0,178875,3298.0,42310.0,29726.0,0.0021349999999999997,-0.00122,-0.00061,0.15750000000000003,-1.8025000000000002,-3.8325000000000005,1.03125,0.0344375,-0.18375,1.27540625,0.9939375,-0.4351875,-0.8931875,1.2256875,0.019219210001969494,0.028499263101601596,True
13850,178882,0,178876,3299.0,42312.0,29729.0,0.001647,0.00061,0.0,0.31500000000000006,-1.8725000000000003,-3.99,1.03103125,0.0350625,-0.18440625,1.2761875,0.99321875,-0.435125,-0.89315625,1.2293125,0.019242279300801614,0.02847168084601566,True
13851,178883,0,178877,3300.0,42313.0,29730.0,-0.000732,0.00244,0.000366,0.385,-1.9775000000000003,-3.99,1.0323437500000001,0.0336875,-0.18615625,1.2809062500000001,0.99146875,-0.43234375,-0.890875,1.2265,0.019074357121387504,0.028312333335007305,True
13852,178884,0,178878,3302.0,42313.0,29734.0,0.002379,-6.1e-05,0.00042699999999999997,0.3325,-2.2225,-3.8150000000000004,1.036875,0.039531250000000004,-0.1861875,1.2798125,0.9925625,-0.4330625,-0.8908125,1.21903125,0.019342386980756097,0.028308637976361763,True
13853,178885,0,178879,3303.0,42314.0,29736.0,0.005063,-0.0011589999999999999,-0.000549,0.42000000000000004,-2.1175,-3.7450000000000006,1.03709375,0.03215625,-0.18796875000000002,1.2854375,0.99284375,-0.43243750000000003,-0.8910625,1.22921875,0.019015448213056927,0.02824683558606628,True
13854,178886,0,178880,3306.0,42313.0,29735.0,0.002928,0.00042699999999999997,-0.001647,0.3325,-1.9775000000000003,-3.7450000000000006,1.0421875,0.029750000000000002,-0.18715625,1.284875,0.9921875,-0.43396875,-0.89475,1.23571875,0.01897844573448593,0.02842341256690668,True
13855,178887,0,178881,3309.0,42314.0,29739.0,0.0006709999999999999,0.0015249999999999999,-0.001403,0.31500000000000006,-1.6275000000000002,-3.8850000000000002,1.0415625,0.033125,-0.18675,1.2862500000000001,0.99940625,-0.43484375000000003,-0.89346875,1.23559375,0.019151698074598905,0.028389725718718894,True
13856,178888,0,178882,3310.0,42314.0,29739.0,-0.000549,0.001586,-0.000366,0.3325,-1.3825,-3.7450000000000006,1.03290625,0.031656250000000004,-0.18665625,1.2725,1.00084375,-0.4361875,-0.89296875,1.2380625,0.01914552955529581,0.028373976085114393,True
13857,178889,0,178883,3311.0,42316.0,29743.0,-0.000366,-0.000488,0.000305,0.22750000000000004,-1.0850000000000002,-3.5525,1.03784375,0.03353125,-0.187125,1.28153125,0.9980625000000001,-0.43534375000000003,-0.89325,1.2301875,0.019188393860839384,0.02836612334669037,True
13858,178890,0,178884,3314.0,42318.0,29746.0,-0.002989,-0.002623,0.000122,0.14,-0.7525000000000001,-3.5175000000000005,1.03728125,0.03028125,-0.1906875,1.2870625,0.992125,-0.433625,-0.88565625,1.2301250000000001,0.018986386588154644,0.027926478732100947,True
13859,178891,0,178885,3315.0,42319.0,29747.0,-0.004758,-0.002379,0.002074,0.1925,-0.665,-3.6050000000000004,1.04265625,0.0330625,-0.1876875,1.2814375,1.0004375,-0.43615625,-0.89278125,1.235,0.019201823118151,0.028325229829430972,True
13860,178892,0,178886,3317.0,42320.0,29747.0,-0.0044529999999999995,-0.0006709999999999999,0.003538,0.22750000000000004,-0.77,-3.5875000000000004,1.03684375,0.032375,-0.1805,1.280125,0.9985625,-0.43165625,-0.887875,1.229625,0.018993032860799196,0.028422474799475645,True
13861,178893,0,178887,3317.0,42319.0,29745.0,-0.003111,6.1e-05,0.001586,0.2625,-0.9625000000000001,-3.5875000000000004,1.03740625,0.0328125,-0.18675,1.2809375,0.99228125,-0.43309375,-0.890375,1.2298125,0.019068655601585452,0.02826895938691161,True
13862,178894,0,178888,3316.0,42318.0,29741.0,0.000305,6.1e-05,-0.000183,0.36750000000000005,-1.7675,-3.7275000000000005,1.03540625,0.032625,-0.18771875000000002,1.288125,0.992125,-0.43346875,-0.8915000000000001,1.2359375000000001,0.019076036839836753,0.0282739589819818,True
13863,178895,0,178889,3313.0,42311.0,29733.0,0.0032329999999999998,0.0008539999999999999,-0.0008539999999999999,0.2625,-1.9250000000000003,-3.6575,1.04359375,0.0333125,-0.186875,1.28046875,0.9965937500000001,-0.43709375,-0.890125,1.2285625,0.0192496806212891,0.02825417710839138,True
13864,178896,0,178890,3308.0,42308.0,29726.0,0.004148,0.000732,-0.000976,0.36750000000000005,-2.1,-3.7275000000000005,1.0375625,0.0286875,-0.1866875,1.2825625,0.9918750000000001,-0.43396875,-0.89271875,1.235125,0.018934961190044088,0.0283629625630989,True
13865,178897,0,178891,3301.0,42302.0,29717.0,0.0042699999999999995,0.000732,0.0,0.28,-2.0300000000000002,-3.8675,1.03721875,0.0338125,-0.18103125,1.279625,0.99728125,-0.4318125,-0.8874062500000001,1.22978125,0.019058143967010225,0.02838282916686025,True
13866,178898,0,178892,3294.0,42299.0,29711.0,0.000732,0.0018909999999999999,-0.000244,0.28,-1.8025000000000002,-3.9200000000000004,1.04478125,0.029,-0.18928125,1.282875,0.99209375,-0.43421875,-0.89346875,1.2351875,0.0189577884498558,0.028288042420765484,True
13867,178899,0,178893,3287.0,42295.0,29706.0,-0.000244,6.1e-05,0.00061,0.45500000000000007,-1.5575,-3.7625,1.0374375,0.03315625,-0.18678125,1.28421875,0.9965625,-0.43196875,-0.88978125,1.22025,0.019037557094124885,0.02824452304095682,True
13868,178900,0,178894,3280.0,42293.0,29701.0,-0.00042699999999999997,-0.00061,0.000976,0.24500000000000002,-1.4175000000000002,-3.8675,1.0440625000000001,0.03046875,-0.18953125,1.2855,0.9909687500000001,-0.42853125000000003,-0.8944062500000001,1.23559375,0.01878950458800097,0.02831459376541668,True
13869,178901,0,178895,3274.0,42290.0,29694.0,-0.00183,-0.000793,0.000122,0.2625,-1.4875,-3.7975000000000003,1.0293125,0.03315625,-0.18621875000000002,1.2804375000000001,0.99653125,-0.4340625,-0.89028125,1.2304375,0.01912161557252299,0.02828664300448594,True
13870,178902,0,178896,3267.0,42285.0,29690.0,-0.00183,-0.0011589999999999999,0.000732,0.24500000000000002,-1.4875,-3.7275000000000005,1.03765625,0.0325,-0.187375,1.28,0.99121875,-0.4330625,-0.8902187500000001,1.22978125,0.01905461093958238,0.028237749015363717,True
13871,178903,0,178897,3260.0,42284.0,29688.0,0.0,-0.000549,-0.000732,0.24500000000000002,-1.5750000000000002,-3.7975000000000003,1.037375,0.03278125,-0.18934375,1.2850625,0.99253125,-0.43259375,-0.89146875,1.23234375,0.01904730233563516,0.02820745561669598,True
13872,178904,0,178898,3256.0,42284.0,29684.0,0.001098,-0.0011589999999999999,-0.0008539999999999999,0.2625,-2.0475000000000003,-3.6750000000000003,1.04065625,0.0309375,-0.18021875,1.2810625,0.9947812500000001,-0.4356875,-0.8922187500000001,1.23253125,0.019096045486749657,0.028603316046304634,True
13873,178905,0,178899,3251.0,42280.0,29681.0,0.0017079999999999999,-0.000549,-0.001464,0.24500000000000002,-2.0475000000000003,-3.6575,1.03734375,0.03303125,-0.18646875000000002,1.28025,0.99734375,-0.432125,-0.88390625,1.229875,0.019038714397540124,0.028027653415548453,True
13874,178906,0,178900,3247.0,42279.0,29678.0,0.002196,-0.0006709999999999999,-0.000793,0.3325,-2.1350000000000002,-3.7800000000000002,1.03753125,0.03259375,-0.1880625,1.2815,0.9926875000000001,-0.4325,-0.89115625,1.22709375,0.019035864115420034,0.02824672919724249,True
13875,178907,0,178901,3245.0,42277.0,29677.0,0.000732,0.0015249999999999999,-0.001037,0.29750000000000004,-2.0125,-3.8325000000000005,1.02946875,0.032875,-0.18928125,1.285,0.9899375,-0.43178125,-0.89090625,1.233,0.019018517121014253,0.028188005408601783,True
13876,178908,0,178902,3242.0,42277.0,29676.0,0.00122,-0.000915,-0.000366,0.17500000000000002,-1.8200000000000003,-3.8675,1.0459687500000001,0.03,-0.1891875,1.29475,0.99575,-0.43553125000000004,-0.89334375,1.23903125,0.019051406954780248,0.028286929111321177,True
13877,178909,0,178903,3242.0,42274.0,29672.0,-0.00244,-0.000244,-0.000732,0.2625,-1.6800000000000002,-3.8500000000000005,1.05725,0.02684375,-0.19946875,1.30115625,1.00265625,-0.435625,-0.8920625,1.22196875,0.018926004552778982,0.02782387960017375,True
13878,178910,0,178904,3240.0,42275.0,29671.0,-0.001769,0.001037,0.000366,0.21000000000000002,-1.5925000000000002,-3.8150000000000004,1.06753125,0.02678125,-0.18684375,1.2734375,0.99065625,-0.433375,-0.89675,1.2405,0.018833102262786044,0.028514012873166177,True
13879,178911,0,178905,3238.0,42271.0,29670.0,-0.0008539999999999999,-0.000305,0.003355,0.22750000000000004,-1.6275000000000002,-3.7800000000000002,1.0334375,0.0370625,-0.18125,1.27003125,1.0030000000000001,-0.43515625,-0.89378125,1.23475,0.019325382869201012,0.028622861382298036,True
13880,178912,0,178906,3237.0,42273.0,29669.0,0.000732,-0.001098,6.1e-05,0.31500000000000006,-1.715,-3.8150000000000004,1.02578125,0.03740625,-0.17996875,1.2710000000000001,0.9990625000000001,-0.43593750000000003,-0.8939375,1.24009375,0.019370803759831193,0.028680426710318528,True
13881,178913,0,178907,3237.0,42269.0,29667.0,0.0,-0.000183,-0.000122,0.4025,-1.7675,-3.7625,1.02546875,0.0374375,-0.17790625000000002,1.274875,1.00209375,-0.4386875,-0.89690625,1.24028125,0.019482429242568777,0.028879090147997805,True
13882,178914,0,178908,3235.0,42269.0,29665.0,-0.0013419999999999999,0.0008539999999999999,-0.001586,0.4025,-1.6625,-3.8150000000000004,1.025125,0.0375625,-0.177875,1.27096875,1.0055,-0.435,-0.89415625,1.2355,0.019339574381010846,0.028773067976545698,True
13883,178915,0,178909,3235.0,42267.0,29664.0,0.00061,0.000793,-0.001403,0.43750000000000006,-1.6625,-3.7625,1.01878125,0.03665625,-0.18125,1.27040625,1.00053125,-0.43553125000000004,-0.88815625,1.22425,0.019323807416710043,0.028403319349941798,True
13884,178916,0,178910,3235.0,42270.0,29668.0,0.001403,0.00061,0.000244,0.4025,-1.5050000000000001,-3.6575,1.025125,0.0365,-0.181625,1.26965625,0.99384375,-0.4311875,-0.8844062500000001,1.23046875,0.019143052297396514,0.028241833176148215,True
13885,178917,0,178911,3237.0,42272.0,29666.0,0.000366,-0.000366,0.001952,0.31500000000000006,-1.33,-3.7975000000000003,1.02496875,0.0341875,-0.18106250000000002,1.3038125,0.989625,-0.43046875,-0.88890625,1.22496875,0.019019538869879442,0.02844013083138195,True
13886,178918,0,178912,3236.0,42269.0,29667.0,-0.0030499999999999998,0.000549,0.0023179999999999997,0.35000000000000003,-1.3475000000000001,-3.6925000000000003,1.04771875,0.02521875,-0.18815625,1.29009375,0.99053125,-0.43309375,-0.8924375,1.23690625,0.01875785787462957,0.02829298054881126,True
13887,178919,0,178913,3236.0,42270.0,29666.0,-0.002196,0.00061,0.0017079999999999999,0.24500000000000002,-1.4700000000000002,-3.7625,1.04659375,0.027625,-0.19703125,1.286125,0.9969687500000001,-0.4361875,-0.8916875,1.22871875,0.018980559058159135,0.02790715776099953,True
13888,178920,0,178914,3237.0,42271.0,29668.0,-0.000488,0.0008539999999999999,0.000244,0.28,-1.6800000000000002,-3.7100000000000004,1.0316875,0.0363125,-0.17990625000000002,1.28334375,0.99221875,-0.4333125,-0.88984375,1.23553125,0.01922068487439024,0.028523180263033993,True
13889,178921,0,178915,3235.0,42271.0,29668.0,0.0025009999999999998,-0.001098,-0.001464,0.1925,-1.7675,-3.7100000000000004,1.03296875,0.035312500000000004,-0.1888125,1.2843125,0.9995937500000001,-0.436,-0.89246875,1.2371875,0.019287628908168278,0.028267837034042682,True
13890,178922,0,178916,3236.0,42270.0,29669.0,0.002562,-0.0017079999999999999,-0.0023179999999999997,0.21000000000000002,-1.7850000000000001,-3.7800000000000002,1.032375,0.0329375,-0.19012500000000002,1.2882500000000001,0.9969375,-0.4345,-0.8915937500000001,1.2358437500000001,0.019130225705457447,0.028180949642888982,True
13891,178923,0,178917,3238.0,42271.0,29666.0,-0.00061,0.0008539999999999999,-0.0008539999999999999,0.21000000000000002,-1.5225000000000002,-3.8675,1.03896875,0.032125,-0.1875625,1.28065625,0.99475,-0.43112500000000004,-0.8915625,1.226875,0.018961468209098026,0.02828267610761679,True
13892,178924,0,178918,3237.0,42271.0,29668.0,-0.0008539999999999999,0.0015249999999999999,-0.000488,0.28,-1.4175000000000002,-3.9375000000000004,1.0360625,0.03428125,-0.18846875,1.27621875,0.9925625,-0.4326875,-0.892625,1.2355625000000001,0.019112459486906628,0.028287745868505233,True
13893,178925,0,178919,3237.0,42269.0,29666.0,-0.000244,-0.000793,0.001281,0.29750000000000004,-1.4000000000000001,-3.7625,1.0382500000000001,0.03240625,-0.18596875000000002,1.28125,0.996,-0.432875,-0.88984375,1.2293125,0.01904324603633424,0.028279607018424937,True
13894,178926,0,178920,3238.0,42268.0,29665.0,-0.000488,-0.0008539999999999999,0.000549,0.35000000000000003,-1.4700000000000002,-3.6750000000000003,1.043875,0.03446875,-0.18825,1.2864375000000001,0.9923125,-0.43328125,-0.8942187500000001,1.23484375,0.01914396986692076,0.028358742931026908,True
13895,178927,0,178921,3239.0,42267.0,29665.0,-0.001769,0.0,-0.00042699999999999997,0.36750000000000005,-1.4175000000000002,-3.7275000000000005,1.03796875,0.032625,-0.1868125,1.2805,0.9939687500000001,-0.43328125,-0.89146875,1.2290625,0.01906850926950305,0.028309147084781806,True
13896,178928,0,178922,3239.0,42270.0,29668.0,0.000244,0.0011589999999999999,0.001098,0.4025,-1.5050000000000001,-3.7800000000000002,1.0303437500000001,0.03209375,-0.18575,1.28096875,0.992375,-0.4323125,-0.890875,1.22934375,0.019007871236093595,0.028328654577229606,True
13897,178929,0,178923,3239.0,42272.0,29668.0,0.0015249999999999999,-0.0011589999999999999,-0.000183,0.385,-1.61,-3.7975000000000003,1.03753125,0.0325625,-0.18721875000000002,1.280375,0.992,-0.43246875,-0.8905000000000001,1.22934375,0.019033330391551202,0.02825500693035496,True
13898,178930,0,178924,3239.0,42273.0,29668.0,0.000366,-0.000305,-0.00042699999999999997,0.36750000000000005,-1.5925000000000002,-3.8850000000000002,1.03665625,0.03359375,-0.1865,1.2750937500000001,0.98521875,-0.4335,-0.89146875,1.2228125,0.019116939857163322,0.028321701587014626,True
13899,178931,0,178925,3241.0,42272.0,29669.0,0.001281,-0.00061,-0.00122,0.4025,-1.6450000000000002,-3.7800000000000002,1.03265625,0.028625,-0.1895,1.28646875,0.9921562500000001,-0.43721875,-0.8945000000000001,1.23553125,0.01906287924029816,0.02831950832513206,True
13900,178932,0,178926,3241.0,42273.0,29667.0,0.00042699999999999997,-0.000732,-0.000305,0.35000000000000003,-1.5925000000000002,-3.8325000000000005,1.041625,0.031875,-0.18771875000000002,1.28078125,0.99840625,-0.43228125,-0.8908125,1.2293125,0.018997663183825703,0.028247119293514422,True
13901,178933,0,178927,3241.0,42275.0,29669.0,0.00042699999999999997,-0.000732,6.1e-05,0.4025,-1.0850000000000002,-3.8150000000000004,1.03803125,0.0333125,-0.187,1.2805625,0.99190625,-0.4336875,-0.89028125,1.2194375,0.01911295624125503,0.028255255251484958,True
13902,178934,0,178928,3243.0,42276.0,29672.0,-0.001647,-0.000366,0.000122,0.385,-0.9975,-3.7800000000000002,1.03778125,0.0328125,-0.1863125,1.281125,0.9930625000000001,-0.43165625,-0.8890625,1.23215625,0.019010939956229943,0.028235294117647056,True
13903,178935,0,178929,3244.0,42277.0,29671.0,-0.002257,0.000183,0.000976,0.35000000000000003,-1.0325000000000002,-3.8325000000000005,1.03996875,0.031718750000000004,-0.184,1.2862500000000001,0.9923125,-0.43396875,-0.89265625,1.2336875,0.01905902003742229,0.028468486564184967,True
13904,178936,0,178930,3245.0,42278.0,29673.0,-0.002623,0.0017079999999999999,0.001037,0.4025,-1.0325000000000002,-3.8150000000000004,1.0455,0.03053125,-0.18509375,1.287375,0.99903125,-0.43543750000000003,-0.8921875,1.23465625,0.01906938437259411,0.028406251961584337,True
13905,178937,0,178931,3248.0,42279.0,29676.0,-0.0018909999999999999,0.0015249999999999999,0.00122,0.4025,-1.1725,-3.7275000000000005,1.04378125,0.03003125,-0.18990625,1.287125,0.985125,-0.433875,-0.89246875,1.23434375,0.01898619232520425,0.02822389804145079,True
13906,178938,0,178932,3248.0,42279.0,29675.0,0.0015249999999999999,-6.1e-05,-6.1e-05,0.36750000000000005,-1.6800000000000002,-3.7800000000000002,1.04453125,0.03009375,-0.1895,1.27953125,0.99884375,-0.4345625,-0.89165625,1.23434375,0.019016352349259375,0.028208498580724214,True
13907,178939,0,178933,3249.0,42281.0,29676.0,0.001952,0.000305,-0.002196,0.43750000000000006,-1.8025000000000002,-3.8325000000000005,1.03534375,0.0321875,-0.18690625,1.2734375,0.9981875,-0.433875,-0.89075,1.22978125,0.019074440709875122,0.028277321896688534,True
13908,178940,0,178934,3251.0,42279.0,29678.0,0.003294,-0.0008539999999999999,-0.0017079999999999999,0.3325,-1.9075000000000002,-3.7275000000000005,1.03790625,0.03265625,-0.18696875000000002,1.281375,0.9923125,-0.433,-0.8901875,1.2301250000000001,0.01905849670527565,0.028252850646464597,True
13909,178941,0,178935,3251.0,42281.0,29680.0,0.002928,-0.000793,-0.0008539999999999999,0.4025,-1.7500000000000002,-3.7625,1.03709375,0.032625,-0.18728125,1.2829375,0.992125,-0.4331875,-0.8911875,1.2297500000000001,0.019064745441011333,0.028279335809109143,True
13910,178942,0,178936,3254.0,42280.0,29679.0,0.002257,-0.000488,0.0,0.31500000000000006,-1.4875,-3.8675,1.043625,0.0304375,-0.18721875000000002,1.2809062500000001,0.99484375,-0.4350625,-0.89265625,1.2215625,0.019050493527487396,0.028339181359964348,True
13911,178943,0,178937,3255.0,42279.0,29679.0,-0.003904,6.1e-05,0.0006709999999999999,0.28,-1.0150000000000001,-3.7450000000000006,1.0381875,0.03240625,-0.1881875,1.2847187500000001,0.99146875,-0.43175,-0.89075,1.22928125,0.01899807627370123,0.02822584695117664,True
13912,178944,0,178938,3257.0,42282.0,29683.0,-0.003843,0.000549,-0.000122,0.31500000000000006,-1.0325000000000002,-3.7625,1.04478125,0.030125,-0.18784375,1.2861875,1.003625,-0.43553125000000004,-0.896875,1.244625,0.01905652245641273,0.028478724739550643,True
13913,178945,0,178939,3258.0,42284.0,29684.0,-0.0032329999999999998,0.00122,0.0006709999999999999,0.31500000000000006,-1.33,-3.8500000000000005,1.0406875,0.031968750000000004,-0.18696875000000002,1.2814375,1.00596875,-0.431,-0.8970312500000001,1.23778125,0.018950053211084276,0.028519966612485174,True
13914,178946,0,178940,3260.0,42286.0,29687.0,-0.0008539999999999999,0.0006709999999999999,0.001586,0.29750000000000004,-1.3650000000000002,-3.9375000000000004,1.0333125,0.033125,-0.1815,1.2810625,0.9959375,-0.431375,-0.88825,1.22428125,0.019012437900036327,0.028396934296304483,True
13915,178947,0,178941,3261.0,42286.0,29687.0,-0.0006709999999999999,-0.000488,0.000793,0.3325,-1.7675,-3.7800000000000002,1.04115625,0.029406250000000002,-0.18937500000000002,1.283375,0.98675,-0.42925,-0.8930625,1.233625,0.018774880522324674,0.028268418158673727,True
13916,178948,0,178942,3262.0,42290.0,29689.0,0.002074,0.000305,-0.000915,0.31500000000000006,-2.1,-3.8675,1.04584375,0.03084375,-0.18728125,1.27528125,1.0069062500000001,-0.4376875,-0.89871875,1.24140625,0.01917248716761764,0.028573257409078526,True
13917,178949,0,178943,3263.0,42289.0,29692.0,0.0037819999999999998,-6.1e-05,-0.001586,0.35000000000000003,-2.1525000000000003,-3.9025000000000003,1.03734375,0.0329375,-0.18675,1.28084375,1.00225,-0.43396875,-0.8896875,1.22534375,0.019108899367811464,0.02824211834720705,True
13918,178950,0,178944,3266.0,42290.0,29692.0,0.004026,0.000244,-0.0013419999999999999,0.35000000000000003,-2.1,-3.8675,1.0376875,0.03315625,-0.18496875000000002,1.28821875,0.9838125,-0.4291875,-0.8854062500000001,1.23875,0.018925875041894046,0.02814651659544437,True
13919,178951,0,178945,3267.0,42287.0,29691.0,0.0026839999999999998,0.0,0.000488,0.28,-1.9250000000000003,-3.7625,1.0414375,0.0319375,-0.1860625,1.28140625,1.00659375,-0.439625,-0.89196875,1.22415625,0.01929499736595795,0.02835879544481591,True
13920,178952,0,178946,3267.0,42289.0,29693.0,0.000732,-0.0011589999999999999,-0.000549,0.35000000000000003,-1.6625,-3.7975000000000003,1.0375,0.0330625,-0.187375,1.2858125,0.986125,-0.4293125,-0.8869375,1.244625,0.01892705740286387,0.028109625782601823,True
13921,178953,0,178947,3270.0,42289.0,29693.0,-0.00183,-0.000183,-0.000549,0.3325,-1.3650000000000002,-3.9375000000000004,1.0429375,0.0344375,-0.1898125,1.28734375,1.00640625,-0.437375,-0.89375,1.24478125,0.019307004127898354,0.028277680140597544,True
13922,178954,0,178948,3274.0,42292.0,29695.0,-0.001586,-6.1e-05,0.00061,0.385,-1.1725,-3.7625,1.0396875,0.0326875,-0.18634375,1.2822500000000001,0.99671875,-0.4375625,-0.89025,1.21778125,0.019242917537295304,0.028280400960215342,True
13923,178955,0,178949,3274.0,42290.0,29698.0,-0.003355,-0.000488,0.0013419999999999999,0.22750000000000004,-1.2600000000000002,-3.7975000000000003,1.04171875,0.029593750000000002,-0.18937500000000002,1.2806875,0.9863125,-0.43521875,-0.88703125,1.2296875,0.019022236091092902,0.028032923774305146,True
13924,178956,0,178950,3275.0,42294.0,29699.0,-0.003355,-0.000366,-0.000244,0.3325,-1.2600000000000002,-3.7975000000000003,1.03821875,0.03309375,-0.18584375,1.2861562500000001,0.98475,-0.43015625,-0.88484375,1.2328125,0.01896222010450711,0.02808938673766035,True
13925,178957,0,178951,3277.0,42294.0,29699.0,-0.001952,0.000488,0.0015249999999999999,0.3325,-1.3650000000000002,-3.8500000000000005,1.04421875,0.029718750000000002,-0.187,1.28075,0.983625,-0.43496875,-0.89090625,1.22753125,0.019017315092739788,0.028279655346016175,True
13926,178958,0,178952,3279.0,42295.0,29704.0,0.002257,-0.000244,6.1e-05,0.31500000000000006,-1.8025000000000002,-3.7625,1.03025,0.035125,-0.18615625,1.2858125,0.98953125,-0.43153125000000003,-0.8903125000000001,1.2361875,0.019100573157894065,0.02829037401599518,True
13927,178959,0,178953,3280.0,42297.0,29705.0,0.0026839999999999998,-0.00061,-0.00122,0.31500000000000006,-1.8200000000000003,-3.8675,1.04459375,0.0305,-0.18915625,1.28078125,1.00071875,-0.43665625,-0.8931875,1.22734375,0.019117028337295536,0.02828208520905569,True
13928,178960,0,178954,3281.0,42298.0,29705.0,0.001403,0.00122,-0.000793,0.385,-1.9775000000000003,-3.8150000000000004,1.038,0.033375,-0.18728125,1.2776875,0.98275,-0.43193750000000003,-0.893,1.2360625,0.019045255825494805,0.028350088378258944,True
13929,178961,0,178955,3283.0,42297.0,29707.0,0.00183,0.000549,-0.00061,0.525,-1.9250000000000003,-3.8850000000000002,1.0380625,0.03290625,-0.18625,1.285625,0.9921875,-0.43234375,-0.88909375,1.2320625,0.019042381065058487,0.028239025376325725,True
13930,178962,0,178956,3285.0,42298.0,29709.0,0.0023179999999999997,0.0008539999999999999,-0.000976,0.36750000000000005,-1.7500000000000002,-3.7625,1.0405312500000001,0.031593750000000004,-0.18837500000000001,1.2809062500000001,0.99915625,-0.43509375,-0.89409375,1.22990625,0.01909906729946555,0.02834884278524901,True
13931,178963,0,178957,3287.0,42302.0,29710.0,-0.001037,-0.000915,0.000793,0.42000000000000004,-1.4000000000000001,-3.8150000000000004,1.02546875,0.031,-0.18990625,1.2810625,0.99171875,-0.43593750000000003,-0.8935625,1.229125,0.019108638659760854,0.02826659502833313,True
13932,178964,0,178958,3289.0,42304.0,29711.0,-0.002379,-0.000366,0.001098,0.36750000000000005,-1.225,-3.8150000000000004,1.03709375,0.0335625,-0.18775,1.28309375,0.984625,-0.4320625,-0.89296875,1.22734375,0.019057948955394168,0.028330037975080814,True
13933,178965,0,178959,3289.0,42305.0,29714.0,-0.003172,0.0,0.001281,0.29750000000000004,-1.225,-3.7275000000000005,1.03809375,0.032625,-0.1875625,1.2819375,0.98684375,-0.43303125000000003,-0.89,1.229,0.019058472329339,0.028221675371635196,True
13934,178966,0,178960,3293.0,42309.0,29717.0,-0.001647,0.001281,0.00042699999999999997,0.3325,-1.3825,-3.7275000000000005,1.03765625,0.032375,-0.18528125,1.28915625,0.99190625,-0.4315,-0.89259375,1.23728125,0.018986758897325175,0.02841457612266701,True
13935,178967,0,178961,3296.0,42308.0,29715.0,0.001098,-0.000244,-0.002074,0.36750000000000005,-1.4875,-3.8675,1.03640625,0.03271875,-0.18571875000000002,1.27975,0.996375,-0.43196875,-0.88946875,1.2295625000000001,0.01901965022773697,0.02827501089190584,True
13936,178968,0,178962,3296.0,42309.0,29718.0,6.1e-05,-6.1e-05,-0.000915,0.22750000000000004,-1.5750000000000002,-3.8675,1.0469375,0.02834375,-0.187375,1.281125,0.9989687500000001,-0.4315625,-0.888875,1.23025,0.018824266765582433,0.028185283585537717,True
13937,178969,0,178963,3298.0,42310.0,29720.0,0.000183,-0.000305,0.000366,0.3325,-1.6450000000000002,-3.8850000000000002,1.02684375,0.03125,-0.1883125,1.2794375,0.99240625,-0.43365625,-0.89090625,1.2299375000000001,0.01902728945857213,0.028226925245038035,True
13938,178970,0,178964,3299.0,42310.0,29721.0,0.0,0.000915,-0.00122,0.31500000000000006,-1.6975000000000002,-3.9025000000000003,1.041375,0.03603125,-0.18796875000000002,1.2790625,0.99675,-0.43496875,-0.89109375,1.2296875,0.019275653872076266,0.028248055592173405,True
13939,178971,0,178965,3303.0,42311.0,29723.0,0.000488,-0.0006709999999999999,0.000915,0.2625,-1.7850000000000001,-3.8500000000000005,1.0350625,0.0301875,-0.19071875,1.2811875,0.99271875,-0.433375,-0.8914375,1.23090625,0.01897251198412008,0.02815099569882214,True
13940,178972,0,178966,3304.0,42312.0,29725.0,0.000976,-0.000732,-0.000305,0.24500000000000002,-1.715,-3.7450000000000006,1.0351875,0.034625,-0.1855625,1.2921562500000001,0.9883125,-0.43243750000000003,-0.89246875,1.2261250000000001,0.01911649216333819,0.028398398612029998,True
13941,178973,0,178967,3305.0,42311.0,29725.0,-0.000122,0.000183,0.000915,0.28,-1.6625,-3.8325000000000005,1.0488125,0.031375,-0.19265625,1.273625,0.9980625000000001,-0.43175,-0.89075,1.23028125,0.018955866853581915,0.02804631238512299,True
13942,178974,0,178968,3307.0,42314.0,29728.0,0.000183,0.0006709999999999999,0.00042699999999999997,0.4025,-1.4875,-3.8150000000000004,1.0343125,0.03403125,-0.18421875000000001,1.2882500000000001,0.98453125,-0.42765625,-0.88925,1.235875,0.01890019637066082,0.02832673744688972,True
13943,178975,0,178969,3308.0,42314.0,29729.0,0.002196,0.0006709999999999999,-0.000183,0.43750000000000006,-1.4525000000000001,-3.8675,1.047125,0.03325,-0.1851875,1.286375,0.99725,-0.43278125,-0.89009375,1.233,0.01907401557078157,0.028320755119694965,True
13944,178976,0,178970,3310.0,42315.0,29732.0,-0.001586,-0.000244,-0.000793,0.22750000000000004,-1.4700000000000002,-3.8325000000000005,1.0445625,0.03315625,-0.1851875,1.28809375,0.9983125,-0.43184375,-0.8895000000000001,1.2334375,0.01903253822176233,0.028297575282749756,True
13945,178977,0,178971,3312.0,42318.0,29734.0,-0.003904,-0.001098,0.000793,0.24500000000000002,-1.4700000000000002,-3.7275000000000005,1.03734375,0.029906250000000002,-0.187125,1.27828125,0.99609375,-0.43259375,-0.88975,1.23,0.01892963165239057,0.028229492059984533,True
13946,178978,0,178972,3314.0,42318.0,29734.0,0.002623,-0.001281,0.0006709999999999999,0.31500000000000006,-1.7325000000000002,-3.7100000000000004,1.03415625,0.032375,-0.186875,1.28909375,0.99190625,-0.434625,-0.889,1.2248125,0.019112222921366707,0.028210253525653903,True
13947,178979,0,178973,3314.0,42322.0,29737.0,0.0034159999999999998,0.000305,-0.000244,0.385,-1.9250000000000003,-3.9375000000000004,1.0450625,0.029718750000000002,-0.18978125,1.2865625,0.9953125,-0.4345,-0.8905625,1.23078125,0.018998495979046022,0.028154496307586457,True
13948,178980,0,178974,3318.0,42319.0,29736.0,6.1e-05,0.0006709999999999999,-0.000915,0.4025,-1.8725000000000003,-3.9550000000000005,1.04421875,0.03009375,-0.18634375,1.2807187500000001,0.9958125,-0.43234375,-0.89,1.23,0.01892726726227401,0.028270640819606268,True
13949,178981,0,178975,3319.0,42321.0,29739.0,-0.001647,0.000549,0.000488,0.35000000000000003,-1.9075000000000002,-3.9375000000000004,1.03146875,0.03359375,-0.180625,1.2803125,0.9916875,-0.4325,-0.88975,1.2301875,0.019076793205771,0.0284906437388885,True
13950,178982,0,178976,3322.0,42321.0,29741.0,0.004697,-0.000366,-0.001464,0.47250000000000003,-1.8900000000000001,-3.7275000000000005,1.03171875,0.0328125,-0.1863125,1.28240625,0.99184375,-0.43153125000000003,-0.88990625,1.23,0.019005920883489447,0.02826823624536553,True
13951,178983,0,178977,3322.0,42323.0,29742.0,0.0050019999999999995,0.001281,0.000305,0.4025,-1.5925000000000002,-3.8150000000000004,1.0245312500000001,0.03265625,-0.18912500000000002,1.28940625,0.99290625,-0.43175,-0.89015625,1.240625,0.01900830886039682,0.02816499996861209,True
13952,178984,0,178978,3325.0,42323.0,29744.0,0.0011589999999999999,0.00061,-0.00061,0.49000000000000005,-1.2775,-3.8500000000000005,1.03953125,0.03078125,-0.18928125,1.28578125,1.00965625,-0.43178125,-0.903,1.25053125,0.018932819317052454,0.02865995060836044,True
13953,178985,0,178979,3327.0,42327.0,29748.0,-0.002806,0.001952,-0.0006709999999999999,0.42000000000000004,-1.0150000000000001,-3.7800000000000002,1.0425625,0.032625,-0.18690625,1.28109375,1.02153125,-0.44425000000000003,-0.90409375,1.2477500000000001,0.019508677909937922,0.028797976236336648,True
13954,178986,0,178980,3331.0,42327.0,29749.0,-0.004331,0.0011589999999999999,-0.000488,0.42000000000000004,-0.5950000000000001,-3.7800000000000002,1.03765625,0.031593750000000004,-0.1886875,1.2803125,1.01421875,-0.441875,-0.8986875,1.2471875000000001,0.01937121231493083,0.02851555930407978,True
13955,178987,0,178981,3332.0,42330.0,29752.0,-0.00244,-0.001769,0.0026839999999999998,0.2625,-0.5775,-3.6225000000000005,1.03890625,0.030625,-0.1905625,1.2868125000000001,1.0153125,-0.44509375,-0.89384375,1.2433750000000001,0.0194607046659414,0.028251211707713886,True
13956,178988,0,178982,3334.0,42329.0,29753.0,-0.0017079999999999999,-0.002623,0.000793,0.1925,-0.6300000000000001,-3.5875000000000004,1.0431875,0.0289375,-0.18853125,1.2875,1.00378125,-0.42940625,-0.89296875,1.23828125,0.018761968478050915,0.02829865361077111,True
13957,178989,0,178983,3334.0,42329.0,29751.0,-0.001403,-0.0021349999999999997,0.001098,0.28,-0.9450000000000001,-3.6050000000000004,1.04603125,0.02896875,-0.18871875,1.28021875,1.00971875,-0.44390625,-0.89615625,1.23728125,0.01934531229025639,0.028415531011940845,True
13958,178990,0,178984,3335.0,42328.0,29751.0,-0.002196,0.00042699999999999997,0.00061,0.31500000000000006,-1.155,-3.7450000000000006,1.03753125,0.04009375,-0.186,1.28121875,0.991375,-0.432625,-0.8807812500000001,1.2214375,0.019347849443111412,0.027924414551894355,True
13959,178991,0,178985,3334.0,42329.0,29746.0,-0.000244,0.00183,-0.000915,0.3325,-1.2775,-3.8500000000000005,1.0288125000000001,0.033375,-0.1865625,1.2809375,0.980125,-0.4265,-0.88490625,1.21296875,0.018826888829754567,0.02806294478204032,True
13960,178992,0,178986,3333.0,42322.0,29742.0,0.001586,6.1e-05,-0.0006709999999999999,0.24500000000000002,-1.4700000000000002,-3.7625,1.03790625,0.03325,-0.1814375,1.2886250000000001,0.9805,-0.42821875,-0.88003125,1.23934375,0.018890806354843206,0.02807849166186236,True
13961,178993,0,178987,3329.0,42322.0,29736.0,0.001403,-0.000488,-0.000122,0.22750000000000004,-1.5925000000000002,-3.8500000000000005,1.0455,0.029562500000000002,-0.19025,1.2867187500000001,1.0030625,-0.43990625,-0.8978125,1.244375,0.019209106008743385,0.028418661277973715,True
13962,178994,0,178988,3324.0,42316.0,29728.0,0.001464,0.000305,-0.0006709999999999999,0.17500000000000002,-1.6975000000000002,-3.8325000000000005,1.0450625,0.029718750000000002,-0.1870625,1.28159375,1.01234375,-0.44503125,-0.89509375,1.2328125,0.01942112469175101,0.02844059384190911,True
13963,178995,0,178989,3320.0,42309.0,29720.0,0.001281,0.0015249999999999999,0.0017079999999999999,0.29750000000000004,-1.6275000000000002,-3.8325000000000005,1.03684375,0.0335,-0.18646875000000002,1.28109375,0.9812500000000001,-0.4295625,-0.8837812500000001,1.223,0.018955005845888565,0.02802277085601691,True
13964,178996,0,178990,3313.0,42309.0,29717.0,0.000244,0.001281,0.001586,0.36750000000000005,-1.61,-3.7975000000000003,1.0401562500000001,0.03015625,-0.18765625,1.28703125,0.9858750000000001,-0.43534375000000003,-0.8893125000000001,1.238625,0.019050274256935715,0.028191065944469143,True
13965,178997,0,178991,3308.0,42306.0,29711.0,-0.000915,-0.00061,0.000793,0.2625,-1.7500000000000002,-3.8675,1.043,0.02884375,-0.18862500000000001,1.2853125,0.99459375,-0.43203125000000003,-0.89025,1.2298125,0.01886355642247306,0.028188748606382014,True
13966,178998,0,178992,3303.0,42300.0,29705.0,-0.001098,-0.000366,-0.000488,0.24500000000000002,-1.8375000000000001,-3.8850000000000002,1.036125,0.032125,-0.1869375,1.2818125,0.9925,-0.432375,-0.89025,1.23046875,0.019011659734266523,0.02825654623798475,True
13967,178999,0,178993,3295.0,42297.0,29700.0,0.000244,-0.000305,0.0,0.28,-1.9250000000000003,-3.7450000000000006,1.0413125,0.03390625,-0.18990625,1.287,0.9918750000000001,-0.4323125,-0.88509375,1.2295625000000001,0.019082055781662093,0.027935900382131375,True
13968,179000,0,178994,3290.0,42296.0,29695.0,0.000976,-0.000488,0.000305,0.28,-1.9075000000000002,-3.7975000000000003,1.0386250000000001,0.03265625,-0.1868125,1.28171875,0.9916875,-0.43293750000000003,-0.88971875,1.23015625,0.019055987434994256,0.028240827349646128,True
13969,179001,0,178995,3287.0,42293.0,29692.0,0.000549,-0.0015249999999999999,-0.0006709999999999999,0.24500000000000002,-1.9250000000000003,-3.8150000000000004,1.03803125,0.033125,-0.18609375,1.28153125,0.99290625,-0.4315625,-0.8898125,1.2295625000000001,0.01901996648802139,0.028273364855601057,True
13970,179002,0,178996,3281.0,42290.0,29687.0,-0.000549,-0.000244,-0.000488,0.2625,-1.9600000000000002,-3.8150000000000004,1.03746875,0.03325,-0.18625,1.28028125,0.99159375,-0.4301875,-0.88653125,1.23525,0.018969870779747395,0.028138965730710258,True
13971,179003,0,178997,3278.0,42288.0,29687.0,-0.000915,-0.00042699999999999997,-0.000305,0.17500000000000002,-1.8375000000000001,-3.8150000000000004,1.042625,0.03215625,-0.189,1.27475,0.99803125,-0.43346875,-0.89346875,1.2331875,0.01905685208941117,0.028299340564982532,True
13972,179004,0,178998,3275.0,42285.0,29684.0,-0.0008539999999999999,0.000183,0.000732,0.2625,-1.9425000000000001,-3.7625,1.0434375,0.0325,-0.1869375,1.2808125000000001,0.99303125,-0.433,-0.8903125000000001,1.2303125,0.019052101665779888,0.02825898630240179,True
13973,179005,0,178999,3274.0,42286.0,29683.0,-0.000976,0.0,0.0015249999999999999,0.15750000000000003,-1.9775000000000003,-3.8325000000000005,1.03803125,0.03353125,-0.185625,1.28125,0.98803125,-0.43171875,-0.88915625,1.22953125,0.019042868197719408,0.028266576935487717,True
13974,179006,0,179000,3273.0,42284.0,29681.0,0.000305,-0.000305,-0.000244,0.21000000000000002,-2.1,-3.9025000000000003,1.03775,0.03309375,-0.18565625,1.28096875,0.9915625,-0.43234375,-0.88965625,1.2305625,0.01905005531857745,0.028284842222358938,True
13975,179007,0,179001,3271.0,42282.0,29679.0,0.001586,0.000305,-0.001586,0.24500000000000002,-2.4325,-3.7975000000000003,1.0361875,0.027,-0.192,1.2906250000000001,0.99746875,-0.43543750000000003,-0.8908125,1.23640625,0.018924870897032233,0.02807511807820657,True
13976,179008,0,179002,3269.0,42279.0,29678.0,0.0034159999999999998,0.000183,-0.002074,0.35000000000000003,-2.2925000000000004,-3.7800000000000002,1.04946875,0.03540625,-0.18296875,1.28134375,0.999,-0.43678125,-0.89290625,1.23753125,0.019322818957590825,0.028519671141251337,True
13977,179009,0,179003,3270.0,42277.0,29675.0,0.003965,0.0008539999999999999,-0.00061,0.43750000000000006,-2.1700000000000004,-3.7800000000000002,1.036375,0.0363125,-0.19003125,1.295875,0.9864375,-0.43443750000000003,-0.8915937500000001,1.22890625,0.01926584149931833,0.02818471597464506,True
13978,179010,0,179004,3266.0,42278.0,29672.0,0.002379,0.000183,0.000366,0.45500000000000007,-1.9075000000000002,-3.7975000000000003,1.049625,0.030625,-0.180375,1.2733125,0.9919375,-0.4303125,-0.88665625,1.23271875,0.018867441830717476,0.0283799174507423,True
13979,179011,0,179005,3267.0,42275.0,29673.0,-0.000366,0.000305,-0.000244,0.45500000000000007,-1.61,-3.7625,1.04171875,0.02625,-0.19396875,1.29646875,0.9993125,-0.433375,-0.89003125,1.22196875,0.018811359462211012,0.02796551330163557,True
13980,179012,0,179006,3267.0,42277.0,29674.0,-0.002379,0.000122,0.001586,0.36750000000000005,-1.1725,-3.6575,1.051625,0.0314375,-0.19162500000000002,1.29421875,0.9915625,-0.4328125,-0.8900625,1.22971875,0.019001087165057235,0.028060897798067,True
13981,179013,0,179007,3267.0,42277.0,29674.0,-0.00244,-0.000122,0.0006709999999999999,0.2625,-0.9975,-3.7625,1.0464375000000001,0.03021875,-0.18903125,1.282375,0.9924375,-0.43171875,-0.88984375,1.2301875,0.018907286250583577,0.0281565648639317,True
13982,179014,0,179008,3269.0,42280.0,29676.0,-0.0026839999999999998,0.000244,0.001098,0.31500000000000006,-1.0150000000000001,-3.7975000000000003,1.03990625,0.032875,-0.18809375,1.2794375,0.9896875,-0.43209375,-0.8855937500000001,1.22959375,0.019031064417064134,0.028028264344707465,True
13983,179015,0,179009,3268.0,42277.0,29676.0,-0.00183,0.0,0.001586,0.36750000000000005,-1.1025,-3.7975000000000003,1.03934375,0.031656250000000004,-0.18915625,1.28940625,0.9919375,-0.43271875,-0.88725,1.2305625,0.019006276164006512,0.028050256657525436,True
13984,179016,0,179010,3268.0,42281.0,29676.0,-0.000793,-0.00042699999999999997,0.0006709999999999999,0.31500000000000006,-1.33,-3.7450000000000006,1.04265625,0.035,-0.18628125,1.27765625,0.992625,-0.43259375,-0.88590625,1.2299375000000001,0.01913811340640001,0.02811330208237845,True
13985,179017,0,179011,3270.0,42278.0,29678.0,0.001403,0.0,6.1e-05,0.31500000000000006,-1.5575,-3.7800000000000002,1.0311875,0.03225,-0.1834375,1.2761875,0.9925625,-0.43243750000000003,-0.8885000000000001,1.232875,0.019019285325092925,0.028328846656086145,True
13986,179018,0,179012,3269.0,42282.0,29680.0,0.002074,-0.000915,-0.0018909999999999999,0.3325,-1.7325000000000002,-3.7275000000000005,1.03203125,0.03490625,-0.18315625,1.27715625,0.99346875,-0.43253125000000003,-0.888875,1.2345,0.01913176720074798,0.028354787028340975,True
13987,179019,0,179013,3271.0,42284.0,29679.0,0.002013,-0.000732,-0.002257,0.3325,-1.6450000000000002,-3.7975000000000003,1.0346875,0.0316875,-0.1779375,1.28278125,0.9975625,-0.43484375000000003,-0.88425,1.23796875,0.019092868150630184,0.028383917538201874,True
13988,179020,0,179014,3270.0,42283.0,29680.0,0.000244,-0.001098,-0.000793,0.45500000000000007,-1.4875,-3.7975000000000003,1.0354375,0.03028125,-0.18996875,1.2862500000000001,0.98828125,-0.43578125,-0.8909375,1.23090625,0.019072952701276943,0.028161605001820442,True
13989,179021,0,179015,3271.0,42282.0,29680.0,0.000732,0.00061,-0.000488,0.43750000000000006,-1.4000000000000001,-3.7625,1.0414375,0.03775,-0.18675,1.28140625,0.98803125,-0.43253125000000003,-0.890125,1.2297500000000001,0.01924815915256427,0.02825919918039785,True
13990,179022,0,179016,3272.0,42283.0,29679.0,-0.0006709999999999999,0.000244,0.000366,0.4025,-1.12,-3.7450000000000006,1.0320625,0.0330625,-0.18640625,1.28075,0.9924375,-0.43196875,-0.8856875000000001,1.2309375,0.01903371990847033,0.02809973604305688,True
13991,179023,0,179017,3271.0,42284.0,29680.0,-0.000976,0.0008539999999999999,0.000366,0.4025,-1.0150000000000001,-3.6575,1.0376875,0.03334375,-0.18709375,1.28140625,0.9920625000000001,-0.43196875,-0.88290625,1.23078125,0.019045231465433993,0.027963473920977373,True
13992,179024,0,179018,3272.0,42286.0,29683.0,-0.000732,6.1e-05,0.000488,0.42000000000000004,-1.0850000000000002,-3.7275000000000005,1.03665625,0.033,-0.1869375,1.2815,0.9925,-0.432375,-0.88996875,1.22990625,0.019047472871548506,0.028245565796461675,True
13993,179025,0,179019,3272.0,42286.0,29682.0,-0.000244,0.000793,0.000366,0.385,-1.05,-3.6050000000000004,1.03746875,0.03253125,-0.18903125,1.2783125,0.9936875000000001,-0.43434375000000003,-0.8923125000000001,1.2353750000000001,0.019107327161180666,0.02825294958031722,True
13994,179026,0,179020,3273.0,42287.0,29683.0,-0.000122,-0.000244,0.0006709999999999999,0.31500000000000006,-1.12,-3.6225000000000005,1.04390625,0.03009375,-0.18725,1.28628125,0.99825,-0.43646875,-0.8929375,1.2184375,0.019092877320909963,0.028348904182160104,True
13995,179027,0,179021,3273.0,42284.0,29686.0,-0.001037,6.1e-05,-0.000549,0.45500000000000007,-1.05,-3.6925000000000003,1.04359375,0.02865625,-0.19065625,1.2866875,0.99175,-0.43275,-0.89065625,1.23121875,0.018884744860893678,0.028123002984302595,True
13996,179028,0,179022,3273.0,42287.0,29687.0,-0.000122,0.001037,-0.000488,0.525,-1.1025,-3.6400000000000006,1.044625,0.02834375,-0.18853125,1.2865312500000001,0.991125,-0.43015625,-0.8910625,1.23625,0.0187677882739698,0.028224237113220856,True
13997,179029,0,179023,3273.0,42288.0,29689.0,-0.000305,-0.000305,-0.000549,0.47250000000000003,-1.05,-3.5875000000000004,1.0350625,0.02815625,-0.18962500000000002,1.2838125,0.9951875,-0.433875,-0.890375,1.2274375,0.01890945459940349,0.028153452890926713,True
13998,179030,0,179024,3274.0,42290.0,29689.0,-0.000793,0.000183,-0.000244,0.4025,-1.0150000000000001,-3.6225000000000005,1.04384375,0.029468750000000002,-0.18987500000000002,1.286125,0.98965625,-0.43271875,-0.890875,1.2326875,0.018916744580461393,0.028162931194664707,True
13999,179031,0,179025,3274.0,42290.0,29689.0,-0.001098,-0.000122,0.0006709999999999999,0.5075000000000001,-1.0150000000000001,-3.7625,1.04484375,0.029750000000000002,-0.18059375,1.2866875,0.9995625,-0.42993750000000003,-0.89271875,1.236625,0.018816564716958445,0.02860776306324515,True
14000,179032,0,179026,3274.0,42293.0,29692.0,-0.0008539999999999999,0.000305,0.001952,0.35000000000000003,-1.2075,-3.7625,1.0439375,0.0325625,-0.185125,1.28078125,0.9997812500000001,-0.4275,-0.89096875,1.23609375,0.018833793879848532,0.028357423814611475,True
14001,179033,0,179027,3274.0,42295.0,29693.0,-0.0046359999999999995,0.0015249999999999999,0.000976,0.31500000000000006,-1.61,-3.6575,1.0378125,0.03271875,-0.18721875000000002,1.288375,0.9924375,-0.4320625,-0.88825,1.23040625,0.01902341441701862,0.02816715719265115,True
14002,179034,0,179028,3277.0,42292.0,29691.0,0.004209,-0.0046359999999999995,-0.0035989999999999998,0.08750000000000001,-2.345,-2.7475,1.0425,0.0325625,-0.1859375,1.2806875,0.9935625,-0.43646875,-0.89315625,1.2369375,0.019193904602112365,0.028410167955298958,True
14003,179035,0,179029,3276.0,42294.0,29693.0,0.006771,0.00183,0.000732,0.56,-1.7675,-3.2900000000000005,1.03740625,0.032875,-0.18281250000000002,1.2810625,0.9937812500000001,-0.43225,-0.889375,1.2295,0.0190373379447247,0.028388117419581648,True
14004,179036,0,179030,3276.0,42293.0,29694.0,-0.003111,-0.00183,-0.000183,0.28,-1.5050000000000001,-3.5525,1.03715625,0.0329375,-0.1865,1.28259375,0.9908125,-0.42771875000000004,-0.89015625,1.23015625,0.01885793162736492,0.028270463348336754,True
14005,179037,0,179031,3276.0,42295.0,29694.0,0.00183,-0.002989,6.1e-05,0.2625,-1.5050000000000001,-3.4650000000000003,1.0419375,0.0288125,-0.18928125,1.2838125,0.99221875,-0.43225,-0.88978125,1.2254375,0.0188710618137912,0.02814408021364189,True
14006,179038,0,179032,3277.0,42295.0,29695.0,0.003477,-0.000183,-0.000549,0.14,-1.5050000000000001,-3.8325000000000005,1.04165625,0.0306875,-0.1859375,1.2811875,0.99646875,-0.4345625,-0.89146875,1.23484375,0.01904065194537451,0.028344299691033702,True
14007,179039,0,179033,3280.0,42295.0,29696.0,-0.0006709999999999999,-0.000366,-0.000732,0.42000000000000004,-1.4525000000000001,-3.6925000000000003,1.0389375,0.032625,-0.18690625,1.28209375,0.99259375,-0.43225,-0.8895000000000001,1.23046875,0.019027105567436486,0.02822852005865928,True
14008,179040,0,179034,3279.0,42296.0,29697.0,-0.003843,0.001403,0.0,0.45500000000000007,-1.3475000000000001,-3.7100000000000004,1.0348125,0.0318125,-0.18640625,1.282,0.9843125,-0.43278125,-0.8901875,1.2305625,0.019015180680668518,0.028275449913746132,True
14009,179041,0,179035,3281.0,42297.0,29698.0,-0.000122,-0.000488,0.00061,0.2625,-1.4525000000000001,-3.8325000000000005,1.03765625,0.0331875,-0.185875,1.28178125,0.99228125,-0.4320625,-0.8886875,1.23034375,0.019042600271671702,0.028238230722290997,True
14010,179042,0,179036,3280.0,42297.0,29699.0,-6.1e-05,-0.000366,-0.00042699999999999997,0.36750000000000005,-1.5925000000000002,-3.7450000000000006,1.04040625,0.03340625,-0.18553125,1.2866250000000001,0.9997812500000001,-0.4368125,-0.89125,1.23840625,0.019242229321029494,0.02835208155476322,True
14011,179043,0,179037,3281.0,42300.0,29701.0,-0.000549,-0.000244,-0.001281,0.36750000000000005,-1.8550000000000002,-3.7800000000000002,1.0450625,0.03696875,-0.18959375,1.2903125,1.00271875,-0.43734375000000003,-0.89475,1.23996875,0.019409331261708837,0.02832550035650087,True
14012,179044,0,179038,3282.0,42298.0,29703.0,0.001037,0.0006709999999999999,0.0,0.31500000000000006,-2.0125,-3.8675,1.0501875,0.02734375,-0.19165625,1.29428125,1.0011875000000001,-0.4336875,-0.8889375,1.23121875,0.018868672606212222,0.02801570979074539,True
14013,179045,0,179039,3282.0,42297.0,29704.0,0.0018909999999999999,-0.000488,-0.00061,0.2625,-2.0300000000000002,-3.7625,1.059125,0.02278125,-0.19693750000000002,1.30059375,0.98971875,-0.43321875,-0.892,1.23125,0.018663116172526386,0.027923127912582356,True
14014,179046,0,179040,3284.0,42300.0,29702.0,0.000793,-0.001647,-0.000976,0.22750000000000004,-1.9775000000000003,-3.7800000000000002,1.06271875,0.0233125,-0.19543750000000001,1.293375,0.99065625,-0.43184375,-0.89003125,1.227625,0.018629631666664537,0.02790650373329684,True
14015,179047,0,179041,3284.0,42300.0,29704.0,-0.00042699999999999997,-0.000366,-0.000244,0.22750000000000004,-1.9600000000000002,-3.7800000000000002,1.03303125,0.03109375,-0.18728125,1.27171875,0.98884375,-0.43128125,-0.88784375,1.2281875,0.018925532200649523,0.02814878247538017,True
