frame_seq,absolute_seq_u64,segment_id,sample_seq,PPG_G,PPG_R,PPG_IR,ACC_X,ACC_Y,ACC_Z,GYRO_X,GYRO_Y,GYRO_Z,Uh1,Uh2,Uh3,Uh4,Uc1,Uc2,Uc3,Uc4,UD1,UD2,parser_valid
2496,201375,2,201374,3924.0,41264.0,30926.0,-0.008539999999999999,-0.001952,0.001647,0.31500000000000006,0.2625,-3.4825000000000004,1.1760625,0.33015625,0.24425,1.46753125,1.1455625,-0.1580625,-0.33703125,1.43909375,0.02020935039802964,0.023884640818711198,True
2497,201376,2,201375,3924.0,41262.0,30927.0,-0.010797,-0.005429,0.000305,0.28,0.56,-3.115,1.17753125,0.3316875,0.24146875,1.469875,1.1405625,-0.16396875,-0.3359375,1.43409375,0.02051220373308917,0.02372648475120385,True
2498,201377,2,201376,3921.0,41261.0,30927.0,-0.007625,-0.004026,0.0006709999999999999,0.36750000000000005,0.6475000000000001,-3.0275000000000003,1.17625,0.3286875,0.24384375,1.4729375,1.15021875,-0.16228125000000002,-0.3404375,1.43359375,0.020319635589044396,0.024004550041469057,True
2499,201378,2,201377,3920.0,41260.0,30924.0,-0.006161,0.0006709999999999999,0.000488,0.4025,0.5775,-3.115,1.17575,0.3321875,0.2405625,1.47509375,1.1405,-0.17059375000000002,-0.33587500000000003,1.422625,0.020801361158122155,0.023686738200290724,True
2500,201379,2,201378,3919.0,41258.0,30924.0,-0.001952,0.000915,0.000488,0.42000000000000004,0.1925,-3.1500000000000004,1.1774375,0.32840625,0.24471875,1.47025,1.1568125,-0.15859375,-0.336625,1.4448125,0.020158458105617175,0.02388760766951046,True
2501,201380,2,201379,3918.0,41258.0,30926.0,0.002379,0.0026839999999999998,0.002562,0.525,-0.36750000000000005,-3.2375000000000003,1.1769375,0.32978125,0.2429375,1.4645000000000001,1.13925,-0.16003125,-0.33871875,1.44303125,0.020273669968866453,0.02389839235066554,True
2502,201381,2,201380,3916.0,41257.0,30925.0,0.00244,0.003477,-0.000732,0.5775,-0.49000000000000005,-3.325,1.1835625,0.3305625,0.24431250000000002,1.47553125,1.13375,-0.16153125000000002,-0.341875,1.42978125,0.020366827950939574,0.024081444013659584,True
2503,201382,2,201381,3916.0,41255.0,30926.0,0.001586,0.004514,-0.001769,0.5775,-0.6300000000000001,-3.4475000000000002,1.1756875,0.33178125,0.24415625,1.4682187500000001,1.13696875,-0.169125,-0.3343125,1.43940625,0.02072504693488076,0.02377173178819003,True
2504,201383,2,201382,3914.0,41257.0,30925.0,0.001281,0.0028669999999999998,0.0006709999999999999,0.6300000000000001,-0.6300000000000001,-3.3950000000000005,1.1772500000000001,0.3308125,0.24406250000000002,1.4760312500000001,1.14225,-0.160875,-0.337,1.4235625,0.0203505667737613,0.02387568311624276,True
2505,201384,2,201383,3915.0,41256.0,30922.0,0.001586,0.000244,0.001037,0.42000000000000004,-0.6825000000000001,-3.325,1.1703125,0.32834375,0.24406250000000002,1.47309375,1.15603125,-0.1554375,-0.34184375,1.42884375,0.020027840522449655,0.02406992075117564,True
2506,201385,2,201384,3914.0,41254.0,30923.0,-0.000305,-0.0035989999999999998,-0.00122,0.22750000000000004,-0.08750000000000001,-3.115,1.1751562500000001,0.3289375,0.24425,1.4736562500000001,1.1569375,-0.15937500000000002,-0.34078125,1.43009375,0.02021213297115509,0.024035023526617495,True
2507,201386,2,201385,3913.0,41254.0,30924.0,-0.001403,-0.003111,-0.001952,0.385,0.07,-3.0975,1.17646875,0.33146875000000003,0.24490625,1.47109375,1.13871875,-0.16634375,-0.334625,1.4427812500000001,0.02059941318181407,0.023815088582626612,True
2508,201387,2,201386,3913.0,41254.0,30924.0,-0.000549,-0.000976,0.000183,0.4025,0.28,-3.0625000000000004,1.18196875,0.3309375,0.24228125,1.46965625,1.13371875,-0.1690625,-0.33337500000000003,1.44490625,0.020687604246130774,0.02365706565570949,True
2509,201388,2,201387,3913.0,41252.0,30922.0,-0.0013419999999999999,-0.0008539999999999999,0.001403,0.2625,0.43750000000000006,-3.0100000000000002,1.184125,0.332,0.24203125,1.46940625,1.1340000000000001,-0.16546875,-0.33671875,1.433,0.02058593421656677,0.023780938011620813,True
2510,201389,2,201388,3912.0,41252.0,30921.0,-0.00183,-0.000976,0.000244,0.24500000000000002,0.43750000000000006,-2.9400000000000004,1.1815,0.3380625,0.24,1.4694375,1.14203125,-0.1600625,-0.33628125000000003,1.43675,0.020617703286156648,0.023679922338175646,True
2511,201390,2,201389,3912.0,41250.0,30923.0,-0.004697,0.00061,0.000549,0.28,0.0175,-3.0275000000000003,1.1811875,0.33203125,0.24096875,1.46884375,1.14240625,-0.1631875,-0.3355625,1.436,0.020494760883678947,0.02369089475536059,True
2512,201391,2,201390,3913.0,41251.0,30923.0,-0.000366,0.0032329999999999998,0.002074,0.4025,-0.1925,-3.0275000000000003,1.1826875000000001,0.33196875000000003,0.24175,1.46940625,1.14071875,-0.1605,-0.33546875,1.43546875,0.020383218476438817,0.023719236967646246,True
2513,201392,2,201391,3909.0,41249.0,30923.0,0.001586,0.004026,0.0025009999999999998,0.4025,-0.35000000000000003,-3.0450000000000004,1.1805,0.3321875,0.24390625000000002,1.4759375000000001,1.14396875,-0.15865625,-0.3373125,1.43403125,0.020317510416168118,0.0238817967267339,True
2514,201393,2,201392,3908.0,41246.0,30922.0,0.001037,0.001281,0.000732,0.43750000000000006,-0.36750000000000005,-3.1325000000000003,1.17728125,0.32934375,0.24484375,1.46946875,1.146125,-0.1558125,-0.33778125000000003,1.4401875,0.020084451723575845,0.023939117293200262,True
2515,201394,2,201393,3909.0,41248.0,30922.0,-0.003904,-0.000549,-0.0011589999999999999,0.10500000000000001,-0.6825000000000001,-3.0275000000000003,1.18384375,0.33203125,0.24103125,1.46978125,1.1400000000000001,-0.166625,-0.33859375,1.434125,0.020634087300150518,0.0238150571045215,True
2516,201395,2,201394,3909.0,41247.0,30923.0,0.009943,0.000183,0.000915,0.29750000000000004,-0.6475000000000001,-2.4850000000000003,1.16590625,0.3325,0.24375,1.4758125,1.1393125,-0.1621875,-0.34015625,1.4352500000000001,0.020473622266195892,0.023989420774568775,True
2517,201396,2,201395,3908.0,41250.0,30922.0,-0.001464,0.0057339999999999995,-0.000183,0.2625,-0.3325,-3.4650000000000003,1.1765625,0.3295,0.24734375,1.4695,1.14475,-0.16015625,-0.33728125000000003,1.442,0.02026709781729992,0.024021787561007868,True
2518,201397,2,201396,3909.0,41246.0,30919.0,-0.009821,0.00061,-0.001464,0.0175,-0.42000000000000004,-3.535,1.1861875,0.33240625,0.242125,1.47615625,1.14034375,-0.16309375,-0.3368125,1.4345,0.020506480052869886,0.023788550780838698,True
2519,201398,2,201397,3910.0,41245.0,30921.0,-0.004392,-0.002562,0.000366,0.0,-0.8400000000000001,-3.0275000000000003,1.176375,0.32706250000000003,0.244625,1.4731875,1.1470625,-0.16265625,-0.33871875,1.4403125,0.020267587509134058,0.02396772632084423,True
2520,201399,2,201398,3912.0,41244.0,30920.0,-0.000244,-0.00183,0.00244,0.052500000000000005,-1.1725,-3.0975,1.17609375,0.32725,0.24606250000000002,1.46778125,1.13996875,-0.16493750000000001,-0.33665625,1.439875,0.020367836664175108,0.02394407613001478,True
2521,201400,2,201399,3911.0,41242.0,30919.0,0.004697,-0.002074,-0.000366,0.10500000000000001,-1.3475000000000001,-3.2900000000000005,1.18446875,0.33271875,0.24146875,1.4681250000000001,1.14096875,-0.16384375,-0.33703125,1.43428125,0.020549814223989094,0.02377036024063124,True
2522,201401,2,201400,3911.0,41242.0,30921.0,0.001586,0.002196,-0.00183,0.385,-1.2075,-3.3425000000000002,1.173875,0.32628125,0.24571875,1.4669375,1.14415625,-0.16625,-0.3365,1.43621875,0.020380954844049035,0.023923684588991842,True
2523,201402,2,201401,3911.0,41243.0,30923.0,-0.0015249999999999999,0.0046359999999999995,-0.000305,0.42000000000000004,-1.0850000000000002,-3.3950000000000005,1.16803125,0.32853125,0.24506250000000002,1.47971875,1.14596875,-0.16171875,-0.33715625,1.4415625,0.020290361173085008,0.023923039488231088,True
2524,201403,2,201402,3913.0,41242.0,30920.0,-0.0030499999999999998,0.0032329999999999998,0.0021349999999999997,0.24500000000000002,-1.2425000000000002,-3.4125000000000005,1.16565625,0.3306875,0.2451875,1.46790625,1.133375,-0.16459375,-0.33659375,1.4360625,0.02049615462705637,0.02390561538629456,True
2525,201404,2,201403,3912.0,41242.0,30921.0,0.0006709999999999999,0.0013419999999999999,0.000488,0.035,-1.3125000000000002,-3.3600000000000003,1.1869687500000001,0.3331875,0.23721875,1.4670625,1.14490625,-0.16246875,-0.33653125,1.43490625,0.020513477125552414,0.023575668779830732,True
2526,201405,2,201404,3913.0,41242.0,30920.0,0.0,-0.0015249999999999999,0.000793,-0.035,-0.9625000000000001,-3.535,1.1864375,0.33325,0.24084375,1.4684375,1.1441875,-0.1626875,-0.339125,1.43484375,0.020524931260233366,0.023828660644127513,True
2527,201406,2,201405,3915.0,41243.0,30922.0,-0.002806,-0.001464,-0.00183,-0.052500000000000005,-0.9275000000000001,-3.4650000000000003,1.18671875,0.33290625,0.23959375,1.46753125,1.14328125,-0.16303125000000002,-0.33703125,1.4349687500000001,0.02052463926685523,0.023693317154285198,True
2528,201407,2,201406,3914.0,41241.0,30922.0,-0.002562,-0.002013,-0.00042699999999999997,-0.052500000000000005,-1.1375000000000002,-3.4125000000000005,1.1835,0.33125,0.24275,1.46778125,1.14203125,-0.162625,-0.33634375,1.43740625,0.02043962524767073,0.023795429418192696,True
2529,201408,2,201407,3917.0,41241.0,30922.0,-6.1e-05,0.00042699999999999997,0.000732,-0.08750000000000001,-1.2425000000000002,-3.43,1.18371875,0.33159375,0.24478125,1.4723125000000001,1.14115625,-0.16190625,-0.33690625,1.438125,0.020424712971477573,0.023901456250216686,True
2530,201409,2,201408,3916.0,41244.0,30922.0,0.000976,-0.001403,0.000122,-0.15750000000000003,-1.4175000000000002,-3.5000000000000004,1.1810625000000001,0.33715625,0.241625,1.47540625,1.14021875,-0.16153125000000002,-0.338,1.43465625,0.02063973077037491,0.023815638096803354,True
2531,201410,2,201409,3918.0,41242.0,30922.0,0.001037,-0.0013419999999999999,-0.001098,0.07,-1.5750000000000002,-3.5700000000000003,1.1711562500000001,0.3285625,0.2426875,1.46871875,1.14428125,-0.16140625,-0.33675,1.4353125,0.020278983140726754,0.02380915693344428,True
2532,201411,2,201410,3920.0,41243.0,30923.0,0.000549,0.001769,-0.000732,0.21000000000000002,-1.54,-3.5875000000000004,1.18271875,0.32959375,0.24390625000000002,1.471,1.12940625,-0.16234375,-0.33971875,1.43484375,0.02035967640763326,0.023978296791124593,True
2533,201412,2,201411,3922.0,41241.0,30923.0,0.000549,0.0040869999999999995,0.0011589999999999999,0.24500000000000002,-1.54,-3.6050000000000004,1.18203125,0.3318125,0.24121875,1.46934375,1.13965625,-0.1719375,-0.33309375,1.43840625,0.020840282248785397,0.0236021159454909,True
2534,201413,2,201412,3920.0,41243.0,30923.0,-0.001403,0.002379,0.0006709999999999999,0.035,-1.2600000000000002,-3.6575,1.16740625,0.3321875,0.2485625,1.4655,1.1401875000000001,-0.16475,-0.3403125,1.41890625,0.020564562016987555,0.024193403433090684,True
2535,201414,2,201413,3923.0,41245.0,30923.0,-0.0013419999999999999,-0.000793,0.000732,-0.17500000000000002,-1.4875,-3.6750000000000003,1.179625,0.33134375,0.2411875,1.4698437500000001,1.15321875,-0.1620625,-0.33153125,1.45246875,0.020420700840418735,0.023538130178305153,True
2536,201415,2,201414,3925.0,41244.0,30922.0,0.000793,-0.001464,0.00042699999999999997,-0.10500000000000001,-1.5575,-3.7275000000000005,1.1769375,0.33096875000000003,0.24415625,1.47553125,1.15221875,-0.15790625,-0.34371875,1.42459375,0.02023664612904937,0.024148939857432425,True
2537,201416,2,201415,3927.0,41245.0,30923.0,-6.1e-05,-0.001403,-0.0008539999999999999,0.035,-1.5925000000000002,-3.6050000000000004,1.1769687500000001,0.33221875,0.241375,1.4695625,1.13415625,-0.16584375,-0.3309375,1.4376875,0.020610184570940132,0.02352200773192566,True
2538,201417,2,201416,3927.0,41245.0,30925.0,-0.000549,-0.001037,-0.001098,0.24500000000000002,-1.6975000000000002,-3.6925000000000003,1.1767812500000001,0.32871875,0.24790625,1.464,1.15090625,-0.1574375,-0.33953125,1.4530625,0.020124495820386577,0.024135119693400015,True
2539,201418,2,201417,3930.0,41246.0,30923.0,0.00183,0.000122,-0.0017079999999999999,0.31500000000000006,-1.7500000000000002,-3.6400000000000006,1.18434375,0.33237500000000003,0.2434375,1.47496875,1.1280000000000001,-0.1709375,-0.3385625,1.4236875,0.02082304420339509,0.023912669452027004,True
2540,201419,2,201418,3931.0,41246.0,30925.0,0.000732,-0.000732,6.1e-05,0.28,-1.61,-3.6050000000000004,1.17671875,0.32971875,0.24496875,1.46703125,1.16234375,-0.15765625,-0.33771875,1.45471875,0.02017476343550505,0.0239417467999132,True
2541,201420,2,201419,3931.0,41247.0,30924.0,-0.000915,-0.0017079999999999999,-0.000183,0.22750000000000004,-1.2425000000000002,-3.6400000000000006,1.1841875,0.332,0.24375,1.47696875,1.13003125,-0.1631875,-0.3428125,1.43421875,0.020493467594041557,0.02409592153741479,True
2542,201421,2,201420,3934.0,41245.0,30924.0,-0.000732,0.001952,6.1e-05,0.29750000000000004,-1.2425000000000002,-3.6925000000000003,1.177,0.33237500000000003,0.24078125,1.47290625,1.13378125,-0.17103125,-0.3353125,1.4261875,0.020826842048785158,0.023673160145364892,True
2543,201422,2,201421,3937.0,41246.0,30929.0,-0.000915,0.003477,-0.000305,0.4025,-1.0675000000000001,-3.7450000000000006,1.1770625000000001,0.3285,0.2494375,1.471875,1.15234375,-0.1631875,-0.33646875,1.4356875,0.020348619154654163,0.024075236880864236,True
2544,201423,2,201422,3935.0,41247.0,30928.0,-0.0018909999999999999,0.002257,-0.000305,0.3325,-1.0325000000000002,-3.6050000000000004,1.1768125,0.33153125,0.24084375,1.47015625,1.13384375,-0.1626875,-0.3339375,1.4343125,0.020453798858260284,0.023620560790870774,True
2545,201424,2,201423,3938.0,41247.0,30927.0,-0.000488,-0.001952,0.001769,0.31500000000000006,-0.9450000000000001,-3.5700000000000003,1.1813125,0.33171875,0.24446875,1.46896875,1.1456250000000001,-0.16246875,-0.33846875,1.43428125,0.02045269070446289,0.02395128082985911,True
2546,201425,2,201424,3938.0,41247.0,30926.0,0.0006709999999999999,-0.0021349999999999997,0.0,0.10500000000000001,-0.8750000000000001,-3.6575,1.1838125,0.3368125,0.24303125,1.46340625,1.1479375,-0.1623125,-0.3405625,1.4325625,0.02065717012806618,0.023976181733680147,True
2547,201426,2,201425,3938.0,41245.0,30924.0,-0.00122,-0.001647,0.000793,0.08750000000000001,-0.8925000000000001,-3.5700000000000003,1.1759375,0.33078125,0.243625,1.47371875,1.14778125,-0.16203125000000002,-0.3393125,1.434625,0.020396153572560256,0.02395045053141908,True
2548,201427,2,201426,3935.0,41245.0,30921.0,-0.00183,-0.00061,0.000793,0.21000000000000002,-1.0325000000000002,-3.5875000000000004,1.17703125,0.33025,0.24465625,1.4645000000000001,1.1405,-0.165375,-0.33668750000000003,1.4398125,0.020509716898661823,0.02388754632280996,True
2549,201428,2,201427,3934.0,41242.0,30920.0,-0.001403,0.0,-0.0021349999999999997,0.29750000000000004,-1.2425000000000002,-3.535,1.17628125,0.32953125,0.24471875,1.473625,1.1403125,-0.164625,-0.32953125,1.44046875,0.02044957246388057,0.0236030030377178,True
2550,201429,2,201428,3930.0,41242.0,30917.0,0.0026839999999999998,-0.000183,-0.00042699999999999997,0.14,-1.5575,-3.6575,1.17653125,0.3304375,0.247375,1.4715,1.13978125,-0.1633125,-0.33296875,1.4403125,0.020433870563069532,0.023850100493800205,True
2551,201430,2,201429,3926.0,41239.0,30914.0,0.0021349999999999997,-0.0008539999999999999,-0.0011589999999999999,0.21000000000000002,-1.715,-3.6400000000000006,1.1771562500000001,0.3333125,0.250375,1.4697500000000001,1.1399062500000001,-0.16540625,-0.3364375,1.4332500000000001,0.020637714294581742,0.024112506195699348,True
2552,201431,2,201430,3920.0,41238.0,30909.0,-0.000122,0.000732,-0.000366,0.3325,-1.6450000000000002,-3.6575,1.1849687500000001,0.33275,0.24256250000000001,1.4740625,1.14596875,-0.161875,-0.34071875,1.434375,0.02047130034403373,0.02396318925463119,True
2553,201432,2,201431,3917.0,41236.0,30905.0,0.000549,0.00244,0.0011589999999999999,0.36750000000000005,-1.54,-3.6050000000000004,1.17703125,0.33384375,0.242375,1.47265625,1.14303125,-0.1615,-0.33821875,1.43615625,0.020501365809241976,0.023855227696151757,True
2554,201433,2,201432,3910.0,41234.0,30901.0,0.00061,0.002196,0.0008539999999999999,0.47250000000000003,-1.5225000000000002,-3.6575,1.169,0.32796875000000003,0.24509375,1.48228125,1.1394375,-0.16559375,-0.33675,1.4301875,0.020424182625349317,0.023908030036878386,True
2555,201434,2,201433,3905.0,41234.0,30898.0,-0.001098,-0.000549,-0.0008539999999999999,0.29750000000000004,-1.435,-3.6925000000000003,1.17021875,0.33478125000000003,0.24384375,1.47321875,1.13796875,-0.1634375,-0.33778125000000003,1.43671875,0.020618703361224993,0.02389802891337928,True
2556,201435,2,201434,3899.0,41231.0,30894.0,-0.000305,0.000244,-0.0008539999999999999,0.24500000000000002,-1.4175000000000002,-3.6400000000000006,1.17284375,0.3268125,0.251125,1.4799375000000001,1.1395,-0.16590625,-0.33734375,1.43865625,0.020389003619510442,0.02417966217040428,True
2557,201436,2,201435,3895.0,41230.0,30893.0,0.0013419999999999999,0.0,0.0006709999999999999,0.15750000000000003,-1.5225000000000002,-3.5700000000000003,1.1689375,0.32415625,0.24703125,1.47146875,1.12834375,-0.16253125000000002,-0.33675,1.4404375,0.020142239857423878,0.02398764214613702,True
2558,201437,2,201436,3892.0,41232.0,30891.0,0.001281,-0.000732,0.001098,0.12250000000000001,-1.5050000000000001,-3.3950000000000005,1.19246875,0.3336875,0.23453125,1.47725,1.14678125,-0.16259375,-0.33496875,1.4343125,0.020539237431825796,0.023402536730194073,True
2559,201438,2,201437,3889.0,41227.0,30887.0,0.00122,-0.001464,0.0011589999999999999,0.12250000000000001,-1.3650000000000002,-3.5525,1.17021875,0.32371875,0.24790625,1.46428125,1.13959375,-0.16643750000000002,-0.3363125,1.4339375,0.020282519920447523,0.02400605062907538,True
2560,201439,2,201438,3883.0,41228.0,30884.0,0.0,-0.000183,-0.002623,0.22750000000000004,-1.2075,-3.5175000000000005,1.193875,0.33521875,0.24621875000000001,1.4840312500000001,1.1478125000000001,-0.16246875,-0.33721875,1.43984375,0.02059754345259112,0.02397305567218933,True
2561,201440,2,201439,3881.0,41228.0,30883.0,-0.0021349999999999997,0.000183,-0.00183,0.17500000000000002,-1.1375000000000002,-3.535,1.17984375,0.33078125,0.24375,1.4589375,1.13975,-0.162875,-0.33671875,1.43284375,0.020430360625546422,0.023851561747616448,True
2562,201441,2,201440,3878.0,41224.0,30881.0,-0.0015249999999999999,0.000549,0.0006709999999999999,0.21000000000000002,-1.1025,-3.5525,1.18709375,0.33425,0.24375,1.472875,1.14646875,-0.1619375,-0.3400625,1.436,0.020535915217891776,0.023985661499431234,True
2563,201442,2,201441,3875.0,41227.0,30879.0,-0.0011589999999999999,-0.001098,0.000488,0.1925,-1.1025,-3.5875000000000004,1.17321875,0.334125,0.24506250000000002,1.4695625,1.14059375,-0.16609375,-0.338125,1.43240625,0.020699197610288177,0.023961891065971595,True
2564,201443,2,201442,3875.0,41225.0,30880.0,0.000732,-0.001098,0.00061,0.12250000000000001,-1.0325000000000002,-3.535,1.17471875,0.32896875000000003,0.24521875,1.46921875,1.1434375,-0.1645,-0.3365,1.4405937500000001,0.020421227420389414,0.023903139317486083,True
2565,201444,2,201443,3873.0,41226.0,30878.0,-0.000793,6.1e-05,0.000183,0.2625,-0.9450000000000001,-3.43,1.1799375,0.3321875,0.2434375,1.475625,1.14459375,-0.16209375,-0.33834375,1.423875,0.02045688817840962,0.023903896500763328,True
2566,201445,2,201444,3871.0,41225.0,30879.0,-0.001037,0.001098,0.000793,0.24500000000000002,-0.9975,-3.5175000000000005,1.17625,0.327875,0.24328125,1.4754375,1.139875,-0.164625,-0.3320625,1.439375,0.02038103219065059,0.02364549860908832,True
2567,201446,2,201445,3872.0,41227.0,30880.0,-0.000122,0.000793,-0.000244,0.24500000000000002,-1.12,-3.5875000000000004,1.1711562500000001,0.33137500000000003,0.24471875,1.46446875,1.13975,-0.16668750000000002,-0.337375,1.43984375,0.020609464991840527,0.0239176883291645,True
2568,201447,2,201446,3871.0,41227.0,30880.0,0.001586,0.001647,-0.00042699999999999997,0.15750000000000003,-1.2425000000000002,-3.6575,1.1816875,0.3324375,0.240125,1.4741250000000001,1.140625,-0.1625625,-0.339125,1.43475,0.02048623774899703,0.02379913000159209,True
2569,201448,2,201447,3872.0,41226.0,30879.0,0.00061,0.000976,-0.00122,0.10500000000000001,-1.33,-3.6050000000000004,1.1769687500000001,0.3303125,0.24459375,1.47490625,1.1411875,-0.165375,-0.33796875,1.43946875,0.020512303243794064,0.023936364862001885,True
2570,201449,2,201448,3870.0,41221.0,30879.0,-0.000976,0.000488,0.00183,0.08750000000000001,-1.4175000000000002,-3.5700000000000003,1.17784375,0.32959375,0.24453125,1.47521875,1.13959375,-0.16053125000000001,-0.336875,1.4404375,0.020286184725346223,0.023889930403965177,True
2571,201450,2,201449,3872.0,41223.0,30878.0,-0.000305,-0.0011589999999999999,0.001098,0.14,-1.5225000000000002,-3.6925000000000003,1.1765,0.334125,0.24353125,1.4695,1.13465625,-0.16421875,-0.33634375,1.4405625,0.020623209678566578,0.023827531611029285,True
2572,201451,2,201450,3872.0,41224.0,30880.0,-0.000549,-0.000183,0.0025009999999999998,0.1925,-1.6450000000000002,-3.7800000000000002,1.17940625,0.3305,0.24503125,1.46884375,1.13934375,-0.16640625,-0.33618750000000003,1.44121875,0.020561859502796365,0.023882900721405108,True
2573,201452,2,201451,3873.0,41222.0,30878.0,0.00042699999999999997,0.000244,0.0021349999999999997,0.21000000000000002,-1.6975000000000002,-3.7800000000000002,1.17603125,0.331625,0.24165625000000002,1.4697500000000001,1.12665625,-0.16421875,-0.33715625,1.43284375,0.020519750923046087,0.023783078600237033,True
2574,201453,2,201452,3874.0,41224.0,30879.0,-0.000366,-0.0006709999999999999,-0.0018909999999999999,0.1925,-1.7850000000000001,-3.7800000000000002,1.1841875,0.33225,0.24021875,1.47146875,1.14165625,-0.1565,-0.33759375,1.43521875,0.020232649597416844,0.02374156237199908,True
2575,201454,2,201453,3874.0,41224.0,30879.0,0.000305,0.000793,-0.001281,0.1925,-1.8900000000000001,-3.7800000000000002,1.18396875,0.332125,0.24306250000000001,1.47284375,1.14671875,-0.16234375,-0.33915625,1.435125,0.020464436526361394,0.023921073681426406,True
2576,201455,2,201454,3874.0,41228.0,30880.0,0.002013,-0.000122,0.0008539999999999999,0.07,-1.8200000000000003,-3.7100000000000004,1.175875,0.3303125,0.243125,1.4765625,1.14421875,-0.16196875,-0.33809375,1.43646875,0.020374219298665387,0.023881030123815677,True
2577,201456,2,201455,3876.0,41227.0,30878.0,0.0018909999999999999,-0.0017079999999999999,0.000305,0.052500000000000005,-1.8025000000000002,-3.6050000000000004,1.17621875,0.32903125,0.24375,1.473125,1.13925,-0.162625,-0.336875,1.44028125,0.020347799545786107,0.023857828911887823,True
2578,201457,2,201456,3875.0,41229.0,30878.0,-0.00061,-0.001281,-0.000366,0.1925,-1.6975000000000002,-3.6575,1.1769375,0.33028125,0.2441875,1.47334375,1.13903125,-0.16553125,-0.3365625,1.44171875,0.0205173432717313,0.023863271569269488,True
2579,201458,2,201457,3878.0,41229.0,30876.0,-0.000549,-6.1e-05,-0.000793,0.4025,-1.8025000000000002,-3.7100000000000004,1.1760625,0.32909375,0.24434375,1.47209375,1.12684375,-0.16371875,-0.33609375,1.43821875,0.020394729184637608,0.02385089020295215,True
2580,201459,2,201458,3877.0,41225.0,30877.0,0.002928,0.0023179999999999997,-0.000305,0.385,-1.6275000000000002,-3.6400000000000006,1.17603125,0.33128125,0.24431250000000002,1.4696875,1.13975,-0.1645,-0.3365,1.4416875,0.02051692565540359,0.02386590101288189,True
2581,201460,2,201459,3878.0,41226.0,30874.0,0.001952,-0.000183,0.00042699999999999997,0.28,-1.4175000000000002,-3.6225000000000005,1.1800625,0.3374375,0.24490625,1.46903125,1.14028125,-0.16634375,-0.3349375,1.4375,0.020846399240679513,0.02382762437750251,True
2582,201461,2,201460,3878.0,41228.0,30878.0,-0.0013419999999999999,-0.001037,0.000549,0.21000000000000002,-1.3125000000000002,-3.6925000000000003,1.17953125,0.33175,0.24396875,1.4697500000000001,1.1400625,-0.16234375,-0.33684375,1.43971875,0.020448916508772043,0.023865563914794826,True
2583,201462,2,201461,3877.0,41227.0,30876.0,-0.003843,-0.000732,0.00061,0.17500000000000002,-1.2425000000000002,-3.5525,1.1669375,0.33725,0.24406250000000002,1.47,1.14040625,-0.16603125,-0.33668750000000003,1.4355625,0.020825978614092872,0.023863149000865468,True
2584,201463,2,201462,3878.0,41228.0,30875.0,-0.0021349999999999997,0.00061,-0.000305,0.28,-1.2425000000000002,-3.6575,1.18,0.33328125000000003,0.24396875,1.474,1.14725,-0.1620625,-0.33965625,1.432375,0.020500888531349508,0.02397835836321641,True
2585,201464,2,201463,3880.0,41228.0,30877.0,-0.00061,0.00122,0.000183,0.24500000000000002,-1.2950000000000002,-3.5875000000000004,1.17803125,0.33525,0.24481250000000002,1.4699375000000001,1.1375,-0.16421875,-0.33487500000000003,1.4444375,0.020669766118550804,0.0238212647486375,True
2586,201465,2,201464,3880.0,41228.0,30879.0,-0.001281,-0.001464,0.0015249999999999999,0.15750000000000003,-1.3125000000000002,-3.6050000000000004,1.1896875,0.33184375,0.23565625,1.45784375,1.137375,-0.16378125000000002,-0.339875,1.43246875,0.020511069640642438,0.023645612395297843,True
2587,201466,2,201465,3881.0,41227.0,30875.0,-0.000976,-0.002806,0.0013419999999999999,0.22750000000000004,-1.435,-3.5700000000000003,1.18346875,0.34,0.24446875,1.4946875,1.1478125000000001,-0.1608125,-0.3379375,1.4460625,0.02072829711335246,0.023929975578251033,True
2588,201467,2,201466,3881.0,41229.0,30875.0,0.001464,-0.000976,-0.001647,0.29750000000000004,-1.6275000000000002,-3.6400000000000006,1.16971875,0.3269375,0.24271875,1.46015625,1.1369375,-0.169125,-0.33784375,1.43128125,0.02052463628699839,0.02385431125138191,True
2589,201468,2,201467,3883.0,41230.0,30877.0,0.002928,0.000305,-0.001037,0.3325,-1.7850000000000001,-3.7275000000000005,1.1976875,0.3335,0.24556250000000002,1.4845,1.15021875,-0.161125,-0.3378125,1.4410625000000001,0.020471935805969302,0.023969902800426292,True
2590,201469,2,201468,3884.0,41229.0,30875.0,0.002379,0.0017079999999999999,0.000976,0.36750000000000005,-1.4875,-3.6225000000000005,1.1648125,0.32534375,0.24978125,1.467625,1.13678125,-0.16543750000000002,-0.33453125,1.44053125,0.020309222624254164,0.02401166038486975,True
2591,201470,2,201469,3884.0,41230.0,30875.0,-0.000793,-0.000183,0.002379,0.12250000000000001,-1.435,-3.5525,1.18684375,0.3311875,0.24321875,1.4579375,1.13784375,-0.16028125000000001,-0.3365,1.4235312500000001,0.02034201278182554,0.02382095823146303,True
2592,201471,2,201470,3888.0,41232.0,30877.0,-0.001647,-0.001281,-0.00183,0.1925,-1.2425000000000002,-3.6400000000000006,1.194,0.3355625,0.23575000000000002,1.4649375,1.15071875,-0.16196875,-0.33884375,1.4330625000000001,0.020591502917161913,0.023608095598214276,True
2593,201472,2,201471,3888.0,41231.0,30876.0,-0.002379,-0.000122,0.000366,0.15750000000000003,-1.2425000000000002,-3.5700000000000003,1.1774375,0.3275,0.24871875000000002,1.48896875,1.14540625,-0.16040625,-0.3364375,1.4385937500000001,0.020194455546458368,0.024044449809056897,True
2594,201473,2,201472,3891.0,41232.0,30879.0,0.000305,0.000183,-0.000915,0.17500000000000002,-1.12,-3.4825000000000004,1.16446875,0.3234375,0.25084375000000003,1.48459375,1.1382812500000001,-0.16303125000000002,-0.33575,1.43971875,0.020132769972724347,0.024104198555622902,True
2595,201474,2,201473,3894.0,41235.0,30881.0,-0.002562,-0.00061,0.000305,0.21000000000000002,-0.9800000000000001,-3.4825000000000004,1.16484375,0.32790625,0.24284375,1.4613125,1.1398125000000001,-0.16396875,-0.33615625,1.43571875,0.020355720746410916,0.02379176045929603,True
2596,201475,2,201474,3894.0,41233.0,30879.0,-0.003294,0.000549,0.000488,0.28,-1.12,-3.6050000000000004,1.19446875,0.33484375,0.24409375,1.4585937500000001,1.14603125,-0.1593125,-0.33828125000000003,1.4348750000000001,0.020454069212441372,0.023928353609604214,True
2597,201476,2,201475,3896.0,41234.0,30880.0,-0.000244,0.0017079999999999999,6.1e-05,0.29750000000000004,-1.4175000000000002,-3.6050000000000004,1.1836875,0.33109375,0.24640625,1.4708125,1.1475,-0.16275,-0.3390625,1.4240625,0.020438226195279928,0.024054696026192462,True
2598,201477,2,201476,3897.0,41236.0,30881.0,0.0017079999999999999,0.002257,0.000915,0.2625,-1.5925000000000002,-3.4650000000000003,1.17271875,0.32953125,0.2449375,1.46246875,1.1393125,-0.16521875,-0.33653125,1.44103125,0.020473640446561237,0.02389283600143303,True
2599,201478,2,201477,3900.0,41235.0,30882.0,0.0026839999999999998,0.00042699999999999997,0.00061,0.22750000000000004,-1.7675,-3.4650000000000003,1.18221875,0.33309375,0.24071875,1.4689375,1.13978125,-0.16621875,-0.33896875,1.43509375,0.020661589848432537,0.02381725807507765,True
2600,201479,2,201478,3901.0,41236.0,30881.0,6.1e-05,-0.002257,-0.00042699999999999997,0.08750000000000001,-2.0825,-3.5875000000000004,1.17640625,0.330125,0.244,1.4756562500000001,1.1475312500000001,-0.16196875,-0.3413125,1.43803125,0.02036645916943337,0.02404605339173884,True
2601,201480,2,201479,3902.0,41237.0,30881.0,0.000305,-0.001281,-0.000915,0.12250000000000001,-2.0475000000000003,-3.6050000000000004,1.17946875,0.33328125000000003,0.24290625000000002,1.47065625,1.13959375,-0.16484375,-0.33390625,1.43540625,0.020613623872490383,0.023704065186821378,True
2602,201481,2,201480,3904.0,41237.0,30883.0,-0.000244,-0.000305,-0.000549,0.22750000000000004,-1.9600000000000002,-3.6050000000000004,1.182625,0.33259375,0.2399375,1.4695,1.1420000000000001,-0.16278125000000002,-0.339,1.4288750000000001,0.02050157201998425,0.02378641275319446,True
2603,201482,2,201481,3907.0,41238.0,30882.0,-0.00061,0.00042699999999999997,0.000732,0.1925,-1.8375000000000001,-3.6575,1.17684375,0.33225,0.24421875,1.4749375,1.1471875,-0.1579375,-0.34018750000000003,1.43503125,0.020290949920704116,0.02400993213384244,True
2604,201483,2,201482,3908.0,41240.0,30882.0,-0.001464,-0.0008539999999999999,-0.0006709999999999999,0.21000000000000002,-1.9075000000000002,-3.6225000000000005,1.17584375,0.3300625,0.245125,1.469125,1.14290625,-0.16503125,-0.336125,1.4405937500000001,0.02048802440509983,0.02388424615669093,True
2605,201484,2,201483,3909.0,41240.0,30885.0,-0.0026839999999999998,0.0,0.002989,0.31500000000000006,-1.8200000000000003,-3.7100000000000004,1.18440625,0.33165625,0.24334375,1.47396875,1.13378125,-0.1625625,-0.3345625,1.43309375,0.020453904671741664,0.023748372299686914,True
2606,201485,2,201484,3912.0,41238.0,30883.0,-0.0030499999999999998,0.001647,0.003904,0.28,-1.8725000000000003,-3.6750000000000003,1.16375,0.32871875,0.2449375,1.468625,1.1478125000000001,-0.15965625,-0.33815625,1.4430625000000001,0.020214484632826678,0.023958008322836694,True
2607,201486,2,201485,3913.0,41240.0,30886.0,-0.000366,0.001952,0.00122,0.2625,-2.24,-3.6575,1.18184375,0.3319375,0.2425,1.4740625,1.14003125,-0.16371875,-0.339875,1.4344375,0.020512415954187516,0.023926786805601917,True
2608,201487,2,201486,3915.0,41243.0,30888.0,-6.1e-05,0.002562,-0.000976,0.21000000000000002,-2.7125000000000004,-3.6225000000000005,1.17659375,0.33215625,0.2480625,1.47653125,1.14459375,-0.1620625,-0.34165625,1.4345625,0.02045432793661551,0.024226730668748146,True
2609,201488,2,201487,3918.0,41243.0,30888.0,0.002562,0.002074,-0.003355,0.31500000000000006,-3.1675000000000004,-3.6400000000000006,1.17584375,0.3304375,0.24481250000000002,1.47334375,1.14034375,-0.16428125,-0.3335,1.44178125,0.020473141529918255,0.023766104341751082,True
2610,201489,2,201488,3919.0,41246.0,30889.0,0.009028,-0.0037819999999999998,-0.003538,0.08750000000000001,-3.5525,-3.4125000000000005,1.17640625,0.32821875,0.24456250000000002,1.47596875,1.13134375,-0.16484375,-0.3373125,1.4391875,0.02040412531117649,0.023908761495337664,True
2611,201490,2,201489,3922.0,41247.0,30890.0,0.010309,-0.006527,-0.002074,0.035,-3.08,-3.2550000000000003,1.17709375,0.3314375,0.24171875,1.469125,1.138375,-0.162875,-0.3368125,1.43871875,0.020457520059181698,0.023771857962089325,True
2612,201491,2,201490,3923.0,41246.0,30891.0,0.003294,-0.00671,-0.000366,-0.08750000000000001,-2.415,-3.2375000000000003,1.18371875,0.3325625,0.2449375,1.4744062500000001,1.13975,-0.1625625,-0.33934375,1.43628125,0.020491411041357883,0.024005628746666598,True
2613,201492,2,201491,3923.0,41248.0,30890.0,0.000915,-0.003721,0.0013419999999999999,-0.07,-1.8725000000000003,-3.4125000000000005,1.17378125,0.33159375,0.24125,1.47046875,1.13959375,-0.1596875,-0.336,1.4345937500000001,0.02033475184643841,0.023720003287310984,True
2614,201493,2,201492,3927.0,41250.0,30891.0,-0.00244,0.001586,0.000244,0.35000000000000003,-1.33,-3.535,1.1766875,0.330625,0.24403125,1.47521875,1.14315625,-0.16171875,-0.33790625,1.43490625,0.02037701684612151,0.023910746225345492,True
2615,201494,2,201493,3927.0,41248.0,30893.0,-0.001769,0.004209,0.000305,0.5075000000000001,-1.155,-3.7450000000000006,1.176375,0.32853125,0.2439375,1.468375,1.1401875000000001,-0.163625,-0.3373125,1.44128125,0.020367649721430455,0.02388308076333408,True
2616,201495,2,201494,3931.0,41248.0,30890.0,-0.0035989999999999998,0.003965,0.0,0.49000000000000005,-1.0150000000000001,-3.7275000000000005,1.1847812500000001,0.33271875,0.24125,1.4695625,1.14075,-0.1655,-0.33534375,1.43428125,0.020616943576586458,0.023693675993378974,True
2617,201496,2,201495,3931.0,41249.0,30890.0,-0.006405,0.002928,0.002257,0.43750000000000006,-0.77,-3.7800000000000002,1.17621875,0.3288125,0.2503125,1.4689375,1.1495625,-0.161375,-0.33918750000000003,1.44559375,0.020288063075880408,0.024220200448351038,True
2618,201497,2,201496,3930.0,41249.0,30892.0,-0.00671,0.000244,0.003355,0.31500000000000006,-1.1900000000000002,-3.7450000000000006,1.181375,0.32928125,0.24440625,1.4736562500000001,1.1376875,-0.16121875,-0.3464375,1.43075,0.020301128228475646,0.024268180919693075,True
2619,201498,2,201497,3930.0,41250.0,30889.0,0.00042699999999999997,-0.002013,-6.1e-05,0.12250000000000001,-2.1525000000000003,-3.7625,1.1808125,0.33237500000000003,0.241,1.469375,1.13625,-0.169625,-0.32887500000000003,1.438125,0.02076987127437848,0.023423812239571292,True
2620,201499,2,201498,3929.0,41249.0,30886.0,0.0051849999999999995,-6.1e-05,-0.005978,0.17500000000000002,-2.6250000000000004,-3.9375000000000004,1.17290625,0.32928125,0.24403125,1.46765625,1.14740625,-0.161125,-0.34371875,1.4295625,0.020297326800800878,0.024143805062650913,True
2621,201500,2,201499,3925.0,41248.0,30884.0,0.013725,0.0,0.001281,0.36750000000000005,-1.9600000000000002,-3.9375000000000004,1.17684375,0.33175,0.24103125,1.469625,1.1524375,-0.165,-0.33390625,1.4468750000000001,0.020556590109662737,0.023627012206476304,True
2622,201501,2,201500,3922.0,41247.0,30878.0,0.000183,0.0011589999999999999,-0.001037,0.36750000000000005,-1.3650000000000002,-4.0425,1.175125,0.32821875,0.24431250000000002,1.4694375,1.14615625,-0.1601875,-0.34559375000000003,1.4407812500000001,0.02021533359374798,0.024230513991879952,True
2623,201502,2,201501,3918.0,41246.0,30878.0,0.0018909999999999999,-0.002196,-0.000305,0.22750000000000004,-1.1025,-4.025,1.182625,0.33778125000000003,0.239875,1.47646875,1.13359375,-0.16315625,-0.33271875,1.43059375,0.020731459699102846,0.023531844340246605,True
2624,201503,2,201502,3913.0,41244.0,30871.0,0.004209,-0.002257,-0.001464,0.35000000000000003,-0.1925,-3.7800000000000002,1.16803125,0.3278125,0.24421875,1.4694375,1.1557187500000001,-0.1585,-0.33703125,1.4449375,0.020130078440300517,0.0238833567672721,True
2625,201504,2,201503,3907.0,41245.0,30870.0,-0.003904,0.00244,0.000244,0.5775,0.3325,-4.0425,1.17846875,0.3329375,0.23971875,1.47359375,1.13321875,-0.1718125,-0.3329375,1.4303125,0.02088176052168202,0.023534201326905146,True
2626,201505,2,201504,3901.0,41242.0,30868.0,-0.012139,0.008235,0.001098,0.6475000000000001,0.24500000000000002,-4.3925,1.1767812500000001,0.32934375,0.24465625,1.47353125,1.15521875,-0.15962500000000002,-0.34109375000000003,1.4364375,0.020239086906357198,0.024064243210106365,True
2627,201506,2,201505,3896.0,41241.0,30865.0,-0.015799,0.005063,0.006954,0.43750000000000006,0.035,-4.1475,1.18121875,0.33175,0.2409375,1.4691875,1.1333125,-0.16946875,-0.33384375,1.4455,0.020737681708457082,0.023620651792834825,True
2628,201507,2,201506,3892.0,41239.0,30859.0,-0.013786,-0.0028669999999999998,0.0050019999999999995,0.22750000000000004,-0.8925000000000001,-3.7100000000000004,1.1793125,0.329625,0.24421875,1.47228125,1.1443125,-0.160375,-0.34075,1.43709375,0.020281142159424264,0.02403248667358237,True
2629,201508,2,201507,3887.0,41239.0,30858.0,0.012565999999999999,-0.00183,-0.007137,0.29750000000000004,-2.765,-3.9200000000000004,1.184,0.3329375,0.24390625000000002,1.47521875,1.13646875,-0.16284375,-0.33728125000000003,1.43521875,0.020518331994759515,0.02388054335362542,True
2630,201509,2,201508,3883.0,41237.0,30853.0,0.015006,0.001464,0.000366,0.6125,-2.415,-4.025,1.176375,0.33234375,0.2429375,1.469875,1.14103125,-0.16493750000000001,-0.33625,1.43421875,0.02057862760869959,0.02379937336278186,True
2631,201510,2,201509,3878.0,41237.0,30853.0,0.002074,0.001098,-0.0028669999999999998,0.43750000000000006,-2.555,-4.130000000000001,1.1755625,0.33084375,0.244125,1.475625,1.14640625,-0.16225,-0.337625,1.4380625,0.020407608976813003,0.023903318421579757,True
2632,201511,2,201510,3876.0,41238.0,30851.0,0.0050019999999999995,-0.0013419999999999999,0.0021349999999999997,0.28,-2.31,-4.0600000000000005,1.1761875,0.3318125,0.2415625,1.4676875,1.13925,-0.16515625,-0.3359375,1.43353125,0.02056550948227368,0.023730337078651687,True
2633,201512,2,201511,3873.0,41239.0,30850.0,0.003843,-0.004026,-0.000305,0.29750000000000004,-2.1875,-3.9200000000000004,1.17803125,0.33125,0.244,1.4675,1.1461875,-0.16125,-0.33825,1.4345937500000001,0.020383879145325676,0.02392324838474418,True
2634,201513,2,201512,3870.0,41237.0,30847.0,0.001098,0.000488,-0.001464,0.35000000000000003,-1.7325000000000002,-3.8325000000000005,1.1763125,0.33103125,0.244375,1.4697500000000001,1.13884375,-0.1580625,-0.33690625,1.441125,0.020245570190076296,0.023884763495770955,True
2635,201514,2,201513,3867.0,41237.0,30848.0,-0.0057339999999999995,0.00366,0.001037,0.5075000000000001,-1.2075,-3.8325000000000005,1.18071875,0.33871875,0.24221875,1.47,1.13959375,-0.165,-0.3369375,1.43771875,0.020844972067039107,0.023797416992174962,True
2636,201515,2,201514,3866.0,41237.0,30847.0,-0.008967,0.0034159999999999998,0.0018909999999999999,0.49000000000000005,-0.9450000000000001,-3.7800000000000002,1.17984375,0.3330625,0.24321875,1.47428125,1.1451875,-0.161625,-0.33878125000000003,1.4344375,0.020474098906840908,0.023912454531797894,True
2637,201516,2,201515,3866.0,41238.0,30844.0,-0.0077469999999999995,0.0011589999999999999,0.0021349999999999997,0.47250000000000003,-1.0675000000000001,-3.6750000000000003,1.17653125,0.3308125,0.24365625000000002,1.47690625,1.142375,-0.16171875,-0.33709375,1.4405937500000001,0.02038477705564717,0.02386275066224783,True
2638,201517,2,201516,3864.0,41238.0,30845.0,-0.0044529999999999995,-0.000793,-0.0015249999999999999,0.5950000000000001,-1.4700000000000002,-3.6575,1.17575,0.3285625,0.24603125,1.4748125,1.1398125000000001,-0.16384375,-0.33646875,1.4411562500000001,0.020377811373656147,0.023935272039005247,True
2639,201518,2,201517,3864.0,41234.0,30845.0,0.003294,0.003172,-0.001769,0.7875000000000001,-2.555,-3.7800000000000002,1.173875,0.33046875000000003,0.24525,1.466375,1.1359062500000001,-0.16584375,-0.3363125,1.439875,0.02053776831193821,0.023896903033275893,True
2640,201519,2,201518,3866.0,41234.0,30842.0,0.0044529999999999995,0.001952,-0.001281,0.6125,-3.0275000000000003,-3.8325000000000005,1.18425,0.33278125000000003,0.23940625000000001,1.4666875,1.1399062500000001,-0.163375,-0.33640625,1.43465625,0.02053340023899807,0.02366053944386304,True
2641,201520,2,201519,3864.0,41234.0,30844.0,0.004697,-0.000366,-0.0013419999999999999,0.45500000000000007,-3.0975,-3.7450000000000006,1.1864375,0.33353125,0.24171875,1.4673125,1.141875,-0.1629375,-0.33971875,1.433875,0.02054670505190025,0.02388842311499594,True
2642,201521,2,201520,3865.0,41234.0,30846.0,0.002989,-0.0026839999999999998,0.00042699999999999997,0.42000000000000004,-2.87,-3.7275000000000005,1.16465625,0.32646875000000003,0.2461875,1.4680312500000001,1.14840625,-0.16125,-0.33715625,1.44034375,0.02018598996326763,0.023969265102614445,True
2643,201522,2,201521,3867.0,41232.0,30845.0,0.00244,-0.001464,0.000366,0.385,-2.5025000000000004,-3.6400000000000006,1.186375,0.3335625,0.24281250000000001,1.479,1.1400625,-0.162125,-0.34034375,1.43509375,0.020515062313434765,0.02395842293722742,True
2644,201523,2,201522,3866.0,41233.0,30847.0,-0.0028669999999999998,-0.0013419999999999999,0.000549,0.6125,-1.7500000000000002,-3.6225000000000005,1.17403125,0.3251875,0.24581250000000002,1.46565625,1.13965625,-0.15978125,-0.33096875000000003,1.43978125,0.020073391599934293,0.023705642628799973,True
2645,201524,2,201523,3865.0,41229.0,30846.0,-0.003904,0.000366,0.001647,0.5775,-1.7675,-3.6750000000000003,1.1849687500000001,0.33378125000000003,0.24556250000000002,1.4805,1.1430625,-0.16209375,-0.33696875,1.43490625,0.020522848935639118,0.02393606434655096,True
2646,201525,2,201524,3866.0,41232.0,30846.0,-0.002989,0.0013419999999999999,0.002806,0.5425000000000001,-1.6450000000000002,-3.6225000000000005,1.17346875,0.33221875,0.2424375,1.46815625,1.1396875,-0.1635625,-0.33684375,1.43425,0.02051772167287005,0.02380264490953146,True
2647,201526,2,201525,3867.0,41231.0,30849.0,-0.0023179999999999997,0.000366,0.0017079999999999999,0.43750000000000006,-1.7325000000000002,-3.5700000000000003,1.1750625000000001,0.3299375,0.24556250000000002,1.46690625,1.1439062500000001,-0.16159375,-0.3368125,1.4365625,0.020343494518030292,0.02392979770871802,True
2648,201527,2,201526,3866.0,41233.0,30847.0,0.0008539999999999999,-0.000122,-0.000976,0.47250000000000003,-1.9600000000000002,-3.535,1.1772500000000001,0.33234375,0.243625,1.4733125,1.1425625,-0.162375,-0.33734375,1.4344375,0.020474756724038923,0.02387149378206075,True
2649,201528,2,201527,3868.0,41233.0,30848.0,0.003355,0.0021349999999999997,-0.003477,0.29750000000000004,-2.24,-3.5700000000000003,1.1748125,0.33128125,0.24203125,1.47015625,1.140125,-0.162,-0.3370625,1.4348125,0.020415580249979307,0.023794726664321135,True
2650,201529,2,201528,3868.0,41237.0,30850.0,0.003355,0.000976,-0.001464,0.1925,-2.0300000000000002,-3.5525,1.17690625,0.3296875,0.2421875,1.46965625,1.14365625,-0.1638125,-0.337125,1.434375,0.020423101693906955,0.023803653882699786,True
2651,201530,2,201529,3869.0,41234.0,30849.0,0.003965,-0.001647,-0.0008539999999999999,0.28,-1.9775000000000003,-3.5525,1.1766875,0.33103125,0.24440625,1.4629375,1.146875,-0.16240625,-0.33765625,1.4405625,0.020421703653790688,0.0239161279139194,True
2652,201531,2,201530,3869.0,41235.0,30850.0,0.0023179999999999997,-0.0006709999999999999,-0.000244,0.2625,-1.6625,-3.4650000000000003,1.18059375,0.336625,0.24084375,1.47103125,1.1399062500000001,-0.16965625,-0.33753125,1.43165625,0.020946977679916323,0.023764735792583726,True
2653,201532,2,201531,3872.0,41237.0,30850.0,0.000183,-0.000305,0.001281,0.385,-1.2425000000000002,-3.43,1.17684375,0.32846875000000003,0.24359375,1.472875,1.1315,-0.16053125000000001,-0.33975,1.42446875,0.02023962117968743,0.023966710833102232,True
2654,201533,2,201532,3871.0,41235.0,30850.0,-0.0053679999999999995,-0.0017079999999999999,0.0013419999999999999,0.28,-0.6125,-3.4125000000000005,1.17625,0.330625,0.24415625,1.47571875,1.1593125,-0.1589375,-0.34528125,1.41903125,0.020264239683553963,0.024211570774110486,True
2655,201534,2,201533,3871.0,41235.0,30851.0,-0.0050019999999999995,-0.001403,0.002806,0.28,-0.5425000000000001,-3.22,1.176125,0.33109375,0.2445,1.4656875,1.1596875,-0.15837500000000002,-0.3335625,1.43075,0.0202608308712817,0.0237557694234044,True
2656,201535,2,201534,3873.0,41235.0,30853.0,-0.00366,-0.0013419999999999999,0.0021349999999999997,0.3325,-0.7350000000000001,-3.2025,1.180625,0.332,0.240625,1.4693125,1.136125,-0.16553125,-0.33146875000000003,1.44803125,0.020588467302989664,0.023512503740654788,True
2657,201536,2,201535,3874.0,41237.0,30855.0,-0.0006709999999999999,0.000366,-0.000488,0.3325,-0.8400000000000001,-3.2900000000000005,1.17953125,0.33225,0.242875,1.4645937500000001,1.128625,-0.1756875,-0.3398125,1.42634375,0.021010260825054094,0.023939687292167926,True
2658,201537,2,201536,3874.0,41237.0,30851.0,-0.000976,0.000488,-0.002623,0.45500000000000007,-1.2775,-3.1850000000000005,1.17665625,0.331625,0.243875,1.47646875,1.15825,-0.16009375,-0.341125,1.4251562500000001,0.020352518292690813,0.024033400263956572,True
2659,201538,2,201537,3878.0,41237.0,30854.0,0.0037819999999999998,0.002623,0.001586,0.4025,-1.8025000000000002,-3.4650000000000003,1.1761875,0.3293125,0.24381250000000002,1.4760625,1.16196875,-0.1551875,-0.34678125,1.4285625,0.020057803318645324,0.024257569981658254,True
2660,201539,2,201538,3877.0,41239.0,30854.0,0.005124,0.0018909999999999999,0.00042699999999999997,0.36750000000000005,-1.8375000000000001,-3.43,1.1761875,0.33115625,0.24390625000000002,1.468875,1.1419062500000001,-0.16475,-0.33434375,1.45175,0.02052188621856216,0.023762711907938758,True
2661,201540,2,201539,3877.0,41239.0,30855.0,0.002806,0.000976,0.001403,0.4025,-1.7500000000000002,-3.4650000000000003,1.1823125,0.33134375,0.2410625,1.4695,1.12778125,-0.1730625,-0.3313125,1.4503125000000001,0.02086646034196122,0.02352421391160054,True
2662,201541,2,201540,3878.0,41240.0,30856.0,0.001037,0.000366,-0.000549,0.36750000000000005,-1.5750000000000002,-3.5175000000000005,1.1830625000000001,0.33178125,0.24140625000000002,1.46265625,1.12753125,-0.17003125,-0.3306875,1.4335,0.020761764633630747,0.023513258719055928,True
2663,201542,2,201541,3880.0,41241.0,30858.0,0.0,0.000305,-0.001586,0.35000000000000003,-1.3125000000000002,-3.5175000000000005,1.1828750000000001,0.33228125000000003,0.24328125,1.465375,1.1346875,-0.16159375,-0.3351875,1.431375,0.02044049763894404,0.023770877047896183,True
2664,201543,2,201542,3881.0,41242.0,30860.0,-0.0028669999999999998,-0.0006709999999999999,0.00183,0.22750000000000004,-0.7000000000000001,-3.4650000000000003,1.17659375,0.3305625,0.2441875,1.47396875,1.1389375,-0.162875,-0.3375,1.4365,0.02042130748100133,0.023900873138161277,True
2665,201544,2,201543,3883.0,41241.0,30860.0,-0.003172,-0.003477,0.002379,0.17500000000000002,-0.6300000000000001,-3.3775000000000004,1.17821875,0.33090625,0.2420625,1.4703125000000001,1.13234375,-0.16625,-0.33853125,1.4347812500000001,0.020572337454094036,0.023854921401635525,True
2666,201545,2,201544,3885.0,41242.0,30862.0,-0.002745,-0.003355,-0.000915,0.14,-0.6475000000000001,-3.3075,1.180625,0.3364375,0.24690625,1.4724375,1.14853125,-0.16325,-0.339625,1.43309375,0.020679647812276908,0.024097793207578173,True
2667,201546,2,201545,3886.0,41245.0,30861.0,-0.004026,-0.001281,-0.00244,0.1925,-0.9625000000000001,-3.325,1.17615625,0.33190625,0.244375,1.473125,1.13953125,-0.165375,-0.33678125000000003,1.4401875,0.02057825504466618,0.023879749915572752,True
2668,201547,2,201546,3889.0,41247.0,30864.0,-0.0023179999999999997,0.000488,-6.1e-05,0.3325,-1.4525000000000001,-3.3950000000000005,1.17615625,0.33121875,0.24221875,1.46921875,1.1400937500000001,-0.16565625,-0.33575,1.43990625,0.020561204498636364,0.023749781699762697,True
2669,201548,2,201547,3892.0,41244.0,30865.0,0.0028669999999999998,-0.000183,0.0008539999999999999,0.28,-2.0125,-3.325,1.1808125,0.33137500000000003,0.24225,1.4695,1.14165625,-0.16253125000000002,-0.33928125000000003,1.434125,0.020440997877654066,0.02389270430900666,True
2670,201549,2,201548,3894.0,41245.0,30864.0,0.003111,-0.00061,0.001281,0.28,-2.24,-3.4475000000000002,1.1738125,0.33621875,0.24378125,1.4697500000000001,1.1439375,-0.16340625,-0.33665625,1.43809375,0.020676927533757786,0.0238503389305998,True
2671,201550,2,201549,3895.0,41246.0,30865.0,0.0032329999999999998,0.0026839999999999998,-0.00183,0.47250000000000003,-2.3975000000000004,-3.5175000000000005,1.18040625,0.3320625,0.24284375,1.476625,1.13884375,-0.16365625,-0.33996875,1.4305625,0.02051505553924605,0.023944669197654575,True
2672,201551,2,201550,3897.0,41247.0,30866.0,0.0046359999999999995,0.003477,-0.001647,0.42000000000000004,-2.3275,-3.6050000000000004,1.176625,0.32846875000000003,0.24581250000000002,1.46709375,1.139125,-0.165875,-0.33671875,1.43475,0.020456273567582388,0.023936310230811213,True
2673,201552,2,201551,3899.0,41250.0,30868.0,0.000732,6.1e-05,0.002196,0.43750000000000006,-1.9250000000000003,-3.4825000000000004,1.19346875,0.3336875,0.24406250000000002,1.4738437500000001,1.1473125,-0.1625625,-0.33790625,1.441125,0.020537970672605606,0.02391203023062019,True
2674,201553,2,201552,3902.0,41248.0,30869.0,-6.1e-05,-0.002623,-0.000488,0.17500000000000002,-1.2775,-3.5175000000000005,1.1701875,0.328125,0.24625,1.48053125,1.13959375,-0.16384375,-0.3364375,1.4405000000000001,0.020359705810463206,0.02394300727047663,True
2675,201554,2,201553,3906.0,41249.0,30870.0,-0.003904,-0.003111,-0.000488,0.15750000000000003,-0.9800000000000001,-3.5175000000000005,1.17159375,0.3313125,0.2405625,1.46315625,1.1343125,-0.1640625,-0.32875,1.43403125,0.020500484966052376,0.023400811796742537,True
2676,201555,2,201554,3905.0,41250.0,30871.0,-0.002745,-0.000366,-0.0011589999999999999,0.1925,-0.9625000000000001,-3.5000000000000004,1.18759375,0.33540625,0.24178125,1.47271875,1.1480625,-0.16240625,-0.34053125,1.42784375,0.020602770057307516,0.023923573977047027,True
2677,201556,2,201555,3908.0,41250.0,30872.0,-0.002013,0.00122,0.000488,0.21000000000000002,-0.9625000000000001,-3.4650000000000003,1.1695625,0.32565625,0.246875,1.48259375,1.139375,-0.16559375,-0.33618750000000003,1.43965625,0.020328488721697558,0.02395866238292255,True
2678,201557,2,201556,3911.0,41253.0,30872.0,-0.002013,-0.002379,-0.001037,0.24500000000000002,-1.33,-3.4825000000000004,1.1816875,0.3325,0.246875,1.46378125,1.13984375,-0.16334375,-0.339375,1.42740625,0.02052049398171559,0.024086485376062446,True
2679,201558,2,201557,3911.0,41253.0,30873.0,-0.001281,-0.000732,-0.000976,0.28,-1.5575,-3.6400000000000006,1.19265625,0.3353125,0.24153125,1.4713125,1.14734375,-0.16234375,-0.33875,1.4345625,0.0205963566758709,0.02384186739253248,True
2680,201559,2,201558,3915.0,41254.0,30875.0,0.000549,0.002074,-0.000183,0.45500000000000007,-1.7325000000000002,-3.6225000000000005,1.16540625,0.33025,0.2431875,1.46740625,1.14025,-0.16559375,-0.337875,1.4345937500000001,0.020518583368140914,0.023874824733054963,True
2681,201560,2,201559,3917.0,41253.0,30874.0,0.001647,0.002989,-0.000366,0.43750000000000006,-1.995,-3.6925000000000003,1.186,0.33215625,0.24390625000000002,1.4644375,1.14659375,-0.1619375,-0.339625,1.43521875,0.020449260329392045,0.023974537405568083,True
2682,201561,2,201560,3922.0,41257.0,30876.0,0.001281,0.0013419999999999999,0.002013,0.43750000000000006,-1.995,-3.6750000000000003,1.18071875,0.32978125,0.24396875,1.46709375,1.14278125,-0.161375,-0.3365625,1.43465625,0.02032815806219638,0.023854283036069696,True
2683,201562,2,201561,3922.0,41257.0,30876.0,0.0008539999999999999,-6.1e-05,-0.001769,0.36750000000000005,-1.9775000000000003,-3.5875000000000004,1.17990625,0.33234375,0.24103125,1.4645937500000001,1.142625,-0.16278125000000002,-0.33971875,1.435,0.020491225528932025,0.02386017710249836,True
2684,201563,2,201562,3925.0,41258.0,30878.0,0.000976,0.001464,-0.000366,0.45500000000000007,-1.9600000000000002,-3.5000000000000004,1.18,0.33321875,0.24431250000000002,1.4709375,1.13834375,-0.162,-0.33928125000000003,1.42946875,0.020495768148332094,0.02397744386967056,True
2685,201564,2,201563,3926.0,41261.0,30882.0,0.0017079999999999999,0.001403,0.000793,0.35000000000000003,-1.8025000000000002,-3.4650000000000003,1.18390625,0.3315,0.2426875,1.4691875,1.1461875,-0.161625,-0.339625,1.4346875000000001,0.02040943024320591,0.023924464736001478,True
2686,201565,2,201564,3928.0,41261.0,30883.0,0.000915,-0.0011589999999999999,0.0015249999999999999,0.1925,-1.6800000000000002,-3.5700000000000003,1.1841875,0.330625,0.24259375,1.46903125,1.1426875,-0.165125,-0.33653125,1.439125,0.02051510182546128,0.023796530164914113,True
2687,201566,2,201565,3931.0,41262.0,30884.0,-6.1e-05,-0.0040869999999999995,-0.0006709999999999999,0.08750000000000001,-1.6800000000000002,-3.4825000000000004,1.1835625,0.3319375,0.2415,1.4697500000000001,1.140375,-0.1635,-0.33403125,1.437,0.020503548740869494,0.023651290823422447,True
2688,201567,2,201566,3933.0,41264.0,30888.0,-0.001281,0.0,-0.000915,0.17500000000000002,-1.5575,-3.5000000000000004,1.17475,0.3326875,0.23959375,1.4697500000000001,1.14253125,-0.16203125000000002,-0.33871875,1.4351875,0.020475048015675422,0.02376100837271888,True
2689,201568,2,201567,3935.0,41265.0,30890.0,-0.000183,0.0021349999999999997,0.001281,0.42000000000000004,-1.6625,-3.4650000000000003,1.1773437500000001,0.3323125,0.2439375,1.47678125,1.14546875,-0.161875,-0.33975,1.4349687500000001,0.02045319330556921,0.023980833821218378,True
2690,201569,2,201568,3937.0,41267.0,30891.0,0.00061,0.001464,0.000488,0.4025,-1.6275000000000002,-3.4475000000000002,1.1775,0.3325,0.24275,1.47178125,1.1460625,-0.16165625,-0.33740625,1.43490625,0.02045208510902476,0.023838047655550806,True
2691,201570,2,201569,3940.0,41265.0,30893.0,0.000244,-0.000244,-0.001098,0.29750000000000004,-1.5575,-3.3775000000000004,1.17590625,0.33121875,0.2441875,1.4755625,1.14740625,-0.1588125,-0.33790625,1.43403125,0.020283747390315646,0.023917166251718965,True
2692,201571,2,201570,3941.0,41268.0,30895.0,0.0028669999999999998,-0.002196,-0.00122,0.4025,-1.4175000000000002,-3.3425000000000002,1.17628125,0.32875,0.24440625,1.474875,1.13775,-0.1616875,-0.3343125,1.4346875000000001,0.020298147635590437,0.02378200534738756,True
2693,201572,2,201571,3945.0,41271.0,30894.0,0.000549,0.0021349999999999997,-0.000366,0.525,-0.9625000000000001,-3.4475000000000002,1.175125,0.3286875,0.24303125,1.47653125,1.14653125,-0.16178125000000002,-0.34003125,1.43490625,0.020299362241763527,0.02395487885825948,True
2694,201573,2,201572,3946.0,41272.0,30894.0,-0.001403,0.0026839999999999998,0.00061,0.5425000000000001,-0.7000000000000001,-3.5000000000000004,1.1765,0.32984375,0.24581250000000002,1.4739375000000001,1.14078125,-0.15646875,-0.33753125,1.4408125,0.02013177112238311,0.023968895776969985,True
2695,201574,2,201573,3950.0,41272.0,30897.0,-0.002379,0.0021349999999999997,-0.000488,0.5425000000000001,-0.45500000000000007,-3.4825000000000004,1.17640625,0.32859375,0.24434375,1.47571875,1.13940625,-0.16434375,-0.33771875,1.44075,0.02039937459505806,0.02391606649657746,True
2696,201575,2,201574,3952.0,41273.0,30901.0,-0.004575,-0.000793,-0.001586,0.47250000000000003,-0.36750000000000005,-3.4650000000000003,1.1804375,0.33128125,0.2411875,1.4696875,1.13925,-0.165125,-0.33553125,1.434125,0.020542258730298316,0.023698629961078,True
2697,201576,2,201575,3953.0,41274.0,30901.0,-0.004026,-0.00183,0.001403,0.5425000000000001,-0.6300000000000001,-3.3775000000000004,1.18378125,0.3321875,0.242375,1.4758125,1.1455625,-0.160375,-0.33996875,1.43490625,0.020387204254900846,0.023925410750578715,True
2698,201577,2,201576,3956.0,41274.0,30901.0,-0.001769,-0.000183,0.001647,0.43750000000000006,-1.1375000000000002,-3.43,1.17575,0.33187500000000003,0.2405625,1.4699375000000001,1.13975,-0.1593125,-0.33640625,1.43428125,0.02033118699052384,0.02370805056724429,True
2699,201578,2,201577,3956.0,41275.0,30900.0,0.000366,-0.001403,0.001952,0.385,-1.33,-3.4825000000000004,1.17653125,0.32925,0.244625,1.471375,1.1464375,-0.16128125000000001,-0.3359375,1.4384375,0.02030236910552912,0.023856179775280897,True
2700,201579,2,201578,3958.0,41271.0,30901.0,0.001586,-0.0018909999999999999,-0.000122,0.49000000000000005,-1.5750000000000002,-3.3600000000000003,1.1803125,0.3323125,0.24725,1.468875,1.1397187500000001,-0.16234375,-0.3409375,1.43996875,0.020472196535156074,0.024164537623088674,True
2701,201580,2,201579,3958.0,41272.0,30898.0,0.002806,-0.000122,-0.006039,0.45500000000000007,-1.7850000000000001,-3.5875000000000004,1.17984375,0.3325625,0.24415625,1.46959375,1.13996875,-0.16221875,-0.33853125,1.44225,0.02047747581128078,0.023940947545879544,True
2702,201581,2,201580,3956.0,41271.0,30896.0,0.0028669999999999998,0.0008539999999999999,-0.0068319999999999995,0.6300000000000001,-1.7325000000000002,-3.6050000000000004,1.17853125,0.330625,0.24415625,1.46915625,1.140125,-0.1618125,-0.3375,1.441875,0.020380817871175846,0.02389958911145352,True
2703,201582,2,201581,3951.0,41270.0,30893.0,0.002928,0.001037,0.006161,0.56,-1.2775,-3.5175000000000005,1.17909375,0.3306875,0.24471875,1.47271875,1.14078125,-0.1618125,-0.34153125,1.444,0.020383404597647634,0.024084351718834454,True
2704,201583,2,201582,3948.0,41268.0,30891.0,0.001403,-0.0018909999999999999,0.004392,0.35000000000000003,-0.9800000000000001,-3.6225000000000005,1.181375,0.33240625,0.24715625,1.4720625,1.1379375,-0.162625,-0.33537500000000003,1.4419375,0.02048747807823033,0.02393763194526487,True
2705,201584,2,201583,3944.0,41267.0,30887.0,-0.002379,-0.001769,0.0,0.31500000000000006,-0.805,-3.5525,1.1865937500000001,0.33265625,0.24409375,1.4725625,1.13659375,-0.16059375,-0.3364375,1.44325,0.02041547509568137,0.023854405559564747,True
2706,201585,2,201584,3939.0,41267.0,30882.0,-0.005612,0.0028669999999999998,-0.002745,0.45500000000000007,-0.7175,-3.6050000000000004,1.1894375,0.337375,0.2420625,1.4860312500000001,1.13721875,-0.16221875,-0.3399375,1.4369375,0.020676650400741858,0.023911318589047322,True
2707,201586,2,201585,3933.0,41262.0,30880.0,-0.004026,0.004514,-0.001403,0.5950000000000001,-0.8575,-3.5525,1.172,0.3284375,0.24025,1.46,1.13603125,-0.16871875,-0.33453125,1.43259375,0.020570236061851644,0.023619984461381395,True
2708,201587,2,201586,3929.0,41262.0,30879.0,0.0,-0.002257,0.003477,0.035,-1.3475000000000001,-3.535,1.1694375000000001,0.32203125,0.24934375,1.45965625,1.15103125,-0.16578125,-0.325125,1.43246875,0.020186084403954457,0.023616271242182723,True
2709,201588,2,201587,3924.0,41261.0,30876.0,0.000915,-0.004148,-0.000366,0.24500000000000002,-1.4525000000000001,-3.5700000000000003,1.18178125,0.32634375,0.24890625,1.48228125,1.14975,-0.16115625,-0.3358125,1.4429687500000001,0.020177014500289074,0.024027089705757718,True
2710,201589,2,201588,3920.0,41262.0,30876.0,-0.000244,-0.0018909999999999999,-0.004209,0.29750000000000004,-1.6975000000000002,-3.5875000000000004,1.18634375,0.33584375,0.24084375,1.48778125,1.13675,-0.162125,-0.340125,1.441625,0.02060947660853505,0.023868766080700078,True
2711,201590,2,201589,3916.0,41259.0,30873.0,0.001647,0.003172,-0.002562,0.35000000000000003,-1.6975000000000002,-3.6225000000000005,1.15646875,0.33275,0.23946875,1.47859375,1.1369375,-0.1655,-0.34018750000000003,1.43321875,0.020618236742463426,0.02381478162401173,True
2712,201591,2,201590,3912.0,41262.0,30873.0,0.0018909999999999999,0.0023179999999999997,0.000244,0.4025,-1.7675,-3.5525,1.1644375,0.31740625,0.24653125,1.4541250000000001,1.1340937500000001,-0.1675,-0.33265625,1.43240625,0.020064394331229956,0.023802888350917296,True
2713,201592,2,201591,3909.0,41260.0,30872.0,-0.000122,-0.004758,0.001037,0.24500000000000002,-1.4525000000000001,-3.5175000000000005,1.18703125,0.32875,0.25328125,1.4691875,1.1456250000000001,-0.1608125,-0.336375,1.4392500000000001,0.020262667077110923,0.024229419952642904,True
2714,201593,2,201592,3904.0,41259.0,30871.0,-0.0015249999999999999,-0.000793,-0.0006709999999999999,0.31500000000000006,-1.3475000000000001,-3.6575,1.191625,0.33571875,0.2479375,1.48625,1.1453125,-0.162375,-0.33859375,1.43471875,0.020614436701690126,0.024098814254623895,True
2715,201594,2,201593,3904.0,41260.0,30870.0,-0.002928,0.0021349999999999997,-0.000976,0.45500000000000007,-1.3825,-3.7100000000000004,1.190375,0.33540625,0.24475,1.4798125,1.13478125,-0.1625625,-0.341125,1.4383125,0.020609103442567403,0.024069347657513774,True
2716,201595,2,201594,3900.0,41257.0,30868.0,-0.0025009999999999998,0.003294,0.001769,0.5950000000000001,-1.5225000000000002,-3.7275000000000005,1.165875,0.32928125,0.24231250000000001,1.46696875,1.1399062500000001,-0.16621875,-0.33134375,1.4340625,0.020503828303714253,0.023576842113374852,True
2717,201596,2,201595,3899.0,41259.0,30866.0,0.00061,0.00183,0.002074,0.43750000000000006,-1.6975000000000002,-3.6575,1.16796875,0.32640625,0.24465625,1.46946875,1.145875,-0.1635,-0.33671875,1.44109375,0.02027463943551224,0.023888799717505054,True
2718,201597,2,201596,3898.0,41258.0,30866.0,0.0013419999999999999,-0.001281,-0.001586,0.2625,-2.0825,-3.5875000000000004,1.17434375,0.328625,0.24340625000000002,1.4715,1.146625,-0.162625,-0.34018750000000003,1.435875,0.020330986389103006,0.023976551125581922,True
2719,201598,2,201597,3896.0,41257.0,30865.0,-0.000366,-6.1e-05,-0.0030499999999999998,0.45500000000000007,-2.1700000000000004,-3.7450000000000006,1.1746875,0.3323125,0.24546875,1.4660625,1.1404375,-0.1626875,-0.33940625,1.4348750000000001,0.020486131768248046,0.024029961700483143,True
2720,201599,2,201598,3896.0,41256.0,30864.0,0.001464,0.0026839999999999998,-0.000183,0.49000000000000005,-2.1525000000000003,-3.8150000000000004,1.17578125,0.33084375,0.2424375,1.46884375,1.1395,-0.16384375,-0.33734375,1.43790625,0.0204722189531622,0.02382270045390636,True
2721,201600,2,201599,3896.0,41257.0,30866.0,0.002562,0.001037,0.001281,0.28,-2.0300000000000002,-3.6925000000000003,1.17378125,0.33178125,0.241875,1.473375,1.14290625,-0.155125,-0.338125,1.43403125,0.020157471758063764,0.02383092370509232,True
2722,201601,2,201600,3895.0,41257.0,30866.0,0.001586,-0.002013,-0.001464,0.15750000000000003,-2.1,-3.5000000000000004,1.175875,0.32784375,0.24484375,1.46915625,1.14634375,-0.1629375,-0.3369375,1.4415625,0.02031132390256772,0.023905277728555618,True
2723,201602,2,201601,3896.0,41261.0,30867.0,0.000488,-0.001647,0.000915,0.31500000000000006,-1.54,-3.6050000000000004,1.18228125,0.33665625,0.243125,1.4757500000000001,1.13225,-0.1624375,-0.33996875,1.4345625,0.02065576993215192,0.023956224265900092,True
2724,201603,2,201602,3895.0,41259.0,30868.0,-0.003172,0.000732,0.002745,0.35000000000000003,-1.33,-3.5525,1.1760625,0.3303125,0.24328125,1.4690625,1.14040625,-0.164625,-0.337125,1.44053125,0.02048190278144188,0.023848595509946224,True
2725,201604,2,201603,3897.0,41262.0,30868.0,-0.005124,0.000366,0.001952,0.29750000000000004,-1.225,-3.6750000000000003,1.1809375,0.33159375,0.241125,1.4685625,1.13928125,-0.1638125,-0.33990625,1.434625,0.020501990321270706,0.023871548395959827,True
2726,201605,2,201604,3897.0,41263.0,30868.0,-0.004514,0.0008539999999999999,0.000488,0.2625,-1.435,-3.6925000000000003,1.17521875,0.33171875,0.2436875,1.4757500000000001,1.148625,-0.16203125000000002,-0.3395625,1.43509375,0.020434954118354602,0.023963043707133192,True
2727,201606,2,201605,3898.0,41261.0,30870.0,-0.002257,-0.000976,-0.0006709999999999999,0.35000000000000003,-1.8200000000000003,-3.6925000000000003,1.17625,0.3310625,0.24275,1.473625,1.1439062500000001,-0.16409375,-0.33696875,1.43371875,0.02049140576604492,0.023820499420249285,True
2728,201607,2,201606,3900.0,41263.0,30868.0,0.003477,0.0,-0.0008539999999999999,0.4025,-2.5025000000000004,-3.8325000000000005,1.17578125,0.33146875000000003,0.24078125,1.47590625,1.1463125,-0.1638125,-0.33653125,1.43475,0.02049681729652554,0.023722053651339486,True
2729,201608,2,201607,3901.0,41264.0,30869.0,0.003477,-0.000122,-0.00061,0.35000000000000003,-2.5200000000000005,-3.7975000000000003,1.17665625,0.33209375,0.24278125,1.4738125,1.1400937500000001,-0.165,-0.33784375,1.43253125,0.02057081522863646,0.023856879268525994,True
2730,201609,2,201608,3902.0,41262.0,30870.0,0.0023179999999999997,-0.000183,-0.0021349999999999997,0.4025,-2.5375,-3.8150000000000004,1.17503125,0.3284375,0.244625,1.46965625,1.13925,-0.16315625,-0.33671875,1.439625,0.02034476559741652,0.023887515649577865,True
2731,201610,2,201609,3904.0,41264.0,30870.0,0.0028669999999999998,0.0018909999999999999,-0.000793,0.525,-2.3800000000000003,-3.8150000000000004,1.17628125,0.3304375,0.24506250000000002,1.474,1.1455625,-0.16384375,-0.3358125,1.43396875,0.02045540664448304,0.023869143469115735,True
2732,201611,2,201610,3905.0,41261.0,30870.0,0.002257,0.002257,-0.00042699999999999997,0.35000000000000003,-2.1700000000000004,-3.6925000000000003,1.1763125,0.33171875,0.24528125,1.4755625,1.13290625,-0.16559375,-0.3364375,1.4353125,0.020579361928568383,0.023903200704704627,True
2733,201612,2,201611,3904.0,41265.0,30869.0,-0.0008539999999999999,-0.0021349999999999997,0.0017079999999999999,0.3325,-1.7675,-3.5875000000000004,1.16884375,0.3306875,0.24178125,1.46990625,1.141875,-0.16228125000000002,-0.33659375,1.434375,0.020402409230295675,0.023765651263336723,True
2734,201613,2,201612,3907.0,41264.0,30872.0,-0.0006709999999999999,-0.0013419999999999999,-0.001281,0.1925,-1.6625,-3.6750000000000003,1.17628125,0.32937500000000003,0.24428125,1.47028125,1.14490625,-0.1614375,-0.3364375,1.43759375,0.020313878261589362,0.02386211005616578,True
2735,201614,2,201613,3908.0,41263.0,30871.0,-0.0011589999999999999,-0.000732,-0.000183,0.28,-1.5750000000000002,-3.6225000000000005,1.16709375,0.33034375,0.242875,1.47284375,1.1420625,-0.1634375,-0.33690625,1.43540625,0.02043505813276774,0.023823128710125187,True
2736,201615,2,201614,3909.0,41265.0,30872.0,-0.002623,0.0008539999999999999,0.0006709999999999999,0.22750000000000004,-1.5050000000000001,-3.7275000000000005,1.18246875,0.32840625,0.24009375,1.47178125,1.1404375,-0.16209375,-0.33703125,1.43321875,0.020300393048512198,0.02371386197731081,True
2737,201616,2,201615,3911.0,41267.0,30874.0,-0.002379,0.00244,0.001281,0.3325,-1.4875,-3.6750000000000003,1.1761875,0.3316875,0.24071875,1.47528125,1.1530625,-0.16809375000000001,-0.335,1.41978125,0.02067938229509723,0.02365805424286008,True
2738,201617,2,201616,3912.0,41264.0,30874.0,-0.0006709999999999999,0.000366,0.001281,0.385,-1.7675,-3.6400000000000006,1.17628125,0.334625,0.243375,1.47659375,1.158625,-0.167375,-0.333,1.42003125,0.020771804964337254,0.023686968314634453,True
2739,201618,2,201617,3914.0,41266.0,30874.0,0.000488,-0.000732,-0.000183,0.29750000000000004,-1.9250000000000003,-3.7100000000000004,1.18153125,0.33225,0.24340625000000002,1.46878125,1.14084375,-0.168875,-0.33587500000000003,1.42928125,0.020734312209401556,0.023803592432982173,True
2740,201619,2,201618,3916.0,41267.0,30874.0,0.002623,-0.000488,0.000488,0.31500000000000006,-2.0650000000000004,-3.6400000000000006,1.18265625,0.33178125,0.243375,1.47096875,1.12790625,-0.1713125,-0.34075,1.43003125,0.020813671164939845,0.023997822581473455,True
2741,201620,2,201619,3916.0,41269.0,30875.0,0.002745,0.0006709999999999999,0.0008539999999999999,0.31500000000000006,-2.2225,-3.6750000000000003,1.18196875,0.332125,0.2446875,1.469,1.1335625,-0.1650625,-0.34315625,1.4361875,0.020574641592588472,0.024148214141294845,True
2742,201621,2,201620,3918.0,41269.0,30875.0,0.00042699999999999997,0.00122,-0.003477,0.42000000000000004,-2.0825,-3.6925000000000003,1.1812500000000001,0.3324375,0.24375,1.4694375,1.13278125,-0.16571875,-0.34321875,1.43340625,0.020614170642038115,0.024112207840222447,True
2743,201622,2,201621,3920.0,41267.0,30876.0,-0.000305,-0.000305,0.000732,0.3325,-1.8725000000000003,-3.5875000000000004,1.18134375,0.33196875000000003,0.24759375,1.476,1.13278125,-0.1724375,-0.33978125000000003,1.4295625,0.02086699986296376,0.024132303982805924,True
2744,201623,2,201622,3921.0,41269.0,30878.0,0.000549,-0.000488,0.003172,0.35000000000000003,-1.9250000000000003,-3.6575,1.17978125,0.3320625,0.24390625000000002,1.4660312500000001,1.13334375,-0.17034375000000002,-0.33921875,1.4365937500000001,0.020786061431170167,0.023958246400164345,True
2745,201624,2,201623,3923.0,41272.0,30879.0,0.0008539999999999999,-0.002928,0.00244,0.29750000000000004,-1.9250000000000003,-3.5700000000000003,1.18421875,0.332,0.2435,1.472625,1.1335625,-0.16803125,-0.34218750000000003,1.42990625,0.020689780016731815,0.024060594389883817,True
2746,201625,2,201624,3926.0,41272.0,30879.0,-0.000793,-0.00183,0.000122,0.3325,-1.9250000000000003,-3.535,1.1835625,0.3321875,0.24281250000000001,1.47665625,1.13328125,-0.16953125,-0.33625,1.42921875,0.020758315285903613,0.023794236992141355,True
2747,201626,2,201625,3928.0,41274.0,30883.0,-0.0017079999999999999,0.002623,-0.0015249999999999999,0.5775,-1.6800000000000002,-3.5875000000000004,1.17659375,0.33096875000000003,0.2429375,1.47046875,1.1393125,-0.16490625,-0.3341875,1.43159375,0.020520460326635865,0.023716633234621046,True
2748,201627,2,201626,3929.0,41272.0,30882.0,0.00042699999999999997,0.0008539999999999999,0.001098,0.43750000000000006,-1.7500000000000002,-3.6400000000000006,1.17665625,0.3279375,0.244625,1.4696875,1.1437187500000001,-0.16125,-0.33753125,1.4420625,0.020246779450566507,0.023920102824726727,True
2749,201628,2,201627,3931.0,41275.0,30883.0,0.000915,-0.000732,0.0025009999999999998,0.22750000000000004,-1.7500000000000002,-3.6225000000000005,1.18346875,0.33184375,0.24415625,1.46990625,1.13946875,-0.162,-0.3415625,1.4391875,0.0204388606075656,0.02406249598808622,True
2750,201629,2,201628,3933.0,41273.0,30885.0,0.0,-0.001586,0.00061,0.21000000000000002,-1.8375000000000001,-3.6400000000000006,1.17834375,0.33190625,0.24421875,1.47434375,1.13940625,-0.167,-0.33825,1.4351562500000001,0.020644111805354408,0.023932236294721274,True
2751,201630,2,201629,3936.0,41275.0,30884.0,-0.0006709999999999999,-0.0013419999999999999,-0.002074,0.36750000000000005,-1.8900000000000001,-3.6225000000000005,1.17596875,0.33015625,0.2441875,1.4698125,1.1453125,-0.16190625,-0.33746875,1.44175,0.020365218493470477,0.023899619799203645,True
2752,201631,2,201630,3938.0,41277.0,30884.0,0.000366,0.001647,0.0018909999999999999,0.35000000000000003,-1.9600000000000002,-3.6750000000000003,1.18253125,0.33478125000000003,0.243,1.475125,1.139,-0.16278125000000002,-0.33803125,1.4349687500000001,0.02059210381669122,0.02387338745815769,True
2753,201632,2,201631,3941.0,41279.0,30887.0,0.000488,-0.0017079999999999999,0.000366,0.28,-1.995,-3.7450000000000006,1.1756875,0.330125,0.24128125,1.4676875,1.1358125000000001,-0.1645,-0.33171875,1.43759375,0.0204690765378965,0.023549507779839843,True
2754,201633,2,201632,3942.0,41277.0,30887.0,-0.000549,-0.002257,-0.00122,0.12250000000000001,-2.0650000000000004,-3.6925000000000003,1.182125,0.3313125,0.2444375,1.4695,1.1456875,-0.16225,-0.3374375,1.4408125,0.020427009074072158,0.023908638697069075,True
2755,201634,2,201633,3945.0,41278.0,30890.0,-0.00042699999999999997,-0.0018909999999999999,-0.001037,0.14,-2.0650000000000004,-3.7625,1.18209375,0.3338125,0.24731250000000002,1.4695625,1.139375,-0.16340625,-0.33840625,1.43434375,0.020577345133201162,0.02406561645752791,True
2756,201635,2,201634,3948.0,41278.0,30889.0,0.001281,-0.00061,-0.000244,0.28,-2.1,-3.6925000000000003,1.175875,0.32646875000000003,0.244375,1.4615625,1.14703125,-0.16128125000000001,-0.337625,1.440375,0.020187257246550204,0.023913590582482887,True
2757,201636,2,201635,3951.0,41278.0,30891.0,0.000915,0.000488,0.001586,0.22750000000000004,-2.0300000000000002,-3.7625,1.1844375,0.33171875,0.2415,1.47734375,1.1263750000000001,-0.164125,-0.338375,1.4351875,0.020519830533900982,0.023825542995372533,True
2758,201637,2,201636,3952.0,41280.0,30892.0,-0.001647,-0.000244,-0.0006709999999999999,0.1925,-2.1,-3.8850000000000002,1.1743125,0.3303125,0.2419375,1.4680625,1.1396875,-0.16609375,-0.33646875,1.434375,0.020541435249542554,0.023767057412550866,True
2759,201638,2,201637,3956.0,41280.0,30896.0,-0.001098,0.000183,-0.000976,0.2625,-2.2575000000000003,-3.7975000000000003,1.1739375,0.3256875,0.24653125,1.466375,1.14815625,-0.16525,-0.33668750000000003,1.4388125,0.02031584610132318,0.02396459049737151,True
2760,201639,2,201638,3958.0,41281.0,30894.0,0.000915,0.0021349999999999997,-0.000488,0.31500000000000006,-2.2575000000000003,-3.7800000000000002,1.1849687500000001,0.33146875000000003,0.24484375,1.4765,1.14521875,-0.16259375,-0.34090625,1.4414375,0.020447411611181025,0.024064428578948246,True
2761,201640,2,201639,3960.0,41282.0,30896.0,0.002257,0.00183,0.000183,0.21000000000000002,-2.2925000000000004,-3.7975000000000003,1.1846875000000001,0.33453125,0.24503125,1.47234375,1.14015625,-0.1549375,-0.33718750000000003,1.44003125,0.020263714199219105,0.023923008770015023,True
2762,201641,2,201640,3961.0,41284.0,30897.0,0.0021349999999999997,-0.0011589999999999999,-0.000488,0.12250000000000001,-2.0825,-3.6225000000000005,1.1867812500000001,0.333,0.24496875,1.47159375,1.13965625,-0.1619375,-0.34009375000000003,1.437875,0.020484180956100894,0.02403698629961111,True
2763,201642,2,201641,3964.0,41283.0,30899.0,0.0023179999999999997,-0.000122,-0.0008539999999999999,0.12250000000000001,-1.9775000000000003,-3.7450000000000006,1.1870625000000001,0.33703125,0.241625,1.477875,1.1394375,-0.16253125000000002,-0.33925,1.43465625,0.020675089659739188,0.023865772363569134,True
2764,201643,2,201642,3966.0,41285.0,30897.0,0.00042699999999999997,0.000366,-6.1e-05,0.28,-1.7675,-3.7975000000000003,1.17415625,0.3314375,0.24159375,1.47071875,1.13940625,-0.16415625,-0.33578125000000003,1.43065625,0.020509458094569305,0.023725352971768678,True
2765,201644,2,201643,3967.0,41283.0,30901.0,-0.000244,0.0013419999999999999,0.00122,0.1925,-1.5575,-3.7100000000000004,1.17384375,0.329625,0.242125,1.4668125,1.14321875,-0.16290625,-0.3364375,1.4350625000000001,0.020383775233991153,0.0237735083452539,True
2766,201645,2,201644,3970.0,41284.0,30901.0,-0.000915,0.000305,-0.000122,0.15750000000000003,-1.4525000000000001,-3.7275000000000005,1.1810625000000001,0.3283125,0.24490625,1.47109375,1.14290625,-0.16253125000000002,-0.33609375,1.438,0.02031425205088974,0.02387400401923583,True
2767,201646,2,201645,3970.0,41283.0,30903.0,-0.002745,-0.00244,-6.1e-05,0.22750000000000004,-1.2075,-3.5175000000000005,1.18271875,0.33709375,0.2400625,1.469875,1.139625,-0.1636875,-0.337375,1.43234375,0.020724537593858554,0.023726367367064034,True
2768,201647,2,201646,3975.0,41286.0,30905.0,-0.00122,-0.0017079999999999999,-0.0006709999999999999,0.22750000000000004,-1.1900000000000002,-3.6050000000000004,1.178,0.32837500000000003,0.24415625,1.46509375,1.14359375,-0.1625,-0.338875,1.43484375,0.020315571650284532,0.023954732911853977,True
2769,201648,2,201647,3975.0,41286.0,30906.0,-0.0011589999999999999,-0.000488,0.001098,0.21000000000000002,-1.1900000000000002,-3.6050000000000004,1.17615625,0.33190625,0.24606250000000002,1.46065625,1.1403125,-0.16596875,-0.3324375,1.42809375,0.020602319118698687,0.023774847875392673,True
2770,201649,2,201648,3979.0,41286.0,30906.0,-0.0006709999999999999,0.000122,0.0008539999999999999,0.17500000000000002,-1.1900000000000002,-3.5700000000000003,1.17690625,0.3289375,0.24431250000000002,1.475875,1.1349375,-0.1625625,-0.344125,1.43590625,0.02034138556289301,0.024171643055562693,True
2771,201650,2,201649,3977.0,41285.0,30909.0,-0.0021349999999999997,0.000549,0.0,0.22750000000000004,-1.3475000000000001,-3.6225000000000005,1.16403125,0.3303125,0.24803125,1.47028125,1.1360625,-0.15359375,-0.33371875,1.4522187500000001,0.020034544548883124,0.023907155580155624,True
2772,201651,2,201650,3981.0,41288.0,30908.0,-0.0011589999999999999,0.0013419999999999999,0.002013,0.24500000000000002,-1.9600000000000002,-3.6225000000000005,1.1740625,0.3285625,0.244375,1.4660625,1.13021875,-0.16409375,-0.34109375000000003,1.42415625,0.02038794647533595,0.024052688675914573,True
2773,201652,2,201651,3983.0,41286.0,30911.0,-6.1e-05,6.1e-05,0.000549,0.08750000000000001,-2.1875,-3.6400000000000006,1.18178125,0.33187500000000003,0.24406250000000002,1.4736875,1.13571875,-0.17178125,-0.3356875,1.424375,0.02083653847396952,0.02382303766844475,True
2774,201653,2,201652,3984.0,41287.0,30912.0,0.003111,-0.003477,-0.000976,0.08750000000000001,-2.3625000000000003,-3.5700000000000003,1.17628125,0.3306875,0.24090625000000002,1.46946875,1.14890625,-0.1665625,-0.33184375,1.45515625,0.020575950758408443,0.02353911219736482,True
2775,201654,2,201653,3988.0,41289.0,30914.0,0.0059169999999999995,-0.0026839999999999998,-0.002257,0.08750000000000001,-2.4325,-3.5000000000000004,1.17603125,0.32921875,0.244375,1.46978125,1.14890625,-0.15875,-0.34009375000000003,1.455125,0.020198427070937032,0.024012592391925363,True
2776,201655,2,201654,3990.0,41289.0,30915.0,0.0055509999999999995,0.0011589999999999999,-0.000976,0.2625,-2.1350000000000002,-3.6400000000000006,1.1783125,0.32921875,0.24503125,1.46971875,1.1300625,-0.16021875,-0.34596875,1.45121875,0.020257991248527084,0.024275066072283524,True
2777,201656,2,201655,3992.0,41291.0,30916.0,0.004331,0.001952,-0.006039,0.21000000000000002,-1.2600000000000002,-3.6050000000000004,1.18321875,0.33028125,0.24465625,1.47090625,1.1274375,-0.16059375,-0.3503125,1.43775,0.02031717453135853,0.02443372133314511,True
2778,201657,2,201656,3995.0,41291.0,30918.0,0.000732,0.001037,0.005978,0.24500000000000002,-0.6125,-3.5700000000000003,1.17290625,0.3323125,0.2485625,1.4744062500000001,1.127625,-0.168625,-0.33915625,1.4244375,0.020726768692881786,0.02414704700373498,True
2779,201658,2,201657,3998.0,41291.0,30922.0,-0.009821,-0.0008539999999999999,0.003355,0.12250000000000001,0.052500000000000005,-3.6225000000000005,1.17675,0.33090625,0.242625,1.4701875,1.1579375,-0.16396875,-0.3313125,1.4504062500000001,0.02047987253749449,0.023588431573512526,True
2780,201659,2,201658,4000.0,41292.0,30923.0,-0.012383,-0.002562,0.001647,0.035,-0.07,-3.5000000000000004,1.18034375,0.33128125,0.24396875,1.4738125,1.148375,-0.162125,-0.3398125,1.42434375,0.020420648018334483,0.023984623957148395,True
2781,201660,2,201659,4001.0,41292.0,30926.0,-0.00671,0.0008539999999999999,0.0018909999999999999,0.28,-0.6125,-3.4825000000000004,1.17653125,0.32921875,0.24359375,1.4700625,1.13946875,-0.1645,-0.33337500000000003,1.4319375,0.02043157317552608,0.023711003919513838,True
2782,201661,2,201660,4004.0,41293.0,30926.0,0.0032329999999999998,0.00244,-0.001952,0.43750000000000006,-1.6975000000000002,-3.3950000000000005,1.17571875,0.3276875,0.2449375,1.469875,1.14040625,-0.1640625,-0.33378125000000003,1.43634375,0.0203504688005173,0.02378252455113198,True
2783,201662,2,201661,4006.0,41294.0,30928.0,0.0059169999999999995,-0.001769,-0.00244,0.3325,-1.9250000000000003,-3.4475000000000002,1.18290625,0.32871875,0.2439375,1.47296875,1.143125,-0.162375,-0.33675,1.4388750000000001,0.02032473008137652,0.02386051958457888,True
2784,201663,2,201662,4009.0,41293.0,30928.0,0.006405,-0.0028669999999999998,-0.002562,0.2625,-2.0650000000000004,-3.43,1.17884375,0.33128125,0.24256250000000001,1.46928125,1.13496875,-0.16418750000000001,-0.341,1.43559375,0.020504258626531515,0.023974466948769563,True
2785,201664,2,201663,4010.0,41293.0,30928.0,0.004148,-0.000732,-0.000183,0.22750000000000004,-1.8375000000000001,-3.5000000000000004,1.176,0.329,0.244125,1.470375,1.14275,-0.16578125,-0.336375,1.439125,0.020474457038296662,0.02385318273571968,True
2786,201665,2,201664,4011.0,41290.0,30928.0,0.00042699999999999997,-0.001098,0.001281,0.3325,-1.4000000000000001,-3.4125000000000005,1.1823125,0.33187500000000003,0.24734375,1.46965625,1.14025,-0.162875,-0.339125,1.43490625,0.020475626348271884,0.024095720367926128,True
2787,201666,2,201665,4012.0,41291.0,30926.0,-0.004331,-0.000915,0.000244,0.08750000000000001,-0.9450000000000001,-3.535,1.18009375,0.33228125000000003,0.2424375,1.4702187500000001,1.14625,-0.16296875,-0.33940625,1.43509375,0.020496239726337434,0.023905420864570186,True
2788,201667,2,201666,4012.0,41290.0,30924.0,-0.002623,-0.00183,0.0008539999999999999,0.15750000000000003,-1.0325000000000002,-3.5000000000000004,1.1688125,0.33171875,0.24484375,1.46875,1.14703125,-0.1639375,-0.33671875,1.44034375,0.020512230260486316,0.023896504125068215,True
2789,201668,2,201667,4010.0,41291.0,30924.0,-0.002379,0.000305,-0.000366,0.22750000000000004,-1.33,-3.5700000000000003,1.1830625000000001,0.3318125,0.24356250000000002,1.4776875,1.1394375,-0.1550625,-0.33959375,1.43484375,0.020156230189841157,0.02395916119183378,True
2790,201669,2,201668,4009.0,41286.0,30922.0,-0.00061,0.0017079999999999999,-0.000244,0.3325,-1.3650000000000002,-3.6050000000000004,1.1691562500000001,0.3295,0.2399375,1.471,1.13965625,-0.166,-0.33321875,1.43484375,0.02050401390383183,0.023554477354131378,True
2791,201670,2,201669,4008.0,41286.0,30919.0,-0.000793,0.000793,0.001647,0.47250000000000003,-1.6625,-3.6575,1.1753437500000001,0.322875,0.25040625,1.465625,1.14528125,-0.16371875,-0.33668750000000003,1.4351875,0.02013737020507243,0.02412381512479872,True
2792,201671,2,201670,4002.0,41285.0,30917.0,0.0030499999999999998,0.000915,-0.001586,0.29750000000000004,-1.7675,-3.6750000000000003,1.1923125,0.32771875,0.24784375,1.46515625,1.1473125,-0.1623125,-0.33715625,1.432375,0.020280809214763697,0.024037319479345495,True
2793,201672,2,201671,4000.0,41281.0,30915.0,0.000305,0.000488,-0.001037,0.29750000000000004,-1.6625,-3.7100000000000004,1.191625,0.33209375,0.244875,1.4848125,1.14825,-0.1625625,-0.33768750000000003,1.4413125,0.02047201119500467,0.02393664147425675,True
2794,201673,2,201672,3994.0,41281.0,30912.0,0.000366,0.000732,0.000183,0.28,-1.6625,-3.6575,1.17040625,0.32834375,0.239625,1.45415625,1.13928125,-0.16609375,-0.33618750000000003,1.43471875,0.020459967800960797,0.023660752120684476,True
2795,201674,2,201673,3991.0,41281.0,30912.0,-0.000488,-0.000122,0.000732,0.07,-1.61,-3.7275000000000005,1.19246875,0.3338125,0.23565625,1.46528125,1.1465625,-0.16240625,-0.3405625,1.4329375,0.020536810153169247,0.02367318955755439,True
2796,201675,2,201674,3988.0,41280.0,30908.0,6.1e-05,0.0006709999999999999,0.000183,0.12250000000000001,-1.5750000000000002,-3.7100000000000004,1.182125,0.32946875000000003,0.24546875,1.4694375,1.1466875,-0.16346875,-0.336875,1.44225,0.020400113290853575,0.023928452194457998,True
2797,201676,2,201675,3983.0,41278.0,30906.0,0.000366,0.000183,-0.00061,0.1925,-1.5225000000000002,-3.6925000000000003,1.187125,0.33634375,0.24309375,1.4855,1.1340625,-0.163125,-0.34015625,1.43803125,0.020670701740772353,0.02396245915635813,True
2798,201677,2,201676,3979.0,41278.0,30907.0,0.000244,0.000366,0.000915,0.1925,-1.5750000000000002,-3.7625,1.16540625,0.32315625000000003,0.24209375,1.467125,1.1311875,-0.1648125,-0.3365,1.43453125,0.02019335966293966,0.02377473137057506,True
2799,201678,2,201677,3977.0,41279.0,30906.0,-6.1e-05,0.000122,-0.000732,0.1925,-1.6275000000000002,-3.6750000000000003,1.19353125,0.3298125,0.245875,1.465625,1.1458125000000001,-0.162,-0.33696875,1.43834375,0.020354792649615098,0.023948904893917818,True
2800,201679,2,201678,3974.0,41274.0,30903.0,-0.000976,-0.001647,0.000793,0.36750000000000005,-1.715,-3.6575,1.1868125,0.3280625,0.2459375,1.4754375,1.13571875,-0.1620625,-0.337125,1.4400625,0.02028489910577791,0.023957739461830434,True
2801,201680,2,201679,3970.0,41276.0,30904.0,-0.001281,-0.000793,-0.0011589999999999999,0.35000000000000003,-1.54,-3.7100000000000004,1.1749687500000001,0.332625,0.24115625000000002,1.474875,1.1399062500000001,-0.16321875,-0.33825,1.4298125,0.020520600137347186,0.023806405555041963,True
2802,201681,2,201680,3969.0,41275.0,30902.0,-0.000122,0.0,0.0,0.28,-1.5575,-3.6575,1.17403125,0.3300625,0.24128125,1.46940625,1.1400625,-0.165625,-0.335625,1.43446875,0.020512091038406826,0.023706243418856097,True
2803,201682,2,201681,3968.0,41276.0,30901.0,6.1e-05,-0.000366,-0.000366,0.21000000000000002,-1.6450000000000002,-3.5525,1.1825,0.3306875,0.24365625000000002,1.47640625,1.14484375,-0.16384375,-0.33971875,1.43484375,0.020465752680593294,0.023968025513852742,True
2804,201683,2,201682,3967.0,41275.0,30904.0,0.0013419999999999999,0.000122,-0.000915,0.22750000000000004,-1.6800000000000002,-3.6400000000000006,1.1765625,0.3285,0.24215625000000002,1.46934375,1.139625,-0.16546875,-0.33721875,1.43790625,0.02044109945105038,0.02380613027115105,True
2805,201684,2,201683,3965.0,41274.0,30901.0,-0.000244,-0.000183,0.000366,0.29750000000000004,-1.715,-3.7450000000000006,1.18365625,0.33228125000000003,0.24246875,1.47475,1.1394375,-0.1639375,-0.33871875,1.4351562500000001,0.020535508751419344,0.023879132914504792,True
2806,201685,2,201684,3963.0,41273.0,30901.0,0.002196,0.000732,-0.000183,0.29750000000000004,-1.5925000000000002,-3.6925000000000003,1.1781875,0.33134375,0.24209375,1.47478125,1.13996875,-0.16475,-0.3378125,1.43440625,0.020529645454639506,0.023827377665926224,True
2807,201686,2,201685,3963.0,41275.0,30902.0,-0.00042699999999999997,0.000305,-0.0008539999999999999,0.22750000000000004,-1.5750000000000002,-3.7975000000000003,1.1767812500000001,0.3310625,0.24078125,1.4751875,1.13821875,-0.165625,-0.33721875,1.434,0.0205534721324195,0.023749632443107332,True
2808,201687,2,201686,3963.0,41274.0,30904.0,-0.000122,0.000549,-0.0006709999999999999,0.29750000000000004,-1.5925000000000002,-3.7275000000000005,1.17703125,0.3279375,0.2445,1.46959375,1.14046875,-0.16359375,-0.336625,1.4348750000000001,0.020341810704378356,0.023878619159394533,True
2809,201688,2,201687,3963.0,41275.0,30905.0,0.0017079999999999999,0.0006709999999999999,-0.0015249999999999999,0.36750000000000005,-1.5750000000000002,-3.6400000000000006,1.18275,0.32753125,0.244,1.469125,1.1489375,-0.16328125000000002,-0.33021875,1.44009375,0.020312328235636456,0.02360105167570678,True
2810,201689,2,201688,3963.0,41277.0,30905.0,0.0011589999999999999,-0.00042699999999999997,0.000366,0.29750000000000004,-1.3825,-3.5700000000000003,1.1855,0.33175,0.243625,1.4735625,1.1394375,-0.16328125000000002,-0.33796875,1.4391875,0.020486921659284167,0.023896560800703633,True
2811,201690,2,201689,3964.0,41275.0,30906.0,-0.001586,-0.0008539999999999999,0.001952,0.07,-0.9975,-3.6050000000000004,1.1773125,0.3306875,0.24596875,1.4688125,1.13984375,-0.160125,-0.336125,1.439875,0.020314981814042767,0.023918916836595805,True
2812,201691,2,201690,3963.0,41277.0,30904.0,-0.003965,-0.0013419999999999999,0.0017079999999999999,0.17500000000000002,-0.9625000000000001,-3.5525,1.17809375,0.3329375,0.24096875,1.46953125,1.1358125000000001,-0.16240625,-0.33603125,1.4338125,0.020500596872465877,0.02370969999473517,True
2813,201692,2,201691,3966.0,41276.0,30907.0,-0.003111,-6.1e-05,-0.000549,0.385,-1.0325000000000002,-3.6400000000000006,1.1828125,0.33190625,0.2444375,1.4759375000000001,1.14709375,-0.1625625,-0.33971875,1.43371875,0.02046425125646338,0.024000123255327264,True
2814,201693,2,201692,3967.0,41276.0,30907.0,-0.002257,0.0011589999999999999,0.000122,0.42000000000000004,-1.155,-3.6575,1.17628125,0.32659375,0.24446875,1.469125,1.1386875,-0.164875,-0.33725,1.43971875,0.02033814575908214,0.023902402695456553,True
2815,201694,2,201693,3968.0,41275.0,30909.0,-0.000915,0.0,0.000732,0.3325,-1.3475000000000001,-3.6225000000000005,1.18053125,0.33187500000000003,0.2436875,1.4755625,1.14684375,-0.15887500000000002,-0.33959375,1.4349375,0.020313445886863526,0.023964296856844623,True
2816,201695,2,201694,3969.0,41276.0,30905.0,-0.000244,-0.00061,0.000305,0.21000000000000002,-1.9425000000000001,-3.5700000000000003,1.17628125,0.32865625,0.24381250000000002,1.474375,1.14228125,-0.16321875,-0.33768750000000003,1.44046875,0.020356352565818657,0.023892984902530282,True
2817,201696,2,201695,3968.0,41274.0,30905.0,0.001281,0.000915,-0.000976,0.3325,-2.2750000000000004,-3.6225000000000005,1.17634375,0.3315625,0.24353125,1.4691875,1.1396875,-0.1645625,-0.336875,1.439875,0.020531097966288443,0.02384884049410617,True
2818,201697,2,201696,3971.0,41276.0,30906.0,0.004697,0.0021349999999999997,-0.003355,0.49000000000000005,-2.415,-3.5175000000000005,1.17975,0.33190625,0.24221875,1.46834375,1.1400000000000001,-0.16675,-0.33675,1.439125,0.020633980572480785,0.023789895939268803,True
2819,201698,2,201697,3973.0,41277.0,30906.0,0.006039,0.002562,-0.0015249999999999999,0.42000000000000004,-2.24,-3.5175000000000005,1.17965625,0.33121875,0.2436875,1.46978125,1.13965625,-0.16325,-0.339625,1.435,0.020463669001479518,0.023965550003338176,True
2820,201699,2,201698,3974.0,41276.0,30906.0,0.003843,0.0,-0.000549,0.35000000000000003,-2.0475000000000003,-3.5875000000000004,1.17675,0.332125,0.24375,1.472875,1.14721875,-0.16234375,-0.33871875,1.43571875,0.020464436526361394,0.023931775373344167,True
2821,201700,2,201699,3975.0,41275.0,30908.0,-0.000488,-0.000915,0.000183,0.3325,-1.2775,-3.5700000000000003,1.17634375,0.32987500000000003,0.244875,1.4694375,1.14815625,-0.16196875,-0.33790625,1.44521875,0.020356112330457345,0.023945414367762225,True
2822,201701,2,201700,3976.0,41275.0,30909.0,-0.0021349999999999997,0.000183,0.00061,0.31500000000000006,-0.8750000000000001,-3.5525,1.1808125,0.33096875000000003,0.24346875,1.4703125000000001,1.1320000000000001,-0.16215625,-0.3395,1.43175,0.02040898150387551,0.02395154994967029,True
2823,201702,2,201701,3976.0,41277.0,30909.0,-0.0044529999999999995,-0.000366,-0.001098,0.24500000000000002,-0.6475000000000001,-3.5175000000000005,1.17803125,0.33134375,0.24384375,1.4801875,1.13815625,-0.162,-0.34178125,1.4329687500000001,0.020418166956377784,0.024058428345296215,True
2824,201703,2,201702,3977.0,41278.0,30910.0,-0.005612,-0.001403,0.0008539999999999999,0.15750000000000003,-0.7000000000000001,-3.43,1.177875,0.32525,0.24381250000000002,1.46959375,1.14040625,-0.16678125,-0.336,1.44475,0.020359817259487132,0.023825299967126894,True
2825,201704,2,201703,3978.0,41277.0,30912.0,-0.005673,-0.000976,0.0008539999999999999,0.14,-0.77,-3.3950000000000005,1.1729375,0.323625,0.24875,1.4435625,1.13765625,-0.16725,-0.3351875,1.42640625,0.020311578686031718,0.02399560307476571,True
2826,201705,2,201704,3979.0,41277.0,30912.0,-0.00122,0.000488,0.001769,0.45500000000000007,-1.6800000000000002,-3.6225000000000005,1.19734375,0.34328125,0.24659375,1.48675,1.150875,-0.1609375,-0.339125,1.44271875,0.020869171570846536,0.024064905784410905,True
2827,201706,2,201705,3980.0,41277.0,30912.0,0.000976,0.000915,0.0006709999999999999,0.5075000000000001,-1.9250000000000003,-3.535,1.16809375,0.33371875,0.23509375000000002,1.4547812500000001,1.13709375,-0.16471875,-0.33209375,1.4320625,0.02062666258013038,0.023310262808764665,True
2828,201707,2,201706,3981.0,41275.0,30913.0,0.004514,0.001464,-0.001464,0.5425000000000001,-2.3275,-3.6750000000000003,1.19934375,0.33584375,0.23740625,1.4600625,1.14946875,-0.16171875,-0.342375,1.4258125,0.02059300934458564,0.02381777661382671,True
2829,201708,2,201707,3984.0,41276.0,30914.0,0.006344,0.000793,-0.002074,0.36750000000000005,-2.45,-3.535,1.1935,0.33584375,0.23328125,1.4693125,1.15096875,-0.16184375,-0.34075,1.432625,0.020598076254011038,0.023583137331429804,True
2830,201709,2,201708,3985.0,41277.0,30916.0,0.005856,-0.000244,-0.001281,0.31500000000000006,-2.1350000000000002,-3.535,1.1689687500000001,0.31996875,0.2503125,1.4660312500000001,1.14459375,-0.16593750000000002,-0.336125,1.44103125,0.02010707219614385,0.024097406633143113,True
2831,201710,2,201709,3986.0,41277.0,30914.0,0.002623,-0.000305,-0.000122,0.29750000000000004,-1.4700000000000002,-3.5175000000000005,1.1998125,0.33646875,0.245,1.49109375,1.1440937500000001,-0.1623125,-0.3388125,1.43946875,0.02064294342687605,0.023986893362196702,True
2832,201711,2,201710,3987.0,41275.0,30915.0,-0.000793,0.000976,0.000366,0.29750000000000004,-0.9800000000000001,-3.6050000000000004,1.16521875,0.31671875,0.24684375,1.4644062500000001,1.13846875,-0.16171875,-0.33578125000000003,1.4365937500000001,0.019801467972968605,0.023941084693962725,True
2833,201712,2,201711,3990.0,41276.0,30917.0,-0.00366,0.000793,0.0026839999999999998,0.36750000000000005,-0.6825000000000001,-3.5175000000000005,1.1968750000000001,0.33440625,0.2369375,1.47940625,1.1349375,-0.1625625,-0.33628125000000003,1.4345,0.02056771710368054,0.023554081419074658,True
2834,201713,2,201712,3990.0,41278.0,30920.0,-0.004148,0.000122,0.001952,0.2625,-0.43750000000000006,-3.4825000000000004,1.16328125,0.32128125,0.245125,1.46053125,1.14025,-0.165875,-0.3345,1.43671875,0.02015885003129413,0.02381906346955968,True
2835,201714,2,201713,3992.0,41278.0,30918.0,-0.005856,-0.001098,0.000244,0.31500000000000006,-0.385,-3.3950000000000005,1.186125,0.33759375,0.24706250000000002,1.4718437500000001,1.14709375,-0.16271875,-0.33840625,1.43959375,0.020705968776795865,0.024055344626355724,True
2836,201715,2,201714,3994.0,41277.0,30922.0,-0.003843,-0.002257,0.00042699999999999997,0.22750000000000004,-0.7175,-3.4475000000000002,1.1728750000000001,0.3278125,0.24634375,1.47696875,1.1390625,-0.1655625,-0.3338125,1.4345,0.020416450061942485,0.023841568188297663,True
2837,201716,2,201715,3995.0,41278.0,30922.0,-0.001586,-0.002074,-0.000122,0.21000000000000002,-1.0675000000000001,-3.4475000000000002,1.17575,0.33265625,0.24321875,1.4725,1.14665625,-0.1611875,-0.340125,1.43503125,0.020439547931988027,0.023966341586166878,True
2838,201717,2,201716,3997.0,41280.0,30923.0,0.000122,-0.000793,-0.002257,0.2625,-1.4875,-3.4650000000000003,1.1768125,0.33134375,0.24221875,1.4624375,1.14528125,-0.16259375,-0.3399375,1.43471875,0.020442238325510897,0.023917738079647904,True
2839,201718,2,201717,4000.0,41279.0,30925.0,0.002013,-0.000122,-0.001281,0.45500000000000007,-1.8550000000000002,-3.535,1.178,0.3285,0.2436875,1.4734375,1.14575,-0.1628125,-0.33871875,1.43375,0.020333415242948228,0.023929207448522737,True
2840,201719,2,201718,4004.0,41281.0,30926.0,0.003111,0.002074,-0.000488,0.47250000000000003,-1.9775000000000003,-3.6575,1.17621875,0.32778125,0.24759375,1.4769375,1.1449375,-0.1620625,-0.3378125,1.43234375,0.020273258957094413,0.024053363464773183,True
2841,201720,2,201719,4004.0,41281.0,30925.0,0.003111,0.001464,0.001464,0.28,-2.0650000000000004,-3.5525,1.1766875,0.331125,0.2420625,1.4693125,1.13975,-0.16453125,-0.33678125000000003,1.4394375,0.0205117262516731,0.023784729132986723,True
2842,201721,2,201720,4006.0,41282.0,30927.0,0.0018909999999999999,0.0017079999999999999,0.000244,0.385,-1.9250000000000003,-3.4650000000000003,1.1840625,0.33146875000000003,0.24378125,1.4740312500000001,1.1415,-0.16290625,-0.33625,1.43440625,0.020460080210756935,0.02383404386460527,True
2843,201722,2,201721,4007.0,41283.0,30928.0,0.001952,0.002196,-0.000732,0.35000000000000003,-1.7500000000000002,-3.4475000000000002,1.1768750000000001,0.32859375,0.24475,1.46996875,1.14575,-0.16271875,-0.337375,1.441,0.020333494135464373,0.023918972362467192,True
2844,201723,2,201722,4009.0,41283.0,30929.0,0.001281,0.001464,0.000122,0.3325,-1.5575,-3.5000000000000004,1.1829687500000001,0.33768750000000003,0.24928125,1.46015625,1.14071875,-0.16668750000000002,-0.33590625,1.4331875,0.020870671663214085,0.024046258807394937,True
2845,201724,2,201723,4010.0,41283.0,30931.0,-0.0006709999999999999,0.001098,-0.000549,0.4025,-1.3650000000000002,-3.5175000000000005,1.18384375,0.332,0.24096875,1.466625,1.13553125,-0.16265625,-0.3405,1.43390625,0.02047193176453851,0.023888940243626876,True
2846,201725,2,201724,4013.0,41283.0,30932.0,-0.0011589999999999999,-0.002196,0.001952,0.21000000000000002,-1.1375000000000002,-3.43,1.18328125,0.33146875000000003,0.23990625000000002,1.4691875,1.1449375,-0.16359375,-0.33875,1.43471875,0.020487949976397864,0.02377510143290021,True
2847,201726,2,201725,4015.0,41286.0,30934.0,-0.002074,-0.0018909999999999999,0.001098,0.28,-1.155,-3.4650000000000003,1.1773125,0.3349375,0.24365625000000002,1.47453125,1.14575,-0.16321875,-0.33925,1.43409375,0.020616303446741754,0.023949228098647246,True
2848,201727,2,201726,4017.0,41282.0,30933.0,-0.003843,-0.0026839999999999998,0.000122,0.4025,-1.225,-3.3950000000000005,1.1692500000000001,0.32909375,0.24490625,1.47390625,1.14359375,-0.16190625,-0.33790625,1.4330625000000001,0.020321244314073936,0.023946698373036916,True
2849,201728,2,201727,4018.0,41287.0,30938.0,-0.00183,-0.00042699999999999997,0.001281,0.42000000000000004,-1.3475000000000001,-3.6400000000000006,1.17709375,0.33065625,0.24406250000000002,1.4700312500000001,1.1399375,-0.1635,-0.3368125,1.4391562500000001,0.020450524551492953,0.023868162685643405,True
2850,201729,2,201728,4021.0,41284.0,30936.0,-0.001464,-0.000976,0.000244,0.29750000000000004,-1.4700000000000002,-3.6225000000000005,1.181875,0.33171875,0.242875,1.47034375,1.14003125,-0.164375,-0.33609375,1.4384375,0.020529964048314926,0.023790537460433643,True
2851,201730,2,201729,4023.0,41284.0,30937.0,0.001281,-0.0011589999999999999,-0.000183,0.12250000000000001,-1.7325000000000002,-3.4825000000000004,1.175625,0.33128125,0.2399375,1.47096875,1.14075,-0.16225,-0.33815625,1.43465625,0.020425715734254883,0.02375256958916105,True
2852,201731,2,201730,4024.0,41282.0,30938.0,0.0011589999999999999,6.1e-05,-0.000488,0.21000000000000002,-1.6450000000000002,-3.5875000000000004,1.17575,0.33075,0.2436875,1.469125,1.14225,-0.16275,-0.336875,1.439125,0.020423999751683894,0.023855260792521635,True
2853,201732,2,201731,4027.0,41286.0,30938.0,0.00122,-0.000976,-0.00183,0.28,-1.7850000000000001,-3.6400000000000006,1.1829687500000001,0.33146875000000003,0.2411875,1.4659375000000001,1.1401875000000001,-0.16534375,-0.33553125,1.43265625,0.020558884042359216,0.023698629961078,True
2854,201733,2,201732,4028.0,41286.0,30940.0,-0.000732,0.001586,-0.0006709999999999999,0.385,-1.7850000000000001,-3.5700000000000003,1.18434375,0.33240625,0.24325,1.47540625,1.13965625,-0.16128125000000001,-0.33871875,1.4353125,0.020433001664595087,0.023911231974772705,True
2855,201734,2,201733,4030.0,41286.0,30940.0,-0.001098,0.0042699999999999995,-0.000549,0.49000000000000005,-1.8900000000000001,-3.6400000000000006,1.17346875,0.327625,0.244,1.4760312500000001,1.1535625,-0.16234375,-0.34471875,1.42778125,0.020278196315289158,0.02418260634044088,True
2856,201735,2,201734,4033.0,41287.0,30944.0,0.001403,0.001098,0.0021349999999999997,0.385,-2.3975000000000004,-3.6925000000000003,1.1769687500000001,0.32921875,0.2435,1.47625,1.1440625,-0.16178125000000002,-0.3394375,1.4285625,0.02032134944521112,0.023950327529138667,True
2857,201736,2,201735,4035.0,41289.0,30945.0,0.002562,-6.1e-05,-0.0013419999999999999,0.28,-2.555,-3.6225000000000005,1.1769375,0.32821875,0.24456250000000002,1.4776875,1.1508125,-0.16071875,-0.342375,1.4290625000000001,0.02023687726591329,0.0241117598426612,True
2858,201737,2,201736,4038.0,41291.0,30944.0,0.004026,-0.000915,0.00061,0.31500000000000006,-2.6425,-3.6400000000000006,1.1763125,0.3284375,0.24478125,1.46934375,1.1518125000000001,-0.15637500000000001,-0.338875,1.4391562500000001,0.02006975384344712,0.023980411995213415,True
2859,201738,2,201737,4039.0,41289.0,30946.0,0.004331,-0.00042699999999999997,-0.0013419999999999999,0.24500000000000002,-2.5200000000000005,-3.6925000000000003,1.18271875,0.33715625,0.24075,1.4708125,1.13296875,-0.16809375000000001,-0.327375,1.4349375,0.020905662036336647,0.0233533211043115,True
2860,201739,2,201738,4039.0,41291.0,30945.0,0.001586,0.000793,-0.003355,0.3325,-2.3275,-3.6750000000000003,1.1651562500000001,0.329125,0.24471875,1.46953125,1.15565625,-0.1601875,-0.34018750000000003,1.44221875,0.020252843650323493,0.02403047429277199,True
2861,201740,2,201739,4042.0,41291.0,30947.0,-0.002257,-0.000183,0.0032329999999999998,0.24500000000000002,-1.6800000000000002,-3.6400000000000006,1.184125,0.3313125,0.24228125,1.46796875,1.13396875,-0.1705,-0.33409375,1.43628125,0.02076136199085662,0.023685903651127344,True
2862,201741,2,201740,4045.0,41292.0,30949.0,-0.0015249999999999999,-0.00366,0.002562,0.052500000000000005,-1.5050000000000001,-3.7275000000000005,1.175875,0.32821875,0.24459375,1.47059375,1.1476875,-0.15975,-0.3333125,1.4505937500000001,0.020197591034675444,0.02374959225136323,True
2863,201742,2,201741,4048.0,41292.0,30952.0,-0.0035989999999999998,-0.0030499999999999998,-0.002257,0.1925,-1.435,-3.6575,1.1828750000000001,0.33171875,0.24428125,1.47503125,1.1330625,-0.15737500000000001,-0.3439375,1.4310625000000001,0.02024614636317067,0.024162843418407562,True
2864,201743,2,201742,4048.0,41291.0,30952.0,-0.00549,-0.001281,-0.001952,0.4025,-1.5050000000000001,-3.6575,1.17703125,0.3284375,0.2445,1.47290625,1.14878125,-0.16028125000000001,-0.33790625,1.43984375,0.02022818960354611,0.0239300063044659,True
2865,201744,2,201743,4051.0,41295.0,30951.0,-0.003477,0.001769,-0.000366,0.4025,-1.61,-3.5875000000000004,1.1663125,0.3303125,0.24234375,1.46884375,1.132875,-0.16534375,-0.33334375,1.4431875,0.02051103659553777,0.023658380283227618,True
2866,201745,2,201744,4054.0,41294.0,30954.0,0.001281,-0.001769,0.0011589999999999999,0.052500000000000005,-2.1,-3.6575,1.17884375,0.331,0.24265625000000002,1.469625,1.13175,-0.16568750000000002,-0.3305,1.43615625,0.02055341897473432,0.02355710938944946,True
2867,201746,2,201745,4055.0,41295.0,30955.0,0.002562,-0.003477,-0.001403,0.14,-2.4850000000000003,-3.6750000000000003,1.18359375,0.331625,0.243375,1.47521875,1.14453125,-0.16334375,-0.33934375,1.4298125,0.02048428210603096,0.02394143227464791,True
2868,201747,2,201746,4059.0,41295.0,30955.0,0.004697,0.001952,-0.0030499999999999998,0.35000000000000003,-2.6425,-3.8325000000000005,1.17625,0.3285625,0.24478125,1.47284375,1.14678125,-0.16234375,-0.339625,1.4415,0.02031699635926254,0.024010487014487693,True
2869,201748,2,201747,4062.0,41299.0,30958.0,0.004941,0.0057339999999999995,-0.002013,0.56,-2.6425,-3.7625,1.179125,0.331625,0.244,1.46928125,1.13915625,-0.1590625,-0.336,1.4328125,0.0203107012120193,0.023833004602235378,True
2870,201749,2,201748,4062.0,41299.0,30962.0,0.003355,0.000488,0.002745,0.45500000000000007,-2.6075000000000004,-3.7800000000000002,1.18075,0.3323125,0.24753125,1.4696875,1.13271875,-0.16471875,-0.3330625,1.44275,0.020568468234293025,0.02386028269150256,True
2871,201750,2,201749,4066.0,41300.0,30961.0,0.0037819999999999998,-0.0037819999999999998,0.000366,0.15750000000000003,-1.995,-3.7800000000000002,1.18275,0.331125,0.24115625000000002,1.4701875,1.133375,-0.16496875,-0.33734375,1.43453125,0.020529459612895217,0.02377005502089767,True
2872,201751,2,201750,4067.0,41301.0,30963.0,0.002013,-0.0034159999999999998,-0.002257,0.22750000000000004,-1.7500000000000002,-3.535,1.1798125,0.33125,0.24275,1.476,1.1443125,-0.1601875,-0.33896875,1.4351875,0.020340798265741936,0.023900714774532095,True
2873,201752,2,201751,4071.0,41303.0,30966.0,-0.000366,0.00122,-0.0011589999999999999,0.36750000000000005,-1.3125000000000002,-3.5700000000000003,1.1764375,0.33578125000000003,0.24584375,1.46215625,1.1465625,-0.16253125000000002,-0.3395,1.42953125,0.02062335666922314,0.024049127960722283,True
2874,201753,2,201752,4072.0,41306.0,30966.0,-0.002074,0.002562,-0.000183,0.3325,-0.7000000000000001,-3.5175000000000005,1.1764375,0.3379375,0.24331250000000001,1.4739375000000001,1.1455312500000001,-0.15740625,-0.34084375,1.4353437500000001,0.02050484000119011,0.023999014002955423,True
2875,201754,2,201753,4076.0,41302.0,30966.0,-0.007259,-0.004148,-0.000549,0.24500000000000002,0.08750000000000001,-3.2375000000000003,1.17015625,0.33184375,0.24234375,1.4734375,1.147375,-0.1624375,-0.33921875,1.435,0.02045659714587984,0.023894049598449003,True
2876,201755,2,201754,4079.0,41304.0,30967.0,-0.00671,-0.0026839999999999998,-0.001464,0.24500000000000002,0.07,-3.325,1.16425,0.3275,0.2455,1.47834375,1.145875,-0.1625,-0.338,1.440375,0.020279358510087945,0.02397485413756266,True
2877,201756,2,201755,4082.0,41305.0,30967.0,-0.006039,0.00061,0.000122,0.3325,-0.28,-3.2725000000000004,1.17440625,0.32915625,0.24503125,1.47259375,1.140125,-0.1665,-0.3373125,1.44275,0.020510055241760288,0.023928022044340354,True
2878,201757,2,201756,4083.0,41301.0,30969.0,-0.002562,0.001037,0.003172,0.56,-0.6825000000000001,-3.325,1.17421875,0.32475,0.24381250000000002,1.4670625,1.1400937500000001,-0.1633125,-0.33668750000000003,1.43784375,0.020198493066710118,0.023852876444257255,True
2879,201758,2,201757,4085.0,41303.0,30969.0,0.0021349999999999997,0.0008539999999999999,0.006405,0.42000000000000004,-1.155,-3.3950000000000005,1.187875,0.33571875,0.244,1.47746875,1.14059375,-0.16303125000000002,-0.34015625,1.4286875,0.020641036086894108,0.02399969186722045,True
2880,201759,2,201758,4085.0,41300.0,30967.0,0.007503,0.001769,-0.004026,0.6825000000000001,-1.9250000000000003,-3.4825000000000004,1.17396875,0.33225,0.24559375,1.48075,1.14109375,-0.16475,-0.3369375,1.44040625,0.020567148429013336,0.02393609508180723,True
2881,201760,2,201759,4084.0,41302.0,30967.0,0.007076,0.004392,-0.0062829999999999995,0.7525000000000001,-1.6275000000000002,-3.5525,1.18275,0.33137500000000003,0.24640625,1.47290625,1.13978125,-0.16665625,-0.33678125000000003,1.4398125,0.020608198538016615,0.02396321411649291,True
2882,201761,2,201760,4082.0,41300.0,30963.0,0.0035989999999999998,0.0048189999999999995,-0.000976,0.6825000000000001,-1.0150000000000001,-3.6050000000000004,1.1743125,0.3263125,0.24659375,1.4686875,1.1399375,-0.1640625,-0.3365,1.43840625,0.020293566117038475,0.023959638814126927,True
2883,201762,2,201761,4080.0,41299.0,30961.0,-0.000732,-0.001098,0.003111,0.36750000000000005,-0.14,-3.3775000000000004,1.1865,0.33203125,0.24125,1.4724062500000001,1.139,-0.16225,-0.3375,1.4351562500000001,0.02045675588986953,0.023780174627632256,True
2884,201763,2,201762,4077.0,41298.0,30960.0,-0.006405,-0.005673,0.001952,0.14,0.5075000000000001,-3.3425000000000002,1.17553125,0.33246875,0.24540625,1.4753125,1.14365625,-0.1629375,-0.33678125000000003,1.43821875,0.020502732749277688,0.023922124048347603,True
2885,201764,2,201763,4073.0,41296.0,30958.0,-0.010065,-0.001647,0.000183,0.36750000000000005,0.56,-3.2725000000000004,1.17415625,0.33040625,0.2454375,1.474375,1.1395,-0.16459375,-0.33815625,1.4378125,0.020484515697682688,0.02397855219620426,True
2886,201765,2,201764,4067.0,41294.0,30954.0,-0.0062829999999999995,0.000122,0.000732,0.47250000000000003,0.28,-3.0275000000000003,1.1774375,0.3304375,0.2415625,1.47025,1.140625,-0.16434375,-0.3369375,1.4383125,0.020475675032557008,0.023770451808079796,True
2887,201766,2,201765,4066.0,41293.0,30954.0,0.000122,-0.000732,0.0028669999999999998,0.525,-0.385,-3.2025,1.18221875,0.331,0.24706250000000002,1.4695625,1.1393125,-0.16434375,-0.3359375,1.43825,0.02049895313213296,0.023956340288924557,True
2888,201767,2,201766,4060.0,41293.0,30954.0,0.002623,-6.1e-05,0.0026839999999999998,0.47250000000000003,-0.8400000000000001,-3.325,1.18265625,0.33190625,0.24153125,1.46909375,1.13940625,-0.16515625,-0.3370625,1.43265625,0.020569389035090556,0.023774181867676103,True
2889,201768,2,201767,4057.0,41291.0,30951.0,0.0044529999999999995,0.00366,-0.0030499999999999998,0.5950000000000001,-1.3825,-3.3600000000000003,1.17671875,0.32859375,0.24378125,1.47703125,1.1500625,-0.16171875,-0.34168750000000003,1.4284375,0.020292947909593562,0.02405210197526363,True
2890,201769,2,201768,4054.0,41288.0,30947.0,0.007076,0.005673,-0.001281,0.525,-1.8375000000000001,-3.4125000000000005,1.1768750000000001,0.3286875,0.25134375000000003,1.469375,1.15528125,-0.15775,-0.34775,1.4330625000000001,0.020135877720400288,0.024605713053567575,True
2891,201770,2,201769,4051.0,41290.0,30946.0,0.007076,0.001281,0.000305,0.385,-1.4875,-3.3075,1.17853125,0.3306875,0.24159375,1.46996875,1.13603125,-0.16793750000000002,-0.32921875,1.45321875,0.020631673679228937,0.02346201519520638,True
2892,201771,2,201770,4046.0,41289.0,30944.0,0.0037819999999999998,-0.003538,0.000305,0.29750000000000004,-0.9800000000000001,-3.1850000000000005,1.1815625,0.33103125,0.24059375,1.47009375,1.12553125,-0.16565625,-0.32909375,1.4504375,0.020553445553542538,0.023415894807014753,True
2893,201772,2,201771,4044.0,41286.0,30944.0,-0.001098,-0.004331,-0.0008539999999999999,0.14,-0.5425000000000001,-3.0975,1.1824375,0.336625,0.243625,1.4694375,1.1185,-0.17421875,-0.3299375,1.4519375,0.021131758394467248,0.023574351557623194,True
2894,201773,2,201772,4040.0,41286.0,30943.0,-0.004331,-0.002928,-0.002013,0.4025,0.052500000000000005,-3.1675000000000004,1.1811562500000001,0.33171875,0.24396875,1.4739375000000001,1.11715625,-0.16346875,-0.33337500000000003,1.4259375,0.020493229060914525,0.023726414852029365,True
2895,201774,2,201773,4039.0,41286.0,30945.0,-0.007442,-0.00061,0.002562,0.5775,0.49000000000000005,-2.975,1.1769687500000001,0.33015625,0.242,1.47065625,1.16396875,-0.1663125,-0.3318125,1.4526875000000001,0.020543835556210737,0.023582809542034733,True
2896,201775,2,201774,4036.0,41281.0,30942.0,-0.009394,-0.00183,0.00915,0.42000000000000004,0.1925,-2.9225000000000003,1.18403125,0.33203125,0.24359375,1.474375,1.1276875,-0.16334375,-0.34234375,1.42509375,0.020501094762598825,0.02407071011804276,True
2897,201776,2,201775,4033.0,41282.0,30945.0,-0.009821,-0.002013,-0.001952,0.24500000000000002,-1.225,-2.9575000000000005,1.17665625,0.338,0.2425,1.4702187500000001,1.14359375,-0.168625,-0.33187500000000003,1.45315625,0.020962094450966907,0.02360586678996173,True
2898,201777,2,201776,4030.0,41282.0,30942.0,0.008967,-0.00122,-0.002074,0.1925,-2.1875,-2.9925,1.18321875,0.33125,0.24306250000000001,1.47525,1.1459375,-0.16328125000000002,-0.340875,1.4236250000000001,0.020466229105370364,0.023989996251161883,True
2899,201778,2,201777,4031.0,41283.0,30943.0,0.010431,0.004758,-0.0057339999999999995,0.4025,-2.1525000000000003,-3.2375000000000003,1.1760625,0.32878125,0.24828125,1.4695,1.151375,-0.16046875,-0.33284375,1.43990625,0.02025002101832151,0.023882329824273008,True
2900,201779,2,201778,4030.0,41282.0,30943.0,-0.003477,0.0034159999999999998,0.0,0.35000000000000003,-1.12,-3.6050000000000004,1.18290625,0.33184375,0.24453125,1.4739375000000001,1.1420937500000001,-0.1598125,-0.3374375,1.43965625,0.02035016828048645,0.023912490787084715,True
2901,201780,2,201779,4027.0,41283.0,30943.0,-0.0026839999999999998,-0.003355,0.0026839999999999998,0.052500000000000005,-1.2775,-3.3950000000000005,1.17728125,0.329625,0.24546875,1.46884375,1.1399062500000001,-0.16643750000000002,-0.3364375,1.43615625,0.020526918789747144,0.02391090520130566,True
2902,201781,2,201780,4027.0,41279.0,30942.0,0.001403,-0.003904,0.000305,-0.052500000000000005,-1.33,-3.3075,1.182375,0.33734375,0.24453125,1.4697500000000001,1.140625,-0.16315625,-0.33959375,1.4351875,0.020713353620763014,0.023998962595667812,True
2903,201782,2,201781,4028.0,41280.0,30940.0,0.001403,-0.001647,-0.0008539999999999999,0.052500000000000005,-1.4175000000000002,-3.5000000000000004,1.176375,0.33146875000000003,0.2445,1.46215625,1.147375,-0.16175,-0.338375,1.4369375,0.020413204755450248,0.023948805127704708,True
2904,201783,2,201782,4026.0,41281.0,30942.0,0.000732,0.00061,0.004148,0.15750000000000003,-1.1900000000000002,-3.3775000000000004,1.1768750000000001,0.3285625,0.24415625,1.4638125,1.13909375,-0.162375,-0.3365,1.44028125,0.02031826341574452,0.023859480615536333,True
2905,201784,2,201783,4027.0,41278.0,30943.0,-0.0066489999999999995,-0.000915,0.001098,0.17500000000000002,-1.2950000000000002,-3.5175000000000005,1.1768750000000001,0.330625,0.2426875,1.47009375,1.13121875,-0.16553125,-0.3363125,1.4352500000000001,0.02053156807798297,0.023791607705563447,True
2906,201785,2,201784,4027.0,41281.0,30941.0,-0.001586,-0.002379,0.002257,0.10500000000000001,-1.715,-3.5700000000000003,1.18215625,0.33384375,0.243375,1.47628125,1.1460000000000001,-0.1631875,-0.33725,1.435125,0.02056977168264742,0.023857461299037482,True
2907,201786,2,201785,4028.0,41276.0,30940.0,0.004758,-0.002745,-0.000244,0.07,-2.2925000000000004,-3.6925000000000003,1.1764375,0.3271875,0.24496875,1.47778125,1.141125,-0.16471875,-0.33728125000000003,1.43934375,0.020356382173907984,0.023924200654089085,True
2908,201787,2,201786,4027.0,41279.0,30941.0,0.0055509999999999995,-0.0013419999999999999,-0.0064659999999999995,0.24500000000000002,-2.6775,-3.5875000000000004,1.1775,0.33190625,0.2386875,1.46425,1.13975,-0.164875,-0.337,1.4349375,0.020557989644059818,0.02365482598512553,True
2909,201788,2,201787,4029.0,41277.0,30942.0,0.0034159999999999998,0.0026839999999999998,-0.002196,0.29750000000000004,-2.6775,-3.6400000000000006,1.19553125,0.33387500000000003,0.241,1.47959375,1.14521875,-0.1628125,-0.33928125000000003,1.43684375,0.0205558645128749,0.023841346999513395,True
2910,201789,2,201788,4028.0,41279.0,30941.0,0.003904,0.001586,0.000488,0.3325,-2.3625000000000003,-3.7975000000000003,1.16890625,0.32659375,0.24734375,1.47134375,1.1268125,-0.16553125,-0.33668750000000003,1.4395,0.020364749895576992,0.023997976306348184,True
2911,201790,2,201789,4028.0,41278.0,30940.0,0.001098,-0.0013419999999999999,-0.00042699999999999997,0.28,-1.9775000000000003,-3.5700000000000003,1.1880625,0.33265625,0.2379375,1.4644062500000001,1.14521875,-0.16290625,-0.33768750000000003,1.43340625,0.02050922578901286,0.023651589741219253,True
2912,201791,2,201790,4029.0,41278.0,30941.0,-0.003721,0.00061,-0.000183,0.2625,-1.54,-3.7100000000000004,1.1749687500000001,0.33387500000000003,0.24390625000000002,1.48284375,1.14821875,-0.1625625,-0.3375625,1.43959375,0.020545730611146895,0.023891823595727796,True
2913,201792,2,201791,4028.0,41277.0,30940.0,-0.006893,0.001098,-0.000915,0.2625,-1.5050000000000001,-3.6925000000000003,1.16996875,0.32096875,0.241375,1.4649375,1.139875,-0.16659375,-0.33137500000000003,1.43453125,0.020175060873028495,0.02353956568422459,True
2914,201793,2,201792,4030.0,41278.0,30940.0,-0.0046359999999999995,-0.00183,0.0015249999999999999,0.15750000000000003,-1.6625,-3.5175000000000005,1.190125,0.32709375,0.24634375,1.4784375,1.14540625,-0.16409375,-0.336875,1.4405937500000001,0.020327164142044434,0.023964405865584633,True
2915,201794,2,201793,4030.0,41277.0,30941.0,0.002013,-0.003294,0.000915,0.17500000000000002,-2.2750000000000004,-3.535,1.18059375,0.33328125000000003,0.23853125,1.4736875,1.1394375,-0.16278125000000002,-0.33875,1.43471875,0.02053002487037787,0.023718607159365208,True
2916,201795,2,201794,4031.0,41277.0,30938.0,0.00366,-0.0035989999999999998,-0.0008539999999999999,0.08750000000000001,-2.6075000000000004,-3.5875000000000004,1.1755625,0.32384375,0.24581250000000002,1.4710625,1.1397187500000001,-0.16590625,-0.33121875,1.44065625,0.020266154926426565,0.023715673922006065,True
2917,201796,2,201795,4032.0,41276.0,30938.0,0.0046359999999999995,0.00042699999999999997,-0.002989,0.10500000000000001,-2.975,-3.6575,1.18546875,0.3325,0.23621875,1.47190625,1.14015625,-0.1633125,-0.339875,1.4354375,0.02051922723757349,0.023668722620802284,True
2918,201797,2,201796,4031.0,41277.0,30938.0,0.006222,0.0026839999999999998,-0.0026839999999999998,0.17500000000000002,-2.765,-3.7100000000000004,1.16975,0.3234375,0.24315625000000002,1.46921875,1.14025,-0.16618750000000002,-0.33590625,1.4348125,0.020260746549285027,0.02379457309094458,True
2919,201798,2,201797,4033.0,41278.0,30939.0,0.0053679999999999995,0.002379,-0.000732,0.21000000000000002,-2.3975000000000004,-3.6750000000000003,1.1721875,0.33053125,0.2429375,1.4681250000000001,1.14021875,-0.16596875,-0.33553125,1.4348125,0.020545420923793918,0.023770541273883224,True
2920,201799,2,201798,4032.0,41279.0,30941.0,-0.003721,0.002013,0.002257,0.5075000000000001,-1.5225000000000002,-3.7275000000000005,1.177125,0.33425,0.24434375,1.47190625,1.1459375,-0.16165625,-0.33703125,1.43409375,0.02052451391861847,0.0238884929730285,True
2921,201800,2,201799,4035.0,41281.0,30940.0,-0.0068319999999999995,0.002074,0.001586,0.47250000000000003,-1.33,-3.7975000000000003,1.1828125,0.33187500000000003,0.24365625000000002,1.4741875,1.1390625,-0.15465625,-0.33834375,1.43928125,0.020142337980901717,0.023912884376119475,True
2922,201801,2,201800,4036.0,41280.0,30941.0,-0.004941,-0.0013419999999999999,0.001281,0.31500000000000006,-1.435,-3.6400000000000006,1.1773437500000001,0.3315625,0.2413125,1.4756875,1.1403125,-0.16740625,-0.33903125,1.4350625000000001,0.02064635090908856,0.02384415977936673,True
2923,201802,2,201801,4037.0,41280.0,30942.0,-0.003721,-0.001098,0.001403,0.31500000000000006,-1.5575,-3.4825000000000004,1.1770625000000001,0.32965625,0.2418125,1.4700625,1.13996875,-0.16715625,-0.33628125000000003,1.43903125,0.0205573421572925,0.023754399616827248,True
2924,201803,2,201802,4037.0,41280.0,30942.0,-0.001952,-0.000793,0.0006709999999999999,0.3325,-1.6975000000000002,-3.6050000000000004,1.183125,0.33140625,0.24109375,1.46965625,1.1420937500000001,-0.163125,-0.3363125,1.4353437500000001,0.020466361449522772,0.023726119148083754,True
2925,201804,2,201803,4039.0,41281.0,30945.0,0.0025009999999999998,-0.0006709999999999999,-0.002623,0.42000000000000004,-2.7475,-3.6225000000000005,1.17825,0.3296875,0.2439375,1.46565625,1.139125,-0.1629375,-0.34021875,1.437625,0.020387628780648048,0.023999630241614,True
2926,201805,2,201804,4041.0,41280.0,30946.0,0.0060999999999999995,0.000305,-0.000244,0.35000000000000003,-2.8175000000000003,-3.5875000000000004,1.17625,0.33575,0.24281250000000001,1.4700312500000001,1.13921875,-0.165625,-0.33603125,1.4349375,0.020747446010603906,0.023785462142681953,True
2927,201806,2,201805,4042.0,41283.0,30949.0,0.006954,-0.00061,-0.001464,0.28,-2.8875,-3.5525,1.1815625,0.3315625,0.24665625,1.47734375,1.1455625,-0.16296875,-0.34053125,1.4394375,0.020466493795386793,0.02412385719806341,True
2928,201807,2,201806,4043.0,41282.0,30948.0,0.004697,-0.0018909999999999999,-0.0006709999999999999,0.17500000000000002,-2.6250000000000004,-3.6225000000000005,1.1764375,0.3298125,0.24109375,1.46409375,1.1404375,-0.16634375,-0.33584375,1.4349375,0.020530877783280728,0.02370731444230283,True
2929,201808,2,201807,4044.0,41284.0,30949.0,0.001464,0.0,-0.000488,0.22750000000000004,-2.2225,-3.6225000000000005,1.18371875,0.3314375,0.2426875,1.47546875,1.14515625,-0.1588125,-0.3379375,1.4345625,0.02029280205722032,0.023856787371567535,True
2930,201809,2,201808,4047.0,41285.0,30951.0,-0.0028669999999999998,0.002806,0.001403,0.29750000000000004,-1.5225000000000002,-3.7100000000000004,1.16290625,0.32840625,0.24384375,1.47484375,1.14359375,-0.16278125000000002,-0.33668750000000003,1.4345625,0.020328268294859477,0.023854160513833284,True
2931,201810,2,201809,4047.0,41286.0,30950.0,-0.0028669999999999998,0.0008539999999999999,0.002623,0.36750000000000005,-1.2950000000000002,-3.7450000000000006,1.1780625,0.33134375,0.24146875,1.4706875,1.14646875,-0.16309375,-0.33659375,1.43028125,0.020462508034593044,0.02375281051811123,True
2932,201811,2,201810,4048.0,41284.0,30952.0,-0.003355,0.0,0.0013419999999999999,0.14,-1.2950000000000002,-3.6750000000000003,1.184375,0.33134375,0.24028125,1.47034375,1.14809375,-0.15962500000000002,-0.34015625,1.42803125,0.020321869648225088,0.02384690936402678,True
2933,201812,2,201811,4050.0,41283.0,30953.0,-0.003721,-0.001586,-0.000488,0.17500000000000002,-1.4875,-3.6050000000000004,1.180625,0.33175,0.24290625000000002,1.4696875,1.146625,-0.16246875,-0.33768750000000003,1.435875,0.020453984032571176,0.02385574841488124,True
2934,201813,2,201812,4052.0,41283.0,30953.0,6.1e-05,0.000976,0.0013419999999999999,0.29750000000000004,-1.6625,-3.6750000000000003,1.1821875,0.3305,0.24659375,1.4720312500000001,1.14015625,-0.16615625,-0.33565625,1.4414375,0.020551727170099714,0.023925798179369004,True
2935,201814,2,201813,4055.0,41284.0,30952.0,0.0025009999999999998,-0.00042699999999999997,0.000793,0.21000000000000002,-2.555,-3.7450000000000006,1.17628125,0.3301875,0.24521875,1.46971875,1.13334375,-0.16559375,-0.33690625,1.4280625,0.020515997046420598,0.023919433062696702,True
2936,201815,2,201814,4054.0,41286.0,30951.0,0.004209,-0.0008539999999999999,-0.00183,0.21000000000000002,-2.66,-3.6050000000000004,1.179875,0.3306875,0.24406250000000002,1.4694375,1.13965625,-0.16578125,-0.33575,1.43996875,0.020544287182935585,0.02382554472329803,True
2937,201816,2,201815,4056.0,41285.0,30953.0,0.00366,-0.002013,-0.0025009999999999998,0.21000000000000002,-2.7475,-3.5175000000000005,1.1798125,0.33090625,0.2429375,1.4690625,1.1318125,-0.16696875,-0.336,1.43971875,0.02060146661959829,0.02378934500328731,True
2938,201817,2,201816,4060.0,41286.0,30954.0,0.002623,-6.1e-05,-0.001281,0.17500000000000002,-2.6250000000000004,-3.6575,1.1801875,0.33121875,0.24334375,1.47053125,1.14109375,-0.16384375,-0.34021875,1.4255625,0.020487738007327578,0.023975236459203967,True
2939,201818,2,201817,4060.0,41285.0,30955.0,0.0021349999999999997,-0.000366,0.000122,0.10500000000000001,-2.0650000000000004,-3.5700000000000003,1.174625,0.33028125,0.24396875,1.4746875,1.1531875,-0.1628125,-0.34171875,1.4308125,0.02040713389635416,0.02406105772625444,True
2940,201819,2,201818,4060.0,41286.0,30957.0,0.000122,-0.002196,6.1e-05,0.0,-1.5750000000000002,-3.5000000000000004,1.1775,0.33584375,0.2424375,1.4700312500000001,1.1511875,-0.16178125000000002,-0.34153125,1.4318125,0.0205955428058517,0.02399063329263643,True
2941,201820,2,201819,4062.0,41284.0,30956.0,-0.004026,-0.000915,0.000549,0.0175,-1.3125000000000002,-3.4475000000000002,1.1794375,0.33228125000000003,0.24265625000000002,1.4729375,1.15196875,-0.16053125000000001,-0.3380625,1.42690625,0.02039741986219778,0.023860516834485077,True
2942,201821,2,201820,4063.0,41284.0,30959.0,-0.003294,0.000366,-0.000122,0.14,-1.12,-3.5700000000000003,1.17428125,0.33746875,0.24309375,1.4684062500000001,1.143125,-0.16096875,-0.33984375,1.4331562500000001,0.02062986402397462,0.023949927780452577,True
2943,201822,2,201821,4066.0,41285.0,30959.0,-0.0025009999999999998,0.001403,0.001464,0.31500000000000006,-1.1375000000000002,-3.6225000000000005,1.16146875,0.32840625,0.24046875,1.4595,1.14075,-0.16134375,-0.3385625,1.4325625,0.02026998187962952,0.023790692239938165,True
