frame_seq,absolute_seq_u64,segment_id,sample_seq,PPG_G,PPG_R,PPG_IR,ACC_X,ACC_Y,ACC_Z,GYRO_X,GYRO_Y,GYRO_Z,Uh1,Uh2,Uh3,Uh4,Uc1,Uc2,Uc3,Uc4,UD1,UD2,parser_valid
23661,157002,1,157003,3774.0,41671.0,30460.0,0.001098,-0.003355,0.003965,0.12250000000000001,-1.8550000000000002,-3.6225000000000005,1.1280625,0.31446875,0.2170625,1.38465625,1.07790625,-0.17221875,-0.28615625,1.3573125,0.02013416745204658,0.0207203949781061,True
23662,157003,1,157004,3774.0,41671.0,30459.0,-0.0006709999999999999,-0.00122,-0.003904,0.28,-1.8550000000000002,-3.6225000000000005,1.0968125,0.31565625,0.21296875,1.38721875,1.07725,-0.17403125,-0.2909375,1.36525,0.02025675796212103,0.02074461926387156,True
23663,157004,1,157005,3774.0,41672.0,30459.0,0.00061,0.0013419999999999999,-0.0046359999999999995,0.36750000000000005,-1.8200000000000003,-3.535,1.11153125,0.30690625,0.19834375,1.414125,1.09203125,-0.17890625000000002,-0.291,1.3646562500000001,0.020092410094025653,0.020145064015478983,True
23664,157005,1,157006,3774.0,41674.0,30460.0,0.0015249999999999999,0.000793,0.002257,0.28,-1.7675,-3.5700000000000003,1.13703125,0.30090625,0.204625,1.3997187500000001,1.07678125,-0.17078125,-0.28759375,1.3594375,0.019514780888598707,0.020266262482260104,True
23665,157006,1,157007,3773.0,41672.0,30456.0,0.0008539999999999999,-0.0044529999999999995,-0.0011589999999999999,0.22750000000000004,-1.61,-3.7100000000000004,1.1148437500000001,0.31703125,0.2186875,1.3851875,1.07646875,-0.17390625,-0.29071875,1.3604375,0.020308571354701932,0.020971230009404315,True
23666,157007,1,157008,3774.0,41670.0,30457.0,-0.000732,0.000549,-0.003355,0.3325,-1.2075,-3.6050000000000004,1.08890625,0.32275,0.21409375,1.38503125,1.08275,-0.1746875,-0.293375,1.36975,0.02057679132356933,0.020889182750441222,True
23667,157008,1,157009,3773.0,41671.0,30458.0,-0.002989,0.004026,-0.00122,0.45500000000000007,-1.1375000000000002,-3.6575,1.11103125,0.3098125,0.2014375,1.411875,1.08484375,-0.17309375,-0.29071875,1.36584375,0.019977014733581627,0.02026108222919505,True
23668,157009,1,157010,3775.0,41671.0,30459.0,-0.0059169999999999995,0.00183,0.001952,0.49000000000000005,-1.0850000000000002,-3.6225000000000005,1.135625,0.30065625,0.20665625,1.3883125,1.08109375,-0.17284375,-0.288125,1.36146875,0.019588096663223583,0.020371323434806105,True
23669,157010,1,157011,3773.0,41672.0,30460.0,-0.004392,0.001098,0.004148,0.5425000000000001,-1.4175000000000002,-3.5700000000000003,1.10415625,0.3140625,0.21140625000000002,1.4076875,1.079875,-0.177,-0.292375,1.36725,0.020311142821690036,0.020738246054574742,True
23670,157011,1,157012,3774.0,41671.0,30460.0,0.004392,-0.000122,-0.0021349999999999997,0.42000000000000004,-1.7500000000000002,-3.6050000000000004,1.11884375,0.31425000000000003,0.2114375,1.39225,1.07934375,-0.1734375,-0.28978125,1.3560625,0.020174520069808032,0.02063496351989584,True
23671,157012,1,157013,3775.0,41671.0,30460.0,0.0032329999999999998,0.000244,-0.002379,0.5775,-1.6800000000000002,-3.5700000000000003,1.11328125,0.3144375,0.20678125,1.40103125,1.086125,-0.17278125,-0.2888125,1.3554375,0.020155676128496797,0.020404198434979072,True
23672,157013,1,157014,3775.0,41673.0,30461.0,0.001403,0.001464,-0.0008539999999999999,0.45500000000000007,-1.61,-3.5000000000000004,1.12384375,0.30840625,0.20759375,1.39459375,1.0690625,-0.1731875,-0.28928125,1.3628437500000001,0.019922641563095474,0.020456554267121427,True
23673,157014,1,157015,3775.0,41674.0,30461.0,-0.00061,-0.001403,0.0011589999999999999,0.31500000000000006,-1.5575,-3.5175000000000005,1.116625,0.31153125,0.20853125,1.39840625,1.0851250000000001,-0.17565625,-0.28981250000000003,1.3647500000000001,0.020151986567065787,0.020516574592743357,True
23674,157015,1,157016,3776.0,41672.0,30462.0,-0.002745,-0.00244,0.001586,0.28,-1.5575,-3.5875000000000004,1.12353125,0.31096875,0.2098125,1.3941875000000001,1.07834375,-0.17378125,-0.29259375,1.3643125,0.020052717238847356,0.02068145769736918,True
23675,157016,1,157017,3776.0,41673.0,30460.0,0.000732,0.00042699999999999997,-0.000915,0.15750000000000003,-1.8375000000000001,-3.6575,1.1235625,0.31215625,0.2095,1.3899062500000001,1.08003125,-0.17571875,-0.2861875,1.3630625,0.020180372093383987,0.02041026406470756,True
23676,157017,1,157018,3776.0,41675.0,30460.0,0.001586,-6.1e-05,-0.00042699999999999997,0.1925,-1.9425000000000001,-3.6050000000000004,1.12125,0.3085,0.20934375,1.395,1.0793125000000001,-0.17359375,-0.292375,1.35690625,0.019942990479022177,0.020653342869933467,True
23677,157018,1,157019,3776.0,41674.0,30458.0,0.00061,-0.0013419999999999999,0.002379,0.22750000000000004,-1.8200000000000003,-3.6225000000000005,1.1163750000000001,0.30784375,0.20600000000000002,1.40096875,1.0864375,-0.17221875,-0.2889375,1.36015625,0.019860092487372517,0.020377074954390246,True
23678,157019,1,157020,3778.0,41677.0,30461.0,0.00122,0.000244,0.000366,0.28,-1.6275000000000002,-3.7100000000000004,1.1116875,0.31203125,0.21309375,1.39440625,1.07915625,-0.17400000000000002,-0.28775,1.367625,0.020105536940514604,0.020621249395271282,True
23679,157020,1,157021,3777.0,41675.0,30460.0,0.000122,0.0011589999999999999,-0.001952,0.29750000000000004,-1.4525000000000001,-3.6750000000000003,1.112625,0.3085625,0.20671875,1.39865625,1.08728125,-0.17275000000000001,-0.2888125,1.35996875,0.019911367138616833,0.020401625233839656,True
23680,157021,1,157022,3779.0,41677.0,30462.0,-0.002745,0.00061,0.002074,0.35000000000000003,-1.4525000000000001,-3.6050000000000004,1.11721875,0.31146875,0.2090625,1.39521875,1.081,-0.17709375,-0.28615625,1.3673125,0.020207660401697372,0.02039098920810081,True
23681,157022,1,157023,3780.0,41677.0,30464.0,-0.0023179999999999997,-0.000122,0.00122,0.35000000000000003,-1.5750000000000002,-3.6225000000000005,1.1254375,0.3118125,0.20840625000000002,1.38803125,1.07825,-0.1734375,-0.29009375,1.3683125,0.020073686251696723,0.020522769699067134,True
23682,157023,1,157024,3779.0,41677.0,30463.0,0.000183,-0.000305,-0.000244,0.24500000000000002,-1.715,-3.5875000000000004,1.117625,0.3115625,0.2095625,1.3884375,1.0865625,-0.17615625000000001,-0.28909375,1.3685625000000001,0.020173543923054354,0.020530047565072287,True
23683,157024,1,157025,3782.0,41677.0,30464.0,0.0017079999999999999,-0.000183,-0.00183,0.28,-1.7850000000000001,-3.5700000000000003,1.1165,0.310625,0.208875,1.4015,1.08490625,-0.17465625,-0.29146875,1.3609375000000001,0.020073966925589683,0.020597509156378202,True
23684,157025,1,157026,3781.0,41677.0,30464.0,0.003294,-0.001098,-0.0011589999999999999,0.3325,-1.7325000000000002,-3.5525,1.10890625,0.30890625,0.20790625000000001,1.3945625,1.069125,-0.17328125,-0.29,1.36390625,0.019947126540795945,0.02049840469328942,True
23685,157026,1,157027,3781.0,41677.0,30464.0,0.000305,-0.000915,0.002562,0.36750000000000005,-1.2075,-3.5000000000000004,1.1161875,0.31146875,0.2084375,1.3983125,1.0850312500000001,-0.1765625,-0.29128125,1.36171875,0.020186130679247724,0.020571938748599354,True
23686,157027,1,157028,3784.0,41676.0,30465.0,-0.002623,-6.1e-05,-0.0008539999999999999,0.1925,-0.9625000000000001,-3.5875000000000004,1.1214375,0.30903125,0.20753125,1.4003125,1.079,-0.17078125,-0.2895,1.36165625,0.019850930552772265,0.02046280285720167,True
23687,157028,1,157029,3784.0,41675.0,30466.0,-0.003721,0.0018909999999999999,-0.001647,0.2625,-1.0325000000000002,-3.5525,1.1215,0.3100625,0.20865625000000002,1.39146875,1.079875,-0.17284375,-0.28909375,1.3635625,0.019977221339545537,0.0204927365805898,True
23688,157029,1,157030,3785.0,41677.0,30467.0,-0.003904,0.002257,0.0006709999999999999,0.35000000000000003,-1.155,-3.6575,1.11678125,0.31109375,0.21021875,1.3945,1.07965625,-0.17515625,-0.28778125,1.3682812500000001,0.020113623877818784,0.020504137239790072,True
23689,157030,1,157031,3788.0,41679.0,30468.0,-0.0021349999999999997,0.000793,0.002196,0.3325,-1.5225000000000002,-3.6925000000000003,1.11740625,0.311,0.2088125,1.39925,1.0856875,-0.17315625,-0.2891875,1.3625625000000001,0.020028673334703654,0.020502950129558675,True
23690,157031,1,157032,3789.0,41675.0,30468.0,0.001464,-0.000732,-0.001403,0.3325,-2.1,-3.6925000000000003,1.12515625,0.30703125000000003,0.20678125,1.40059375,1.0799375,-0.17350000000000002,-0.28921875,1.3554375,0.0198784309264277,0.02042058269165203,True
23691,157032,1,157033,3789.0,41677.0,30469.0,0.003355,0.002745,-0.0018909999999999999,0.43750000000000006,-2.1,-3.6925000000000003,1.12478125,0.30865625,0.2081875,1.4005625,1.074375,-0.17325000000000002,-0.2894375,1.36221875,0.019935517565904462,0.02048730029256544,True
23692,157033,1,157034,3791.0,41679.0,30469.0,0.003843,0.002196,0.0008539999999999999,0.31500000000000006,-2.1525000000000003,-3.6400000000000006,1.12009375,0.308625,0.20771875,1.39878125,1.07009375,-0.17271875,-0.28978125,1.3578125,0.019912685659324105,0.020481864158410235,True
23693,157034,1,157035,3790.0,41677.0,30470.0,0.0048189999999999995,-0.001952,-0.00042699999999999997,0.1925,-1.8550000000000002,-3.6925000000000003,1.123125,0.30865625,0.2070625,1.396125,1.07525,-0.1718125,-0.281,1.3565,0.01987723303744806,0.020100593056299167,True
23694,157035,1,157036,3793.0,41680.0,30470.0,-0.0008539999999999999,-0.0032329999999999998,-0.00122,0.1925,-1.5925000000000002,-3.5525,1.11625,0.31140625,0.2078125,1.39415625,1.07403125,-0.170875,-0.28584375,1.35634375,0.019952990944680324,0.020326913698438004,True
23695,157036,1,157037,3795.0,41679.0,30472.0,-0.0032329999999999998,0.000549,-0.001037,0.28,-1.0675000000000001,-3.535,1.1165,0.31515625,0.20859375,1.39465625,1.07290625,-0.16975,-0.2880625,1.3708437500000001,0.020062526505238987,0.020448574273884548,True
23696,157037,1,157038,3795.0,41679.0,30470.0,-0.002928,-0.00061,0.001403,0.17500000000000002,-1.12,-3.5525,1.11778125,0.31390625,0.2095,1.39653125,1.09234375,-0.18109375,-0.2940625,1.37546875,0.02047053806240671,0.02072780128889518,True
23697,157038,1,157039,3797.0,41679.0,30473.0,-0.000183,0.000244,0.001098,0.22750000000000004,-1.1900000000000002,-3.5175000000000005,1.1182812500000001,0.312,0.207625,1.394875,1.0931875,-0.1796875,-0.29734375,1.3755,0.020334733441033925,0.02078287878690443,True
23698,157039,1,157040,3794.0,41682.0,30474.0,0.000366,0.000732,-0.000366,0.2625,-1.155,-3.6575,1.1128437500000001,0.311875,0.2104375,1.3945625,1.0888125,-0.1816875,-0.290375,1.37196875,0.02041058962489694,0.020617734390679435,True
23699,157040,1,157041,3798.0,41680.0,30475.0,-0.0034159999999999998,0.000183,0.000366,0.24500000000000002,-1.1025,-3.7625,1.1164687500000001,0.31103125,0.2099375,1.39528125,1.089625,-0.178125,-0.2839375,1.3593125,0.020231355822670282,0.020337517340423068,True
23700,157041,1,157042,3800.0,41680.0,30476.0,0.0028669999999999998,0.001037,-0.000732,0.2625,-1.5225000000000002,-3.7800000000000002,1.117,0.3118125,0.21290625,1.394875,1.09215625,-0.1806875,-0.297375,1.36271875,0.020367493686852367,0.021001497075301346,True
23701,157042,1,157043,3801.0,41684.0,30476.0,0.0018909999999999999,0.0017079999999999999,-0.000305,0.36750000000000005,-1.7325000000000002,-3.7625,1.11684375,0.3105,0.20934375,1.3956875,1.08884375,-0.17509375,-0.28925,1.3666875,0.020086530171160143,0.020527342342805975,True
23702,157043,1,157044,3801.0,41683.0,30478.0,0.000244,0.000549,-0.000915,0.31500000000000006,-1.8550000000000002,-3.7100000000000004,1.1175625,0.3148125,0.208625,1.4008125,1.08346875,-0.173625,-0.28590625000000003,1.35725,0.020205389137955103,0.020362890513916897,True
23703,157044,1,157045,3803.0,41682.0,30478.0,0.0015249999999999999,-0.000244,-0.000488,0.17500000000000002,-1.7850000000000001,-3.7100000000000004,1.1224687500000001,0.30793750000000003,0.20746875,1.4031875,1.0744375,-0.17203125,-0.2875625,1.36,0.019856368090704006,0.020382088568994934,True
23704,157045,1,157046,3803.0,41685.0,30480.0,0.002928,-0.0006709999999999999,0.000366,0.29750000000000004,-1.7675,-3.6400000000000006,1.1223750000000001,0.31165625,0.2105,1.39521875,1.07996875,-0.1738125,-0.29159375,1.36321875,0.020082423903966327,0.0206694445480754,True
23705,157046,1,157047,3804.0,41686.0,30481.0,0.000183,-0.000183,-0.001647,0.31500000000000006,-1.2950000000000002,-3.4650000000000003,1.11740625,0.31096875,0.212125,1.3948125,1.081625,-0.1770625,-0.29090625000000003,1.36771875,0.020185713214746416,0.020708624240810287,True
23706,157047,1,157048,3805.0,41684.0,30481.0,-0.002074,-0.000549,-0.000915,0.2625,-1.1375000000000002,-3.535,1.11678125,0.31096875,0.20765625000000001,1.39846875,1.0858125,-0.1736875,-0.28778125,1.362625,0.020048916823302197,0.02039863151353111,True
23707,157048,1,157049,3806.0,41687.0,30481.0,-0.003172,0.000793,0.001403,0.14,-1.1025,-3.4650000000000003,1.12115625,0.31043750000000003,0.208375,1.39396875,1.0790625,-0.17275000000000001,-0.29009375,1.3674375,0.019988933820107354,0.02052148316636283,True
23708,157049,1,157050,3808.0,41686.0,30482.0,-0.000244,-0.000732,0.000793,0.1925,-0.9275000000000001,-3.4650000000000003,1.10559375,0.3096875,0.20665625,1.39965625,1.082375,-0.1726875,-0.2884375,1.355875,0.01995537318719733,0.02038392753753715,True
23709,157050,1,157051,3808.0,41686.0,30482.0,0.00122,-0.0013419999999999999,0.000366,0.10500000000000001,-1.0150000000000001,-3.5000000000000004,1.12190625,0.30940625,0.2104375,1.39440625,1.079875,-0.171625,-0.289875,1.362875,0.019900658313208155,0.020597574092085694,True
23710,157051,1,157052,3810.0,41687.0,30483.0,-0.0006709999999999999,6.1e-05,-0.0017079999999999999,0.28,-1.2075,-3.5875000000000004,1.1169375,0.31146875,0.20940625000000002,1.38953125,1.0855625,-0.17446875,-0.28775,1.3689375,0.020101269029955418,0.02046942388652716,True
23711,157052,1,157053,3811.0,41688.0,30485.0,-0.0034159999999999998,0.001037,0.0006709999999999999,0.42000000000000004,-1.225,-3.7275000000000005,1.11715625,0.31109375,0.20890625000000002,1.400125,1.0845,-0.1758125,-0.2881875,1.3605,0.020140222794993962,0.020466481906070595,True
23712,157053,1,157054,3812.0,41687.0,30485.0,-0.003477,0.000793,0.002989,0.45500000000000007,-1.3825,-3.6225000000000005,1.12625,0.3073125,0.20975,1.395375,1.078625,-0.17325000000000002,-0.28925,1.36209375,0.019879929260649687,0.02054406784894552,True
23713,157054,1,157055,3814.0,41690.0,30485.0,-0.001952,0.00061,0.001098,0.43750000000000006,-1.5750000000000002,-3.5700000000000003,1.11540625,0.31090625,0.2085,1.4005,1.08496875,-0.17590625000000001,-0.29103125,1.3534375,0.020136266866934927,0.02056443157389623,True
23714,157055,1,157056,3814.0,41687.0,30484.0,0.00061,-0.0008539999999999999,-0.00183,0.42000000000000004,-1.9250000000000003,-3.6750000000000003,1.12534375,0.31809375,0.21103125,1.3933125,1.07934375,-0.17234375,-0.289875,1.36409375,0.020289199304473732,0.020622018433606597,True
23715,157056,1,157057,3812.0,41687.0,30482.0,0.002745,0.001403,0.000122,0.4025,-2.1,-3.4825000000000004,1.113,0.31221875,0.21184375,1.389875,1.072375,-0.170375,-0.29115625,1.35759375,0.019966332752387995,0.02070712463512312,True
23716,157057,1,157058,3810.0,41685.0,30480.0,0.0008539999999999999,-0.000305,0.001281,0.29750000000000004,-2.1700000000000004,-3.4650000000000003,1.11365625,0.31259375,0.21209375,1.39253125,1.0849375,-0.175375,-0.29246875,1.3688125,0.02018453695133995,0.020770326194203707,True
23717,157058,1,157059,3809.0,41684.0,30480.0,0.000976,-0.001769,0.0018909999999999999,0.2625,-2.1525000000000003,-3.5000000000000004,1.11359375,0.30978125,0.2054375,1.3966875,1.08665625,-0.175625,-0.288875,1.361875,0.020078333031721,0.020351395443387148,True
23718,157059,1,157060,3806.0,41685.0,30476.0,0.001403,-0.00042699999999999997,-0.00042699999999999997,0.21000000000000002,-2.345,-3.5175000000000005,1.12871875,0.3073125,0.20715625000000001,1.39746875,1.07171875,-0.17350000000000002,-0.2900625,1.3614375,0.01989006556766707,0.020470048193577107,True
23719,157060,1,157061,3804.0,41683.0,30476.0,0.002379,-0.000549,-0.0017079999999999999,0.2625,-2.31,-3.5700000000000003,1.1143750000000001,0.31190625,0.20840625000000002,1.40271875,1.07890625,-0.1766875,-0.29131250000000003,1.3656875,0.020209292526116324,0.02057191228345525,True
23720,157061,1,157062,3802.0,41683.0,30473.0,0.001464,-0.000793,0.000305,0.1925,-2.0300000000000002,-3.6225000000000005,1.1293125,0.30759375,0.20753125,1.3934375,1.07884375,-0.16715625,-0.28853125,1.3615625,0.019644429617158617,0.020423733938214155,True
23721,157062,1,157063,3798.0,41682.0,30473.0,6.1e-05,-0.000366,0.0021349999999999997,0.31500000000000006,-1.6275000000000002,-3.7275000000000005,1.11459375,0.31125,0.2075625,1.3968125,1.0804375,-0.17396875,-0.2861875,1.3623125,0.020071952397142073,0.02033048620743787,True
23722,157063,1,157064,3793.0,41682.0,30470.0,-0.001586,0.000976,-0.000976,0.49000000000000005,-1.5050000000000001,-3.6925000000000003,1.11984375,0.31015625,0.211625,1.3924375,1.07928125,-0.17240625,-0.2865625,1.36259375,0.019963362149765292,0.020512886498449505,True
23723,157064,1,157065,3789.0,41680.0,30469.0,-0.004575,0.002562,-0.001586,0.47250000000000003,-1.225,-3.7100000000000004,1.11340625,0.3113125,0.209,1.39803125,1.08271875,-0.17346875,-0.29031250000000003,1.36340625,0.02005426920784796,0.020556034427305126,True
23724,157065,1,157066,3788.0,41678.0,30468.0,-0.00488,0.001586,0.0006709999999999999,0.42000000000000004,-1.2600000000000002,-3.6750000000000003,1.12153125,0.30828125,0.20953125,1.39221875,1.08025,-0.17225000000000001,-0.289,1.364625,0.019879458883637232,0.020524980443822304,True
23725,157066,1,157067,3787.0,41677.0,30467.0,0.000549,-0.002928,0.00061,0.28,-1.6275000000000002,-3.6575,1.1169375,0.31090625,0.20565625,1.401,1.08390625,-0.1753125,-0.28981250000000003,1.3620625,0.020112201238350075,0.020398212213453688,True
23726,157067,1,157068,3783.0,41678.0,30466.0,0.002806,-0.001403,-0.001647,0.08750000000000001,-1.9250000000000003,-3.6050000000000004,1.11928125,0.30825,0.21246875,1.3946875,1.080125,-0.1734375,-0.28959375,1.36753125,0.01992631374830328,0.020669859906570068,True
23727,157068,1,157069,3782.0,41676.0,30463.0,0.003538,-6.1e-05,-0.0011589999999999999,0.22750000000000004,-2.2750000000000004,-3.6225000000000005,1.1162812500000001,0.31153125,0.208375,1.39490625,1.0919375,-0.17853125,-0.2895625,1.3626875,0.020268497491964074,0.020500060468359612,True
23728,157069,1,157070,3781.0,41677.0,30464.0,0.0035989999999999998,-0.001281,-0.000915,0.21000000000000002,-2.2750000000000004,-3.6925000000000003,1.11253125,0.3070625,0.21021875,1.40103125,1.074625,-0.16568750000000002,-0.2868125,1.3521875,0.019562861598702706,0.020465067204681553,True
23729,157070,1,157071,3778.0,41676.0,30463.0,0.004575,-0.000488,-0.000366,0.1925,-2.0125,-3.7450000000000006,1.1242812500000001,0.30884375000000003,0.21,1.39503125,1.084,-0.182625,-0.3010625,1.380625,0.0203232175994128,0.021030459059146075,True
23730,157071,1,157072,3777.0,41676.0,30464.0,0.001769,0.001464,-0.0013419999999999999,0.5075000000000001,-1.155,-3.7275000000000005,1.1175,0.31078125,0.21175,1.397125,1.0890312500000001,-0.168,-0.28271875,1.3503125,0.01981054493545184,0.02036298962611013,True
23731,157072,1,157073,3776.0,41678.0,30462.0,-0.005124,0.0035989999999999998,-0.000305,0.49000000000000005,-0.7175,-3.6225000000000005,1.1205625000000001,0.31134375000000003,0.20696875,1.400875,1.06696875,-0.1715,-0.29178125,1.3675625,0.01997574623006433,0.020531635571187274,True
23732,157073,1,157074,3776.0,41677.0,30463.0,-0.009211,0.003538,0.001769,0.4025,-0.47250000000000003,-3.6925000000000003,1.11709375,0.31140625,0.20934375,1.395375,1.0970312500000001,-0.18409375,-0.29071875,1.3659375,0.02048867346951961,0.02058656662845763,True
23733,157074,1,157075,3775.0,41676.0,30464.0,-0.008539999999999999,0.0006709999999999999,0.001769,0.42000000000000004,-0.6125,-3.7100000000000004,1.116625,0.31109375,0.2071875,1.400375,1.08515625,-0.1678125,-0.282625,1.35115625,0.019815870799229345,0.020171315910038557,True
23734,157075,1,157076,3774.0,41675.0,30463.0,0.00061,-0.001037,-0.000732,0.31500000000000006,-1.4700000000000002,-3.6575,1.115375,0.30878125,0.20559375,1.39825,1.06875,-0.17415625,-0.2920625,1.37590625,0.01997742940873066,0.020486372863563973,True
23735,157076,1,157077,3774.0,41675.0,30462.0,0.002013,-0.000915,-0.001098,0.15750000000000003,-1.8375000000000001,-3.6400000000000006,1.11809375,0.31103125,0.20909375,1.39378125,1.097,-0.1878125,-0.29346875,1.3781875000000001,0.020623764550845594,0.020687144564318343,True
23736,157077,1,157078,3775.0,41677.0,30465.0,0.003843,-0.0011589999999999999,-0.00042699999999999997,0.12250000000000001,-2.1700000000000004,-3.6925000000000003,1.11703125,0.3145,0.20765625000000001,1.40078125,1.08709375,-0.1785,-0.281375,1.35171875,0.020390015923237588,0.020140179458535606,True
23737,157078,1,157079,3774.0,41675.0,30461.0,0.005612,-0.0021349999999999997,0.0006709999999999999,0.07,-2.24,-3.7800000000000002,1.12171875,0.31193750000000003,0.2098125,1.39515625,1.068625,-0.17746875,-0.29846875,1.3725,0.020242245168862024,0.020918242018851497,True
23738,157079,1,157080,3776.0,41674.0,30464.0,0.0073809999999999995,-0.002562,0.00042699999999999997,0.0,-2.2575000000000003,-3.8150000000000004,1.11253125,0.30821875,0.2081875,1.4001875,1.0759375,-0.1741875,-0.28390625,1.3544375,0.019955427664321707,0.02026419246285799,True
23739,157080,1,157081,3776.0,41676.0,30463.0,-0.0021349999999999997,0.002196,-0.001037,0.47250000000000003,-1.4525000000000001,-3.7975000000000003,1.12153125,0.31090625,0.20946875,1.3879375,1.07225,-0.1730625,-0.28803125,1.36715625,0.02002099444371188,0.020483339916651338,True
23740,157081,1,157082,3776.0,41675.0,30460.0,-0.0040869999999999995,0.0037819999999999998,0.001037,0.56,-1.2075,-3.6925000000000003,1.11775,0.3103125,0.20803125,1.39934375,1.08403125,-0.17450000000000002,-0.28875,1.359625,0.02005470640550994,0.02045314188667593,True
23741,157082,1,157083,3775.0,41676.0,30461.0,-0.0035989999999999998,0.0023179999999999997,0.0013419999999999999,0.525,-1.225,-3.6575,1.1170625,0.31078125,0.20909375,1.3893125,1.0709375,-0.17375000000000002,-0.29321875000000003,1.3671875,0.020043694089663378,0.02067706651676201,True
23742,157083,1,157084,3776.0,41675.0,30463.0,-0.004392,0.000366,0.001464,0.49000000000000005,-1.3825,-3.7100000000000004,1.1155,0.311375,0.21371875,1.39384375,1.0795937500000001,-0.1739375,-0.290875,1.367125,0.020075856488004903,0.020772975448599525,True
23743,157084,1,157085,3776.0,41677.0,30463.0,-0.00366,0.000488,-0.000549,0.35000000000000003,-1.5575,-3.6750000000000003,1.1223750000000001,0.31043750000000003,0.2095625,1.39515625,1.08653125,-0.17300000000000001,-0.28946875,1.36278125,0.019999069209448564,0.020545169395687176,True
23744,157085,1,157086,3777.0,41674.0,30462.0,0.001952,-0.000488,-0.001037,0.28,-2.0300000000000002,-3.5875000000000004,1.11728125,0.312125,0.208125,1.3981875000000001,1.0850312500000001,-0.1738125,-0.29081250000000003,1.36234375,0.02010181472202616,0.02054017336801723,True
23745,157086,1,157087,3777.0,41677.0,30464.0,0.004514,-0.001281,-0.000366,0.29750000000000004,-2.1350000000000002,-3.6575,1.1222812500000001,0.309625,0.2073125,1.397,1.07990625,-0.1735625,-0.28915625,1.3620625,0.01998826197007578,0.02043993397259322,True
23746,157087,1,157088,3777.0,41676.0,30461.0,0.0059169999999999995,-0.002257,-0.000122,0.24500000000000002,-2.1350000000000002,-3.6050000000000004,1.11678125,0.31421875,0.20928125,1.3891875,1.07884375,-0.17403125,-0.28865625,1.3618125,0.020197293324835924,0.02050082535957501,True
23747,157088,1,157089,3778.0,41677.0,30461.0,0.0040869999999999995,-0.0028669999999999998,-0.000976,0.21000000000000002,-1.8200000000000003,-3.6050000000000004,1.11721875,0.31209375,0.20946875,1.39478125,1.081,-0.17340625,-0.29084375,1.36725,0.02008405414524484,0.020596752634416005,True
23748,157089,1,157090,3778.0,41676.0,30462.0,0.001403,-0.000183,-0.000549,0.3325,-1.6975000000000002,-3.6925000000000003,1.1188125,0.3161875,0.20046875,1.4090625,1.086875,-0.17334375,-0.29090625000000003,1.3618125,0.020250870341427217,0.02022876359337149,True
23749,157090,1,157091,3778.0,41675.0,30460.0,-0.003294,0.0023179999999999997,0.000976,0.47250000000000003,-1.2950000000000002,-3.5700000000000003,1.131375,0.3151875,0.210875,1.39140625,1.07909375,-0.167125,-0.28415625,1.3574375,0.019957380118652925,0.020384947490197442,True
23750,157091,1,157092,3779.0,41676.0,30463.0,-0.0044529999999999995,0.0006709999999999999,6.1e-05,0.525,-1.225,-3.6400000000000006,1.12925,0.3063125,0.2096875,1.3905,1.082,-0.1655625,-0.28859375,1.36221875,0.019526754239633362,0.02051503084652647,True
23751,157092,1,157093,3779.0,41677.0,30461.0,-0.0035989999999999998,0.000183,0.000366,0.5425000000000001,-1.2425000000000002,-3.6050000000000004,1.1105625000000001,0.3135625,0.21221875,1.3893125,1.0780625,-0.17340625,-0.28934375,1.36296875,0.020144813062908752,0.0206494874938727,True
23752,157093,1,157094,3779.0,41677.0,30464.0,-0.001281,0.001464,0.000793,0.525,-1.3125000000000002,-3.5700000000000003,1.1095,0.30965625,0.200625,1.4095625,1.0870312500000001,-0.17465625,-0.29046875,1.3695625,0.020033893966951443,0.020217549321686106,True
23753,157094,1,157095,3780.0,41677.0,30463.0,0.001403,0.000549,0.0008539999999999999,0.4025,-1.4700000000000002,-3.5875000000000004,1.1329375,0.3051875,0.20296875,1.40346875,1.08484375,-0.1749375,-0.28865625,1.3551875,0.019860444313454795,0.020240930372589058,True
23754,157095,1,157096,3780.0,41678.0,30463.0,0.00244,-0.000793,-0.001403,0.17500000000000002,-1.6450000000000002,-3.5000000000000004,1.12128125,0.31378125,0.2125,1.3902812500000001,1.07971875,-0.173375,-0.2886875,1.361375,0.020152595572608293,0.020634606130940585,True
23755,157096,1,157097,3780.0,41676.0,30464.0,0.002013,-0.000976,0.00061,0.21000000000000002,-1.6450000000000002,-3.4475000000000002,1.11096875,0.31246875,0.21196875,1.3820000000000001,1.07965625,-0.173125,-0.28931250000000003,1.362125,0.02008816609354397,0.020637934894205012,True
23756,157097,1,157098,3780.0,41675.0,30463.0,0.00183,-0.001464,-0.000244,0.28,-1.4525000000000001,-3.4825000000000004,1.11103125,0.316125,0.20728125,1.4077187500000001,1.07975,-0.1745625,-0.29031250000000003,1.36890625,0.020297678603283926,0.0204852757658017,True
23757,157098,1,157099,3782.0,41678.0,30463.0,0.0,-0.0013419999999999999,0.000305,0.29750000000000004,-1.3475000000000001,-3.3075,1.1303750000000001,0.30596875,0.2129375,1.38984375,1.07946875,-0.17350000000000002,-0.288875,1.36134375,0.019834477837301176,0.020660178785555115,True
23758,157099,1,157100,3783.0,41678.0,30463.0,-0.001464,-0.000366,0.002928,0.28,-1.1725,-3.3075,1.1111875,0.3124375,0.212125,1.3897187500000001,1.08015625,-0.17415625,-0.28890625000000003,1.3620625,0.020128675638886054,0.02062798731416735,True
23759,157100,1,157101,3785.0,41679.0,30467.0,-0.00244,-0.000915,-0.001098,0.385,-0.8225000000000001,-3.3775000000000004,1.1106875,0.3128125,0.21078125,1.39115625,1.0819375,-0.16971875,-0.291625,1.36653125,0.019964288992812544,0.0206822824738979,True
23760,157101,1,157102,3785.0,41681.0,30466.0,-0.0025009999999999998,0.000488,0.001403,0.3325,-0.8225000000000001,-3.3950000000000005,1.11490625,0.31471875,0.21021875,1.39503125,1.0849375,-0.175875,-0.29090625000000003,1.35821875,0.02029269881648544,0.020630148370853807,True
23761,157102,1,157103,3785.0,41679.0,30468.0,-0.0023179999999999997,0.000549,-0.000732,0.35000000000000003,-0.8400000000000001,-3.3775000000000004,1.1171875,0.311,0.209,1.39446875,1.08734375,-0.17746875,-0.28990625000000003,1.37009375,0.02020346939751499,0.020539653173836353,True
23762,157103,1,157104,3785.0,41681.0,30470.0,0.0008539999999999999,-0.0011589999999999999,-0.0013419999999999999,0.47250000000000003,-0.9275000000000001,-3.325,1.1166875,0.31078125,0.20509375,1.4015312500000001,1.0864375,-0.17721875,-0.29003125,1.3561875,0.020184290221554123,0.020383876616050053,True
23763,157104,1,157105,3787.0,41682.0,30470.0,-0.000732,-0.0006709999999999999,-0.000549,0.47250000000000003,-0.9625000000000001,-3.43,1.1123125,0.31078125,0.2095,1.3916875,1.08015625,-0.17328125,-0.29078125,1.36825,0.02002469151762341,0.0205955191334161,True
23764,157105,1,157106,3790.0,41683.0,30474.0,-0.003477,0.002379,0.001647,0.6125,-1.5225000000000002,-3.6750000000000003,1.1167500000000001,0.3103125,0.2095,1.39478125,1.08803125,-0.17553125,-0.289125,1.36990625,0.020096507703424304,0.02052873456742472,True
23765,157106,1,157107,3790.0,41686.0,30473.0,0.000732,0.002806,-0.000305,0.6125,-1.9250000000000003,-3.6750000000000003,1.11653125,0.3108125,0.21240625,1.395375,1.0860625,-0.1758125,-0.29240625,1.35640625,0.020128589266648227,0.02078067091439326,True
23766,157107,1,157108,3789.0,41683.0,30473.0,0.002745,0.003477,0.001281,0.43750000000000006,-2.205,-3.7800000000000002,1.11709375,0.31025,0.20971875,1.3910625,1.0861875,-0.17640625000000001,-0.28903125,1.3673125,0.020129387509775155,0.02053396015948557,True
23767,157108,1,157109,3791.0,41683.0,30474.0,0.0028669999999999998,0.002257,0.00122,0.43750000000000006,-2.345,-3.7625,1.116625,0.30890625,0.2058125,1.3986875,1.08509375,-0.17678125,-0.2875625,1.362,0.020089005851430284,0.02031389522929689,True
23768,157109,1,157110,3792.0,41684.0,30477.0,0.0028669999999999998,0.001281,0.000976,0.49000000000000005,-2.31,-3.8325000000000005,1.1163125,0.30815625,0.2063125,1.4016875,1.08,-0.1681875,-0.28828125,1.362125,0.01970953552060948,0.02036347261089131,True
23769,157110,1,157111,3793.0,41685.0,30476.0,0.0026839999999999998,-0.003294,-0.002928,0.2625,-1.9775000000000003,-3.7450000000000006,1.12121875,0.3120625,0.20621875,1.40078125,1.07890625,-0.17075,-0.28790625000000003,1.35140625,0.019975073177290734,0.02034448728984204,True
23770,157111,1,157112,3795.0,41685.0,30477.0,0.001586,-0.0050019999999999995,-0.002196,-0.035,-1.6625,-3.7275000000000005,1.12221875,0.30790625,0.209375,1.40296875,1.07934375,-0.1728125,-0.28875,1.3624687500000001,0.019886752937830467,0.020508465853533015,True
23771,157112,1,157113,3795.0,41683.0,30474.0,-0.00061,-0.005612,-0.000122,-0.12250000000000001,-1.61,-3.7275000000000005,1.124875,0.308875,0.20596875,1.4008125,1.06821875,-0.1731875,-0.28750000000000003,1.3525,0.0199420328825067,0.02031780751415337,True
23772,157113,1,157114,3797.0,41685.0,30474.0,-0.0026839999999999998,-0.0040869999999999995,0.001037,-0.035,-1.5750000000000002,-3.8325000000000005,1.12353125,0.307125,0.20840625000000002,1.40040625,1.07996875,-0.173875,-0.2805,1.3626562500000001,0.019897513327921154,0.020135757089022058,True
23773,157114,1,157115,3796.0,41683.0,30475.0,-0.003721,-0.000244,0.000244,0.052500000000000005,-1.7500000000000002,-3.8850000000000002,1.12534375,0.308125,0.2065625,1.3965625,1.079625,-0.17371875,-0.2880625,1.361875,0.019932545545976454,0.02036494265444187,True
23774,157115,1,157116,3800.0,41684.0,30473.0,-0.001037,0.003294,0.002196,0.21000000000000002,-2.2225,-3.7975000000000003,1.1224375,0.31075,0.20875,1.395125,1.0798125,-0.17400000000000002,-0.2884375,1.36815625,0.02005253578224539,0.020470131106622234,True
23775,157116,1,157117,3801.0,41683.0,30476.0,0.0028669999999999998,0.002928,0.001403,0.42000000000000004,-2.2575000000000003,-3.7100000000000004,1.11703125,0.31034375000000003,0.20884375,1.4015625,1.0855625,-0.175625,-0.28925,1.366,0.020101600268865854,0.02050675710448038,True
23776,157117,1,157118,3802.0,41684.0,30476.0,0.005429,0.0028669999999999998,-0.001281,0.36750000000000005,-2.2925000000000004,-3.6925000000000003,1.12253125,0.311875,0.21365625,1.39978125,1.0794062500000001,-0.17375000000000002,-0.28821875,1.3560625,0.020088939448782255,0.02066331027259873,True
23777,157118,1,157119,3803.0,41687.0,30478.0,0.005246,0.0018909999999999999,-0.001403,0.36750000000000005,-2.1,-3.6575,1.12003125,0.30975,0.20959375,1.3942812500000001,1.07965625,-0.171875,-0.2884375,1.361875,0.01992501616031028,0.02050486985834309,True
23778,157119,1,157120,3803.0,41686.0,30478.0,0.0034159999999999998,0.000549,-0.002562,0.35000000000000003,-1.6975000000000002,-3.6750000000000003,1.116875,0.31093750000000003,0.2095,1.394375,1.07965625,-0.17390625,-0.28878125,1.36803125,0.020056491697530265,0.020514872478420466,True
23779,157120,1,157121,3804.0,41688.0,30479.0,-0.00366,-0.0008539999999999999,0.000488,0.42000000000000004,-0.9100000000000001,-3.5000000000000004,1.11740625,0.30896875,0.2074375,1.3983125,1.08496875,-0.173125,-0.28796875,1.36225,0.019943377200920445,0.020397187393449687,True
23780,157121,1,157122,3805.0,41688.0,30479.0,-0.0053679999999999995,-0.002074,0.000793,0.28,-0.8225000000000001,-3.5875000000000004,1.1195,0.31096875,0.20965625000000002,1.39546875,1.07965625,-0.1736875,-0.291875,1.36953125,0.020048916823302197,0.020646049347775745,True
23781,157122,1,157123,3808.0,41688.0,30481.0,-0.006954,-0.001403,0.0008539999999999999,0.2625,-0.9100000000000001,-3.5000000000000004,1.1163750000000001,0.3100625,0.21103125,1.39475,1.09184375,-0.1794375,-0.290125,1.37290625,0.020244474256276644,0.020632098435063632,True
23782,157123,1,157124,3808.0,41689.0,30482.0,-0.004941,-0.001464,0.00244,0.08750000000000001,-1.05,-3.5875000000000004,1.116875,0.3095625,0.2075625,1.40096875,1.083875,-0.17240625,-0.28684375,1.35996875,0.019938799017991848,0.020356957663549842,True
23783,157124,1,157125,3809.0,41688.0,30482.0,-0.0021349999999999997,-0.002013,0.0017079999999999999,0.12250000000000001,-1.5225000000000002,-3.6225000000000005,1.12540625,0.3076875,0.20971875,1.3960000000000001,1.07640625,-0.1739375,-0.2880625,1.3526875,0.01992331617470261,0.0204948933246528,True
23784,157125,1,157126,3810.0,41687.0,30482.0,0.0053679999999999995,0.0013419999999999999,-0.001037,0.28,-2.3275,-3.5525,1.11784375,0.31075,0.209,1.382625,1.085875,-0.1760625,-0.2929375,1.37096875,0.02013613672615216,0.020661869319015043,True
23785,157126,1,157127,3812.0,41687.0,30485.0,0.002013,0.0051849999999999995,0.001464,0.43750000000000006,-2.4675000000000002,-3.6050000000000004,1.1486875,0.30134375,0.2075625,1.41471875,1.0875625,-0.16618750000000002,-0.28625,1.35034375,0.019346504284136673,0.02033300736013176,True
23786,157127,1,157128,3814.0,41688.0,30481.0,0.0026839999999999998,0.0023179999999999997,0.0015249999999999999,0.385,-2.415,-3.535,1.1266875,0.30440625,0.2199375,1.385,1.0765,-0.17250000000000001,-0.2886875,1.35825,0.019729289481849207,0.020940818642423555,True
23787,157128,1,157129,3815.0,41689.0,30484.0,0.004331,-0.001464,-0.00122,0.28,-2.1875,-3.4475000000000002,1.10596875,0.3141875,0.2089375,1.4038125000000001,1.077375,-0.17125,-0.28846875,1.370875,0.020083260071365776,0.02047911110081816,True
23788,157129,1,157130,3816.0,41689.0,30485.0,0.0048189999999999995,-0.001769,-0.001037,0.36750000000000005,-1.7325000000000002,-3.5000000000000004,1.13746875,0.30378125,0.2024375,1.404375,1.08409375,-0.1716875,-0.2868125,1.35840625,0.019670482253256003,0.020144677281137655,True
23789,157130,1,157131,3817.0,41690.0,30486.0,-0.003538,0.001281,-0.0006709999999999999,0.525,-0.7000000000000001,-3.4825000000000004,1.1271875,0.31525000000000003,0.21471875,1.38503125,1.077125,-0.17378125,-0.28875,1.36009375,0.02022982027273867,0.020728475117080952,True
23790,157131,1,157132,3818.0,41691.0,30486.0,-0.012565999999999999,0.001037,-0.002257,0.3325,-0.77,-3.3775000000000004,1.09553125,0.31403125,0.2144375,1.384625,1.0810625,-0.17465625,-0.2920625,1.3694375,0.020214868618866087,0.020850432111312076,True
23791,157132,1,157133,3818.0,41690.0,30490.0,-0.008845,0.0021349999999999997,0.007137,0.35000000000000003,-1.2950000000000002,-3.3950000000000005,1.10440625,0.314,0.2200625,1.38375,1.07846875,-0.1758125,-0.2905625,1.3624375,0.020260435921233257,0.021021538714881553,True
23792,157133,1,157134,3821.0,41692.0,30490.0,0.006588,-0.003721,-0.00183,0.12250000000000001,-1.8375000000000001,-3.4650000000000003,1.10559375,0.31453125,0.2071875,1.4053437500000001,1.077875,-0.17284375,-0.2876875,1.36190625,0.020162087880123747,0.020375550368885467,True
23793,157134,1,157135,3822.0,41692.0,30491.0,0.0062829999999999995,-0.0011589999999999999,-0.0018909999999999999,-0.0175,-2.0825,-3.4650000000000003,1.12753125,0.3051875,0.20984375,1.39225,1.07809375,-0.1730625,-0.28931250000000003,1.36146875,0.019784419123559542,0.020550447856438916,True
23794,157135,1,157136,3823.0,41693.0,30490.0,-0.0013419999999999999,0.0050019999999999995,0.000488,0.385,-1.4525000000000001,-3.6050000000000004,1.1069375000000001,0.31340625,0.21396875,1.38478125,1.07803125,-0.17103125,-0.28965625,1.368125,0.020042069988221955,0.020734134514563168,True
23795,157136,1,157137,3824.0,41694.0,30492.0,-0.003477,0.003721,0.000976,0.36750000000000005,-1.0325000000000002,-3.6225000000000005,1.10596875,0.310625,0.21290625,1.38903125,1.08475,-0.1764375,-0.29,1.36971875,0.020146165041892546,0.020704250720461097,True
23796,157137,1,157138,3823.0,41693.0,30492.0,-0.003355,-6.1e-05,0.000549,0.31500000000000006,-0.8575,-3.43,1.11303125,0.3110625,0.2093125,1.39471875,1.08440625,-0.17646875,-0.28771875,1.3665625000000001,0.02016552768898477,0.020464303589648576,True
23797,157138,1,157139,3824.0,41695.0,30493.0,-0.004331,-0.0011589999999999999,0.0013419999999999999,0.28,-0.8400000000000001,-3.4650000000000003,1.1167500000000001,0.30915625,0.20715625000000001,1.3998125000000001,1.081375,-0.17359375,-0.28475,1.3615625,0.019970137869964,0.020255767508415776,True
23798,157139,1,157140,3826.0,41696.0,30492.0,-0.0018909999999999999,0.002562,0.002623,0.47250000000000003,-0.9975,-3.5000000000000004,1.1103750000000001,0.30909375,0.2080625,1.4005625,1.0795937500000001,-0.17415625,-0.28846875,1.353625,0.019990356436949068,0.02044308577501412,True
23799,157140,1,157141,3823.0,41694.0,30491.0,-6.1e-05,0.00061,0.001403,0.36750000000000005,-1.3475000000000001,-3.5525,1.12090625,0.3100625,0.21040625000000002,1.39671875,1.07915625,-0.17378125,-0.291125,1.3550312500000001,0.020015228275468904,0.020646686804336973,True
23800,157141,1,157142,3820.0,41694.0,30488.0,0.001037,-0.000732,-0.0006709999999999999,0.36750000000000005,-1.5050000000000001,-3.6750000000000003,1.10490625,0.30984375000000003,0.2085,1.3948125,1.0856875,-0.17659375,-0.28984375,1.3701875000000001,0.02012018339018498,0.020516548197227494,True
23801,157142,1,157143,3819.0,41695.0,30489.0,0.0035989999999999998,-0.000732,-0.002379,0.29750000000000004,-1.7325000000000002,-3.5875000000000004,1.11975,0.30825,0.20734375,1.40278125,1.07153125,-0.173375,-0.28290625,1.36159375,0.019923779778371866,0.020189099070462378,True
23802,157143,1,157144,3816.0,41698.0,30485.0,0.004209,-0.000549,-0.002623,0.3325,-1.8725000000000003,-3.6575,1.1223125,0.30728125,0.209625,1.39725,1.0796875000000001,-0.17446875,-0.28646875,1.3613125,0.019928049091047763,0.020426755124702926,True
23803,157144,1,157145,3812.0,41695.0,30483.0,0.000366,-0.000122,6.1e-05,0.15750000000000003,-1.8200000000000003,-3.6575,1.11721875,0.30978125,0.2111875,1.38996875,1.0846875,-0.17715625000000002,-0.29271875,1.3666562500000001,0.020140395957444334,0.020743098176279673,True
23804,157145,1,157146,3810.0,41692.0,30479.0,-0.0037819999999999998,-0.000976,0.0011589999999999999,0.1925,-1.7325000000000002,-3.6575,1.11734375,0.30943750000000003,0.2089375,1.3945625,1.087625,-0.17550000000000002,-0.2910625,1.36821875,0.020059047382680814,0.020583702339080474,True
23805,157146,1,157147,3807.0,41695.0,30481.0,-0.0044529999999999995,0.00061,0.003294,0.17500000000000002,-1.8375000000000001,-3.6925000000000003,1.11634375,0.309625,0.20984375,1.39321875,1.0872187500000001,-0.1764375,-0.2914375,1.367125,0.02010480245486954,0.02063612950036407,True
23806,157147,1,157148,3802.0,41692.0,30478.0,-0.001403,0.000183,0.000244,0.17500000000000002,-1.9600000000000002,-3.5875000000000004,1.116875,0.31,0.20921875,1.39434375,1.08559375,-0.17640625000000001,-0.29031250000000003,1.3700625,0.020119046849653266,0.020565040075132837,True
23807,157148,1,157149,3802.0,41689.0,30476.0,0.0008539999999999999,0.000732,-0.0015249999999999999,0.28,-2.205,-3.5700000000000003,1.1110625,0.30965625,0.2094375,1.3945,1.08546875,-0.17396875,-0.28621875,1.36771875,0.020006024041873554,0.02040895106406797,True
23808,157149,1,157150,3801.0,41689.0,30478.0,0.003721,-0.000732,-0.000183,0.28,-2.0300000000000002,-3.7625,1.1175625,0.30934375000000003,0.20553125,1.401875,1.08325,-0.1748125,-0.28871875,1.361625,0.020027301142459743,0.02034895315340584,True
23809,157150,1,157151,3797.0,41689.0,30475.0,0.0006709999999999999,-0.001464,-0.0008539999999999999,0.21000000000000002,-1.7850000000000001,-3.6050000000000004,1.1131875,0.308875,0.20921875,1.3942812500000001,1.0723125,-0.17296875,-0.28800000000000003,1.3673125,0.019933163980944624,0.020471786478919632,True
23810,157151,1,157152,3794.0,41689.0,30473.0,-0.00244,-0.00122,6.1e-05,0.21000000000000002,-1.715,-3.6400000000000006,1.1162812500000001,0.31015625,0.2074375,1.4015312500000001,1.0835000000000001,-0.17440625,-0.288375,1.3628125,0.020044442663405642,0.020413572336560187,True
23811,157152,1,157153,3793.0,41687.0,30474.0,-0.002013,0.001281,-0.0017079999999999999,0.15750000000000003,-1.8025000000000002,-3.7275000000000005,1.12415625,0.30734375,0.20559375,1.40146875,1.0723125,-0.1738125,-0.28853125,1.36234375,0.019904028377815873,0.02034396377920135,True
23812,157153,1,157154,3792.0,41689.0,30474.0,-0.002196,-0.00061,0.002013,0.15750000000000003,-2.0475000000000003,-3.6575,1.12465625,0.30743750000000003,0.2073125,1.39509375,1.07859375,-0.1743125,-0.288625,1.36190625,0.0199281778954417,0.02041850866403512,True
23813,157154,1,157155,3791.0,41688.0,30475.0,0.00122,-0.001464,0.0013419999999999999,0.31500000000000006,-2.8175000000000003,-3.6925000000000003,1.117375,0.309125,0.21015625000000002,1.40259375,1.07903125,-0.17559375,-0.28800000000000003,1.3621875,0.020049921214447937,0.020510385787220028,True
23814,157155,1,157156,3791.0,41685.0,30472.0,0.004148,0.001464,-0.0008539999999999999,0.36750000000000005,-3.0975,-3.7275000000000005,1.1229375,0.30690625,0.2085625,1.4019062500000001,1.07971875,-0.172875,-0.28846875,1.3606562500000001,0.01984791837958869,0.020463671675473572,True
23815,157156,1,157157,3789.0,41688.0,30473.0,0.006039,0.0030499999999999998,0.000244,0.43750000000000006,-2.975,-3.7450000000000006,1.1175625,0.310125,0.21021875,1.39521875,1.0798125,-0.17640625000000001,-0.29209375,1.3710625,0.02012421717971421,0.02067802409991934,True
23816,157157,1,157158,3788.0,41685.0,30469.0,0.0060999999999999995,0.000732,-0.0018909999999999999,0.3325,-2.6075000000000004,-3.7975000000000003,1.1150625,0.30928125,0.20750000000000002,1.40115625,1.08171875,-0.16515625,-0.2879375,1.359375,0.01963312362195051,0.020398500284348968,True
23817,157158,1,157159,3788.0,41686.0,30470.0,0.0040869999999999995,-0.000915,-0.000976,0.35000000000000003,-1.9600000000000002,-3.6925000000000003,1.124,0.307875,0.20878125,1.39646875,1.07790625,-0.17928125,-0.294875,1.3703750000000001,0.020147672917283265,0.020730966922036027,True
23818,157159,1,157160,3786.0,41688.0,30471.0,-0.00549,0.001647,-0.000366,0.385,-0.9625000000000001,-3.6575,1.11703125,0.30978125,0.20959375,1.3994375000000001,1.094875,-0.17525000000000002,-0.28525,1.3570312500000001,0.0200631327494028,0.020376308664724473,True
23819,157160,1,157161,3788.0,41687.0,30473.0,-0.008845,0.000183,-0.000488,0.24500000000000002,-0.5775,-3.7450000000000006,1.122875,0.31125,0.21034375,1.3951875,1.073125,-0.176,-0.2931875,1.37390625,0.020154285241561883,0.020727261500780827,True
23820,157161,1,157162,3787.0,41687.0,30472.0,-0.010797,-0.0006709999999999999,0.0011589999999999999,0.24500000000000002,-0.8225000000000001,-3.7100000000000004,1.11659375,0.30993750000000003,0.20678125,1.40075,1.08671875,-0.17096875,-0.28615625,1.35140625,0.019896027129653215,0.020297057093997737,True
23821,157162,1,157163,3788.0,41686.0,30474.0,-0.008723,-0.001098,0.003111,0.22750000000000004,-1.4700000000000002,-3.7275000000000005,1.11696875,0.30978125,0.20909375,1.39615625,1.09609375,-0.17503125,-0.284625,1.35678125,0.020054265700277015,0.020330507471290993,True
23822,157163,1,157164,3788.0,41687.0,30472.0,-0.0021349999999999997,-0.000976,0.000793,0.29750000000000004,-2.3975000000000004,-3.7800000000000002,1.1228125,0.307125,0.20621875,1.3897187500000001,1.0614375,-0.17200000000000001,-0.29046875,1.3711875,0.01982148767168625,0.020447835120514093,True
23823,157164,1,157165,3786.0,41685.0,30472.0,0.010614,0.000488,-0.001769,0.21000000000000002,-3.6225000000000005,-3.8325000000000005,1.11725,0.31115625,0.20971875,1.395125,1.09134375,-0.182,-0.2885,1.369625,0.020393526176494915,0.020512536797249726,True
23824,157165,1,157166,3790.0,41686.0,30469.0,0.011407,0.0006709999999999999,-0.001464,0.36750000000000005,-3.6925000000000003,-3.8500000000000005,1.11721875,0.30953125,0.21234375,1.3961875000000001,1.07646875,-0.1723125,-0.28446875,1.356875,0.01993370514302262,0.020458034520520446,True
23825,157166,1,157167,3787.0,41680.0,30469.0,0.010248,0.0006709999999999999,-0.000549,0.4025,-3.325,-3.8325000000000005,1.1220625,0.30903125,0.2086875,1.39540625,1.0728125,-0.17334375,-0.291,1.3744687500000001,0.019954831445277404,0.02057089045325429,True
23826,157167,1,157168,3788.0,41684.0,30469.0,0.004209,0.001037,-0.002257,0.45500000000000007,-2.4675000000000002,-3.8850000000000002,1.11728125,0.313875,0.20953125,1.3956875,1.08734375,-0.179,-0.29031250000000003,1.3666875,0.020384424500599695,0.020577905286315278,True
23827,157168,1,157169,3791.0,41683.0,30470.0,-0.0018909999999999999,0.000793,-0.0006709999999999999,0.4025,-1.6275000000000002,-3.8500000000000005,1.1164687500000001,0.31003125,0.20953125,1.39484375,1.08265625,-0.1748125,-0.29165625,1.3686562500000001,0.020055739832521968,0.020632084319075608,True
23828,157169,1,157170,3790.0,41682.0,30470.0,-0.010492,0.000305,0.00244,0.42000000000000004,-0.8575,-3.7275000000000005,1.11715625,0.3105625,0.20665625,1.40025,1.08234375,-0.1703125,-0.28896875,1.3616875,0.019895274419807357,0.02040535376784986,True
23829,157170,1,157171,3791.0,41685.0,30470.0,-0.008296,-0.00061,0.001098,0.31500000000000006,-1.0675000000000001,-3.6925000000000003,1.12234375,0.30971875,0.20896875,1.4016250000000001,1.079625,-0.1738125,-0.28865625,1.3613125,0.02000227518931902,0.020487959271110356,True
23830,157171,1,157172,3791.0,41686.0,30472.0,-0.0021349999999999997,-0.001281,0.00061,0.3325,-1.5050000000000001,-3.7625,1.12315625,0.30725,0.20515625,1.3995,1.07965625,-0.170875,-0.28821875,1.36115625,0.019781038129567094,0.020313346362626945,True
23831,157172,1,157173,3792.0,41687.0,30470.0,0.002074,-0.001403,-0.001403,0.35000000000000003,-1.9425000000000001,-3.7275000000000005,1.12359375,0.30834375,0.2070625,1.4004375,1.079,-0.17390625,-0.29028125,1.36121875,0.01994919625370848,0.020475009938388425,True
23832,157173,1,157174,3791.0,41687.0,30471.0,0.0048189999999999995,0.000122,-0.0018909999999999999,0.5425000000000001,-2.2750000000000004,-3.5525,1.121875,0.30765625,0.2055625,1.40046875,1.08046875,-0.16890625,-0.2878125,1.3615,0.01971800027152656,0.020313686133734767,True
23833,157174,1,157175,3794.0,41687.0,30472.0,0.003355,0.00042699999999999997,0.000915,0.35000000000000003,-2.24,-3.6925000000000003,1.12078125,0.30725,0.20971875,1.39784375,1.0791875,-0.173875,-0.28953125,1.3624687500000001,0.019902684199368123,0.020554122467884184,True
23834,157175,1,157176,3793.0,41686.0,30471.0,0.002806,-0.001037,-0.000305,0.2625,-2.1,-3.7625,1.11703125,0.31025,0.21021875,1.3957187500000001,1.08125,-0.175625,-0.2920625,1.36115625,0.020097722396008377,0.0206767642722803,True
23835,157176,1,157177,3794.0,41687.0,30470.0,0.000915,0.00061,-0.000244,0.36750000000000005,-1.8550000000000002,-3.7275000000000005,1.117375,0.309375,0.211875,1.39521875,1.07996875,-0.17503125,-0.28996875,1.36615625,0.020037461171844403,0.020660535020243696,True
23836,157177,1,157178,3795.0,41689.0,30472.0,0.0011589999999999999,-0.000122,-0.000732,0.47250000000000003,-1.6275000000000002,-3.7450000000000006,1.116875,0.30978125,0.209,1.3959375,1.0872187500000001,-0.17575000000000002,-0.29090625000000003,1.36609375,0.020083399687703587,0.020579975273668515,True
23837,157178,1,157179,3795.0,41687.0,30473.0,-0.0030499999999999998,0.001098,0.00042699999999999997,0.49000000000000005,-1.4175000000000002,-3.7275000000000005,1.11553125,0.30743750000000003,0.20350000000000001,1.4030625,1.086125,-0.1758125,-0.285125,1.3624687500000001,0.01998898692649937,0.020120341155336858,True
23838,157179,1,157180,3797.0,41686.0,30471.0,-0.004575,0.00042699999999999997,-0.000549,0.5075000000000001,-1.0325000000000002,-3.5875000000000004,1.12615625,0.30709375,0.20778125,1.3985,1.07853125,-0.17128125,-0.28859375,1.3571250000000001,0.019791048519614572,0.020436547504937373,True
23839,157180,1,157181,3797.0,41689.0,30473.0,-0.001647,0.000549,0.000183,0.43750000000000006,-1.05,-3.6050000000000004,1.1151875,0.31165625,0.2111875,1.3930625,1.0789375,-0.1749375,-0.28371875,1.368,0.02012802515001332,0.020380167267420687,True
23840,157181,1,157182,3798.0,41688.0,30478.0,0.000488,-0.000244,0.000549,0.42000000000000004,-1.2425000000000002,-3.5525,1.1138125,0.31103125,0.2095,1.40325,1.08696875,-0.1758125,-0.28859375,1.364125,0.020137637566472688,0.02050731117358328,True
23841,157182,1,157183,3800.0,41691.0,30474.0,0.003904,-0.0015249999999999999,-0.000793,0.385,-1.3125000000000002,-3.5875000000000004,1.127875,0.30746875,0.20690625,1.39525,1.072125,-0.173625,-0.28450000000000003,1.36190625,0.019901597298708818,0.02023538676933847,True
23842,157183,1,157184,3801.0,41693.0,30476.0,0.002989,-0.0015249999999999999,-0.00061,0.29750000000000004,-1.3125000000000002,-3.5875000000000004,1.111125,0.3108125,0.21115625000000002,1.39259375,1.07975,-0.17496875,-0.292625,1.367125,0.02009438998757754,0.02073803263336095,True
23843,157184,1,157185,3801.0,41691.0,30476.0,-0.000366,-6.1e-05,-0.000183,0.3325,-1.4525000000000001,-3.6925000000000003,1.11340625,0.312125,0.20803125,1.3928125,1.084875,-0.17628125,-0.2895625,1.36234375,0.020201876580998163,0.020485908299089372,True
23844,157185,1,157186,3803.0,41692.0,30478.0,-0.001098,0.0008539999999999999,0.001037,0.36750000000000005,-1.4875,-3.6050000000000004,1.11453125,0.30509375,0.203125,1.40509375,1.08315625,-0.17396875,-0.288375,1.36128125,0.019817287966006823,0.020236018259764187,True
23845,157186,1,157187,3802.0,41693.0,30480.0,0.000122,0.001037,0.00042699999999999997,0.43750000000000006,-1.6625,-3.7450000000000006,1.1285625,0.30684375,0.21025,1.3979062500000001,1.079,-0.173625,-0.28821875,1.360625,0.019875742674092114,0.020523067382205624,True
23846,157187,1,157188,3803.0,41691.0,30479.0,0.0015249999999999999,0.0008539999999999999,-0.000915,0.5425000000000001,-1.7325000000000002,-3.7275000000000005,1.1143750000000001,0.31075,0.2105,1.3871875,1.07903125,-0.17546875,-0.29053125,1.36434375,0.020112071249911132,0.020626607332847033,True
23847,157188,1,157189,3805.0,41693.0,30478.0,0.000732,0.000915,0.001037,0.5425000000000001,-1.4700000000000002,-3.7100000000000004,1.11440625,0.31040625,0.21040625000000002,1.39346875,1.08296875,-0.17590625000000001,-0.290875,1.3655625,0.020115585118965294,0.020636607367993127,True
23848,157189,1,157190,3805.0,41694.0,30480.0,-0.0025009999999999998,0.00061,0.00042699999999999997,0.45500000000000007,-0.9100000000000001,-3.6225000000000005,1.11578125,0.3101875,0.21003125,1.39540625,1.0815937500000001,-0.16909375000000001,-0.28934375,1.3606562500000001,0.01983033600504777,0.020559427423805964,True
23849,157190,1,157191,3805.0,41692.0,30481.0,-0.0044529999999999995,-0.000366,0.000122,0.45500000000000007,-0.7875000000000001,-3.6050000000000004,1.11715625,0.30953125,0.2093125,1.394875,1.07928125,-0.17496875,-0.29065625,1.36765625,0.020041390953194096,0.020582760089077463,True
23850,157191,1,157192,3808.0,41691.0,30483.0,-0.003477,0.000122,0.000549,0.43750000000000006,-0.9275000000000001,-3.6925000000000003,1.11715625,0.3095625,0.209125,1.3939062500000001,1.0884375,-0.177875,-0.28775,1.36290625,0.020160477295874845,0.020457843974843286,True
23851,157192,1,157193,3807.0,41696.0,30483.0,-0.000915,-0.0015249999999999999,-0.0008539999999999999,0.31500000000000006,-1.2425000000000002,-3.6225000000000005,1.1170625,0.30959375,0.21,1.39496875,1.0811250000000001,-0.1730625,-0.28728125,1.3586562500000001,0.01996669846859495,0.02047496567776601,True
23852,157193,1,157194,3808.0,41694.0,30486.0,0.003355,-0.001586,-0.000549,0.31500000000000006,-1.5750000000000002,-3.6400000000000006,1.1126562500000001,0.30965625,0.2093125,1.39465625,1.06290625,-0.16834375000000001,-0.28975,1.3748125,0.019777937824142378,0.02054621805494087,True
23853,157194,1,157195,3809.0,41696.0,30485.0,0.0026839999999999998,0.000122,0.000793,0.3325,-2.345,-3.7800000000000002,1.11725,0.30975,0.210625,1.3985625,1.0996875,-0.18384375,-0.29803125,1.3781875000000001,0.02041006198611418,0.020934052012958868,True
23854,157195,1,157196,3810.0,41694.0,30483.0,0.0037819999999999998,0.000183,-0.0006709999999999999,0.3325,-2.45,-3.8500000000000005,1.12009375,0.308375,0.21009375,1.3979375,1.1023125,-0.18709375,-0.30153125000000003,1.37875,0.020484840184654265,0.02105320009412987,True
23855,157196,1,157197,3811.0,41697.0,30487.0,0.003294,0.000793,-0.001586,0.31500000000000006,-2.2750000000000004,-3.7975000000000003,1.1164375,0.31059375,0.20990625000000002,1.3955625,1.10240625,-0.182125,-0.29271875,1.3811875,0.020375328884454945,0.0206903560351803,True
23856,157197,1,157198,3814.0,41695.0,30486.0,0.002074,0.000366,0.0,0.47250000000000003,-1.9775000000000003,-3.6925000000000003,1.12253125,0.30671875,0.20765625000000001,1.40103125,1.097625,-0.1819375,-0.29746875,1.37675,0.020207489577706503,0.02078920257897235,True
23857,157198,1,157199,3814.0,41696.0,30486.0,-0.000122,0.00122,0.000366,0.43750000000000006,-1.6275000000000002,-3.7100000000000004,1.1202812500000001,0.3096875,0.21,1.394625,1.0901875,-0.18128125,-0.30121875,1.38171875,0.020303669806578176,0.021036753557884827,True
23858,157199,1,157200,3814.0,41699.0,30487.0,-0.00549,0.000183,0.0008539999999999999,0.525,-0.9100000000000001,-3.5875000000000004,1.11609375,0.31084375000000003,0.21053125,1.38653125,1.1023125,-0.18896875,-0.30215625,1.3765,0.02066282796781074,0.021096379050727237,True
23859,157200,1,157201,3814.0,41696.0,30488.0,-0.0066489999999999995,0.0011589999999999999,0.000488,0.5075000000000001,-1.05,-3.6050000000000004,1.12384375,0.30721875,0.20659375,1.40053125,1.08525,-0.17815625000000002,-0.28478125,1.3663750000000001,0.02007493850983778,0.020233865602557157,True
23860,157201,1,157202,3817.0,41697.0,30490.0,-0.004941,-0.000122,0.000732,0.35000000000000003,-1.3650000000000002,-3.6225000000000005,1.11740625,0.309,0.20715625000000001,1.40228125,1.08240625,-0.17484375,-0.28209375000000003,1.3539375,0.02001434859325616,0.02014859200516842,True
23861,157202,1,157203,3816.0,41697.0,30490.0,-0.001098,-0.0018909999999999999,0.001769,0.3325,-2.0825,-3.5700000000000003,1.124625,0.30965625,0.210375,1.39521875,1.07196875,-0.1748125,-0.290625,1.37371875,0.020040227819760753,0.020625241219606332,True
23862,157203,1,157204,3819.0,41697.0,30488.0,0.010492,-0.003172,-0.004941,0.15750000000000003,-2.5375,-3.5700000000000003,1.1167500000000001,0.3095,0.20940625000000002,1.39521875,1.08646875,-0.177125,-0.285375,1.365125,0.020127496548907282,0.020373630219833957,True
23863,157204,1,157205,3820.0,41696.0,30486.0,-0.00976,0.004331,0.004575,0.14,-3.5525,-3.6400000000000006,1.10921875,0.308625,0.2085,1.40046875,1.083625,-0.17425000000000002,-0.29115625,1.36359375,0.01997476653877576,0.02056947165699451,True
23864,157205,1,157206,3822.0,41695.0,30490.0,0.00488,0.00488,0.0073809999999999995,0.1925,-3.5875000000000004,-3.7450000000000006,1.12140625,0.30715625,0.2063125,1.3996875,1.08003125,-0.1733125,-0.28796875,1.36203125,0.019875999617346606,0.020350868163892873,True
23865,157206,1,157207,3822.0,41699.0,30492.0,0.017079999999999998,-0.006527,-0.006893,-0.12250000000000001,-3.4650000000000003,-3.7800000000000002,1.11240625,0.30943750000000003,0.2108125,1.38975,1.07946875,-0.1738125,-0.28878125,1.3606562500000001,0.019990640698483123,0.02056890977187256,True
23866,157207,1,157208,3826.0,41699.0,30489.0,0.016592,-0.009455,-0.006222,-0.08750000000000001,-2.765,-3.6225000000000005,1.11884375,0.3103125,0.20946875,1.39521875,1.07903125,-0.17471875,-0.2894375,1.36178125,0.020063573645505185,0.020540049558578705,True
23867,157208,1,157209,3826.0,41698.0,30490.0,-0.015982,0.01098,0.001403,0.5950000000000001,-0.525,-3.8675,1.1176875,0.310375,0.208875,1.3955312500000001,1.0795000000000001,-0.1731875,-0.2883125,1.3616875,0.02000408510462263,0.020470236456320297,True
23868,157209,1,157210,3826.0,41700.0,30493.0,-0.0183,0.0,0.005673,0.385,-0.43750000000000006,-3.7800000000000002,1.12109375,0.30934375000000003,0.2103125,1.4005625,1.0800625,-0.17321875,-0.28828125,1.362125,0.019962691149683985,0.020528161085914633,True
23869,157210,1,157211,3826.0,41699.0,30496.0,-0.010248,-0.004575,0.0023179999999999997,0.22750000000000004,-0.9450000000000001,-3.7450000000000006,1.12084375,0.30990625,0.21034375,1.3959062500000001,1.07909375,-0.17378125,-0.289625,1.36171875,0.020008764661093307,0.020583633958943377,True
23870,157211,1,157212,3828.0,41701.0,30493.0,-0.0034159999999999998,-0.0015249999999999999,0.0006709999999999999,0.28,-1.5925000000000002,-3.5525,1.117,0.31025,0.20946875,1.38484375,1.0794062500000001,-0.17296875,-0.28896875,1.36184375,0.019990045699289628,0.020521147074224796,True
23871,157212,1,157213,3831.0,41701.0,30497.0,0.001586,0.001769,-0.0011589999999999999,0.4025,-2.415,-3.535,1.1171875,0.3101875,0.20965625000000002,1.394875,1.085,-0.1770625,-0.29353125,1.3575625,0.020153399528995714,0.020712818355709404,True
23872,157213,1,157214,3829.0,41703.0,30497.0,0.0073809999999999995,-0.001586,-0.0006709999999999999,0.08750000000000001,-3.5700000000000003,-3.6400000000000006,1.10421875,0.307875,0.21028125,1.40775,1.084625,-0.17740625000000002,-0.29081250000000003,1.36678125,0.020071683661269494,0.020628941497942893,True
23873,157214,1,157215,3832.0,41703.0,30497.0,0.01464,-0.00244,0.003294,0.10500000000000001,-3.4825000000000004,-3.6925000000000003,1.133375,0.30696875,0.20646875,1.4094375000000001,1.0834062500000001,-0.17265625,-0.288625,1.3626562500000001,0.019841634077760902,0.020383770180485723,True
23874,157215,1,157216,3833.0,41703.0,30499.0,0.01281,-0.002806,-0.002989,0.14,-2.7300000000000004,-3.6050000000000004,1.13025,0.30493750000000003,0.2071875,1.39778125,1.07946875,-0.17371875,-0.28875,1.356,0.01980068747180241,0.020418403581905203,True
23875,157216,1,157217,3835.0,41703.0,30497.0,0.0051849999999999995,-0.000244,-0.0059169999999999995,0.3325,-1.8025000000000002,-3.7275000000000005,1.104125,0.312,0.2126875,1.39065625,1.07665625,-0.1745625,-0.28503125,1.359625,0.02012704469832701,0.020494877889028863,True
23876,157217,1,157218,3836.0,41704.0,30499.0,-0.004941,0.00549,-0.0026839999999999998,0.47250000000000003,-0.9800000000000001,-3.7100000000000004,1.10190625,0.30709375,0.20765625000000001,1.3959375,1.07846875,-0.1756875,-0.28809375,1.36765625,0.019969700965070798,0.020411235443292045,True
23877,157218,1,157219,3835.0,41705.0,30502.0,-0.011651,-0.003111,0.006222,0.35000000000000003,-0.21000000000000002,-3.6400000000000006,1.12178125,0.3016875,0.2060625,1.40125,1.08565625,-0.1758125,-0.29203125,1.367125,0.019751145902542056,0.02050440923914092,True
23878,157219,1,157220,3838.0,41705.0,30502.0,-0.008601,-0.005795,0.0021349999999999997,0.29750000000000004,-0.385,-3.5700000000000003,1.13096875,0.3020625,0.204125,1.4105,1.0793125000000001,-0.17815625000000002,-0.29125,1.369375,0.019861677831617124,0.020393145680028816,True
23879,157220,1,157221,3839.0,41706.0,30503.0,-0.0040869999999999995,0.000488,-0.002013,0.43750000000000006,-0.9100000000000001,-3.5875000000000004,1.13121875,0.30146875,0.20340625,1.4031875,1.084125,-0.17390625,-0.28728125,1.36253125,0.019664798691771214,0.020203475841907993,True
23880,157221,1,157222,3838.0,41705.0,30503.0,-0.000549,0.00488,-0.001098,0.56,-1.435,-3.5700000000000003,1.11553125,0.31,0.21256250000000002,1.3899375,1.07859375,-0.17378125,-0.288375,1.36178125,0.020012642829718662,0.020624578630723547,True
23881,157222,1,157223,3841.0,41704.0,30502.0,0.0048189999999999995,0.0011589999999999999,-0.0017079999999999999,0.5775,-1.8725000000000003,-3.6225000000000005,1.1073125,0.3126875,0.213125,1.3955312500000001,1.0785625,-0.17509375,-0.289125,1.36140625,0.02017701585955587,0.020677978313339822,True
23882,157223,1,157224,3840.0,41704.0,30500.0,0.004148,-0.001586,0.000549,0.385,-2.415,-3.6575,1.1159375,0.30934375000000003,0.21009375,1.39909375,1.079375,-0.17375000000000002,-0.28859375,1.3544375,0.019984228760535707,0.020531756804570044,True
23883,157224,1,157225,3838.0,41705.0,30498.0,0.004209,0.000488,-0.002623,0.47250000000000003,-2.2575000000000003,-3.6400000000000006,1.11315625,0.30965625,0.20728125,1.39634375,1.07896875,-0.17321875,-0.28790625000000003,1.3625,0.019975618679246018,0.02038823334143922,True
23884,157225,1,157226,3838.0,41703.0,30498.0,0.004148,0.002562,-0.0017079999999999999,0.5425000000000001,-2.0825,-3.5175000000000005,1.115625,0.30975,0.2094375,1.391,1.07896875,-0.17409375,-0.28925,1.36209375,0.020014969537379246,0.020531202074992025,True
23885,157226,1,157227,3835.0,41704.0,30498.0,0.0042699999999999995,-0.000122,0.002013,0.36750000000000005,-1.4700000000000002,-3.6050000000000004,1.1170625,0.30971875,0.20940625000000002,1.3942812500000001,1.08365625,-0.17709375,-0.2919375,1.36815625,0.0201352778391737,0.02063827761783102,True
23886,157227,1,157228,3833.0,41703.0,30497.0,0.00244,-0.002562,0.000793,0.24500000000000002,-0.9800000000000001,-3.6400000000000006,1.1201875000000001,0.306125,0.2076875,1.3977187500000001,1.08490625,-0.1738125,-0.28784375,1.3614375,0.019853612250860308,0.020402438977317614,True
23887,157228,1,157229,3830.0,41704.0,30497.0,-0.009821,0.000122,-0.000244,0.45500000000000007,-0.17500000000000002,-3.5875000000000004,1.1233125,0.3091875,0.2091875,1.39471875,1.0793125000000001,-0.17371875,-0.28809375,1.36128125,0.0199764982373678,0.020474280736832218,True
23888,157229,1,157230,3828.0,41703.0,30496.0,-0.010431,0.0040869999999999995,0.000915,0.5950000000000001,-0.4025,-3.6225000000000005,1.12359375,0.30890625,0.20871875,1.39925,1.07928125,-0.1739375,-0.2838125,1.3636875,0.01997373204096354,0.020282286811430454,True
23889,157230,1,157231,3825.0,41704.0,30498.0,-0.006161,0.000793,0.0018909999999999999,0.5425000000000001,-0.9100000000000001,-3.7100000000000004,1.122,0.30784375,0.20890625000000002,1.39859375,1.0794062500000001,-0.17384375,-0.28815625,1.36209375,0.019925978879548275,0.020465221603636546,True
23890,157231,1,157232,3823.0,41703.0,30494.0,0.0,-0.0011589999999999999,0.0021349999999999997,0.49000000000000005,-1.3825,-3.5175000000000005,1.1166562500000001,0.31209375,0.2099375,1.3956250000000001,1.0793125000000001,-0.1746875,-0.28909375,1.36590625,0.020135989348362828,0.020545486593134005,True
23891,157232,1,157233,3821.0,41702.0,30494.0,0.004148,-0.00183,0.000732,0.45500000000000007,-1.9250000000000003,-3.6575,1.11715625,0.30934375000000003,0.20940625000000002,1.39496875,1.0875625,-0.17496875,-0.29096875,1.36596875,0.02003363499694286,0.020599219617373227,True
23892,157233,1,157234,3818.0,41699.0,30491.0,0.00366,0.000915,-0.003477,0.5950000000000001,-2.0650000000000004,-3.6925000000000003,1.12403125,0.31093750000000003,0.206875,1.40109375,1.07965625,-0.1733125,-0.2876875,1.36190625,0.0200324221184002,0.02036268376723803,True
23893,157234,1,157235,3816.0,41699.0,30491.0,0.0034159999999999998,0.00122,0.000915,0.4025,-1.8375000000000001,-3.7275000000000005,1.12415625,0.30709375,0.206875,1.4011875,1.0795000000000001,-0.1730625,-0.28884375,1.3624687500000001,0.01986327756361032,0.02040931857861698,True
23894,157235,1,157236,3814.0,41699.0,30491.0,0.002806,-0.0006709999999999999,6.1e-05,0.35000000000000003,-1.5225000000000002,-3.7800000000000002,1.1220625,0.307375,0.2084375,1.40234375,1.0690625,-0.1733125,-0.28821875,1.36196875,0.019885048852944752,0.02044844272493223,True
23895,157236,1,157237,3810.0,41699.0,30489.0,-0.001098,-0.000976,0.00061,0.3325,-1.225,-3.7800000000000002,1.12440625,0.30546875,0.2061875,1.3999062500000001,1.07975,-0.17353125,-0.28815625,1.36178125,0.019815061152888037,0.02035328432968229,True
23896,157237,1,157238,3809.0,41700.0,30490.0,-0.0040869999999999995,-0.000122,6.1e-05,0.3325,-1.225,-3.7100000000000004,1.124875,0.305625,0.2116875,1.3996250000000001,1.0804375,-0.17384375,-0.28809375,1.3628125,0.019834195792715007,0.020577211828326374,True
23897,157238,1,157239,3808.0,41700.0,30490.0,-0.000976,-0.0013419999999999999,-6.1e-05,0.22750000000000004,-1.3475000000000001,-3.7275000000000005,1.1235,0.30753125000000003,0.2089375,1.4015625,1.07984375,-0.1715,-0.28784375,1.36015625,0.019818019154789732,0.020453905052810625,True
23898,157239,1,157240,3807.0,41701.0,30490.0,0.0015249999999999999,-0.000305,0.000915,0.24500000000000002,-1.435,-3.6575,1.121125,0.30940625,0.21303125,1.39659375,1.0781875,-0.17384375,-0.28865625,1.36278125,0.019990614856191413,0.020655218421150822,True
23899,157240,1,157241,3807.0,41700.0,30489.0,0.0011589999999999999,0.000244,-0.000366,0.4025,-1.4175000000000002,-3.7275000000000005,1.1149375,0.31028125,0.2106875,1.394875,1.07925,-0.1743125,-0.28559375,1.36759375,0.020045813091892482,0.020435211718881692,True
23900,157241,1,157242,3806.0,41701.0,30490.0,-0.000244,0.00042699999999999997,-0.0008539999999999999,0.525,-1.4525000000000001,-3.6575,1.11678125,0.3078125,0.20734375,1.3980937500000001,1.0788125,-0.17428125,-0.28775,1.35965625,0.01994242331403338,0.020384504534178755,True
23901,157242,1,157243,3806.0,41701.0,30489.0,-0.000183,0.000488,-0.001037,0.385,-1.5225000000000002,-3.6575,1.12128125,0.30753125000000003,0.207875,1.39815625,1.0795625,-0.1733125,-0.28796875,1.36203125,0.019891512592657708,0.020415200427166227,True
23902,157243,1,157244,3803.0,41701.0,30487.0,-0.000549,-0.000244,0.001037,0.35000000000000003,-1.715,-3.7450000000000006,1.11903125,0.30896875,0.20946875,1.39796875,1.07990625,-0.17415625,-0.2879375,1.3605,0.019985185625661706,0.02047955904036726,True
23903,157244,1,157245,3806.0,41699.0,30487.0,-0.0011589999999999999,6.1e-05,-0.000549,0.28,-1.8200000000000003,-3.7275000000000005,1.119875,0.3095625,0.20734375,1.39634375,1.07978125,-0.17359375,-0.28878125,1.36128125,0.019986943397689888,0.020426096924892022,True
23904,157245,1,157246,3803.0,41700.0,30488.0,-0.001098,-0.000915,-0.000122,0.2625,-1.8900000000000001,-3.6225000000000005,1.117625,0.30990625,0.20825,1.40021875,1.0788125,-0.17465625,-0.2843125,1.35965625,0.02004423537563228,0.020283156049816113,True
23905,157246,1,157247,3805.0,41700.0,30488.0,0.000488,0.000244,0.00061,0.24500000000000002,-1.8550000000000002,-3.6750000000000003,1.126125,0.30734375,0.20665625,1.40146875,1.071375,-0.17300000000000001,-0.28709375,1.3605625000000001,0.01987108550862533,0.02032972759451715,True
23906,157247,1,157248,3806.0,41698.0,30487.0,0.003965,-0.000732,6.1e-05,0.28,-1.7325000000000002,-3.6400000000000006,1.128625,0.30246875,0.200625,1.4018125000000001,1.07646875,-0.1724375,-0.28600000000000003,1.3605625000000001,0.019646601630472722,0.020037264267479205,True
23907,157248,1,157249,3806.0,41698.0,30487.0,-0.000183,-0.000488,-0.000305,0.43750000000000006,-1.4175000000000002,-3.7975000000000003,1.1448125,0.30090625,0.19675,1.4119375,1.07865625,-0.17584375,-0.29203125,1.3723125,0.019720097669807285,0.020121053071673455,True
23908,157249,1,157250,3806.0,41701.0,30489.0,-0.001281,0.000305,-0.000549,0.47250000000000003,-1.225,-3.7100000000000004,1.13384375,0.2988125,0.20171875,1.407375,1.087,-0.17428125,-0.288625,1.360125,0.019570126826418056,0.020188205384207628,True
23909,157250,1,157251,3804.0,41700.0,30489.0,-0.001952,0.001403,0.00042699999999999997,0.47250000000000003,-1.3125000000000002,-3.7975000000000003,1.12075,0.314125,0.2168125,1.3841875000000001,1.07646875,-0.17371875,-0.28809375,1.35215625,0.020180748979715835,0.020788220565889408,True
23910,157251,1,157252,3805.0,41700.0,30489.0,-0.0026839999999999998,-6.1e-05,0.001769,0.5075000000000001,-1.2950000000000002,-3.7625,1.1041875,0.31409375,0.21478125,1.3843125,1.0765,-0.17396875,-0.28934375,1.362125,0.020189589266346678,0.02075498643309373,True
23911,157252,1,157253,3805.0,41699.0,30489.0,-0.000976,0.000183,-0.001037,0.525,-1.5050000000000001,-3.8325000000000005,1.09775,0.314625,0.21159375,1.39859375,1.0811250000000001,-0.180125,-0.2941875,1.372875,0.020461019122109583,0.0208190230687896,True
23912,157253,1,157254,3805.0,41702.0,30487.0,0.002074,0.0011589999999999999,-0.000305,0.5425000000000001,-1.6975000000000002,-3.6050000000000004,1.12771875,0.29740625,0.20409375,1.40471875,1.0889375000000001,-0.1769375,-0.28265625,1.35940625,0.01961967887785622,0.02004517112908519,True
23913,157254,1,157255,3806.0,41699.0,30488.0,0.003172,0.000915,0.0,0.4025,-1.6800000000000002,-3.6750000000000003,1.1055,0.31193750000000003,0.21084375,1.39646875,1.0761875,-0.17496875,-0.2931875,1.367375,0.02014092572508496,0.020747843402600007,True
23914,157255,1,157256,3805.0,41699.0,30487.0,0.0021349999999999997,-0.000976,0.0008539999999999999,0.385,-1.5575,-3.7275000000000005,1.122125,0.29878125,0.204125,1.4135312500000001,1.08278125,-0.1746875,-0.28278125,1.36259375,0.01958531004795822,0.020051502543597638,True
23915,157256,1,157257,3805.0,41699.0,30486.0,-0.000122,0.000122,-0.0008539999999999999,0.385,-1.435,-3.6050000000000004,1.1260625,0.30725,0.21596875000000001,1.37984375,1.07828125,-0.17340625,-0.2889375,1.364,0.01988367899124684,0.020787498423922413,True
23916,157257,1,157258,3806.0,41698.0,30487.0,0.0,-0.000915,-0.000244,0.28,-1.4700000000000002,-3.7100000000000004,1.10521875,0.3124375,0.21434375,1.38796875,1.0796875000000001,-0.1743125,-0.28925,1.36925,0.020135009010080432,0.020733194726061943,True
23917,157258,1,157259,3805.0,41701.0,30488.0,-0.0018909999999999999,0.0,0.000915,0.31500000000000006,-1.3825,-3.6400000000000006,1.1106562500000001,0.30678125,0.2088125,1.39328125,1.08528125,-0.17596875,-0.29071875,1.37053125,0.01996817604258361,0.02056469613522655,True
23918,157259,1,157260,3804.0,41700.0,30487.0,-0.001098,-0.000488,0.0015249999999999999,0.2625,-1.4000000000000001,-3.6050000000000004,1.10925,0.311125,0.21306250000000002,1.39596875,1.08534375,-0.17559375,-0.29234375,1.367625,0.020132649275677043,0.020805166236790143,True
23919,157260,1,157261,3805.0,41699.0,30487.0,-0.000549,-0.0008539999999999999,-0.0013419999999999999,0.385,-1.5575,-3.6575,1.1163750000000001,0.30775,0.21,1.3951875,1.0826875,-0.174875,-0.29003125,1.36478125,0.019963908810283405,0.020585862770349465,True
23920,157261,1,157262,3806.0,41702.0,30490.0,-0.000122,0.000732,-0.0028669999999999998,0.42000000000000004,-1.6450000000000002,-3.6050000000000004,1.1163125,0.30996875,0.21028125,1.4000625,1.08428125,-0.177375,-0.29121875,1.36325,0.02015701663228535,0.020645320646993065,True
23921,157262,1,157263,3804.0,41701.0,30488.0,-0.00061,0.000976,-6.1e-05,0.35000000000000003,-1.61,-3.5700000000000003,1.12075,0.30840625,0.21090625000000002,1.3975625,1.0804375,-0.174625,-0.28396875,1.35434375,0.019980920076319696,0.020378670599302266,True
23922,157263,1,157264,3806.0,41700.0,30490.0,0.002806,-0.0023179999999999997,0.0025009999999999998,0.15750000000000003,-1.5225000000000002,-3.6750000000000003,1.10603125,0.307,0.20759375,1.4015312500000001,1.0795625,-0.1740625,-0.2886875,1.3623750000000001,0.01989994441356309,0.020432608801937115,True
23923,157264,1,157265,3807.0,41702.0,30492.0,0.00122,-0.002074,0.000305,0.15750000000000003,-1.3825,-3.5525,1.1225625000000001,0.30665625,0.21025,1.3986875,1.07890625,-0.1748125,-0.2888125,1.36421875,0.019916131717671023,0.020547011098216515,True
23924,157265,1,157266,3807.0,41702.0,30492.0,-0.000122,0.0013419999999999999,-0.00122,0.28,-1.4875,-3.535,1.1170625,0.31240625,0.2093125,1.3953125,1.08325,-0.1764375,-0.28981250000000003,1.36978125,0.020219842150027277,0.020548738282767726,True
23925,157266,1,157267,3808.0,41703.0,30491.0,-0.000732,0.003172,0.0,0.24500000000000002,-1.5575,-3.6050000000000004,1.11725,0.31628125,0.20965625000000002,1.3955312500000001,1.0854375,-0.17421875,-0.28809375,1.3664687500000001,0.02029021103319006,0.020493580316487372,True
23926,157267,1,157268,3808.0,41702.0,30492.0,-0.0008539999999999999,-0.0017079999999999999,0.00122,0.15750000000000003,-1.4175000000000002,-3.7275000000000005,1.1173125,0.3095625,0.20765625000000001,1.39803125,1.084375,-0.1758125,-0.28771875,1.3628437500000001,0.02007688469622272,0.020396110688658233,True
23927,157268,1,157269,3809.0,41702.0,30489.0,0.00061,-0.0026839999999999998,-0.000305,0.22750000000000004,-1.2600000000000002,-3.6400000000000006,1.12171875,0.3061875,0.20750000000000002,1.39125,1.07965625,-0.17403125,-0.28796875,1.36575,0.019865066981743066,0.02039976068398062,True
23928,157269,1,157270,3809.0,41704.0,30492.0,0.001464,0.001403,-0.002623,0.28,-1.0150000000000001,-3.6050000000000004,1.1186875,0.3151875,0.2099375,1.39528125,1.0856875,-0.17450000000000002,-0.28915625,1.3679375,0.020256365178183626,0.020548006890935125,True
23929,157270,1,157271,3809.0,41704.0,30492.0,-0.000976,0.00061,0.000244,0.3325,-0.8575,-3.6050000000000004,1.11678125,0.308875,0.211,1.39459375,1.08375,-0.17715625000000002,-0.2863125,1.368,0.020102912227322023,0.02047706913101773,True
23930,157271,1,157272,3811.0,41704.0,30492.0,-0.001647,0.000732,0.00042699999999999997,0.29750000000000004,-0.7175,-3.5875000000000004,1.1171875,0.3065,0.20825,1.40128125,1.08225,-0.1738125,-0.2881875,1.3624375,0.019869124905308174,0.02043946259884563,True
23931,157272,1,157273,3813.0,41705.0,30493.0,-0.0046359999999999995,-0.000183,-0.000793,0.2625,-0.9275000000000001,-3.7450000000000006,1.12096875,0.30646875,0.2095,1.398375,1.07646875,-0.17440625,-0.2885625,1.3621875,0.019891905307912166,0.02050605094476052,True
23932,157273,1,157274,3813.0,41706.0,30494.0,-0.003355,0.000366,6.1e-05,0.24500000000000002,-1.2425000000000002,-3.6050000000000004,1.11009375,0.3098125,0.20959375,1.39475,1.07975,-0.17390625,-0.29,1.36790625,0.0200099539146678,0.020567877727459858,True
23933,157274,1,157275,3813.0,41707.0,30497.0,0.000305,0.00183,0.00061,0.1925,-1.7325000000000002,-3.6925000000000003,1.1143125,0.30890625,0.209375,1.3945,1.0831875,-0.17459375,-0.2904375,1.3648125,0.020000336096651056,0.02057651287672361,True
23934,157275,1,157276,3815.0,41708.0,30497.0,-0.004514,0.00244,-0.009394,0.14,-2.2575000000000003,-3.6050000000000004,1.117125,0.30890625,0.20940625000000002,1.39728125,1.0828125,-0.1753125,-0.290125,1.3615,0.020029472214681817,0.020565198820508335,True
23935,157276,1,157277,3816.0,41706.0,30497.0,-0.0028669999999999998,0.0025009999999999998,0.014579,0.12250000000000001,-3.1850000000000005,-3.6925000000000003,1.11603125,0.3098125,0.2108125,1.400125,1.07928125,-0.17409375,-0.28784375,1.36271875,0.020017554949707264,0.020531104166050147,True
23936,157277,1,157278,3815.0,41705.0,30497.0,0.0183,-0.007991,-0.005612,0.035,-3.1325000000000003,-3.6400000000000006,1.123625,0.30665625,0.21046875,1.39471875,1.07790625,-0.17403125,-0.291,1.36928125,0.019884457624336035,0.02064422008151167,True
23937,157278,1,157279,3816.0,41705.0,30495.0,0.013481,0.001098,-0.004941,0.31500000000000006,-2.1350000000000002,-3.6575,1.10959375,0.306625,0.2066875,1.39915625,1.086,-0.17396875,-0.287875,1.35725,0.019880630895578535,0.02036252656932729,True
23938,157279,1,157280,3816.0,41705.0,30496.0,-0.003904,0.0077469999999999995,-0.000915,0.43750000000000006,-1.155,-3.7100000000000004,1.1244375,0.30743750000000003,0.20759375,1.398125,1.0793125000000001,-0.1745625,-0.29021875,1.36725,0.01993831325799588,0.02049436051291222,True
23939,157280,1,157281,3819.0,41705.0,30496.0,-0.01342,0.002074,0.0059169999999999995,0.28,-0.525,-3.7275000000000005,1.11690625,0.30971875,0.208875,1.3956875,1.09396875,-0.18215625,-0.28875,1.375625,0.020340411124421545,0.020487880191446657,True
23940,157281,1,157282,3819.0,41703.0,30497.0,-0.012749,-0.005795,0.0035989999999999998,0.08750000000000001,-0.5950000000000001,-3.6050000000000004,1.1169375,0.30815625,0.21178125,1.401375,1.0764375,-0.1706875,-0.28553125,1.35734375,0.01981092800939154,0.0204777278652284,True
23941,157282,1,157283,3818.0,41704.0,30498.0,-0.0013419999999999999,0.0026839999999999998,-0.00122,0.28,-1.7325000000000002,-3.7450000000000006,1.115875,0.30765625,0.2093125,1.402125,1.07309375,-0.17296875,-0.28546875,1.35575,0.01988274609422974,0.020373551570833898,True
23942,157283,1,157284,3822.0,41705.0,30498.0,0.003538,0.002379,-0.0008539999999999999,0.24500000000000002,-2.2575000000000003,-3.7100000000000004,1.1195625,0.30675,0.21009375,1.387125,1.07240625,-0.17721875,-0.2965,1.3686562500000001,0.02001755268066142,0.02085048257979544,True
23943,157284,1,157285,3822.0,41706.0,30499.0,0.0053679999999999995,-0.002745,-0.000305,0.035,-2.6950000000000003,-3.5875000000000004,1.11740625,0.31,0.20921875,1.40065625,1.09434375,-0.17715625000000002,-0.28390625,1.35796875,0.02014944375437041,0.020306658859712903,True
23944,157285,1,157286,3823.0,41707.0,30499.0,0.007808,-0.00244,-0.000488,0.052500000000000005,-2.6250000000000004,-3.6050000000000004,1.123625,0.30893750000000003,0.211,1.39309375,1.07346875,-0.17709375,-0.2951875,1.37528125,0.02010296419518992,0.020834887567753903,True
23945,157286,1,157287,3824.0,41707.0,30499.0,0.007503,0.000122,-0.0011589999999999999,0.1925,-2.31,-3.6400000000000006,1.11696875,0.3100625,0.2095,1.3870625,1.09575,-0.17796875,-0.29003125,1.3580625,0.020184956604346674,0.020565278194115126,True
23946,157287,1,157288,3824.0,41708.0,30501.0,-0.000793,0.00061,0.000793,0.29750000000000004,-1.1025,-3.6225000000000005,1.1218125,0.30625,0.209,1.39921875,1.07278125,-0.17184375000000002,-0.2886875,1.36746875,0.01977895252611833,0.020490506125536833,True
23947,157288,1,157289,3825.0,41707.0,30502.0,-0.0068319999999999995,0.001281,0.0006709999999999999,0.24500000000000002,-0.6825000000000001,-3.6050000000000004,1.116625,0.30909375,0.2100625,1.40128125,1.097,-0.18,-0.29125,1.3569375000000001,0.02022720223325062,0.020637575258580766,True
23948,157289,1,157290,3825.0,41707.0,30502.0,-0.007137,0.001281,0.001769,0.3325,-0.5950000000000001,-3.4650000000000003,1.12503125,0.30909375,0.209875,1.39509375,1.0725,-0.178125,-0.2926875,1.36596875,0.020151221403644823,0.020687809860477562,True
23949,157290,1,157291,3826.0,41710.0,30505.0,-0.0034159999999999998,0.001647,0.001586,0.24500000000000002,-0.7525000000000001,-3.5000000000000004,1.1224375,0.30578125,0.20875,1.3989375,1.072875,-0.173625,-0.287125,1.35878125,0.019831789812243716,0.020417196354035317,True
23950,157291,1,157292,3826.0,41710.0,30505.0,-0.001586,-0.001098,0.00122,0.24500000000000002,-0.9100000000000001,-3.6225000000000005,1.1160625,0.30928125,0.20778125,1.40253125,1.084375,-0.17584375,-0.2901875,1.36325,0.020066517843870497,0.020500819518169632,True
23951,157292,1,157293,3828.0,41711.0,30505.0,0.0025009999999999998,-0.002379,-0.0026839999999999998,0.17500000000000002,-1.3125000000000002,-3.6400000000000006,1.1226875,0.308125,0.2079375,1.39559375,1.07890625,-0.17421875,-0.2881875,1.35725,0.019952816468991368,0.02042659626207184,True
23952,157293,1,157294,3830.0,41709.0,30505.0,0.001098,0.0021349999999999997,-0.000305,0.35000000000000003,-1.4000000000000001,-3.6225000000000005,1.11753125,0.3075,0.20715625000000001,1.39528125,1.08759375,-0.17325000000000002,-0.2881875,1.3655,0.019887685768359656,0.02039443042013736,True
23953,157294,1,157295,3831.0,41711.0,30508.0,0.000732,0.003294,0.00183,0.525,-1.4525000000000001,-3.6750000000000003,1.1174375,0.308875,0.2089375,1.39525,1.0856875,-0.1775,-0.28981250000000003,1.3635,0.020116844173301625,0.020533299711556027,True
23954,157295,1,157296,3832.0,41713.0,30509.0,0.001037,-0.000915,-0.000793,0.385,-1.435,-3.6925000000000003,1.1209375,0.30621875,0.20700000000000002,1.4006875,1.0786875,-0.17328125,-0.2884375,1.3616875,0.019835950074009914,0.020398080362312315,True
23955,157296,1,157297,3833.0,41713.0,30506.0,6.1e-05,-0.0015249999999999999,-0.000732,0.3325,-1.2775,-3.535,1.12340625,0.3086875,0.2101875,1.3950625,1.07565625,-0.17415625,-0.2886875,1.36171875,0.019973551300265135,0.02053939719879882,True
23956,157297,1,157298,3834.0,41714.0,30511.0,-6.1e-05,0.0044529999999999995,-0.00042699999999999997,0.49000000000000005,-1.0850000000000002,-3.5175000000000005,1.11621875,0.3091875,0.209625,1.39525,1.0851875,-0.17790625000000002,-0.29084375,1.36909375,0.020146233712855097,0.02060318509932369,True
23957,157298,1,157299,3836.0,41715.0,30509.0,0.00061,0.000488,0.000549,0.29750000000000004,-0.9100000000000001,-3.4475000000000002,1.10740625,0.30528125,0.2059375,1.3955312500000001,1.0844375,-0.17321875,-0.288375,1.3614375,0.01979463326537762,0.020351814396805057,True
23958,157299,1,157300,3837.0,41714.0,30510.0,-0.001769,-0.0011589999999999999,0.000793,0.24500000000000002,-0.8925000000000001,-3.5700000000000003,1.11753125,0.309375,0.2093125,1.402625,1.08678125,-0.17815625000000002,-0.29040625000000003,1.36178125,0.020164120248002782,0.020572679800281234,True
23959,157300,1,157301,3838.0,41714.0,30512.0,-0.002928,-0.0008539999999999999,0.00122,0.31500000000000006,-0.9625000000000001,-3.535,1.12778125,0.31453125,0.2165625,1.38225,1.07490625,-0.17421875,-0.2905,1.3608437500000001,0.020217819862327506,0.020874930528395872,True
23960,157301,1,157302,3839.0,41717.0,30513.0,-0.0006709999999999999,0.000305,-0.001586,0.31500000000000006,-1.0150000000000001,-3.5175000000000005,1.11515625,0.307875,0.20875,1.40328125,1.0870625,-0.17590625000000001,-0.28678125,1.3625625000000001,0.020010883769869023,0.02040333154480897,True
23961,157302,1,157303,3841.0,41716.0,30514.0,-0.0008539999999999999,-0.002196,0.000549,0.07,-1.4700000000000002,-3.6050000000000004,1.11940625,0.306,0.21134375,1.3883750000000001,1.07896875,-0.1735625,-0.2895625,1.36959375,0.019838304759590152,0.020622283748420747,True
23962,157303,1,157304,3841.0,41717.0,30513.0,0.000488,-0.002257,0.000976,0.24500000000000002,-1.7675,-3.5875000000000004,1.11503125,0.3045,0.205625,1.39625,1.07409375,-0.1743125,-0.28425,1.36234375,0.019806664615591447,0.020172539814900605,True
23963,157304,1,157305,3842.0,41715.0,30514.0,0.001586,-6.1e-05,-0.000244,0.28,-1.8200000000000003,-3.6225000000000005,1.11496875,0.31034375000000003,0.21003125,1.38765625,1.0798125,-0.17896875,-0.28928125,1.36753125,0.02023711205631961,0.02055690717484693,True
23964,157305,1,157306,3843.0,41716.0,30512.0,-0.000366,0.000488,-0.000305,0.4025,-1.9250000000000003,-3.5700000000000003,1.12775,0.31190625,0.20650000000000002,1.4059375,1.08509375,-0.1736875,-0.28800000000000003,1.3616875,0.02008769865995827,0.020359848484848488,True
23965,157306,1,157307,3842.0,41717.0,30512.0,-0.001769,0.000915,-0.000305,0.36750000000000005,-2.0125,-3.6225000000000005,1.12284375,0.31084375000000003,0.21181250000000001,1.393375,1.07984375,-0.17446875,-0.28884375,1.3636875,0.020075415307730396,0.020612601207087102,True
23966,157307,1,157308,3840.0,41718.0,30511.0,0.000305,0.0011589999999999999,0.0008539999999999999,0.3325,-1.6975000000000002,-3.5875000000000004,1.11440625,0.30884375000000003,0.21028125,1.3866875,1.08590625,-0.176,-0.28525,1.365625,0.020054754715420252,0.020404618029462324,True
23967,157308,1,157309,3837.0,41715.0,30510.0,-0.000488,0.000183,0.000549,0.35000000000000003,-1.7325000000000002,-3.4825000000000004,1.12653125,0.30284375,0.206625,1.3929375,1.081375,-0.17371875,-0.2881875,1.36146875,0.019714074815237105,0.020372557647621914,True
23968,157309,1,157310,3837.0,41714.0,30507.0,-0.000732,0.0006709999999999999,-0.001586,0.385,-1.8200000000000003,-3.5700000000000003,1.11471875,0.30971875,0.20665625,1.3985,1.0818125,-0.17575000000000002,-0.289125,1.3625,0.020080814452498888,0.020411655421922366,True
23969,157310,1,157311,3835.0,41715.0,30507.0,0.001098,6.1e-05,0.000793,0.4025,-2.0125,-3.5875000000000004,1.1243750000000001,0.30671875,0.212125,1.3941875000000001,1.07934375,-0.17359375,-0.289,1.3630312500000001,0.019869304703608665,0.0206317674667545,True
23970,157311,1,157312,3832.0,41712.0,30504.0,0.002806,0.00042699999999999997,0.001037,0.2625,-2.1350000000000002,-3.5700000000000003,1.11490625,0.31028125,0.210625,1.39490625,1.0786875,-0.17465625,-0.2881875,1.3655,0.020059747488653534,0.02053724675832645,True
23971,157312,1,157313,3829.0,41710.0,30503.0,0.001281,-0.0011589999999999999,-0.000793,0.22750000000000004,-2.1875,-3.6400000000000006,1.11671875,0.31203125,0.20859375,1.40021875,1.08278125,-0.17509375,-0.28778125,1.36296875,0.020149870153037153,0.02043723116947951,True
23972,157313,1,157314,3826.0,41710.0,30501.0,0.00061,0.001098,0.00061,0.1925,-1.995,-3.7450000000000006,1.12184375,0.307875,0.20715625000000001,1.39915625,1.07984375,-0.17378125,-0.2871875,1.36234375,0.019924737674210567,0.020354096166960458,True
23973,157314,1,157315,3821.0,41709.0,30500.0,-0.000244,0.00061,-0.00042699999999999997,0.15750000000000003,-1.8550000000000002,-3.8325000000000005,1.11625,0.30903125,0.2105625,1.3956250000000001,1.0745,-0.1759375,-0.295875,1.3815625,0.020059976991585123,0.020844587815832934,True
23974,157315,1,157316,3820.0,41710.0,30498.0,-0.002074,-0.00122,0.000122,0.14,-1.61,-3.7275000000000005,1.117625,0.30875,0.20971875,1.3948125,1.108,-0.180375,-0.29528125,1.36503125,0.0202281809111728,0.020785929366427897,True
23975,157316,1,157317,3816.0,41707.0,30496.0,-0.002928,-0.00061,0.000366,0.08750000000000001,-1.6625,-3.6575,1.11671875,0.30878125,0.211375,1.39778125,1.0740625,-0.1653125,-0.28209375000000003,1.3523125,0.01961877174152,0.0203223311416463,True
23976,157317,1,157318,3814.0,41705.0,30495.0,-0.00183,0.000366,0.00042699999999999997,0.31500000000000006,-1.7675,-3.6750000000000003,1.12378125,0.30584375,0.208375,1.4005,1.06125,-0.16975,-0.29159375,1.35215625,0.019677230836065745,0.020581965726312212,True
23977,157318,1,157319,3812.0,41707.0,30494.0,0.000732,-0.000549,-0.000366,0.15750000000000003,-2.0475000000000003,-3.6225000000000005,1.11615625,0.306625,0.20821875,1.4021875,1.0846875,-0.17865625000000002,-0.29271875,1.3714375,0.020070645985547687,0.02062089077617136,True
23978,157319,1,157320,3810.0,41704.0,30494.0,0.0015249999999999999,-0.001037,0.000976,0.14,-2.3975000000000004,-3.5875000000000004,1.1236875,0.30609375,0.20753125,1.40265625,1.0753125000000001,-0.17321875,-0.28346875,1.3447500000000001,0.019828244842238895,0.020219516620746367,True
23979,157320,1,157321,3808.0,41703.0,30493.0,0.002379,-0.001403,0.000366,0.21000000000000002,-2.6425,-3.5700000000000003,1.1218125,0.30565625,0.20978125,1.390875,1.05965625,-0.17209375,-0.2830625,1.3425625,0.019764527017855044,0.02029578229681697,True
23980,157321,1,157322,3807.0,41704.0,30491.0,0.0042699999999999995,0.000732,-0.002196,0.29750000000000004,-2.6950000000000003,-3.6400000000000006,1.1158125,0.31028125,0.2096875,1.39515625,1.06775,-0.16859375000000001,-0.291875,1.377625,0.019813937250693373,0.020647335786142487,True
23981,157322,1,157323,3808.0,41702.0,30491.0,0.002928,0.0006709999999999999,0.00122,0.1925,-2.345,-3.7625,1.11734375,0.3088125,0.2098125,1.3955625,1.0898125,-0.17603125,-0.2919375,1.375375,0.02005472879259287,0.020655001273570707,True
23982,157323,1,157324,3807.0,41703.0,30491.0,0.0013419999999999999,0.0,0.002257,0.24500000000000002,-1.8725000000000003,-3.7625,1.1169375,0.31034375000000003,0.2098125,1.39490625,1.090875,-0.18065625,-0.29303125,1.37996875,0.020305486953026763,0.020699094519132932,True
23983,157324,1,157325,3807.0,41705.0,30491.0,-0.0021349999999999997,-0.001037,-0.001281,0.12250000000000001,-1.5925000000000002,-3.7100000000000004,1.116875,0.30778125,0.20650000000000002,1.4003125,1.10053125,-0.17971875,-0.2883125,1.35625,0.020161524831631885,0.02037245280008646,True
23984,157325,1,157326,3805.0,41705.0,30492.0,-0.0048189999999999995,0.000183,-0.0017079999999999999,0.24500000000000002,-1.33,-3.6050000000000004,1.12434375,0.30646875,0.20903125,1.39346875,1.06925,-0.1723125,-0.28384375,1.357875,0.019807010603557273,0.02029641621293993,True
23985,157326,1,157327,3807.0,41706.0,30493.0,-0.002989,0.001464,0.000732,0.3325,-1.225,-3.5000000000000004,1.1249375,0.30575,0.2073125,1.3993125,1.07053125,-0.17328125,-0.28634375,1.35971875,0.01981655882980305,0.020326495214002725,True
23986,157327,1,157328,3805.0,41706.0,30493.0,-0.000488,-0.0023179999999999997,0.002928,0.28,-1.1900000000000002,-3.5000000000000004,1.12334375,0.30553125000000003,0.20700000000000002,1.40053125,1.08028125,-0.17400000000000002,-0.28715625,1.36290625,0.019836653015636637,0.02034640222648545,True
23987,157328,1,157329,3804.0,41705.0,30493.0,-0.0025009999999999998,-0.000305,0.0006709999999999999,0.24500000000000002,-1.2600000000000002,-3.5875000000000004,1.1230625,0.3086875,0.20800000000000002,1.39925,1.073375,-0.17425000000000002,-0.2878125,1.3624375,0.019977351934393,0.020414045110073213,True
23988,157329,1,157330,3807.0,41705.0,30492.0,-0.001037,0.002257,-0.001769,0.35000000000000003,-1.4700000000000002,-3.4650000000000003,1.120875,0.306,0.2085,1.39759375,1.0793125000000001,-0.17421875,-0.28784375,1.36325,0.019864912904372554,0.02043589192638807,True
23989,157330,1,157331,3806.0,41706.0,30493.0,0.000244,0.000915,-0.000793,0.29750000000000004,-1.7325000000000002,-3.6750000000000003,1.1196875,0.306875,0.20846875,1.40040625,1.08578125,-0.17546875,-0.289875,1.3653125,0.01995178480251805,0.02051652180177955,True
23990,157331,1,157332,3806.0,41706.0,30493.0,0.000183,-0.0018909999999999999,0.00183,0.22750000000000004,-1.8550000000000002,-3.7275000000000005,1.12259375,0.3085,0.2094375,1.39615625,1.07975,-0.17484375,-0.28946875,1.35625,0.019993665936310343,0.020540023132453237,True
23991,157332,1,157333,3807.0,41707.0,30493.0,0.001403,-0.0011589999999999999,-0.0006709999999999999,0.24500000000000002,-1.995,-3.7450000000000006,1.116875,0.30943750000000003,0.21181250000000001,1.3955312500000001,1.086125,-0.1758125,-0.2816875,1.361,0.020071714239180177,0.020323958126880596,True
23992,157333,1,157334,3807.0,41706.0,30493.0,0.001952,0.001098,-0.0018909999999999999,0.385,-1.9600000000000002,-3.6750000000000003,1.11728125,0.30971875,0.2095625,1.40434375,1.08,-0.17446875,-0.288375,1.3623750000000001,0.020028878607725353,0.02050106275121329,True
23993,157334,1,157335,3808.0,41706.0,30492.0,0.002196,0.001769,-0.001769,0.45500000000000007,-1.9775000000000003,-3.7800000000000002,1.1245625000000001,0.31184375000000003,0.2071875,1.40165625,1.0795000000000001,-0.17334375,-0.28746875,1.36571875,0.020071178609703096,0.020366727183128132,True
23994,157335,1,157336,3808.0,41707.0,30494.0,0.002928,-0.000244,0.000183,0.4025,-1.9250000000000003,-3.8150000000000004,1.10471875,0.30775,0.20750000000000002,1.394125,1.0859375,-0.17496875,-0.2906875,1.3680625,0.019967709368807353,0.020509403037686766,True
23995,157336,1,157337,3807.0,41707.0,30492.0,-0.000732,-0.00042699999999999997,6.1e-05,0.35000000000000003,-1.435,-3.535,1.11715625,0.30875,0.21078125,1.39275,1.085,-0.1765625,-0.29175,1.36921875,0.020073676727202224,0.020687321827369373,True
23996,157337,1,157338,3808.0,41709.0,30491.0,-0.001464,0.001281,0.000244,0.31500000000000006,-1.3125000000000002,-3.535,1.1108125,0.30971875,0.21256250000000002,1.3905625,1.08603125,-0.17853125,-0.28975,1.3625,0.020193534295016368,0.020680019349725708,True
23997,157338,1,157339,3807.0,41705.0,30494.0,-0.000488,0.000488,-0.000122,0.3325,-1.2075,-3.5700000000000003,1.11090625,0.3078125,0.20875,1.40728125,1.079,-0.17375000000000002,-0.2871875,1.35971875,0.019920885257769277,0.020419717186273625,True
23998,157339,1,157340,3808.0,41709.0,30494.0,0.00042699999999999997,-0.001586,-0.000122,0.29750000000000004,-1.155,-3.5525,1.1295625,0.2996875,0.205375,1.41053125,1.07946875,-0.16996875,-0.28934375,1.369625,0.01943139665830143,0.020367728131806772,True
23999,157340,1,157341,3808.0,41708.0,30493.0,-0.002745,-0.00183,0.0011589999999999999,0.35000000000000003,-1.0325000000000002,-3.6225000000000005,1.132625,0.29965625,0.20750000000000002,1.4044375,1.0843125,-0.17490625,-0.287875,1.35471875,0.019630376022657794,0.020395979475355503,True
24000,157341,1,157342,3808.0,41708.0,30494.0,-0.002074,0.001403,-0.000305,0.5075000000000001,-1.155,-3.6750000000000003,1.12871875,0.311875,0.21556250000000002,1.391375,1.0795625,-0.173875,-0.2835625,1.3627500000000001,0.020094006442905824,0.020554027029600786,True
24001,157342,1,157343,3809.0,41708.0,30493.0,-0.001037,0.002562,6.1e-05,0.47250000000000003,-1.3475000000000001,-3.6750000000000003,1.10775,0.30478125,0.2085,1.39621875,1.0789375,-0.1716875,-0.2875625,1.3630625,0.019711852968478098,0.020424548572957866,True
24002,157343,1,157344,3809.0,41708.0,30494.0,0.001464,0.000183,0.000305,0.385,-1.4700000000000002,-3.6750000000000003,1.1128437500000001,0.3115,0.21240625,1.379375,1.0790625,-0.17403125,-0.28871875,1.3646875,0.020084827597796704,0.020632006371270613,True
24003,157344,1,157345,3810.0,41709.0,30495.0,0.00183,-0.00061,-0.000183,0.35000000000000003,-1.4700000000000002,-3.6050000000000004,1.1127500000000001,0.305625,0.20546875,1.39690625,1.08496875,-0.17621875,-0.28984375,1.36834375,0.019930484373202488,0.020391753240487604,True
24004,157345,1,157346,3809.0,41709.0,30492.0,0.00122,-0.000305,0.000183,0.3325,-1.6275000000000002,-3.6575,1.11375,0.3095625,0.21275,1.3900625,1.08578125,-0.1771875,-0.29109375,1.3688437500000001,0.02013261468067781,0.020741912866727125,True
24005,157346,1,157347,3809.0,41709.0,30493.0,0.0015249999999999999,-0.0008539999999999999,-0.000366,0.29750000000000004,-1.6275000000000002,-3.6750000000000003,1.11015625,0.31034375000000003,0.21203125,1.39275,1.08715625,-0.17778125,-0.2911875,1.36203125,0.020188990666792472,0.02071610331936222,True
24006,157347,1,157348,3809.0,41709.0,30495.0,-0.000488,-0.00122,-0.00061,0.29750000000000004,-1.4175000000000002,-3.5875000000000004,1.1125625000000001,0.31053125,0.21209375,1.39734375,1.0825625,-0.174375,-0.28875,1.35575,0.020058688177046976,0.020620400391127582,True
24007,157348,1,157349,3812.0,41710.0,30495.0,-0.0013419999999999999,0.00061,0.00122,0.35000000000000003,-1.3125000000000002,-3.5700000000000003,1.1178125,0.30803125,0.2083125,1.4018125000000001,1.07903125,-0.17390625,-0.28821875,1.36290625,0.01993626909180224,0.02044329619684441,True
24008,157349,1,157350,3810.0,41709.0,30497.0,0.000122,-0.000122,0.00122,0.385,-1.2075,-3.5875000000000004,1.1230625,0.30984375000000003,0.21025,1.3955312500000001,1.07975,-0.17140625,-0.2836875,1.3645625000000001,0.019909888362411685,0.02034030045889859,True
24009,157350,1,157351,3812.0,41710.0,30498.0,-0.000549,0.00061,-0.000305,0.36750000000000005,-1.0325000000000002,-3.6225000000000005,1.11128125,0.30890625,0.2094375,1.3951875,1.0859375,-0.17834375,-0.29065625,1.37003125,0.02015233156737628,0.02058790610072546,True
24010,157351,1,157352,3813.0,41710.0,30499.0,-0.002928,0.000793,-0.000122,0.43750000000000006,-1.1375000000000002,-3.6400000000000006,1.1203125,0.30671875,0.20800000000000002,1.40128125,1.0870312500000001,-0.1733125,-0.28825,1.3626875,0.019857901146150325,0.02043169022057991,True
24011,157352,1,157353,3812.0,41711.0,30500.0,-0.0025009999999999998,0.000488,0.0008539999999999999,0.45500000000000007,-1.4000000000000001,-3.5875000000000004,1.113125,0.3093125,0.211375,1.39525,1.08040625,-0.17400000000000002,-0.28846875,1.3565,0.019993071068089684,0.020579467365557987,True
24012,157353,1,157354,3812.0,41712.0,30501.0,0.001098,-0.001769,0.000183,0.31500000000000006,-1.54,-3.5525,1.11146875,0.30796875,0.20678125,1.40215625,1.086625,-0.1775,-0.29025,1.362875,0.020079360976114156,0.02046217103570363,True
24013,157354,1,157355,3814.0,41712.0,30504.0,0.001769,-0.0013419999999999999,0.000305,0.21000000000000002,-1.5925000000000002,-3.6225000000000005,1.12471875,0.3128125,0.20746875,1.395875,1.08009375,-0.1740625,-0.28721875,1.3624687500000001,0.020140388070892096,0.020368223512624312,True
24014,157355,1,157356,3816.0,41713.0,30504.0,0.002196,0.000122,-0.000183,0.385,-1.7325000000000002,-3.6750000000000003,1.11721875,0.30903125,0.21125,1.395,1.07028125,-0.17325000000000002,-0.2915625,1.36759375,0.019951030581324396,0.020699059601456266,True
24015,157356,1,157357,3817.0,41713.0,30505.0,-0.000244,0.000549,-0.000305,0.22750000000000004,-1.6625,-3.6400000000000006,1.11546875,0.30803125,0.209875,1.39484375,1.084125,-0.1743125,-0.28800000000000003,1.36778125,0.01995273909030505,0.02049880599472991,True
24016,157357,1,157358,3817.0,41713.0,30505.0,0.000122,-0.001037,-0.0008539999999999999,0.17500000000000002,-1.54,-3.6225000000000005,1.11609375,0.30896875,0.20746875,1.40234375,1.083875,-0.17390625,-0.290875,1.35309375,0.01997505057752096,0.02051567718330443,True
24017,157358,1,157359,3820.0,41715.0,30507.0,-0.0013419999999999999,-0.000305,-0.000244,0.24500000000000002,-1.4175000000000002,-3.6925000000000003,1.12278125,0.30496875,0.20853125,1.3999375,1.0788125,-0.17375000000000002,-0.2878125,1.36209375,0.01980324732406019,0.02043591822030082,True
24018,157359,1,157360,3819.0,41712.0,30507.0,-0.002379,0.001281,0.002257,0.29750000000000004,-1.4525000000000001,-3.6400000000000006,1.11690625,0.31128125,0.21003125,1.39521875,1.07934375,-0.1749375,-0.2925,1.36740625,0.0201125132174592,0.02068668313265411,True
24019,157360,1,157361,3820.0,41713.0,30505.0,0.000122,-0.000488,0.000488,0.29750000000000004,-1.4875,-3.6750000000000003,1.1180625,0.30543750000000003,0.2081875,1.400875,1.0869375000000001,-0.1760625,-0.2876875,1.3628125,0.01991639457417849,0.020416723494157275,True
24020,157361,1,157362,3820.0,41714.0,30506.0,0.00042699999999999997,-0.000122,0.0,0.42000000000000004,-1.4175000000000002,-3.5700000000000003,1.11825,0.30896875,0.21009375,1.39621875,1.0789375,-0.17400000000000002,-0.2909375,1.3680625,0.019978851245139408,0.020626262366366062,True
24021,157362,1,157363,3823.0,41716.0,30509.0,0.000732,0.000732,-0.000915,0.42000000000000004,-1.4875,-3.6750000000000003,1.11575,0.30840625,0.2103125,1.39896875,1.08525,-0.1746875,-0.2894375,1.3628437500000001,0.01998345376749958,0.020574786880099633,True
24022,157363,1,157364,3823.0,41717.0,30509.0,0.002257,0.0008539999999999999,0.0,0.385,-1.54,-3.7275000000000005,1.12196875,0.30746875,0.20890625000000002,1.39928125,1.0799375,-0.1739375,-0.2879375,1.3626562500000001,0.019914267173066037,0.020456399395790605,True
24023,157364,1,157365,3825.0,41715.0,30510.0,-6.1e-05,-0.000183,0.000488,0.3325,-1.54,-3.7100000000000004,1.120125,0.30740625,0.20946875,1.39959375,1.08009375,-0.16859375000000001,-0.28728125,1.362625,0.019694981219170023,0.020453092089094987,True
24024,157365,1,157366,3824.0,41718.0,30510.0,-0.0023179999999999997,0.000366,-0.000366,0.24500000000000002,-1.6800000000000002,-3.8150000000000004,1.121875,0.30646875,0.20828125,1.39921875,1.0770625,-0.17359375,-0.2875625,1.363,0.019858962840392732,0.020415541905450578,True
24025,157366,1,157367,3828.0,41717.0,30510.0,-0.000732,-0.000183,-0.00042699999999999997,0.29750000000000004,-1.8375000000000001,-3.6400000000000006,1.119,0.30946875,0.20875,1.39084375,1.07934375,-0.1738125,-0.288125,1.362125,0.019991933419687108,0.02045752811301819,True
24026,157367,1,157368,3828.0,41718.0,30512.0,0.000122,6.1e-05,0.001037,0.31500000000000006,-1.9425000000000001,-3.5700000000000003,1.1204375,0.309125,0.20915625000000002,1.39834375,1.07309375,-0.17500000000000002,-0.28815625,1.3633125,0.0200258531540848,0.020475514686299007,True
24027,157368,1,157369,3829.0,41717.0,30512.0,0.003111,0.000305,0.000549,0.22750000000000004,-2.0650000000000004,-3.5700000000000003,1.12090625,0.30853125,0.20859375,1.3993125,1.0792187500000001,-0.17340625,-0.2879375,1.36028125,0.019936681451336632,0.02044353292658135,True
24028,157369,1,157370,3828.0,41719.0,30510.0,0.002806,0.000122,-0.000549,0.24500000000000002,-2.0300000000000002,-3.6575,1.123,0.3071875,0.209625,1.39515625,1.07884375,-0.17296875,-0.28615625,1.36240625,0.019863354599339397,0.020414150551304303,True
24029,157370,1,157371,3831.0,41716.0,30512.0,0.000915,-0.001464,0.000122,0.24500000000000002,-1.8550000000000002,-3.7625,1.116875,0.30890625,0.21156250000000001,1.38925,1.088125,-0.17046875,-0.2915,1.37371875,0.01983308660490914,0.02070940452421629,True
24030,157371,1,157372,3831.0,41719.0,30512.0,0.0006709999999999999,-0.000122,0.000732,0.1925,-1.5225000000000002,-3.6225000000000005,1.11734375,0.30859375,0.210375,1.3919062500000001,1.0892187500000001,-0.17684375,-0.28896875,1.3703750000000001,0.02007861344597555,0.020558458250723388,True
24031,157372,1,157373,3833.0,41717.0,30511.0,0.000732,0.00042699999999999997,0.0008539999999999999,0.385,-1.4700000000000002,-3.6225000000000005,1.10878125,0.3168125,0.208875,1.4003125,1.08846875,-0.1786875,-0.29434375,1.3726875,0.020493254648334406,0.020713411943880974,True
24032,157373,1,157374,3833.0,41718.0,30514.0,-0.000488,-0.000793,-0.000793,0.1925,-1.4000000000000001,-3.7450000000000006,1.12859375,0.29553125,0.19953125,1.4153125,1.091375,-0.177625,-0.28981250000000003,1.370125,0.01957000532517152,0.020146048883662646,True
24033,157374,1,157375,3835.0,41719.0,30515.0,-0.003294,-0.000549,-0.0032329999999999998,0.4025,-1.4875,-3.6750000000000003,1.13871875,0.3096875,0.20828125,1.40253125,1.08984375,-0.177125,-0.28528125,1.374,0.020135251813439354,0.020323524151074017,True
24034,157375,1,157376,3835.0,41719.0,30516.0,-0.002928,0.000976,0.00042699999999999997,0.36750000000000005,-1.5925000000000002,-3.6575,1.124625,0.30984375000000003,0.20509375,1.40178125,1.0884375,-0.179625,-0.29121875,1.3730625,0.020243024860807392,0.020431766108894807,True
24035,157376,1,157377,3836.0,41720.0,30514.0,0.0018909999999999999,0.000122,0.00244,0.42000000000000004,-2.0825,-3.7275000000000005,1.1268125,0.29975,0.2031875,1.403875,1.09109375,-0.1781875,-0.28571875,1.36,0.019767300588598713,0.020131430122898874,True
24036,157377,1,157378,3838.0,41721.0,30518.0,-0.000793,-0.0028669999999999998,-0.001281,0.2625,-2.0475000000000003,-3.6750000000000003,1.106,0.31246875,0.21912500000000001,1.404125,1.07334375,-0.17578125,-0.2836875,1.3700625,0.020195831313620943,0.02070577213613048,True
24037,157378,1,157379,3839.0,41721.0,30519.0,-0.000244,-0.000305,-0.0044529999999999995,0.22750000000000004,-1.9775000000000003,-3.6400000000000006,1.13934375,0.3000625,0.206375,1.37403125,1.08446875,-0.17584375,-0.28684375,1.3610625,0.019685197129883005,0.020308062878693328,True
24038,157379,1,157380,3840.0,41719.0,30516.0,0.001464,0.002806,-0.0023179999999999997,0.24500000000000002,-1.995,-3.6225000000000005,1.10478125,0.307375,0.20059375000000002,1.4120625,1.07965625,-0.1761875,-0.2886875,1.36496875,0.020001602816821302,0.020144408791129612,True
24039,157380,1,157381,3841.0,41718.0,30518.0,0.0026839999999999998,0.002623,0.00183,0.29750000000000004,-2.0825,-3.6750000000000003,1.124125,0.3129375,0.2165625,1.38525,1.07978125,-0.174625,-0.2836875,1.35146875,0.02016835835095684,0.020600248623690285,True
24040,157381,1,157382,3842.0,41721.0,30518.0,-0.002013,-0.002257,0.00042699999999999997,0.21000000000000002,-1.8725000000000003,-3.6925000000000003,1.10521875,0.310625,0.21359375,1.386625,1.0865625,-0.17775,-0.29053125,1.3675,0.020199356846687555,0.02075397177655388,True
24041,157382,1,157383,3845.0,41722.0,30519.0,0.0011589999999999999,-0.000976,-0.001403,0.22750000000000004,-1.995,-3.5525,1.11440625,0.30728125,0.20803125,1.397875,1.08496875,-0.17690625000000001,-0.2909375,1.36328125,0.020026859309180637,0.020541354157286026,True
24042,157383,1,157384,3845.0,41721.0,30521.0,0.004026,0.000732,0.000183,0.28,-2.0825,-3.5700000000000003,1.12134375,0.3098125,0.21025,1.39546875,1.080125,-0.1751875,-0.291125,1.36909375,0.02006189197084821,0.020640254413906312,True
24043,157384,1,157385,3845.0,41722.0,30522.0,0.003965,-0.0017079999999999999,0.0,0.24500000000000002,-2.1,-3.6400000000000006,1.11734375,0.30815625,0.21025,1.3945,1.0850312500000001,-0.17559375,-0.28965625,1.367125,0.02000984980979009,0.020581034365194033,True
24044,157385,1,157386,3846.0,41724.0,30525.0,0.002379,-0.0023179999999999997,-0.0006709999999999999,0.29750000000000004,-1.7500000000000002,-3.6400000000000006,1.11728125,0.306625,0.2078125,1.40175,1.08021875,-0.17396875,-0.28775,1.3629375000000001,0.019880630895578535,0.02040380438698521,True
24045,157386,1,157387,3848.0,41727.0,30524.0,-0.003172,0.003172,-0.000793,0.385,-1.1375000000000002,-3.6750000000000003,1.12478125,0.3093125,0.21059375,1.39203125,1.07946875,-0.17465625,-0.28971875,1.3655625,0.02001967453001529,0.020597706591394767,True
24046,157387,1,157388,3849.0,41725.0,30526.0,-0.0035989999999999998,0.0008539999999999999,6.1e-05,0.4025,-0.9450000000000001,-3.7100000000000004,1.11678125,0.30634375,0.20840625000000002,1.3993125,1.08675,-0.17196875,-0.2879375,1.362625,0.01978789998228837,0.0204358130450558,True
24047,157388,1,157389,3850.0,41726.0,30525.0,-0.006161,-0.000366,0.0,0.43750000000000006,-0.8400000000000001,-3.6575,1.11396875,0.30934375000000003,0.21053125,1.3891875,1.07928125,-0.17375000000000002,-0.29215625,1.36896875,0.019984228760535707,0.020693407980199367,True
24048,157389,1,157390,3852.0,41728.0,30528.0,-0.004697,0.000488,0.0026839999999999998,0.42000000000000004,-1.0325000000000002,-3.6225000000000005,1.117,0.3085,0.20675000000000002,1.3995312500000001,1.08134375,-0.17665625000000001,-0.287375,1.35840625,0.020067136041610385,0.020344932295071,True
24049,157390,1,157391,3852.0,41729.0,30528.0,-0.003721,0.000732,0.0006709999999999999,0.5075000000000001,-1.2775,-3.5875000000000004,1.12459375,0.3050625,0.2068125,1.39871875,1.07878125,-0.17400000000000002,-0.28931250000000003,1.35796875,0.01981726234797717,0.020425650170213753,True
24050,157391,1,157392,3852.0,41728.0,30528.0,0.0017079999999999999,0.001403,0.0,0.385,-2.24,-3.43,1.1179375,0.30909375,0.21306250000000002,1.39534375,1.0835937500000001,-0.177125,-0.28690625000000003,1.3704687500000001,0.02011069347575446,0.020585938153403135,True
24051,157392,1,157393,3852.0,41729.0,30526.0,0.005856,-0.0015249999999999999,0.000793,0.36750000000000005,-2.4325,-3.5000000000000004,1.11959375,0.30503125000000003,0.2099375,1.3854375,1.08,-0.17321875,-0.288125,1.36346875,0.019784291241728,0.02050642031857132,True
24052,157393,1,157394,3851.0,41728.0,30526.0,0.010553,-0.0018909999999999999,-0.001586,0.22750000000000004,-2.45,-3.4825000000000004,1.1176875,0.308625,0.21096875,1.40165625,1.08565625,-0.171625,-0.29003125,1.36225,0.019868337358369573,0.020625745386803486,True
24053,157394,1,157395,3852.0,41729.0,30524.0,0.007259,-0.00122,-0.0037819999999999998,0.1925,-2.2225,-3.6225000000000005,1.1238125,0.30665625,0.209625,1.397375,1.0796875000000001,-0.173125,-0.28853125,1.3626562500000001,0.019847713111151334,0.020509937174566704,True
24054,157395,1,157396,3849.0,41727.0,30524.0,-0.0044529999999999995,0.0025009999999999998,0.001952,0.35000000000000003,-1.9250000000000003,-3.5700000000000003,1.116875,0.3086875,0.210375,1.3959375,1.0843125,-0.1759375,-0.28615625,1.367625,0.0200457583082352,0.0204450323422423,True
24055,157396,1,157397,3847.0,41728.0,30520.0,-0.005612,0.000732,0.001464,0.31500000000000006,-1.54,-3.6925000000000003,1.117125,0.314,0.21059375,1.3941875000000001,1.084,-0.17765625000000002,-0.28815625,1.355625,0.020335149317874848,0.020534699911608154,True
24056,157397,1,157398,3844.0,41728.0,30519.0,-0.004392,-0.000732,0.001281,0.385,-1.4525000000000001,-3.6225000000000005,1.11765625,0.30434375,0.2083125,1.40159375,1.07884375,-0.17353125,-0.28775,1.363,0.019768522648092635,0.02042439089664543,True
24057,157398,1,157399,3841.0,41724.0,30517.0,-0.003172,0.00061,-0.001464,0.24500000000000002,-1.5750000000000002,-3.6050000000000004,1.12096875,0.30671875,0.21071875,1.3960937500000001,1.07990625,-0.1749375,-0.28846875,1.36578125,0.019923784704717437,0.020552448371204957,True
24058,157399,1,157400,3837.0,41721.0,30516.0,-0.00244,0.00183,0.000976,0.29750000000000004,-1.7325000000000002,-3.6400000000000006,1.10721875,0.30921875,0.21065625000000002,1.395875,1.07546875,-0.1744375,-0.2883125,1.364875,0.02000692880651308,0.02054357419849568,True
24059,157400,1,157401,3834.0,41723.0,30515.0,0.001952,-0.0006709999999999999,-0.001586,0.36750000000000005,-2.415,-3.6925000000000003,1.11759375,0.309,0.210375,1.394125,1.0836875,-0.176625,-0.2894375,1.3675,0.0200865505421042,0.02057736001502711,True
24060,157401,1,157402,3829.0,41722.0,30515.0,0.002928,-0.001037,-0.002379,0.12250000000000001,-2.66,-3.6400000000000006,1.11603125,0.3090625,0.2075625,1.4020625,1.0852187500000001,-0.17559375,-0.28890625000000003,1.36159375,0.02004733596253453,0.020440144356026736,True
24061,157402,1,157403,3827.0,41721.0,30512.0,0.006588,-0.0021349999999999997,0.001769,0.052500000000000005,-2.9575000000000005,-3.6225000000000005,1.12421875,0.30765625,0.2089375,1.40084375,1.0794375,-0.1746875,-0.28925,1.3630312500000001,0.019952429581561293,0.020510616836666426,True
24062,157403,1,157404,3824.0,41720.0,30510.0,0.009637999999999999,-0.0034159999999999998,0.00122,0.07,-2.66,-3.7975000000000003,1.12434375,0.30528125,0.21046875,1.3901875000000001,1.0799375,-0.172625,-0.29046875,1.379875,0.019770556569673338,0.02062280086710966,True
24063,157404,1,157405,3823.0,41719.0,30509.0,0.00488,-0.0040869999999999995,-0.002806,0.035,-2.0475000000000003,-3.8150000000000004,1.11728125,0.311,0.21,1.39525,1.09753125,-0.179875,-0.28853125,1.363375,0.020300973433485494,0.020525376560182083,True
24064,157405,1,157406,3821.0,41717.0,30511.0,-0.008479,0.0053679999999999995,0.001952,0.47250000000000003,-1.3125000000000002,-3.7275000000000005,1.1165625000000001,0.308625,0.20940625000000002,1.39578125,1.074875,-0.17175,-0.28421875,1.3555625,0.019873405938750813,0.020326987047915634,True
24065,157406,1,157407,3817.0,41718.0,30509.0,-0.0060999999999999995,0.0021349999999999997,0.002379,0.35000000000000003,-1.3825,-3.7800000000000002,1.11325,0.3060625,0.20721875,1.40328125,1.0730625,-0.1715,-0.28150000000000003,1.35915625,0.01975725544546263,0.020127205897493977,True
24066,157407,1,157408,3817.0,41719.0,30508.0,-0.005795,-0.002745,0.003355,0.29750000000000004,-1.6450000000000002,-3.6750000000000003,1.122875,0.3095,0.2100625,1.39528125,1.07965625,-0.18175,-0.2959375,1.37221875,0.020314906902932996,0.02082652706856856,True
24067,157408,1,157409,3815.0,41717.0,30507.0,-0.002806,-0.001403,0.0017079999999999999,0.36750000000000005,-1.995,-3.5175000000000005,1.11659375,0.30771875,0.20884375,1.40071875,1.09028125,-0.1720625,-0.2845625,1.35759375,0.01984858553133395,0.020317691537576597,True
24068,157409,1,157410,3814.0,41717.0,30505.0,0.0034159999999999998,0.003172,-0.000366,0.5425000000000001,-2.2750000000000004,-3.6225000000000005,1.12234375,0.30590625,0.20653125,1.40165625,1.073375,-0.17228125,-0.28300000000000003,1.35928125,0.019782472951327255,0.0201594222295433,True
24069,157410,1,157411,3813.0,41718.0,30508.0,0.002074,0.002013,-0.002074,0.35000000000000003,-2.31,-3.5175000000000005,1.12315625,0.3065,0.20909375,1.39890625,1.074875,-0.1750625,-0.28903125,1.35371875,0.019919803723361627,0.020508228379837092,True
24070,157411,1,157412,3813.0,41717.0,30508.0,0.003843,-0.001037,0.003294,0.28,-2.2750000000000004,-3.6400000000000006,1.12384375,0.31425000000000003,0.20803125,1.3991875,1.0752187500000001,-0.1745625,-0.2895,1.3596875,0.020220117737394423,0.02048338788365343,True
24071,157412,1,157413,3811.0,41718.0,30509.0,0.00671,-0.003172,0.00183,0.2625,-2.1350000000000002,-3.6575,1.12525,0.3048125,0.20696875,1.3985625,1.07284375,-0.17215625,-0.28640625000000003,1.35815625,0.01973215566981121,0.020314862352267538,True
24072,157413,1,157414,3811.0,41717.0,30508.0,0.0051849999999999995,-0.002806,-0.002928,0.1925,-1.6625,-3.6925000000000003,1.11859375,0.30834375,0.20915625000000002,1.3980625,1.07365625,-0.17278125,-0.28490625,1.3549375000000001,0.01990358473955081,0.020344426900968583,True
24073,157414,1,157415,3810.0,41719.0,30508.0,0.000915,-0.00061,-0.002623,0.24500000000000002,-1.2425000000000002,-3.6225000000000005,1.12384375,0.3055,0.20871875,1.3913125,1.0744375,-0.17300000000000001,-0.28759375,1.36078125,0.0197948123939933,0.02043481561445337,True
24074,157415,1,157416,3809.0,41719.0,30505.0,-0.008967,0.000793,0.0015249999999999999,0.35000000000000003,-0.77,-3.7275000000000005,1.1173125,0.30884375000000003,0.20925,1.40128125,1.08428125,-0.17753125,-0.29125,1.3629375000000001,0.020116818171830506,0.020604127000463126,True
24075,157416,1,157417,3809.0,41719.0,30506.0,-0.009394,-0.0015249999999999999,0.006527,0.29750000000000004,-0.8925000000000001,-3.6925000000000003,1.12309375,0.3086875,0.2075625,1.3936250000000001,1.07915625,-0.1740625,-0.2880625,1.3624687500000001,0.01996975063665861,0.02040611514401365,True
24076,157417,1,157418,3811.0,41720.0,30509.0,-0.0044529999999999995,-0.001464,0.004392,0.29750000000000004,-1.2425000000000002,-3.7275000000000005,1.11703125,0.30840625,0.20875,1.395,1.0854375,-0.1773125,-0.290625,1.36721875,0.020089856968180397,0.02055834298211759,True
24077,157418,1,157419,3810.0,41719.0,30508.0,-0.001403,0.0,-0.004941,0.35000000000000003,-1.6625,-3.7100000000000004,1.11953125,0.3045625,0.2136875,1.40059375,1.07303125,-0.17346875,-0.28771875,1.36278125,0.019775037457129524,0.02064443578094382,True
24078,157419,1,157420,3811.0,41717.0,30505.0,0.001586,0.0028669999999999998,-0.0059169999999999995,0.4025,-2.0125,-3.7100000000000004,1.1226562500000001,0.307,0.2105,1.39540625,1.07946875,-0.175875,-0.28915625,1.36928125,0.01997342391950653,0.020571165373436964,True
24079,157420,1,157421,3811.0,41720.0,30506.0,0.004514,0.000244,-0.0025009999999999998,0.45500000000000007,-2.5025000000000004,-3.6925000000000003,1.117,0.3078125,0.21034375,1.398875,1.086375,-0.178,-0.2841875,1.3627500000000001,0.02009316320622053,0.02036433172820791,True
24080,157421,1,157422,3811.0,41720.0,30507.0,0.006893,-0.000732,0.002928,0.4025,-2.7825,-3.5875000000000004,1.12178125,0.3085,0.20853125,1.397,1.0798125,-0.17409375,-0.28865625,1.36271875,0.019963261290818813,0.020469946747259847,True
24081,157422,1,157423,3811.0,41719.0,30506.0,0.007442,0.001098,0.010735999999999999,0.42000000000000004,-2.8350000000000004,-3.7450000000000006,1.1171875,0.30946875,0.20928125,1.39540625,1.0836875,-0.1754375,-0.2905625,1.369,0.020057806606395435,0.020577693497217286,True
24082,157423,1,157424,3813.0,41721.0,30508.0,0.0070149999999999995,-0.002196,0.004392,0.36750000000000005,-2.4850000000000003,-3.8150000000000004,1.12415625,0.306125,0.2046875,1.39740625,1.08034375,-0.1735625,-0.28825,1.361875,0.019843475697882758,0.02029530740172717,True
24083,157424,1,157425,3813.0,41719.0,30507.0,0.001098,-0.003294,-0.006893,0.47250000000000003,-1.715,-3.6750000000000003,1.1167500000000001,0.30778125,0.20546875,1.406125,1.0846875,-0.1758125,-0.29090625000000003,1.36378125,0.020003205683366384,0.020434601940798318,True
24084,157425,1,157426,3815.0,41720.0,30506.0,-0.0050019999999999995,0.002745,0.001403,0.4025,-0.8925000000000001,-3.6225000000000005,1.12096875,0.3098125,0.21134375,1.39396875,1.07934375,-0.17425000000000002,-0.29,1.36140625,0.02002388905550327,0.020639923836969946,True
24085,157426,1,157427,3814.0,41720.0,30506.0,-0.005307,-0.00549,0.003843,0.08750000000000001,-0.9625000000000001,-3.7100000000000004,1.11415625,0.30884375000000003,0.2068125,1.4036875,1.08015625,-0.177,-0.28784375,1.36278125,0.02009528684286719,0.020366412724472507,True
24086,157427,1,157428,3815.0,41718.0,30505.0,-0.0068319999999999995,-0.007076,0.00061,0.15750000000000003,-0.7350000000000001,-3.6050000000000004,1.1187500000000001,0.31046875,0.21146875,1.39378125,1.0678125,-0.174375,-0.289625,1.3705625000000001,0.02005610279479821,0.020629950030105447,True
24087,157428,1,157429,3815.0,41718.0,30507.0,-0.0077469999999999995,0.00122,-0.0021349999999999997,0.42000000000000004,-0.8750000000000001,-3.5700000000000003,1.11528125,0.30821875,0.2080625,1.4048125,1.0852187500000001,-0.174125,-0.29021875,1.36259375,0.019952893848277857,0.020513658404167315,True
24088,157429,1,157430,3814.0,41719.0,30509.0,-0.00488,0.006893,-0.0023179999999999997,0.5950000000000001,-1.2425000000000002,-3.5875000000000004,1.127875,0.3101875,0.21215625,1.38596875,1.0791250000000001,-0.17425000000000002,-0.28890625000000003,1.3668437500000001,0.020039401429206696,0.02062927390977105,True
24089,157430,1,157431,3815.0,41721.0,30507.0,0.0037819999999999998,-0.000549,0.003843,0.385,-2.1350000000000002,-3.7275000000000005,1.1164687500000001,0.3013125,0.20834375,1.3935,1.0831875,-0.17415625,-0.28815625,1.36209375,0.01966847343431066,0.020442062167646012,True
24090,157431,1,157432,3814.0,41721.0,30509.0,0.006039,-0.0013419999999999999,0.0034159999999999998,0.29750000000000004,-2.4675000000000002,-3.6925000000000003,1.1143125,0.30865625,0.20540625,1.39996875,1.0831250000000001,-0.17740625000000002,-0.28721875,1.36309375,0.020103996887590042,0.02028330230278014,True
24091,157432,1,157433,3813.0,41719.0,30508.0,0.0060999999999999995,0.000305,-0.002806,0.385,-2.66,-3.6050000000000004,1.11290625,0.30853125,0.20934375,1.404125,1.079375,-0.1755625,-0.285375,1.36203125,0.020024094578978253,0.020371056654467968,True
24092,157433,1,157434,3816.0,41719.0,30508.0,0.00671,0.0017079999999999999,-0.0044529999999999995,0.42000000000000004,-2.5725000000000002,-3.6400000000000006,1.118,0.30915625,0.20909375,1.40203125,1.0800625,-0.1740625,-0.28896875,1.3628437500000001,0.01998914125418514,0.02050570796670814,True
24093,157434,1,157435,3816.0,41722.0,30509.0,0.009089,0.000183,-0.0018909999999999999,0.4025,-2.5725000000000002,-3.6225000000000005,1.12309375,0.30903125,0.2114375,1.387875,1.079375,-0.17459375,-0.2876875,1.3655,0.0200055068143596,0.020550536151290648,True
24094,157435,1,157436,3814.0,41723.0,30509.0,0.0034159999999999998,-0.0034159999999999998,0.0011589999999999999,0.3325,-1.6275000000000002,-3.6400000000000006,1.1167500000000001,0.3056875,0.217875,1.3956250000000001,1.08346875,-0.17353125,-0.28821875,1.366125,0.019824110306598256,0.020837005595562664,True
24095,157436,1,157437,3815.0,41721.0,30511.0,-0.004148,-0.000976,-0.001952,0.21000000000000002,-1.0675000000000001,-3.6925000000000003,1.11775,0.30559375,0.20696875,1.3940625,1.085875,-0.1740625,-0.2879375,1.3607500000000001,0.01984177256098349,0.02037662728669324,True
24096,157437,1,157438,3817.0,41720.0,30511.0,-0.008723,0.003355,-0.0021349999999999997,0.385,-0.47250000000000003,-3.6400000000000006,1.12125,0.30925,0.21003125,1.395375,1.0795625,-0.17565625,-0.29175,1.37478125,0.020057625116174458,0.020656447147694178,True
24097,157438,1,157439,3816.0,41722.0,30510.0,-0.009028,0.002013,0.001952,0.3325,-0.22750000000000004,-3.5700000000000003,1.10615625,0.30796875,0.21053125,1.3897187500000001,1.0796875000000001,-0.1694375,-0.295,1.3859375,0.01975247665569379,0.020808036633052068,True
24098,157439,1,157440,3818.0,41722.0,30514.0,-0.010369999999999999,-0.0013419999999999999,0.004148,0.36750000000000005,-0.15750000000000003,-3.6050000000000004,1.116875,0.3085,0.20878125,1.40075,1.0768125,-0.17084375000000002,-0.28659375,1.3625625000000001,0.01983148602332097,0.02039705547427786,True
24099,157440,1,157441,3820.0,41724.0,30513.0,-0.003111,0.001281,0.000366,0.36750000000000005,-0.7875000000000001,-3.5000000000000004,1.1084687500000001,0.308875,0.21034375,1.3885,1.10046875,-0.179875,-0.28996875,1.35934375,0.020213090431608932,0.020597494593318486,True
24100,157441,1,157442,3819.0,41724.0,30514.0,0.000122,0.002196,-0.002379,0.4025,-1.4000000000000001,-3.535,1.11884375,0.30528125,0.21028125,1.401875,1.067125,-0.17028125,-0.28715625,1.3764375,0.019675505430868746,0.02048150449890567,True
24101,157442,1,157443,3822.0,41725.0,30515.0,0.003477,0.001586,-0.00183,0.28,-1.9600000000000002,-3.6400000000000006,1.11721875,0.30843750000000003,0.21046875,1.3950625,1.1024375,-0.184375,-0.28953125,1.3610312500000001,0.020377309729939272,0.02058499996783594,True
24102,157443,1,157444,3823.0,41726.0,30515.0,0.005429,-0.0015249999999999999,0.000183,0.22750000000000004,-2.6950000000000003,-3.5875000000000004,1.11821875,0.30690625,0.20721875,1.3956875,1.06834375,-0.17015625,-0.28834375,1.3818125,0.01973766719029795,0.020403305597978455,True
24103,157444,1,157445,3822.0,41726.0,30515.0,0.0062829999999999995,-0.00244,0.001464,0.24500000000000002,-3.1500000000000004,-3.6925000000000003,1.11559375,0.3075625,0.209125,1.40221875,1.086375,-0.17909375,-0.28150000000000003,1.35153125,0.020127150133573555,0.020205712167699688,True
24104,157445,1,157446,3823.0,41725.0,30515.0,0.010675,-0.00122,-0.003477,0.17500000000000002,-2.975,-3.6575,1.12190625,0.30596875,0.208875,1.39603125,1.069,-0.173125,-0.28565625,1.38203125,0.019819272435814567,0.020363100132408406,True
24105,157446,1,157447,3824.0,41723.0,30517.0,0.008235,0.0,-0.002257,0.21000000000000002,-2.345,-3.7100000000000004,1.1168125,0.30871875,0.20946875,1.39446875,1.08978125,-0.18306250000000002,-0.29159375,1.3726875,0.020335772195932588,0.02062699159045503,True
